rt,stimulus,response,exp_name,exp_stage,subjectID,trial_type,trial_index,time_elapsed,internal_node_id,span,answer,correct,correct_full,span_history,databaseID,prolificID,start_time,date
6178.800000000745,"<p style=""font-size:4rem""><br><br>In the next part today, we have a completely different short task.<br><br><br>This part involves keeping numbers in you mind. Participation takes around 5 minutes.<br><br><br></p>",0,fwdspan,instruct,fOLgxK5JNif2vjs9WiHWvRfaPte2,html-button-response,19,275320,0.0-7.0-0.0,,,,,,,5f9802a1306ea3045e8c0b43,11:20:43,15/01/2024
12584.5,"<p style=""font-size:5rem"">Welcome to the <b>digit span task</b>!<br><br></p><p style=""font-size:3.4rem""><br>On each trial, you will see a sequence of digits, followed by a delay.</p><p style=""font-size:3.4rem""><br>Then you will be asked to type them back in the same order in which they were seen.</p><p style=""font-size:3.4rem""><br><br><br>For example, if you saw the digits <b style=""color:blue;"">1</b>, <b style=""color:blue;"">2</b>, <b style=""color:blue;"">3</b>, you would respond with <b style=""color:blue;"">1</b>, <b style=""color:blue;"">2</b>, <b style=""color:blue;"">3</b></p><p style=""font-size:3.4rem""><br><br><br>To ensure the best measure of true performance for our study,<br><br>it is very important that you do not use any memory aid (e.g., pen and paper).<br><br>Please do the task solely in your head.</p><p style=""font-size:3.4rem""><br><br><br>There will be 12 total trials. Participation takes around 5 minutes.</p><br><br><br>",0,fwdspan,instruct,fOLgxK5JNif2vjs9WiHWvRfaPte2,html-button-response,20,287905,0.0-7.0-1.0,,,,,,,5f9802a1306ea3045e8c0b43,11:20:43,15/01/2024
1111.199999999255,"<p style=""font-size:3rem"">Trial 1 of 12</p><br><br><br>",0,fwdspan,start_trial,fOLgxK5JNif2vjs9WiHWvRfaPte2,html-button-response,21,289017,0.0-7.0-2.0-0.0-0.0,,,,,,,5f9802a1306ea3045e8c0b43,11:20:43,15/01/2024
,"<p style=""font-size:14rem;font-weight:400;"">5</p>",,fwdspan,number,fOLgxK5JNif2vjs9WiHWvRfaPte2,html-keyboard-response,22,290033,0.0-7.0-2.0-0.0-1.0-0.0,,,,,,,5f9802a1306ea3045e8c0b43,11:20:43,15/01/2024
,"<p style=""font-size:14rem;font-weight:400;"">2</p>",,fwdspan,number,fOLgxK5JNif2vjs9WiHWvRfaPte2,html-keyboard-response,23,291043,0.0-7.0-2.0-0.0-1.1-0.1,,,,,,,5f9802a1306ea3045e8c0b43,11:20:43,15/01/2024
,"<p style=""font-size:14rem;font-weight:400;"">1</p>",,fwdspan,number,fOLgxK5JNif2vjs9WiHWvRfaPte2,html-keyboard-response,24,292053,0.0-7.0-2.0-0.0-1.2-0.2,,,,,,,5f9802a1306ea3045e8c0b43,11:20:43,15/01/2024
,[],,fwdspan,delay,fOLgxK5JNif2vjs9WiHWvRfaPte2,html-keyboard-response,25,292615,0.0-7.0-2.0-0.0-2.0,,,,,,,5f9802a1306ea3045e8c0b43,11:20:43,15/01/2024
4229.5999999996275,"<div class = numbox><p style=""font-size:2.5rem"">What were the numbers <b>in order</b>?<br>(When you are ready to lock in your answer, press <b>ENTER</b>)</p><button id = button_1 class = ""square num-button"" onclick = ""recordClick(this)""><div class = content><div class = numbers>1</div></div></button><button id = button_2 class = ""square num-button"" onclick = ""recordClick(this)""><div class = content><div class = numbers>2</div></div></button><button id = button_3 class = ""square num-button"" onclick = ""recordClick(this)""><div class = content><div class = numbers>3</div></div></button><button id = button_4 class = ""square num-button"" onclick = ""recordClick(this)""><div class = content><div class = numbers>4</div></div></button><button id = button_5 class = ""square num-button"" onclick = ""recordClick(this)""><div class = content><div class = numbers>5</div></div></button><button id = button_6 class = ""square num-button"" onclick = ""recordClick(this)""><div class = content><div class = numbers>6</div></div></button><button id = button_7 class = ""square num-button"" onclick = ""recordClick(this)""><div class = content><div class = numbers>7</div></div></button><button id = button_8 class = ""square num-button"" onclick = ""recordClick(this)""><div class = content><div class = numbers>8</div></div></button><button id = button_9 class = ""square num-button"" onclick = ""recordClick(this)""><div class = content><div class = numbers>9</div></div></button><button class = clear_button id = ""ClearButton"" onclick = ""clearResponse()"">Clear</button><p><u><b>Current Answer:</b></u></p><div id=echoed_txt style=""font-size: 6rem; color:blue;""><b></b></div></div><br><br><br><br><br><br><br>",enter,fwdspan,response,fOLgxK5JNif2vjs9WiHWvRfaPte2,html-keyboard-response,26,296845,0.0-7.0-2.0-0.0-3.0,3.0,"[5,2,1]","[5,2,1]",1.0,"[3, 4, 5, 6, 7, 8, 9, 9, 8, 8, 7, 8]",,5f9802a1306ea3045e8c0b43,11:20:43,15/01/2024
,,,fwdspan,update_span,fOLgxK5JNif2vjs9WiHWvRfaPte2,call-function,27,297113,0.0-7.0-2.0-0.0-4.0,,,,,,,5f9802a1306ea3045e8c0b43,11:20:43,15/01/2024
1557.0,"<p style=""font-size:3rem"">Trial 2 of 12</p><br><br><br>",0,fwdspan,start_trial,fOLgxK5JNif2vjs9WiHWvRfaPte2,html-button-response,28,298670,0.0-7.0-2.1-0.1-0.1,,,,,,,5f9802a1306ea3045e8c0b43,11:20:43,15/01/2024
,"<p style=""font-size:14rem;font-weight:400;"">3</p>",,fwdspan,number,fOLgxK5JNif2vjs9WiHWvRfaPte2,html-keyboard-response,29,299679,0.0-7.0-2.1-0.1-1.3-0.3,,,,,,,5f9802a1306ea3045e8c0b43,11:20:43,15/01/2024
,"<p style=""font-size:14rem;font-weight:400;"">5</p>",,fwdspan,number,fOLgxK5JNif2vjs9WiHWvRfaPte2,html-keyboard-response,30,300699,0.0-7.0-2.1-0.1-1.4-0.4,,,,,,,5f9802a1306ea3045e8c0b43,11:20:43,15/01/2024
,"<p style=""font-size:14rem;font-weight:400;"">9</p>",,fwdspan,number,fOLgxK5JNif2vjs9WiHWvRfaPte2,html-keyboard-response,31,301709,0.0-7.0-2.1-0.1-1.5-0.5,,,,,,,5f9802a1306ea3045e8c0b43,11:20:43,15/01/2024
,"<p style=""font-size:14rem;font-weight:400;"">2</p>",,fwdspan,number,fOLgxK5JNif2vjs9WiHWvRfaPte2,html-keyboard-response,32,302713,0.0-7.0-2.1-0.1-1.6-0.6,,,,,,,5f9802a1306ea3045e8c0b43,11:20:43,15/01/2024
,[],,fwdspan,delay,fOLgxK5JNif2vjs9WiHWvRfaPte2,html-keyboard-response,33,303277,0.0-7.0-2.1-0.1-2.1,,,,,,,5f9802a1306ea3045e8c0b43,11:20:43,15/01/2024
3486.0,"<div class = numbox><p style=""font-size:2.5rem"">What were the numbers <b>in order</b>?<br>(When you are ready to lock in your answer, press <b>ENTER</b>)</p><button id = button_1 class = ""square num-button"" onclick = ""recordClick(this)""><div class = content><div class = numbers>1</div></div></button><button id = button_2 class = ""square num-button"" onclick = ""recordClick(this)""><div class = content><div class = numbers>2</div></div></button><button id = button_3 class = ""square num-button"" onclick = ""recordClick(this)""><div class = content><div class = numbers>3</div></div></button><button id = button_4 class = ""square num-button"" onclick = ""recordClick(this)""><div class = content><div class = numbers>4</div></div></button><button id = button_5 class = ""square num-button"" onclick = ""recordClick(this)""><div class = content><div class = numbers>5</div></div></button><button id = button_6 class = ""square num-button"" onclick = ""recordClick(this)""><div class = content><div class = numbers>6</div></div></button><button id = button_7 class = ""square num-button"" onclick = ""recordClick(this)""><div class = content><div class = numbers>7</div></div></button><button id = button_8 class = ""square num-button"" onclick = ""recordClick(this)""><div class = content><div class = numbers>8</div></div></button><button id = button_9 class = ""square num-button"" onclick = ""recordClick(this)""><div class = content><div class = numbers>9</div></div></button><button class = clear_button id = ""ClearButton"" onclick = ""clearResponse()"">Clear</button><p><u><b>Current Answer:</b></u></p><div id=echoed_txt style=""font-size: 6rem; color:blue;""><b></b></div></div><br><br><br><br><br><br><br>",enter,fwdspan,response,fOLgxK5JNif2vjs9WiHWvRfaPte2,html-keyboard-response,34,306764,0.0-7.0-2.1-0.1-3.1,4.0,"[3,5,9,2]","[3,5,9,2]",1.0,"[3, 4, 5, 6, 7, 8, 9, 9, 8, 8, 7, 8]",,5f9802a1306ea3045e8c0b43,11:20:43,15/01/2024
,,,fwdspan,update_span,fOLgxK5JNif2vjs9WiHWvRfaPte2,call-function,35,307017,0.0-7.0-2.1-0.1-4.1,,,,,,,5f9802a1306ea3045e8c0b43,11:20:43,15/01/2024
859.5,"<p style=""font-size:3rem"">Trial 3 of 12</p><br><br><br>",0,fwdspan,start_trial,fOLgxK5JNif2vjs9WiHWvRfaPte2,html-button-response,36,307877,0.0-7.0-2.2-0.2-0.2,,,,,,,5f9802a1306ea3045e8c0b43,11:20:43,15/01/2024
,"<p style=""font-size:14rem;font-weight:400;"">8</p>",,fwdspan,number,fOLgxK5JNif2vjs9WiHWvRfaPte2,html-keyboard-response,37,308883,0.0-7.0-2.2-0.2-1.7-0.7,,,,,,,5f9802a1306ea3045e8c0b43,11:20:43,15/01/2024
,"<p style=""font-size:14rem;font-weight:400;"">7</p>",,fwdspan,number,fOLgxK5JNif2vjs9WiHWvRfaPte2,html-keyboard-response,38,309905,0.0-7.0-2.2-0.2-1.8-0.8,,,,,,,5f9802a1306ea3045e8c0b43,11:20:43,15/01/2024
,"<p style=""font-size:14rem;font-weight:400;"">1</p>",,fwdspan,number,fOLgxK5JNif2vjs9WiHWvRfaPte2,html-keyboard-response,39,310914,0.0-7.0-2.2-0.2-1.9-0.9,,,,,,,5f9802a1306ea3045e8c0b43,11:20:43,15/01/2024
,"<p style=""font-size:14rem;font-weight:400;"">5</p>",,fwdspan,number,fOLgxK5JNif2vjs9WiHWvRfaPte2,html-keyboard-response,40,311923,0.0-7.0-2.2-0.2-1.10-0.10,,,,,,,5f9802a1306ea3045e8c0b43,11:20:43,15/01/2024
,"<p style=""font-size:14rem;font-weight:400;"">2</p>",,fwdspan,number,fOLgxK5JNif2vjs9WiHWvRfaPte2,html-keyboard-response,41,312933,0.0-7.0-2.2-0.2-1.11-0.11,,,,,,,5f9802a1306ea3045e8c0b43,11:20:43,15/01/2024
,[],,fwdspan,delay,fOLgxK5JNif2vjs9WiHWvRfaPte2,html-keyboard-response,42,313499,0.0-7.0-2.2-0.2-2.2,,,,,,,5f9802a1306ea3045e8c0b43,11:20:43,15/01/2024
4145.0,"<div class = numbox><p style=""font-size:2.5rem"">What were the numbers <b>in order</b>?<br>(When you are ready to lock in your answer, press <b>ENTER</b>)</p><button id = button_1 class = ""square num-button"" onclick = ""recordClick(this)""><div class = content><div class = numbers>1</div></div></button><button id = button_2 class = ""square num-button"" onclick = ""recordClick(this)""><div class = content><div class = numbers>2</div></div></button><button id = button_3 class = ""square num-button"" onclick = ""recordClick(this)""><div class = content><div class = numbers>3</div></div></button><button id = button_4 class = ""square num-button"" onclick = ""recordClick(this)""><div class = content><div class = numbers>4</div></div></button><button id = button_5 class = ""square num-button"" onclick = ""recordClick(this)""><div class = content><div class = numbers>5</div></div></button><button id = button_6 class = ""square num-button"" onclick = ""recordClick(this)""><div class = content><div class = numbers>6</div></div></button><button id = button_7 class = ""square num-button"" onclick = ""recordClick(this)""><div class = content><div class = numbers>7</div></div></button><button id = button_8 class = ""square num-button"" onclick = ""recordClick(this)""><div class = content><div class = numbers>8</div></div></button><button id = button_9 class = ""square num-button"" onclick = ""recordClick(this)""><div class = content><div class = numbers>9</div></div></button><button class = clear_button id = ""ClearButton"" onclick = ""clearResponse()"">Clear</button><p><u><b>Current Answer:</b></u></p><div id=echoed_txt style=""font-size: 6rem; color:blue;""><b></b></div></div><br><br><br><br><br><br><br>",enter,fwdspan,response,fOLgxK5JNif2vjs9WiHWvRfaPte2,html-keyboard-response,43,317645,0.0-7.0-2.2-0.2-3.2,5.0,"[8,7,1,5,2]","[8,7,1,5,2]",1.0,"[3, 4, 5, 6, 7, 8, 9, 9, 8, 8, 7, 8]",,5f9802a1306ea3045e8c0b43,11:20:43,15/01/2024
,,,fwdspan,update_span,fOLgxK5JNif2vjs9WiHWvRfaPte2,call-function,44,317896,0.0-7.0-2.2-0.2-4.2,,,,,,,5f9802a1306ea3045e8c0b43,11:20:43,15/01/2024
685.8000000007451,"<p style=""font-size:3rem"">Trial 4 of 12</p><br><br><br>",0,fwdspan,start_trial,fOLgxK5JNif2vjs9WiHWvRfaPte2,html-button-response,45,318582,0.0-7.0-2.3-0.3-0.3,,,,,,,5f9802a1306ea3045e8c0b43,11:20:43,15/01/2024
,"<p style=""font-size:14rem;font-weight:400;"">3</p>",,fwdspan,number,fOLgxK5JNif2vjs9WiHWvRfaPte2,html-keyboard-response,46,319593,0.0-7.0-2.3-0.3-1.12-0.12,,,,,,,5f9802a1306ea3045e8c0b43,11:20:43,15/01/2024
,"<p style=""font-size:14rem;font-weight:400;"">1</p>",,fwdspan,number,fOLgxK5JNif2vjs9WiHWvRfaPte2,html-keyboard-response,47,320601,0.0-7.0-2.3-0.3-1.13-0.13,,,,,,,5f9802a1306ea3045e8c0b43,11:20:43,15/01/2024
,"<p style=""font-size:14rem;font-weight:400;"">8</p>",,fwdspan,number,fOLgxK5JNif2vjs9WiHWvRfaPte2,html-keyboard-response,48,321605,0.0-7.0-2.3-0.3-1.14-0.14,,,,,,,5f9802a1306ea3045e8c0b43,11:20:43,15/01/2024
,"<p style=""font-size:14rem;font-weight:400;"">4</p>",,fwdspan,number,fOLgxK5JNif2vjs9WiHWvRfaPte2,html-keyboard-response,49,322619,0.0-7.0-2.3-0.3-1.15-0.15,,,,,,,5f9802a1306ea3045e8c0b43,11:20:43,15/01/2024
,"<p style=""font-size:14rem;font-weight:400;"">7</p>",,fwdspan,number,fOLgxK5JNif2vjs9WiHWvRfaPte2,html-keyboard-response,50,323634,0.0-7.0-2.3-0.3-1.16-0.16,,,,,,,5f9802a1306ea3045e8c0b43,11:20:43,15/01/2024
,"<p style=""font-size:14rem;font-weight:400;"">5</p>",,fwdspan,number,fOLgxK5JNif2vjs9WiHWvRfaPte2,html-keyboard-response,51,324645,0.0-7.0-2.3-0.3-1.17-0.17,,,,,,,5f9802a1306ea3045e8c0b43,11:20:43,15/01/2024
,[],,fwdspan,delay,fOLgxK5JNif2vjs9WiHWvRfaPte2,html-keyboard-response,52,325222,0.0-7.0-2.3-0.3-2.3,,,,,,,5f9802a1306ea3045e8c0b43,11:20:43,15/01/2024
4233.199999999255,"<div class = numbox><p style=""font-size:2.5rem"">What were the numbers <b>in order</b>?<br>(When you are ready to lock in your answer, press <b>ENTER</b>)</p><button id = button_1 class = ""square num-button"" onclick = ""recordClick(this)""><div class = content><div class = numbers>1</div></div></button><button id = button_2 class = ""square num-button"" onclick = ""recordClick(this)""><div class = content><div class = numbers>2</div></div></button><button id = button_3 class = ""square num-button"" onclick = ""recordClick(this)""><div class = content><div class = numbers>3</div></div></button><button id = button_4 class = ""square num-button"" onclick = ""recordClick(this)""><div class = content><div class = numbers>4</div></div></button><button id = button_5 class = ""square num-button"" onclick = ""recordClick(this)""><div class = content><div class = numbers>5</div></div></button><button id = button_6 class = ""square num-button"" onclick = ""recordClick(this)""><div class = content><div class = numbers>6</div></div></button><button id = button_7 class = ""square num-button"" onclick = ""recordClick(this)""><div class = content><div class = numbers>7</div></div></button><button id = button_8 class = ""square num-button"" onclick = ""recordClick(this)""><div class = content><div class = numbers>8</div></div></button><button id = button_9 class = ""square num-button"" onclick = ""recordClick(this)""><div class = content><div class = numbers>9</div></div></button><button class = clear_button id = ""ClearButton"" onclick = ""clearResponse()"">Clear</button><p><u><b>Current Answer:</b></u></p><div id=echoed_txt style=""font-size: 6rem; color:blue;""><b></b></div></div><br><br><br><br><br><br><br>",enter,fwdspan,response,fOLgxK5JNif2vjs9WiHWvRfaPte2,html-keyboard-response,53,329456,0.0-7.0-2.3-0.3-3.3,6.0,"[3,1,8,4,7,5]","[3,1,8,4,7,5]",1.0,"[3, 4, 5, 6, 7, 8, 9, 9, 8, 8, 7, 8]",,5f9802a1306ea3045e8c0b43,11:20:43,15/01/2024
,,,fwdspan,update_span,fOLgxK5JNif2vjs9WiHWvRfaPte2,call-function,54,329717,0.0-7.0-2.3-0.3-4.3,,,,,,,5f9802a1306ea3045e8c0b43,11:20:43,15/01/2024
647.1000000014901,"<p style=""font-size:3rem"">Trial 5 of 12</p><br><br><br>",0,fwdspan,start_trial,fOLgxK5JNif2vjs9WiHWvRfaPte2,html-button-response,55,330364,0.0-7.0-2.4-0.4-0.4,,,,,,,5f9802a1306ea3045e8c0b43,11:20:43,15/01/2024
,"<p style=""font-size:14rem;font-weight:400;"">7</p>",,fwdspan,number,fOLgxK5JNif2vjs9WiHWvRfaPte2,html-keyboard-response,56,331381,0.0-7.0-2.4-0.4-1.18-0.18,,,,,,,5f9802a1306ea3045e8c0b43,11:20:43,15/01/2024
,"<p style=""font-size:14rem;font-weight:400;"">2</p>",,fwdspan,number,fOLgxK5JNif2vjs9WiHWvRfaPte2,html-keyboard-response,57,332399,0.0-7.0-2.4-0.4-1.19-0.19,,,,,,,5f9802a1306ea3045e8c0b43,11:20:43,15/01/2024
,"<p style=""font-size:14rem;font-weight:400;"">1</p>",,fwdspan,number,fOLgxK5JNif2vjs9WiHWvRfaPte2,html-keyboard-response,58,333418,0.0-7.0-2.4-0.4-1.20-0.20,,,,,,,5f9802a1306ea3045e8c0b43,11:20:43,15/01/2024
,"<p style=""font-size:14rem;font-weight:400;"">3</p>",,fwdspan,number,fOLgxK5JNif2vjs9WiHWvRfaPte2,html-keyboard-response,59,334440,0.0-7.0-2.4-0.4-1.21-0.21,,,,,,,5f9802a1306ea3045e8c0b43,11:20:43,15/01/2024
,"<p style=""font-size:14rem;font-weight:400;"">9</p>",,fwdspan,number,fOLgxK5JNif2vjs9WiHWvRfaPte2,html-keyboard-response,60,335454,0.0-7.0-2.4-0.4-1.22-0.22,,,,,,,5f9802a1306ea3045e8c0b43,11:20:43,15/01/2024
,"<p style=""font-size:14rem;font-weight:400;"">4</p>",,fwdspan,number,fOLgxK5JNif2vjs9WiHWvRfaPte2,html-keyboard-response,61,336473,0.0-7.0-2.4-0.4-1.23-0.23,,,,,,,5f9802a1306ea3045e8c0b43,11:20:43,15/01/2024
,"<p style=""font-size:14rem;font-weight:400;"">5</p>",,fwdspan,number,fOLgxK5JNif2vjs9WiHWvRfaPte2,html-keyboard-response,62,337484,0.0-7.0-2.4-0.4-1.24-0.24,,,,,,,5f9802a1306ea3045e8c0b43,11:20:43,15/01/2024
,[],,fwdspan,delay,fOLgxK5JNif2vjs9WiHWvRfaPte2,html-keyboard-response,63,338042,0.0-7.0-2.4-0.4-2.4,,,,,,,5f9802a1306ea3045e8c0b43,11:20:43,15/01/2024
5016.9000000003725,"<div class = numbox><p style=""font-size:2.5rem"">What were the numbers <b>in order</b>?<br>(When you are ready to lock in your answer, press <b>ENTER</b>)</p><button id = button_1 class = ""square num-button"" onclick = ""recordClick(this)""><div class = content><div class = numbers>1</div></div></button><button id = button_2 class = ""square num-button"" onclick = ""recordClick(this)""><div class = content><div class = numbers>2</div></div></button><button id = button_3 class = ""square num-button"" onclick = ""recordClick(this)""><div class = content><div class = numbers>3</div></div></button><button id = button_4 class = ""square num-button"" onclick = ""recordClick(this)""><div class = content><div class = numbers>4</div></div></button><button id = button_5 class = ""square num-button"" onclick = ""recordClick(this)""><div class = content><div class = numbers>5</div></div></button><button id = button_6 class = ""square num-button"" onclick = ""recordClick(this)""><div class = content><div class = numbers>6</div></div></button><button id = button_7 class = ""square num-button"" onclick = ""recordClick(this)""><div class = content><div class = numbers>7</div></div></button><button id = button_8 class = ""square num-button"" onclick = ""recordClick(this)""><div class = content><div class = numbers>8</div></div></button><button id = button_9 class = ""square num-button"" onclick = ""recordClick(this)""><div class = content><div class = numbers>9</div></div></button><button class = clear_button id = ""ClearButton"" onclick = ""clearResponse()"">Clear</button><p><u><b>Current Answer:</b></u></p><div id=echoed_txt style=""font-size: 6rem; color:blue;""><b></b></div></div><br><br><br><br><br><br><br>",enter,fwdspan,response,fOLgxK5JNif2vjs9WiHWvRfaPte2,html-keyboard-response,64,343060,0.0-7.0-2.4-0.4-3.4,7.0,"[7,2,1,3,9,4,5]","[7,2,1,3,9,4,5]",1.0,"[3, 4, 5, 6, 7, 8, 9, 9, 8, 8, 7, 8]",,5f9802a1306ea3045e8c0b43,11:20:43,15/01/2024
,,,fwdspan,update_span,fOLgxK5JNif2vjs9WiHWvRfaPte2,call-function,65,343317,0.0-7.0-2.4-0.4-4.4,,,,,,,5f9802a1306ea3045e8c0b43,11:20:43,15/01/2024
823.5,"<p style=""font-size:3rem"">Trial 6 of 12</p><br><br><br>",0,fwdspan,start_trial,fOLgxK5JNif2vjs9WiHWvRfaPte2,html-button-response,66,344141,0.0-7.0-2.5-0.5-0.5,,,,,,,5f9802a1306ea3045e8c0b43,11:20:43,15/01/2024
,"<p style=""font-size:14rem;font-weight:400;"">2</p>",,fwdspan,number,fOLgxK5JNif2vjs9WiHWvRfaPte2,html-keyboard-response,67,345153,0.0-7.0-2.5-0.5-1.25-0.25,,,,,,,5f9802a1306ea3045e8c0b43,11:20:43,15/01/2024
,"<p style=""font-size:14rem;font-weight:400;"">9</p>",,fwdspan,number,fOLgxK5JNif2vjs9WiHWvRfaPte2,html-keyboard-response,68,346174,0.0-7.0-2.5-0.5-1.26-0.26,,,,,,,5f9802a1306ea3045e8c0b43,11:20:43,15/01/2024
,"<p style=""font-size:14rem;font-weight:400;"">4</p>",,fwdspan,number,fOLgxK5JNif2vjs9WiHWvRfaPte2,html-keyboard-response,69,347184,0.0-7.0-2.5-0.5-1.27-0.27,,,,,,,5f9802a1306ea3045e8c0b43,11:20:43,15/01/2024
,"<p style=""font-size:14rem;font-weight:400;"">8</p>",,fwdspan,number,fOLgxK5JNif2vjs9WiHWvRfaPte2,html-keyboard-response,70,348203,0.0-7.0-2.5-0.5-1.28-0.28,,,,,,,5f9802a1306ea3045e8c0b43,11:20:43,15/01/2024
,"<p style=""font-size:14rem;font-weight:400;"">1</p>",,fwdspan,number,fOLgxK5JNif2vjs9WiHWvRfaPte2,html-keyboard-response,71,349218,0.0-7.0-2.5-0.5-1.29-0.29,,,,,,,5f9802a1306ea3045e8c0b43,11:20:43,15/01/2024
,"<p style=""font-size:14rem;font-weight:400;"">3</p>",,fwdspan,number,fOLgxK5JNif2vjs9WiHWvRfaPte2,html-keyboard-response,72,350230,0.0-7.0-2.5-0.5-1.30-0.30,,,,,,,5f9802a1306ea3045e8c0b43,11:20:43,15/01/2024
,"<p style=""font-size:14rem;font-weight:400;"">6</p>",,fwdspan,number,fOLgxK5JNif2vjs9WiHWvRfaPte2,html-keyboard-response,73,351240,0.0-7.0-2.5-0.5-1.31-0.31,,,,,,,5f9802a1306ea3045e8c0b43,11:20:43,15/01/2024
,"<p style=""font-size:14rem;font-weight:400;"">7</p>",,fwdspan,number,fOLgxK5JNif2vjs9WiHWvRfaPte2,html-keyboard-response,74,352259,0.0-7.0-2.5-0.5-1.32-0.32,,,,,,,5f9802a1306ea3045e8c0b43,11:20:43,15/01/2024
,[],,fwdspan,delay,fOLgxK5JNif2vjs9WiHWvRfaPte2,html-keyboard-response,75,352827,0.0-7.0-2.5-0.5-2.5,,,,,,,5f9802a1306ea3045e8c0b43,11:20:43,15/01/2024
7209.799999998882,"<div class = numbox><p style=""font-size:2.5rem"">What were the numbers <b>in order</b>?<br>(When you are ready to lock in your answer, press <b>ENTER</b>)</p><button id = button_1 class = ""square num-button"" onclick = ""recordClick(this)""><div class = content><div class = numbers>1</div></div></button><button id = button_2 class = ""square num-button"" onclick = ""recordClick(this)""><div class = content><div class = numbers>2</div></div></button><button id = button_3 class = ""square num-button"" onclick = ""recordClick(this)""><div class = content><div class = numbers>3</div></div></button><button id = button_4 class = ""square num-button"" onclick = ""recordClick(this)""><div class = content><div class = numbers>4</div></div></button><button id = button_5 class = ""square num-button"" onclick = ""recordClick(this)""><div class = content><div class = numbers>5</div></div></button><button id = button_6 class = ""square num-button"" onclick = ""recordClick(this)""><div class = content><div class = numbers>6</div></div></button><button id = button_7 class = ""square num-button"" onclick = ""recordClick(this)""><div class = content><div class = numbers>7</div></div></button><button id = button_8 class = ""square num-button"" onclick = ""recordClick(this)""><div class = content><div class = numbers>8</div></div></button><button id = button_9 class = ""square num-button"" onclick = ""recordClick(this)""><div class = content><div class = numbers>9</div></div></button><button class = clear_button id = ""ClearButton"" onclick = ""clearResponse()"">Clear</button><p><u><b>Current Answer:</b></u></p><div id=echoed_txt style=""font-size: 6rem; color:blue;""><b></b></div></div><br><br><br><br><br><br><br>",enter,fwdspan,response,fOLgxK5JNif2vjs9WiHWvRfaPte2,html-keyboard-response,76,360037,0.0-7.0-2.5-0.5-3.5,8.0,"[2,9,4,8,1,3,6,7]","[2,9,4,8,1,3,6,7]",1.0,"[3, 4, 5, 6, 7, 8, 9, 9, 8, 8, 7, 8]",,5f9802a1306ea3045e8c0b43,11:20:43,15/01/2024
,,,fwdspan,update_span,fOLgxK5JNif2vjs9WiHWvRfaPte2,call-function,77,360289,0.0-7.0-2.5-0.5-4.5,,,,,,,5f9802a1306ea3045e8c0b43,11:20:43,15/01/2024
1062.5999999996275,"<p style=""font-size:3rem"">Trial 7 of 12</p><br><br><br>",0,fwdspan,start_trial,fOLgxK5JNif2vjs9WiHWvRfaPte2,html-button-response,78,361352,0.0-7.0-2.6-0.6-0.6,,,,,,,5f9802a1306ea3045e8c0b43,11:20:43,15/01/2024
,"<p style=""font-size:14rem;font-weight:400;"">7</p>",,fwdspan,number,fOLgxK5JNif2vjs9WiHWvRfaPte2,html-keyboard-response,79,362367,0.0-7.0-2.6-0.6-1.33-0.33,,,,,,,5f9802a1306ea3045e8c0b43,11:20:43,15/01/2024
,"<p style=""font-size:14rem;font-weight:400;"">6</p>",,fwdspan,number,fOLgxK5JNif2vjs9WiHWvRfaPte2,html-keyboard-response,80,363386,0.0-7.0-2.6-0.6-1.34-0.34,,,,,,,5f9802a1306ea3045e8c0b43,11:20:43,15/01/2024
,"<p style=""font-size:14rem;font-weight:400;"">5</p>",,fwdspan,number,fOLgxK5JNif2vjs9WiHWvRfaPte2,html-keyboard-response,81,364406,0.0-7.0-2.6-0.6-1.35-0.35,,,,,,,5f9802a1306ea3045e8c0b43,11:20:43,15/01/2024
,"<p style=""font-size:14rem;font-weight:400;"">3</p>",,fwdspan,number,fOLgxK5JNif2vjs9WiHWvRfaPte2,html-keyboard-response,82,365426,0.0-7.0-2.6-0.6-1.36-0.36,,,,,,,5f9802a1306ea3045e8c0b43,11:20:43,15/01/2024
,"<p style=""font-size:14rem;font-weight:400;"">8</p>",,fwdspan,number,fOLgxK5JNif2vjs9WiHWvRfaPte2,html-keyboard-response,83,366437,0.0-7.0-2.6-0.6-1.37-0.37,,,,,,,5f9802a1306ea3045e8c0b43,11:20:43,15/01/2024
,"<p style=""font-size:14rem;font-weight:400;"">1</p>",,fwdspan,number,fOLgxK5JNif2vjs9WiHWvRfaPte2,html-keyboard-response,84,367443,0.0-7.0-2.6-0.6-1.38-0.38,,,,,,,5f9802a1306ea3045e8c0b43,11:20:43,15/01/2024
,"<p style=""font-size:14rem;font-weight:400;"">2</p>",,fwdspan,number,fOLgxK5JNif2vjs9WiHWvRfaPte2,html-keyboard-response,85,368456,0.0-7.0-2.6-0.6-1.39-0.39,,,,,,,5f9802a1306ea3045e8c0b43,11:20:43,15/01/2024
,"<p style=""font-size:14rem;font-weight:400;"">9</p>",,fwdspan,number,fOLgxK5JNif2vjs9WiHWvRfaPte2,html-keyboard-response,86,369479,0.0-7.0-2.6-0.6-1.40-0.40,,,,,,,5f9802a1306ea3045e8c0b43,11:20:43,15/01/2024
,"<p style=""font-size:14rem;font-weight:400;"">4</p>",,fwdspan,number,fOLgxK5JNif2vjs9WiHWvRfaPte2,html-keyboard-response,87,370482,0.0-7.0-2.6-0.6-1.41-0.41,,,,,,,5f9802a1306ea3045e8c0b43,11:20:43,15/01/2024
,[],,fwdspan,delay,fOLgxK5JNif2vjs9WiHWvRfaPte2,html-keyboard-response,88,371050,0.0-7.0-2.6-0.6-2.6,,,,,,,5f9802a1306ea3045e8c0b43,11:20:43,15/01/2024
10209.099999999627,"<div class = numbox><p style=""font-size:2.5rem"">What were the numbers <b>in order</b>?<br>(When you are ready to lock in your answer, press <b>ENTER</b>)</p><button id = button_1 class = ""square num-button"" onclick = ""recordClick(this)""><div class = content><div class = numbers>1</div></div></button><button id = button_2 class = ""square num-button"" onclick = ""recordClick(this)""><div class = content><div class = numbers>2</div></div></button><button id = button_3 class = ""square num-button"" onclick = ""recordClick(this)""><div class = content><div class = numbers>3</div></div></button><button id = button_4 class = ""square num-button"" onclick = ""recordClick(this)""><div class = content><div class = numbers>4</div></div></button><button id = button_5 class = ""square num-button"" onclick = ""recordClick(this)""><div class = content><div class = numbers>5</div></div></button><button id = button_6 class = ""square num-button"" onclick = ""recordClick(this)""><div class = content><div class = numbers>6</div></div></button><button id = button_7 class = ""square num-button"" onclick = ""recordClick(this)""><div class = content><div class = numbers>7</div></div></button><button id = button_8 class = ""square num-button"" onclick = ""recordClick(this)""><div class = content><div class = numbers>8</div></div></button><button id = button_9 class = ""square num-button"" onclick = ""recordClick(this)""><div class = content><div class = numbers>9</div></div></button><button class = clear_button id = ""ClearButton"" onclick = ""clearResponse()"">Clear</button><p><u><b>Current Answer:</b></u></p><div id=echoed_txt style=""font-size: 6rem; color:blue;""><b></b></div></div><br><br><br><br><br><br><br>",enter,fwdspan,response,fOLgxK5JNif2vjs9WiHWvRfaPte2,html-keyboard-response,89,381260,0.0-7.0-2.6-0.6-3.6,9.0,"[7,6,5,3,8,1,4,5]","[7,6,5,3,8,1,2,9,4]",0.0,"[3, 4, 5, 6, 7, 8, 9, 9, 8, 8, 7, 8]",,5f9802a1306ea3045e8c0b43,11:20:43,15/01/2024
,,,fwdspan,update_span,fOLgxK5JNif2vjs9WiHWvRfaPte2,call-function,90,381513,0.0-7.0-2.6-0.6-4.6,,,,,,,5f9802a1306ea3045e8c0b43,11:20:43,15/01/2024
888.3000000007451,"<p style=""font-size:3rem"">Trial 8 of 12</p><br><br><br>",0,fwdspan,start_trial,fOLgxK5JNif2vjs9WiHWvRfaPte2,html-button-response,91,382401,0.0-7.0-2.7-0.7-0.7,,,,,,,5f9802a1306ea3045e8c0b43,11:20:43,15/01/2024
,"<p style=""font-size:14rem;font-weight:400;"">2</p>",,fwdspan,number,fOLgxK5JNif2vjs9WiHWvRfaPte2,html-keyboard-response,92,383417,0.0-7.0-2.7-0.7-1.42-0.42,,,,,,,5f9802a1306ea3045e8c0b43,11:20:43,15/01/2024
,"<p style=""font-size:14rem;font-weight:400;"">7</p>",,fwdspan,number,fOLgxK5JNif2vjs9WiHWvRfaPte2,html-keyboard-response,93,384419,0.0-7.0-2.7-0.7-1.43-0.43,,,,,,,5f9802a1306ea3045e8c0b43,11:20:43,15/01/2024
,"<p style=""font-size:14rem;font-weight:400;"">3</p>",,fwdspan,number,fOLgxK5JNif2vjs9WiHWvRfaPte2,html-keyboard-response,94,385437,0.0-7.0-2.7-0.7-1.44-0.44,,,,,,,5f9802a1306ea3045e8c0b43,11:20:43,15/01/2024
,"<p style=""font-size:14rem;font-weight:400;"">5</p>",,fwdspan,number,fOLgxK5JNif2vjs9WiHWvRfaPte2,html-keyboard-response,95,386447,0.0-7.0-2.7-0.7-1.45-0.45,,,,,,,5f9802a1306ea3045e8c0b43,11:20:43,15/01/2024
,"<p style=""font-size:14rem;font-weight:400;"">4</p>",,fwdspan,number,fOLgxK5JNif2vjs9WiHWvRfaPte2,html-keyboard-response,96,387462,0.0-7.0-2.7-0.7-1.46-0.46,,,,,,,5f9802a1306ea3045e8c0b43,11:20:43,15/01/2024
,"<p style=""font-size:14rem;font-weight:400;"">6</p>",,fwdspan,number,fOLgxK5JNif2vjs9WiHWvRfaPte2,html-keyboard-response,97,388473,0.0-7.0-2.7-0.7-1.47-0.47,,,,,,,5f9802a1306ea3045e8c0b43,11:20:43,15/01/2024
,"<p style=""font-size:14rem;font-weight:400;"">1</p>",,fwdspan,number,fOLgxK5JNif2vjs9WiHWvRfaPte2,html-keyboard-response,98,389485,0.0-7.0-2.7-0.7-1.48-0.48,,,,,,,5f9802a1306ea3045e8c0b43,11:20:43,15/01/2024
,"<p style=""font-size:14rem;font-weight:400;"">9</p>",,fwdspan,number,fOLgxK5JNif2vjs9WiHWvRfaPte2,html-keyboard-response,99,390500,0.0-7.0-2.7-0.7-1.49-0.49,,,,,,,5f9802a1306ea3045e8c0b43,11:20:43,15/01/2024
,"<p style=""font-size:14rem;font-weight:400;"">8</p>",,fwdspan,number,fOLgxK5JNif2vjs9WiHWvRfaPte2,html-keyboard-response,100,391513,0.0-7.0-2.7-0.7-1.50-0.50,,,,,,,5f9802a1306ea3045e8c0b43,11:20:43,15/01/2024
,[],,fwdspan,delay,fOLgxK5JNif2vjs9WiHWvRfaPte2,html-keyboard-response,101,392081,0.0-7.0-2.7-0.7-2.7,,,,,,,5f9802a1306ea3045e8c0b43,11:20:43,15/01/2024
9015.800000000745,"<div class = numbox><p style=""font-size:2.5rem"">What were the numbers <b>in order</b>?<br>(When you are ready to lock in your answer, press <b>ENTER</b>)</p><button id = button_1 class = ""square num-button"" onclick = ""recordClick(this)""><div class = content><div class = numbers>1</div></div></button><button id = button_2 class = ""square num-button"" onclick = ""recordClick(this)""><div class = content><div class = numbers>2</div></div></button><button id = button_3 class = ""square num-button"" onclick = ""recordClick(this)""><div class = content><div class = numbers>3</div></div></button><button id = button_4 class = ""square num-button"" onclick = ""recordClick(this)""><div class = content><div class = numbers>4</div></div></button><button id = button_5 class = ""square num-button"" onclick = ""recordClick(this)""><div class = content><div class = numbers>5</div></div></button><button id = button_6 class = ""square num-button"" onclick = ""recordClick(this)""><div class = content><div class = numbers>6</div></div></button><button id = button_7 class = ""square num-button"" onclick = ""recordClick(this)""><div class = content><div class = numbers>7</div></div></button><button id = button_8 class = ""square num-button"" onclick = ""recordClick(this)""><div class = content><div class = numbers>8</div></div></button><button id = button_9 class = ""square num-button"" onclick = ""recordClick(this)""><div class = content><div class = numbers>9</div></div></button><button class = clear_button id = ""ClearButton"" onclick = ""clearResponse()"">Clear</button><p><u><b>Current Answer:</b></u></p><div id=echoed_txt style=""font-size: 6rem; color:blue;""><b></b></div></div><br><br><br><br><br><br><br>",enter,fwdspan,response,fOLgxK5JNif2vjs9WiHWvRfaPte2,html-keyboard-response,102,401096,0.0-7.0-2.7-0.7-3.7,9.0,"[2,7,3,5,4,6,1,8,9]","[2,7,3,5,4,6,1,9,8]",0.0,"[3, 4, 5, 6, 7, 8, 9, 9, 8, 8, 7, 8]",,5f9802a1306ea3045e8c0b43,11:20:43,15/01/2024
,,,fwdspan,update_span,fOLgxK5JNif2vjs9WiHWvRfaPte2,call-function,103,401355,0.0-7.0-2.7-0.7-4.7,,,,,,,5f9802a1306ea3045e8c0b43,11:20:43,15/01/2024
871.1999999992549,"<p style=""font-size:3rem"">Trial 9 of 12</p><br><br><br>",0,fwdspan,start_trial,fOLgxK5JNif2vjs9WiHWvRfaPte2,html-button-response,104,402226,0.0-7.0-2.8-0.8-0.8,,,,,,,5f9802a1306ea3045e8c0b43,11:20:43,15/01/2024
,"<p style=""font-size:14rem;font-weight:400;"">2</p>",,fwdspan,number,fOLgxK5JNif2vjs9WiHWvRfaPte2,html-keyboard-response,105,403243,0.0-7.0-2.8-0.8-1.51-0.51,,,,,,,5f9802a1306ea3045e8c0b43,11:20:43,15/01/2024
,"<p style=""font-size:14rem;font-weight:400;"">5</p>",,fwdspan,number,fOLgxK5JNif2vjs9WiHWvRfaPte2,html-keyboard-response,106,404252,0.0-7.0-2.8-0.8-1.52-0.52,,,,,,,5f9802a1306ea3045e8c0b43,11:20:43,15/01/2024
,"<p style=""font-size:14rem;font-weight:400;"">6</p>",,fwdspan,number,fOLgxK5JNif2vjs9WiHWvRfaPte2,html-keyboard-response,107,405260,0.0-7.0-2.8-0.8-1.53-0.53,,,,,,,5f9802a1306ea3045e8c0b43,11:20:43,15/01/2024
,"<p style=""font-size:14rem;font-weight:400;"">3</p>",,fwdspan,number,fOLgxK5JNif2vjs9WiHWvRfaPte2,html-keyboard-response,108,406274,0.0-7.0-2.8-0.8-1.54-0.54,,,,,,,5f9802a1306ea3045e8c0b43,11:20:43,15/01/2024
,"<p style=""font-size:14rem;font-weight:400;"">7</p>",,fwdspan,number,fOLgxK5JNif2vjs9WiHWvRfaPte2,html-keyboard-response,109,407279,0.0-7.0-2.8-0.8-1.55-0.55,,,,,,,5f9802a1306ea3045e8c0b43,11:20:43,15/01/2024
,"<p style=""font-size:14rem;font-weight:400;"">9</p>",,fwdspan,number,fOLgxK5JNif2vjs9WiHWvRfaPte2,html-keyboard-response,110,408286,0.0-7.0-2.8-0.8-1.56-0.56,,,,,,,5f9802a1306ea3045e8c0b43,11:20:43,15/01/2024
,"<p style=""font-size:14rem;font-weight:400;"">8</p>",,fwdspan,number,fOLgxK5JNif2vjs9WiHWvRfaPte2,html-keyboard-response,111,409301,0.0-7.0-2.8-0.8-1.57-0.57,,,,,,,5f9802a1306ea3045e8c0b43,11:20:43,15/01/2024
,"<p style=""font-size:14rem;font-weight:400;"">1</p>",,fwdspan,number,fOLgxK5JNif2vjs9WiHWvRfaPte2,html-keyboard-response,112,410307,0.0-7.0-2.8-0.8-1.58-0.58,,,,,,,5f9802a1306ea3045e8c0b43,11:20:43,15/01/2024
,[],,fwdspan,delay,fOLgxK5JNif2vjs9WiHWvRfaPte2,html-keyboard-response,113,410882,0.0-7.0-2.8-0.8-2.8,,,,,,,5f9802a1306ea3045e8c0b43,11:20:43,15/01/2024
8853.699999999255,"<div class = numbox><p style=""font-size:2.5rem"">What were the numbers <b>in order</b>?<br>(When you are ready to lock in your answer, press <b>ENTER</b>)</p><button id = button_1 class = ""square num-button"" onclick = ""recordClick(this)""><div class = content><div class = numbers>1</div></div></button><button id = button_2 class = ""square num-button"" onclick = ""recordClick(this)""><div class = content><div class = numbers>2</div></div></button><button id = button_3 class = ""square num-button"" onclick = ""recordClick(this)""><div class = content><div class = numbers>3</div></div></button><button id = button_4 class = ""square num-button"" onclick = ""recordClick(this)""><div class = content><div class = numbers>4</div></div></button><button id = button_5 class = ""square num-button"" onclick = ""recordClick(this)""><div class = content><div class = numbers>5</div></div></button><button id = button_6 class = ""square num-button"" onclick = ""recordClick(this)""><div class = content><div class = numbers>6</div></div></button><button id = button_7 class = ""square num-button"" onclick = ""recordClick(this)""><div class = content><div class = numbers>7</div></div></button><button id = button_8 class = ""square num-button"" onclick = ""recordClick(this)""><div class = content><div class = numbers>8</div></div></button><button id = button_9 class = ""square num-button"" onclick = ""recordClick(this)""><div class = content><div class = numbers>9</div></div></button><button class = clear_button id = ""ClearButton"" onclick = ""clearResponse()"">Clear</button><p><u><b>Current Answer:</b></u></p><div id=echoed_txt style=""font-size: 6rem; color:blue;""><b></b></div></div><br><br><br><br><br><br><br>",enter,fwdspan,response,fOLgxK5JNif2vjs9WiHWvRfaPte2,html-keyboard-response,114,419736,0.0-7.0-2.8-0.8-3.8,8.0,"[2,5,6,3,7,9,1,8]","[2,5,6,3,7,9,8,1]",0.0,"[3, 4, 5, 6, 7, 8, 9, 9, 8, 8, 7, 8]",,5f9802a1306ea3045e8c0b43,11:20:43,15/01/2024
,,,fwdspan,update_span,fOLgxK5JNif2vjs9WiHWvRfaPte2,call-function,115,419993,0.0-7.0-2.8-0.8-4.8,,,,,,,5f9802a1306ea3045e8c0b43,11:20:43,15/01/2024
777.2999999988824,"<p style=""font-size:3rem"">Trial 10 of 12</p><br><br><br>",0,fwdspan,start_trial,fOLgxK5JNif2vjs9WiHWvRfaPte2,html-button-response,116,420771,0.0-7.0-2.9-0.9-0.9,,,,,,,5f9802a1306ea3045e8c0b43,11:20:43,15/01/2024
,"<p style=""font-size:14rem;font-weight:400;"">6</p>",,fwdspan,number,fOLgxK5JNif2vjs9WiHWvRfaPte2,html-keyboard-response,117,421794,0.0-7.0-2.9-0.9-1.59-0.59,,,,,,,5f9802a1306ea3045e8c0b43,11:20:43,15/01/2024
,"<p style=""font-size:14rem;font-weight:400;"">1</p>",,fwdspan,number,fOLgxK5JNif2vjs9WiHWvRfaPte2,html-keyboard-response,118,422814,0.0-7.0-2.9-0.9-1.60-0.60,,,,,,,5f9802a1306ea3045e8c0b43,11:20:43,15/01/2024
,"<p style=""font-size:14rem;font-weight:400;"">7</p>",,fwdspan,number,fOLgxK5JNif2vjs9WiHWvRfaPte2,html-keyboard-response,119,423825,0.0-7.0-2.9-0.9-1.61-0.61,,,,,,,5f9802a1306ea3045e8c0b43,11:20:43,15/01/2024
,"<p style=""font-size:14rem;font-weight:400;"">3</p>",,fwdspan,number,fOLgxK5JNif2vjs9WiHWvRfaPte2,html-keyboard-response,120,424832,0.0-7.0-2.9-0.9-1.62-0.62,,,,,,,5f9802a1306ea3045e8c0b43,11:20:43,15/01/2024
,"<p style=""font-size:14rem;font-weight:400;"">8</p>",,fwdspan,number,fOLgxK5JNif2vjs9WiHWvRfaPte2,html-keyboard-response,121,425843,0.0-7.0-2.9-0.9-1.63-0.63,,,,,,,5f9802a1306ea3045e8c0b43,11:20:43,15/01/2024
,"<p style=""font-size:14rem;font-weight:400;"">5</p>",,fwdspan,number,fOLgxK5JNif2vjs9WiHWvRfaPte2,html-keyboard-response,122,426857,0.0-7.0-2.9-0.9-1.64-0.64,,,,,,,5f9802a1306ea3045e8c0b43,11:20:43,15/01/2024
,"<p style=""font-size:14rem;font-weight:400;"">2</p>",,fwdspan,number,fOLgxK5JNif2vjs9WiHWvRfaPte2,html-keyboard-response,123,427869,0.0-7.0-2.9-0.9-1.65-0.65,,,,,,,5f9802a1306ea3045e8c0b43,11:20:43,15/01/2024
,"<p style=""font-size:14rem;font-weight:400;"">4</p>",,fwdspan,number,fOLgxK5JNif2vjs9WiHWvRfaPte2,html-keyboard-response,124,428872,0.0-7.0-2.9-0.9-1.66-0.66,,,,,,,5f9802a1306ea3045e8c0b43,11:20:43,15/01/2024
,[],,fwdspan,delay,fOLgxK5JNif2vjs9WiHWvRfaPte2,html-keyboard-response,125,429430,0.0-7.0-2.9-0.9-2.9,,,,,,,5f9802a1306ea3045e8c0b43,11:20:43,15/01/2024
9888.099999999627,"<div class = numbox><p style=""font-size:2.5rem"">What were the numbers <b>in order</b>?<br>(When you are ready to lock in your answer, press <b>ENTER</b>)</p><button id = button_1 class = ""square num-button"" onclick = ""recordClick(this)""><div class = content><div class = numbers>1</div></div></button><button id = button_2 class = ""square num-button"" onclick = ""recordClick(this)""><div class = content><div class = numbers>2</div></div></button><button id = button_3 class = ""square num-button"" onclick = ""recordClick(this)""><div class = content><div class = numbers>3</div></div></button><button id = button_4 class = ""square num-button"" onclick = ""recordClick(this)""><div class = content><div class = numbers>4</div></div></button><button id = button_5 class = ""square num-button"" onclick = ""recordClick(this)""><div class = content><div class = numbers>5</div></div></button><button id = button_6 class = ""square num-button"" onclick = ""recordClick(this)""><div class = content><div class = numbers>6</div></div></button><button id = button_7 class = ""square num-button"" onclick = ""recordClick(this)""><div class = content><div class = numbers>7</div></div></button><button id = button_8 class = ""square num-button"" onclick = ""recordClick(this)""><div class = content><div class = numbers>8</div></div></button><button id = button_9 class = ""square num-button"" onclick = ""recordClick(this)""><div class = content><div class = numbers>9</div></div></button><button class = clear_button id = ""ClearButton"" onclick = ""clearResponse()"">Clear</button><p><u><b>Current Answer:</b></u></p><div id=echoed_txt style=""font-size: 6rem; color:blue;""><b></b></div></div><br><br><br><br><br><br><br>",enter,fwdspan,response,fOLgxK5JNif2vjs9WiHWvRfaPte2,html-keyboard-response,126,439318,0.0-7.0-2.9-0.9-3.9,8.0,"[6,1,7,3,8,5,4,2]","[6,1,7,3,8,5,2,4]",0.0,"[3, 4, 5, 6, 7, 8, 9, 9, 8, 8, 7, 8]",,5f9802a1306ea3045e8c0b43,11:20:43,15/01/2024
,,,fwdspan,update_span,fOLgxK5JNif2vjs9WiHWvRfaPte2,call-function,127,439583,0.0-7.0-2.9-0.9-4.9,,,,,,,5f9802a1306ea3045e8c0b43,11:20:43,15/01/2024
787.5,"<p style=""font-size:3rem"">Trial 11 of 12</p><br><br><br>",0,fwdspan,start_trial,fOLgxK5JNif2vjs9WiHWvRfaPte2,html-button-response,128,440371,0.0-7.0-2.10-0.10-0.10,,,,,,,5f9802a1306ea3045e8c0b43,11:20:43,15/01/2024
,"<p style=""font-size:14rem;font-weight:400;"">2</p>",,fwdspan,number,fOLgxK5JNif2vjs9WiHWvRfaPte2,html-keyboard-response,129,441401,0.0-7.0-2.10-0.10-1.67-0.67,,,,,,,5f9802a1306ea3045e8c0b43,11:20:43,15/01/2024
,"<p style=""font-size:14rem;font-weight:400;"">3</p>",,fwdspan,number,fOLgxK5JNif2vjs9WiHWvRfaPte2,html-keyboard-response,130,442408,0.0-7.0-2.10-0.10-1.68-0.68,,,,,,,5f9802a1306ea3045e8c0b43,11:20:43,15/01/2024
,"<p style=""font-size:14rem;font-weight:400;"">6</p>",,fwdspan,number,fOLgxK5JNif2vjs9WiHWvRfaPte2,html-keyboard-response,131,443419,0.0-7.0-2.10-0.10-1.69-0.69,,,,,,,5f9802a1306ea3045e8c0b43,11:20:43,15/01/2024
,"<p style=""font-size:14rem;font-weight:400;"">9</p>",,fwdspan,number,fOLgxK5JNif2vjs9WiHWvRfaPte2,html-keyboard-response,132,444445,0.0-7.0-2.10-0.10-1.70-0.70,,,,,,,5f9802a1306ea3045e8c0b43,11:20:43,15/01/2024
,"<p style=""font-size:14rem;font-weight:400;"">1</p>",,fwdspan,number,fOLgxK5JNif2vjs9WiHWvRfaPte2,html-keyboard-response,133,445453,0.0-7.0-2.10-0.10-1.71-0.71,,,,,,,5f9802a1306ea3045e8c0b43,11:20:43,15/01/2024
,"<p style=""font-size:14rem;font-weight:400;"">4</p>",,fwdspan,number,fOLgxK5JNif2vjs9WiHWvRfaPte2,html-keyboard-response,134,446468,0.0-7.0-2.10-0.10-1.72-0.72,,,,,,,5f9802a1306ea3045e8c0b43,11:20:43,15/01/2024
,"<p style=""font-size:14rem;font-weight:400;"">8</p>",,fwdspan,number,fOLgxK5JNif2vjs9WiHWvRfaPte2,html-keyboard-response,135,447481,0.0-7.0-2.10-0.10-1.73-0.73,,,,,,,5f9802a1306ea3045e8c0b43,11:20:43,15/01/2024
,[],,fwdspan,delay,fOLgxK5JNif2vjs9WiHWvRfaPte2,html-keyboard-response,136,448038,0.0-7.0-2.10-0.10-2.10,,,,,,,5f9802a1306ea3045e8c0b43,11:20:43,15/01/2024
4933.299999998882,"<div class = numbox><p style=""font-size:2.5rem"">What were the numbers <b>in order</b>?<br>(When you are ready to lock in your answer, press <b>ENTER</b>)</p><button id = button_1 class = ""square num-button"" onclick = ""recordClick(this)""><div class = content><div class = numbers>1</div></div></button><button id = button_2 class = ""square num-button"" onclick = ""recordClick(this)""><div class = content><div class = numbers>2</div></div></button><button id = button_3 class = ""square num-button"" onclick = ""recordClick(this)""><div class = content><div class = numbers>3</div></div></button><button id = button_4 class = ""square num-button"" onclick = ""recordClick(this)""><div class = content><div class = numbers>4</div></div></button><button id = button_5 class = ""square num-button"" onclick = ""recordClick(this)""><div class = content><div class = numbers>5</div></div></button><button id = button_6 class = ""square num-button"" onclick = ""recordClick(this)""><div class = content><div class = numbers>6</div></div></button><button id = button_7 class = ""square num-button"" onclick = ""recordClick(this)""><div class = content><div class = numbers>7</div></div></button><button id = button_8 class = ""square num-button"" onclick = ""recordClick(this)""><div class = content><div class = numbers>8</div></div></button><button id = button_9 class = ""square num-button"" onclick = ""recordClick(this)""><div class = content><div class = numbers>9</div></div></button><button class = clear_button id = ""ClearButton"" onclick = ""clearResponse()"">Clear</button><p><u><b>Current Answer:</b></u></p><div id=echoed_txt style=""font-size: 6rem; color:blue;""><b></b></div></div><br><br><br><br><br><br><br>",enter,fwdspan,response,fOLgxK5JNif2vjs9WiHWvRfaPte2,html-keyboard-response,137,452972,0.0-7.0-2.10-0.10-3.10,7.0,"[2,3,6,9,1,4,8]","[2,3,6,9,1,4,8]",1.0,"[3, 4, 5, 6, 7, 8, 9, 9, 8, 8, 7, 8]",,5f9802a1306ea3045e8c0b43,11:20:43,15/01/2024
,,,fwdspan,update_span,fOLgxK5JNif2vjs9WiHWvRfaPte2,call-function,138,453223,0.0-7.0-2.10-0.10-4.10,,,,,,,5f9802a1306ea3045e8c0b43,11:20:43,15/01/2024
744.5999999996275,"<p style=""font-size:3rem"">Trial 12 of 12</p><br><br><br>",0,fwdspan,start_trial,fOLgxK5JNif2vjs9WiHWvRfaPte2,html-button-response,139,453968,0.0-7.0-2.11-0.11-0.11,,,,,,,5f9802a1306ea3045e8c0b43,11:20:43,15/01/2024
,"<p style=""font-size:14rem;font-weight:400;"">6</p>",,fwdspan,number,fOLgxK5JNif2vjs9WiHWvRfaPte2,html-keyboard-response,140,454983,0.0-7.0-2.11-0.11-1.74-0.74,,,,,,,5f9802a1306ea3045e8c0b43,11:20:43,15/01/2024
,"<p style=""font-size:14rem;font-weight:400;"">2</p>",,fwdspan,number,fOLgxK5JNif2vjs9WiHWvRfaPte2,html-keyboard-response,141,455987,0.0-7.0-2.11-0.11-1.75-0.75,,,,,,,5f9802a1306ea3045e8c0b43,11:20:43,15/01/2024
,"<p style=""font-size:14rem;font-weight:400;"">4</p>",,fwdspan,number,fOLgxK5JNif2vjs9WiHWvRfaPte2,html-keyboard-response,142,456998,0.0-7.0-2.11-0.11-1.76-0.76,,,,,,,5f9802a1306ea3045e8c0b43,11:20:43,15/01/2024
,"<p style=""font-size:14rem;font-weight:400;"">7</p>",,fwdspan,number,fOLgxK5JNif2vjs9WiHWvRfaPte2,html-keyboard-response,143,458008,0.0-7.0-2.11-0.11-1.77-0.77,,,,,,,5f9802a1306ea3045e8c0b43,11:20:43,15/01/2024
,"<p style=""font-size:14rem;font-weight:400;"">5</p>",,fwdspan,number,fOLgxK5JNif2vjs9WiHWvRfaPte2,html-keyboard-response,144,459020,0.0-7.0-2.11-0.11-1.78-0.78,,,,,,,5f9802a1306ea3045e8c0b43,11:20:43,15/01/2024
,"<p style=""font-size:14rem;font-weight:400;"">9</p>",,fwdspan,number,fOLgxK5JNif2vjs9WiHWvRfaPte2,html-keyboard-response,145,460030,0.0-7.0-2.11-0.11-1.79-0.79,,,,,,,5f9802a1306ea3045e8c0b43,11:20:43,15/01/2024
,"<p style=""font-size:14rem;font-weight:400;"">8</p>",,fwdspan,number,fOLgxK5JNif2vjs9WiHWvRfaPte2,html-keyboard-response,146,461039,0.0-7.0-2.11-0.11-1.80-0.80,,,,,,,5f9802a1306ea3045e8c0b43,11:20:43,15/01/2024
,"<p style=""font-size:14rem;font-weight:400;"">1</p>",,fwdspan,number,fOLgxK5JNif2vjs9WiHWvRfaPte2,html-keyboard-response,147,462044,0.0-7.0-2.11-0.11-1.81-0.81,,,,,,,5f9802a1306ea3045e8c0b43,11:20:43,15/01/2024
,[],,fwdspan,delay,fOLgxK5JNif2vjs9WiHWvRfaPte2,html-keyboard-response,148,462614,0.0-7.0-2.11-0.11-2.11,,,,,,,5f9802a1306ea3045e8c0b43,11:20:43,15/01/2024
9431.199999999255,"<div class = numbox><p style=""font-size:2.5rem"">What were the numbers <b>in order</b>?<br>(When you are ready to lock in your answer, press <b>ENTER</b>)</p><button id = button_1 class = ""square num-button"" onclick = ""recordClick(this)""><div class = content><div class = numbers>1</div></div></button><button id = button_2 class = ""square num-button"" onclick = ""recordClick(this)""><div class = content><div class = numbers>2</div></div></button><button id = button_3 class = ""square num-button"" onclick = ""recordClick(this)""><div class = content><div class = numbers>3</div></div></button><button id = button_4 class = ""square num-button"" onclick = ""recordClick(this)""><div class = content><div class = numbers>4</div></div></button><button id = button_5 class = ""square num-button"" onclick = ""recordClick(this)""><div class = content><div class = numbers>5</div></div></button><button id = button_6 class = ""square num-button"" onclick = ""recordClick(this)""><div class = content><div class = numbers>6</div></div></button><button id = button_7 class = ""square num-button"" onclick = ""recordClick(this)""><div class = content><div class = numbers>7</div></div></button><button id = button_8 class = ""square num-button"" onclick = ""recordClick(this)""><div class = content><div class = numbers>8</div></div></button><button id = button_9 class = ""square num-button"" onclick = ""recordClick(this)""><div class = content><div class = numbers>9</div></div></button><button class = clear_button id = ""ClearButton"" onclick = ""clearResponse()"">Clear</button><p><u><b>Current Answer:</b></u></p><div id=echoed_txt style=""font-size: 6rem; color:blue;""><b></b></div></div><br><br><br><br><br><br><br>",enter,fwdspan,response,fOLgxK5JNif2vjs9WiHWvRfaPte2,html-keyboard-response,149,472046,0.0-7.0-2.11-0.11-3.11,8.0,"[6,2,4,7,5,9,1,8]","[6,2,4,7,5,9,8,1]",0.0,"[3, 4, 5, 6, 7, 8, 9, 9, 8, 8, 7, 8]",,5f9802a1306ea3045e8c0b43,11:20:43,15/01/2024
,,,fwdspan,update_span,fOLgxK5JNif2vjs9WiHWvRfaPte2,call-function,150,472308,0.0-7.0-2.11-0.11-4.11,,,,,,,5f9802a1306ea3045e8c0b43,11:20:43,15/01/2024
82747.09999999963,,"{'Q0': 'Enjoyed testing myself, it is really hard to remember more than 6 digits but I enjoy the challenge seeing how well I can do. The instructions were clear and there were no issues. Only improvement I can think of would be to have a couple of practice rounds before entering the main trials, just to familiarize ourselves with the task.'}",fwdspan,survey,fOLgxK5JNif2vjs9WiHWvRfaPte2,lmdlab-survey-text,151,555816,0.0-7.0-3.0,,,,,,fOLgxK5JNif2vjs9WiHWvRfaPte2,5f9802a1306ea3045e8c0b43,11:20:43,15/01/2024
1478.8999999985099,<p><p style='font-size: 3rem'>Great work!<br><br>This completes the digit span task.</p><br><br><br>,0,fwdspan,finish,fOLgxK5JNif2vjs9WiHWvRfaPte2,html-button-response,152,557296,0.0-7.0-4.0,,,,,,,5f9802a1306ea3045e8c0b43,11:20:43,15/01/2024
