rt,stimulus,response,exp_name,exp_stage,subjectID,trial_type,trial_index,time_elapsed,internal_node_id,span,answer,correct,correct_full,span_history,databaseID,prolificID,start_time,date
4475.300000071526,"<p style=""font-size:4rem""><br><br>In the next part today, we have a completely different short task.<br><br><br>This part involves keeping numbers in you mind. Participation takes around 5 minutes.<br><br><br></p>",0,fwdspan,instruct,VexCsTAgGAZk74uVnhLwFHh3Rs73,html-button-response,19,856888,0.0-7.0-0.0,,,,,,,6570857f15730b0f6ea346ec,11:32:38 AM,1/15/2024
43653.799999952316,"<p style=""font-size:5rem"">Welcome to the <b>digit span task</b>!<br><br></p><p style=""font-size:3.4rem""><br>On each trial, you will see a sequence of digits, followed by a delay.</p><p style=""font-size:3.4rem""><br>Then you will be asked to type them back in the same order in which they were seen.</p><p style=""font-size:3.4rem""><br><br><br>For example, if you saw the digits <b style=""color:blue;"">1</b>, <b style=""color:blue;"">2</b>, <b style=""color:blue;"">3</b>, you would respond with <b style=""color:blue;"">1</b>, <b style=""color:blue;"">2</b>, <b style=""color:blue;"">3</b></p><p style=""font-size:3.4rem""><br><br><br>To ensure the best measure of true performance for our study,<br><br>it is very important that you do not use any memory aid (e.g., pen and paper).<br><br>Please do the task solely in your head.</p><p style=""font-size:3.4rem""><br><br><br>There will be 12 total trials. Participation takes around 5 minutes.</p><br><br><br>",0,fwdspan,instruct,VexCsTAgGAZk74uVnhLwFHh3Rs73,html-button-response,20,900547,0.0-7.0-1.0,,,,,,,6570857f15730b0f6ea346ec,11:32:38 AM,1/15/2024
1696.3999999761581,"<p style=""font-size:3rem"">Trial 1 of 12</p><br><br><br>",0,fwdspan,start_trial,VexCsTAgGAZk74uVnhLwFHh3Rs73,html-button-response,21,902251,0.0-7.0-2.0-0.0-0.0,,,,,,,6570857f15730b0f6ea346ec,11:32:38 AM,1/15/2024
,"<p style=""font-size:14rem;font-weight:400;"">1</p>",,fwdspan,number,VexCsTAgGAZk74uVnhLwFHh3Rs73,html-keyboard-response,22,903278,0.0-7.0-2.0-0.0-1.0-0.0,,,,,,,6570857f15730b0f6ea346ec,11:32:38 AM,1/15/2024
,"<p style=""font-size:14rem;font-weight:400;"">2</p>",,fwdspan,number,VexCsTAgGAZk74uVnhLwFHh3Rs73,html-keyboard-response,23,904287,0.0-7.0-2.0-0.0-1.1-0.1,,,,,,,6570857f15730b0f6ea346ec,11:32:38 AM,1/15/2024
,"<p style=""font-size:14rem;font-weight:400;"">5</p>",,fwdspan,number,VexCsTAgGAZk74uVnhLwFHh3Rs73,html-keyboard-response,24,905294,0.0-7.0-2.0-0.0-1.2-0.2,,,,,,,6570857f15730b0f6ea346ec,11:32:38 AM,1/15/2024
,[],,fwdspan,delay,VexCsTAgGAZk74uVnhLwFHh3Rs73,html-keyboard-response,25,905846,0.0-7.0-2.0-0.0-2.0,,,,,,,6570857f15730b0f6ea346ec,11:32:38 AM,1/15/2024
28878.099999904633,"<div class = numbox><p style=""font-size:2.5rem"">What were the numbers <b>in order</b>?<br>(When you are ready to lock in your answer, press <b>ENTER</b>)</p><button id = button_1 class = ""square num-button"" onclick = ""recordClick(this)""><div class = content><div class = numbers>1</div></div></button><button id = button_2 class = ""square num-button"" onclick = ""recordClick(this)""><div class = content><div class = numbers>2</div></div></button><button id = button_3 class = ""square num-button"" onclick = ""recordClick(this)""><div class = content><div class = numbers>3</div></div></button><button id = button_4 class = ""square num-button"" onclick = ""recordClick(this)""><div class = content><div class = numbers>4</div></div></button><button id = button_5 class = ""square num-button"" onclick = ""recordClick(this)""><div class = content><div class = numbers>5</div></div></button><button id = button_6 class = ""square num-button"" onclick = ""recordClick(this)""><div class = content><div class = numbers>6</div></div></button><button id = button_7 class = ""square num-button"" onclick = ""recordClick(this)""><div class = content><div class = numbers>7</div></div></button><button id = button_8 class = ""square num-button"" onclick = ""recordClick(this)""><div class = content><div class = numbers>8</div></div></button><button id = button_9 class = ""square num-button"" onclick = ""recordClick(this)""><div class = content><div class = numbers>9</div></div></button><button class = clear_button id = ""ClearButton"" onclick = ""clearResponse()"">Clear</button><p><u><b>Current Answer:</b></u></p><div id=echoed_txt style=""font-size: 6rem; color:blue;""><b></b></div></div><br><br><br><br><br><br><br>",enter,fwdspan,response,VexCsTAgGAZk74uVnhLwFHh3Rs73,html-keyboard-response,26,934726,0.0-7.0-2.0-0.0-3.0,3.0,"[1,2,5,3]","[1,2,5]",0.0,"[3, 3, 4, 5, 5, 6, 6, 5, 5, 4, 4, 5]",,6570857f15730b0f6ea346ec,11:32:38 AM,1/15/2024
,,,fwdspan,update_span,VexCsTAgGAZk74uVnhLwFHh3Rs73,call-function,27,934987,0.0-7.0-2.0-0.0-4.0,,,,,,,6570857f15730b0f6ea346ec,11:32:38 AM,1/15/2024
3106.5,"<p style=""font-size:3rem"">Trial 2 of 12</p><br><br><br>",0,fwdspan,start_trial,VexCsTAgGAZk74uVnhLwFHh3Rs73,html-button-response,28,938097,0.0-7.0-2.1-0.1-0.1,,,,,,,6570857f15730b0f6ea346ec,11:32:38 AM,1/15/2024
,"<p style=""font-size:14rem;font-weight:400;"">6</p>",,fwdspan,number,VexCsTAgGAZk74uVnhLwFHh3Rs73,html-keyboard-response,29,939124,0.0-7.0-2.1-0.1-1.3-0.3,,,,,,,6570857f15730b0f6ea346ec,11:32:38 AM,1/15/2024
,"<p style=""font-size:14rem;font-weight:400;"">1</p>",,fwdspan,number,VexCsTAgGAZk74uVnhLwFHh3Rs73,html-keyboard-response,30,940127,0.0-7.0-2.1-0.1-1.4-0.4,,,,,,,6570857f15730b0f6ea346ec,11:32:38 AM,1/15/2024
,"<p style=""font-size:14rem;font-weight:400;"">4</p>",,fwdspan,number,VexCsTAgGAZk74uVnhLwFHh3Rs73,html-keyboard-response,31,941142,0.0-7.0-2.1-0.1-1.5-0.5,,,,,,,6570857f15730b0f6ea346ec,11:32:38 AM,1/15/2024
,[],,fwdspan,delay,VexCsTAgGAZk74uVnhLwFHh3Rs73,html-keyboard-response,32,941715,0.0-7.0-2.1-0.1-2.1,,,,,,,6570857f15730b0f6ea346ec,11:32:38 AM,1/15/2024
9338.799999952316,"<div class = numbox><p style=""font-size:2.5rem"">What were the numbers <b>in order</b>?<br>(When you are ready to lock in your answer, press <b>ENTER</b>)</p><button id = button_1 class = ""square num-button"" onclick = ""recordClick(this)""><div class = content><div class = numbers>1</div></div></button><button id = button_2 class = ""square num-button"" onclick = ""recordClick(this)""><div class = content><div class = numbers>2</div></div></button><button id = button_3 class = ""square num-button"" onclick = ""recordClick(this)""><div class = content><div class = numbers>3</div></div></button><button id = button_4 class = ""square num-button"" onclick = ""recordClick(this)""><div class = content><div class = numbers>4</div></div></button><button id = button_5 class = ""square num-button"" onclick = ""recordClick(this)""><div class = content><div class = numbers>5</div></div></button><button id = button_6 class = ""square num-button"" onclick = ""recordClick(this)""><div class = content><div class = numbers>6</div></div></button><button id = button_7 class = ""square num-button"" onclick = ""recordClick(this)""><div class = content><div class = numbers>7</div></div></button><button id = button_8 class = ""square num-button"" onclick = ""recordClick(this)""><div class = content><div class = numbers>8</div></div></button><button id = button_9 class = ""square num-button"" onclick = ""recordClick(this)""><div class = content><div class = numbers>9</div></div></button><button class = clear_button id = ""ClearButton"" onclick = ""clearResponse()"">Clear</button><p><u><b>Current Answer:</b></u></p><div id=echoed_txt style=""font-size: 6rem; color:blue;""><b></b></div></div><br><br><br><br><br><br><br>",enter,fwdspan,response,VexCsTAgGAZk74uVnhLwFHh3Rs73,html-keyboard-response,33,951056,0.0-7.0-2.1-0.1-3.1,3.0,"[6,1,4]","[6,1,4]",1.0,"[3, 3, 4, 5, 5, 6, 6, 5, 5, 4, 4, 5]",,6570857f15730b0f6ea346ec,11:32:38 AM,1/15/2024
,,,fwdspan,update_span,VexCsTAgGAZk74uVnhLwFHh3Rs73,call-function,34,951311,0.0-7.0-2.1-0.1-4.1,,,,,,,6570857f15730b0f6ea346ec,11:32:38 AM,1/15/2024
34668.699999928474,"<p style=""font-size:3rem"">Trial 3 of 12</p><br><br><br>",0,fwdspan,start_trial,VexCsTAgGAZk74uVnhLwFHh3Rs73,html-button-response,35,985981,0.0-7.0-2.2-0.2-0.2,,,,,,,6570857f15730b0f6ea346ec,11:32:38 AM,1/15/2024
,"<p style=""font-size:14rem;font-weight:400;"">5</p>",,fwdspan,number,VexCsTAgGAZk74uVnhLwFHh3Rs73,html-keyboard-response,36,986995,0.0-7.0-2.2-0.2-1.6-0.6,,,,,,,6570857f15730b0f6ea346ec,11:32:38 AM,1/15/2024
,"<p style=""font-size:14rem;font-weight:400;"">1</p>",,fwdspan,number,VexCsTAgGAZk74uVnhLwFHh3Rs73,html-keyboard-response,37,988018,0.0-7.0-2.2-0.2-1.7-0.7,,,,,,,6570857f15730b0f6ea346ec,11:32:38 AM,1/15/2024
,"<p style=""font-size:14rem;font-weight:400;"">2</p>",,fwdspan,number,VexCsTAgGAZk74uVnhLwFHh3Rs73,html-keyboard-response,38,989033,0.0-7.0-2.2-0.2-1.8-0.8,,,,,,,6570857f15730b0f6ea346ec,11:32:38 AM,1/15/2024
,"<p style=""font-size:14rem;font-weight:400;"">6</p>",,fwdspan,number,VexCsTAgGAZk74uVnhLwFHh3Rs73,html-keyboard-response,39,990064,0.0-7.0-2.2-0.2-1.9-0.9,,,,,,,6570857f15730b0f6ea346ec,11:32:38 AM,1/15/2024
,[],,fwdspan,delay,VexCsTAgGAZk74uVnhLwFHh3Rs73,html-keyboard-response,40,990644,0.0-7.0-2.2-0.2-2.2,,,,,,,6570857f15730b0f6ea346ec,11:32:38 AM,1/15/2024
4693.200000047684,"<div class = numbox><p style=""font-size:2.5rem"">What were the numbers <b>in order</b>?<br>(When you are ready to lock in your answer, press <b>ENTER</b>)</p><button id = button_1 class = ""square num-button"" onclick = ""recordClick(this)""><div class = content><div class = numbers>1</div></div></button><button id = button_2 class = ""square num-button"" onclick = ""recordClick(this)""><div class = content><div class = numbers>2</div></div></button><button id = button_3 class = ""square num-button"" onclick = ""recordClick(this)""><div class = content><div class = numbers>3</div></div></button><button id = button_4 class = ""square num-button"" onclick = ""recordClick(this)""><div class = content><div class = numbers>4</div></div></button><button id = button_5 class = ""square num-button"" onclick = ""recordClick(this)""><div class = content><div class = numbers>5</div></div></button><button id = button_6 class = ""square num-button"" onclick = ""recordClick(this)""><div class = content><div class = numbers>6</div></div></button><button id = button_7 class = ""square num-button"" onclick = ""recordClick(this)""><div class = content><div class = numbers>7</div></div></button><button id = button_8 class = ""square num-button"" onclick = ""recordClick(this)""><div class = content><div class = numbers>8</div></div></button><button id = button_9 class = ""square num-button"" onclick = ""recordClick(this)""><div class = content><div class = numbers>9</div></div></button><button class = clear_button id = ""ClearButton"" onclick = ""clearResponse()"">Clear</button><p><u><b>Current Answer:</b></u></p><div id=echoed_txt style=""font-size: 6rem; color:blue;""><b></b></div></div><br><br><br><br><br><br><br>",enter,fwdspan,response,VexCsTAgGAZk74uVnhLwFHh3Rs73,html-keyboard-response,41,995340,0.0-7.0-2.2-0.2-3.2,4.0,"[5,1,2,6]","[5,1,2,6]",1.0,"[3, 3, 4, 5, 5, 6, 6, 5, 5, 4, 4, 5]",,6570857f15730b0f6ea346ec,11:32:38 AM,1/15/2024
,,,fwdspan,update_span,VexCsTAgGAZk74uVnhLwFHh3Rs73,call-function,42,995603,0.0-7.0-2.2-0.2-4.2,,,,,,,6570857f15730b0f6ea346ec,11:32:38 AM,1/15/2024
3072.0,"<p style=""font-size:3rem"">Trial 4 of 12</p><br><br><br>",0,fwdspan,start_trial,VexCsTAgGAZk74uVnhLwFHh3Rs73,html-button-response,43,998677,0.0-7.0-2.3-0.3-0.3,,,,,,,6570857f15730b0f6ea346ec,11:32:38 AM,1/15/2024
,"<p style=""font-size:14rem;font-weight:400;"">4</p>",,fwdspan,number,VexCsTAgGAZk74uVnhLwFHh3Rs73,html-keyboard-response,44,999697,0.0-7.0-2.3-0.3-1.10-0.10,,,,,,,6570857f15730b0f6ea346ec,11:32:38 AM,1/15/2024
,"<p style=""font-size:14rem;font-weight:400;"">6</p>",,fwdspan,number,VexCsTAgGAZk74uVnhLwFHh3Rs73,html-keyboard-response,45,1000722,0.0-7.0-2.3-0.3-1.11-0.11,,,,,,,6570857f15730b0f6ea346ec,11:32:38 AM,1/15/2024
,"<p style=""font-size:14rem;font-weight:400;"">8</p>",,fwdspan,number,VexCsTAgGAZk74uVnhLwFHh3Rs73,html-keyboard-response,46,1001747,0.0-7.0-2.3-0.3-1.12-0.12,,,,,,,6570857f15730b0f6ea346ec,11:32:38 AM,1/15/2024
,"<p style=""font-size:14rem;font-weight:400;"">5</p>",,fwdspan,number,VexCsTAgGAZk74uVnhLwFHh3Rs73,html-keyboard-response,47,1002761,0.0-7.0-2.3-0.3-1.13-0.13,,,,,,,6570857f15730b0f6ea346ec,11:32:38 AM,1/15/2024
,"<p style=""font-size:14rem;font-weight:400;"">2</p>",,fwdspan,number,VexCsTAgGAZk74uVnhLwFHh3Rs73,html-keyboard-response,48,1003792,0.0-7.0-2.3-0.3-1.14-0.14,,,,,,,6570857f15730b0f6ea346ec,11:32:38 AM,1/15/2024
,[],,fwdspan,delay,VexCsTAgGAZk74uVnhLwFHh3Rs73,html-keyboard-response,49,1004358,0.0-7.0-2.3-0.3-2.3,,,,,,,6570857f15730b0f6ea346ec,11:32:38 AM,1/15/2024
9975.600000023842,"<div class = numbox><p style=""font-size:2.5rem"">What were the numbers <b>in order</b>?<br>(When you are ready to lock in your answer, press <b>ENTER</b>)</p><button id = button_1 class = ""square num-button"" onclick = ""recordClick(this)""><div class = content><div class = numbers>1</div></div></button><button id = button_2 class = ""square num-button"" onclick = ""recordClick(this)""><div class = content><div class = numbers>2</div></div></button><button id = button_3 class = ""square num-button"" onclick = ""recordClick(this)""><div class = content><div class = numbers>3</div></div></button><button id = button_4 class = ""square num-button"" onclick = ""recordClick(this)""><div class = content><div class = numbers>4</div></div></button><button id = button_5 class = ""square num-button"" onclick = ""recordClick(this)""><div class = content><div class = numbers>5</div></div></button><button id = button_6 class = ""square num-button"" onclick = ""recordClick(this)""><div class = content><div class = numbers>6</div></div></button><button id = button_7 class = ""square num-button"" onclick = ""recordClick(this)""><div class = content><div class = numbers>7</div></div></button><button id = button_8 class = ""square num-button"" onclick = ""recordClick(this)""><div class = content><div class = numbers>8</div></div></button><button id = button_9 class = ""square num-button"" onclick = ""recordClick(this)""><div class = content><div class = numbers>9</div></div></button><button class = clear_button id = ""ClearButton"" onclick = ""clearResponse()"">Clear</button><p><u><b>Current Answer:</b></u></p><div id=echoed_txt style=""font-size: 6rem; color:blue;""><b></b></div></div><br><br><br><br><br><br><br>",enter,fwdspan,response,VexCsTAgGAZk74uVnhLwFHh3Rs73,html-keyboard-response,50,1014336,0.0-7.0-2.3-0.3-3.3,5.0,"[4,6,8,9,2]","[4,6,8,5,2]",0.0,"[3, 3, 4, 5, 5, 6, 6, 5, 5, 4, 4, 5]",,6570857f15730b0f6ea346ec,11:32:38 AM,1/15/2024
,,,fwdspan,update_span,VexCsTAgGAZk74uVnhLwFHh3Rs73,call-function,51,1014603,0.0-7.0-2.3-0.3-4.3,,,,,,,6570857f15730b0f6ea346ec,11:32:38 AM,1/15/2024
46888.90000009537,"<p style=""font-size:3rem"">Trial 5 of 12</p><br><br><br>",0,fwdspan,start_trial,VexCsTAgGAZk74uVnhLwFHh3Rs73,html-button-response,52,1061494,0.0-7.0-2.4-0.4-0.4,,,,,,,6570857f15730b0f6ea346ec,11:32:38 AM,1/15/2024
,"<p style=""font-size:14rem;font-weight:400;"">5</p>",,fwdspan,number,VexCsTAgGAZk74uVnhLwFHh3Rs73,html-keyboard-response,53,1062508,0.0-7.0-2.4-0.4-1.15-0.15,,,,,,,6570857f15730b0f6ea346ec,11:32:38 AM,1/15/2024
,"<p style=""font-size:14rem;font-weight:400;"">8</p>",,fwdspan,number,VexCsTAgGAZk74uVnhLwFHh3Rs73,html-keyboard-response,54,1063534,0.0-7.0-2.4-0.4-1.16-0.16,,,,,,,6570857f15730b0f6ea346ec,11:32:38 AM,1/15/2024
,"<p style=""font-size:14rem;font-weight:400;"">2</p>",,fwdspan,number,VexCsTAgGAZk74uVnhLwFHh3Rs73,html-keyboard-response,55,1064545,0.0-7.0-2.4-0.4-1.17-0.17,,,,,,,6570857f15730b0f6ea346ec,11:32:38 AM,1/15/2024
,"<p style=""font-size:14rem;font-weight:400;"">9</p>",,fwdspan,number,VexCsTAgGAZk74uVnhLwFHh3Rs73,html-keyboard-response,56,1065569,0.0-7.0-2.4-0.4-1.18-0.18,,,,,,,6570857f15730b0f6ea346ec,11:32:38 AM,1/15/2024
,"<p style=""font-size:14rem;font-weight:400;"">4</p>",,fwdspan,number,VexCsTAgGAZk74uVnhLwFHh3Rs73,html-keyboard-response,57,1066577,0.0-7.0-2.4-0.4-1.19-0.19,,,,,,,6570857f15730b0f6ea346ec,11:32:38 AM,1/15/2024
,[],,fwdspan,delay,VexCsTAgGAZk74uVnhLwFHh3Rs73,html-keyboard-response,58,1067153,0.0-7.0-2.4-0.4-2.4,,,,,,,6570857f15730b0f6ea346ec,11:32:38 AM,1/15/2024
35383.09999990463,"<div class = numbox><p style=""font-size:2.5rem"">What were the numbers <b>in order</b>?<br>(When you are ready to lock in your answer, press <b>ENTER</b>)</p><button id = button_1 class = ""square num-button"" onclick = ""recordClick(this)""><div class = content><div class = numbers>1</div></div></button><button id = button_2 class = ""square num-button"" onclick = ""recordClick(this)""><div class = content><div class = numbers>2</div></div></button><button id = button_3 class = ""square num-button"" onclick = ""recordClick(this)""><div class = content><div class = numbers>3</div></div></button><button id = button_4 class = ""square num-button"" onclick = ""recordClick(this)""><div class = content><div class = numbers>4</div></div></button><button id = button_5 class = ""square num-button"" onclick = ""recordClick(this)""><div class = content><div class = numbers>5</div></div></button><button id = button_6 class = ""square num-button"" onclick = ""recordClick(this)""><div class = content><div class = numbers>6</div></div></button><button id = button_7 class = ""square num-button"" onclick = ""recordClick(this)""><div class = content><div class = numbers>7</div></div></button><button id = button_8 class = ""square num-button"" onclick = ""recordClick(this)""><div class = content><div class = numbers>8</div></div></button><button id = button_9 class = ""square num-button"" onclick = ""recordClick(this)""><div class = content><div class = numbers>9</div></div></button><button class = clear_button id = ""ClearButton"" onclick = ""clearResponse()"">Clear</button><p><u><b>Current Answer:</b></u></p><div id=echoed_txt style=""font-size: 6rem; color:blue;""><b></b></div></div><br><br><br><br><br><br><br>",enter,fwdspan,response,VexCsTAgGAZk74uVnhLwFHh3Rs73,html-keyboard-response,59,1102539,0.0-7.0-2.4-0.4-3.4,5.0,"[5,8,2,9,4]","[5,8,2,9,4]",1.0,"[3, 3, 4, 5, 5, 6, 6, 5, 5, 4, 4, 5]",,6570857f15730b0f6ea346ec,11:32:38 AM,1/15/2024
,,,fwdspan,update_span,VexCsTAgGAZk74uVnhLwFHh3Rs73,call-function,60,1102795,0.0-7.0-2.4-0.4-4.4,,,,,,,6570857f15730b0f6ea346ec,11:32:38 AM,1/15/2024
7631.5,"<p style=""font-size:3rem"">Trial 6 of 12</p><br><br><br>",0,fwdspan,start_trial,VexCsTAgGAZk74uVnhLwFHh3Rs73,html-button-response,61,1110427,0.0-7.0-2.5-0.5-0.5,,,,,,,6570857f15730b0f6ea346ec,11:32:38 AM,1/15/2024
,"<p style=""font-size:14rem;font-weight:400;"">4</p>",,fwdspan,number,VexCsTAgGAZk74uVnhLwFHh3Rs73,html-keyboard-response,62,1111453,0.0-7.0-2.5-0.5-1.20-0.20,,,,,,,6570857f15730b0f6ea346ec,11:32:38 AM,1/15/2024
,"<p style=""font-size:14rem;font-weight:400;"">9</p>",,fwdspan,number,VexCsTAgGAZk74uVnhLwFHh3Rs73,html-keyboard-response,63,1112478,0.0-7.0-2.5-0.5-1.21-0.21,,,,,,,6570857f15730b0f6ea346ec,11:32:38 AM,1/15/2024
,"<p style=""font-size:14rem;font-weight:400;"">3</p>",,fwdspan,number,VexCsTAgGAZk74uVnhLwFHh3Rs73,html-keyboard-response,64,1113492,0.0-7.0-2.5-0.5-1.22-0.22,,,,,,,6570857f15730b0f6ea346ec,11:32:38 AM,1/15/2024
,"<p style=""font-size:14rem;font-weight:400;"">1</p>",,fwdspan,number,VexCsTAgGAZk74uVnhLwFHh3Rs73,html-keyboard-response,65,1114507,0.0-7.0-2.5-0.5-1.23-0.23,,,,,,,6570857f15730b0f6ea346ec,11:32:38 AM,1/15/2024
,"<p style=""font-size:14rem;font-weight:400;"">5</p>",,fwdspan,number,VexCsTAgGAZk74uVnhLwFHh3Rs73,html-keyboard-response,66,1115513,0.0-7.0-2.5-0.5-1.24-0.24,,,,,,,6570857f15730b0f6ea346ec,11:32:38 AM,1/15/2024
,"<p style=""font-size:14rem;font-weight:400;"">7</p>",,fwdspan,number,VexCsTAgGAZk74uVnhLwFHh3Rs73,html-keyboard-response,67,1116532,0.0-7.0-2.5-0.5-1.25-0.25,,,,,,,6570857f15730b0f6ea346ec,11:32:38 AM,1/15/2024
,[],,fwdspan,delay,VexCsTAgGAZk74uVnhLwFHh3Rs73,html-keyboard-response,68,1117085,0.0-7.0-2.5-0.5-2.5,,,,,,,6570857f15730b0f6ea346ec,11:32:38 AM,1/15/2024
10936.899999976158,"<div class = numbox><p style=""font-size:2.5rem"">What were the numbers <b>in order</b>?<br>(When you are ready to lock in your answer, press <b>ENTER</b>)</p><button id = button_1 class = ""square num-button"" onclick = ""recordClick(this)""><div class = content><div class = numbers>1</div></div></button><button id = button_2 class = ""square num-button"" onclick = ""recordClick(this)""><div class = content><div class = numbers>2</div></div></button><button id = button_3 class = ""square num-button"" onclick = ""recordClick(this)""><div class = content><div class = numbers>3</div></div></button><button id = button_4 class = ""square num-button"" onclick = ""recordClick(this)""><div class = content><div class = numbers>4</div></div></button><button id = button_5 class = ""square num-button"" onclick = ""recordClick(this)""><div class = content><div class = numbers>5</div></div></button><button id = button_6 class = ""square num-button"" onclick = ""recordClick(this)""><div class = content><div class = numbers>6</div></div></button><button id = button_7 class = ""square num-button"" onclick = ""recordClick(this)""><div class = content><div class = numbers>7</div></div></button><button id = button_8 class = ""square num-button"" onclick = ""recordClick(this)""><div class = content><div class = numbers>8</div></div></button><button id = button_9 class = ""square num-button"" onclick = ""recordClick(this)""><div class = content><div class = numbers>9</div></div></button><button class = clear_button id = ""ClearButton"" onclick = ""clearResponse()"">Clear</button><p><u><b>Current Answer:</b></u></p><div id=echoed_txt style=""font-size: 6rem; color:blue;""><b></b></div></div><br><br><br><br><br><br><br>",enter,fwdspan,response,VexCsTAgGAZk74uVnhLwFHh3Rs73,html-keyboard-response,69,1128024,0.0-7.0-2.5-0.5-3.5,6.0,"[4,9,1,7]","[4,9,3,1,5,7]",0.0,"[3, 3, 4, 5, 5, 6, 6, 5, 5, 4, 4, 5]",,6570857f15730b0f6ea346ec,11:32:38 AM,1/15/2024
,,,fwdspan,update_span,VexCsTAgGAZk74uVnhLwFHh3Rs73,call-function,70,1128285,0.0-7.0-2.5-0.5-4.5,,,,,,,6570857f15730b0f6ea346ec,11:32:38 AM,1/15/2024
9556.799999952316,"<p style=""font-size:3rem"">Trial 7 of 12</p><br><br><br>",0,fwdspan,start_trial,VexCsTAgGAZk74uVnhLwFHh3Rs73,html-button-response,71,1137845,0.0-7.0-2.6-0.6-0.6,,,,,,,6570857f15730b0f6ea346ec,11:32:38 AM,1/15/2024
,"<p style=""font-size:14rem;font-weight:400;"">6</p>",,fwdspan,number,VexCsTAgGAZk74uVnhLwFHh3Rs73,html-keyboard-response,72,1138860,0.0-7.0-2.6-0.6-1.26-0.26,,,,,,,6570857f15730b0f6ea346ec,11:32:38 AM,1/15/2024
,"<p style=""font-size:14rem;font-weight:400;"">3</p>",,fwdspan,number,VexCsTAgGAZk74uVnhLwFHh3Rs73,html-keyboard-response,73,1139889,0.0-7.0-2.6-0.6-1.27-0.27,,,,,,,6570857f15730b0f6ea346ec,11:32:38 AM,1/15/2024
,"<p style=""font-size:14rem;font-weight:400;"">1</p>",,fwdspan,number,VexCsTAgGAZk74uVnhLwFHh3Rs73,html-keyboard-response,74,1140909,0.0-7.0-2.6-0.6-1.28-0.28,,,,,,,6570857f15730b0f6ea346ec,11:32:38 AM,1/15/2024
,"<p style=""font-size:14rem;font-weight:400;"">2</p>",,fwdspan,number,VexCsTAgGAZk74uVnhLwFHh3Rs73,html-keyboard-response,75,1141930,0.0-7.0-2.6-0.6-1.29-0.29,,,,,,,6570857f15730b0f6ea346ec,11:32:38 AM,1/15/2024
,"<p style=""font-size:14rem;font-weight:400;"">4</p>",,fwdspan,number,VexCsTAgGAZk74uVnhLwFHh3Rs73,html-keyboard-response,76,1142938,0.0-7.0-2.6-0.6-1.30-0.30,,,,,,,6570857f15730b0f6ea346ec,11:32:38 AM,1/15/2024
,"<p style=""font-size:14rem;font-weight:400;"">7</p>",,fwdspan,number,VexCsTAgGAZk74uVnhLwFHh3Rs73,html-keyboard-response,77,1143957,0.0-7.0-2.6-0.6-1.31-0.31,,,,,,,6570857f15730b0f6ea346ec,11:32:38 AM,1/15/2024
,[],,fwdspan,delay,VexCsTAgGAZk74uVnhLwFHh3Rs73,html-keyboard-response,78,1144533,0.0-7.0-2.6-0.6-2.6,,,,,,,6570857f15730b0f6ea346ec,11:32:38 AM,1/15/2024
7907.300000071526,"<div class = numbox><p style=""font-size:2.5rem"">What were the numbers <b>in order</b>?<br>(When you are ready to lock in your answer, press <b>ENTER</b>)</p><button id = button_1 class = ""square num-button"" onclick = ""recordClick(this)""><div class = content><div class = numbers>1</div></div></button><button id = button_2 class = ""square num-button"" onclick = ""recordClick(this)""><div class = content><div class = numbers>2</div></div></button><button id = button_3 class = ""square num-button"" onclick = ""recordClick(this)""><div class = content><div class = numbers>3</div></div></button><button id = button_4 class = ""square num-button"" onclick = ""recordClick(this)""><div class = content><div class = numbers>4</div></div></button><button id = button_5 class = ""square num-button"" onclick = ""recordClick(this)""><div class = content><div class = numbers>5</div></div></button><button id = button_6 class = ""square num-button"" onclick = ""recordClick(this)""><div class = content><div class = numbers>6</div></div></button><button id = button_7 class = ""square num-button"" onclick = ""recordClick(this)""><div class = content><div class = numbers>7</div></div></button><button id = button_8 class = ""square num-button"" onclick = ""recordClick(this)""><div class = content><div class = numbers>8</div></div></button><button id = button_9 class = ""square num-button"" onclick = ""recordClick(this)""><div class = content><div class = numbers>9</div></div></button><button class = clear_button id = ""ClearButton"" onclick = ""clearResponse()"">Clear</button><p><u><b>Current Answer:</b></u></p><div id=echoed_txt style=""font-size: 6rem; color:blue;""><b></b></div></div><br><br><br><br><br><br><br>",enter,fwdspan,response,VexCsTAgGAZk74uVnhLwFHh3Rs73,html-keyboard-response,79,1152443,0.0-7.0-2.6-0.6-3.6,6.0,"[6,3,1,2,4,5]","[6,3,1,2,4,7]",0.0,"[3, 3, 4, 5, 5, 6, 6, 5, 5, 4, 4, 5]",,6570857f15730b0f6ea346ec,11:32:38 AM,1/15/2024
,,,fwdspan,update_span,VexCsTAgGAZk74uVnhLwFHh3Rs73,call-function,80,1152697,0.0-7.0-2.6-0.6-4.6,,,,,,,6570857f15730b0f6ea346ec,11:32:38 AM,1/15/2024
1751.5,"<p style=""font-size:3rem"">Trial 8 of 12</p><br><br><br>",0,fwdspan,start_trial,VexCsTAgGAZk74uVnhLwFHh3Rs73,html-button-response,81,1154451,0.0-7.0-2.7-0.7-0.7,,,,,,,6570857f15730b0f6ea346ec,11:32:38 AM,1/15/2024
,"<p style=""font-size:14rem;font-weight:400;"">2</p>",,fwdspan,number,VexCsTAgGAZk74uVnhLwFHh3Rs73,html-keyboard-response,82,1155474,0.0-7.0-2.7-0.7-1.32-0.32,,,,,,,6570857f15730b0f6ea346ec,11:32:38 AM,1/15/2024
,"<p style=""font-size:14rem;font-weight:400;"">6</p>",,fwdspan,number,VexCsTAgGAZk74uVnhLwFHh3Rs73,html-keyboard-response,83,1156484,0.0-7.0-2.7-0.7-1.33-0.33,,,,,,,6570857f15730b0f6ea346ec,11:32:38 AM,1/15/2024
,"<p style=""font-size:14rem;font-weight:400;"">7</p>",,fwdspan,number,VexCsTAgGAZk74uVnhLwFHh3Rs73,html-keyboard-response,84,1157501,0.0-7.0-2.7-0.7-1.34-0.34,,,,,,,6570857f15730b0f6ea346ec,11:32:38 AM,1/15/2024
,"<p style=""font-size:14rem;font-weight:400;"">5</p>",,fwdspan,number,VexCsTAgGAZk74uVnhLwFHh3Rs73,html-keyboard-response,85,1158507,0.0-7.0-2.7-0.7-1.35-0.35,,,,,,,6570857f15730b0f6ea346ec,11:32:38 AM,1/15/2024
,"<p style=""font-size:14rem;font-weight:400;"">4</p>",,fwdspan,number,VexCsTAgGAZk74uVnhLwFHh3Rs73,html-keyboard-response,86,1159514,0.0-7.0-2.7-0.7-1.36-0.36,,,,,,,6570857f15730b0f6ea346ec,11:32:38 AM,1/15/2024
,[],,fwdspan,delay,VexCsTAgGAZk74uVnhLwFHh3Rs73,html-keyboard-response,87,1160079,0.0-7.0-2.7-0.7-2.7,,,,,,,6570857f15730b0f6ea346ec,11:32:38 AM,1/15/2024
9789.100000023842,"<div class = numbox><p style=""font-size:2.5rem"">What were the numbers <b>in order</b>?<br>(When you are ready to lock in your answer, press <b>ENTER</b>)</p><button id = button_1 class = ""square num-button"" onclick = ""recordClick(this)""><div class = content><div class = numbers>1</div></div></button><button id = button_2 class = ""square num-button"" onclick = ""recordClick(this)""><div class = content><div class = numbers>2</div></div></button><button id = button_3 class = ""square num-button"" onclick = ""recordClick(this)""><div class = content><div class = numbers>3</div></div></button><button id = button_4 class = ""square num-button"" onclick = ""recordClick(this)""><div class = content><div class = numbers>4</div></div></button><button id = button_5 class = ""square num-button"" onclick = ""recordClick(this)""><div class = content><div class = numbers>5</div></div></button><button id = button_6 class = ""square num-button"" onclick = ""recordClick(this)""><div class = content><div class = numbers>6</div></div></button><button id = button_7 class = ""square num-button"" onclick = ""recordClick(this)""><div class = content><div class = numbers>7</div></div></button><button id = button_8 class = ""square num-button"" onclick = ""recordClick(this)""><div class = content><div class = numbers>8</div></div></button><button id = button_9 class = ""square num-button"" onclick = ""recordClick(this)""><div class = content><div class = numbers>9</div></div></button><button class = clear_button id = ""ClearButton"" onclick = ""clearResponse()"">Clear</button><p><u><b>Current Answer:</b></u></p><div id=echoed_txt style=""font-size: 6rem; color:blue;""><b></b></div></div><br><br><br><br><br><br><br>",enter,fwdspan,response,VexCsTAgGAZk74uVnhLwFHh3Rs73,html-keyboard-response,88,1169870,0.0-7.0-2.7-0.7-3.7,5.0,"[2,7,4,3]","[2,6,7,5,4]",0.0,"[3, 3, 4, 5, 5, 6, 6, 5, 5, 4, 4, 5]",,6570857f15730b0f6ea346ec,11:32:38 AM,1/15/2024
,,,fwdspan,update_span,VexCsTAgGAZk74uVnhLwFHh3Rs73,call-function,89,1170128,0.0-7.0-2.7-0.7-4.7,,,,,,,6570857f15730b0f6ea346ec,11:32:38 AM,1/15/2024
1335.5,"<p style=""font-size:3rem"">Trial 9 of 12</p><br><br><br>",0,fwdspan,start_trial,VexCsTAgGAZk74uVnhLwFHh3Rs73,html-button-response,90,1171466,0.0-7.0-2.8-0.8-0.8,,,,,,,6570857f15730b0f6ea346ec,11:32:38 AM,1/15/2024
,"<p style=""font-size:14rem;font-weight:400;"">6</p>",,fwdspan,number,VexCsTAgGAZk74uVnhLwFHh3Rs73,html-keyboard-response,91,1172488,0.0-7.0-2.8-0.8-1.37-0.37,,,,,,,6570857f15730b0f6ea346ec,11:32:38 AM,1/15/2024
,"<p style=""font-size:14rem;font-weight:400;"">9</p>",,fwdspan,number,VexCsTAgGAZk74uVnhLwFHh3Rs73,html-keyboard-response,92,1173492,0.0-7.0-2.8-0.8-1.38-0.38,,,,,,,6570857f15730b0f6ea346ec,11:32:38 AM,1/15/2024
,"<p style=""font-size:14rem;font-weight:400;"">1</p>",,fwdspan,number,VexCsTAgGAZk74uVnhLwFHh3Rs73,html-keyboard-response,93,1174522,0.0-7.0-2.8-0.8-1.39-0.39,,,,,,,6570857f15730b0f6ea346ec,11:32:38 AM,1/15/2024
,"<p style=""font-size:14rem;font-weight:400;"">2</p>",,fwdspan,number,VexCsTAgGAZk74uVnhLwFHh3Rs73,html-keyboard-response,94,1175539,0.0-7.0-2.8-0.8-1.40-0.40,,,,,,,6570857f15730b0f6ea346ec,11:32:38 AM,1/15/2024
,"<p style=""font-size:14rem;font-weight:400;"">8</p>",,fwdspan,number,VexCsTAgGAZk74uVnhLwFHh3Rs73,html-keyboard-response,95,1176558,0.0-7.0-2.8-0.8-1.41-0.41,,,,,,,6570857f15730b0f6ea346ec,11:32:38 AM,1/15/2024
,[],,fwdspan,delay,VexCsTAgGAZk74uVnhLwFHh3Rs73,html-keyboard-response,96,1177123,0.0-7.0-2.8-0.8-2.8,,,,,,,6570857f15730b0f6ea346ec,11:32:38 AM,1/15/2024
10530.900000095367,"<div class = numbox><p style=""font-size:2.5rem"">What were the numbers <b>in order</b>?<br>(When you are ready to lock in your answer, press <b>ENTER</b>)</p><button id = button_1 class = ""square num-button"" onclick = ""recordClick(this)""><div class = content><div class = numbers>1</div></div></button><button id = button_2 class = ""square num-button"" onclick = ""recordClick(this)""><div class = content><div class = numbers>2</div></div></button><button id = button_3 class = ""square num-button"" onclick = ""recordClick(this)""><div class = content><div class = numbers>3</div></div></button><button id = button_4 class = ""square num-button"" onclick = ""recordClick(this)""><div class = content><div class = numbers>4</div></div></button><button id = button_5 class = ""square num-button"" onclick = ""recordClick(this)""><div class = content><div class = numbers>5</div></div></button><button id = button_6 class = ""square num-button"" onclick = ""recordClick(this)""><div class = content><div class = numbers>6</div></div></button><button id = button_7 class = ""square num-button"" onclick = ""recordClick(this)""><div class = content><div class = numbers>7</div></div></button><button id = button_8 class = ""square num-button"" onclick = ""recordClick(this)""><div class = content><div class = numbers>8</div></div></button><button id = button_9 class = ""square num-button"" onclick = ""recordClick(this)""><div class = content><div class = numbers>9</div></div></button><button class = clear_button id = ""ClearButton"" onclick = ""clearResponse()"">Clear</button><p><u><b>Current Answer:</b></u></p><div id=echoed_txt style=""font-size: 6rem; color:blue;""><b></b></div></div><br><br><br><br><br><br><br>",enter,fwdspan,response,VexCsTAgGAZk74uVnhLwFHh3Rs73,html-keyboard-response,97,1187655,0.0-7.0-2.8-0.8-3.8,5.0,"[6,9,1,3,8]","[6,9,1,2,8]",0.0,"[3, 3, 4, 5, 5, 6, 6, 5, 5, 4, 4, 5]",,6570857f15730b0f6ea346ec,11:32:38 AM,1/15/2024
,,,fwdspan,update_span,VexCsTAgGAZk74uVnhLwFHh3Rs73,call-function,98,1187914,0.0-7.0-2.8-0.8-4.8,,,,,,,6570857f15730b0f6ea346ec,11:32:38 AM,1/15/2024
1523.6000000238419,"<p style=""font-size:3rem"">Trial 10 of 12</p><br><br><br>",0,fwdspan,start_trial,VexCsTAgGAZk74uVnhLwFHh3Rs73,html-button-response,99,1189440,0.0-7.0-2.9-0.9-0.9,,,,,,,6570857f15730b0f6ea346ec,11:32:38 AM,1/15/2024
,"<p style=""font-size:14rem;font-weight:400;"">8</p>",,fwdspan,number,VexCsTAgGAZk74uVnhLwFHh3Rs73,html-keyboard-response,100,1190459,0.0-7.0-2.9-0.9-1.42-0.42,,,,,,,6570857f15730b0f6ea346ec,11:32:38 AM,1/15/2024
,"<p style=""font-size:14rem;font-weight:400;"">4</p>",,fwdspan,number,VexCsTAgGAZk74uVnhLwFHh3Rs73,html-keyboard-response,101,1191484,0.0-7.0-2.9-0.9-1.43-0.43,,,,,,,6570857f15730b0f6ea346ec,11:32:38 AM,1/15/2024
,"<p style=""font-size:14rem;font-weight:400;"">6</p>",,fwdspan,number,VexCsTAgGAZk74uVnhLwFHh3Rs73,html-keyboard-response,102,1192497,0.0-7.0-2.9-0.9-1.44-0.44,,,,,,,6570857f15730b0f6ea346ec,11:32:38 AM,1/15/2024
,"<p style=""font-size:14rem;font-weight:400;"">5</p>",,fwdspan,number,VexCsTAgGAZk74uVnhLwFHh3Rs73,html-keyboard-response,103,1193520,0.0-7.0-2.9-0.9-1.45-0.45,,,,,,,6570857f15730b0f6ea346ec,11:32:38 AM,1/15/2024
,[],,fwdspan,delay,VexCsTAgGAZk74uVnhLwFHh3Rs73,html-keyboard-response,104,1194086,0.0-7.0-2.9-0.9-2.9,,,,,,,6570857f15730b0f6ea346ec,11:32:38 AM,1/15/2024
5042.0,"<div class = numbox><p style=""font-size:2.5rem"">What were the numbers <b>in order</b>?<br>(When you are ready to lock in your answer, press <b>ENTER</b>)</p><button id = button_1 class = ""square num-button"" onclick = ""recordClick(this)""><div class = content><div class = numbers>1</div></div></button><button id = button_2 class = ""square num-button"" onclick = ""recordClick(this)""><div class = content><div class = numbers>2</div></div></button><button id = button_3 class = ""square num-button"" onclick = ""recordClick(this)""><div class = content><div class = numbers>3</div></div></button><button id = button_4 class = ""square num-button"" onclick = ""recordClick(this)""><div class = content><div class = numbers>4</div></div></button><button id = button_5 class = ""square num-button"" onclick = ""recordClick(this)""><div class = content><div class = numbers>5</div></div></button><button id = button_6 class = ""square num-button"" onclick = ""recordClick(this)""><div class = content><div class = numbers>6</div></div></button><button id = button_7 class = ""square num-button"" onclick = ""recordClick(this)""><div class = content><div class = numbers>7</div></div></button><button id = button_8 class = ""square num-button"" onclick = ""recordClick(this)""><div class = content><div class = numbers>8</div></div></button><button id = button_9 class = ""square num-button"" onclick = ""recordClick(this)""><div class = content><div class = numbers>9</div></div></button><button class = clear_button id = ""ClearButton"" onclick = ""clearResponse()"">Clear</button><p><u><b>Current Answer:</b></u></p><div id=echoed_txt style=""font-size: 6rem; color:blue;""><b></b></div></div><br><br><br><br><br><br><br>",enter,fwdspan,response,VexCsTAgGAZk74uVnhLwFHh3Rs73,html-keyboard-response,105,1199130,0.0-7.0-2.9-0.9-3.9,4.0,"[4,5]","[8,4,6,5]",0.0,"[3, 3, 4, 5, 5, 6, 6, 5, 5, 4, 4, 5]",,6570857f15730b0f6ea346ec,11:32:38 AM,1/15/2024
,,,fwdspan,update_span,VexCsTAgGAZk74uVnhLwFHh3Rs73,call-function,106,1199386,0.0-7.0-2.9-0.9-4.9,,,,,,,6570857f15730b0f6ea346ec,11:32:38 AM,1/15/2024
1822.0,"<p style=""font-size:3rem"">Trial 11 of 12</p><br><br><br>",0,fwdspan,start_trial,VexCsTAgGAZk74uVnhLwFHh3Rs73,html-button-response,107,1201209,0.0-7.0-2.10-0.10-0.10,,,,,,,6570857f15730b0f6ea346ec,11:32:38 AM,1/15/2024
,"<p style=""font-size:14rem;font-weight:400;"">8</p>",,fwdspan,number,VexCsTAgGAZk74uVnhLwFHh3Rs73,html-keyboard-response,108,1202236,0.0-7.0-2.10-0.10-1.46-0.46,,,,,,,6570857f15730b0f6ea346ec,11:32:38 AM,1/15/2024
,"<p style=""font-size:14rem;font-weight:400;"">9</p>",,fwdspan,number,VexCsTAgGAZk74uVnhLwFHh3Rs73,html-keyboard-response,109,1203259,0.0-7.0-2.10-0.10-1.47-0.47,,,,,,,6570857f15730b0f6ea346ec,11:32:38 AM,1/15/2024
,"<p style=""font-size:14rem;font-weight:400;"">1</p>",,fwdspan,number,VexCsTAgGAZk74uVnhLwFHh3Rs73,html-keyboard-response,110,1204265,0.0-7.0-2.10-0.10-1.48-0.48,,,,,,,6570857f15730b0f6ea346ec,11:32:38 AM,1/15/2024
,"<p style=""font-size:14rem;font-weight:400;"">7</p>",,fwdspan,number,VexCsTAgGAZk74uVnhLwFHh3Rs73,html-keyboard-response,111,1205287,0.0-7.0-2.10-0.10-1.49-0.49,,,,,,,6570857f15730b0f6ea346ec,11:32:38 AM,1/15/2024
,[],,fwdspan,delay,VexCsTAgGAZk74uVnhLwFHh3Rs73,html-keyboard-response,112,1205849,0.0-7.0-2.10-0.10-2.10,,,,,,,6570857f15730b0f6ea346ec,11:32:38 AM,1/15/2024
5206.299999952316,"<div class = numbox><p style=""font-size:2.5rem"">What were the numbers <b>in order</b>?<br>(When you are ready to lock in your answer, press <b>ENTER</b>)</p><button id = button_1 class = ""square num-button"" onclick = ""recordClick(this)""><div class = content><div class = numbers>1</div></div></button><button id = button_2 class = ""square num-button"" onclick = ""recordClick(this)""><div class = content><div class = numbers>2</div></div></button><button id = button_3 class = ""square num-button"" onclick = ""recordClick(this)""><div class = content><div class = numbers>3</div></div></button><button id = button_4 class = ""square num-button"" onclick = ""recordClick(this)""><div class = content><div class = numbers>4</div></div></button><button id = button_5 class = ""square num-button"" onclick = ""recordClick(this)""><div class = content><div class = numbers>5</div></div></button><button id = button_6 class = ""square num-button"" onclick = ""recordClick(this)""><div class = content><div class = numbers>6</div></div></button><button id = button_7 class = ""square num-button"" onclick = ""recordClick(this)""><div class = content><div class = numbers>7</div></div></button><button id = button_8 class = ""square num-button"" onclick = ""recordClick(this)""><div class = content><div class = numbers>8</div></div></button><button id = button_9 class = ""square num-button"" onclick = ""recordClick(this)""><div class = content><div class = numbers>9</div></div></button><button class = clear_button id = ""ClearButton"" onclick = ""clearResponse()"">Clear</button><p><u><b>Current Answer:</b></u></p><div id=echoed_txt style=""font-size: 6rem; color:blue;""><b></b></div></div><br><br><br><br><br><br><br>",enter,fwdspan,response,VexCsTAgGAZk74uVnhLwFHh3Rs73,html-keyboard-response,113,1211057,0.0-7.0-2.10-0.10-3.10,4.0,"[8,9,1,7]","[8,9,1,7]",1.0,"[3, 3, 4, 5, 5, 6, 6, 5, 5, 4, 4, 5]",,6570857f15730b0f6ea346ec,11:32:38 AM,1/15/2024
,,,fwdspan,update_span,VexCsTAgGAZk74uVnhLwFHh3Rs73,call-function,114,1211324,0.0-7.0-2.10-0.10-4.10,,,,,,,6570857f15730b0f6ea346ec,11:32:38 AM,1/15/2024
2243.2999999523163,"<p style=""font-size:3rem"">Trial 12 of 12</p><br><br><br>",0,fwdspan,start_trial,VexCsTAgGAZk74uVnhLwFHh3Rs73,html-button-response,115,1213569,0.0-7.0-2.11-0.11-0.11,,,,,,,6570857f15730b0f6ea346ec,11:32:38 AM,1/15/2024
,"<p style=""font-size:14rem;font-weight:400;"">7</p>",,fwdspan,number,VexCsTAgGAZk74uVnhLwFHh3Rs73,html-keyboard-response,116,1214594,0.0-7.0-2.11-0.11-1.50-0.50,,,,,,,6570857f15730b0f6ea346ec,11:32:38 AM,1/15/2024
,"<p style=""font-size:14rem;font-weight:400;"">4</p>",,fwdspan,number,VexCsTAgGAZk74uVnhLwFHh3Rs73,html-keyboard-response,117,1215611,0.0-7.0-2.11-0.11-1.51-0.51,,,,,,,6570857f15730b0f6ea346ec,11:32:38 AM,1/15/2024
,"<p style=""font-size:14rem;font-weight:400;"">9</p>",,fwdspan,number,VexCsTAgGAZk74uVnhLwFHh3Rs73,html-keyboard-response,118,1216628,0.0-7.0-2.11-0.11-1.52-0.52,,,,,,,6570857f15730b0f6ea346ec,11:32:38 AM,1/15/2024
,"<p style=""font-size:14rem;font-weight:400;"">3</p>",,fwdspan,number,VexCsTAgGAZk74uVnhLwFHh3Rs73,html-keyboard-response,119,1217650,0.0-7.0-2.11-0.11-1.53-0.53,,,,,,,6570857f15730b0f6ea346ec,11:32:38 AM,1/15/2024
,"<p style=""font-size:14rem;font-weight:400;"">1</p>",,fwdspan,number,VexCsTAgGAZk74uVnhLwFHh3Rs73,html-keyboard-response,120,1218670,0.0-7.0-2.11-0.11-1.54-0.54,,,,,,,6570857f15730b0f6ea346ec,11:32:38 AM,1/15/2024
,[],,fwdspan,delay,VexCsTAgGAZk74uVnhLwFHh3Rs73,html-keyboard-response,121,1219239,0.0-7.0-2.11-0.11-2.11,,,,,,,6570857f15730b0f6ea346ec,11:32:38 AM,1/15/2024
5131.700000047684,"<div class = numbox><p style=""font-size:2.5rem"">What were the numbers <b>in order</b>?<br>(When you are ready to lock in your answer, press <b>ENTER</b>)</p><button id = button_1 class = ""square num-button"" onclick = ""recordClick(this)""><div class = content><div class = numbers>1</div></div></button><button id = button_2 class = ""square num-button"" onclick = ""recordClick(this)""><div class = content><div class = numbers>2</div></div></button><button id = button_3 class = ""square num-button"" onclick = ""recordClick(this)""><div class = content><div class = numbers>3</div></div></button><button id = button_4 class = ""square num-button"" onclick = ""recordClick(this)""><div class = content><div class = numbers>4</div></div></button><button id = button_5 class = ""square num-button"" onclick = ""recordClick(this)""><div class = content><div class = numbers>5</div></div></button><button id = button_6 class = ""square num-button"" onclick = ""recordClick(this)""><div class = content><div class = numbers>6</div></div></button><button id = button_7 class = ""square num-button"" onclick = ""recordClick(this)""><div class = content><div class = numbers>7</div></div></button><button id = button_8 class = ""square num-button"" onclick = ""recordClick(this)""><div class = content><div class = numbers>8</div></div></button><button id = button_9 class = ""square num-button"" onclick = ""recordClick(this)""><div class = content><div class = numbers>9</div></div></button><button class = clear_button id = ""ClearButton"" onclick = ""clearResponse()"">Clear</button><p><u><b>Current Answer:</b></u></p><div id=echoed_txt style=""font-size: 6rem; color:blue;""><b></b></div></div><br><br><br><br><br><br><br>",enter,fwdspan,response,VexCsTAgGAZk74uVnhLwFHh3Rs73,html-keyboard-response,122,1224372,0.0-7.0-2.11-0.11-3.11,5.0,"[7,9,3,1]","[7,4,9,3,1]",0.0,"[3, 3, 4, 5, 5, 6, 6, 5, 5, 4, 4, 5]",,6570857f15730b0f6ea346ec,11:32:38 AM,1/15/2024
,,,fwdspan,update_span,VexCsTAgGAZk74uVnhLwFHh3Rs73,call-function,123,1224627,0.0-7.0-2.11-0.11-4.11,,,,,,,6570857f15730b0f6ea346ec,11:32:38 AM,1/15/2024
38123.89999997616,,{'Q0': 'I enjoyed the numbers but i was unable to remeber all'},fwdspan,survey,VexCsTAgGAZk74uVnhLwFHh3Rs73,lmdlab-survey-text,124,1263508,0.0-7.0-3.0,,,,,,VexCsTAgGAZk74uVnhLwFHh3Rs73,6570857f15730b0f6ea346ec,11:32:38 AM,1/15/2024
3240.2000000476837,<p><p style='font-size: 3rem'>Great work!<br><br>This completes the digit span task.</p><br><br><br>,0,fwdspan,finish,VexCsTAgGAZk74uVnhLwFHh3Rs73,html-button-response,125,1266764,0.0-7.0-4.0,,,,,,,6570857f15730b0f6ea346ec,11:32:38 AM,1/15/2024
