rt,stimulus,response,exp_name,exp_stage,subjectID,trial_type,trial_index,time_elapsed,internal_node_id,span,answer,correct,correct_full,span_history,databaseID,prolificID,start_time,date
3774.099999964237,"<p style=""font-size:4rem""><br><br>In the next part today, we have a completely different short task.<br><br><br>This part involves keeping numbers in you mind. Participation takes around 5 minutes.<br><br><br></p>",0,fwdspan,instruct,Xpvw49HsGON6bVJwv3rlUS4dOEX2,html-button-response,19,335502,0.0-7.0-0.0,,,,,,,632b1b35331d4efbfb0d0f8d,11:19:58 AM,1/15/2024
9025.399999976158,"<p style=""font-size:5rem"">Welcome to the <b>digit span task</b>!<br><br></p><p style=""font-size:3.4rem""><br>On each trial, you will see a sequence of digits, followed by a delay.</p><p style=""font-size:3.4rem""><br>Then you will be asked to type them back in the same order in which they were seen.</p><p style=""font-size:3.4rem""><br><br><br>For example, if you saw the digits <b style=""color:blue;"">1</b>, <b style=""color:blue;"">2</b>, <b style=""color:blue;"">3</b>, you would respond with <b style=""color:blue;"">1</b>, <b style=""color:blue;"">2</b>, <b style=""color:blue;"">3</b></p><p style=""font-size:3.4rem""><br><br><br>To ensure the best measure of true performance for our study,<br><br>it is very important that you do not use any memory aid (e.g., pen and paper).<br><br>Please do the task solely in your head.</p><p style=""font-size:3.4rem""><br><br><br>There will be 12 total trials. Participation takes around 5 minutes.</p><br><br><br>",0,fwdspan,instruct,Xpvw49HsGON6bVJwv3rlUS4dOEX2,html-button-response,20,344528,0.0-7.0-1.0,,,,,,,632b1b35331d4efbfb0d0f8d,11:19:58 AM,1/15/2024
1461.5999999642372,"<p style=""font-size:3rem"">Trial 1 of 12</p><br><br><br>",0,fwdspan,start_trial,Xpvw49HsGON6bVJwv3rlUS4dOEX2,html-button-response,21,345993,0.0-7.0-2.0-0.0-0.0,,,,,,,632b1b35331d4efbfb0d0f8d,11:19:58 AM,1/15/2024
,"<p style=""font-size:14rem;font-weight:400;"">2</p>",,fwdspan,number,Xpvw49HsGON6bVJwv3rlUS4dOEX2,html-keyboard-response,22,347010,0.0-7.0-2.0-0.0-1.0-0.0,,,,,,,632b1b35331d4efbfb0d0f8d,11:19:58 AM,1/15/2024
,"<p style=""font-size:14rem;font-weight:400;"">9</p>",,fwdspan,number,Xpvw49HsGON6bVJwv3rlUS4dOEX2,html-keyboard-response,23,348031,0.0-7.0-2.0-0.0-1.1-0.1,,,,,,,632b1b35331d4efbfb0d0f8d,11:19:58 AM,1/15/2024
,"<p style=""font-size:14rem;font-weight:400;"">8</p>",,fwdspan,number,Xpvw49HsGON6bVJwv3rlUS4dOEX2,html-keyboard-response,24,349049,0.0-7.0-2.0-0.0-1.2-0.2,,,,,,,632b1b35331d4efbfb0d0f8d,11:19:58 AM,1/15/2024
,[],,fwdspan,delay,Xpvw49HsGON6bVJwv3rlUS4dOEX2,html-keyboard-response,25,349618,0.0-7.0-2.0-0.0-2.0,,,,,,,632b1b35331d4efbfb0d0f8d,11:19:58 AM,1/15/2024
11985.300000011921,"<div class = numbox><p style=""font-size:2.5rem"">What were the numbers <b>in order</b>?<br>(When you are ready to lock in your answer, press <b>ENTER</b>)</p><button id = button_1 class = ""square num-button"" onclick = ""recordClick(this)""><div class = content><div class = numbers>1</div></div></button><button id = button_2 class = ""square num-button"" onclick = ""recordClick(this)""><div class = content><div class = numbers>2</div></div></button><button id = button_3 class = ""square num-button"" onclick = ""recordClick(this)""><div class = content><div class = numbers>3</div></div></button><button id = button_4 class = ""square num-button"" onclick = ""recordClick(this)""><div class = content><div class = numbers>4</div></div></button><button id = button_5 class = ""square num-button"" onclick = ""recordClick(this)""><div class = content><div class = numbers>5</div></div></button><button id = button_6 class = ""square num-button"" onclick = ""recordClick(this)""><div class = content><div class = numbers>6</div></div></button><button id = button_7 class = ""square num-button"" onclick = ""recordClick(this)""><div class = content><div class = numbers>7</div></div></button><button id = button_8 class = ""square num-button"" onclick = ""recordClick(this)""><div class = content><div class = numbers>8</div></div></button><button id = button_9 class = ""square num-button"" onclick = ""recordClick(this)""><div class = content><div class = numbers>9</div></div></button><button class = clear_button id = ""ClearButton"" onclick = ""clearResponse()"">Clear</button><p><u><b>Current Answer:</b></u></p><div id=echoed_txt style=""font-size: 6rem; color:blue;""><b></b></div></div><br><br><br><br><br><br><br>",enter,fwdspan,response,Xpvw49HsGON6bVJwv3rlUS4dOEX2,html-keyboard-response,26,361606,0.0-7.0-2.0-0.0-3.0,3.0,"[2,9,8]","[2,9,8]",1.0,"[3, 4, 4, 5, 6, 6, 7, 7, 6, 6, 5, 6]",,632b1b35331d4efbfb0d0f8d,11:19:58 AM,1/15/2024
,,,fwdspan,update_span,Xpvw49HsGON6bVJwv3rlUS4dOEX2,call-function,27,361865,0.0-7.0-2.0-0.0-4.0,,,,,,,632b1b35331d4efbfb0d0f8d,11:19:58 AM,1/15/2024
5230.300000011921,"<p style=""font-size:3rem"">Trial 2 of 12</p><br><br><br>",0,fwdspan,start_trial,Xpvw49HsGON6bVJwv3rlUS4dOEX2,html-button-response,28,367096,0.0-7.0-2.1-0.1-0.1,,,,,,,632b1b35331d4efbfb0d0f8d,11:19:58 AM,1/15/2024
,"<p style=""font-size:14rem;font-weight:400;"">4</p>",,fwdspan,number,Xpvw49HsGON6bVJwv3rlUS4dOEX2,html-keyboard-response,29,368110,0.0-7.0-2.1-0.1-1.3-0.3,,,,,,,632b1b35331d4efbfb0d0f8d,11:19:58 AM,1/15/2024
,"<p style=""font-size:14rem;font-weight:400;"">2</p>",,fwdspan,number,Xpvw49HsGON6bVJwv3rlUS4dOEX2,html-keyboard-response,30,369126,0.0-7.0-2.1-0.1-1.4-0.4,,,,,,,632b1b35331d4efbfb0d0f8d,11:19:58 AM,1/15/2024
,"<p style=""font-size:14rem;font-weight:400;"">3</p>",,fwdspan,number,Xpvw49HsGON6bVJwv3rlUS4dOEX2,html-keyboard-response,31,370138,0.0-7.0-2.1-0.1-1.5-0.5,,,,,,,632b1b35331d4efbfb0d0f8d,11:19:58 AM,1/15/2024
,"<p style=""font-size:14rem;font-weight:400;"">8</p>",,fwdspan,number,Xpvw49HsGON6bVJwv3rlUS4dOEX2,html-keyboard-response,32,371145,0.0-7.0-2.1-0.1-1.6-0.6,,,,,,,632b1b35331d4efbfb0d0f8d,11:19:58 AM,1/15/2024
,[],,fwdspan,delay,Xpvw49HsGON6bVJwv3rlUS4dOEX2,html-keyboard-response,33,371707,0.0-7.0-2.1-0.1-2.1,,,,,,,632b1b35331d4efbfb0d0f8d,11:19:58 AM,1/15/2024
3667.300000011921,"<div class = numbox><p style=""font-size:2.5rem"">What were the numbers <b>in order</b>?<br>(When you are ready to lock in your answer, press <b>ENTER</b>)</p><button id = button_1 class = ""square num-button"" onclick = ""recordClick(this)""><div class = content><div class = numbers>1</div></div></button><button id = button_2 class = ""square num-button"" onclick = ""recordClick(this)""><div class = content><div class = numbers>2</div></div></button><button id = button_3 class = ""square num-button"" onclick = ""recordClick(this)""><div class = content><div class = numbers>3</div></div></button><button id = button_4 class = ""square num-button"" onclick = ""recordClick(this)""><div class = content><div class = numbers>4</div></div></button><button id = button_5 class = ""square num-button"" onclick = ""recordClick(this)""><div class = content><div class = numbers>5</div></div></button><button id = button_6 class = ""square num-button"" onclick = ""recordClick(this)""><div class = content><div class = numbers>6</div></div></button><button id = button_7 class = ""square num-button"" onclick = ""recordClick(this)""><div class = content><div class = numbers>7</div></div></button><button id = button_8 class = ""square num-button"" onclick = ""recordClick(this)""><div class = content><div class = numbers>8</div></div></button><button id = button_9 class = ""square num-button"" onclick = ""recordClick(this)""><div class = content><div class = numbers>9</div></div></button><button class = clear_button id = ""ClearButton"" onclick = ""clearResponse()"">Clear</button><p><u><b>Current Answer:</b></u></p><div id=echoed_txt style=""font-size: 6rem; color:blue;""><b></b></div></div><br><br><br><br><br><br><br>",enter,fwdspan,response,Xpvw49HsGON6bVJwv3rlUS4dOEX2,html-keyboard-response,34,375376,0.0-7.0-2.1-0.1-3.1,4.0,"[2,9,4,3,6]","[4,2,3,8]",0.0,"[3, 4, 4, 5, 6, 6, 7, 7, 6, 6, 5, 6]",,632b1b35331d4efbfb0d0f8d,11:19:58 AM,1/15/2024
,,,fwdspan,update_span,Xpvw49HsGON6bVJwv3rlUS4dOEX2,call-function,35,375636,0.0-7.0-2.1-0.1-4.1,,,,,,,632b1b35331d4efbfb0d0f8d,11:19:58 AM,1/15/2024
12827.700000047684,"<p style=""font-size:3rem"">Trial 3 of 12</p><br><br><br>",0,fwdspan,start_trial,Xpvw49HsGON6bVJwv3rlUS4dOEX2,html-button-response,36,388465,0.0-7.0-2.2-0.2-0.2,,,,,,,632b1b35331d4efbfb0d0f8d,11:19:58 AM,1/15/2024
,"<p style=""font-size:14rem;font-weight:400;"">2</p>",,fwdspan,number,Xpvw49HsGON6bVJwv3rlUS4dOEX2,html-keyboard-response,37,389492,0.0-7.0-2.2-0.2-1.7-0.7,,,,,,,632b1b35331d4efbfb0d0f8d,11:19:58 AM,1/15/2024
,"<p style=""font-size:14rem;font-weight:400;"">5</p>",,fwdspan,number,Xpvw49HsGON6bVJwv3rlUS4dOEX2,html-keyboard-response,38,390502,0.0-7.0-2.2-0.2-1.8-0.8,,,,,,,632b1b35331d4efbfb0d0f8d,11:19:58 AM,1/15/2024
,"<p style=""font-size:14rem;font-weight:400;"">8</p>",,fwdspan,number,Xpvw49HsGON6bVJwv3rlUS4dOEX2,html-keyboard-response,39,391524,0.0-7.0-2.2-0.2-1.9-0.9,,,,,,,632b1b35331d4efbfb0d0f8d,11:19:58 AM,1/15/2024
,"<p style=""font-size:14rem;font-weight:400;"">6</p>",,fwdspan,number,Xpvw49HsGON6bVJwv3rlUS4dOEX2,html-keyboard-response,40,392547,0.0-7.0-2.2-0.2-1.10-0.10,,,,,,,632b1b35331d4efbfb0d0f8d,11:19:58 AM,1/15/2024
,[],,fwdspan,delay,Xpvw49HsGON6bVJwv3rlUS4dOEX2,html-keyboard-response,41,393125,0.0-7.0-2.2-0.2-2.2,,,,,,,632b1b35331d4efbfb0d0f8d,11:19:58 AM,1/15/2024
3024.900000035763,"<div class = numbox><p style=""font-size:2.5rem"">What were the numbers <b>in order</b>?<br>(When you are ready to lock in your answer, press <b>ENTER</b>)</p><button id = button_1 class = ""square num-button"" onclick = ""recordClick(this)""><div class = content><div class = numbers>1</div></div></button><button id = button_2 class = ""square num-button"" onclick = ""recordClick(this)""><div class = content><div class = numbers>2</div></div></button><button id = button_3 class = ""square num-button"" onclick = ""recordClick(this)""><div class = content><div class = numbers>3</div></div></button><button id = button_4 class = ""square num-button"" onclick = ""recordClick(this)""><div class = content><div class = numbers>4</div></div></button><button id = button_5 class = ""square num-button"" onclick = ""recordClick(this)""><div class = content><div class = numbers>5</div></div></button><button id = button_6 class = ""square num-button"" onclick = ""recordClick(this)""><div class = content><div class = numbers>6</div></div></button><button id = button_7 class = ""square num-button"" onclick = ""recordClick(this)""><div class = content><div class = numbers>7</div></div></button><button id = button_8 class = ""square num-button"" onclick = ""recordClick(this)""><div class = content><div class = numbers>8</div></div></button><button id = button_9 class = ""square num-button"" onclick = ""recordClick(this)""><div class = content><div class = numbers>9</div></div></button><button class = clear_button id = ""ClearButton"" onclick = ""clearResponse()"">Clear</button><p><u><b>Current Answer:</b></u></p><div id=echoed_txt style=""font-size: 6rem; color:blue;""><b></b></div></div><br><br><br><br><br><br><br>",enter,fwdspan,response,Xpvw49HsGON6bVJwv3rlUS4dOEX2,html-keyboard-response,42,396151,0.0-7.0-2.2-0.2-3.2,4.0,"[2,5,8,6]","[2,5,8,6]",1.0,"[3, 4, 4, 5, 6, 6, 7, 7, 6, 6, 5, 6]",,632b1b35331d4efbfb0d0f8d,11:19:58 AM,1/15/2024
,,,fwdspan,update_span,Xpvw49HsGON6bVJwv3rlUS4dOEX2,call-function,43,396406,0.0-7.0-2.2-0.2-4.2,,,,,,,632b1b35331d4efbfb0d0f8d,11:19:58 AM,1/15/2024
1646.0,"<p style=""font-size:3rem"">Trial 4 of 12</p><br><br><br>",0,fwdspan,start_trial,Xpvw49HsGON6bVJwv3rlUS4dOEX2,html-button-response,44,398053,0.0-7.0-2.3-0.3-0.3,,,,,,,632b1b35331d4efbfb0d0f8d,11:19:58 AM,1/15/2024
,"<p style=""font-size:14rem;font-weight:400;"">3</p>",,fwdspan,number,Xpvw49HsGON6bVJwv3rlUS4dOEX2,html-keyboard-response,45,399062,0.0-7.0-2.3-0.3-1.11-0.11,,,,,,,632b1b35331d4efbfb0d0f8d,11:19:58 AM,1/15/2024
,"<p style=""font-size:14rem;font-weight:400;"">8</p>",,fwdspan,number,Xpvw49HsGON6bVJwv3rlUS4dOEX2,html-keyboard-response,46,400088,0.0-7.0-2.3-0.3-1.12-0.12,,,,,,,632b1b35331d4efbfb0d0f8d,11:19:58 AM,1/15/2024
,"<p style=""font-size:14rem;font-weight:400;"">2</p>",,fwdspan,number,Xpvw49HsGON6bVJwv3rlUS4dOEX2,html-keyboard-response,47,401097,0.0-7.0-2.3-0.3-1.13-0.13,,,,,,,632b1b35331d4efbfb0d0f8d,11:19:58 AM,1/15/2024
,"<p style=""font-size:14rem;font-weight:400;"">9</p>",,fwdspan,number,Xpvw49HsGON6bVJwv3rlUS4dOEX2,html-keyboard-response,48,402111,0.0-7.0-2.3-0.3-1.14-0.14,,,,,,,632b1b35331d4efbfb0d0f8d,11:19:58 AM,1/15/2024
,"<p style=""font-size:14rem;font-weight:400;"">6</p>",,fwdspan,number,Xpvw49HsGON6bVJwv3rlUS4dOEX2,html-keyboard-response,49,403117,0.0-7.0-2.3-0.3-1.15-0.15,,,,,,,632b1b35331d4efbfb0d0f8d,11:19:58 AM,1/15/2024
,[],,fwdspan,delay,Xpvw49HsGON6bVJwv3rlUS4dOEX2,html-keyboard-response,50,403675,0.0-7.0-2.3-0.3-2.3,,,,,,,632b1b35331d4efbfb0d0f8d,11:19:58 AM,1/15/2024
4436.199999988079,"<div class = numbox><p style=""font-size:2.5rem"">What were the numbers <b>in order</b>?<br>(When you are ready to lock in your answer, press <b>ENTER</b>)</p><button id = button_1 class = ""square num-button"" onclick = ""recordClick(this)""><div class = content><div class = numbers>1</div></div></button><button id = button_2 class = ""square num-button"" onclick = ""recordClick(this)""><div class = content><div class = numbers>2</div></div></button><button id = button_3 class = ""square num-button"" onclick = ""recordClick(this)""><div class = content><div class = numbers>3</div></div></button><button id = button_4 class = ""square num-button"" onclick = ""recordClick(this)""><div class = content><div class = numbers>4</div></div></button><button id = button_5 class = ""square num-button"" onclick = ""recordClick(this)""><div class = content><div class = numbers>5</div></div></button><button id = button_6 class = ""square num-button"" onclick = ""recordClick(this)""><div class = content><div class = numbers>6</div></div></button><button id = button_7 class = ""square num-button"" onclick = ""recordClick(this)""><div class = content><div class = numbers>7</div></div></button><button id = button_8 class = ""square num-button"" onclick = ""recordClick(this)""><div class = content><div class = numbers>8</div></div></button><button id = button_9 class = ""square num-button"" onclick = ""recordClick(this)""><div class = content><div class = numbers>9</div></div></button><button class = clear_button id = ""ClearButton"" onclick = ""clearResponse()"">Clear</button><p><u><b>Current Answer:</b></u></p><div id=echoed_txt style=""font-size: 6rem; color:blue;""><b></b></div></div><br><br><br><br><br><br><br>",enter,fwdspan,response,Xpvw49HsGON6bVJwv3rlUS4dOEX2,html-keyboard-response,51,408112,0.0-7.0-2.3-0.3-3.3,5.0,"[3,8,2,9,6]","[3,8,2,9,6]",1.0,"[3, 4, 4, 5, 6, 6, 7, 7, 6, 6, 5, 6]",,632b1b35331d4efbfb0d0f8d,11:19:58 AM,1/15/2024
,,,fwdspan,update_span,Xpvw49HsGON6bVJwv3rlUS4dOEX2,call-function,52,408367,0.0-7.0-2.3-0.3-4.3,,,,,,,632b1b35331d4efbfb0d0f8d,11:19:58 AM,1/15/2024
1660.1000000238419,"<p style=""font-size:3rem"">Trial 5 of 12</p><br><br><br>",0,fwdspan,start_trial,Xpvw49HsGON6bVJwv3rlUS4dOEX2,html-button-response,53,410028,0.0-7.0-2.4-0.4-0.4,,,,,,,632b1b35331d4efbfb0d0f8d,11:19:58 AM,1/15/2024
,"<p style=""font-size:14rem;font-weight:400;"">6</p>",,fwdspan,number,Xpvw49HsGON6bVJwv3rlUS4dOEX2,html-keyboard-response,54,411034,0.0-7.0-2.4-0.4-1.16-0.16,,,,,,,632b1b35331d4efbfb0d0f8d,11:19:58 AM,1/15/2024
,"<p style=""font-size:14rem;font-weight:400;"">9</p>",,fwdspan,number,Xpvw49HsGON6bVJwv3rlUS4dOEX2,html-keyboard-response,55,412058,0.0-7.0-2.4-0.4-1.17-0.17,,,,,,,632b1b35331d4efbfb0d0f8d,11:19:58 AM,1/15/2024
,"<p style=""font-size:14rem;font-weight:400;"">7</p>",,fwdspan,number,Xpvw49HsGON6bVJwv3rlUS4dOEX2,html-keyboard-response,56,413069,0.0-7.0-2.4-0.4-1.18-0.18,,,,,,,632b1b35331d4efbfb0d0f8d,11:19:58 AM,1/15/2024
,"<p style=""font-size:14rem;font-weight:400;"">1</p>",,fwdspan,number,Xpvw49HsGON6bVJwv3rlUS4dOEX2,html-keyboard-response,57,414098,0.0-7.0-2.4-0.4-1.19-0.19,,,,,,,632b1b35331d4efbfb0d0f8d,11:19:58 AM,1/15/2024
,"<p style=""font-size:14rem;font-weight:400;"">4</p>",,fwdspan,number,Xpvw49HsGON6bVJwv3rlUS4dOEX2,html-keyboard-response,58,415125,0.0-7.0-2.4-0.4-1.20-0.20,,,,,,,632b1b35331d4efbfb0d0f8d,11:19:58 AM,1/15/2024
,"<p style=""font-size:14rem;font-weight:400;"">2</p>",,fwdspan,number,Xpvw49HsGON6bVJwv3rlUS4dOEX2,html-keyboard-response,59,416140,0.0-7.0-2.4-0.4-1.21-0.21,,,,,,,632b1b35331d4efbfb0d0f8d,11:19:58 AM,1/15/2024
,[],,fwdspan,delay,Xpvw49HsGON6bVJwv3rlUS4dOEX2,html-keyboard-response,60,416698,0.0-7.0-2.4-0.4-2.4,,,,,,,632b1b35331d4efbfb0d0f8d,11:19:58 AM,1/15/2024
7360.300000011921,"<div class = numbox><p style=""font-size:2.5rem"">What were the numbers <b>in order</b>?<br>(When you are ready to lock in your answer, press <b>ENTER</b>)</p><button id = button_1 class = ""square num-button"" onclick = ""recordClick(this)""><div class = content><div class = numbers>1</div></div></button><button id = button_2 class = ""square num-button"" onclick = ""recordClick(this)""><div class = content><div class = numbers>2</div></div></button><button id = button_3 class = ""square num-button"" onclick = ""recordClick(this)""><div class = content><div class = numbers>3</div></div></button><button id = button_4 class = ""square num-button"" onclick = ""recordClick(this)""><div class = content><div class = numbers>4</div></div></button><button id = button_5 class = ""square num-button"" onclick = ""recordClick(this)""><div class = content><div class = numbers>5</div></div></button><button id = button_6 class = ""square num-button"" onclick = ""recordClick(this)""><div class = content><div class = numbers>6</div></div></button><button id = button_7 class = ""square num-button"" onclick = ""recordClick(this)""><div class = content><div class = numbers>7</div></div></button><button id = button_8 class = ""square num-button"" onclick = ""recordClick(this)""><div class = content><div class = numbers>8</div></div></button><button id = button_9 class = ""square num-button"" onclick = ""recordClick(this)""><div class = content><div class = numbers>9</div></div></button><button class = clear_button id = ""ClearButton"" onclick = ""clearResponse()"">Clear</button><p><u><b>Current Answer:</b></u></p><div id=echoed_txt style=""font-size: 6rem; color:blue;""><b></b></div></div><br><br><br><br><br><br><br>",enter,fwdspan,response,Xpvw49HsGON6bVJwv3rlUS4dOEX2,html-keyboard-response,61,424060,0.0-7.0-2.4-0.4-3.4,6.0,"[6,1,7,9,2,4]","[6,9,7,1,4,2]",0.0,"[3, 4, 4, 5, 6, 6, 7, 7, 6, 6, 5, 6]",,632b1b35331d4efbfb0d0f8d,11:19:58 AM,1/15/2024
,,,fwdspan,update_span,Xpvw49HsGON6bVJwv3rlUS4dOEX2,call-function,62,424312,0.0-7.0-2.4-0.4-4.4,,,,,,,632b1b35331d4efbfb0d0f8d,11:19:58 AM,1/15/2024
2808.199999988079,"<p style=""font-size:3rem"">Trial 6 of 12</p><br><br><br>",0,fwdspan,start_trial,Xpvw49HsGON6bVJwv3rlUS4dOEX2,html-button-response,63,427121,0.0-7.0-2.5-0.5-0.5,,,,,,,632b1b35331d4efbfb0d0f8d,11:19:58 AM,1/15/2024
,"<p style=""font-size:14rem;font-weight:400;"">4</p>",,fwdspan,number,Xpvw49HsGON6bVJwv3rlUS4dOEX2,html-keyboard-response,64,428129,0.0-7.0-2.5-0.5-1.22-0.22,,,,,,,632b1b35331d4efbfb0d0f8d,11:19:58 AM,1/15/2024
,"<p style=""font-size:14rem;font-weight:400;"">6</p>",,fwdspan,number,Xpvw49HsGON6bVJwv3rlUS4dOEX2,html-keyboard-response,65,429148,0.0-7.0-2.5-0.5-1.23-0.23,,,,,,,632b1b35331d4efbfb0d0f8d,11:19:58 AM,1/15/2024
,"<p style=""font-size:14rem;font-weight:400;"">9</p>",,fwdspan,number,Xpvw49HsGON6bVJwv3rlUS4dOEX2,html-keyboard-response,66,430159,0.0-7.0-2.5-0.5-1.24-0.24,,,,,,,632b1b35331d4efbfb0d0f8d,11:19:58 AM,1/15/2024
,"<p style=""font-size:14rem;font-weight:400;"">8</p>",,fwdspan,number,Xpvw49HsGON6bVJwv3rlUS4dOEX2,html-keyboard-response,67,431179,0.0-7.0-2.5-0.5-1.25-0.25,,,,,,,632b1b35331d4efbfb0d0f8d,11:19:58 AM,1/15/2024
,"<p style=""font-size:14rem;font-weight:400;"">3</p>",,fwdspan,number,Xpvw49HsGON6bVJwv3rlUS4dOEX2,html-keyboard-response,68,432200,0.0-7.0-2.5-0.5-1.26-0.26,,,,,,,632b1b35331d4efbfb0d0f8d,11:19:58 AM,1/15/2024
,"<p style=""font-size:14rem;font-weight:400;"">1</p>",,fwdspan,number,Xpvw49HsGON6bVJwv3rlUS4dOEX2,html-keyboard-response,69,433222,0.0-7.0-2.5-0.5-1.27-0.27,,,,,,,632b1b35331d4efbfb0d0f8d,11:19:58 AM,1/15/2024
,[],,fwdspan,delay,Xpvw49HsGON6bVJwv3rlUS4dOEX2,html-keyboard-response,70,433788,0.0-7.0-2.5-0.5-2.5,,,,,,,632b1b35331d4efbfb0d0f8d,11:19:58 AM,1/15/2024
4427.399999976158,"<div class = numbox><p style=""font-size:2.5rem"">What were the numbers <b>in order</b>?<br>(When you are ready to lock in your answer, press <b>ENTER</b>)</p><button id = button_1 class = ""square num-button"" onclick = ""recordClick(this)""><div class = content><div class = numbers>1</div></div></button><button id = button_2 class = ""square num-button"" onclick = ""recordClick(this)""><div class = content><div class = numbers>2</div></div></button><button id = button_3 class = ""square num-button"" onclick = ""recordClick(this)""><div class = content><div class = numbers>3</div></div></button><button id = button_4 class = ""square num-button"" onclick = ""recordClick(this)""><div class = content><div class = numbers>4</div></div></button><button id = button_5 class = ""square num-button"" onclick = ""recordClick(this)""><div class = content><div class = numbers>5</div></div></button><button id = button_6 class = ""square num-button"" onclick = ""recordClick(this)""><div class = content><div class = numbers>6</div></div></button><button id = button_7 class = ""square num-button"" onclick = ""recordClick(this)""><div class = content><div class = numbers>7</div></div></button><button id = button_8 class = ""square num-button"" onclick = ""recordClick(this)""><div class = content><div class = numbers>8</div></div></button><button id = button_9 class = ""square num-button"" onclick = ""recordClick(this)""><div class = content><div class = numbers>9</div></div></button><button class = clear_button id = ""ClearButton"" onclick = ""clearResponse()"">Clear</button><p><u><b>Current Answer:</b></u></p><div id=echoed_txt style=""font-size: 6rem; color:blue;""><b></b></div></div><br><br><br><br><br><br><br>",enter,fwdspan,response,Xpvw49HsGON6bVJwv3rlUS4dOEX2,html-keyboard-response,71,438217,0.0-7.0-2.5-0.5-3.5,6.0,"[4,6,9,8,3,1]","[4,6,9,8,3,1]",1.0,"[3, 4, 4, 5, 6, 6, 7, 7, 6, 6, 5, 6]",,632b1b35331d4efbfb0d0f8d,11:19:58 AM,1/15/2024
,,,fwdspan,update_span,Xpvw49HsGON6bVJwv3rlUS4dOEX2,call-function,72,438479,0.0-7.0-2.5-0.5-4.5,,,,,,,632b1b35331d4efbfb0d0f8d,11:19:58 AM,1/15/2024
1317.5999999642372,"<p style=""font-size:3rem"">Trial 7 of 12</p><br><br><br>",0,fwdspan,start_trial,Xpvw49HsGON6bVJwv3rlUS4dOEX2,html-button-response,73,439798,0.0-7.0-2.6-0.6-0.6,,,,,,,632b1b35331d4efbfb0d0f8d,11:19:58 AM,1/15/2024
,"<p style=""font-size:14rem;font-weight:400;"">2</p>",,fwdspan,number,Xpvw49HsGON6bVJwv3rlUS4dOEX2,html-keyboard-response,74,440818,0.0-7.0-2.6-0.6-1.28-0.28,,,,,,,632b1b35331d4efbfb0d0f8d,11:19:58 AM,1/15/2024
,"<p style=""font-size:14rem;font-weight:400;"">1</p>",,fwdspan,number,Xpvw49HsGON6bVJwv3rlUS4dOEX2,html-keyboard-response,75,441842,0.0-7.0-2.6-0.6-1.29-0.29,,,,,,,632b1b35331d4efbfb0d0f8d,11:19:58 AM,1/15/2024
,"<p style=""font-size:14rem;font-weight:400;"">6</p>",,fwdspan,number,Xpvw49HsGON6bVJwv3rlUS4dOEX2,html-keyboard-response,76,442868,0.0-7.0-2.6-0.6-1.30-0.30,,,,,,,632b1b35331d4efbfb0d0f8d,11:19:58 AM,1/15/2024
,"<p style=""font-size:14rem;font-weight:400;"">3</p>",,fwdspan,number,Xpvw49HsGON6bVJwv3rlUS4dOEX2,html-keyboard-response,77,443885,0.0-7.0-2.6-0.6-1.31-0.31,,,,,,,632b1b35331d4efbfb0d0f8d,11:19:58 AM,1/15/2024
,"<p style=""font-size:14rem;font-weight:400;"">4</p>",,fwdspan,number,Xpvw49HsGON6bVJwv3rlUS4dOEX2,html-keyboard-response,78,444909,0.0-7.0-2.6-0.6-1.32-0.32,,,,,,,632b1b35331d4efbfb0d0f8d,11:19:58 AM,1/15/2024
,"<p style=""font-size:14rem;font-weight:400;"">5</p>",,fwdspan,number,Xpvw49HsGON6bVJwv3rlUS4dOEX2,html-keyboard-response,79,445919,0.0-7.0-2.6-0.6-1.33-0.33,,,,,,,632b1b35331d4efbfb0d0f8d,11:19:58 AM,1/15/2024
,"<p style=""font-size:14rem;font-weight:400;"">8</p>",,fwdspan,number,Xpvw49HsGON6bVJwv3rlUS4dOEX2,html-keyboard-response,80,446941,0.0-7.0-2.6-0.6-1.34-0.34,,,,,,,632b1b35331d4efbfb0d0f8d,11:19:58 AM,1/15/2024
,[],,fwdspan,delay,Xpvw49HsGON6bVJwv3rlUS4dOEX2,html-keyboard-response,81,447516,0.0-7.0-2.6-0.6-2.6,,,,,,,632b1b35331d4efbfb0d0f8d,11:19:58 AM,1/15/2024
6000.5,"<div class = numbox><p style=""font-size:2.5rem"">What were the numbers <b>in order</b>?<br>(When you are ready to lock in your answer, press <b>ENTER</b>)</p><button id = button_1 class = ""square num-button"" onclick = ""recordClick(this)""><div class = content><div class = numbers>1</div></div></button><button id = button_2 class = ""square num-button"" onclick = ""recordClick(this)""><div class = content><div class = numbers>2</div></div></button><button id = button_3 class = ""square num-button"" onclick = ""recordClick(this)""><div class = content><div class = numbers>3</div></div></button><button id = button_4 class = ""square num-button"" onclick = ""recordClick(this)""><div class = content><div class = numbers>4</div></div></button><button id = button_5 class = ""square num-button"" onclick = ""recordClick(this)""><div class = content><div class = numbers>5</div></div></button><button id = button_6 class = ""square num-button"" onclick = ""recordClick(this)""><div class = content><div class = numbers>6</div></div></button><button id = button_7 class = ""square num-button"" onclick = ""recordClick(this)""><div class = content><div class = numbers>7</div></div></button><button id = button_8 class = ""square num-button"" onclick = ""recordClick(this)""><div class = content><div class = numbers>8</div></div></button><button id = button_9 class = ""square num-button"" onclick = ""recordClick(this)""><div class = content><div class = numbers>9</div></div></button><button class = clear_button id = ""ClearButton"" onclick = ""clearResponse()"">Clear</button><p><u><b>Current Answer:</b></u></p><div id=echoed_txt style=""font-size: 6rem; color:blue;""><b></b></div></div><br><br><br><br><br><br><br>",enter,fwdspan,response,Xpvw49HsGON6bVJwv3rlUS4dOEX2,html-keyboard-response,82,453516,0.0-7.0-2.6-0.6-3.6,7.0,"[2,1,6,3,4,8]","[2,1,6,3,4,5,8]",0.0,"[3, 4, 4, 5, 6, 6, 7, 7, 6, 6, 5, 6]",,632b1b35331d4efbfb0d0f8d,11:19:58 AM,1/15/2024
,,,fwdspan,update_span,Xpvw49HsGON6bVJwv3rlUS4dOEX2,call-function,83,453780,0.0-7.0-2.6-0.6-4.6,,,,,,,632b1b35331d4efbfb0d0f8d,11:19:58 AM,1/15/2024
1212.199999988079,"<p style=""font-size:3rem"">Trial 8 of 12</p><br><br><br>",0,fwdspan,start_trial,Xpvw49HsGON6bVJwv3rlUS4dOEX2,html-button-response,84,454993,0.0-7.0-2.7-0.7-0.7,,,,,,,632b1b35331d4efbfb0d0f8d,11:19:58 AM,1/15/2024
,"<p style=""font-size:14rem;font-weight:400;"">3</p>",,fwdspan,number,Xpvw49HsGON6bVJwv3rlUS4dOEX2,html-keyboard-response,85,456012,0.0-7.0-2.7-0.7-1.35-0.35,,,,,,,632b1b35331d4efbfb0d0f8d,11:19:58 AM,1/15/2024
,"<p style=""font-size:14rem;font-weight:400;"">9</p>",,fwdspan,number,Xpvw49HsGON6bVJwv3rlUS4dOEX2,html-keyboard-response,86,457029,0.0-7.0-2.7-0.7-1.36-0.36,,,,,,,632b1b35331d4efbfb0d0f8d,11:19:58 AM,1/15/2024
,"<p style=""font-size:14rem;font-weight:400;"">5</p>",,fwdspan,number,Xpvw49HsGON6bVJwv3rlUS4dOEX2,html-keyboard-response,87,458044,0.0-7.0-2.7-0.7-1.37-0.37,,,,,,,632b1b35331d4efbfb0d0f8d,11:19:58 AM,1/15/2024
,"<p style=""font-size:14rem;font-weight:400;"">2</p>",,fwdspan,number,Xpvw49HsGON6bVJwv3rlUS4dOEX2,html-keyboard-response,88,459061,0.0-7.0-2.7-0.7-1.38-0.38,,,,,,,632b1b35331d4efbfb0d0f8d,11:19:58 AM,1/15/2024
,"<p style=""font-size:14rem;font-weight:400;"">4</p>",,fwdspan,number,Xpvw49HsGON6bVJwv3rlUS4dOEX2,html-keyboard-response,89,460077,0.0-7.0-2.7-0.7-1.39-0.39,,,,,,,632b1b35331d4efbfb0d0f8d,11:19:58 AM,1/15/2024
,"<p style=""font-size:14rem;font-weight:400;"">8</p>",,fwdspan,number,Xpvw49HsGON6bVJwv3rlUS4dOEX2,html-keyboard-response,90,461093,0.0-7.0-2.7-0.7-1.40-0.40,,,,,,,632b1b35331d4efbfb0d0f8d,11:19:58 AM,1/15/2024
,"<p style=""font-size:14rem;font-weight:400;"">7</p>",,fwdspan,number,Xpvw49HsGON6bVJwv3rlUS4dOEX2,html-keyboard-response,91,462116,0.0-7.0-2.7-0.7-1.41-0.41,,,,,,,632b1b35331d4efbfb0d0f8d,11:19:58 AM,1/15/2024
,[],,fwdspan,delay,Xpvw49HsGON6bVJwv3rlUS4dOEX2,html-keyboard-response,92,462670,0.0-7.0-2.7-0.7-2.7,,,,,,,632b1b35331d4efbfb0d0f8d,11:19:58 AM,1/15/2024
5312.5,"<div class = numbox><p style=""font-size:2.5rem"">What were the numbers <b>in order</b>?<br>(When you are ready to lock in your answer, press <b>ENTER</b>)</p><button id = button_1 class = ""square num-button"" onclick = ""recordClick(this)""><div class = content><div class = numbers>1</div></div></button><button id = button_2 class = ""square num-button"" onclick = ""recordClick(this)""><div class = content><div class = numbers>2</div></div></button><button id = button_3 class = ""square num-button"" onclick = ""recordClick(this)""><div class = content><div class = numbers>3</div></div></button><button id = button_4 class = ""square num-button"" onclick = ""recordClick(this)""><div class = content><div class = numbers>4</div></div></button><button id = button_5 class = ""square num-button"" onclick = ""recordClick(this)""><div class = content><div class = numbers>5</div></div></button><button id = button_6 class = ""square num-button"" onclick = ""recordClick(this)""><div class = content><div class = numbers>6</div></div></button><button id = button_7 class = ""square num-button"" onclick = ""recordClick(this)""><div class = content><div class = numbers>7</div></div></button><button id = button_8 class = ""square num-button"" onclick = ""recordClick(this)""><div class = content><div class = numbers>8</div></div></button><button id = button_9 class = ""square num-button"" onclick = ""recordClick(this)""><div class = content><div class = numbers>9</div></div></button><button class = clear_button id = ""ClearButton"" onclick = ""clearResponse()"">Clear</button><p><u><b>Current Answer:</b></u></p><div id=echoed_txt style=""font-size: 6rem; color:blue;""><b></b></div></div><br><br><br><br><br><br><br>",enter,fwdspan,response,Xpvw49HsGON6bVJwv3rlUS4dOEX2,html-keyboard-response,93,467984,0.0-7.0-2.7-0.7-3.7,7.0,"[3,5,9,2,4,8,6]","[3,9,5,2,4,8,7]",0.0,"[3, 4, 4, 5, 6, 6, 7, 7, 6, 6, 5, 6]",,632b1b35331d4efbfb0d0f8d,11:19:58 AM,1/15/2024
,,,fwdspan,update_span,Xpvw49HsGON6bVJwv3rlUS4dOEX2,call-function,94,468239,0.0-7.0-2.7-0.7-4.7,,,,,,,632b1b35331d4efbfb0d0f8d,11:19:58 AM,1/15/2024
1028.5,"<p style=""font-size:3rem"">Trial 9 of 12</p><br><br><br>",0,fwdspan,start_trial,Xpvw49HsGON6bVJwv3rlUS4dOEX2,html-button-response,95,469269,0.0-7.0-2.8-0.8-0.8,,,,,,,632b1b35331d4efbfb0d0f8d,11:19:58 AM,1/15/2024
,"<p style=""font-size:14rem;font-weight:400;"">6</p>",,fwdspan,number,Xpvw49HsGON6bVJwv3rlUS4dOEX2,html-keyboard-response,96,470288,0.0-7.0-2.8-0.8-1.42-0.42,,,,,,,632b1b35331d4efbfb0d0f8d,11:19:58 AM,1/15/2024
,"<p style=""font-size:14rem;font-weight:400;"">7</p>",,fwdspan,number,Xpvw49HsGON6bVJwv3rlUS4dOEX2,html-keyboard-response,97,471319,0.0-7.0-2.8-0.8-1.43-0.43,,,,,,,632b1b35331d4efbfb0d0f8d,11:19:58 AM,1/15/2024
,"<p style=""font-size:14rem;font-weight:400;"">9</p>",,fwdspan,number,Xpvw49HsGON6bVJwv3rlUS4dOEX2,html-keyboard-response,98,472333,0.0-7.0-2.8-0.8-1.44-0.44,,,,,,,632b1b35331d4efbfb0d0f8d,11:19:58 AM,1/15/2024
,"<p style=""font-size:14rem;font-weight:400;"">8</p>",,fwdspan,number,Xpvw49HsGON6bVJwv3rlUS4dOEX2,html-keyboard-response,99,473345,0.0-7.0-2.8-0.8-1.45-0.45,,,,,,,632b1b35331d4efbfb0d0f8d,11:19:58 AM,1/15/2024
,"<p style=""font-size:14rem;font-weight:400;"">1</p>",,fwdspan,number,Xpvw49HsGON6bVJwv3rlUS4dOEX2,html-keyboard-response,100,474358,0.0-7.0-2.8-0.8-1.46-0.46,,,,,,,632b1b35331d4efbfb0d0f8d,11:19:58 AM,1/15/2024
,"<p style=""font-size:14rem;font-weight:400;"">4</p>",,fwdspan,number,Xpvw49HsGON6bVJwv3rlUS4dOEX2,html-keyboard-response,101,475380,0.0-7.0-2.8-0.8-1.47-0.47,,,,,,,632b1b35331d4efbfb0d0f8d,11:19:58 AM,1/15/2024
,[],,fwdspan,delay,Xpvw49HsGON6bVJwv3rlUS4dOEX2,html-keyboard-response,102,475936,0.0-7.0-2.8-0.8-2.8,,,,,,,632b1b35331d4efbfb0d0f8d,11:19:58 AM,1/15/2024
5770.399999976158,"<div class = numbox><p style=""font-size:2.5rem"">What were the numbers <b>in order</b>?<br>(When you are ready to lock in your answer, press <b>ENTER</b>)</p><button id = button_1 class = ""square num-button"" onclick = ""recordClick(this)""><div class = content><div class = numbers>1</div></div></button><button id = button_2 class = ""square num-button"" onclick = ""recordClick(this)""><div class = content><div class = numbers>2</div></div></button><button id = button_3 class = ""square num-button"" onclick = ""recordClick(this)""><div class = content><div class = numbers>3</div></div></button><button id = button_4 class = ""square num-button"" onclick = ""recordClick(this)""><div class = content><div class = numbers>4</div></div></button><button id = button_5 class = ""square num-button"" onclick = ""recordClick(this)""><div class = content><div class = numbers>5</div></div></button><button id = button_6 class = ""square num-button"" onclick = ""recordClick(this)""><div class = content><div class = numbers>6</div></div></button><button id = button_7 class = ""square num-button"" onclick = ""recordClick(this)""><div class = content><div class = numbers>7</div></div></button><button id = button_8 class = ""square num-button"" onclick = ""recordClick(this)""><div class = content><div class = numbers>8</div></div></button><button id = button_9 class = ""square num-button"" onclick = ""recordClick(this)""><div class = content><div class = numbers>9</div></div></button><button class = clear_button id = ""ClearButton"" onclick = ""clearResponse()"">Clear</button><p><u><b>Current Answer:</b></u></p><div id=echoed_txt style=""font-size: 6rem; color:blue;""><b></b></div></div><br><br><br><br><br><br><br>",enter,fwdspan,response,Xpvw49HsGON6bVJwv3rlUS4dOEX2,html-keyboard-response,103,481708,0.0-7.0-2.8-0.8-3.8,6.0,"[6,7,8,9,1]","[6,7,9,8,1,4]",0.0,"[3, 4, 4, 5, 6, 6, 7, 7, 6, 6, 5, 6]",,632b1b35331d4efbfb0d0f8d,11:19:58 AM,1/15/2024
,,,fwdspan,update_span,Xpvw49HsGON6bVJwv3rlUS4dOEX2,call-function,104,481963,0.0-7.0-2.8-0.8-4.8,,,,,,,632b1b35331d4efbfb0d0f8d,11:19:58 AM,1/15/2024
870.5999999642372,"<p style=""font-size:3rem"">Trial 10 of 12</p><br><br><br>",0,fwdspan,start_trial,Xpvw49HsGON6bVJwv3rlUS4dOEX2,html-button-response,105,482834,0.0-7.0-2.9-0.9-0.9,,,,,,,632b1b35331d4efbfb0d0f8d,11:19:58 AM,1/15/2024
,"<p style=""font-size:14rem;font-weight:400;"">1</p>",,fwdspan,number,Xpvw49HsGON6bVJwv3rlUS4dOEX2,html-keyboard-response,106,483849,0.0-7.0-2.9-0.9-1.48-0.48,,,,,,,632b1b35331d4efbfb0d0f8d,11:19:58 AM,1/15/2024
,"<p style=""font-size:14rem;font-weight:400;"">6</p>",,fwdspan,number,Xpvw49HsGON6bVJwv3rlUS4dOEX2,html-keyboard-response,107,484870,0.0-7.0-2.9-0.9-1.49-0.49,,,,,,,632b1b35331d4efbfb0d0f8d,11:19:58 AM,1/15/2024
,"<p style=""font-size:14rem;font-weight:400;"">4</p>",,fwdspan,number,Xpvw49HsGON6bVJwv3rlUS4dOEX2,html-keyboard-response,108,485879,0.0-7.0-2.9-0.9-1.50-0.50,,,,,,,632b1b35331d4efbfb0d0f8d,11:19:58 AM,1/15/2024
,"<p style=""font-size:14rem;font-weight:400;"">8</p>",,fwdspan,number,Xpvw49HsGON6bVJwv3rlUS4dOEX2,html-keyboard-response,109,486897,0.0-7.0-2.9-0.9-1.51-0.51,,,,,,,632b1b35331d4efbfb0d0f8d,11:19:58 AM,1/15/2024
,"<p style=""font-size:14rem;font-weight:400;"">3</p>",,fwdspan,number,Xpvw49HsGON6bVJwv3rlUS4dOEX2,html-keyboard-response,110,487913,0.0-7.0-2.9-0.9-1.52-0.52,,,,,,,632b1b35331d4efbfb0d0f8d,11:19:58 AM,1/15/2024
,"<p style=""font-size:14rem;font-weight:400;"">7</p>",,fwdspan,number,Xpvw49HsGON6bVJwv3rlUS4dOEX2,html-keyboard-response,111,488930,0.0-7.0-2.9-0.9-1.53-0.53,,,,,,,632b1b35331d4efbfb0d0f8d,11:19:58 AM,1/15/2024
,[],,fwdspan,delay,Xpvw49HsGON6bVJwv3rlUS4dOEX2,html-keyboard-response,112,489503,0.0-7.0-2.9-0.9-2.9,,,,,,,632b1b35331d4efbfb0d0f8d,11:19:58 AM,1/15/2024
4543.5,"<div class = numbox><p style=""font-size:2.5rem"">What were the numbers <b>in order</b>?<br>(When you are ready to lock in your answer, press <b>ENTER</b>)</p><button id = button_1 class = ""square num-button"" onclick = ""recordClick(this)""><div class = content><div class = numbers>1</div></div></button><button id = button_2 class = ""square num-button"" onclick = ""recordClick(this)""><div class = content><div class = numbers>2</div></div></button><button id = button_3 class = ""square num-button"" onclick = ""recordClick(this)""><div class = content><div class = numbers>3</div></div></button><button id = button_4 class = ""square num-button"" onclick = ""recordClick(this)""><div class = content><div class = numbers>4</div></div></button><button id = button_5 class = ""square num-button"" onclick = ""recordClick(this)""><div class = content><div class = numbers>5</div></div></button><button id = button_6 class = ""square num-button"" onclick = ""recordClick(this)""><div class = content><div class = numbers>6</div></div></button><button id = button_7 class = ""square num-button"" onclick = ""recordClick(this)""><div class = content><div class = numbers>7</div></div></button><button id = button_8 class = ""square num-button"" onclick = ""recordClick(this)""><div class = content><div class = numbers>8</div></div></button><button id = button_9 class = ""square num-button"" onclick = ""recordClick(this)""><div class = content><div class = numbers>9</div></div></button><button class = clear_button id = ""ClearButton"" onclick = ""clearResponse()"">Clear</button><p><u><b>Current Answer:</b></u></p><div id=echoed_txt style=""font-size: 6rem; color:blue;""><b></b></div></div><br><br><br><br><br><br><br>",enter,fwdspan,response,Xpvw49HsGON6bVJwv3rlUS4dOEX2,html-keyboard-response,113,494048,0.0-7.0-2.9-0.9-3.9,6.0,"[1,6,9,8,4,3]","[1,6,4,8,3,7]",0.0,"[3, 4, 4, 5, 6, 6, 7, 7, 6, 6, 5, 6]",,632b1b35331d4efbfb0d0f8d,11:19:58 AM,1/15/2024
,,,fwdspan,update_span,Xpvw49HsGON6bVJwv3rlUS4dOEX2,call-function,114,494316,0.0-7.0-2.9-0.9-4.9,,,,,,,632b1b35331d4efbfb0d0f8d,11:19:58 AM,1/15/2024
2073.600000023842,"<p style=""font-size:3rem"">Trial 11 of 12</p><br><br><br>",0,fwdspan,start_trial,Xpvw49HsGON6bVJwv3rlUS4dOEX2,html-button-response,115,496390,0.0-7.0-2.10-0.10-0.10,,,,,,,632b1b35331d4efbfb0d0f8d,11:19:58 AM,1/15/2024
,"<p style=""font-size:14rem;font-weight:400;"">2</p>",,fwdspan,number,Xpvw49HsGON6bVJwv3rlUS4dOEX2,html-keyboard-response,116,497402,0.0-7.0-2.10-0.10-1.54-0.54,,,,,,,632b1b35331d4efbfb0d0f8d,11:19:58 AM,1/15/2024
,"<p style=""font-size:14rem;font-weight:400;"">4</p>",,fwdspan,number,Xpvw49HsGON6bVJwv3rlUS4dOEX2,html-keyboard-response,117,498425,0.0-7.0-2.10-0.10-1.55-0.55,,,,,,,632b1b35331d4efbfb0d0f8d,11:19:58 AM,1/15/2024
,"<p style=""font-size:14rem;font-weight:400;"">3</p>",,fwdspan,number,Xpvw49HsGON6bVJwv3rlUS4dOEX2,html-keyboard-response,118,499433,0.0-7.0-2.10-0.10-1.56-0.56,,,,,,,632b1b35331d4efbfb0d0f8d,11:19:58 AM,1/15/2024
,"<p style=""font-size:14rem;font-weight:400;"">7</p>",,fwdspan,number,Xpvw49HsGON6bVJwv3rlUS4dOEX2,html-keyboard-response,119,500456,0.0-7.0-2.10-0.10-1.57-0.57,,,,,,,632b1b35331d4efbfb0d0f8d,11:19:58 AM,1/15/2024
,"<p style=""font-size:14rem;font-weight:400;"">6</p>",,fwdspan,number,Xpvw49HsGON6bVJwv3rlUS4dOEX2,html-keyboard-response,120,501477,0.0-7.0-2.10-0.10-1.58-0.58,,,,,,,632b1b35331d4efbfb0d0f8d,11:19:58 AM,1/15/2024
,[],,fwdspan,delay,Xpvw49HsGON6bVJwv3rlUS4dOEX2,html-keyboard-response,121,502040,0.0-7.0-2.10-0.10-2.10,,,,,,,632b1b35331d4efbfb0d0f8d,11:19:58 AM,1/15/2024
3864.199999988079,"<div class = numbox><p style=""font-size:2.5rem"">What were the numbers <b>in order</b>?<br>(When you are ready to lock in your answer, press <b>ENTER</b>)</p><button id = button_1 class = ""square num-button"" onclick = ""recordClick(this)""><div class = content><div class = numbers>1</div></div></button><button id = button_2 class = ""square num-button"" onclick = ""recordClick(this)""><div class = content><div class = numbers>2</div></div></button><button id = button_3 class = ""square num-button"" onclick = ""recordClick(this)""><div class = content><div class = numbers>3</div></div></button><button id = button_4 class = ""square num-button"" onclick = ""recordClick(this)""><div class = content><div class = numbers>4</div></div></button><button id = button_5 class = ""square num-button"" onclick = ""recordClick(this)""><div class = content><div class = numbers>5</div></div></button><button id = button_6 class = ""square num-button"" onclick = ""recordClick(this)""><div class = content><div class = numbers>6</div></div></button><button id = button_7 class = ""square num-button"" onclick = ""recordClick(this)""><div class = content><div class = numbers>7</div></div></button><button id = button_8 class = ""square num-button"" onclick = ""recordClick(this)""><div class = content><div class = numbers>8</div></div></button><button id = button_9 class = ""square num-button"" onclick = ""recordClick(this)""><div class = content><div class = numbers>9</div></div></button><button class = clear_button id = ""ClearButton"" onclick = ""clearResponse()"">Clear</button><p><u><b>Current Answer:</b></u></p><div id=echoed_txt style=""font-size: 6rem; color:blue;""><b></b></div></div><br><br><br><br><br><br><br>",enter,fwdspan,response,Xpvw49HsGON6bVJwv3rlUS4dOEX2,html-keyboard-response,122,505906,0.0-7.0-2.10-0.10-3.10,5.0,"[2,4,3,7,6]","[2,4,3,7,6]",1.0,"[3, 4, 4, 5, 6, 6, 7, 7, 6, 6, 5, 6]",,632b1b35331d4efbfb0d0f8d,11:19:58 AM,1/15/2024
,,,fwdspan,update_span,Xpvw49HsGON6bVJwv3rlUS4dOEX2,call-function,123,506172,0.0-7.0-2.10-0.10-4.10,,,,,,,632b1b35331d4efbfb0d0f8d,11:19:58 AM,1/15/2024
1175.5,"<p style=""font-size:3rem"">Trial 12 of 12</p><br><br><br>",0,fwdspan,start_trial,Xpvw49HsGON6bVJwv3rlUS4dOEX2,html-button-response,124,507349,0.0-7.0-2.11-0.11-0.11,,,,,,,632b1b35331d4efbfb0d0f8d,11:19:58 AM,1/15/2024
,"<p style=""font-size:14rem;font-weight:400;"">5</p>",,fwdspan,number,Xpvw49HsGON6bVJwv3rlUS4dOEX2,html-keyboard-response,125,508364,0.0-7.0-2.11-0.11-1.59-0.59,,,,,,,632b1b35331d4efbfb0d0f8d,11:19:58 AM,1/15/2024
,"<p style=""font-size:14rem;font-weight:400;"">6</p>",,fwdspan,number,Xpvw49HsGON6bVJwv3rlUS4dOEX2,html-keyboard-response,126,509378,0.0-7.0-2.11-0.11-1.60-0.60,,,,,,,632b1b35331d4efbfb0d0f8d,11:19:58 AM,1/15/2024
,"<p style=""font-size:14rem;font-weight:400;"">9</p>",,fwdspan,number,Xpvw49HsGON6bVJwv3rlUS4dOEX2,html-keyboard-response,127,510395,0.0-7.0-2.11-0.11-1.61-0.61,,,,,,,632b1b35331d4efbfb0d0f8d,11:19:58 AM,1/15/2024
,"<p style=""font-size:14rem;font-weight:400;"">8</p>",,fwdspan,number,Xpvw49HsGON6bVJwv3rlUS4dOEX2,html-keyboard-response,128,511411,0.0-7.0-2.11-0.11-1.62-0.62,,,,,,,632b1b35331d4efbfb0d0f8d,11:19:58 AM,1/15/2024
,"<p style=""font-size:14rem;font-weight:400;"">2</p>",,fwdspan,number,Xpvw49HsGON6bVJwv3rlUS4dOEX2,html-keyboard-response,129,512437,0.0-7.0-2.11-0.11-1.63-0.63,,,,,,,632b1b35331d4efbfb0d0f8d,11:19:58 AM,1/15/2024
,"<p style=""font-size:14rem;font-weight:400;"">4</p>",,fwdspan,number,Xpvw49HsGON6bVJwv3rlUS4dOEX2,html-keyboard-response,130,513466,0.0-7.0-2.11-0.11-1.64-0.64,,,,,,,632b1b35331d4efbfb0d0f8d,11:19:58 AM,1/15/2024
,[],,fwdspan,delay,Xpvw49HsGON6bVJwv3rlUS4dOEX2,html-keyboard-response,131,514028,0.0-7.0-2.11-0.11-2.11,,,,,,,632b1b35331d4efbfb0d0f8d,11:19:58 AM,1/15/2024
4260.099999964237,"<div class = numbox><p style=""font-size:2.5rem"">What were the numbers <b>in order</b>?<br>(When you are ready to lock in your answer, press <b>ENTER</b>)</p><button id = button_1 class = ""square num-button"" onclick = ""recordClick(this)""><div class = content><div class = numbers>1</div></div></button><button id = button_2 class = ""square num-button"" onclick = ""recordClick(this)""><div class = content><div class = numbers>2</div></div></button><button id = button_3 class = ""square num-button"" onclick = ""recordClick(this)""><div class = content><div class = numbers>3</div></div></button><button id = button_4 class = ""square num-button"" onclick = ""recordClick(this)""><div class = content><div class = numbers>4</div></div></button><button id = button_5 class = ""square num-button"" onclick = ""recordClick(this)""><div class = content><div class = numbers>5</div></div></button><button id = button_6 class = ""square num-button"" onclick = ""recordClick(this)""><div class = content><div class = numbers>6</div></div></button><button id = button_7 class = ""square num-button"" onclick = ""recordClick(this)""><div class = content><div class = numbers>7</div></div></button><button id = button_8 class = ""square num-button"" onclick = ""recordClick(this)""><div class = content><div class = numbers>8</div></div></button><button id = button_9 class = ""square num-button"" onclick = ""recordClick(this)""><div class = content><div class = numbers>9</div></div></button><button class = clear_button id = ""ClearButton"" onclick = ""clearResponse()"">Clear</button><p><u><b>Current Answer:</b></u></p><div id=echoed_txt style=""font-size: 6rem; color:blue;""><b></b></div></div><br><br><br><br><br><br><br>",enter,fwdspan,response,Xpvw49HsGON6bVJwv3rlUS4dOEX2,html-keyboard-response,132,518289,0.0-7.0-2.11-0.11-3.11,6.0,"[5,6,9,8,2,4]","[5,6,9,8,2,4]",1.0,"[3, 4, 4, 5, 6, 6, 7, 7, 6, 6, 5, 6]",,632b1b35331d4efbfb0d0f8d,11:19:58 AM,1/15/2024
,,,fwdspan,update_span,Xpvw49HsGON6bVJwv3rlUS4dOEX2,call-function,133,518553,0.0-7.0-2.11-0.11-4.11,,,,,,,632b1b35331d4efbfb0d0f8d,11:19:58 AM,1/15/2024
20733.299999952316,,{'Q0': 'Yes I enjoyed this task very much the instructions was very clear'},fwdspan,survey,Xpvw49HsGON6bVJwv3rlUS4dOEX2,lmdlab-survey-text,134,540041,0.0-7.0-3.0,,,,,,Xpvw49HsGON6bVJwv3rlUS4dOEX2,632b1b35331d4efbfb0d0f8d,11:19:58 AM,1/15/2024
1216.0,<p><p style='font-size: 3rem'>Great work!<br><br>This completes the digit span task.</p><br><br><br>,0,fwdspan,finish,Xpvw49HsGON6bVJwv3rlUS4dOEX2,html-button-response,135,541259,0.0-7.0-4.0,,,,,,,632b1b35331d4efbfb0d0f8d,11:19:58 AM,1/15/2024
