rt,stimulus,response,exp_name,exp_stage,subjectID,trial_type,trial_index,time_elapsed,internal_node_id,span,answer,correct,correct_full,span_history,databaseID,prolificID,start_time,date
8875.400000002235,"<p style=""font-size:4rem""><br><br>In the next part today, we have a completely different short task.<br><br><br>This part involves keeping numbers in you mind. Participation takes around 5 minutes.<br><br><br></p>",0,fwdspan,instruct,cWJJT5jlaWgkzz7nKCAnvC3fuLs1,html-button-response,19,437876,0.0-7.0-0.0,,,,,,,574b5c065bef98000eaf8bc3,13:54:42,15/01/2024
15726.800000000745,"<p style=""font-size:5rem"">Welcome to the <b>digit span task</b>!<br><br></p><p style=""font-size:3.4rem""><br>On each trial, you will see a sequence of digits, followed by a delay.</p><p style=""font-size:3.4rem""><br>Then you will be asked to type them back in the same order in which they were seen.</p><p style=""font-size:3.4rem""><br><br><br>For example, if you saw the digits <b style=""color:blue;"">1</b>, <b style=""color:blue;"">2</b>, <b style=""color:blue;"">3</b>, you would respond with <b style=""color:blue;"">1</b>, <b style=""color:blue;"">2</b>, <b style=""color:blue;"">3</b></p><p style=""font-size:3.4rem""><br><br><br>To ensure the best measure of true performance for our study,<br><br>it is very important that you do not use any memory aid (e.g., pen and paper).<br><br>Please do the task solely in your head.</p><p style=""font-size:3.4rem""><br><br><br>There will be 12 total trials. Participation takes around 5 minutes.</p><br><br><br>",0,fwdspan,instruct,cWJJT5jlaWgkzz7nKCAnvC3fuLs1,html-button-response,20,453604,0.0-7.0-1.0,,,,,,,574b5c065bef98000eaf8bc3,13:54:42,15/01/2024
1182.6000000014901,"<p style=""font-size:3rem"">Trial 1 of 12</p><br><br><br>",0,fwdspan,start_trial,cWJJT5jlaWgkzz7nKCAnvC3fuLs1,html-button-response,21,454788,0.0-7.0-2.0-0.0-0.0,,,,,,,574b5c065bef98000eaf8bc3,13:54:42,15/01/2024
,"<p style=""font-size:14rem;font-weight:400;"">4</p>",,fwdspan,number,cWJJT5jlaWgkzz7nKCAnvC3fuLs1,html-keyboard-response,22,455803,0.0-7.0-2.0-0.0-1.0-0.0,,,,,,,574b5c065bef98000eaf8bc3,13:54:42,15/01/2024
,"<p style=""font-size:14rem;font-weight:400;"">5</p>",,fwdspan,number,cWJJT5jlaWgkzz7nKCAnvC3fuLs1,html-keyboard-response,23,456831,0.0-7.0-2.0-0.0-1.1-0.1,,,,,,,574b5c065bef98000eaf8bc3,13:54:42,15/01/2024
,"<p style=""font-size:14rem;font-weight:400;"">9</p>",,fwdspan,number,cWJJT5jlaWgkzz7nKCAnvC3fuLs1,html-keyboard-response,24,457849,0.0-7.0-2.0-0.0-1.2-0.2,,,,,,,574b5c065bef98000eaf8bc3,13:54:42,15/01/2024
,[],,fwdspan,delay,cWJJT5jlaWgkzz7nKCAnvC3fuLs1,html-keyboard-response,25,458416,0.0-7.0-2.0-0.0-2.0,,,,,,,574b5c065bef98000eaf8bc3,13:54:42,15/01/2024
6448.29999999702,"<div class = numbox><p style=""font-size:2.5rem"">What were the numbers <b>in order</b>?<br>(When you are ready to lock in your answer, press <b>ENTER</b>)</p><button id = button_1 class = ""square num-button"" onclick = ""recordClick(this)""><div class = content><div class = numbers>1</div></div></button><button id = button_2 class = ""square num-button"" onclick = ""recordClick(this)""><div class = content><div class = numbers>2</div></div></button><button id = button_3 class = ""square num-button"" onclick = ""recordClick(this)""><div class = content><div class = numbers>3</div></div></button><button id = button_4 class = ""square num-button"" onclick = ""recordClick(this)""><div class = content><div class = numbers>4</div></div></button><button id = button_5 class = ""square num-button"" onclick = ""recordClick(this)""><div class = content><div class = numbers>5</div></div></button><button id = button_6 class = ""square num-button"" onclick = ""recordClick(this)""><div class = content><div class = numbers>6</div></div></button><button id = button_7 class = ""square num-button"" onclick = ""recordClick(this)""><div class = content><div class = numbers>7</div></div></button><button id = button_8 class = ""square num-button"" onclick = ""recordClick(this)""><div class = content><div class = numbers>8</div></div></button><button id = button_9 class = ""square num-button"" onclick = ""recordClick(this)""><div class = content><div class = numbers>9</div></div></button><button class = clear_button id = ""ClearButton"" onclick = ""clearResponse()"">Clear</button><p><u><b>Current Answer:</b></u></p><div id=echoed_txt style=""font-size: 6rem; color:blue;""><b></b></div></div><br><br><br><br><br><br><br>",enter,fwdspan,response,cWJJT5jlaWgkzz7nKCAnvC3fuLs1,html-keyboard-response,26,464865,0.0-7.0-2.0-0.0-3.0,3.0,"[4,5,9]","[4,5,9]",1.0,"[3, 4, 5, 6, 6, 5, 6, 6, 7, 7, 6, 6]",,574b5c065bef98000eaf8bc3,13:54:42,15/01/2024
,,,fwdspan,update_span,cWJJT5jlaWgkzz7nKCAnvC3fuLs1,call-function,27,465132,0.0-7.0-2.0-0.0-4.0,,,,,,,574b5c065bef98000eaf8bc3,13:54:42,15/01/2024
1899.5,"<p style=""font-size:3rem"">Trial 2 of 12</p><br><br><br>",0,fwdspan,start_trial,cWJJT5jlaWgkzz7nKCAnvC3fuLs1,html-button-response,28,467032,0.0-7.0-2.1-0.1-0.1,,,,,,,574b5c065bef98000eaf8bc3,13:54:42,15/01/2024
,"<p style=""font-size:14rem;font-weight:400;"">8</p>",,fwdspan,number,cWJJT5jlaWgkzz7nKCAnvC3fuLs1,html-keyboard-response,29,468050,0.0-7.0-2.1-0.1-1.3-0.3,,,,,,,574b5c065bef98000eaf8bc3,13:54:42,15/01/2024
,"<p style=""font-size:14rem;font-weight:400;"">4</p>",,fwdspan,number,cWJJT5jlaWgkzz7nKCAnvC3fuLs1,html-keyboard-response,30,469063,0.0-7.0-2.1-0.1-1.4-0.4,,,,,,,574b5c065bef98000eaf8bc3,13:54:42,15/01/2024
,"<p style=""font-size:14rem;font-weight:400;"">3</p>",,fwdspan,number,cWJJT5jlaWgkzz7nKCAnvC3fuLs1,html-keyboard-response,31,470091,0.0-7.0-2.1-0.1-1.5-0.5,,,,,,,574b5c065bef98000eaf8bc3,13:54:42,15/01/2024
,"<p style=""font-size:14rem;font-weight:400;"">2</p>",,fwdspan,number,cWJJT5jlaWgkzz7nKCAnvC3fuLs1,html-keyboard-response,32,471117,0.0-7.0-2.1-0.1-1.6-0.6,,,,,,,574b5c065bef98000eaf8bc3,13:54:42,15/01/2024
,[],,fwdspan,delay,cWJJT5jlaWgkzz7nKCAnvC3fuLs1,html-keyboard-response,33,471692,0.0-7.0-2.1-0.1-2.1,,,,,,,574b5c065bef98000eaf8bc3,13:54:42,15/01/2024
4259.199999999255,"<div class = numbox><p style=""font-size:2.5rem"">What were the numbers <b>in order</b>?<br>(When you are ready to lock in your answer, press <b>ENTER</b>)</p><button id = button_1 class = ""square num-button"" onclick = ""recordClick(this)""><div class = content><div class = numbers>1</div></div></button><button id = button_2 class = ""square num-button"" onclick = ""recordClick(this)""><div class = content><div class = numbers>2</div></div></button><button id = button_3 class = ""square num-button"" onclick = ""recordClick(this)""><div class = content><div class = numbers>3</div></div></button><button id = button_4 class = ""square num-button"" onclick = ""recordClick(this)""><div class = content><div class = numbers>4</div></div></button><button id = button_5 class = ""square num-button"" onclick = ""recordClick(this)""><div class = content><div class = numbers>5</div></div></button><button id = button_6 class = ""square num-button"" onclick = ""recordClick(this)""><div class = content><div class = numbers>6</div></div></button><button id = button_7 class = ""square num-button"" onclick = ""recordClick(this)""><div class = content><div class = numbers>7</div></div></button><button id = button_8 class = ""square num-button"" onclick = ""recordClick(this)""><div class = content><div class = numbers>8</div></div></button><button id = button_9 class = ""square num-button"" onclick = ""recordClick(this)""><div class = content><div class = numbers>9</div></div></button><button class = clear_button id = ""ClearButton"" onclick = ""clearResponse()"">Clear</button><p><u><b>Current Answer:</b></u></p><div id=echoed_txt style=""font-size: 6rem; color:blue;""><b></b></div></div><br><br><br><br><br><br><br>",enter,fwdspan,response,cWJJT5jlaWgkzz7nKCAnvC3fuLs1,html-keyboard-response,34,475952,0.0-7.0-2.1-0.1-3.1,4.0,"[8,4,3,2]","[8,4,3,2]",1.0,"[3, 4, 5, 6, 6, 5, 6, 6, 7, 7, 6, 6]",,574b5c065bef98000eaf8bc3,13:54:42,15/01/2024
,,,fwdspan,update_span,cWJJT5jlaWgkzz7nKCAnvC3fuLs1,call-function,35,476205,0.0-7.0-2.1-0.1-4.1,,,,,,,574b5c065bef98000eaf8bc3,13:54:42,15/01/2024
1233.4000000022352,"<p style=""font-size:3rem"">Trial 3 of 12</p><br><br><br>",0,fwdspan,start_trial,cWJJT5jlaWgkzz7nKCAnvC3fuLs1,html-button-response,36,477439,0.0-7.0-2.2-0.2-0.2,,,,,,,574b5c065bef98000eaf8bc3,13:54:42,15/01/2024
,"<p style=""font-size:14rem;font-weight:400;"">7</p>",,fwdspan,number,cWJJT5jlaWgkzz7nKCAnvC3fuLs1,html-keyboard-response,37,478460,0.0-7.0-2.2-0.2-1.7-0.7,,,,,,,574b5c065bef98000eaf8bc3,13:54:42,15/01/2024
,"<p style=""font-size:14rem;font-weight:400;"">2</p>",,fwdspan,number,cWJJT5jlaWgkzz7nKCAnvC3fuLs1,html-keyboard-response,38,479485,0.0-7.0-2.2-0.2-1.8-0.8,,,,,,,574b5c065bef98000eaf8bc3,13:54:42,15/01/2024
,"<p style=""font-size:14rem;font-weight:400;"">9</p>",,fwdspan,number,cWJJT5jlaWgkzz7nKCAnvC3fuLs1,html-keyboard-response,39,480511,0.0-7.0-2.2-0.2-1.9-0.9,,,,,,,574b5c065bef98000eaf8bc3,13:54:42,15/01/2024
,"<p style=""font-size:14rem;font-weight:400;"">6</p>",,fwdspan,number,cWJJT5jlaWgkzz7nKCAnvC3fuLs1,html-keyboard-response,40,481537,0.0-7.0-2.2-0.2-1.10-0.10,,,,,,,574b5c065bef98000eaf8bc3,13:54:42,15/01/2024
,"<p style=""font-size:14rem;font-weight:400;"">4</p>",,fwdspan,number,cWJJT5jlaWgkzz7nKCAnvC3fuLs1,html-keyboard-response,41,482561,0.0-7.0-2.2-0.2-1.11-0.11,,,,,,,574b5c065bef98000eaf8bc3,13:54:42,15/01/2024
,[],,fwdspan,delay,cWJJT5jlaWgkzz7nKCAnvC3fuLs1,html-keyboard-response,42,483137,0.0-7.0-2.2-0.2-2.2,,,,,,,574b5c065bef98000eaf8bc3,13:54:42,15/01/2024
4973.39999999851,"<div class = numbox><p style=""font-size:2.5rem"">What were the numbers <b>in order</b>?<br>(When you are ready to lock in your answer, press <b>ENTER</b>)</p><button id = button_1 class = ""square num-button"" onclick = ""recordClick(this)""><div class = content><div class = numbers>1</div></div></button><button id = button_2 class = ""square num-button"" onclick = ""recordClick(this)""><div class = content><div class = numbers>2</div></div></button><button id = button_3 class = ""square num-button"" onclick = ""recordClick(this)""><div class = content><div class = numbers>3</div></div></button><button id = button_4 class = ""square num-button"" onclick = ""recordClick(this)""><div class = content><div class = numbers>4</div></div></button><button id = button_5 class = ""square num-button"" onclick = ""recordClick(this)""><div class = content><div class = numbers>5</div></div></button><button id = button_6 class = ""square num-button"" onclick = ""recordClick(this)""><div class = content><div class = numbers>6</div></div></button><button id = button_7 class = ""square num-button"" onclick = ""recordClick(this)""><div class = content><div class = numbers>7</div></div></button><button id = button_8 class = ""square num-button"" onclick = ""recordClick(this)""><div class = content><div class = numbers>8</div></div></button><button id = button_9 class = ""square num-button"" onclick = ""recordClick(this)""><div class = content><div class = numbers>9</div></div></button><button class = clear_button id = ""ClearButton"" onclick = ""clearResponse()"">Clear</button><p><u><b>Current Answer:</b></u></p><div id=echoed_txt style=""font-size: 6rem; color:blue;""><b></b></div></div><br><br><br><br><br><br><br>",enter,fwdspan,response,cWJJT5jlaWgkzz7nKCAnvC3fuLs1,html-keyboard-response,43,488111,0.0-7.0-2.2-0.2-3.2,5.0,"[7,2,9,6,4]","[7,2,9,6,4]",1.0,"[3, 4, 5, 6, 6, 5, 6, 6, 7, 7, 6, 6]",,574b5c065bef98000eaf8bc3,13:54:42,15/01/2024
,,,fwdspan,update_span,cWJJT5jlaWgkzz7nKCAnvC3fuLs1,call-function,44,488373,0.0-7.0-2.2-0.2-4.2,,,,,,,574b5c065bef98000eaf8bc3,13:54:42,15/01/2024
1310.300000000745,"<p style=""font-size:3rem"">Trial 4 of 12</p><br><br><br>",0,fwdspan,start_trial,cWJJT5jlaWgkzz7nKCAnvC3fuLs1,html-button-response,45,489684,0.0-7.0-2.3-0.3-0.3,,,,,,,574b5c065bef98000eaf8bc3,13:54:42,15/01/2024
,"<p style=""font-size:14rem;font-weight:400;"">4</p>",,fwdspan,number,cWJJT5jlaWgkzz7nKCAnvC3fuLs1,html-keyboard-response,46,490689,0.0-7.0-2.3-0.3-1.12-0.12,,,,,,,574b5c065bef98000eaf8bc3,13:54:42,15/01/2024
,"<p style=""font-size:14rem;font-weight:400;"">3</p>",,fwdspan,number,cWJJT5jlaWgkzz7nKCAnvC3fuLs1,html-keyboard-response,47,491698,0.0-7.0-2.3-0.3-1.13-0.13,,,,,,,574b5c065bef98000eaf8bc3,13:54:42,15/01/2024
,"<p style=""font-size:14rem;font-weight:400;"">5</p>",,fwdspan,number,cWJJT5jlaWgkzz7nKCAnvC3fuLs1,html-keyboard-response,48,492719,0.0-7.0-2.3-0.3-1.14-0.14,,,,,,,574b5c065bef98000eaf8bc3,13:54:42,15/01/2024
,"<p style=""font-size:14rem;font-weight:400;"">6</p>",,fwdspan,number,cWJJT5jlaWgkzz7nKCAnvC3fuLs1,html-keyboard-response,49,493742,0.0-7.0-2.3-0.3-1.15-0.15,,,,,,,574b5c065bef98000eaf8bc3,13:54:42,15/01/2024
,"<p style=""font-size:14rem;font-weight:400;"">2</p>",,fwdspan,number,cWJJT5jlaWgkzz7nKCAnvC3fuLs1,html-keyboard-response,50,494763,0.0-7.0-2.3-0.3-1.16-0.16,,,,,,,574b5c065bef98000eaf8bc3,13:54:42,15/01/2024
,"<p style=""font-size:14rem;font-weight:400;"">7</p>",,fwdspan,number,cWJJT5jlaWgkzz7nKCAnvC3fuLs1,html-keyboard-response,51,495787,0.0-7.0-2.3-0.3-1.17-0.17,,,,,,,574b5c065bef98000eaf8bc3,13:54:42,15/01/2024
,[],,fwdspan,delay,cWJJT5jlaWgkzz7nKCAnvC3fuLs1,html-keyboard-response,52,496364,0.0-7.0-2.3-0.3-2.3,,,,,,,574b5c065bef98000eaf8bc3,13:54:42,15/01/2024
7131.0,"<div class = numbox><p style=""font-size:2.5rem"">What were the numbers <b>in order</b>?<br>(When you are ready to lock in your answer, press <b>ENTER</b>)</p><button id = button_1 class = ""square num-button"" onclick = ""recordClick(this)""><div class = content><div class = numbers>1</div></div></button><button id = button_2 class = ""square num-button"" onclick = ""recordClick(this)""><div class = content><div class = numbers>2</div></div></button><button id = button_3 class = ""square num-button"" onclick = ""recordClick(this)""><div class = content><div class = numbers>3</div></div></button><button id = button_4 class = ""square num-button"" onclick = ""recordClick(this)""><div class = content><div class = numbers>4</div></div></button><button id = button_5 class = ""square num-button"" onclick = ""recordClick(this)""><div class = content><div class = numbers>5</div></div></button><button id = button_6 class = ""square num-button"" onclick = ""recordClick(this)""><div class = content><div class = numbers>6</div></div></button><button id = button_7 class = ""square num-button"" onclick = ""recordClick(this)""><div class = content><div class = numbers>7</div></div></button><button id = button_8 class = ""square num-button"" onclick = ""recordClick(this)""><div class = content><div class = numbers>8</div></div></button><button id = button_9 class = ""square num-button"" onclick = ""recordClick(this)""><div class = content><div class = numbers>9</div></div></button><button class = clear_button id = ""ClearButton"" onclick = ""clearResponse()"">Clear</button><p><u><b>Current Answer:</b></u></p><div id=echoed_txt style=""font-size: 6rem; color:blue;""><b></b></div></div><br><br><br><br><br><br><br>",enter,fwdspan,response,cWJJT5jlaWgkzz7nKCAnvC3fuLs1,html-keyboard-response,53,503496,0.0-7.0-2.3-0.3-3.3,6.0,"[4,3,6,2,5,7]","[4,3,5,6,2,7]",0.0,"[3, 4, 5, 6, 6, 5, 6, 6, 7, 7, 6, 6]",,574b5c065bef98000eaf8bc3,13:54:42,15/01/2024
,,,fwdspan,update_span,cWJJT5jlaWgkzz7nKCAnvC3fuLs1,call-function,54,503754,0.0-7.0-2.3-0.3-4.3,,,,,,,574b5c065bef98000eaf8bc3,13:54:42,15/01/2024
1500.5999999977648,"<p style=""font-size:3rem"">Trial 5 of 12</p><br><br><br>",0,fwdspan,start_trial,cWJJT5jlaWgkzz7nKCAnvC3fuLs1,html-button-response,55,505255,0.0-7.0-2.4-0.4-0.4,,,,,,,574b5c065bef98000eaf8bc3,13:54:42,15/01/2024
,"<p style=""font-size:14rem;font-weight:400;"">7</p>",,fwdspan,number,cWJJT5jlaWgkzz7nKCAnvC3fuLs1,html-keyboard-response,56,506260,0.0-7.0-2.4-0.4-1.18-0.18,,,,,,,574b5c065bef98000eaf8bc3,13:54:42,15/01/2024
,"<p style=""font-size:14rem;font-weight:400;"">8</p>",,fwdspan,number,cWJJT5jlaWgkzz7nKCAnvC3fuLs1,html-keyboard-response,57,507285,0.0-7.0-2.4-0.4-1.19-0.19,,,,,,,574b5c065bef98000eaf8bc3,13:54:42,15/01/2024
,"<p style=""font-size:14rem;font-weight:400;"">9</p>",,fwdspan,number,cWJJT5jlaWgkzz7nKCAnvC3fuLs1,html-keyboard-response,58,508298,0.0-7.0-2.4-0.4-1.20-0.20,,,,,,,574b5c065bef98000eaf8bc3,13:54:42,15/01/2024
,"<p style=""font-size:14rem;font-weight:400;"">2</p>",,fwdspan,number,cWJJT5jlaWgkzz7nKCAnvC3fuLs1,html-keyboard-response,59,509325,0.0-7.0-2.4-0.4-1.21-0.21,,,,,,,574b5c065bef98000eaf8bc3,13:54:42,15/01/2024
,"<p style=""font-size:14rem;font-weight:400;"">1</p>",,fwdspan,number,cWJJT5jlaWgkzz7nKCAnvC3fuLs1,html-keyboard-response,60,510347,0.0-7.0-2.4-0.4-1.22-0.22,,,,,,,574b5c065bef98000eaf8bc3,13:54:42,15/01/2024
,"<p style=""font-size:14rem;font-weight:400;"">6</p>",,fwdspan,number,cWJJT5jlaWgkzz7nKCAnvC3fuLs1,html-keyboard-response,61,511373,0.0-7.0-2.4-0.4-1.23-0.23,,,,,,,574b5c065bef98000eaf8bc3,13:54:42,15/01/2024
,[],,fwdspan,delay,cWJJT5jlaWgkzz7nKCAnvC3fuLs1,html-keyboard-response,62,511949,0.0-7.0-2.4-0.4-2.4,,,,,,,574b5c065bef98000eaf8bc3,13:54:42,15/01/2024
5986.0,"<div class = numbox><p style=""font-size:2.5rem"">What were the numbers <b>in order</b>?<br>(When you are ready to lock in your answer, press <b>ENTER</b>)</p><button id = button_1 class = ""square num-button"" onclick = ""recordClick(this)""><div class = content><div class = numbers>1</div></div></button><button id = button_2 class = ""square num-button"" onclick = ""recordClick(this)""><div class = content><div class = numbers>2</div></div></button><button id = button_3 class = ""square num-button"" onclick = ""recordClick(this)""><div class = content><div class = numbers>3</div></div></button><button id = button_4 class = ""square num-button"" onclick = ""recordClick(this)""><div class = content><div class = numbers>4</div></div></button><button id = button_5 class = ""square num-button"" onclick = ""recordClick(this)""><div class = content><div class = numbers>5</div></div></button><button id = button_6 class = ""square num-button"" onclick = ""recordClick(this)""><div class = content><div class = numbers>6</div></div></button><button id = button_7 class = ""square num-button"" onclick = ""recordClick(this)""><div class = content><div class = numbers>7</div></div></button><button id = button_8 class = ""square num-button"" onclick = ""recordClick(this)""><div class = content><div class = numbers>8</div></div></button><button id = button_9 class = ""square num-button"" onclick = ""recordClick(this)""><div class = content><div class = numbers>9</div></div></button><button class = clear_button id = ""ClearButton"" onclick = ""clearResponse()"">Clear</button><p><u><b>Current Answer:</b></u></p><div id=echoed_txt style=""font-size: 6rem; color:blue;""><b></b></div></div><br><br><br><br><br><br><br>",enter,fwdspan,response,cWJJT5jlaWgkzz7nKCAnvC3fuLs1,html-keyboard-response,63,517936,0.0-7.0-2.4-0.4-3.4,6.0,"[7,8,9,2,6,1]","[7,8,9,2,1,6]",0.0,"[3, 4, 5, 6, 6, 5, 6, 6, 7, 7, 6, 6]",,574b5c065bef98000eaf8bc3,13:54:42,15/01/2024
,,,fwdspan,update_span,cWJJT5jlaWgkzz7nKCAnvC3fuLs1,call-function,64,518198,0.0-7.0-2.4-0.4-4.4,,,,,,,574b5c065bef98000eaf8bc3,13:54:42,15/01/2024
1460.5,"<p style=""font-size:3rem"">Trial 6 of 12</p><br><br><br>",0,fwdspan,start_trial,cWJJT5jlaWgkzz7nKCAnvC3fuLs1,html-button-response,65,519659,0.0-7.0-2.5-0.5-0.5,,,,,,,574b5c065bef98000eaf8bc3,13:54:42,15/01/2024
,"<p style=""font-size:14rem;font-weight:400;"">1</p>",,fwdspan,number,cWJJT5jlaWgkzz7nKCAnvC3fuLs1,html-keyboard-response,66,520673,0.0-7.0-2.5-0.5-1.24-0.24,,,,,,,574b5c065bef98000eaf8bc3,13:54:42,15/01/2024
,"<p style=""font-size:14rem;font-weight:400;"">6</p>",,fwdspan,number,cWJJT5jlaWgkzz7nKCAnvC3fuLs1,html-keyboard-response,67,521700,0.0-7.0-2.5-0.5-1.25-0.25,,,,,,,574b5c065bef98000eaf8bc3,13:54:42,15/01/2024
,"<p style=""font-size:14rem;font-weight:400;"">4</p>",,fwdspan,number,cWJJT5jlaWgkzz7nKCAnvC3fuLs1,html-keyboard-response,68,522724,0.0-7.0-2.5-0.5-1.26-0.26,,,,,,,574b5c065bef98000eaf8bc3,13:54:42,15/01/2024
,"<p style=""font-size:14rem;font-weight:400;"">5</p>",,fwdspan,number,cWJJT5jlaWgkzz7nKCAnvC3fuLs1,html-keyboard-response,69,523750,0.0-7.0-2.5-0.5-1.27-0.27,,,,,,,574b5c065bef98000eaf8bc3,13:54:42,15/01/2024
,"<p style=""font-size:14rem;font-weight:400;"">7</p>",,fwdspan,number,cWJJT5jlaWgkzz7nKCAnvC3fuLs1,html-keyboard-response,70,524776,0.0-7.0-2.5-0.5-1.28-0.28,,,,,,,574b5c065bef98000eaf8bc3,13:54:42,15/01/2024
,[],,fwdspan,delay,cWJJT5jlaWgkzz7nKCAnvC3fuLs1,html-keyboard-response,71,525352,0.0-7.0-2.5-0.5-2.5,,,,,,,574b5c065bef98000eaf8bc3,13:54:42,15/01/2024
5959.0,"<div class = numbox><p style=""font-size:2.5rem"">What were the numbers <b>in order</b>?<br>(When you are ready to lock in your answer, press <b>ENTER</b>)</p><button id = button_1 class = ""square num-button"" onclick = ""recordClick(this)""><div class = content><div class = numbers>1</div></div></button><button id = button_2 class = ""square num-button"" onclick = ""recordClick(this)""><div class = content><div class = numbers>2</div></div></button><button id = button_3 class = ""square num-button"" onclick = ""recordClick(this)""><div class = content><div class = numbers>3</div></div></button><button id = button_4 class = ""square num-button"" onclick = ""recordClick(this)""><div class = content><div class = numbers>4</div></div></button><button id = button_5 class = ""square num-button"" onclick = ""recordClick(this)""><div class = content><div class = numbers>5</div></div></button><button id = button_6 class = ""square num-button"" onclick = ""recordClick(this)""><div class = content><div class = numbers>6</div></div></button><button id = button_7 class = ""square num-button"" onclick = ""recordClick(this)""><div class = content><div class = numbers>7</div></div></button><button id = button_8 class = ""square num-button"" onclick = ""recordClick(this)""><div class = content><div class = numbers>8</div></div></button><button id = button_9 class = ""square num-button"" onclick = ""recordClick(this)""><div class = content><div class = numbers>9</div></div></button><button class = clear_button id = ""ClearButton"" onclick = ""clearResponse()"">Clear</button><p><u><b>Current Answer:</b></u></p><div id=echoed_txt style=""font-size: 6rem; color:blue;""><b></b></div></div><br><br><br><br><br><br><br>",enter,fwdspan,response,cWJJT5jlaWgkzz7nKCAnvC3fuLs1,html-keyboard-response,72,531312,0.0-7.0-2.5-0.5-3.5,5.0,"[1,6,4,5,7]","[1,6,4,5,7]",1.0,"[3, 4, 5, 6, 6, 5, 6, 6, 7, 7, 6, 6]",,574b5c065bef98000eaf8bc3,13:54:42,15/01/2024
,,,fwdspan,update_span,cWJJT5jlaWgkzz7nKCAnvC3fuLs1,call-function,73,531575,0.0-7.0-2.5-0.5-4.5,,,,,,,574b5c065bef98000eaf8bc3,13:54:42,15/01/2024
4724.099999997765,"<p style=""font-size:3rem"">Trial 7 of 12</p><br><br><br>",0,fwdspan,start_trial,cWJJT5jlaWgkzz7nKCAnvC3fuLs1,html-button-response,74,536300,0.0-7.0-2.6-0.6-0.6,,,,,,,574b5c065bef98000eaf8bc3,13:54:42,15/01/2024
,"<p style=""font-size:14rem;font-weight:400;"">4</p>",,fwdspan,number,cWJJT5jlaWgkzz7nKCAnvC3fuLs1,html-keyboard-response,75,537321,0.0-7.0-2.6-0.6-1.29-0.29,,,,,,,574b5c065bef98000eaf8bc3,13:54:42,15/01/2024
,"<p style=""font-size:14rem;font-weight:400;"">8</p>",,fwdspan,number,cWJJT5jlaWgkzz7nKCAnvC3fuLs1,html-keyboard-response,76,538344,0.0-7.0-2.6-0.6-1.30-0.30,,,,,,,574b5c065bef98000eaf8bc3,13:54:42,15/01/2024
,"<p style=""font-size:14rem;font-weight:400;"">6</p>",,fwdspan,number,cWJJT5jlaWgkzz7nKCAnvC3fuLs1,html-keyboard-response,77,539370,0.0-7.0-2.6-0.6-1.31-0.31,,,,,,,574b5c065bef98000eaf8bc3,13:54:42,15/01/2024
,"<p style=""font-size:14rem;font-weight:400;"">5</p>",,fwdspan,number,cWJJT5jlaWgkzz7nKCAnvC3fuLs1,html-keyboard-response,78,540396,0.0-7.0-2.6-0.6-1.32-0.32,,,,,,,574b5c065bef98000eaf8bc3,13:54:42,15/01/2024
,"<p style=""font-size:14rem;font-weight:400;"">7</p>",,fwdspan,number,cWJJT5jlaWgkzz7nKCAnvC3fuLs1,html-keyboard-response,79,541422,0.0-7.0-2.6-0.6-1.33-0.33,,,,,,,574b5c065bef98000eaf8bc3,13:54:42,15/01/2024
,"<p style=""font-size:14rem;font-weight:400;"">2</p>",,fwdspan,number,cWJJT5jlaWgkzz7nKCAnvC3fuLs1,html-keyboard-response,80,542449,0.0-7.0-2.6-0.6-1.34-0.34,,,,,,,574b5c065bef98000eaf8bc3,13:54:42,15/01/2024
,[],,fwdspan,delay,cWJJT5jlaWgkzz7nKCAnvC3fuLs1,html-keyboard-response,81,543022,0.0-7.0-2.6-0.6-2.6,,,,,,,574b5c065bef98000eaf8bc3,13:54:42,15/01/2024
5169.0,"<div class = numbox><p style=""font-size:2.5rem"">What were the numbers <b>in order</b>?<br>(When you are ready to lock in your answer, press <b>ENTER</b>)</p><button id = button_1 class = ""square num-button"" onclick = ""recordClick(this)""><div class = content><div class = numbers>1</div></div></button><button id = button_2 class = ""square num-button"" onclick = ""recordClick(this)""><div class = content><div class = numbers>2</div></div></button><button id = button_3 class = ""square num-button"" onclick = ""recordClick(this)""><div class = content><div class = numbers>3</div></div></button><button id = button_4 class = ""square num-button"" onclick = ""recordClick(this)""><div class = content><div class = numbers>4</div></div></button><button id = button_5 class = ""square num-button"" onclick = ""recordClick(this)""><div class = content><div class = numbers>5</div></div></button><button id = button_6 class = ""square num-button"" onclick = ""recordClick(this)""><div class = content><div class = numbers>6</div></div></button><button id = button_7 class = ""square num-button"" onclick = ""recordClick(this)""><div class = content><div class = numbers>7</div></div></button><button id = button_8 class = ""square num-button"" onclick = ""recordClick(this)""><div class = content><div class = numbers>8</div></div></button><button id = button_9 class = ""square num-button"" onclick = ""recordClick(this)""><div class = content><div class = numbers>9</div></div></button><button class = clear_button id = ""ClearButton"" onclick = ""clearResponse()"">Clear</button><p><u><b>Current Answer:</b></u></p><div id=echoed_txt style=""font-size: 6rem; color:blue;""><b></b></div></div><br><br><br><br><br><br><br>",enter,fwdspan,response,cWJJT5jlaWgkzz7nKCAnvC3fuLs1,html-keyboard-response,82,548192,0.0-7.0-2.6-0.6-3.6,6.0,"[4,8,6,5,2,7]","[4,8,6,5,7,2]",0.0,"[3, 4, 5, 6, 6, 5, 6, 6, 7, 7, 6, 6]",,574b5c065bef98000eaf8bc3,13:54:42,15/01/2024
,,,fwdspan,update_span,cWJJT5jlaWgkzz7nKCAnvC3fuLs1,call-function,83,548455,0.0-7.0-2.6-0.6-4.6,,,,,,,574b5c065bef98000eaf8bc3,13:54:42,15/01/2024
1312.800000000745,"<p style=""font-size:3rem"">Trial 8 of 12</p><br><br><br>",0,fwdspan,start_trial,cWJJT5jlaWgkzz7nKCAnvC3fuLs1,html-button-response,84,549768,0.0-7.0-2.7-0.7-0.7,,,,,,,574b5c065bef98000eaf8bc3,13:54:42,15/01/2024
,"<p style=""font-size:14rem;font-weight:400;"">4</p>",,fwdspan,number,cWJJT5jlaWgkzz7nKCAnvC3fuLs1,html-keyboard-response,85,550770,0.0-7.0-2.7-0.7-1.35-0.35,,,,,,,574b5c065bef98000eaf8bc3,13:54:42,15/01/2024
,"<p style=""font-size:14rem;font-weight:400;"">8</p>",,fwdspan,number,cWJJT5jlaWgkzz7nKCAnvC3fuLs1,html-keyboard-response,86,551800,0.0-7.0-2.7-0.7-1.36-0.36,,,,,,,574b5c065bef98000eaf8bc3,13:54:42,15/01/2024
,"<p style=""font-size:14rem;font-weight:400;"">7</p>",,fwdspan,number,cWJJT5jlaWgkzz7nKCAnvC3fuLs1,html-keyboard-response,87,552823,0.0-7.0-2.7-0.7-1.37-0.37,,,,,,,574b5c065bef98000eaf8bc3,13:54:42,15/01/2024
,"<p style=""font-size:14rem;font-weight:400;"">9</p>",,fwdspan,number,cWJJT5jlaWgkzz7nKCAnvC3fuLs1,html-keyboard-response,88,553850,0.0-7.0-2.7-0.7-1.38-0.38,,,,,,,574b5c065bef98000eaf8bc3,13:54:42,15/01/2024
,"<p style=""font-size:14rem;font-weight:400;"">5</p>",,fwdspan,number,cWJJT5jlaWgkzz7nKCAnvC3fuLs1,html-keyboard-response,89,554874,0.0-7.0-2.7-0.7-1.39-0.39,,,,,,,574b5c065bef98000eaf8bc3,13:54:42,15/01/2024
,"<p style=""font-size:14rem;font-weight:400;"">3</p>",,fwdspan,number,cWJJT5jlaWgkzz7nKCAnvC3fuLs1,html-keyboard-response,90,555900,0.0-7.0-2.7-0.7-1.40-0.40,,,,,,,574b5c065bef98000eaf8bc3,13:54:42,15/01/2024
,[],,fwdspan,delay,cWJJT5jlaWgkzz7nKCAnvC3fuLs1,html-keyboard-response,91,556477,0.0-7.0-2.7-0.7-2.7,,,,,,,574b5c065bef98000eaf8bc3,13:54:42,15/01/2024
7962.5,"<div class = numbox><p style=""font-size:2.5rem"">What were the numbers <b>in order</b>?<br>(When you are ready to lock in your answer, press <b>ENTER</b>)</p><button id = button_1 class = ""square num-button"" onclick = ""recordClick(this)""><div class = content><div class = numbers>1</div></div></button><button id = button_2 class = ""square num-button"" onclick = ""recordClick(this)""><div class = content><div class = numbers>2</div></div></button><button id = button_3 class = ""square num-button"" onclick = ""recordClick(this)""><div class = content><div class = numbers>3</div></div></button><button id = button_4 class = ""square num-button"" onclick = ""recordClick(this)""><div class = content><div class = numbers>4</div></div></button><button id = button_5 class = ""square num-button"" onclick = ""recordClick(this)""><div class = content><div class = numbers>5</div></div></button><button id = button_6 class = ""square num-button"" onclick = ""recordClick(this)""><div class = content><div class = numbers>6</div></div></button><button id = button_7 class = ""square num-button"" onclick = ""recordClick(this)""><div class = content><div class = numbers>7</div></div></button><button id = button_8 class = ""square num-button"" onclick = ""recordClick(this)""><div class = content><div class = numbers>8</div></div></button><button id = button_9 class = ""square num-button"" onclick = ""recordClick(this)""><div class = content><div class = numbers>9</div></div></button><button class = clear_button id = ""ClearButton"" onclick = ""clearResponse()"">Clear</button><p><u><b>Current Answer:</b></u></p><div id=echoed_txt style=""font-size: 6rem; color:blue;""><b></b></div></div><br><br><br><br><br><br><br>",enter,fwdspan,response,cWJJT5jlaWgkzz7nKCAnvC3fuLs1,html-keyboard-response,92,564440,0.0-7.0-2.7-0.7-3.7,6.0,"[4,8,7,9,5,3]","[4,8,7,9,5,3]",1.0,"[3, 4, 5, 6, 6, 5, 6, 6, 7, 7, 6, 6]",,574b5c065bef98000eaf8bc3,13:54:42,15/01/2024
,,,fwdspan,update_span,cWJJT5jlaWgkzz7nKCAnvC3fuLs1,call-function,93,564703,0.0-7.0-2.7-0.7-4.7,,,,,,,574b5c065bef98000eaf8bc3,13:54:42,15/01/2024
1192.5999999977648,"<p style=""font-size:3rem"">Trial 9 of 12</p><br><br><br>",0,fwdspan,start_trial,cWJJT5jlaWgkzz7nKCAnvC3fuLs1,html-button-response,94,565896,0.0-7.0-2.8-0.8-0.8,,,,,,,574b5c065bef98000eaf8bc3,13:54:42,15/01/2024
,"<p style=""font-size:14rem;font-weight:400;"">1</p>",,fwdspan,number,cWJJT5jlaWgkzz7nKCAnvC3fuLs1,html-keyboard-response,95,566898,0.0-7.0-2.8-0.8-1.41-0.41,,,,,,,574b5c065bef98000eaf8bc3,13:54:42,15/01/2024
,"<p style=""font-size:14rem;font-weight:400;"">7</p>",,fwdspan,number,cWJJT5jlaWgkzz7nKCAnvC3fuLs1,html-keyboard-response,96,567921,0.0-7.0-2.8-0.8-1.42-0.42,,,,,,,574b5c065bef98000eaf8bc3,13:54:42,15/01/2024
,"<p style=""font-size:14rem;font-weight:400;"">9</p>",,fwdspan,number,cWJJT5jlaWgkzz7nKCAnvC3fuLs1,html-keyboard-response,97,568930,0.0-7.0-2.8-0.8-1.43-0.43,,,,,,,574b5c065bef98000eaf8bc3,13:54:42,15/01/2024
,"<p style=""font-size:14rem;font-weight:400;"">3</p>",,fwdspan,number,cWJJT5jlaWgkzz7nKCAnvC3fuLs1,html-keyboard-response,98,569959,0.0-7.0-2.8-0.8-1.44-0.44,,,,,,,574b5c065bef98000eaf8bc3,13:54:42,15/01/2024
,"<p style=""font-size:14rem;font-weight:400;"">6</p>",,fwdspan,number,cWJJT5jlaWgkzz7nKCAnvC3fuLs1,html-keyboard-response,99,570985,0.0-7.0-2.8-0.8-1.45-0.45,,,,,,,574b5c065bef98000eaf8bc3,13:54:42,15/01/2024
,"<p style=""font-size:14rem;font-weight:400;"">8</p>",,fwdspan,number,cWJJT5jlaWgkzz7nKCAnvC3fuLs1,html-keyboard-response,100,572011,0.0-7.0-2.8-0.8-1.46-0.46,,,,,,,574b5c065bef98000eaf8bc3,13:54:42,15/01/2024
,"<p style=""font-size:14rem;font-weight:400;"">5</p>",,fwdspan,number,cWJJT5jlaWgkzz7nKCAnvC3fuLs1,html-keyboard-response,101,573028,0.0-7.0-2.8-0.8-1.47-0.47,,,,,,,574b5c065bef98000eaf8bc3,13:54:42,15/01/2024
,[],,fwdspan,delay,cWJJT5jlaWgkzz7nKCAnvC3fuLs1,html-keyboard-response,102,573601,0.0-7.0-2.8-0.8-2.8,,,,,,,574b5c065bef98000eaf8bc3,13:54:42,15/01/2024
4342.60000000149,"<div class = numbox><p style=""font-size:2.5rem"">What were the numbers <b>in order</b>?<br>(When you are ready to lock in your answer, press <b>ENTER</b>)</p><button id = button_1 class = ""square num-button"" onclick = ""recordClick(this)""><div class = content><div class = numbers>1</div></div></button><button id = button_2 class = ""square num-button"" onclick = ""recordClick(this)""><div class = content><div class = numbers>2</div></div></button><button id = button_3 class = ""square num-button"" onclick = ""recordClick(this)""><div class = content><div class = numbers>3</div></div></button><button id = button_4 class = ""square num-button"" onclick = ""recordClick(this)""><div class = content><div class = numbers>4</div></div></button><button id = button_5 class = ""square num-button"" onclick = ""recordClick(this)""><div class = content><div class = numbers>5</div></div></button><button id = button_6 class = ""square num-button"" onclick = ""recordClick(this)""><div class = content><div class = numbers>6</div></div></button><button id = button_7 class = ""square num-button"" onclick = ""recordClick(this)""><div class = content><div class = numbers>7</div></div></button><button id = button_8 class = ""square num-button"" onclick = ""recordClick(this)""><div class = content><div class = numbers>8</div></div></button><button id = button_9 class = ""square num-button"" onclick = ""recordClick(this)""><div class = content><div class = numbers>9</div></div></button><button class = clear_button id = ""ClearButton"" onclick = ""clearResponse()"">Clear</button><p><u><b>Current Answer:</b></u></p><div id=echoed_txt style=""font-size: 6rem; color:blue;""><b></b></div></div><br><br><br><br><br><br><br>",enter,fwdspan,response,cWJJT5jlaWgkzz7nKCAnvC3fuLs1,html-keyboard-response,103,577944,0.0-7.0-2.8-0.8-3.8,7.0,"[1,7,9,6,5,3]","[1,7,9,3,6,8,5]",0.0,"[3, 4, 5, 6, 6, 5, 6, 6, 7, 7, 6, 6]",,574b5c065bef98000eaf8bc3,13:54:42,15/01/2024
,,,fwdspan,update_span,cWJJT5jlaWgkzz7nKCAnvC3fuLs1,call-function,104,578199,0.0-7.0-2.8-0.8-4.8,,,,,,,574b5c065bef98000eaf8bc3,13:54:42,15/01/2024
1478.300000000745,"<p style=""font-size:3rem"">Trial 10 of 12</p><br><br><br>",0,fwdspan,start_trial,cWJJT5jlaWgkzz7nKCAnvC3fuLs1,html-button-response,105,579678,0.0-7.0-2.9-0.9-0.9,,,,,,,574b5c065bef98000eaf8bc3,13:54:42,15/01/2024
,"<p style=""font-size:14rem;font-weight:400;"">9</p>",,fwdspan,number,cWJJT5jlaWgkzz7nKCAnvC3fuLs1,html-keyboard-response,106,580697,0.0-7.0-2.9-0.9-1.48-0.48,,,,,,,574b5c065bef98000eaf8bc3,13:54:42,15/01/2024
,"<p style=""font-size:14rem;font-weight:400;"">7</p>",,fwdspan,number,cWJJT5jlaWgkzz7nKCAnvC3fuLs1,html-keyboard-response,107,581698,0.0-7.0-2.9-0.9-1.49-0.49,,,,,,,574b5c065bef98000eaf8bc3,13:54:42,15/01/2024
,"<p style=""font-size:14rem;font-weight:400;"">2</p>",,fwdspan,number,cWJJT5jlaWgkzz7nKCAnvC3fuLs1,html-keyboard-response,108,582706,0.0-7.0-2.9-0.9-1.50-0.50,,,,,,,574b5c065bef98000eaf8bc3,13:54:42,15/01/2024
,"<p style=""font-size:14rem;font-weight:400;"">4</p>",,fwdspan,number,cWJJT5jlaWgkzz7nKCAnvC3fuLs1,html-keyboard-response,109,583732,0.0-7.0-2.9-0.9-1.51-0.51,,,,,,,574b5c065bef98000eaf8bc3,13:54:42,15/01/2024
,"<p style=""font-size:14rem;font-weight:400;"">3</p>",,fwdspan,number,cWJJT5jlaWgkzz7nKCAnvC3fuLs1,html-keyboard-response,110,584759,0.0-7.0-2.9-0.9-1.52-0.52,,,,,,,574b5c065bef98000eaf8bc3,13:54:42,15/01/2024
,"<p style=""font-size:14rem;font-weight:400;"">1</p>",,fwdspan,number,cWJJT5jlaWgkzz7nKCAnvC3fuLs1,html-keyboard-response,111,585782,0.0-7.0-2.9-0.9-1.53-0.53,,,,,,,574b5c065bef98000eaf8bc3,13:54:42,15/01/2024
,"<p style=""font-size:14rem;font-weight:400;"">8</p>",,fwdspan,number,cWJJT5jlaWgkzz7nKCAnvC3fuLs1,html-keyboard-response,112,586809,0.0-7.0-2.9-0.9-1.54-0.54,,,,,,,574b5c065bef98000eaf8bc3,13:54:42,15/01/2024
,[],,fwdspan,delay,cWJJT5jlaWgkzz7nKCAnvC3fuLs1,html-keyboard-response,113,587380,0.0-7.0-2.9-0.9-2.9,,,,,,,574b5c065bef98000eaf8bc3,13:54:42,15/01/2024
7827.10000000149,"<div class = numbox><p style=""font-size:2.5rem"">What were the numbers <b>in order</b>?<br>(When you are ready to lock in your answer, press <b>ENTER</b>)</p><button id = button_1 class = ""square num-button"" onclick = ""recordClick(this)""><div class = content><div class = numbers>1</div></div></button><button id = button_2 class = ""square num-button"" onclick = ""recordClick(this)""><div class = content><div class = numbers>2</div></div></button><button id = button_3 class = ""square num-button"" onclick = ""recordClick(this)""><div class = content><div class = numbers>3</div></div></button><button id = button_4 class = ""square num-button"" onclick = ""recordClick(this)""><div class = content><div class = numbers>4</div></div></button><button id = button_5 class = ""square num-button"" onclick = ""recordClick(this)""><div class = content><div class = numbers>5</div></div></button><button id = button_6 class = ""square num-button"" onclick = ""recordClick(this)""><div class = content><div class = numbers>6</div></div></button><button id = button_7 class = ""square num-button"" onclick = ""recordClick(this)""><div class = content><div class = numbers>7</div></div></button><button id = button_8 class = ""square num-button"" onclick = ""recordClick(this)""><div class = content><div class = numbers>8</div></div></button><button id = button_9 class = ""square num-button"" onclick = ""recordClick(this)""><div class = content><div class = numbers>9</div></div></button><button class = clear_button id = ""ClearButton"" onclick = ""clearResponse()"">Clear</button><p><u><b>Current Answer:</b></u></p><div id=echoed_txt style=""font-size: 6rem; color:blue;""><b></b></div></div><br><br><br><br><br><br><br>",enter,fwdspan,response,cWJJT5jlaWgkzz7nKCAnvC3fuLs1,html-keyboard-response,114,595208,0.0-7.0-2.9-0.9-3.9,7.0,"[9,7,2,4,3,5,1]","[9,7,2,4,3,1,8]",0.0,"[3, 4, 5, 6, 6, 5, 6, 6, 7, 7, 6, 6]",,574b5c065bef98000eaf8bc3,13:54:42,15/01/2024
,,,fwdspan,update_span,cWJJT5jlaWgkzz7nKCAnvC3fuLs1,call-function,115,595463,0.0-7.0-2.9-0.9-4.9,,,,,,,574b5c065bef98000eaf8bc3,13:54:42,15/01/2024
1424.2000000029802,"<p style=""font-size:3rem"">Trial 11 of 12</p><br><br><br>",0,fwdspan,start_trial,cWJJT5jlaWgkzz7nKCAnvC3fuLs1,html-button-response,116,596888,0.0-7.0-2.10-0.10-0.10,,,,,,,574b5c065bef98000eaf8bc3,13:54:42,15/01/2024
,"<p style=""font-size:14rem;font-weight:400;"">1</p>",,fwdspan,number,cWJJT5jlaWgkzz7nKCAnvC3fuLs1,html-keyboard-response,117,597890,0.0-7.0-2.10-0.10-1.55-0.55,,,,,,,574b5c065bef98000eaf8bc3,13:54:42,15/01/2024
,"<p style=""font-size:14rem;font-weight:400;"">3</p>",,fwdspan,number,cWJJT5jlaWgkzz7nKCAnvC3fuLs1,html-keyboard-response,118,598894,0.0-7.0-2.10-0.10-1.56-0.56,,,,,,,574b5c065bef98000eaf8bc3,13:54:42,15/01/2024
,"<p style=""font-size:14rem;font-weight:400;"">4</p>",,fwdspan,number,cWJJT5jlaWgkzz7nKCAnvC3fuLs1,html-keyboard-response,119,599920,0.0-7.0-2.10-0.10-1.57-0.57,,,,,,,574b5c065bef98000eaf8bc3,13:54:42,15/01/2024
,"<p style=""font-size:14rem;font-weight:400;"">9</p>",,fwdspan,number,cWJJT5jlaWgkzz7nKCAnvC3fuLs1,html-keyboard-response,120,600943,0.0-7.0-2.10-0.10-1.58-0.58,,,,,,,574b5c065bef98000eaf8bc3,13:54:42,15/01/2024
,"<p style=""font-size:14rem;font-weight:400;"">5</p>",,fwdspan,number,cWJJT5jlaWgkzz7nKCAnvC3fuLs1,html-keyboard-response,121,601969,0.0-7.0-2.10-0.10-1.59-0.59,,,,,,,574b5c065bef98000eaf8bc3,13:54:42,15/01/2024
,"<p style=""font-size:14rem;font-weight:400;"">6</p>",,fwdspan,number,cWJJT5jlaWgkzz7nKCAnvC3fuLs1,html-keyboard-response,122,602992,0.0-7.0-2.10-0.10-1.60-0.60,,,,,,,574b5c065bef98000eaf8bc3,13:54:42,15/01/2024
,[],,fwdspan,delay,cWJJT5jlaWgkzz7nKCAnvC3fuLs1,html-keyboard-response,123,603567,0.0-7.0-2.10-0.10-2.10,,,,,,,574b5c065bef98000eaf8bc3,13:54:42,15/01/2024
6528.29999999702,"<div class = numbox><p style=""font-size:2.5rem"">What were the numbers <b>in order</b>?<br>(When you are ready to lock in your answer, press <b>ENTER</b>)</p><button id = button_1 class = ""square num-button"" onclick = ""recordClick(this)""><div class = content><div class = numbers>1</div></div></button><button id = button_2 class = ""square num-button"" onclick = ""recordClick(this)""><div class = content><div class = numbers>2</div></div></button><button id = button_3 class = ""square num-button"" onclick = ""recordClick(this)""><div class = content><div class = numbers>3</div></div></button><button id = button_4 class = ""square num-button"" onclick = ""recordClick(this)""><div class = content><div class = numbers>4</div></div></button><button id = button_5 class = ""square num-button"" onclick = ""recordClick(this)""><div class = content><div class = numbers>5</div></div></button><button id = button_6 class = ""square num-button"" onclick = ""recordClick(this)""><div class = content><div class = numbers>6</div></div></button><button id = button_7 class = ""square num-button"" onclick = ""recordClick(this)""><div class = content><div class = numbers>7</div></div></button><button id = button_8 class = ""square num-button"" onclick = ""recordClick(this)""><div class = content><div class = numbers>8</div></div></button><button id = button_9 class = ""square num-button"" onclick = ""recordClick(this)""><div class = content><div class = numbers>9</div></div></button><button class = clear_button id = ""ClearButton"" onclick = ""clearResponse()"">Clear</button><p><u><b>Current Answer:</b></u></p><div id=echoed_txt style=""font-size: 6rem; color:blue;""><b></b></div></div><br><br><br><br><br><br><br>",enter,fwdspan,response,cWJJT5jlaWgkzz7nKCAnvC3fuLs1,html-keyboard-response,124,610096,0.0-7.0-2.10-0.10-3.10,6.0,"[1,3,4,7,9,6]","[1,3,4,9,5,6]",0.0,"[3, 4, 5, 6, 6, 5, 6, 6, 7, 7, 6, 6]",,574b5c065bef98000eaf8bc3,13:54:42,15/01/2024
,,,fwdspan,update_span,cWJJT5jlaWgkzz7nKCAnvC3fuLs1,call-function,125,610361,0.0-7.0-2.10-0.10-4.10,,,,,,,574b5c065bef98000eaf8bc3,13:54:42,15/01/2024
1132.5999999977648,"<p style=""font-size:3rem"">Trial 12 of 12</p><br><br><br>",0,fwdspan,start_trial,cWJJT5jlaWgkzz7nKCAnvC3fuLs1,html-button-response,126,611494,0.0-7.0-2.11-0.11-0.11,,,,,,,574b5c065bef98000eaf8bc3,13:54:42,15/01/2024
,"<p style=""font-size:14rem;font-weight:400;"">5</p>",,fwdspan,number,cWJJT5jlaWgkzz7nKCAnvC3fuLs1,html-keyboard-response,127,612509,0.0-7.0-2.11-0.11-1.61-0.61,,,,,,,574b5c065bef98000eaf8bc3,13:54:42,15/01/2024
,"<p style=""font-size:14rem;font-weight:400;"">1</p>",,fwdspan,number,cWJJT5jlaWgkzz7nKCAnvC3fuLs1,html-keyboard-response,128,613530,0.0-7.0-2.11-0.11-1.62-0.62,,,,,,,574b5c065bef98000eaf8bc3,13:54:42,15/01/2024
,"<p style=""font-size:14rem;font-weight:400;"">2</p>",,fwdspan,number,cWJJT5jlaWgkzz7nKCAnvC3fuLs1,html-keyboard-response,129,614555,0.0-7.0-2.11-0.11-1.63-0.63,,,,,,,574b5c065bef98000eaf8bc3,13:54:42,15/01/2024
,"<p style=""font-size:14rem;font-weight:400;"">3</p>",,fwdspan,number,cWJJT5jlaWgkzz7nKCAnvC3fuLs1,html-keyboard-response,130,615582,0.0-7.0-2.11-0.11-1.64-0.64,,,,,,,574b5c065bef98000eaf8bc3,13:54:42,15/01/2024
,"<p style=""font-size:14rem;font-weight:400;"">4</p>",,fwdspan,number,cWJJT5jlaWgkzz7nKCAnvC3fuLs1,html-keyboard-response,131,616609,0.0-7.0-2.11-0.11-1.65-0.65,,,,,,,574b5c065bef98000eaf8bc3,13:54:42,15/01/2024
,"<p style=""font-size:14rem;font-weight:400;"">7</p>",,fwdspan,number,cWJJT5jlaWgkzz7nKCAnvC3fuLs1,html-keyboard-response,132,617636,0.0-7.0-2.11-0.11-1.66-0.66,,,,,,,574b5c065bef98000eaf8bc3,13:54:42,15/01/2024
,[],,fwdspan,delay,cWJJT5jlaWgkzz7nKCAnvC3fuLs1,html-keyboard-response,133,618213,0.0-7.0-2.11-0.11-2.11,,,,,,,574b5c065bef98000eaf8bc3,13:54:42,15/01/2024
4810.699999999255,"<div class = numbox><p style=""font-size:2.5rem"">What were the numbers <b>in order</b>?<br>(When you are ready to lock in your answer, press <b>ENTER</b>)</p><button id = button_1 class = ""square num-button"" onclick = ""recordClick(this)""><div class = content><div class = numbers>1</div></div></button><button id = button_2 class = ""square num-button"" onclick = ""recordClick(this)""><div class = content><div class = numbers>2</div></div></button><button id = button_3 class = ""square num-button"" onclick = ""recordClick(this)""><div class = content><div class = numbers>3</div></div></button><button id = button_4 class = ""square num-button"" onclick = ""recordClick(this)""><div class = content><div class = numbers>4</div></div></button><button id = button_5 class = ""square num-button"" onclick = ""recordClick(this)""><div class = content><div class = numbers>5</div></div></button><button id = button_6 class = ""square num-button"" onclick = ""recordClick(this)""><div class = content><div class = numbers>6</div></div></button><button id = button_7 class = ""square num-button"" onclick = ""recordClick(this)""><div class = content><div class = numbers>7</div></div></button><button id = button_8 class = ""square num-button"" onclick = ""recordClick(this)""><div class = content><div class = numbers>8</div></div></button><button id = button_9 class = ""square num-button"" onclick = ""recordClick(this)""><div class = content><div class = numbers>9</div></div></button><button class = clear_button id = ""ClearButton"" onclick = ""clearResponse()"">Clear</button><p><u><b>Current Answer:</b></u></p><div id=echoed_txt style=""font-size: 6rem; color:blue;""><b></b></div></div><br><br><br><br><br><br><br>",enter,fwdspan,response,cWJJT5jlaWgkzz7nKCAnvC3fuLs1,html-keyboard-response,134,623024,0.0-7.0-2.11-0.11-3.11,6.0,"[5,1,4,2,3,7]","[5,1,2,3,4,7]",0.0,"[3, 4, 5, 6, 6, 5, 6, 6, 7, 7, 6, 6]",,574b5c065bef98000eaf8bc3,13:54:42,15/01/2024
,,,fwdspan,update_span,cWJJT5jlaWgkzz7nKCAnvC3fuLs1,call-function,135,623284,0.0-7.0-2.11-0.11-4.11,,,,,,,574b5c065bef98000eaf8bc3,13:54:42,15/01/2024
16594.0,,"{'Q0': 'It was all very clear, thank you'}",fwdspan,survey,cWJJT5jlaWgkzz7nKCAnvC3fuLs1,lmdlab-survey-text,136,640633,0.0-7.0-3.0,,,,,,cWJJT5jlaWgkzz7nKCAnvC3fuLs1,574b5c065bef98000eaf8bc3,13:54:42,15/01/2024
1075.699999999255,<p><p style='font-size: 3rem'>Great work!<br><br>This completes the digit span task.</p><br><br><br>,0,fwdspan,finish,cWJJT5jlaWgkzz7nKCAnvC3fuLs1,html-button-response,137,641710,0.0-7.0-4.0,,,,,,,574b5c065bef98000eaf8bc3,13:54:42,15/01/2024
