rt,stimulus,response,exp_name,exp_stage,subjectID,trial_type,trial_index,time_elapsed,internal_node_id,span,answer,correct,correct_full,span_history,databaseID,prolificID,start_time,date
3601.6000000089407,"<p style=""font-size:4rem""><br><br>In the next part today, we have a completely different short task.<br><br><br>This part involves keeping numbers in you mind. Participation takes around 5 minutes.<br><br><br></p>",0,fwdspan,instruct,ca9Ybt6NjFPkmz6yshl8t22qfzv1,html-button-response,19,324219,0.0-7.0-0.0,,,,,,,5f5f66b2c050a00169ba939c,11:19:33,15/01/2024
9893.39999999106,"<p style=""font-size:5rem"">Welcome to the <b>digit span task</b>!<br><br></p><p style=""font-size:3.4rem""><br>On each trial, you will see a sequence of digits, followed by a delay.</p><p style=""font-size:3.4rem""><br>Then you will be asked to type them back in the same order in which they were seen.</p><p style=""font-size:3.4rem""><br><br><br>For example, if you saw the digits <b style=""color:blue;"">1</b>, <b style=""color:blue;"">2</b>, <b style=""color:blue;"">3</b>, you would respond with <b style=""color:blue;"">1</b>, <b style=""color:blue;"">2</b>, <b style=""color:blue;"">3</b></p><p style=""font-size:3.4rem""><br><br><br>To ensure the best measure of true performance for our study,<br><br>it is very important that you do not use any memory aid (e.g., pen and paper).<br><br>Please do the task solely in your head.</p><p style=""font-size:3.4rem""><br><br><br>There will be 12 total trials. Participation takes around 5 minutes.</p><br><br><br>",0,fwdspan,instruct,ca9Ybt6NjFPkmz6yshl8t22qfzv1,html-button-response,20,334114,0.0-7.0-1.0,,,,,,,5f5f66b2c050a00169ba939c,11:19:33,15/01/2024
1276.6000000089407,"<p style=""font-size:3rem"">Trial 1 of 12</p><br><br><br>",0,fwdspan,start_trial,ca9Ybt6NjFPkmz6yshl8t22qfzv1,html-button-response,21,335395,0.0-7.0-2.0-0.0-0.0,,,,,,,5f5f66b2c050a00169ba939c,11:19:33,15/01/2024
,"<p style=""font-size:14rem;font-weight:400;"">4</p>",,fwdspan,number,ca9Ybt6NjFPkmz6yshl8t22qfzv1,html-keyboard-response,22,336412,0.0-7.0-2.0-0.0-1.0-0.0,,,,,,,5f5f66b2c050a00169ba939c,11:19:33,15/01/2024
,"<p style=""font-size:14rem;font-weight:400;"">6</p>",,fwdspan,number,ca9Ybt6NjFPkmz6yshl8t22qfzv1,html-keyboard-response,23,337433,0.0-7.0-2.0-0.0-1.1-0.1,,,,,,,5f5f66b2c050a00169ba939c,11:19:33,15/01/2024
,"<p style=""font-size:14rem;font-weight:400;"">2</p>",,fwdspan,number,ca9Ybt6NjFPkmz6yshl8t22qfzv1,html-keyboard-response,24,338462,0.0-7.0-2.0-0.0-1.2-0.2,,,,,,,5f5f66b2c050a00169ba939c,11:19:33,15/01/2024
,[],,fwdspan,delay,ca9Ybt6NjFPkmz6yshl8t22qfzv1,html-keyboard-response,25,339031,0.0-7.0-2.0-0.0-2.0,,,,,,,5f5f66b2c050a00169ba939c,11:19:33,15/01/2024
4556.20000000298,"<div class = numbox><p style=""font-size:2.5rem"">What were the numbers <b>in order</b>?<br>(When you are ready to lock in your answer, press <b>ENTER</b>)</p><button id = button_1 class = ""square num-button"" onclick = ""recordClick(this)""><div class = content><div class = numbers>1</div></div></button><button id = button_2 class = ""square num-button"" onclick = ""recordClick(this)""><div class = content><div class = numbers>2</div></div></button><button id = button_3 class = ""square num-button"" onclick = ""recordClick(this)""><div class = content><div class = numbers>3</div></div></button><button id = button_4 class = ""square num-button"" onclick = ""recordClick(this)""><div class = content><div class = numbers>4</div></div></button><button id = button_5 class = ""square num-button"" onclick = ""recordClick(this)""><div class = content><div class = numbers>5</div></div></button><button id = button_6 class = ""square num-button"" onclick = ""recordClick(this)""><div class = content><div class = numbers>6</div></div></button><button id = button_7 class = ""square num-button"" onclick = ""recordClick(this)""><div class = content><div class = numbers>7</div></div></button><button id = button_8 class = ""square num-button"" onclick = ""recordClick(this)""><div class = content><div class = numbers>8</div></div></button><button id = button_9 class = ""square num-button"" onclick = ""recordClick(this)""><div class = content><div class = numbers>9</div></div></button><button class = clear_button id = ""ClearButton"" onclick = ""clearResponse()"">Clear</button><p><u><b>Current Answer:</b></u></p><div id=echoed_txt style=""font-size: 6rem; color:blue;""><b></b></div></div><br><br><br><br><br><br><br>",enter,fwdspan,response,ca9Ybt6NjFPkmz6yshl8t22qfzv1,html-keyboard-response,26,343589,0.0-7.0-2.0-0.0-3.0,3.0,"[4,6,2]","[4,6,2]",1.0,"[3, 4, 5, 6, 6, 5, 5, 4, 5, 6, 6, 7]",,5f5f66b2c050a00169ba939c,11:19:33,15/01/2024
,,,fwdspan,update_span,ca9Ybt6NjFPkmz6yshl8t22qfzv1,call-function,27,343858,0.0-7.0-2.0-0.0-4.0,,,,,,,5f5f66b2c050a00169ba939c,11:19:33,15/01/2024
3055.699999988079,"<p style=""font-size:3rem"">Trial 2 of 12</p><br><br><br>",0,fwdspan,start_trial,ca9Ybt6NjFPkmz6yshl8t22qfzv1,html-button-response,28,346915,0.0-7.0-2.1-0.1-0.1,,,,,,,5f5f66b2c050a00169ba939c,11:19:33,15/01/2024
,"<p style=""font-size:14rem;font-weight:400;"">5</p>",,fwdspan,number,ca9Ybt6NjFPkmz6yshl8t22qfzv1,html-keyboard-response,29,347931,0.0-7.0-2.1-0.1-1.3-0.3,,,,,,,5f5f66b2c050a00169ba939c,11:19:33,15/01/2024
,"<p style=""font-size:14rem;font-weight:400;"">7</p>",,fwdspan,number,ca9Ybt6NjFPkmz6yshl8t22qfzv1,html-keyboard-response,30,348945,0.0-7.0-2.1-0.1-1.4-0.4,,,,,,,5f5f66b2c050a00169ba939c,11:19:33,15/01/2024
,"<p style=""font-size:14rem;font-weight:400;"">4</p>",,fwdspan,number,ca9Ybt6NjFPkmz6yshl8t22qfzv1,html-keyboard-response,31,349947,0.0-7.0-2.1-0.1-1.5-0.5,,,,,,,5f5f66b2c050a00169ba939c,11:19:33,15/01/2024
,"<p style=""font-size:14rem;font-weight:400;"">8</p>",,fwdspan,number,ca9Ybt6NjFPkmz6yshl8t22qfzv1,html-keyboard-response,32,350964,0.0-7.0-2.1-0.1-1.6-0.6,,,,,,,5f5f66b2c050a00169ba939c,11:19:33,15/01/2024
,[],,fwdspan,delay,ca9Ybt6NjFPkmz6yshl8t22qfzv1,html-keyboard-response,33,351531,0.0-7.0-2.1-0.1-2.1,,,,,,,5f5f66b2c050a00169ba939c,11:19:33,15/01/2024
4240.5,"<div class = numbox><p style=""font-size:2.5rem"">What were the numbers <b>in order</b>?<br>(When you are ready to lock in your answer, press <b>ENTER</b>)</p><button id = button_1 class = ""square num-button"" onclick = ""recordClick(this)""><div class = content><div class = numbers>1</div></div></button><button id = button_2 class = ""square num-button"" onclick = ""recordClick(this)""><div class = content><div class = numbers>2</div></div></button><button id = button_3 class = ""square num-button"" onclick = ""recordClick(this)""><div class = content><div class = numbers>3</div></div></button><button id = button_4 class = ""square num-button"" onclick = ""recordClick(this)""><div class = content><div class = numbers>4</div></div></button><button id = button_5 class = ""square num-button"" onclick = ""recordClick(this)""><div class = content><div class = numbers>5</div></div></button><button id = button_6 class = ""square num-button"" onclick = ""recordClick(this)""><div class = content><div class = numbers>6</div></div></button><button id = button_7 class = ""square num-button"" onclick = ""recordClick(this)""><div class = content><div class = numbers>7</div></div></button><button id = button_8 class = ""square num-button"" onclick = ""recordClick(this)""><div class = content><div class = numbers>8</div></div></button><button id = button_9 class = ""square num-button"" onclick = ""recordClick(this)""><div class = content><div class = numbers>9</div></div></button><button class = clear_button id = ""ClearButton"" onclick = ""clearResponse()"">Clear</button><p><u><b>Current Answer:</b></u></p><div id=echoed_txt style=""font-size: 6rem; color:blue;""><b></b></div></div><br><br><br><br><br><br><br>",enter,fwdspan,response,ca9Ybt6NjFPkmz6yshl8t22qfzv1,html-keyboard-response,34,355773,0.0-7.0-2.1-0.1-3.1,4.0,"[5,7,4,8]","[5,7,4,8]",1.0,"[3, 4, 5, 6, 6, 5, 5, 4, 5, 6, 6, 7]",,5f5f66b2c050a00169ba939c,11:19:33,15/01/2024
,,,fwdspan,update_span,ca9Ybt6NjFPkmz6yshl8t22qfzv1,call-function,35,356038,0.0-7.0-2.1-0.1-4.1,,,,,,,5f5f66b2c050a00169ba939c,11:19:33,15/01/2024
1143.0,"<p style=""font-size:3rem"">Trial 3 of 12</p><br><br><br>",0,fwdspan,start_trial,ca9Ybt6NjFPkmz6yshl8t22qfzv1,html-button-response,36,357183,0.0-7.0-2.2-0.2-0.2,,,,,,,5f5f66b2c050a00169ba939c,11:19:33,15/01/2024
,"<p style=""font-size:14rem;font-weight:400;"">6</p>",,fwdspan,number,ca9Ybt6NjFPkmz6yshl8t22qfzv1,html-keyboard-response,37,358198,0.0-7.0-2.2-0.2-1.7-0.7,,,,,,,5f5f66b2c050a00169ba939c,11:19:33,15/01/2024
,"<p style=""font-size:14rem;font-weight:400;"">4</p>",,fwdspan,number,ca9Ybt6NjFPkmz6yshl8t22qfzv1,html-keyboard-response,38,359212,0.0-7.0-2.2-0.2-1.8-0.8,,,,,,,5f5f66b2c050a00169ba939c,11:19:33,15/01/2024
,"<p style=""font-size:14rem;font-weight:400;"">5</p>",,fwdspan,number,ca9Ybt6NjFPkmz6yshl8t22qfzv1,html-keyboard-response,39,360230,0.0-7.0-2.2-0.2-1.9-0.9,,,,,,,5f5f66b2c050a00169ba939c,11:19:33,15/01/2024
,"<p style=""font-size:14rem;font-weight:400;"">3</p>",,fwdspan,number,ca9Ybt6NjFPkmz6yshl8t22qfzv1,html-keyboard-response,40,361259,0.0-7.0-2.2-0.2-1.10-0.10,,,,,,,5f5f66b2c050a00169ba939c,11:19:33,15/01/2024
,"<p style=""font-size:14rem;font-weight:400;"">2</p>",,fwdspan,number,ca9Ybt6NjFPkmz6yshl8t22qfzv1,html-keyboard-response,41,362262,0.0-7.0-2.2-0.2-1.11-0.11,,,,,,,5f5f66b2c050a00169ba939c,11:19:33,15/01/2024
,[],,fwdspan,delay,ca9Ybt6NjFPkmz6yshl8t22qfzv1,html-keyboard-response,42,362829,0.0-7.0-2.2-0.2-2.2,,,,,,,5f5f66b2c050a00169ba939c,11:19:33,15/01/2024
3625.5999999940395,"<div class = numbox><p style=""font-size:2.5rem"">What were the numbers <b>in order</b>?<br>(When you are ready to lock in your answer, press <b>ENTER</b>)</p><button id = button_1 class = ""square num-button"" onclick = ""recordClick(this)""><div class = content><div class = numbers>1</div></div></button><button id = button_2 class = ""square num-button"" onclick = ""recordClick(this)""><div class = content><div class = numbers>2</div></div></button><button id = button_3 class = ""square num-button"" onclick = ""recordClick(this)""><div class = content><div class = numbers>3</div></div></button><button id = button_4 class = ""square num-button"" onclick = ""recordClick(this)""><div class = content><div class = numbers>4</div></div></button><button id = button_5 class = ""square num-button"" onclick = ""recordClick(this)""><div class = content><div class = numbers>5</div></div></button><button id = button_6 class = ""square num-button"" onclick = ""recordClick(this)""><div class = content><div class = numbers>6</div></div></button><button id = button_7 class = ""square num-button"" onclick = ""recordClick(this)""><div class = content><div class = numbers>7</div></div></button><button id = button_8 class = ""square num-button"" onclick = ""recordClick(this)""><div class = content><div class = numbers>8</div></div></button><button id = button_9 class = ""square num-button"" onclick = ""recordClick(this)""><div class = content><div class = numbers>9</div></div></button><button class = clear_button id = ""ClearButton"" onclick = ""clearResponse()"">Clear</button><p><u><b>Current Answer:</b></u></p><div id=echoed_txt style=""font-size: 6rem; color:blue;""><b></b></div></div><br><br><br><br><br><br><br>",enter,fwdspan,response,ca9Ybt6NjFPkmz6yshl8t22qfzv1,html-keyboard-response,43,366457,0.0-7.0-2.2-0.2-3.2,5.0,"[6,4,5,3,2]","[6,4,5,3,2]",1.0,"[3, 4, 5, 6, 6, 5, 5, 4, 5, 6, 6, 7]",,5f5f66b2c050a00169ba939c,11:19:33,15/01/2024
,,,fwdspan,update_span,ca9Ybt6NjFPkmz6yshl8t22qfzv1,call-function,44,366721,0.0-7.0-2.2-0.2-4.2,,,,,,,5f5f66b2c050a00169ba939c,11:19:33,15/01/2024
848.5999999940395,"<p style=""font-size:3rem"">Trial 4 of 12</p><br><br><br>",0,fwdspan,start_trial,ca9Ybt6NjFPkmz6yshl8t22qfzv1,html-button-response,45,367571,0.0-7.0-2.3-0.3-0.3,,,,,,,5f5f66b2c050a00169ba939c,11:19:33,15/01/2024
,"<p style=""font-size:14rem;font-weight:400;"">5</p>",,fwdspan,number,ca9Ybt6NjFPkmz6yshl8t22qfzv1,html-keyboard-response,46,368593,0.0-7.0-2.3-0.3-1.12-0.12,,,,,,,5f5f66b2c050a00169ba939c,11:19:33,15/01/2024
,"<p style=""font-size:14rem;font-weight:400;"">8</p>",,fwdspan,number,ca9Ybt6NjFPkmz6yshl8t22qfzv1,html-keyboard-response,47,369607,0.0-7.0-2.3-0.3-1.13-0.13,,,,,,,5f5f66b2c050a00169ba939c,11:19:33,15/01/2024
,"<p style=""font-size:14rem;font-weight:400;"">6</p>",,fwdspan,number,ca9Ybt6NjFPkmz6yshl8t22qfzv1,html-keyboard-response,48,370613,0.0-7.0-2.3-0.3-1.14-0.14,,,,,,,5f5f66b2c050a00169ba939c,11:19:33,15/01/2024
,"<p style=""font-size:14rem;font-weight:400;"">1</p>",,fwdspan,number,ca9Ybt6NjFPkmz6yshl8t22qfzv1,html-keyboard-response,49,371619,0.0-7.0-2.3-0.3-1.15-0.15,,,,,,,5f5f66b2c050a00169ba939c,11:19:33,15/01/2024
,"<p style=""font-size:14rem;font-weight:400;"">4</p>",,fwdspan,number,ca9Ybt6NjFPkmz6yshl8t22qfzv1,html-keyboard-response,50,372625,0.0-7.0-2.3-0.3-1.16-0.16,,,,,,,5f5f66b2c050a00169ba939c,11:19:33,15/01/2024
,"<p style=""font-size:14rem;font-weight:400;"">3</p>",,fwdspan,number,ca9Ybt6NjFPkmz6yshl8t22qfzv1,html-keyboard-response,51,373644,0.0-7.0-2.3-0.3-1.17-0.17,,,,,,,5f5f66b2c050a00169ba939c,11:19:33,15/01/2024
,[],,fwdspan,delay,ca9Ybt6NjFPkmz6yshl8t22qfzv1,html-keyboard-response,52,374211,0.0-7.0-2.3-0.3-2.3,,,,,,,5f5f66b2c050a00169ba939c,11:19:33,15/01/2024
6678.5,"<div class = numbox><p style=""font-size:2.5rem"">What were the numbers <b>in order</b>?<br>(When you are ready to lock in your answer, press <b>ENTER</b>)</p><button id = button_1 class = ""square num-button"" onclick = ""recordClick(this)""><div class = content><div class = numbers>1</div></div></button><button id = button_2 class = ""square num-button"" onclick = ""recordClick(this)""><div class = content><div class = numbers>2</div></div></button><button id = button_3 class = ""square num-button"" onclick = ""recordClick(this)""><div class = content><div class = numbers>3</div></div></button><button id = button_4 class = ""square num-button"" onclick = ""recordClick(this)""><div class = content><div class = numbers>4</div></div></button><button id = button_5 class = ""square num-button"" onclick = ""recordClick(this)""><div class = content><div class = numbers>5</div></div></button><button id = button_6 class = ""square num-button"" onclick = ""recordClick(this)""><div class = content><div class = numbers>6</div></div></button><button id = button_7 class = ""square num-button"" onclick = ""recordClick(this)""><div class = content><div class = numbers>7</div></div></button><button id = button_8 class = ""square num-button"" onclick = ""recordClick(this)""><div class = content><div class = numbers>8</div></div></button><button id = button_9 class = ""square num-button"" onclick = ""recordClick(this)""><div class = content><div class = numbers>9</div></div></button><button class = clear_button id = ""ClearButton"" onclick = ""clearResponse()"">Clear</button><p><u><b>Current Answer:</b></u></p><div id=echoed_txt style=""font-size: 6rem; color:blue;""><b></b></div></div><br><br><br><br><br><br><br>",enter,fwdspan,response,ca9Ybt6NjFPkmz6yshl8t22qfzv1,html-keyboard-response,53,380891,0.0-7.0-2.3-0.3-3.3,6.0,"[5,4,6,1,4,3]","[5,8,6,1,4,3]",0.0,"[3, 4, 5, 6, 6, 5, 5, 4, 5, 6, 6, 7]",,5f5f66b2c050a00169ba939c,11:19:33,15/01/2024
,,,fwdspan,update_span,ca9Ybt6NjFPkmz6yshl8t22qfzv1,call-function,54,381154,0.0-7.0-2.3-0.3-4.3,,,,,,,5f5f66b2c050a00169ba939c,11:19:33,15/01/2024
1056.7999999970198,"<p style=""font-size:3rem"">Trial 5 of 12</p><br><br><br>",0,fwdspan,start_trial,ca9Ybt6NjFPkmz6yshl8t22qfzv1,html-button-response,55,382212,0.0-7.0-2.4-0.4-0.4,,,,,,,5f5f66b2c050a00169ba939c,11:19:33,15/01/2024
,"<p style=""font-size:14rem;font-weight:400;"">6</p>",,fwdspan,number,ca9Ybt6NjFPkmz6yshl8t22qfzv1,html-keyboard-response,56,383213,0.0-7.0-2.4-0.4-1.18-0.18,,,,,,,5f5f66b2c050a00169ba939c,11:19:33,15/01/2024
,"<p style=""font-size:14rem;font-weight:400;"">7</p>",,fwdspan,number,ca9Ybt6NjFPkmz6yshl8t22qfzv1,html-keyboard-response,57,384240,0.0-7.0-2.4-0.4-1.19-0.19,,,,,,,5f5f66b2c050a00169ba939c,11:19:33,15/01/2024
,"<p style=""font-size:14rem;font-weight:400;"">3</p>",,fwdspan,number,ca9Ybt6NjFPkmz6yshl8t22qfzv1,html-keyboard-response,58,385257,0.0-7.0-2.4-0.4-1.20-0.20,,,,,,,5f5f66b2c050a00169ba939c,11:19:33,15/01/2024
,"<p style=""font-size:14rem;font-weight:400;"">4</p>",,fwdspan,number,ca9Ybt6NjFPkmz6yshl8t22qfzv1,html-keyboard-response,59,386274,0.0-7.0-2.4-0.4-1.21-0.21,,,,,,,5f5f66b2c050a00169ba939c,11:19:33,15/01/2024
,"<p style=""font-size:14rem;font-weight:400;"">2</p>",,fwdspan,number,ca9Ybt6NjFPkmz6yshl8t22qfzv1,html-keyboard-response,60,387276,0.0-7.0-2.4-0.4-1.22-0.22,,,,,,,5f5f66b2c050a00169ba939c,11:19:33,15/01/2024
,"<p style=""font-size:14rem;font-weight:400;"">1</p>",,fwdspan,number,ca9Ybt6NjFPkmz6yshl8t22qfzv1,html-keyboard-response,61,388291,0.0-7.0-2.4-0.4-1.23-0.23,,,,,,,5f5f66b2c050a00169ba939c,11:19:33,15/01/2024
,[],,fwdspan,delay,ca9Ybt6NjFPkmz6yshl8t22qfzv1,html-keyboard-response,62,388860,0.0-7.0-2.4-0.4-2.4,,,,,,,5f5f66b2c050a00169ba939c,11:19:33,15/01/2024
4070.6000000089407,"<div class = numbox><p style=""font-size:2.5rem"">What were the numbers <b>in order</b>?<br>(When you are ready to lock in your answer, press <b>ENTER</b>)</p><button id = button_1 class = ""square num-button"" onclick = ""recordClick(this)""><div class = content><div class = numbers>1</div></div></button><button id = button_2 class = ""square num-button"" onclick = ""recordClick(this)""><div class = content><div class = numbers>2</div></div></button><button id = button_3 class = ""square num-button"" onclick = ""recordClick(this)""><div class = content><div class = numbers>3</div></div></button><button id = button_4 class = ""square num-button"" onclick = ""recordClick(this)""><div class = content><div class = numbers>4</div></div></button><button id = button_5 class = ""square num-button"" onclick = ""recordClick(this)""><div class = content><div class = numbers>5</div></div></button><button id = button_6 class = ""square num-button"" onclick = ""recordClick(this)""><div class = content><div class = numbers>6</div></div></button><button id = button_7 class = ""square num-button"" onclick = ""recordClick(this)""><div class = content><div class = numbers>7</div></div></button><button id = button_8 class = ""square num-button"" onclick = ""recordClick(this)""><div class = content><div class = numbers>8</div></div></button><button id = button_9 class = ""square num-button"" onclick = ""recordClick(this)""><div class = content><div class = numbers>9</div></div></button><button class = clear_button id = ""ClearButton"" onclick = ""clearResponse()"">Clear</button><p><u><b>Current Answer:</b></u></p><div id=echoed_txt style=""font-size: 6rem; color:blue;""><b></b></div></div><br><br><br><br><br><br><br>",enter,fwdspan,response,ca9Ybt6NjFPkmz6yshl8t22qfzv1,html-keyboard-response,63,392933,0.0-7.0-2.4-0.4-3.4,6.0,"[6,7,4,3,2,1]","[6,7,3,4,2,1]",0.0,"[3, 4, 5, 6, 6, 5, 5, 4, 5, 6, 6, 7]",,5f5f66b2c050a00169ba939c,11:19:33,15/01/2024
,,,fwdspan,update_span,ca9Ybt6NjFPkmz6yshl8t22qfzv1,call-function,64,393187,0.0-7.0-2.4-0.4-4.4,,,,,,,5f5f66b2c050a00169ba939c,11:19:33,15/01/2024
824.2000000029802,"<p style=""font-size:3rem"">Trial 6 of 12</p><br><br><br>",0,fwdspan,start_trial,ca9Ybt6NjFPkmz6yshl8t22qfzv1,html-button-response,65,394012,0.0-7.0-2.5-0.5-0.5,,,,,,,5f5f66b2c050a00169ba939c,11:19:33,15/01/2024
,"<p style=""font-size:14rem;font-weight:400;"">7</p>",,fwdspan,number,ca9Ybt6NjFPkmz6yshl8t22qfzv1,html-keyboard-response,66,395022,0.0-7.0-2.5-0.5-1.24-0.24,,,,,,,5f5f66b2c050a00169ba939c,11:19:33,15/01/2024
,"<p style=""font-size:14rem;font-weight:400;"">6</p>",,fwdspan,number,ca9Ybt6NjFPkmz6yshl8t22qfzv1,html-keyboard-response,67,396038,0.0-7.0-2.5-0.5-1.25-0.25,,,,,,,5f5f66b2c050a00169ba939c,11:19:33,15/01/2024
,"<p style=""font-size:14rem;font-weight:400;"">2</p>",,fwdspan,number,ca9Ybt6NjFPkmz6yshl8t22qfzv1,html-keyboard-response,68,397048,0.0-7.0-2.5-0.5-1.26-0.26,,,,,,,5f5f66b2c050a00169ba939c,11:19:33,15/01/2024
,"<p style=""font-size:14rem;font-weight:400;"">4</p>",,fwdspan,number,ca9Ybt6NjFPkmz6yshl8t22qfzv1,html-keyboard-response,69,398059,0.0-7.0-2.5-0.5-1.27-0.27,,,,,,,5f5f66b2c050a00169ba939c,11:19:33,15/01/2024
,"<p style=""font-size:14rem;font-weight:400;"">9</p>",,fwdspan,number,ca9Ybt6NjFPkmz6yshl8t22qfzv1,html-keyboard-response,70,399089,0.0-7.0-2.5-0.5-1.28-0.28,,,,,,,5f5f66b2c050a00169ba939c,11:19:33,15/01/2024
,[],,fwdspan,delay,ca9Ybt6NjFPkmz6yshl8t22qfzv1,html-keyboard-response,71,399657,0.0-7.0-2.5-0.5-2.5,,,,,,,5f5f66b2c050a00169ba939c,11:19:33,15/01/2024
4691.699999988079,"<div class = numbox><p style=""font-size:2.5rem"">What were the numbers <b>in order</b>?<br>(When you are ready to lock in your answer, press <b>ENTER</b>)</p><button id = button_1 class = ""square num-button"" onclick = ""recordClick(this)""><div class = content><div class = numbers>1</div></div></button><button id = button_2 class = ""square num-button"" onclick = ""recordClick(this)""><div class = content><div class = numbers>2</div></div></button><button id = button_3 class = ""square num-button"" onclick = ""recordClick(this)""><div class = content><div class = numbers>3</div></div></button><button id = button_4 class = ""square num-button"" onclick = ""recordClick(this)""><div class = content><div class = numbers>4</div></div></button><button id = button_5 class = ""square num-button"" onclick = ""recordClick(this)""><div class = content><div class = numbers>5</div></div></button><button id = button_6 class = ""square num-button"" onclick = ""recordClick(this)""><div class = content><div class = numbers>6</div></div></button><button id = button_7 class = ""square num-button"" onclick = ""recordClick(this)""><div class = content><div class = numbers>7</div></div></button><button id = button_8 class = ""square num-button"" onclick = ""recordClick(this)""><div class = content><div class = numbers>8</div></div></button><button id = button_9 class = ""square num-button"" onclick = ""recordClick(this)""><div class = content><div class = numbers>9</div></div></button><button class = clear_button id = ""ClearButton"" onclick = ""clearResponse()"">Clear</button><p><u><b>Current Answer:</b></u></p><div id=echoed_txt style=""font-size: 6rem; color:blue;""><b></b></div></div><br><br><br><br><br><br><br>",enter,fwdspan,response,ca9Ybt6NjFPkmz6yshl8t22qfzv1,html-keyboard-response,72,404350,0.0-7.0-2.5-0.5-3.5,5.0,"[7,6,4,2,9]","[7,6,2,4,9]",0.0,"[3, 4, 5, 6, 6, 5, 5, 4, 5, 6, 6, 7]",,5f5f66b2c050a00169ba939c,11:19:33,15/01/2024
,,,fwdspan,update_span,ca9Ybt6NjFPkmz6yshl8t22qfzv1,call-function,73,404618,0.0-7.0-2.5-0.5-4.5,,,,,,,5f5f66b2c050a00169ba939c,11:19:33,15/01/2024
798.0,"<p style=""font-size:3rem"">Trial 7 of 12</p><br><br><br>",0,fwdspan,start_trial,ca9Ybt6NjFPkmz6yshl8t22qfzv1,html-button-response,74,405417,0.0-7.0-2.6-0.6-0.6,,,,,,,5f5f66b2c050a00169ba939c,11:19:33,15/01/2024
,"<p style=""font-size:14rem;font-weight:400;"">3</p>",,fwdspan,number,ca9Ybt6NjFPkmz6yshl8t22qfzv1,html-keyboard-response,75,406445,0.0-7.0-2.6-0.6-1.29-0.29,,,,,,,5f5f66b2c050a00169ba939c,11:19:33,15/01/2024
,"<p style=""font-size:14rem;font-weight:400;"">2</p>",,fwdspan,number,ca9Ybt6NjFPkmz6yshl8t22qfzv1,html-keyboard-response,76,407458,0.0-7.0-2.6-0.6-1.30-0.30,,,,,,,5f5f66b2c050a00169ba939c,11:19:33,15/01/2024
,"<p style=""font-size:14rem;font-weight:400;"">9</p>",,fwdspan,number,ca9Ybt6NjFPkmz6yshl8t22qfzv1,html-keyboard-response,77,408475,0.0-7.0-2.6-0.6-1.31-0.31,,,,,,,5f5f66b2c050a00169ba939c,11:19:33,15/01/2024
,"<p style=""font-size:14rem;font-weight:400;"">5</p>",,fwdspan,number,ca9Ybt6NjFPkmz6yshl8t22qfzv1,html-keyboard-response,78,409489,0.0-7.0-2.6-0.6-1.32-0.32,,,,,,,5f5f66b2c050a00169ba939c,11:19:33,15/01/2024
,"<p style=""font-size:14rem;font-weight:400;"">1</p>",,fwdspan,number,ca9Ybt6NjFPkmz6yshl8t22qfzv1,html-keyboard-response,79,410505,0.0-7.0-2.6-0.6-1.33-0.33,,,,,,,5f5f66b2c050a00169ba939c,11:19:33,15/01/2024
,[],,fwdspan,delay,ca9Ybt6NjFPkmz6yshl8t22qfzv1,html-keyboard-response,80,411073,0.0-7.0-2.6-0.6-2.6,,,,,,,5f5f66b2c050a00169ba939c,11:19:33,15/01/2024
3800.5,"<div class = numbox><p style=""font-size:2.5rem"">What were the numbers <b>in order</b>?<br>(When you are ready to lock in your answer, press <b>ENTER</b>)</p><button id = button_1 class = ""square num-button"" onclick = ""recordClick(this)""><div class = content><div class = numbers>1</div></div></button><button id = button_2 class = ""square num-button"" onclick = ""recordClick(this)""><div class = content><div class = numbers>2</div></div></button><button id = button_3 class = ""square num-button"" onclick = ""recordClick(this)""><div class = content><div class = numbers>3</div></div></button><button id = button_4 class = ""square num-button"" onclick = ""recordClick(this)""><div class = content><div class = numbers>4</div></div></button><button id = button_5 class = ""square num-button"" onclick = ""recordClick(this)""><div class = content><div class = numbers>5</div></div></button><button id = button_6 class = ""square num-button"" onclick = ""recordClick(this)""><div class = content><div class = numbers>6</div></div></button><button id = button_7 class = ""square num-button"" onclick = ""recordClick(this)""><div class = content><div class = numbers>7</div></div></button><button id = button_8 class = ""square num-button"" onclick = ""recordClick(this)""><div class = content><div class = numbers>8</div></div></button><button id = button_9 class = ""square num-button"" onclick = ""recordClick(this)""><div class = content><div class = numbers>9</div></div></button><button class = clear_button id = ""ClearButton"" onclick = ""clearResponse()"">Clear</button><p><u><b>Current Answer:</b></u></p><div id=echoed_txt style=""font-size: 6rem; color:blue;""><b></b></div></div><br><br><br><br><br><br><br>",enter,fwdspan,response,ca9Ybt6NjFPkmz6yshl8t22qfzv1,html-keyboard-response,81,414876,0.0-7.0-2.6-0.6-3.6,5.0,"[3,2,5,9,1]","[3,2,9,5,1]",0.0,"[3, 4, 5, 6, 6, 5, 5, 4, 5, 6, 6, 7]",,5f5f66b2c050a00169ba939c,11:19:33,15/01/2024
,,,fwdspan,update_span,ca9Ybt6NjFPkmz6yshl8t22qfzv1,call-function,82,415133,0.0-7.0-2.6-0.6-4.6,,,,,,,5f5f66b2c050a00169ba939c,11:19:33,15/01/2024
1153.7000000029802,"<p style=""font-size:3rem"">Trial 8 of 12</p><br><br><br>",0,fwdspan,start_trial,ca9Ybt6NjFPkmz6yshl8t22qfzv1,html-button-response,83,416288,0.0-7.0-2.7-0.7-0.7,,,,,,,5f5f66b2c050a00169ba939c,11:19:33,15/01/2024
,"<p style=""font-size:14rem;font-weight:400;"">7</p>",,fwdspan,number,ca9Ybt6NjFPkmz6yshl8t22qfzv1,html-keyboard-response,84,417291,0.0-7.0-2.7-0.7-1.34-0.34,,,,,,,5f5f66b2c050a00169ba939c,11:19:33,15/01/2024
,"<p style=""font-size:14rem;font-weight:400;"">5</p>",,fwdspan,number,ca9Ybt6NjFPkmz6yshl8t22qfzv1,html-keyboard-response,85,418324,0.0-7.0-2.7-0.7-1.35-0.35,,,,,,,5f5f66b2c050a00169ba939c,11:19:33,15/01/2024
,"<p style=""font-size:14rem;font-weight:400;"">2</p>",,fwdspan,number,ca9Ybt6NjFPkmz6yshl8t22qfzv1,html-keyboard-response,86,419345,0.0-7.0-2.7-0.7-1.36-0.36,,,,,,,5f5f66b2c050a00169ba939c,11:19:33,15/01/2024
,"<p style=""font-size:14rem;font-weight:400;"">9</p>",,fwdspan,number,ca9Ybt6NjFPkmz6yshl8t22qfzv1,html-keyboard-response,87,420370,0.0-7.0-2.7-0.7-1.37-0.37,,,,,,,5f5f66b2c050a00169ba939c,11:19:33,15/01/2024
,[],,fwdspan,delay,ca9Ybt6NjFPkmz6yshl8t22qfzv1,html-keyboard-response,88,420922,0.0-7.0-2.7-0.7-2.7,,,,,,,5f5f66b2c050a00169ba939c,11:19:33,15/01/2024
2810.9000000059605,"<div class = numbox><p style=""font-size:2.5rem"">What were the numbers <b>in order</b>?<br>(When you are ready to lock in your answer, press <b>ENTER</b>)</p><button id = button_1 class = ""square num-button"" onclick = ""recordClick(this)""><div class = content><div class = numbers>1</div></div></button><button id = button_2 class = ""square num-button"" onclick = ""recordClick(this)""><div class = content><div class = numbers>2</div></div></button><button id = button_3 class = ""square num-button"" onclick = ""recordClick(this)""><div class = content><div class = numbers>3</div></div></button><button id = button_4 class = ""square num-button"" onclick = ""recordClick(this)""><div class = content><div class = numbers>4</div></div></button><button id = button_5 class = ""square num-button"" onclick = ""recordClick(this)""><div class = content><div class = numbers>5</div></div></button><button id = button_6 class = ""square num-button"" onclick = ""recordClick(this)""><div class = content><div class = numbers>6</div></div></button><button id = button_7 class = ""square num-button"" onclick = ""recordClick(this)""><div class = content><div class = numbers>7</div></div></button><button id = button_8 class = ""square num-button"" onclick = ""recordClick(this)""><div class = content><div class = numbers>8</div></div></button><button id = button_9 class = ""square num-button"" onclick = ""recordClick(this)""><div class = content><div class = numbers>9</div></div></button><button class = clear_button id = ""ClearButton"" onclick = ""clearResponse()"">Clear</button><p><u><b>Current Answer:</b></u></p><div id=echoed_txt style=""font-size: 6rem; color:blue;""><b></b></div></div><br><br><br><br><br><br><br>",enter,fwdspan,response,ca9Ybt6NjFPkmz6yshl8t22qfzv1,html-keyboard-response,89,423735,0.0-7.0-2.7-0.7-3.7,4.0,"[7,5,2,9]","[7,5,2,9]",1.0,"[3, 4, 5, 6, 6, 5, 5, 4, 5, 6, 6, 7]",,5f5f66b2c050a00169ba939c,11:19:33,15/01/2024
,,,fwdspan,update_span,ca9Ybt6NjFPkmz6yshl8t22qfzv1,call-function,90,423997,0.0-7.0-2.7-0.7-4.7,,,,,,,5f5f66b2c050a00169ba939c,11:19:33,15/01/2024
859.1000000089407,"<p style=""font-size:3rem"">Trial 9 of 12</p><br><br><br>",0,fwdspan,start_trial,ca9Ybt6NjFPkmz6yshl8t22qfzv1,html-button-response,91,424858,0.0-7.0-2.8-0.8-0.8,,,,,,,5f5f66b2c050a00169ba939c,11:19:33,15/01/2024
,"<p style=""font-size:14rem;font-weight:400;"">4</p>",,fwdspan,number,ca9Ybt6NjFPkmz6yshl8t22qfzv1,html-keyboard-response,92,425871,0.0-7.0-2.8-0.8-1.38-0.38,,,,,,,5f5f66b2c050a00169ba939c,11:19:33,15/01/2024
,"<p style=""font-size:14rem;font-weight:400;"">9</p>",,fwdspan,number,ca9Ybt6NjFPkmz6yshl8t22qfzv1,html-keyboard-response,93,426888,0.0-7.0-2.8-0.8-1.39-0.39,,,,,,,5f5f66b2c050a00169ba939c,11:19:33,15/01/2024
,"<p style=""font-size:14rem;font-weight:400;"">6</p>",,fwdspan,number,ca9Ybt6NjFPkmz6yshl8t22qfzv1,html-keyboard-response,94,427904,0.0-7.0-2.8-0.8-1.40-0.40,,,,,,,5f5f66b2c050a00169ba939c,11:19:33,15/01/2024
,"<p style=""font-size:14rem;font-weight:400;"">1</p>",,fwdspan,number,ca9Ybt6NjFPkmz6yshl8t22qfzv1,html-keyboard-response,95,428920,0.0-7.0-2.8-0.8-1.41-0.41,,,,,,,5f5f66b2c050a00169ba939c,11:19:33,15/01/2024
,"<p style=""font-size:14rem;font-weight:400;"">2</p>",,fwdspan,number,ca9Ybt6NjFPkmz6yshl8t22qfzv1,html-keyboard-response,96,429938,0.0-7.0-2.8-0.8-1.42-0.42,,,,,,,5f5f66b2c050a00169ba939c,11:19:33,15/01/2024
,[],,fwdspan,delay,ca9Ybt6NjFPkmz6yshl8t22qfzv1,html-keyboard-response,97,430505,0.0-7.0-2.8-0.8-2.8,,,,,,,5f5f66b2c050a00169ba939c,11:19:33,15/01/2024
3468.2999999970198,"<div class = numbox><p style=""font-size:2.5rem"">What were the numbers <b>in order</b>?<br>(When you are ready to lock in your answer, press <b>ENTER</b>)</p><button id = button_1 class = ""square num-button"" onclick = ""recordClick(this)""><div class = content><div class = numbers>1</div></div></button><button id = button_2 class = ""square num-button"" onclick = ""recordClick(this)""><div class = content><div class = numbers>2</div></div></button><button id = button_3 class = ""square num-button"" onclick = ""recordClick(this)""><div class = content><div class = numbers>3</div></div></button><button id = button_4 class = ""square num-button"" onclick = ""recordClick(this)""><div class = content><div class = numbers>4</div></div></button><button id = button_5 class = ""square num-button"" onclick = ""recordClick(this)""><div class = content><div class = numbers>5</div></div></button><button id = button_6 class = ""square num-button"" onclick = ""recordClick(this)""><div class = content><div class = numbers>6</div></div></button><button id = button_7 class = ""square num-button"" onclick = ""recordClick(this)""><div class = content><div class = numbers>7</div></div></button><button id = button_8 class = ""square num-button"" onclick = ""recordClick(this)""><div class = content><div class = numbers>8</div></div></button><button id = button_9 class = ""square num-button"" onclick = ""recordClick(this)""><div class = content><div class = numbers>9</div></div></button><button class = clear_button id = ""ClearButton"" onclick = ""clearResponse()"">Clear</button><p><u><b>Current Answer:</b></u></p><div id=echoed_txt style=""font-size: 6rem; color:blue;""><b></b></div></div><br><br><br><br><br><br><br>",enter,fwdspan,response,ca9Ybt6NjFPkmz6yshl8t22qfzv1,html-keyboard-response,98,433975,0.0-7.0-2.8-0.8-3.8,5.0,"[4,9,6,1,2]","[4,9,6,1,2]",1.0,"[3, 4, 5, 6, 6, 5, 5, 4, 5, 6, 6, 7]",,5f5f66b2c050a00169ba939c,11:19:33,15/01/2024
,,,fwdspan,update_span,ca9Ybt6NjFPkmz6yshl8t22qfzv1,call-function,99,434232,0.0-7.0-2.8-0.8-4.8,,,,,,,5f5f66b2c050a00169ba939c,11:19:33,15/01/2024
516.1000000089407,"<p style=""font-size:3rem"">Trial 10 of 12</p><br><br><br>",0,fwdspan,start_trial,ca9Ybt6NjFPkmz6yshl8t22qfzv1,html-button-response,100,434749,0.0-7.0-2.9-0.9-0.9,,,,,,,5f5f66b2c050a00169ba939c,11:19:33,15/01/2024
,"<p style=""font-size:14rem;font-weight:400;"">8</p>",,fwdspan,number,ca9Ybt6NjFPkmz6yshl8t22qfzv1,html-keyboard-response,101,435768,0.0-7.0-2.9-0.9-1.43-0.43,,,,,,,5f5f66b2c050a00169ba939c,11:19:33,15/01/2024
,"<p style=""font-size:14rem;font-weight:400;"">9</p>",,fwdspan,number,ca9Ybt6NjFPkmz6yshl8t22qfzv1,html-keyboard-response,102,436787,0.0-7.0-2.9-0.9-1.44-0.44,,,,,,,5f5f66b2c050a00169ba939c,11:19:33,15/01/2024
,"<p style=""font-size:14rem;font-weight:400;"">7</p>",,fwdspan,number,ca9Ybt6NjFPkmz6yshl8t22qfzv1,html-keyboard-response,103,437805,0.0-7.0-2.9-0.9-1.45-0.45,,,,,,,5f5f66b2c050a00169ba939c,11:19:33,15/01/2024
,"<p style=""font-size:14rem;font-weight:400;"">1</p>",,fwdspan,number,ca9Ybt6NjFPkmz6yshl8t22qfzv1,html-keyboard-response,104,438835,0.0-7.0-2.9-0.9-1.46-0.46,,,,,,,5f5f66b2c050a00169ba939c,11:19:33,15/01/2024
,"<p style=""font-size:14rem;font-weight:400;"">3</p>",,fwdspan,number,ca9Ybt6NjFPkmz6yshl8t22qfzv1,html-keyboard-response,105,439854,0.0-7.0-2.9-0.9-1.47-0.47,,,,,,,5f5f66b2c050a00169ba939c,11:19:33,15/01/2024
,"<p style=""font-size:14rem;font-weight:400;"">2</p>",,fwdspan,number,ca9Ybt6NjFPkmz6yshl8t22qfzv1,html-keyboard-response,106,440872,0.0-7.0-2.9-0.9-1.48-0.48,,,,,,,5f5f66b2c050a00169ba939c,11:19:33,15/01/2024
,[],,fwdspan,delay,ca9Ybt6NjFPkmz6yshl8t22qfzv1,html-keyboard-response,107,441438,0.0-7.0-2.9-0.9-2.9,,,,,,,5f5f66b2c050a00169ba939c,11:19:33,15/01/2024
7599.29999999702,"<div class = numbox><p style=""font-size:2.5rem"">What were the numbers <b>in order</b>?<br>(When you are ready to lock in your answer, press <b>ENTER</b>)</p><button id = button_1 class = ""square num-button"" onclick = ""recordClick(this)""><div class = content><div class = numbers>1</div></div></button><button id = button_2 class = ""square num-button"" onclick = ""recordClick(this)""><div class = content><div class = numbers>2</div></div></button><button id = button_3 class = ""square num-button"" onclick = ""recordClick(this)""><div class = content><div class = numbers>3</div></div></button><button id = button_4 class = ""square num-button"" onclick = ""recordClick(this)""><div class = content><div class = numbers>4</div></div></button><button id = button_5 class = ""square num-button"" onclick = ""recordClick(this)""><div class = content><div class = numbers>5</div></div></button><button id = button_6 class = ""square num-button"" onclick = ""recordClick(this)""><div class = content><div class = numbers>6</div></div></button><button id = button_7 class = ""square num-button"" onclick = ""recordClick(this)""><div class = content><div class = numbers>7</div></div></button><button id = button_8 class = ""square num-button"" onclick = ""recordClick(this)""><div class = content><div class = numbers>8</div></div></button><button id = button_9 class = ""square num-button"" onclick = ""recordClick(this)""><div class = content><div class = numbers>9</div></div></button><button class = clear_button id = ""ClearButton"" onclick = ""clearResponse()"">Clear</button><p><u><b>Current Answer:</b></u></p><div id=echoed_txt style=""font-size: 6rem; color:blue;""><b></b></div></div><br><br><br><br><br><br><br>",enter,fwdspan,response,ca9Ybt6NjFPkmz6yshl8t22qfzv1,html-keyboard-response,108,449040,0.0-7.0-2.9-0.9-3.9,6.0,"[6,7,8,3,2]","[8,9,7,1,3,2]",0.0,"[3, 4, 5, 6, 6, 5, 5, 4, 5, 6, 6, 7]",,5f5f66b2c050a00169ba939c,11:19:33,15/01/2024
,,,fwdspan,update_span,ca9Ybt6NjFPkmz6yshl8t22qfzv1,call-function,109,449298,0.0-7.0-2.9-0.9-4.9,,,,,,,5f5f66b2c050a00169ba939c,11:19:33,15/01/2024
790.7000000029802,"<p style=""font-size:3rem"">Trial 11 of 12</p><br><br><br>",0,fwdspan,start_trial,ca9Ybt6NjFPkmz6yshl8t22qfzv1,html-button-response,110,450090,0.0-7.0-2.10-0.10-0.10,,,,,,,5f5f66b2c050a00169ba939c,11:19:33,15/01/2024
,"<p style=""font-size:14rem;font-weight:400;"">9</p>",,fwdspan,number,ca9Ybt6NjFPkmz6yshl8t22qfzv1,html-keyboard-response,111,451103,0.0-7.0-2.10-0.10-1.49-0.49,,,,,,,5f5f66b2c050a00169ba939c,11:19:33,15/01/2024
,"<p style=""font-size:14rem;font-weight:400;"">3</p>",,fwdspan,number,ca9Ybt6NjFPkmz6yshl8t22qfzv1,html-keyboard-response,112,452135,0.0-7.0-2.10-0.10-1.50-0.50,,,,,,,5f5f66b2c050a00169ba939c,11:19:33,15/01/2024
,"<p style=""font-size:14rem;font-weight:400;"">6</p>",,fwdspan,number,ca9Ybt6NjFPkmz6yshl8t22qfzv1,html-keyboard-response,113,453150,0.0-7.0-2.10-0.10-1.51-0.51,,,,,,,5f5f66b2c050a00169ba939c,11:19:33,15/01/2024
,"<p style=""font-size:14rem;font-weight:400;"">2</p>",,fwdspan,number,ca9Ybt6NjFPkmz6yshl8t22qfzv1,html-keyboard-response,114,454153,0.0-7.0-2.10-0.10-1.52-0.52,,,,,,,5f5f66b2c050a00169ba939c,11:19:33,15/01/2024
,"<p style=""font-size:14rem;font-weight:400;"">4</p>",,fwdspan,number,ca9Ybt6NjFPkmz6yshl8t22qfzv1,html-keyboard-response,115,455168,0.0-7.0-2.10-0.10-1.53-0.53,,,,,,,5f5f66b2c050a00169ba939c,11:19:33,15/01/2024
,"<p style=""font-size:14rem;font-weight:400;"">8</p>",,fwdspan,number,ca9Ybt6NjFPkmz6yshl8t22qfzv1,html-keyboard-response,116,456184,0.0-7.0-2.10-0.10-1.54-0.54,,,,,,,5f5f66b2c050a00169ba939c,11:19:33,15/01/2024
,[],,fwdspan,delay,ca9Ybt6NjFPkmz6yshl8t22qfzv1,html-keyboard-response,117,456753,0.0-7.0-2.10-0.10-2.10,,,,,,,5f5f66b2c050a00169ba939c,11:19:33,15/01/2024
4117.0,"<div class = numbox><p style=""font-size:2.5rem"">What were the numbers <b>in order</b>?<br>(When you are ready to lock in your answer, press <b>ENTER</b>)</p><button id = button_1 class = ""square num-button"" onclick = ""recordClick(this)""><div class = content><div class = numbers>1</div></div></button><button id = button_2 class = ""square num-button"" onclick = ""recordClick(this)""><div class = content><div class = numbers>2</div></div></button><button id = button_3 class = ""square num-button"" onclick = ""recordClick(this)""><div class = content><div class = numbers>3</div></div></button><button id = button_4 class = ""square num-button"" onclick = ""recordClick(this)""><div class = content><div class = numbers>4</div></div></button><button id = button_5 class = ""square num-button"" onclick = ""recordClick(this)""><div class = content><div class = numbers>5</div></div></button><button id = button_6 class = ""square num-button"" onclick = ""recordClick(this)""><div class = content><div class = numbers>6</div></div></button><button id = button_7 class = ""square num-button"" onclick = ""recordClick(this)""><div class = content><div class = numbers>7</div></div></button><button id = button_8 class = ""square num-button"" onclick = ""recordClick(this)""><div class = content><div class = numbers>8</div></div></button><button id = button_9 class = ""square num-button"" onclick = ""recordClick(this)""><div class = content><div class = numbers>9</div></div></button><button class = clear_button id = ""ClearButton"" onclick = ""clearResponse()"">Clear</button><p><u><b>Current Answer:</b></u></p><div id=echoed_txt style=""font-size: 6rem; color:blue;""><b></b></div></div><br><br><br><br><br><br><br>",enter,fwdspan,response,ca9Ybt6NjFPkmz6yshl8t22qfzv1,html-keyboard-response,118,460872,0.0-7.0-2.10-0.10-3.10,6.0,"[9,3,6,2,4,8]","[9,3,6,2,4,8]",1.0,"[3, 4, 5, 6, 6, 5, 5, 4, 5, 6, 6, 7]",,5f5f66b2c050a00169ba939c,11:19:33,15/01/2024
,,,fwdspan,update_span,ca9Ybt6NjFPkmz6yshl8t22qfzv1,call-function,119,461127,0.0-7.0-2.10-0.10-4.10,,,,,,,5f5f66b2c050a00169ba939c,11:19:33,15/01/2024
1049.7999999970198,"<p style=""font-size:3rem"">Trial 12 of 12</p><br><br><br>",0,fwdspan,start_trial,ca9Ybt6NjFPkmz6yshl8t22qfzv1,html-button-response,120,462178,0.0-7.0-2.11-0.11-0.11,,,,,,,5f5f66b2c050a00169ba939c,11:19:33,15/01/2024
,"<p style=""font-size:14rem;font-weight:400;"">1</p>",,fwdspan,number,ca9Ybt6NjFPkmz6yshl8t22qfzv1,html-keyboard-response,121,463181,0.0-7.0-2.11-0.11-1.55-0.55,,,,,,,5f5f66b2c050a00169ba939c,11:19:33,15/01/2024
,"<p style=""font-size:14rem;font-weight:400;"">9</p>",,fwdspan,number,ca9Ybt6NjFPkmz6yshl8t22qfzv1,html-keyboard-response,122,464184,0.0-7.0-2.11-0.11-1.56-0.56,,,,,,,5f5f66b2c050a00169ba939c,11:19:33,15/01/2024
,"<p style=""font-size:14rem;font-weight:400;"">7</p>",,fwdspan,number,ca9Ybt6NjFPkmz6yshl8t22qfzv1,html-keyboard-response,123,465214,0.0-7.0-2.11-0.11-1.57-0.57,,,,,,,5f5f66b2c050a00169ba939c,11:19:33,15/01/2024
,"<p style=""font-size:14rem;font-weight:400;"">6</p>",,fwdspan,number,ca9Ybt6NjFPkmz6yshl8t22qfzv1,html-keyboard-response,124,466234,0.0-7.0-2.11-0.11-1.58-0.58,,,,,,,5f5f66b2c050a00169ba939c,11:19:33,15/01/2024
,"<p style=""font-size:14rem;font-weight:400;"">3</p>",,fwdspan,number,ca9Ybt6NjFPkmz6yshl8t22qfzv1,html-keyboard-response,125,467251,0.0-7.0-2.11-0.11-1.59-0.59,,,,,,,5f5f66b2c050a00169ba939c,11:19:33,15/01/2024
,"<p style=""font-size:14rem;font-weight:400;"">5</p>",,fwdspan,number,ca9Ybt6NjFPkmz6yshl8t22qfzv1,html-keyboard-response,126,468265,0.0-7.0-2.11-0.11-1.60-0.60,,,,,,,5f5f66b2c050a00169ba939c,11:19:33,15/01/2024
,"<p style=""font-size:14rem;font-weight:400;"">4</p>",,fwdspan,number,ca9Ybt6NjFPkmz6yshl8t22qfzv1,html-keyboard-response,127,469283,0.0-7.0-2.11-0.11-1.61-0.61,,,,,,,5f5f66b2c050a00169ba939c,11:19:33,15/01/2024
,[],,fwdspan,delay,ca9Ybt6NjFPkmz6yshl8t22qfzv1,html-keyboard-response,128,469851,0.0-7.0-2.11-0.11-2.11,,,,,,,5f5f66b2c050a00169ba939c,11:19:33,15/01/2024
6266.70000000298,"<div class = numbox><p style=""font-size:2.5rem"">What were the numbers <b>in order</b>?<br>(When you are ready to lock in your answer, press <b>ENTER</b>)</p><button id = button_1 class = ""square num-button"" onclick = ""recordClick(this)""><div class = content><div class = numbers>1</div></div></button><button id = button_2 class = ""square num-button"" onclick = ""recordClick(this)""><div class = content><div class = numbers>2</div></div></button><button id = button_3 class = ""square num-button"" onclick = ""recordClick(this)""><div class = content><div class = numbers>3</div></div></button><button id = button_4 class = ""square num-button"" onclick = ""recordClick(this)""><div class = content><div class = numbers>4</div></div></button><button id = button_5 class = ""square num-button"" onclick = ""recordClick(this)""><div class = content><div class = numbers>5</div></div></button><button id = button_6 class = ""square num-button"" onclick = ""recordClick(this)""><div class = content><div class = numbers>6</div></div></button><button id = button_7 class = ""square num-button"" onclick = ""recordClick(this)""><div class = content><div class = numbers>7</div></div></button><button id = button_8 class = ""square num-button"" onclick = ""recordClick(this)""><div class = content><div class = numbers>8</div></div></button><button id = button_9 class = ""square num-button"" onclick = ""recordClick(this)""><div class = content><div class = numbers>9</div></div></button><button class = clear_button id = ""ClearButton"" onclick = ""clearResponse()"">Clear</button><p><u><b>Current Answer:</b></u></p><div id=echoed_txt style=""font-size: 6rem; color:blue;""><b></b></div></div><br><br><br><br><br><br><br>",enter,fwdspan,response,ca9Ybt6NjFPkmz6yshl8t22qfzv1,html-keyboard-response,129,476120,0.0-7.0-2.11-0.11-3.11,7.0,"[1,9,7,6,3,4]","[1,9,7,6,3,5,4]",0.0,"[3, 4, 5, 6, 6, 5, 5, 4, 5, 6, 6, 7]",,5f5f66b2c050a00169ba939c,11:19:33,15/01/2024
,,,fwdspan,update_span,ca9Ybt6NjFPkmz6yshl8t22qfzv1,call-function,130,476377,0.0-7.0-2.11-0.11-4.11,,,,,,,5f5f66b2c050a00169ba939c,11:19:33,15/01/2024
12482.29999999702,,{'Q0': 'It was fun to challenge myself to remember the numbers'},fwdspan,survey,ca9Ybt6NjFPkmz6yshl8t22qfzv1,lmdlab-survey-text,131,489612,0.0-7.0-3.0,,,,,,ca9Ybt6NjFPkmz6yshl8t22qfzv1,5f5f66b2c050a00169ba939c,11:19:33,15/01/2024
1012.6000000089407,<p><p style='font-size: 3rem'>Great work!<br><br>This completes the digit span task.</p><br><br><br>,0,fwdspan,finish,ca9Ybt6NjFPkmz6yshl8t22qfzv1,html-button-response,132,490627,0.0-7.0-4.0,,,,,,,5f5f66b2c050a00169ba939c,11:19:33,15/01/2024
