rt,stimulus,response,exp_name,exp_stage,subjectID,trial_type,trial_index,time_elapsed,internal_node_id,span,answer,correct,correct_full,span_history,databaseID,prolificID,start_time,date
3676.5,"<p style=""font-size:4rem""><br><br>In the next part today, we have a completely different short task.<br><br><br>This part involves keeping numbers in you mind. Participation takes around 5 minutes.<br><br><br></p>",0,fwdspan,instruct,p5Jz8lwDxTdEyU4ApDpV8tfLwOV2,html-button-response,19,362525,0.0-7.0-0.0,,,,,,,58542426733c730001a5d1f4,14:38:32,15/01/2024
10223.399999976158,"<p style=""font-size:5rem"">Welcome to the <b>digit span task</b>!<br><br></p><p style=""font-size:3.4rem""><br>On each trial, you will see a sequence of digits, followed by a delay.</p><p style=""font-size:3.4rem""><br>Then you will be asked to type them back in the same order in which they were seen.</p><p style=""font-size:3.4rem""><br><br><br>For example, if you saw the digits <b style=""color:blue;"">1</b>, <b style=""color:blue;"">2</b>, <b style=""color:blue;"">3</b>, you would respond with <b style=""color:blue;"">1</b>, <b style=""color:blue;"">2</b>, <b style=""color:blue;"">3</b></p><p style=""font-size:3.4rem""><br><br><br>To ensure the best measure of true performance for our study,<br><br>it is very important that you do not use any memory aid (e.g., pen and paper).<br><br>Please do the task solely in your head.</p><p style=""font-size:3.4rem""><br><br><br>There will be 12 total trials. Participation takes around 5 minutes.</p><br><br><br>",0,fwdspan,instruct,p5Jz8lwDxTdEyU4ApDpV8tfLwOV2,html-button-response,20,372749,0.0-7.0-1.0,,,,,,,58542426733c730001a5d1f4,14:38:32,15/01/2024
1198.199999988079,"<p style=""font-size:3rem"">Trial 1 of 12</p><br><br><br>",0,fwdspan,start_trial,p5Jz8lwDxTdEyU4ApDpV8tfLwOV2,html-button-response,21,373949,0.0-7.0-2.0-0.0-0.0,,,,,,,58542426733c730001a5d1f4,14:38:32,15/01/2024
,"<p style=""font-size:14rem;font-weight:400;"">7</p>",,fwdspan,number,p5Jz8lwDxTdEyU4ApDpV8tfLwOV2,html-keyboard-response,22,374958,0.0-7.0-2.0-0.0-1.0-0.0,,,,,,,58542426733c730001a5d1f4,14:38:32,15/01/2024
,"<p style=""font-size:14rem;font-weight:400;"">9</p>",,fwdspan,number,p5Jz8lwDxTdEyU4ApDpV8tfLwOV2,html-keyboard-response,23,375971,0.0-7.0-2.0-0.0-1.1-0.1,,,,,,,58542426733c730001a5d1f4,14:38:32,15/01/2024
,"<p style=""font-size:14rem;font-weight:400;"">5</p>",,fwdspan,number,p5Jz8lwDxTdEyU4ApDpV8tfLwOV2,html-keyboard-response,24,376996,0.0-7.0-2.0-0.0-1.2-0.2,,,,,,,58542426733c730001a5d1f4,14:38:32,15/01/2024
,[],,fwdspan,delay,p5Jz8lwDxTdEyU4ApDpV8tfLwOV2,html-keyboard-response,25,377556,0.0-7.0-2.0-0.0-2.0,,,,,,,58542426733c730001a5d1f4,14:38:32,15/01/2024
5393.399999976158,"<div class = numbox><p style=""font-size:2.5rem"">What were the numbers <b>in order</b>?<br>(When you are ready to lock in your answer, press <b>ENTER</b>)</p><button id = button_1 class = ""square num-button"" onclick = ""recordClick(this)""><div class = content><div class = numbers>1</div></div></button><button id = button_2 class = ""square num-button"" onclick = ""recordClick(this)""><div class = content><div class = numbers>2</div></div></button><button id = button_3 class = ""square num-button"" onclick = ""recordClick(this)""><div class = content><div class = numbers>3</div></div></button><button id = button_4 class = ""square num-button"" onclick = ""recordClick(this)""><div class = content><div class = numbers>4</div></div></button><button id = button_5 class = ""square num-button"" onclick = ""recordClick(this)""><div class = content><div class = numbers>5</div></div></button><button id = button_6 class = ""square num-button"" onclick = ""recordClick(this)""><div class = content><div class = numbers>6</div></div></button><button id = button_7 class = ""square num-button"" onclick = ""recordClick(this)""><div class = content><div class = numbers>7</div></div></button><button id = button_8 class = ""square num-button"" onclick = ""recordClick(this)""><div class = content><div class = numbers>8</div></div></button><button id = button_9 class = ""square num-button"" onclick = ""recordClick(this)""><div class = content><div class = numbers>9</div></div></button><button class = clear_button id = ""ClearButton"" onclick = ""clearResponse()"">Clear</button><p><u><b>Current Answer:</b></u></p><div id=echoed_txt style=""font-size: 6rem; color:blue;""><b></b></div></div><br><br><br><br><br><br><br>",enter,fwdspan,response,p5Jz8lwDxTdEyU4ApDpV8tfLwOV2,html-keyboard-response,26,382950,0.0-7.0-2.0-0.0-3.0,3.0,"[7,9,5]","[7,9,5]",1.0,"[3, 4, 5, 6, 7, 7, 8, 8, 7, 7, 6, 7]",,58542426733c730001a5d1f4,14:38:32,15/01/2024
,,,fwdspan,update_span,p5Jz8lwDxTdEyU4ApDpV8tfLwOV2,call-function,27,383205,0.0-7.0-2.0-0.0-4.0,,,,,,,58542426733c730001a5d1f4,14:38:32,15/01/2024
1456.199999988079,"<p style=""font-size:3rem"">Trial 2 of 12</p><br><br><br>",0,fwdspan,start_trial,p5Jz8lwDxTdEyU4ApDpV8tfLwOV2,html-button-response,28,384661,0.0-7.0-2.1-0.1-0.1,,,,,,,58542426733c730001a5d1f4,14:38:32,15/01/2024
,"<p style=""font-size:14rem;font-weight:400;"">3</p>",,fwdspan,number,p5Jz8lwDxTdEyU4ApDpV8tfLwOV2,html-keyboard-response,29,385684,0.0-7.0-2.1-0.1-1.3-0.3,,,,,,,58542426733c730001a5d1f4,14:38:32,15/01/2024
,"<p style=""font-size:14rem;font-weight:400;"">9</p>",,fwdspan,number,p5Jz8lwDxTdEyU4ApDpV8tfLwOV2,html-keyboard-response,30,386697,0.0-7.0-2.1-0.1-1.4-0.4,,,,,,,58542426733c730001a5d1f4,14:38:32,15/01/2024
,"<p style=""font-size:14rem;font-weight:400;"">2</p>",,fwdspan,number,p5Jz8lwDxTdEyU4ApDpV8tfLwOV2,html-keyboard-response,31,387721,0.0-7.0-2.1-0.1-1.5-0.5,,,,,,,58542426733c730001a5d1f4,14:38:32,15/01/2024
,"<p style=""font-size:14rem;font-weight:400;"">1</p>",,fwdspan,number,p5Jz8lwDxTdEyU4ApDpV8tfLwOV2,html-keyboard-response,32,388730,0.0-7.0-2.1-0.1-1.6-0.6,,,,,,,58542426733c730001a5d1f4,14:38:32,15/01/2024
,[],,fwdspan,delay,p5Jz8lwDxTdEyU4ApDpV8tfLwOV2,html-keyboard-response,33,389290,0.0-7.0-2.1-0.1-2.1,,,,,,,58542426733c730001a5d1f4,14:38:32,15/01/2024
6507.399999976158,"<div class = numbox><p style=""font-size:2.5rem"">What were the numbers <b>in order</b>?<br>(When you are ready to lock in your answer, press <b>ENTER</b>)</p><button id = button_1 class = ""square num-button"" onclick = ""recordClick(this)""><div class = content><div class = numbers>1</div></div></button><button id = button_2 class = ""square num-button"" onclick = ""recordClick(this)""><div class = content><div class = numbers>2</div></div></button><button id = button_3 class = ""square num-button"" onclick = ""recordClick(this)""><div class = content><div class = numbers>3</div></div></button><button id = button_4 class = ""square num-button"" onclick = ""recordClick(this)""><div class = content><div class = numbers>4</div></div></button><button id = button_5 class = ""square num-button"" onclick = ""recordClick(this)""><div class = content><div class = numbers>5</div></div></button><button id = button_6 class = ""square num-button"" onclick = ""recordClick(this)""><div class = content><div class = numbers>6</div></div></button><button id = button_7 class = ""square num-button"" onclick = ""recordClick(this)""><div class = content><div class = numbers>7</div></div></button><button id = button_8 class = ""square num-button"" onclick = ""recordClick(this)""><div class = content><div class = numbers>8</div></div></button><button id = button_9 class = ""square num-button"" onclick = ""recordClick(this)""><div class = content><div class = numbers>9</div></div></button><button class = clear_button id = ""ClearButton"" onclick = ""clearResponse()"">Clear</button><p><u><b>Current Answer:</b></u></p><div id=echoed_txt style=""font-size: 6rem; color:blue;""><b></b></div></div><br><br><br><br><br><br><br>",enter,fwdspan,response,p5Jz8lwDxTdEyU4ApDpV8tfLwOV2,html-keyboard-response,34,395798,0.0-7.0-2.1-0.1-3.1,4.0,"[3,9,2,1]","[3,9,2,1]",1.0,"[3, 4, 5, 6, 7, 7, 8, 8, 7, 7, 6, 7]",,58542426733c730001a5d1f4,14:38:32,15/01/2024
,,,fwdspan,update_span,p5Jz8lwDxTdEyU4ApDpV8tfLwOV2,call-function,35,396058,0.0-7.0-2.1-0.1-4.1,,,,,,,58542426733c730001a5d1f4,14:38:32,15/01/2024
1082.9000000357628,"<p style=""font-size:3rem"">Trial 3 of 12</p><br><br><br>",0,fwdspan,start_trial,p5Jz8lwDxTdEyU4ApDpV8tfLwOV2,html-button-response,36,397141,0.0-7.0-2.2-0.2-0.2,,,,,,,58542426733c730001a5d1f4,14:38:32,15/01/2024
,"<p style=""font-size:14rem;font-weight:400;"">8</p>",,fwdspan,number,p5Jz8lwDxTdEyU4ApDpV8tfLwOV2,html-keyboard-response,37,398151,0.0-7.0-2.2-0.2-1.7-0.7,,,,,,,58542426733c730001a5d1f4,14:38:32,15/01/2024
,"<p style=""font-size:14rem;font-weight:400;"">3</p>",,fwdspan,number,p5Jz8lwDxTdEyU4ApDpV8tfLwOV2,html-keyboard-response,38,399178,0.0-7.0-2.2-0.2-1.8-0.8,,,,,,,58542426733c730001a5d1f4,14:38:32,15/01/2024
,"<p style=""font-size:14rem;font-weight:400;"">5</p>",,fwdspan,number,p5Jz8lwDxTdEyU4ApDpV8tfLwOV2,html-keyboard-response,39,400208,0.0-7.0-2.2-0.2-1.9-0.9,,,,,,,58542426733c730001a5d1f4,14:38:32,15/01/2024
,"<p style=""font-size:14rem;font-weight:400;"">2</p>",,fwdspan,number,p5Jz8lwDxTdEyU4ApDpV8tfLwOV2,html-keyboard-response,40,401248,0.0-7.0-2.2-0.2-1.10-0.10,,,,,,,58542426733c730001a5d1f4,14:38:32,15/01/2024
,"<p style=""font-size:14rem;font-weight:400;"">4</p>",,fwdspan,number,p5Jz8lwDxTdEyU4ApDpV8tfLwOV2,html-keyboard-response,41,402278,0.0-7.0-2.2-0.2-1.11-0.11,,,,,,,58542426733c730001a5d1f4,14:38:32,15/01/2024
,[],,fwdspan,delay,p5Jz8lwDxTdEyU4ApDpV8tfLwOV2,html-keyboard-response,42,402857,0.0-7.0-2.2-0.2-2.2,,,,,,,58542426733c730001a5d1f4,14:38:32,15/01/2024
4172.800000011921,"<div class = numbox><p style=""font-size:2.5rem"">What were the numbers <b>in order</b>?<br>(When you are ready to lock in your answer, press <b>ENTER</b>)</p><button id = button_1 class = ""square num-button"" onclick = ""recordClick(this)""><div class = content><div class = numbers>1</div></div></button><button id = button_2 class = ""square num-button"" onclick = ""recordClick(this)""><div class = content><div class = numbers>2</div></div></button><button id = button_3 class = ""square num-button"" onclick = ""recordClick(this)""><div class = content><div class = numbers>3</div></div></button><button id = button_4 class = ""square num-button"" onclick = ""recordClick(this)""><div class = content><div class = numbers>4</div></div></button><button id = button_5 class = ""square num-button"" onclick = ""recordClick(this)""><div class = content><div class = numbers>5</div></div></button><button id = button_6 class = ""square num-button"" onclick = ""recordClick(this)""><div class = content><div class = numbers>6</div></div></button><button id = button_7 class = ""square num-button"" onclick = ""recordClick(this)""><div class = content><div class = numbers>7</div></div></button><button id = button_8 class = ""square num-button"" onclick = ""recordClick(this)""><div class = content><div class = numbers>8</div></div></button><button id = button_9 class = ""square num-button"" onclick = ""recordClick(this)""><div class = content><div class = numbers>9</div></div></button><button class = clear_button id = ""ClearButton"" onclick = ""clearResponse()"">Clear</button><p><u><b>Current Answer:</b></u></p><div id=echoed_txt style=""font-size: 6rem; color:blue;""><b></b></div></div><br><br><br><br><br><br><br>",enter,fwdspan,response,p5Jz8lwDxTdEyU4ApDpV8tfLwOV2,html-keyboard-response,43,407030,0.0-7.0-2.2-0.2-3.2,5.0,"[8,3,5,2,4]","[8,3,5,2,4]",1.0,"[3, 4, 5, 6, 7, 7, 8, 8, 7, 7, 6, 7]",,58542426733c730001a5d1f4,14:38:32,15/01/2024
,,,fwdspan,update_span,p5Jz8lwDxTdEyU4ApDpV8tfLwOV2,call-function,44,407288,0.0-7.0-2.2-0.2-4.2,,,,,,,58542426733c730001a5d1f4,14:38:32,15/01/2024
1476.800000011921,"<p style=""font-size:3rem"">Trial 4 of 12</p><br><br><br>",0,fwdspan,start_trial,p5Jz8lwDxTdEyU4ApDpV8tfLwOV2,html-button-response,45,408765,0.0-7.0-2.3-0.3-0.3,,,,,,,58542426733c730001a5d1f4,14:38:32,15/01/2024
,"<p style=""font-size:14rem;font-weight:400;"">7</p>",,fwdspan,number,p5Jz8lwDxTdEyU4ApDpV8tfLwOV2,html-keyboard-response,46,409778,0.0-7.0-2.3-0.3-1.12-0.12,,,,,,,58542426733c730001a5d1f4,14:38:32,15/01/2024
,"<p style=""font-size:14rem;font-weight:400;"">8</p>",,fwdspan,number,p5Jz8lwDxTdEyU4ApDpV8tfLwOV2,html-keyboard-response,47,410808,0.0-7.0-2.3-0.3-1.13-0.13,,,,,,,58542426733c730001a5d1f4,14:38:32,15/01/2024
,"<p style=""font-size:14rem;font-weight:400;"">3</p>",,fwdspan,number,p5Jz8lwDxTdEyU4ApDpV8tfLwOV2,html-keyboard-response,48,411848,0.0-7.0-2.3-0.3-1.14-0.14,,,,,,,58542426733c730001a5d1f4,14:38:32,15/01/2024
,"<p style=""font-size:14rem;font-weight:400;"">6</p>",,fwdspan,number,p5Jz8lwDxTdEyU4ApDpV8tfLwOV2,html-keyboard-response,49,412878,0.0-7.0-2.3-0.3-1.15-0.15,,,,,,,58542426733c730001a5d1f4,14:38:32,15/01/2024
,"<p style=""font-size:14rem;font-weight:400;"">2</p>",,fwdspan,number,p5Jz8lwDxTdEyU4ApDpV8tfLwOV2,html-keyboard-response,50,413908,0.0-7.0-2.3-0.3-1.16-0.16,,,,,,,58542426733c730001a5d1f4,14:38:32,15/01/2024
,"<p style=""font-size:14rem;font-weight:400;"">9</p>",,fwdspan,number,p5Jz8lwDxTdEyU4ApDpV8tfLwOV2,html-keyboard-response,51,414948,0.0-7.0-2.3-0.3-1.17-0.17,,,,,,,58542426733c730001a5d1f4,14:38:32,15/01/2024
,[],,fwdspan,delay,p5Jz8lwDxTdEyU4ApDpV8tfLwOV2,html-keyboard-response,52,415501,0.0-7.0-2.3-0.3-2.3,,,,,,,58542426733c730001a5d1f4,14:38:32,15/01/2024
3848.899999976158,"<div class = numbox><p style=""font-size:2.5rem"">What were the numbers <b>in order</b>?<br>(When you are ready to lock in your answer, press <b>ENTER</b>)</p><button id = button_1 class = ""square num-button"" onclick = ""recordClick(this)""><div class = content><div class = numbers>1</div></div></button><button id = button_2 class = ""square num-button"" onclick = ""recordClick(this)""><div class = content><div class = numbers>2</div></div></button><button id = button_3 class = ""square num-button"" onclick = ""recordClick(this)""><div class = content><div class = numbers>3</div></div></button><button id = button_4 class = ""square num-button"" onclick = ""recordClick(this)""><div class = content><div class = numbers>4</div></div></button><button id = button_5 class = ""square num-button"" onclick = ""recordClick(this)""><div class = content><div class = numbers>5</div></div></button><button id = button_6 class = ""square num-button"" onclick = ""recordClick(this)""><div class = content><div class = numbers>6</div></div></button><button id = button_7 class = ""square num-button"" onclick = ""recordClick(this)""><div class = content><div class = numbers>7</div></div></button><button id = button_8 class = ""square num-button"" onclick = ""recordClick(this)""><div class = content><div class = numbers>8</div></div></button><button id = button_9 class = ""square num-button"" onclick = ""recordClick(this)""><div class = content><div class = numbers>9</div></div></button><button class = clear_button id = ""ClearButton"" onclick = ""clearResponse()"">Clear</button><p><u><b>Current Answer:</b></u></p><div id=echoed_txt style=""font-size: 6rem; color:blue;""><b></b></div></div><br><br><br><br><br><br><br>",enter,fwdspan,response,p5Jz8lwDxTdEyU4ApDpV8tfLwOV2,html-keyboard-response,53,419350,0.0-7.0-2.3-0.3-3.3,6.0,"[7,8,3,6,2,9]","[7,8,3,6,2,9]",1.0,"[3, 4, 5, 6, 7, 7, 8, 8, 7, 7, 6, 7]",,58542426733c730001a5d1f4,14:38:32,15/01/2024
,,,fwdspan,update_span,p5Jz8lwDxTdEyU4ApDpV8tfLwOV2,call-function,54,419618,0.0-7.0-2.3-0.3-4.3,,,,,,,58542426733c730001a5d1f4,14:38:32,15/01/2024
882.6000000238419,"<p style=""font-size:3rem"">Trial 5 of 12</p><br><br><br>",0,fwdspan,start_trial,p5Jz8lwDxTdEyU4ApDpV8tfLwOV2,html-button-response,55,420501,0.0-7.0-2.4-0.4-0.4,,,,,,,58542426733c730001a5d1f4,14:38:32,15/01/2024
,"<p style=""font-size:14rem;font-weight:400;"">3</p>",,fwdspan,number,p5Jz8lwDxTdEyU4ApDpV8tfLwOV2,html-keyboard-response,56,421528,0.0-7.0-2.4-0.4-1.18-0.18,,,,,,,58542426733c730001a5d1f4,14:38:32,15/01/2024
,"<p style=""font-size:14rem;font-weight:400;"">1</p>",,fwdspan,number,p5Jz8lwDxTdEyU4ApDpV8tfLwOV2,html-keyboard-response,57,422554,0.0-7.0-2.4-0.4-1.19-0.19,,,,,,,58542426733c730001a5d1f4,14:38:32,15/01/2024
,"<p style=""font-size:14rem;font-weight:400;"">2</p>",,fwdspan,number,p5Jz8lwDxTdEyU4ApDpV8tfLwOV2,html-keyboard-response,58,423598,0.0-7.0-2.4-0.4-1.20-0.20,,,,,,,58542426733c730001a5d1f4,14:38:32,15/01/2024
,"<p style=""font-size:14rem;font-weight:400;"">9</p>",,fwdspan,number,p5Jz8lwDxTdEyU4ApDpV8tfLwOV2,html-keyboard-response,59,424628,0.0-7.0-2.4-0.4-1.21-0.21,,,,,,,58542426733c730001a5d1f4,14:38:32,15/01/2024
,"<p style=""font-size:14rem;font-weight:400;"">5</p>",,fwdspan,number,p5Jz8lwDxTdEyU4ApDpV8tfLwOV2,html-keyboard-response,60,425655,0.0-7.0-2.4-0.4-1.22-0.22,,,,,,,58542426733c730001a5d1f4,14:38:32,15/01/2024
,"<p style=""font-size:14rem;font-weight:400;"">4</p>",,fwdspan,number,p5Jz8lwDxTdEyU4ApDpV8tfLwOV2,html-keyboard-response,61,426698,0.0-7.0-2.4-0.4-1.23-0.23,,,,,,,58542426733c730001a5d1f4,14:38:32,15/01/2024
,"<p style=""font-size:14rem;font-weight:400;"">6</p>",,fwdspan,number,p5Jz8lwDxTdEyU4ApDpV8tfLwOV2,html-keyboard-response,62,427728,0.0-7.0-2.4-0.4-1.24-0.24,,,,,,,58542426733c730001a5d1f4,14:38:32,15/01/2024
,[],,fwdspan,delay,p5Jz8lwDxTdEyU4ApDpV8tfLwOV2,html-keyboard-response,63,428307,0.0-7.0-2.4-0.4-2.4,,,,,,,58542426733c730001a5d1f4,14:38:32,15/01/2024
7809.899999976158,"<div class = numbox><p style=""font-size:2.5rem"">What were the numbers <b>in order</b>?<br>(When you are ready to lock in your answer, press <b>ENTER</b>)</p><button id = button_1 class = ""square num-button"" onclick = ""recordClick(this)""><div class = content><div class = numbers>1</div></div></button><button id = button_2 class = ""square num-button"" onclick = ""recordClick(this)""><div class = content><div class = numbers>2</div></div></button><button id = button_3 class = ""square num-button"" onclick = ""recordClick(this)""><div class = content><div class = numbers>3</div></div></button><button id = button_4 class = ""square num-button"" onclick = ""recordClick(this)""><div class = content><div class = numbers>4</div></div></button><button id = button_5 class = ""square num-button"" onclick = ""recordClick(this)""><div class = content><div class = numbers>5</div></div></button><button id = button_6 class = ""square num-button"" onclick = ""recordClick(this)""><div class = content><div class = numbers>6</div></div></button><button id = button_7 class = ""square num-button"" onclick = ""recordClick(this)""><div class = content><div class = numbers>7</div></div></button><button id = button_8 class = ""square num-button"" onclick = ""recordClick(this)""><div class = content><div class = numbers>8</div></div></button><button id = button_9 class = ""square num-button"" onclick = ""recordClick(this)""><div class = content><div class = numbers>9</div></div></button><button class = clear_button id = ""ClearButton"" onclick = ""clearResponse()"">Clear</button><p><u><b>Current Answer:</b></u></p><div id=echoed_txt style=""font-size: 6rem; color:blue;""><b></b></div></div><br><br><br><br><br><br><br>",enter,fwdspan,response,p5Jz8lwDxTdEyU4ApDpV8tfLwOV2,html-keyboard-response,64,436118,0.0-7.0-2.4-0.4-3.4,7.0,"[3,1,2,5,9,4,6]","[3,1,2,9,5,4,6]",0.0,"[3, 4, 5, 6, 7, 7, 8, 8, 7, 7, 6, 7]",,58542426733c730001a5d1f4,14:38:32,15/01/2024
,,,fwdspan,update_span,p5Jz8lwDxTdEyU4ApDpV8tfLwOV2,call-function,65,436388,0.0-7.0-2.4-0.4-4.4,,,,,,,58542426733c730001a5d1f4,14:38:32,15/01/2024
856.8000000119209,"<p style=""font-size:3rem"">Trial 6 of 12</p><br><br><br>",0,fwdspan,start_trial,p5Jz8lwDxTdEyU4ApDpV8tfLwOV2,html-button-response,66,437245,0.0-7.0-2.5-0.5-0.5,,,,,,,58542426733c730001a5d1f4,14:38:32,15/01/2024
,"<p style=""font-size:14rem;font-weight:400;"">4</p>",,fwdspan,number,p5Jz8lwDxTdEyU4ApDpV8tfLwOV2,html-keyboard-response,67,438278,0.0-7.0-2.5-0.5-1.25-0.25,,,,,,,58542426733c730001a5d1f4,14:38:32,15/01/2024
,"<p style=""font-size:14rem;font-weight:400;"">3</p>",,fwdspan,number,p5Jz8lwDxTdEyU4ApDpV8tfLwOV2,html-keyboard-response,68,439308,0.0-7.0-2.5-0.5-1.26-0.26,,,,,,,58542426733c730001a5d1f4,14:38:32,15/01/2024
,"<p style=""font-size:14rem;font-weight:400;"">6</p>",,fwdspan,number,p5Jz8lwDxTdEyU4ApDpV8tfLwOV2,html-keyboard-response,69,440348,0.0-7.0-2.5-0.5-1.27-0.27,,,,,,,58542426733c730001a5d1f4,14:38:32,15/01/2024
,"<p style=""font-size:14rem;font-weight:400;"">1</p>",,fwdspan,number,p5Jz8lwDxTdEyU4ApDpV8tfLwOV2,html-keyboard-response,70,441378,0.0-7.0-2.5-0.5-1.28-0.28,,,,,,,58542426733c730001a5d1f4,14:38:32,15/01/2024
,"<p style=""font-size:14rem;font-weight:400;"">8</p>",,fwdspan,number,p5Jz8lwDxTdEyU4ApDpV8tfLwOV2,html-keyboard-response,71,442408,0.0-7.0-2.5-0.5-1.29-0.29,,,,,,,58542426733c730001a5d1f4,14:38:32,15/01/2024
,"<p style=""font-size:14rem;font-weight:400;"">9</p>",,fwdspan,number,p5Jz8lwDxTdEyU4ApDpV8tfLwOV2,html-keyboard-response,72,443448,0.0-7.0-2.5-0.5-1.30-0.30,,,,,,,58542426733c730001a5d1f4,14:38:32,15/01/2024
,"<p style=""font-size:14rem;font-weight:400;"">5</p>",,fwdspan,number,p5Jz8lwDxTdEyU4ApDpV8tfLwOV2,html-keyboard-response,73,444478,0.0-7.0-2.5-0.5-1.31-0.31,,,,,,,58542426733c730001a5d1f4,14:38:32,15/01/2024
,[],,fwdspan,delay,p5Jz8lwDxTdEyU4ApDpV8tfLwOV2,html-keyboard-response,74,445058,0.0-7.0-2.5-0.5-2.5,,,,,,,58542426733c730001a5d1f4,14:38:32,15/01/2024
7203.699999988079,"<div class = numbox><p style=""font-size:2.5rem"">What were the numbers <b>in order</b>?<br>(When you are ready to lock in your answer, press <b>ENTER</b>)</p><button id = button_1 class = ""square num-button"" onclick = ""recordClick(this)""><div class = content><div class = numbers>1</div></div></button><button id = button_2 class = ""square num-button"" onclick = ""recordClick(this)""><div class = content><div class = numbers>2</div></div></button><button id = button_3 class = ""square num-button"" onclick = ""recordClick(this)""><div class = content><div class = numbers>3</div></div></button><button id = button_4 class = ""square num-button"" onclick = ""recordClick(this)""><div class = content><div class = numbers>4</div></div></button><button id = button_5 class = ""square num-button"" onclick = ""recordClick(this)""><div class = content><div class = numbers>5</div></div></button><button id = button_6 class = ""square num-button"" onclick = ""recordClick(this)""><div class = content><div class = numbers>6</div></div></button><button id = button_7 class = ""square num-button"" onclick = ""recordClick(this)""><div class = content><div class = numbers>7</div></div></button><button id = button_8 class = ""square num-button"" onclick = ""recordClick(this)""><div class = content><div class = numbers>8</div></div></button><button id = button_9 class = ""square num-button"" onclick = ""recordClick(this)""><div class = content><div class = numbers>9</div></div></button><button class = clear_button id = ""ClearButton"" onclick = ""clearResponse()"">Clear</button><p><u><b>Current Answer:</b></u></p><div id=echoed_txt style=""font-size: 6rem; color:blue;""><b></b></div></div><br><br><br><br><br><br><br>",enter,fwdspan,response,p5Jz8lwDxTdEyU4ApDpV8tfLwOV2,html-keyboard-response,75,452262,0.0-7.0-2.5-0.5-3.5,7.0,"[4,3,6,1,8,9,5]","[4,3,6,1,8,9,5]",1.0,"[3, 4, 5, 6, 7, 7, 8, 8, 7, 7, 6, 7]",,58542426733c730001a5d1f4,14:38:32,15/01/2024
,,,fwdspan,update_span,p5Jz8lwDxTdEyU4ApDpV8tfLwOV2,call-function,76,452518,0.0-7.0-2.5-0.5-4.5,,,,,,,58542426733c730001a5d1f4,14:38:32,15/01/2024
2142.600000023842,"<p style=""font-size:3rem"">Trial 7 of 12</p><br><br><br>",0,fwdspan,start_trial,p5Jz8lwDxTdEyU4ApDpV8tfLwOV2,html-button-response,77,454661,0.0-7.0-2.6-0.6-0.6,,,,,,,58542426733c730001a5d1f4,14:38:32,15/01/2024
,"<p style=""font-size:14rem;font-weight:400;"">5</p>",,fwdspan,number,p5Jz8lwDxTdEyU4ApDpV8tfLwOV2,html-keyboard-response,78,455678,0.0-7.0-2.6-0.6-1.32-0.32,,,,,,,58542426733c730001a5d1f4,14:38:32,15/01/2024
,"<p style=""font-size:14rem;font-weight:400;"">4</p>",,fwdspan,number,p5Jz8lwDxTdEyU4ApDpV8tfLwOV2,html-keyboard-response,79,456708,0.0-7.0-2.6-0.6-1.33-0.33,,,,,,,58542426733c730001a5d1f4,14:38:32,15/01/2024
,"<p style=""font-size:14rem;font-weight:400;"">7</p>",,fwdspan,number,p5Jz8lwDxTdEyU4ApDpV8tfLwOV2,html-keyboard-response,80,457748,0.0-7.0-2.6-0.6-1.34-0.34,,,,,,,58542426733c730001a5d1f4,14:38:32,15/01/2024
,"<p style=""font-size:14rem;font-weight:400;"">8</p>",,fwdspan,number,p5Jz8lwDxTdEyU4ApDpV8tfLwOV2,html-keyboard-response,81,458778,0.0-7.0-2.6-0.6-1.35-0.35,,,,,,,58542426733c730001a5d1f4,14:38:32,15/01/2024
,"<p style=""font-size:14rem;font-weight:400;"">1</p>",,fwdspan,number,p5Jz8lwDxTdEyU4ApDpV8tfLwOV2,html-keyboard-response,82,459808,0.0-7.0-2.6-0.6-1.36-0.36,,,,,,,58542426733c730001a5d1f4,14:38:32,15/01/2024
,"<p style=""font-size:14rem;font-weight:400;"">2</p>",,fwdspan,number,p5Jz8lwDxTdEyU4ApDpV8tfLwOV2,html-keyboard-response,83,460848,0.0-7.0-2.6-0.6-1.37-0.37,,,,,,,58542426733c730001a5d1f4,14:38:32,15/01/2024
,"<p style=""font-size:14rem;font-weight:400;"">3</p>",,fwdspan,number,p5Jz8lwDxTdEyU4ApDpV8tfLwOV2,html-keyboard-response,84,461878,0.0-7.0-2.6-0.6-1.38-0.38,,,,,,,58542426733c730001a5d1f4,14:38:32,15/01/2024
,"<p style=""font-size:14rem;font-weight:400;"">9</p>",,fwdspan,number,p5Jz8lwDxTdEyU4ApDpV8tfLwOV2,html-keyboard-response,85,462908,0.0-7.0-2.6-0.6-1.39-0.39,,,,,,,58542426733c730001a5d1f4,14:38:32,15/01/2024
,[],,fwdspan,delay,p5Jz8lwDxTdEyU4ApDpV8tfLwOV2,html-keyboard-response,86,463488,0.0-7.0-2.6-0.6-2.6,,,,,,,58542426733c730001a5d1f4,14:38:32,15/01/2024
8709.800000011921,"<div class = numbox><p style=""font-size:2.5rem"">What were the numbers <b>in order</b>?<br>(When you are ready to lock in your answer, press <b>ENTER</b>)</p><button id = button_1 class = ""square num-button"" onclick = ""recordClick(this)""><div class = content><div class = numbers>1</div></div></button><button id = button_2 class = ""square num-button"" onclick = ""recordClick(this)""><div class = content><div class = numbers>2</div></div></button><button id = button_3 class = ""square num-button"" onclick = ""recordClick(this)""><div class = content><div class = numbers>3</div></div></button><button id = button_4 class = ""square num-button"" onclick = ""recordClick(this)""><div class = content><div class = numbers>4</div></div></button><button id = button_5 class = ""square num-button"" onclick = ""recordClick(this)""><div class = content><div class = numbers>5</div></div></button><button id = button_6 class = ""square num-button"" onclick = ""recordClick(this)""><div class = content><div class = numbers>6</div></div></button><button id = button_7 class = ""square num-button"" onclick = ""recordClick(this)""><div class = content><div class = numbers>7</div></div></button><button id = button_8 class = ""square num-button"" onclick = ""recordClick(this)""><div class = content><div class = numbers>8</div></div></button><button id = button_9 class = ""square num-button"" onclick = ""recordClick(this)""><div class = content><div class = numbers>9</div></div></button><button class = clear_button id = ""ClearButton"" onclick = ""clearResponse()"">Clear</button><p><u><b>Current Answer:</b></u></p><div id=echoed_txt style=""font-size: 6rem; color:blue;""><b></b></div></div><br><br><br><br><br><br><br>",enter,fwdspan,response,p5Jz8lwDxTdEyU4ApDpV8tfLwOV2,html-keyboard-response,87,472198,0.0-7.0-2.6-0.6-3.6,8.0,"[5,4,1,8,1,2,3,9]","[5,4,7,8,1,2,3,9]",0.0,"[3, 4, 5, 6, 7, 7, 8, 8, 7, 7, 6, 7]",,58542426733c730001a5d1f4,14:38:32,15/01/2024
,,,fwdspan,update_span,p5Jz8lwDxTdEyU4ApDpV8tfLwOV2,call-function,88,472468,0.0-7.0-2.6-0.6-4.6,,,,,,,58542426733c730001a5d1f4,14:38:32,15/01/2024
1361.199999988079,"<p style=""font-size:3rem"">Trial 8 of 12</p><br><br><br>",0,fwdspan,start_trial,p5Jz8lwDxTdEyU4ApDpV8tfLwOV2,html-button-response,89,473829,0.0-7.0-2.7-0.7-0.7,,,,,,,58542426733c730001a5d1f4,14:38:32,15/01/2024
,"<p style=""font-size:14rem;font-weight:400;"">3</p>",,fwdspan,number,p5Jz8lwDxTdEyU4ApDpV8tfLwOV2,html-keyboard-response,90,474868,0.0-7.0-2.7-0.7-1.40-0.40,,,,,,,58542426733c730001a5d1f4,14:38:32,15/01/2024
,"<p style=""font-size:14rem;font-weight:400;"">7</p>",,fwdspan,number,p5Jz8lwDxTdEyU4ApDpV8tfLwOV2,html-keyboard-response,91,475878,0.0-7.0-2.7-0.7-1.41-0.41,,,,,,,58542426733c730001a5d1f4,14:38:32,15/01/2024
,"<p style=""font-size:14rem;font-weight:400;"">5</p>",,fwdspan,number,p5Jz8lwDxTdEyU4ApDpV8tfLwOV2,html-keyboard-response,92,476905,0.0-7.0-2.7-0.7-1.42-0.42,,,,,,,58542426733c730001a5d1f4,14:38:32,15/01/2024
,"<p style=""font-size:14rem;font-weight:400;"">9</p>",,fwdspan,number,p5Jz8lwDxTdEyU4ApDpV8tfLwOV2,html-keyboard-response,93,477948,0.0-7.0-2.7-0.7-1.43-0.43,,,,,,,58542426733c730001a5d1f4,14:38:32,15/01/2024
,"<p style=""font-size:14rem;font-weight:400;"">6</p>",,fwdspan,number,p5Jz8lwDxTdEyU4ApDpV8tfLwOV2,html-keyboard-response,94,478978,0.0-7.0-2.7-0.7-1.44-0.44,,,,,,,58542426733c730001a5d1f4,14:38:32,15/01/2024
,"<p style=""font-size:14rem;font-weight:400;"">1</p>",,fwdspan,number,p5Jz8lwDxTdEyU4ApDpV8tfLwOV2,html-keyboard-response,95,480007,0.0-7.0-2.7-0.7-1.45-0.45,,,,,,,58542426733c730001a5d1f4,14:38:32,15/01/2024
,"<p style=""font-size:14rem;font-weight:400;"">4</p>",,fwdspan,number,p5Jz8lwDxTdEyU4ApDpV8tfLwOV2,html-keyboard-response,96,481048,0.0-7.0-2.7-0.7-1.46-0.46,,,,,,,58542426733c730001a5d1f4,14:38:32,15/01/2024
,"<p style=""font-size:14rem;font-weight:400;"">2</p>",,fwdspan,number,p5Jz8lwDxTdEyU4ApDpV8tfLwOV2,html-keyboard-response,97,482078,0.0-7.0-2.7-0.7-1.47-0.47,,,,,,,58542426733c730001a5d1f4,14:38:32,15/01/2024
,[],,fwdspan,delay,p5Jz8lwDxTdEyU4ApDpV8tfLwOV2,html-keyboard-response,98,482648,0.0-7.0-2.7-0.7-2.7,,,,,,,58542426733c730001a5d1f4,14:38:32,15/01/2024
8477.700000047684,"<div class = numbox><p style=""font-size:2.5rem"">What were the numbers <b>in order</b>?<br>(When you are ready to lock in your answer, press <b>ENTER</b>)</p><button id = button_1 class = ""square num-button"" onclick = ""recordClick(this)""><div class = content><div class = numbers>1</div></div></button><button id = button_2 class = ""square num-button"" onclick = ""recordClick(this)""><div class = content><div class = numbers>2</div></div></button><button id = button_3 class = ""square num-button"" onclick = ""recordClick(this)""><div class = content><div class = numbers>3</div></div></button><button id = button_4 class = ""square num-button"" onclick = ""recordClick(this)""><div class = content><div class = numbers>4</div></div></button><button id = button_5 class = ""square num-button"" onclick = ""recordClick(this)""><div class = content><div class = numbers>5</div></div></button><button id = button_6 class = ""square num-button"" onclick = ""recordClick(this)""><div class = content><div class = numbers>6</div></div></button><button id = button_7 class = ""square num-button"" onclick = ""recordClick(this)""><div class = content><div class = numbers>7</div></div></button><button id = button_8 class = ""square num-button"" onclick = ""recordClick(this)""><div class = content><div class = numbers>8</div></div></button><button id = button_9 class = ""square num-button"" onclick = ""recordClick(this)""><div class = content><div class = numbers>9</div></div></button><button class = clear_button id = ""ClearButton"" onclick = ""clearResponse()"">Clear</button><p><u><b>Current Answer:</b></u></p><div id=echoed_txt style=""font-size: 6rem; color:blue;""><b></b></div></div><br><br><br><br><br><br><br>",enter,fwdspan,response,p5Jz8lwDxTdEyU4ApDpV8tfLwOV2,html-keyboard-response,99,491126,0.0-7.0-2.7-0.7-3.7,8.0,"[3,7,5,9,4,1,6,2]","[3,7,5,9,6,1,4,2]",0.0,"[3, 4, 5, 6, 7, 7, 8, 8, 7, 7, 6, 7]",,58542426733c730001a5d1f4,14:38:32,15/01/2024
,,,fwdspan,update_span,p5Jz8lwDxTdEyU4ApDpV8tfLwOV2,call-function,100,491383,0.0-7.0-2.7-0.7-4.7,,,,,,,58542426733c730001a5d1f4,14:38:32,15/01/2024
869.6000000238419,"<p style=""font-size:3rem"">Trial 9 of 12</p><br><br><br>",0,fwdspan,start_trial,p5Jz8lwDxTdEyU4ApDpV8tfLwOV2,html-button-response,101,492253,0.0-7.0-2.8-0.8-0.8,,,,,,,58542426733c730001a5d1f4,14:38:32,15/01/2024
,"<p style=""font-size:14rem;font-weight:400;"">8</p>",,fwdspan,number,p5Jz8lwDxTdEyU4ApDpV8tfLwOV2,html-keyboard-response,102,493288,0.0-7.0-2.8-0.8-1.48-0.48,,,,,,,58542426733c730001a5d1f4,14:38:32,15/01/2024
,"<p style=""font-size:14rem;font-weight:400;"">6</p>",,fwdspan,number,p5Jz8lwDxTdEyU4ApDpV8tfLwOV2,html-keyboard-response,103,494315,0.0-7.0-2.8-0.8-1.49-0.49,,,,,,,58542426733c730001a5d1f4,14:38:32,15/01/2024
,"<p style=""font-size:14rem;font-weight:400;"">4</p>",,fwdspan,number,p5Jz8lwDxTdEyU4ApDpV8tfLwOV2,html-keyboard-response,104,495348,0.0-7.0-2.8-0.8-1.50-0.50,,,,,,,58542426733c730001a5d1f4,14:38:32,15/01/2024
,"<p style=""font-size:14rem;font-weight:400;"">7</p>",,fwdspan,number,p5Jz8lwDxTdEyU4ApDpV8tfLwOV2,html-keyboard-response,105,496388,0.0-7.0-2.8-0.8-1.51-0.51,,,,,,,58542426733c730001a5d1f4,14:38:32,15/01/2024
,"<p style=""font-size:14rem;font-weight:400;"">5</p>",,fwdspan,number,p5Jz8lwDxTdEyU4ApDpV8tfLwOV2,html-keyboard-response,106,497427,0.0-7.0-2.8-0.8-1.52-0.52,,,,,,,58542426733c730001a5d1f4,14:38:32,15/01/2024
,"<p style=""font-size:14rem;font-weight:400;"">9</p>",,fwdspan,number,p5Jz8lwDxTdEyU4ApDpV8tfLwOV2,html-keyboard-response,107,498448,0.0-7.0-2.8-0.8-1.53-0.53,,,,,,,58542426733c730001a5d1f4,14:38:32,15/01/2024
,"<p style=""font-size:14rem;font-weight:400;"">1</p>",,fwdspan,number,p5Jz8lwDxTdEyU4ApDpV8tfLwOV2,html-keyboard-response,108,499488,0.0-7.0-2.8-0.8-1.54-0.54,,,,,,,58542426733c730001a5d1f4,14:38:32,15/01/2024
,[],,fwdspan,delay,p5Jz8lwDxTdEyU4ApDpV8tfLwOV2,html-keyboard-response,109,500067,0.0-7.0-2.8-0.8-2.8,,,,,,,58542426733c730001a5d1f4,14:38:32,15/01/2024
8561.700000047684,"<div class = numbox><p style=""font-size:2.5rem"">What were the numbers <b>in order</b>?<br>(When you are ready to lock in your answer, press <b>ENTER</b>)</p><button id = button_1 class = ""square num-button"" onclick = ""recordClick(this)""><div class = content><div class = numbers>1</div></div></button><button id = button_2 class = ""square num-button"" onclick = ""recordClick(this)""><div class = content><div class = numbers>2</div></div></button><button id = button_3 class = ""square num-button"" onclick = ""recordClick(this)""><div class = content><div class = numbers>3</div></div></button><button id = button_4 class = ""square num-button"" onclick = ""recordClick(this)""><div class = content><div class = numbers>4</div></div></button><button id = button_5 class = ""square num-button"" onclick = ""recordClick(this)""><div class = content><div class = numbers>5</div></div></button><button id = button_6 class = ""square num-button"" onclick = ""recordClick(this)""><div class = content><div class = numbers>6</div></div></button><button id = button_7 class = ""square num-button"" onclick = ""recordClick(this)""><div class = content><div class = numbers>7</div></div></button><button id = button_8 class = ""square num-button"" onclick = ""recordClick(this)""><div class = content><div class = numbers>8</div></div></button><button id = button_9 class = ""square num-button"" onclick = ""recordClick(this)""><div class = content><div class = numbers>9</div></div></button><button class = clear_button id = ""ClearButton"" onclick = ""clearResponse()"">Clear</button><p><u><b>Current Answer:</b></u></p><div id=echoed_txt style=""font-size: 6rem; color:blue;""><b></b></div></div><br><br><br><br><br><br><br>",enter,fwdspan,response,p5Jz8lwDxTdEyU4ApDpV8tfLwOV2,html-keyboard-response,110,508630,0.0-7.0-2.8-0.8-3.8,7.0,"[8,6,4,7,5,9,2,1]","[8,6,4,7,5,9,1]",0.0,"[3, 4, 5, 6, 7, 7, 8, 8, 7, 7, 6, 7]",,58542426733c730001a5d1f4,14:38:32,15/01/2024
,,,fwdspan,update_span,p5Jz8lwDxTdEyU4ApDpV8tfLwOV2,call-function,111,508898,0.0-7.0-2.8-0.8-4.8,,,,,,,58542426733c730001a5d1f4,14:38:32,15/01/2024
1066.5,"<p style=""font-size:3rem"">Trial 10 of 12</p><br><br><br>",0,fwdspan,start_trial,p5Jz8lwDxTdEyU4ApDpV8tfLwOV2,html-button-response,112,509965,0.0-7.0-2.9-0.9-0.9,,,,,,,58542426733c730001a5d1f4,14:38:32,15/01/2024
,"<p style=""font-size:14rem;font-weight:400;"">4</p>",,fwdspan,number,p5Jz8lwDxTdEyU4ApDpV8tfLwOV2,html-keyboard-response,113,510998,0.0-7.0-2.9-0.9-1.55-0.55,,,,,,,58542426733c730001a5d1f4,14:38:32,15/01/2024
,"<p style=""font-size:14rem;font-weight:400;"">7</p>",,fwdspan,number,p5Jz8lwDxTdEyU4ApDpV8tfLwOV2,html-keyboard-response,114,512033,0.0-7.0-2.9-0.9-1.56-0.56,,,,,,,58542426733c730001a5d1f4,14:38:32,15/01/2024
,"<p style=""font-size:14rem;font-weight:400;"">3</p>",,fwdspan,number,p5Jz8lwDxTdEyU4ApDpV8tfLwOV2,html-keyboard-response,115,513058,0.0-7.0-2.9-0.9-1.57-0.57,,,,,,,58542426733c730001a5d1f4,14:38:32,15/01/2024
,"<p style=""font-size:14rem;font-weight:400;"">8</p>",,fwdspan,number,p5Jz8lwDxTdEyU4ApDpV8tfLwOV2,html-keyboard-response,116,514098,0.0-7.0-2.9-0.9-1.58-0.58,,,,,,,58542426733c730001a5d1f4,14:38:32,15/01/2024
,"<p style=""font-size:14rem;font-weight:400;"">5</p>",,fwdspan,number,p5Jz8lwDxTdEyU4ApDpV8tfLwOV2,html-keyboard-response,117,515128,0.0-7.0-2.9-0.9-1.59-0.59,,,,,,,58542426733c730001a5d1f4,14:38:32,15/01/2024
,"<p style=""font-size:14rem;font-weight:400;"">9</p>",,fwdspan,number,p5Jz8lwDxTdEyU4ApDpV8tfLwOV2,html-keyboard-response,118,516157,0.0-7.0-2.9-0.9-1.60-0.60,,,,,,,58542426733c730001a5d1f4,14:38:32,15/01/2024
,"<p style=""font-size:14rem;font-weight:400;"">6</p>",,fwdspan,number,p5Jz8lwDxTdEyU4ApDpV8tfLwOV2,html-keyboard-response,119,517197,0.0-7.0-2.9-0.9-1.61-0.61,,,,,,,58542426733c730001a5d1f4,14:38:32,15/01/2024
,[],,fwdspan,delay,p5Jz8lwDxTdEyU4ApDpV8tfLwOV2,html-keyboard-response,120,517767,0.0-7.0-2.9-0.9-2.9,,,,,,,58542426733c730001a5d1f4,14:38:32,15/01/2024
8173.800000011921,"<div class = numbox><p style=""font-size:2.5rem"">What were the numbers <b>in order</b>?<br>(When you are ready to lock in your answer, press <b>ENTER</b>)</p><button id = button_1 class = ""square num-button"" onclick = ""recordClick(this)""><div class = content><div class = numbers>1</div></div></button><button id = button_2 class = ""square num-button"" onclick = ""recordClick(this)""><div class = content><div class = numbers>2</div></div></button><button id = button_3 class = ""square num-button"" onclick = ""recordClick(this)""><div class = content><div class = numbers>3</div></div></button><button id = button_4 class = ""square num-button"" onclick = ""recordClick(this)""><div class = content><div class = numbers>4</div></div></button><button id = button_5 class = ""square num-button"" onclick = ""recordClick(this)""><div class = content><div class = numbers>5</div></div></button><button id = button_6 class = ""square num-button"" onclick = ""recordClick(this)""><div class = content><div class = numbers>6</div></div></button><button id = button_7 class = ""square num-button"" onclick = ""recordClick(this)""><div class = content><div class = numbers>7</div></div></button><button id = button_8 class = ""square num-button"" onclick = ""recordClick(this)""><div class = content><div class = numbers>8</div></div></button><button id = button_9 class = ""square num-button"" onclick = ""recordClick(this)""><div class = content><div class = numbers>9</div></div></button><button class = clear_button id = ""ClearButton"" onclick = ""clearResponse()"">Clear</button><p><u><b>Current Answer:</b></u></p><div id=echoed_txt style=""font-size: 6rem; color:blue;""><b></b></div></div><br><br><br><br><br><br><br>",enter,fwdspan,response,p5Jz8lwDxTdEyU4ApDpV8tfLwOV2,html-keyboard-response,121,525942,0.0-7.0-2.9-0.9-3.9,7.0,"[4,7,3,8,9,5,2,6]","[4,7,3,8,5,9,6]",0.0,"[3, 4, 5, 6, 7, 7, 8, 8, 7, 7, 6, 7]",,58542426733c730001a5d1f4,14:38:32,15/01/2024
,,,fwdspan,update_span,p5Jz8lwDxTdEyU4ApDpV8tfLwOV2,call-function,122,526198,0.0-7.0-2.9-0.9-4.9,,,,,,,58542426733c730001a5d1f4,14:38:32,15/01/2024
846.6000000238419,"<p style=""font-size:3rem"">Trial 11 of 12</p><br><br><br>",0,fwdspan,start_trial,p5Jz8lwDxTdEyU4ApDpV8tfLwOV2,html-button-response,123,527045,0.0-7.0-2.10-0.10-0.10,,,,,,,58542426733c730001a5d1f4,14:38:32,15/01/2024
,"<p style=""font-size:14rem;font-weight:400;"">3</p>",,fwdspan,number,p5Jz8lwDxTdEyU4ApDpV8tfLwOV2,html-keyboard-response,124,528058,0.0-7.0-2.10-0.10-1.62-0.62,,,,,,,58542426733c730001a5d1f4,14:38:32,15/01/2024
,"<p style=""font-size:14rem;font-weight:400;"">9</p>",,fwdspan,number,p5Jz8lwDxTdEyU4ApDpV8tfLwOV2,html-keyboard-response,125,529097,0.0-7.0-2.10-0.10-1.63-0.63,,,,,,,58542426733c730001a5d1f4,14:38:32,15/01/2024
,"<p style=""font-size:14rem;font-weight:400;"">6</p>",,fwdspan,number,p5Jz8lwDxTdEyU4ApDpV8tfLwOV2,html-keyboard-response,126,530127,0.0-7.0-2.10-0.10-1.64-0.64,,,,,,,58542426733c730001a5d1f4,14:38:32,15/01/2024
,"<p style=""font-size:14rem;font-weight:400;"">4</p>",,fwdspan,number,p5Jz8lwDxTdEyU4ApDpV8tfLwOV2,html-keyboard-response,127,531157,0.0-7.0-2.10-0.10-1.65-0.65,,,,,,,58542426733c730001a5d1f4,14:38:32,15/01/2024
,"<p style=""font-size:14rem;font-weight:400;"">7</p>",,fwdspan,number,p5Jz8lwDxTdEyU4ApDpV8tfLwOV2,html-keyboard-response,128,532197,0.0-7.0-2.10-0.10-1.66-0.66,,,,,,,58542426733c730001a5d1f4,14:38:32,15/01/2024
,"<p style=""font-size:14rem;font-weight:400;"">8</p>",,fwdspan,number,p5Jz8lwDxTdEyU4ApDpV8tfLwOV2,html-keyboard-response,129,533228,0.0-7.0-2.10-0.10-1.67-0.67,,,,,,,58542426733c730001a5d1f4,14:38:32,15/01/2024
,[],,fwdspan,delay,p5Jz8lwDxTdEyU4ApDpV8tfLwOV2,html-keyboard-response,130,533807,0.0-7.0-2.10-0.10-2.10,,,,,,,58542426733c730001a5d1f4,14:38:32,15/01/2024
6230.0,"<div class = numbox><p style=""font-size:2.5rem"">What were the numbers <b>in order</b>?<br>(When you are ready to lock in your answer, press <b>ENTER</b>)</p><button id = button_1 class = ""square num-button"" onclick = ""recordClick(this)""><div class = content><div class = numbers>1</div></div></button><button id = button_2 class = ""square num-button"" onclick = ""recordClick(this)""><div class = content><div class = numbers>2</div></div></button><button id = button_3 class = ""square num-button"" onclick = ""recordClick(this)""><div class = content><div class = numbers>3</div></div></button><button id = button_4 class = ""square num-button"" onclick = ""recordClick(this)""><div class = content><div class = numbers>4</div></div></button><button id = button_5 class = ""square num-button"" onclick = ""recordClick(this)""><div class = content><div class = numbers>5</div></div></button><button id = button_6 class = ""square num-button"" onclick = ""recordClick(this)""><div class = content><div class = numbers>6</div></div></button><button id = button_7 class = ""square num-button"" onclick = ""recordClick(this)""><div class = content><div class = numbers>7</div></div></button><button id = button_8 class = ""square num-button"" onclick = ""recordClick(this)""><div class = content><div class = numbers>8</div></div></button><button id = button_9 class = ""square num-button"" onclick = ""recordClick(this)""><div class = content><div class = numbers>9</div></div></button><button class = clear_button id = ""ClearButton"" onclick = ""clearResponse()"">Clear</button><p><u><b>Current Answer:</b></u></p><div id=echoed_txt style=""font-size: 6rem; color:blue;""><b></b></div></div><br><br><br><br><br><br><br>",enter,fwdspan,response,p5Jz8lwDxTdEyU4ApDpV8tfLwOV2,html-keyboard-response,131,540038,0.0-7.0-2.10-0.10-3.10,6.0,"[3,9,6,4,7,8]","[3,9,6,4,7,8]",1.0,"[3, 4, 5, 6, 7, 7, 8, 8, 7, 7, 6, 7]",,58542426733c730001a5d1f4,14:38:32,15/01/2024
,,,fwdspan,update_span,p5Jz8lwDxTdEyU4ApDpV8tfLwOV2,call-function,132,540298,0.0-7.0-2.10-0.10-4.10,,,,,,,58542426733c730001a5d1f4,14:38:32,15/01/2024
706.7000000476837,"<p style=""font-size:3rem"">Trial 12 of 12</p><br><br><br>",0,fwdspan,start_trial,p5Jz8lwDxTdEyU4ApDpV8tfLwOV2,html-button-response,133,541005,0.0-7.0-2.11-0.11-0.11,,,,,,,58542426733c730001a5d1f4,14:38:32,15/01/2024
,"<p style=""font-size:14rem;font-weight:400;"">8</p>",,fwdspan,number,p5Jz8lwDxTdEyU4ApDpV8tfLwOV2,html-keyboard-response,134,542028,0.0-7.0-2.11-0.11-1.68-0.68,,,,,,,58542426733c730001a5d1f4,14:38:32,15/01/2024
,"<p style=""font-size:14rem;font-weight:400;"">6</p>",,fwdspan,number,p5Jz8lwDxTdEyU4ApDpV8tfLwOV2,html-keyboard-response,135,543057,0.0-7.0-2.11-0.11-1.69-0.69,,,,,,,58542426733c730001a5d1f4,14:38:32,15/01/2024
,"<p style=""font-size:14rem;font-weight:400;"">3</p>",,fwdspan,number,p5Jz8lwDxTdEyU4ApDpV8tfLwOV2,html-keyboard-response,136,544097,0.0-7.0-2.11-0.11-1.70-0.70,,,,,,,58542426733c730001a5d1f4,14:38:32,15/01/2024
,"<p style=""font-size:14rem;font-weight:400;"">1</p>",,fwdspan,number,p5Jz8lwDxTdEyU4ApDpV8tfLwOV2,html-keyboard-response,137,545127,0.0-7.0-2.11-0.11-1.71-0.71,,,,,,,58542426733c730001a5d1f4,14:38:32,15/01/2024
,"<p style=""font-size:14rem;font-weight:400;"">4</p>",,fwdspan,number,p5Jz8lwDxTdEyU4ApDpV8tfLwOV2,html-keyboard-response,138,546158,0.0-7.0-2.11-0.11-1.72-0.72,,,,,,,58542426733c730001a5d1f4,14:38:32,15/01/2024
,"<p style=""font-size:14rem;font-weight:400;"">5</p>",,fwdspan,number,p5Jz8lwDxTdEyU4ApDpV8tfLwOV2,html-keyboard-response,139,547197,0.0-7.0-2.11-0.11-1.73-0.73,,,,,,,58542426733c730001a5d1f4,14:38:32,15/01/2024
,"<p style=""font-size:14rem;font-weight:400;"">7</p>",,fwdspan,number,p5Jz8lwDxTdEyU4ApDpV8tfLwOV2,html-keyboard-response,140,548228,0.0-7.0-2.11-0.11-1.74-0.74,,,,,,,58542426733c730001a5d1f4,14:38:32,15/01/2024
,[],,fwdspan,delay,p5Jz8lwDxTdEyU4ApDpV8tfLwOV2,html-keyboard-response,141,548807,0.0-7.0-2.11-0.11-2.11,,,,,,,58542426733c730001a5d1f4,14:38:32,15/01/2024
4925.899999976158,"<div class = numbox><p style=""font-size:2.5rem"">What were the numbers <b>in order</b>?<br>(When you are ready to lock in your answer, press <b>ENTER</b>)</p><button id = button_1 class = ""square num-button"" onclick = ""recordClick(this)""><div class = content><div class = numbers>1</div></div></button><button id = button_2 class = ""square num-button"" onclick = ""recordClick(this)""><div class = content><div class = numbers>2</div></div></button><button id = button_3 class = ""square num-button"" onclick = ""recordClick(this)""><div class = content><div class = numbers>3</div></div></button><button id = button_4 class = ""square num-button"" onclick = ""recordClick(this)""><div class = content><div class = numbers>4</div></div></button><button id = button_5 class = ""square num-button"" onclick = ""recordClick(this)""><div class = content><div class = numbers>5</div></div></button><button id = button_6 class = ""square num-button"" onclick = ""recordClick(this)""><div class = content><div class = numbers>6</div></div></button><button id = button_7 class = ""square num-button"" onclick = ""recordClick(this)""><div class = content><div class = numbers>7</div></div></button><button id = button_8 class = ""square num-button"" onclick = ""recordClick(this)""><div class = content><div class = numbers>8</div></div></button><button id = button_9 class = ""square num-button"" onclick = ""recordClick(this)""><div class = content><div class = numbers>9</div></div></button><button class = clear_button id = ""ClearButton"" onclick = ""clearResponse()"">Clear</button><p><u><b>Current Answer:</b></u></p><div id=echoed_txt style=""font-size: 6rem; color:blue;""><b></b></div></div><br><br><br><br><br><br><br>",enter,fwdspan,response,p5Jz8lwDxTdEyU4ApDpV8tfLwOV2,html-keyboard-response,142,553734,0.0-7.0-2.11-0.11-3.11,7.0,"[8,6,3,7,4,5,7]","[8,6,3,1,4,5,7]",0.0,"[3, 4, 5, 6, 7, 7, 8, 8, 7, 7, 6, 7]",,58542426733c730001a5d1f4,14:38:32,15/01/2024
,,,fwdspan,update_span,p5Jz8lwDxTdEyU4ApDpV8tfLwOV2,call-function,143,553998,0.0-7.0-2.11-0.11-4.11,,,,,,,58542426733c730001a5d1f4,14:38:32,15/01/2024
38718.89999997616,,"{'Q0': 'the task was clear, there was no enter button to click'}",fwdspan,survey,p5Jz8lwDxTdEyU4ApDpV8tfLwOV2,lmdlab-survey-text,144,593480,0.0-7.0-3.0,,,,,,p5Jz8lwDxTdEyU4ApDpV8tfLwOV2,58542426733c730001a5d1f4,14:38:32,15/01/2024
1187.4000000357628,<p><p style='font-size: 3rem'>Great work!<br><br>This completes the digit span task.</p><br><br><br>,0,fwdspan,finish,p5Jz8lwDxTdEyU4ApDpV8tfLwOV2,html-button-response,145,594669,0.0-7.0-4.0,,,,,,,58542426733c730001a5d1f4,14:38:32,15/01/2024
