rt,stimulus,response,exp_name,exp_stage,subjectID,trial_type,trial_index,time_elapsed,internal_node_id,span,answer,correct,correct_full,span_history,databaseID,prolificID,start_time,date
6052.0,"<p style=""font-size:4rem""><br><br>In the next part today, we have a completely different short task.<br><br><br>This part involves keeping numbers in you mind. Participation takes around 5 minutes.<br><br><br></p>",0,fwdspan,instruct,tKJCjY8h39Od3L7P7TJHTT4zCZo2,html-button-response,19,401740,0.0-7.0-0.0,,,,,,,637e1c5a4cf3a6a0f0acd67c,11:24:54,15/01/2024
34087.200000047684,"<p style=""font-size:5rem"">Welcome to the <b>digit span task</b>!<br><br></p><p style=""font-size:3.4rem""><br>On each trial, you will see a sequence of digits, followed by a delay.</p><p style=""font-size:3.4rem""><br>Then you will be asked to type them back in the same order in which they were seen.</p><p style=""font-size:3.4rem""><br><br><br>For example, if you saw the digits <b style=""color:blue;"">1</b>, <b style=""color:blue;"">2</b>, <b style=""color:blue;"">3</b>, you would respond with <b style=""color:blue;"">1</b>, <b style=""color:blue;"">2</b>, <b style=""color:blue;"">3</b></p><p style=""font-size:3.4rem""><br><br><br>To ensure the best measure of true performance for our study,<br><br>it is very important that you do not use any memory aid (e.g., pen and paper).<br><br>Please do the task solely in your head.</p><p style=""font-size:3.4rem""><br><br><br>There will be 12 total trials. Participation takes around 5 minutes.</p><br><br><br>",0,fwdspan,instruct,tKJCjY8h39Od3L7P7TJHTT4zCZo2,html-button-response,20,435836,0.0-7.0-1.0,,,,,,,637e1c5a4cf3a6a0f0acd67c,11:24:54,15/01/2024
1358.2000000476837,"<p style=""font-size:3rem"">Trial 1 of 12</p><br><br><br>",0,fwdspan,start_trial,tKJCjY8h39Od3L7P7TJHTT4zCZo2,html-button-response,21,437204,0.0-7.0-2.0-0.0-0.0,,,,,,,637e1c5a4cf3a6a0f0acd67c,11:24:54,15/01/2024
,"<p style=""font-size:14rem;font-weight:400;"">9</p>",,fwdspan,number,tKJCjY8h39Od3L7P7TJHTT4zCZo2,html-keyboard-response,22,438212,0.0-7.0-2.0-0.0-1.0-0.0,,,,,,,637e1c5a4cf3a6a0f0acd67c,11:24:54,15/01/2024
,"<p style=""font-size:14rem;font-weight:400;"">2</p>",,fwdspan,number,tKJCjY8h39Od3L7P7TJHTT4zCZo2,html-keyboard-response,23,439234,0.0-7.0-2.0-0.0-1.1-0.1,,,,,,,637e1c5a4cf3a6a0f0acd67c,11:24:54,15/01/2024
,"<p style=""font-size:14rem;font-weight:400;"">5</p>",,fwdspan,number,tKJCjY8h39Od3L7P7TJHTT4zCZo2,html-keyboard-response,24,440257,0.0-7.0-2.0-0.0-1.2-0.2,,,,,,,637e1c5a4cf3a6a0f0acd67c,11:24:54,15/01/2024
,[],,fwdspan,delay,tKJCjY8h39Od3L7P7TJHTT4zCZo2,html-keyboard-response,25,440827,0.0-7.0-2.0-0.0-2.0,,,,,,,637e1c5a4cf3a6a0f0acd67c,11:24:54,15/01/2024
4605.0,"<div class = numbox><p style=""font-size:2.5rem"">What were the numbers <b>in order</b>?<br>(When you are ready to lock in your answer, press <b>ENTER</b>)</p><button id = button_1 class = ""square num-button"" onclick = ""recordClick(this)""><div class = content><div class = numbers>1</div></div></button><button id = button_2 class = ""square num-button"" onclick = ""recordClick(this)""><div class = content><div class = numbers>2</div></div></button><button id = button_3 class = ""square num-button"" onclick = ""recordClick(this)""><div class = content><div class = numbers>3</div></div></button><button id = button_4 class = ""square num-button"" onclick = ""recordClick(this)""><div class = content><div class = numbers>4</div></div></button><button id = button_5 class = ""square num-button"" onclick = ""recordClick(this)""><div class = content><div class = numbers>5</div></div></button><button id = button_6 class = ""square num-button"" onclick = ""recordClick(this)""><div class = content><div class = numbers>6</div></div></button><button id = button_7 class = ""square num-button"" onclick = ""recordClick(this)""><div class = content><div class = numbers>7</div></div></button><button id = button_8 class = ""square num-button"" onclick = ""recordClick(this)""><div class = content><div class = numbers>8</div></div></button><button id = button_9 class = ""square num-button"" onclick = ""recordClick(this)""><div class = content><div class = numbers>9</div></div></button><button class = clear_button id = ""ClearButton"" onclick = ""clearResponse()"">Clear</button><p><u><b>Current Answer:</b></u></p><div id=echoed_txt style=""font-size: 6rem; color:blue;""><b></b></div></div><br><br><br><br><br><br><br>",enter,fwdspan,response,tKJCjY8h39Od3L7P7TJHTT4zCZo2,html-keyboard-response,26,445435,0.0-7.0-2.0-0.0-3.0,3.0,"[9,2,5]","[9,2,5]",1.0,"[3, 4, 5, 6, 7, 8, 9, 9, 8, 9, 9, 10]",,637e1c5a4cf3a6a0f0acd67c,11:24:54,15/01/2024
,,,fwdspan,update_span,tKJCjY8h39Od3L7P7TJHTT4zCZo2,call-function,27,445692,0.0-7.0-2.0-0.0-4.0,,,,,,,637e1c5a4cf3a6a0f0acd67c,11:24:54,15/01/2024
1296.0,"<p style=""font-size:3rem"">Trial 2 of 12</p><br><br><br>",0,fwdspan,start_trial,tKJCjY8h39Od3L7P7TJHTT4zCZo2,html-button-response,28,446990,0.0-7.0-2.1-0.1-0.1,,,,,,,637e1c5a4cf3a6a0f0acd67c,11:24:54,15/01/2024
,"<p style=""font-size:14rem;font-weight:400;"">4</p>",,fwdspan,number,tKJCjY8h39Od3L7P7TJHTT4zCZo2,html-keyboard-response,29,447996,0.0-7.0-2.1-0.1-1.3-0.3,,,,,,,637e1c5a4cf3a6a0f0acd67c,11:24:54,15/01/2024
,"<p style=""font-size:14rem;font-weight:400;"">9</p>",,fwdspan,number,tKJCjY8h39Od3L7P7TJHTT4zCZo2,html-keyboard-response,30,449012,0.0-7.0-2.1-0.1-1.4-0.4,,,,,,,637e1c5a4cf3a6a0f0acd67c,11:24:54,15/01/2024
,"<p style=""font-size:14rem;font-weight:400;"">3</p>",,fwdspan,number,tKJCjY8h39Od3L7P7TJHTT4zCZo2,html-keyboard-response,31,450026,0.0-7.0-2.1-0.1-1.5-0.5,,,,,,,637e1c5a4cf3a6a0f0acd67c,11:24:54,15/01/2024
,"<p style=""font-size:14rem;font-weight:400;"">6</p>",,fwdspan,number,tKJCjY8h39Od3L7P7TJHTT4zCZo2,html-keyboard-response,32,451044,0.0-7.0-2.1-0.1-1.6-0.6,,,,,,,637e1c5a4cf3a6a0f0acd67c,11:24:54,15/01/2024
,[],,fwdspan,delay,tKJCjY8h39Od3L7P7TJHTT4zCZo2,html-keyboard-response,33,451627,0.0-7.0-2.1-0.1-2.1,,,,,,,637e1c5a4cf3a6a0f0acd67c,11:24:54,15/01/2024
4688.899999856949,"<div class = numbox><p style=""font-size:2.5rem"">What were the numbers <b>in order</b>?<br>(When you are ready to lock in your answer, press <b>ENTER</b>)</p><button id = button_1 class = ""square num-button"" onclick = ""recordClick(this)""><div class = content><div class = numbers>1</div></div></button><button id = button_2 class = ""square num-button"" onclick = ""recordClick(this)""><div class = content><div class = numbers>2</div></div></button><button id = button_3 class = ""square num-button"" onclick = ""recordClick(this)""><div class = content><div class = numbers>3</div></div></button><button id = button_4 class = ""square num-button"" onclick = ""recordClick(this)""><div class = content><div class = numbers>4</div></div></button><button id = button_5 class = ""square num-button"" onclick = ""recordClick(this)""><div class = content><div class = numbers>5</div></div></button><button id = button_6 class = ""square num-button"" onclick = ""recordClick(this)""><div class = content><div class = numbers>6</div></div></button><button id = button_7 class = ""square num-button"" onclick = ""recordClick(this)""><div class = content><div class = numbers>7</div></div></button><button id = button_8 class = ""square num-button"" onclick = ""recordClick(this)""><div class = content><div class = numbers>8</div></div></button><button id = button_9 class = ""square num-button"" onclick = ""recordClick(this)""><div class = content><div class = numbers>9</div></div></button><button class = clear_button id = ""ClearButton"" onclick = ""clearResponse()"">Clear</button><p><u><b>Current Answer:</b></u></p><div id=echoed_txt style=""font-size: 6rem; color:blue;""><b></b></div></div><br><br><br><br><br><br><br>",enter,fwdspan,response,tKJCjY8h39Od3L7P7TJHTT4zCZo2,html-keyboard-response,34,456318,0.0-7.0-2.1-0.1-3.1,4.0,"[4,9,3,6]","[4,9,3,6]",1.0,"[3, 4, 5, 6, 7, 8, 9, 9, 8, 9, 9, 10]",,637e1c5a4cf3a6a0f0acd67c,11:24:54,15/01/2024
,,,fwdspan,update_span,tKJCjY8h39Od3L7P7TJHTT4zCZo2,call-function,35,456582,0.0-7.0-2.1-0.1-4.1,,,,,,,637e1c5a4cf3a6a0f0acd67c,11:24:54,15/01/2024
1114.5999999046326,"<p style=""font-size:3rem"">Trial 3 of 12</p><br><br><br>",0,fwdspan,start_trial,tKJCjY8h39Od3L7P7TJHTT4zCZo2,html-button-response,36,457698,0.0-7.0-2.2-0.2-0.2,,,,,,,637e1c5a4cf3a6a0f0acd67c,11:24:54,15/01/2024
,"<p style=""font-size:14rem;font-weight:400;"">8</p>",,fwdspan,number,tKJCjY8h39Od3L7P7TJHTT4zCZo2,html-keyboard-response,37,458703,0.0-7.0-2.2-0.2-1.7-0.7,,,,,,,637e1c5a4cf3a6a0f0acd67c,11:24:54,15/01/2024
,"<p style=""font-size:14rem;font-weight:400;"">3</p>",,fwdspan,number,tKJCjY8h39Od3L7P7TJHTT4zCZo2,html-keyboard-response,38,459710,0.0-7.0-2.2-0.2-1.8-0.8,,,,,,,637e1c5a4cf3a6a0f0acd67c,11:24:54,15/01/2024
,"<p style=""font-size:14rem;font-weight:400;"">1</p>",,fwdspan,number,tKJCjY8h39Od3L7P7TJHTT4zCZo2,html-keyboard-response,39,460712,0.0-7.0-2.2-0.2-1.9-0.9,,,,,,,637e1c5a4cf3a6a0f0acd67c,11:24:54,15/01/2024
,"<p style=""font-size:14rem;font-weight:400;"">5</p>",,fwdspan,number,tKJCjY8h39Od3L7P7TJHTT4zCZo2,html-keyboard-response,40,461726,0.0-7.0-2.2-0.2-1.10-0.10,,,,,,,637e1c5a4cf3a6a0f0acd67c,11:24:54,15/01/2024
,"<p style=""font-size:14rem;font-weight:400;"">7</p>",,fwdspan,number,tKJCjY8h39Od3L7P7TJHTT4zCZo2,html-keyboard-response,41,462740,0.0-7.0-2.2-0.2-1.11-0.11,,,,,,,637e1c5a4cf3a6a0f0acd67c,11:24:54,15/01/2024
,[],,fwdspan,delay,tKJCjY8h39Od3L7P7TJHTT4zCZo2,html-keyboard-response,42,463307,0.0-7.0-2.2-0.2-2.2,,,,,,,637e1c5a4cf3a6a0f0acd67c,11:24:54,15/01/2024
5036.100000143051,"<div class = numbox><p style=""font-size:2.5rem"">What were the numbers <b>in order</b>?<br>(When you are ready to lock in your answer, press <b>ENTER</b>)</p><button id = button_1 class = ""square num-button"" onclick = ""recordClick(this)""><div class = content><div class = numbers>1</div></div></button><button id = button_2 class = ""square num-button"" onclick = ""recordClick(this)""><div class = content><div class = numbers>2</div></div></button><button id = button_3 class = ""square num-button"" onclick = ""recordClick(this)""><div class = content><div class = numbers>3</div></div></button><button id = button_4 class = ""square num-button"" onclick = ""recordClick(this)""><div class = content><div class = numbers>4</div></div></button><button id = button_5 class = ""square num-button"" onclick = ""recordClick(this)""><div class = content><div class = numbers>5</div></div></button><button id = button_6 class = ""square num-button"" onclick = ""recordClick(this)""><div class = content><div class = numbers>6</div></div></button><button id = button_7 class = ""square num-button"" onclick = ""recordClick(this)""><div class = content><div class = numbers>7</div></div></button><button id = button_8 class = ""square num-button"" onclick = ""recordClick(this)""><div class = content><div class = numbers>8</div></div></button><button id = button_9 class = ""square num-button"" onclick = ""recordClick(this)""><div class = content><div class = numbers>9</div></div></button><button class = clear_button id = ""ClearButton"" onclick = ""clearResponse()"">Clear</button><p><u><b>Current Answer:</b></u></p><div id=echoed_txt style=""font-size: 6rem; color:blue;""><b></b></div></div><br><br><br><br><br><br><br>",enter,fwdspan,response,tKJCjY8h39Od3L7P7TJHTT4zCZo2,html-keyboard-response,43,468346,0.0-7.0-2.2-0.2-3.2,5.0,"[8,3,1,5,7]","[8,3,1,5,7]",1.0,"[3, 4, 5, 6, 7, 8, 9, 9, 8, 9, 9, 10]",,637e1c5a4cf3a6a0f0acd67c,11:24:54,15/01/2024
,,,fwdspan,update_span,tKJCjY8h39Od3L7P7TJHTT4zCZo2,call-function,44,468604,0.0-7.0-2.2-0.2-4.2,,,,,,,637e1c5a4cf3a6a0f0acd67c,11:24:54,15/01/2024
1398.8000001907349,"<p style=""font-size:3rem"">Trial 4 of 12</p><br><br><br>",0,fwdspan,start_trial,tKJCjY8h39Od3L7P7TJHTT4zCZo2,html-button-response,45,470004,0.0-7.0-2.3-0.3-0.3,,,,,,,637e1c5a4cf3a6a0f0acd67c,11:24:54,15/01/2024
,"<p style=""font-size:14rem;font-weight:400;"">3</p>",,fwdspan,number,tKJCjY8h39Od3L7P7TJHTT4zCZo2,html-keyboard-response,46,471011,0.0-7.0-2.3-0.3-1.12-0.12,,,,,,,637e1c5a4cf3a6a0f0acd67c,11:24:54,15/01/2024
,"<p style=""font-size:14rem;font-weight:400;"">4</p>",,fwdspan,number,tKJCjY8h39Od3L7P7TJHTT4zCZo2,html-keyboard-response,47,472018,0.0-7.0-2.3-0.3-1.13-0.13,,,,,,,637e1c5a4cf3a6a0f0acd67c,11:24:54,15/01/2024
,"<p style=""font-size:14rem;font-weight:400;"">5</p>",,fwdspan,number,tKJCjY8h39Od3L7P7TJHTT4zCZo2,html-keyboard-response,48,473042,0.0-7.0-2.3-0.3-1.14-0.14,,,,,,,637e1c5a4cf3a6a0f0acd67c,11:24:54,15/01/2024
,"<p style=""font-size:14rem;font-weight:400;"">6</p>",,fwdspan,number,tKJCjY8h39Od3L7P7TJHTT4zCZo2,html-keyboard-response,49,474051,0.0-7.0-2.3-0.3-1.15-0.15,,,,,,,637e1c5a4cf3a6a0f0acd67c,11:24:54,15/01/2024
,"<p style=""font-size:14rem;font-weight:400;"">1</p>",,fwdspan,number,tKJCjY8h39Od3L7P7TJHTT4zCZo2,html-keyboard-response,50,475074,0.0-7.0-2.3-0.3-1.16-0.16,,,,,,,637e1c5a4cf3a6a0f0acd67c,11:24:54,15/01/2024
,"<p style=""font-size:14rem;font-weight:400;"">2</p>",,fwdspan,number,tKJCjY8h39Od3L7P7TJHTT4zCZo2,html-keyboard-response,51,476088,0.0-7.0-2.3-0.3-1.17-0.17,,,,,,,637e1c5a4cf3a6a0f0acd67c,11:24:54,15/01/2024
,[],,fwdspan,delay,tKJCjY8h39Od3L7P7TJHTT4zCZo2,html-keyboard-response,52,476656,0.0-7.0-2.3-0.3-2.3,,,,,,,637e1c5a4cf3a6a0f0acd67c,11:24:54,15/01/2024
4554.0,"<div class = numbox><p style=""font-size:2.5rem"">What were the numbers <b>in order</b>?<br>(When you are ready to lock in your answer, press <b>ENTER</b>)</p><button id = button_1 class = ""square num-button"" onclick = ""recordClick(this)""><div class = content><div class = numbers>1</div></div></button><button id = button_2 class = ""square num-button"" onclick = ""recordClick(this)""><div class = content><div class = numbers>2</div></div></button><button id = button_3 class = ""square num-button"" onclick = ""recordClick(this)""><div class = content><div class = numbers>3</div></div></button><button id = button_4 class = ""square num-button"" onclick = ""recordClick(this)""><div class = content><div class = numbers>4</div></div></button><button id = button_5 class = ""square num-button"" onclick = ""recordClick(this)""><div class = content><div class = numbers>5</div></div></button><button id = button_6 class = ""square num-button"" onclick = ""recordClick(this)""><div class = content><div class = numbers>6</div></div></button><button id = button_7 class = ""square num-button"" onclick = ""recordClick(this)""><div class = content><div class = numbers>7</div></div></button><button id = button_8 class = ""square num-button"" onclick = ""recordClick(this)""><div class = content><div class = numbers>8</div></div></button><button id = button_9 class = ""square num-button"" onclick = ""recordClick(this)""><div class = content><div class = numbers>9</div></div></button><button class = clear_button id = ""ClearButton"" onclick = ""clearResponse()"">Clear</button><p><u><b>Current Answer:</b></u></p><div id=echoed_txt style=""font-size: 6rem; color:blue;""><b></b></div></div><br><br><br><br><br><br><br>",enter,fwdspan,response,tKJCjY8h39Od3L7P7TJHTT4zCZo2,html-keyboard-response,53,481212,0.0-7.0-2.3-0.3-3.3,6.0,"[3,4,5,6,1,2]","[3,4,5,6,1,2]",1.0,"[3, 4, 5, 6, 7, 8, 9, 9, 8, 9, 9, 10]",,637e1c5a4cf3a6a0f0acd67c,11:24:54,15/01/2024
,,,fwdspan,update_span,tKJCjY8h39Od3L7P7TJHTT4zCZo2,call-function,54,481473,0.0-7.0-2.3-0.3-4.3,,,,,,,637e1c5a4cf3a6a0f0acd67c,11:24:54,15/01/2024
1499.2999999523163,"<p style=""font-size:3rem"">Trial 5 of 12</p><br><br><br>",0,fwdspan,start_trial,tKJCjY8h39Od3L7P7TJHTT4zCZo2,html-button-response,55,482974,0.0-7.0-2.4-0.4-0.4,,,,,,,637e1c5a4cf3a6a0f0acd67c,11:24:54,15/01/2024
,"<p style=""font-size:14rem;font-weight:400;"">8</p>",,fwdspan,number,tKJCjY8h39Od3L7P7TJHTT4zCZo2,html-keyboard-response,56,483980,0.0-7.0-2.4-0.4-1.18-0.18,,,,,,,637e1c5a4cf3a6a0f0acd67c,11:24:54,15/01/2024
,"<p style=""font-size:14rem;font-weight:400;"">1</p>",,fwdspan,number,tKJCjY8h39Od3L7P7TJHTT4zCZo2,html-keyboard-response,57,484995,0.0-7.0-2.4-0.4-1.19-0.19,,,,,,,637e1c5a4cf3a6a0f0acd67c,11:24:54,15/01/2024
,"<p style=""font-size:14rem;font-weight:400;"">4</p>",,fwdspan,number,tKJCjY8h39Od3L7P7TJHTT4zCZo2,html-keyboard-response,58,486011,0.0-7.0-2.4-0.4-1.20-0.20,,,,,,,637e1c5a4cf3a6a0f0acd67c,11:24:54,15/01/2024
,"<p style=""font-size:14rem;font-weight:400;"">9</p>",,fwdspan,number,tKJCjY8h39Od3L7P7TJHTT4zCZo2,html-keyboard-response,59,487032,0.0-7.0-2.4-0.4-1.21-0.21,,,,,,,637e1c5a4cf3a6a0f0acd67c,11:24:54,15/01/2024
,"<p style=""font-size:14rem;font-weight:400;"">5</p>",,fwdspan,number,tKJCjY8h39Od3L7P7TJHTT4zCZo2,html-keyboard-response,60,488047,0.0-7.0-2.4-0.4-1.22-0.22,,,,,,,637e1c5a4cf3a6a0f0acd67c,11:24:54,15/01/2024
,"<p style=""font-size:14rem;font-weight:400;"">7</p>",,fwdspan,number,tKJCjY8h39Od3L7P7TJHTT4zCZo2,html-keyboard-response,61,489066,0.0-7.0-2.4-0.4-1.23-0.23,,,,,,,637e1c5a4cf3a6a0f0acd67c,11:24:54,15/01/2024
,"<p style=""font-size:14rem;font-weight:400;"">6</p>",,fwdspan,number,tKJCjY8h39Od3L7P7TJHTT4zCZo2,html-keyboard-response,62,490080,0.0-7.0-2.4-0.4-1.24-0.24,,,,,,,637e1c5a4cf3a6a0f0acd67c,11:24:54,15/01/2024
,[],,fwdspan,delay,tKJCjY8h39Od3L7P7TJHTT4zCZo2,html-keyboard-response,63,490640,0.0-7.0-2.4-0.4-2.4,,,,,,,637e1c5a4cf3a6a0f0acd67c,11:24:54,15/01/2024
7086.900000095367,"<div class = numbox><p style=""font-size:2.5rem"">What were the numbers <b>in order</b>?<br>(When you are ready to lock in your answer, press <b>ENTER</b>)</p><button id = button_1 class = ""square num-button"" onclick = ""recordClick(this)""><div class = content><div class = numbers>1</div></div></button><button id = button_2 class = ""square num-button"" onclick = ""recordClick(this)""><div class = content><div class = numbers>2</div></div></button><button id = button_3 class = ""square num-button"" onclick = ""recordClick(this)""><div class = content><div class = numbers>3</div></div></button><button id = button_4 class = ""square num-button"" onclick = ""recordClick(this)""><div class = content><div class = numbers>4</div></div></button><button id = button_5 class = ""square num-button"" onclick = ""recordClick(this)""><div class = content><div class = numbers>5</div></div></button><button id = button_6 class = ""square num-button"" onclick = ""recordClick(this)""><div class = content><div class = numbers>6</div></div></button><button id = button_7 class = ""square num-button"" onclick = ""recordClick(this)""><div class = content><div class = numbers>7</div></div></button><button id = button_8 class = ""square num-button"" onclick = ""recordClick(this)""><div class = content><div class = numbers>8</div></div></button><button id = button_9 class = ""square num-button"" onclick = ""recordClick(this)""><div class = content><div class = numbers>9</div></div></button><button class = clear_button id = ""ClearButton"" onclick = ""clearResponse()"">Clear</button><p><u><b>Current Answer:</b></u></p><div id=echoed_txt style=""font-size: 6rem; color:blue;""><b></b></div></div><br><br><br><br><br><br><br>",enter,fwdspan,response,tKJCjY8h39Od3L7P7TJHTT4zCZo2,html-keyboard-response,64,497730,0.0-7.0-2.4-0.4-3.4,7.0,"[8,1,4,9,5,7,6]","[8,1,4,9,5,7,6]",1.0,"[3, 4, 5, 6, 7, 8, 9, 9, 8, 9, 9, 10]",,637e1c5a4cf3a6a0f0acd67c,11:24:54,15/01/2024
,,,fwdspan,update_span,tKJCjY8h39Od3L7P7TJHTT4zCZo2,call-function,65,497992,0.0-7.0-2.4-0.4-4.4,,,,,,,637e1c5a4cf3a6a0f0acd67c,11:24:54,15/01/2024
1916.4000000953674,"<p style=""font-size:3rem"">Trial 6 of 12</p><br><br><br>",0,fwdspan,start_trial,tKJCjY8h39Od3L7P7TJHTT4zCZo2,html-button-response,66,499910,0.0-7.0-2.5-0.5-0.5,,,,,,,637e1c5a4cf3a6a0f0acd67c,11:24:54,15/01/2024
,"<p style=""font-size:14rem;font-weight:400;"">7</p>",,fwdspan,number,tKJCjY8h39Od3L7P7TJHTT4zCZo2,html-keyboard-response,67,500927,0.0-7.0-2.5-0.5-1.25-0.25,,,,,,,637e1c5a4cf3a6a0f0acd67c,11:24:54,15/01/2024
,"<p style=""font-size:14rem;font-weight:400;"">5</p>",,fwdspan,number,tKJCjY8h39Od3L7P7TJHTT4zCZo2,html-keyboard-response,68,501949,0.0-7.0-2.5-0.5-1.26-0.26,,,,,,,637e1c5a4cf3a6a0f0acd67c,11:24:54,15/01/2024
,"<p style=""font-size:14rem;font-weight:400;"">6</p>",,fwdspan,number,tKJCjY8h39Od3L7P7TJHTT4zCZo2,html-keyboard-response,69,502963,0.0-7.0-2.5-0.5-1.27-0.27,,,,,,,637e1c5a4cf3a6a0f0acd67c,11:24:54,15/01/2024
,"<p style=""font-size:14rem;font-weight:400;"">9</p>",,fwdspan,number,tKJCjY8h39Od3L7P7TJHTT4zCZo2,html-keyboard-response,70,503976,0.0-7.0-2.5-0.5-1.28-0.28,,,,,,,637e1c5a4cf3a6a0f0acd67c,11:24:54,15/01/2024
,"<p style=""font-size:14rem;font-weight:400;"">1</p>",,fwdspan,number,tKJCjY8h39Od3L7P7TJHTT4zCZo2,html-keyboard-response,71,504996,0.0-7.0-2.5-0.5-1.29-0.29,,,,,,,637e1c5a4cf3a6a0f0acd67c,11:24:54,15/01/2024
,"<p style=""font-size:14rem;font-weight:400;"">4</p>",,fwdspan,number,tKJCjY8h39Od3L7P7TJHTT4zCZo2,html-keyboard-response,72,506011,0.0-7.0-2.5-0.5-1.30-0.30,,,,,,,637e1c5a4cf3a6a0f0acd67c,11:24:54,15/01/2024
,"<p style=""font-size:14rem;font-weight:400;"">2</p>",,fwdspan,number,tKJCjY8h39Od3L7P7TJHTT4zCZo2,html-keyboard-response,73,507015,0.0-7.0-2.5-0.5-1.31-0.31,,,,,,,637e1c5a4cf3a6a0f0acd67c,11:24:54,15/01/2024
,"<p style=""font-size:14rem;font-weight:400;"">8</p>",,fwdspan,number,tKJCjY8h39Od3L7P7TJHTT4zCZo2,html-keyboard-response,74,508036,0.0-7.0-2.5-0.5-1.32-0.32,,,,,,,637e1c5a4cf3a6a0f0acd67c,11:24:54,15/01/2024
,[],,fwdspan,delay,tKJCjY8h39Od3L7P7TJHTT4zCZo2,html-keyboard-response,75,508602,0.0-7.0-2.5-0.5-2.5,,,,,,,637e1c5a4cf3a6a0f0acd67c,11:24:54,15/01/2024
5994.700000047684,"<div class = numbox><p style=""font-size:2.5rem"">What were the numbers <b>in order</b>?<br>(When you are ready to lock in your answer, press <b>ENTER</b>)</p><button id = button_1 class = ""square num-button"" onclick = ""recordClick(this)""><div class = content><div class = numbers>1</div></div></button><button id = button_2 class = ""square num-button"" onclick = ""recordClick(this)""><div class = content><div class = numbers>2</div></div></button><button id = button_3 class = ""square num-button"" onclick = ""recordClick(this)""><div class = content><div class = numbers>3</div></div></button><button id = button_4 class = ""square num-button"" onclick = ""recordClick(this)""><div class = content><div class = numbers>4</div></div></button><button id = button_5 class = ""square num-button"" onclick = ""recordClick(this)""><div class = content><div class = numbers>5</div></div></button><button id = button_6 class = ""square num-button"" onclick = ""recordClick(this)""><div class = content><div class = numbers>6</div></div></button><button id = button_7 class = ""square num-button"" onclick = ""recordClick(this)""><div class = content><div class = numbers>7</div></div></button><button id = button_8 class = ""square num-button"" onclick = ""recordClick(this)""><div class = content><div class = numbers>8</div></div></button><button id = button_9 class = ""square num-button"" onclick = ""recordClick(this)""><div class = content><div class = numbers>9</div></div></button><button class = clear_button id = ""ClearButton"" onclick = ""clearResponse()"">Clear</button><p><u><b>Current Answer:</b></u></p><div id=echoed_txt style=""font-size: 6rem; color:blue;""><b></b></div></div><br><br><br><br><br><br><br>",enter,fwdspan,response,tKJCjY8h39Od3L7P7TJHTT4zCZo2,html-keyboard-response,76,514599,0.0-7.0-2.5-0.5-3.5,8.0,"[7,5,6,9,1,4,2,8]","[7,5,6,9,1,4,2,8]",1.0,"[3, 4, 5, 6, 7, 8, 9, 9, 8, 9, 9, 10]",,637e1c5a4cf3a6a0f0acd67c,11:24:54,15/01/2024
,,,fwdspan,update_span,tKJCjY8h39Od3L7P7TJHTT4zCZo2,call-function,77,514853,0.0-7.0-2.5-0.5-4.5,,,,,,,637e1c5a4cf3a6a0f0acd67c,11:24:54,15/01/2024
1367.5,"<p style=""font-size:3rem"">Trial 7 of 12</p><br><br><br>",0,fwdspan,start_trial,tKJCjY8h39Od3L7P7TJHTT4zCZo2,html-button-response,78,516222,0.0-7.0-2.6-0.6-0.6,,,,,,,637e1c5a4cf3a6a0f0acd67c,11:24:54,15/01/2024
,"<p style=""font-size:14rem;font-weight:400;"">6</p>",,fwdspan,number,tKJCjY8h39Od3L7P7TJHTT4zCZo2,html-keyboard-response,79,517230,0.0-7.0-2.6-0.6-1.33-0.33,,,,,,,637e1c5a4cf3a6a0f0acd67c,11:24:54,15/01/2024
,"<p style=""font-size:14rem;font-weight:400;"">1</p>",,fwdspan,number,tKJCjY8h39Od3L7P7TJHTT4zCZo2,html-keyboard-response,80,518258,0.0-7.0-2.6-0.6-1.34-0.34,,,,,,,637e1c5a4cf3a6a0f0acd67c,11:24:54,15/01/2024
,"<p style=""font-size:14rem;font-weight:400;"">2</p>",,fwdspan,number,tKJCjY8h39Od3L7P7TJHTT4zCZo2,html-keyboard-response,81,519274,0.0-7.0-2.6-0.6-1.35-0.35,,,,,,,637e1c5a4cf3a6a0f0acd67c,11:24:54,15/01/2024
,"<p style=""font-size:14rem;font-weight:400;"">7</p>",,fwdspan,number,tKJCjY8h39Od3L7P7TJHTT4zCZo2,html-keyboard-response,82,520288,0.0-7.0-2.6-0.6-1.36-0.36,,,,,,,637e1c5a4cf3a6a0f0acd67c,11:24:54,15/01/2024
,"<p style=""font-size:14rem;font-weight:400;"">9</p>",,fwdspan,number,tKJCjY8h39Od3L7P7TJHTT4zCZo2,html-keyboard-response,83,521298,0.0-7.0-2.6-0.6-1.37-0.37,,,,,,,637e1c5a4cf3a6a0f0acd67c,11:24:54,15/01/2024
,"<p style=""font-size:14rem;font-weight:400;"">5</p>",,fwdspan,number,tKJCjY8h39Od3L7P7TJHTT4zCZo2,html-keyboard-response,84,522314,0.0-7.0-2.6-0.6-1.38-0.38,,,,,,,637e1c5a4cf3a6a0f0acd67c,11:24:54,15/01/2024
,"<p style=""font-size:14rem;font-weight:400;"">3</p>",,fwdspan,number,tKJCjY8h39Od3L7P7TJHTT4zCZo2,html-keyboard-response,85,523326,0.0-7.0-2.6-0.6-1.39-0.39,,,,,,,637e1c5a4cf3a6a0f0acd67c,11:24:54,15/01/2024
,"<p style=""font-size:14rem;font-weight:400;"">8</p>",,fwdspan,number,tKJCjY8h39Od3L7P7TJHTT4zCZo2,html-keyboard-response,86,524339,0.0-7.0-2.6-0.6-1.40-0.40,,,,,,,637e1c5a4cf3a6a0f0acd67c,11:24:54,15/01/2024
,"<p style=""font-size:14rem;font-weight:400;"">4</p>",,fwdspan,number,tKJCjY8h39Od3L7P7TJHTT4zCZo2,html-keyboard-response,87,525355,0.0-7.0-2.6-0.6-1.41-0.41,,,,,,,637e1c5a4cf3a6a0f0acd67c,11:24:54,15/01/2024
,[],,fwdspan,delay,tKJCjY8h39Od3L7P7TJHTT4zCZo2,html-keyboard-response,88,525918,0.0-7.0-2.6-0.6-2.6,,,,,,,637e1c5a4cf3a6a0f0acd67c,11:24:54,15/01/2024
9219.0,"<div class = numbox><p style=""font-size:2.5rem"">What were the numbers <b>in order</b>?<br>(When you are ready to lock in your answer, press <b>ENTER</b>)</p><button id = button_1 class = ""square num-button"" onclick = ""recordClick(this)""><div class = content><div class = numbers>1</div></div></button><button id = button_2 class = ""square num-button"" onclick = ""recordClick(this)""><div class = content><div class = numbers>2</div></div></button><button id = button_3 class = ""square num-button"" onclick = ""recordClick(this)""><div class = content><div class = numbers>3</div></div></button><button id = button_4 class = ""square num-button"" onclick = ""recordClick(this)""><div class = content><div class = numbers>4</div></div></button><button id = button_5 class = ""square num-button"" onclick = ""recordClick(this)""><div class = content><div class = numbers>5</div></div></button><button id = button_6 class = ""square num-button"" onclick = ""recordClick(this)""><div class = content><div class = numbers>6</div></div></button><button id = button_7 class = ""square num-button"" onclick = ""recordClick(this)""><div class = content><div class = numbers>7</div></div></button><button id = button_8 class = ""square num-button"" onclick = ""recordClick(this)""><div class = content><div class = numbers>8</div></div></button><button id = button_9 class = ""square num-button"" onclick = ""recordClick(this)""><div class = content><div class = numbers>9</div></div></button><button class = clear_button id = ""ClearButton"" onclick = ""clearResponse()"">Clear</button><p><u><b>Current Answer:</b></u></p><div id=echoed_txt style=""font-size: 6rem; color:blue;""><b></b></div></div><br><br><br><br><br><br><br>",enter,fwdspan,response,tKJCjY8h39Od3L7P7TJHTT4zCZo2,html-keyboard-response,89,535140,0.0-7.0-2.6-0.6-3.6,9.0,"[6,7,9,5,2,1,8,5]","[6,1,2,7,9,5,3,8,4]",0.0,"[3, 4, 5, 6, 7, 8, 9, 9, 8, 9, 9, 10]",,637e1c5a4cf3a6a0f0acd67c,11:24:54,15/01/2024
,,,fwdspan,update_span,tKJCjY8h39Od3L7P7TJHTT4zCZo2,call-function,90,535407,0.0-7.0-2.6-0.6-4.6,,,,,,,637e1c5a4cf3a6a0f0acd67c,11:24:54,15/01/2024
1484.0999999046326,"<p style=""font-size:3rem"">Trial 8 of 12</p><br><br><br>",0,fwdspan,start_trial,tKJCjY8h39Od3L7P7TJHTT4zCZo2,html-button-response,91,536893,0.0-7.0-2.7-0.7-0.7,,,,,,,637e1c5a4cf3a6a0f0acd67c,11:24:54,15/01/2024
,"<p style=""font-size:14rem;font-weight:400;"">7</p>",,fwdspan,number,tKJCjY8h39Od3L7P7TJHTT4zCZo2,html-keyboard-response,92,537908,0.0-7.0-2.7-0.7-1.42-0.42,,,,,,,637e1c5a4cf3a6a0f0acd67c,11:24:54,15/01/2024
,"<p style=""font-size:14rem;font-weight:400;"">8</p>",,fwdspan,number,tKJCjY8h39Od3L7P7TJHTT4zCZo2,html-keyboard-response,93,538910,0.0-7.0-2.7-0.7-1.43-0.43,,,,,,,637e1c5a4cf3a6a0f0acd67c,11:24:54,15/01/2024
,"<p style=""font-size:14rem;font-weight:400;"">4</p>",,fwdspan,number,tKJCjY8h39Od3L7P7TJHTT4zCZo2,html-keyboard-response,94,539924,0.0-7.0-2.7-0.7-1.44-0.44,,,,,,,637e1c5a4cf3a6a0f0acd67c,11:24:54,15/01/2024
,"<p style=""font-size:14rem;font-weight:400;"">1</p>",,fwdspan,number,tKJCjY8h39Od3L7P7TJHTT4zCZo2,html-keyboard-response,95,540953,0.0-7.0-2.7-0.7-1.45-0.45,,,,,,,637e1c5a4cf3a6a0f0acd67c,11:24:54,15/01/2024
,"<p style=""font-size:14rem;font-weight:400;"">6</p>",,fwdspan,number,tKJCjY8h39Od3L7P7TJHTT4zCZo2,html-keyboard-response,96,541965,0.0-7.0-2.7-0.7-1.46-0.46,,,,,,,637e1c5a4cf3a6a0f0acd67c,11:24:54,15/01/2024
,"<p style=""font-size:14rem;font-weight:400;"">5</p>",,fwdspan,number,tKJCjY8h39Od3L7P7TJHTT4zCZo2,html-keyboard-response,97,542987,0.0-7.0-2.7-0.7-1.47-0.47,,,,,,,637e1c5a4cf3a6a0f0acd67c,11:24:54,15/01/2024
,"<p style=""font-size:14rem;font-weight:400;"">9</p>",,fwdspan,number,tKJCjY8h39Od3L7P7TJHTT4zCZo2,html-keyboard-response,98,543999,0.0-7.0-2.7-0.7-1.48-0.48,,,,,,,637e1c5a4cf3a6a0f0acd67c,11:24:54,15/01/2024
,"<p style=""font-size:14rem;font-weight:400;"">3</p>",,fwdspan,number,tKJCjY8h39Od3L7P7TJHTT4zCZo2,html-keyboard-response,99,545015,0.0-7.0-2.7-0.7-1.49-0.49,,,,,,,637e1c5a4cf3a6a0f0acd67c,11:24:54,15/01/2024
,"<p style=""font-size:14rem;font-weight:400;"">2</p>",,fwdspan,number,tKJCjY8h39Od3L7P7TJHTT4zCZo2,html-keyboard-response,100,546035,0.0-7.0-2.7-0.7-1.50-0.50,,,,,,,637e1c5a4cf3a6a0f0acd67c,11:24:54,15/01/2024
,[],,fwdspan,delay,tKJCjY8h39Od3L7P7TJHTT4zCZo2,html-keyboard-response,101,546597,0.0-7.0-2.7-0.7-2.7,,,,,,,637e1c5a4cf3a6a0f0acd67c,11:24:54,15/01/2024
8979.899999856949,"<div class = numbox><p style=""font-size:2.5rem"">What were the numbers <b>in order</b>?<br>(When you are ready to lock in your answer, press <b>ENTER</b>)</p><button id = button_1 class = ""square num-button"" onclick = ""recordClick(this)""><div class = content><div class = numbers>1</div></div></button><button id = button_2 class = ""square num-button"" onclick = ""recordClick(this)""><div class = content><div class = numbers>2</div></div></button><button id = button_3 class = ""square num-button"" onclick = ""recordClick(this)""><div class = content><div class = numbers>3</div></div></button><button id = button_4 class = ""square num-button"" onclick = ""recordClick(this)""><div class = content><div class = numbers>4</div></div></button><button id = button_5 class = ""square num-button"" onclick = ""recordClick(this)""><div class = content><div class = numbers>5</div></div></button><button id = button_6 class = ""square num-button"" onclick = ""recordClick(this)""><div class = content><div class = numbers>6</div></div></button><button id = button_7 class = ""square num-button"" onclick = ""recordClick(this)""><div class = content><div class = numbers>7</div></div></button><button id = button_8 class = ""square num-button"" onclick = ""recordClick(this)""><div class = content><div class = numbers>8</div></div></button><button id = button_9 class = ""square num-button"" onclick = ""recordClick(this)""><div class = content><div class = numbers>9</div></div></button><button class = clear_button id = ""ClearButton"" onclick = ""clearResponse()"">Clear</button><p><u><b>Current Answer:</b></u></p><div id=echoed_txt style=""font-size: 6rem; color:blue;""><b></b></div></div><br><br><br><br><br><br><br>",enter,fwdspan,response,tKJCjY8h39Od3L7P7TJHTT4zCZo2,html-keyboard-response,102,555579,0.0-7.0-2.7-0.7-3.7,9.0,"[7,8,4,9,6,5,3,2,1]","[7,8,4,1,6,5,9,3,2]",0.0,"[3, 4, 5, 6, 7, 8, 9, 9, 8, 9, 9, 10]",,637e1c5a4cf3a6a0f0acd67c,11:24:54,15/01/2024
,,,fwdspan,update_span,tKJCjY8h39Od3L7P7TJHTT4zCZo2,call-function,103,555836,0.0-7.0-2.7-0.7-4.7,,,,,,,637e1c5a4cf3a6a0f0acd67c,11:24:54,15/01/2024
3380.5999999046326,"<p style=""font-size:3rem"">Trial 9 of 12</p><br><br><br>",0,fwdspan,start_trial,tKJCjY8h39Od3L7P7TJHTT4zCZo2,html-button-response,104,559218,0.0-7.0-2.8-0.8-0.8,,,,,,,637e1c5a4cf3a6a0f0acd67c,11:24:54,15/01/2024
,"<p style=""font-size:14rem;font-weight:400;"">7</p>",,fwdspan,number,tKJCjY8h39Od3L7P7TJHTT4zCZo2,html-keyboard-response,105,560227,0.0-7.0-2.8-0.8-1.51-0.51,,,,,,,637e1c5a4cf3a6a0f0acd67c,11:24:54,15/01/2024
,"<p style=""font-size:14rem;font-weight:400;"">8</p>",,fwdspan,number,tKJCjY8h39Od3L7P7TJHTT4zCZo2,html-keyboard-response,106,561251,0.0-7.0-2.8-0.8-1.52-0.52,,,,,,,637e1c5a4cf3a6a0f0acd67c,11:24:54,15/01/2024
,"<p style=""font-size:14rem;font-weight:400;"">6</p>",,fwdspan,number,tKJCjY8h39Od3L7P7TJHTT4zCZo2,html-keyboard-response,107,562271,0.0-7.0-2.8-0.8-1.53-0.53,,,,,,,637e1c5a4cf3a6a0f0acd67c,11:24:54,15/01/2024
,"<p style=""font-size:14rem;font-weight:400;"">3</p>",,fwdspan,number,tKJCjY8h39Od3L7P7TJHTT4zCZo2,html-keyboard-response,108,563287,0.0-7.0-2.8-0.8-1.54-0.54,,,,,,,637e1c5a4cf3a6a0f0acd67c,11:24:54,15/01/2024
,"<p style=""font-size:14rem;font-weight:400;"">4</p>",,fwdspan,number,tKJCjY8h39Od3L7P7TJHTT4zCZo2,html-keyboard-response,109,564300,0.0-7.0-2.8-0.8-1.55-0.55,,,,,,,637e1c5a4cf3a6a0f0acd67c,11:24:54,15/01/2024
,"<p style=""font-size:14rem;font-weight:400;"">2</p>",,fwdspan,number,tKJCjY8h39Od3L7P7TJHTT4zCZo2,html-keyboard-response,110,565318,0.0-7.0-2.8-0.8-1.56-0.56,,,,,,,637e1c5a4cf3a6a0f0acd67c,11:24:54,15/01/2024
,"<p style=""font-size:14rem;font-weight:400;"">5</p>",,fwdspan,number,tKJCjY8h39Od3L7P7TJHTT4zCZo2,html-keyboard-response,111,566326,0.0-7.0-2.8-0.8-1.57-0.57,,,,,,,637e1c5a4cf3a6a0f0acd67c,11:24:54,15/01/2024
,"<p style=""font-size:14rem;font-weight:400;"">9</p>",,fwdspan,number,tKJCjY8h39Od3L7P7TJHTT4zCZo2,html-keyboard-response,112,567342,0.0-7.0-2.8-0.8-1.58-0.58,,,,,,,637e1c5a4cf3a6a0f0acd67c,11:24:54,15/01/2024
,[],,fwdspan,delay,tKJCjY8h39Od3L7P7TJHTT4zCZo2,html-keyboard-response,113,567911,0.0-7.0-2.8-0.8-2.8,,,,,,,637e1c5a4cf3a6a0f0acd67c,11:24:54,15/01/2024
10281.399999856949,"<div class = numbox><p style=""font-size:2.5rem"">What were the numbers <b>in order</b>?<br>(When you are ready to lock in your answer, press <b>ENTER</b>)</p><button id = button_1 class = ""square num-button"" onclick = ""recordClick(this)""><div class = content><div class = numbers>1</div></div></button><button id = button_2 class = ""square num-button"" onclick = ""recordClick(this)""><div class = content><div class = numbers>2</div></div></button><button id = button_3 class = ""square num-button"" onclick = ""recordClick(this)""><div class = content><div class = numbers>3</div></div></button><button id = button_4 class = ""square num-button"" onclick = ""recordClick(this)""><div class = content><div class = numbers>4</div></div></button><button id = button_5 class = ""square num-button"" onclick = ""recordClick(this)""><div class = content><div class = numbers>5</div></div></button><button id = button_6 class = ""square num-button"" onclick = ""recordClick(this)""><div class = content><div class = numbers>6</div></div></button><button id = button_7 class = ""square num-button"" onclick = ""recordClick(this)""><div class = content><div class = numbers>7</div></div></button><button id = button_8 class = ""square num-button"" onclick = ""recordClick(this)""><div class = content><div class = numbers>8</div></div></button><button id = button_9 class = ""square num-button"" onclick = ""recordClick(this)""><div class = content><div class = numbers>9</div></div></button><button class = clear_button id = ""ClearButton"" onclick = ""clearResponse()"">Clear</button><p><u><b>Current Answer:</b></u></p><div id=echoed_txt style=""font-size: 6rem; color:blue;""><b></b></div></div><br><br><br><br><br><br><br>",enter,fwdspan,response,tKJCjY8h39Od3L7P7TJHTT4zCZo2,html-keyboard-response,114,578195,0.0-7.0-2.8-0.8-3.8,8.0,"[7,8,6,3,4,2,5,9]","[7,8,6,3,4,2,5,9]",1.0,"[3, 4, 5, 6, 7, 8, 9, 9, 8, 9, 9, 10]",,637e1c5a4cf3a6a0f0acd67c,11:24:54,15/01/2024
,,,fwdspan,update_span,tKJCjY8h39Od3L7P7TJHTT4zCZo2,call-function,115,578460,0.0-7.0-2.8-0.8-4.8,,,,,,,637e1c5a4cf3a6a0f0acd67c,11:24:54,15/01/2024
1154.4000000953674,"<p style=""font-size:3rem"">Trial 10 of 12</p><br><br><br>",0,fwdspan,start_trial,tKJCjY8h39Od3L7P7TJHTT4zCZo2,html-button-response,116,579617,0.0-7.0-2.9-0.9-0.9,,,,,,,637e1c5a4cf3a6a0f0acd67c,11:24:54,15/01/2024
,"<p style=""font-size:14rem;font-weight:400;"">5</p>",,fwdspan,number,tKJCjY8h39Od3L7P7TJHTT4zCZo2,html-keyboard-response,117,580625,0.0-7.0-2.9-0.9-1.59-0.59,,,,,,,637e1c5a4cf3a6a0f0acd67c,11:24:54,15/01/2024
,"<p style=""font-size:14rem;font-weight:400;"">1</p>",,fwdspan,number,tKJCjY8h39Od3L7P7TJHTT4zCZo2,html-keyboard-response,118,581640,0.0-7.0-2.9-0.9-1.60-0.60,,,,,,,637e1c5a4cf3a6a0f0acd67c,11:24:54,15/01/2024
,"<p style=""font-size:14rem;font-weight:400;"">4</p>",,fwdspan,number,tKJCjY8h39Od3L7P7TJHTT4zCZo2,html-keyboard-response,119,582661,0.0-7.0-2.9-0.9-1.61-0.61,,,,,,,637e1c5a4cf3a6a0f0acd67c,11:24:54,15/01/2024
,"<p style=""font-size:14rem;font-weight:400;"">2</p>",,fwdspan,number,tKJCjY8h39Od3L7P7TJHTT4zCZo2,html-keyboard-response,120,583676,0.0-7.0-2.9-0.9-1.62-0.62,,,,,,,637e1c5a4cf3a6a0f0acd67c,11:24:54,15/01/2024
,"<p style=""font-size:14rem;font-weight:400;"">7</p>",,fwdspan,number,tKJCjY8h39Od3L7P7TJHTT4zCZo2,html-keyboard-response,121,584692,0.0-7.0-2.9-0.9-1.63-0.63,,,,,,,637e1c5a4cf3a6a0f0acd67c,11:24:54,15/01/2024
,"<p style=""font-size:14rem;font-weight:400;"">3</p>",,fwdspan,number,tKJCjY8h39Od3L7P7TJHTT4zCZo2,html-keyboard-response,122,585703,0.0-7.0-2.9-0.9-1.64-0.64,,,,,,,637e1c5a4cf3a6a0f0acd67c,11:24:54,15/01/2024
,"<p style=""font-size:14rem;font-weight:400;"">9</p>",,fwdspan,number,tKJCjY8h39Od3L7P7TJHTT4zCZo2,html-keyboard-response,123,586710,0.0-7.0-2.9-0.9-1.65-0.65,,,,,,,637e1c5a4cf3a6a0f0acd67c,11:24:54,15/01/2024
,"<p style=""font-size:14rem;font-weight:400;"">8</p>",,fwdspan,number,tKJCjY8h39Od3L7P7TJHTT4zCZo2,html-keyboard-response,124,587719,0.0-7.0-2.9-0.9-1.66-0.66,,,,,,,637e1c5a4cf3a6a0f0acd67c,11:24:54,15/01/2024
,"<p style=""font-size:14rem;font-weight:400;"">6</p>",,fwdspan,number,tKJCjY8h39Od3L7P7TJHTT4zCZo2,html-keyboard-response,125,588747,0.0-7.0-2.9-0.9-1.67-0.67,,,,,,,637e1c5a4cf3a6a0f0acd67c,11:24:54,15/01/2024
,[],,fwdspan,delay,tKJCjY8h39Od3L7P7TJHTT4zCZo2,html-keyboard-response,126,589325,0.0-7.0-2.9-0.9-2.9,,,,,,,637e1c5a4cf3a6a0f0acd67c,11:24:54,15/01/2024
11479.299999952316,"<div class = numbox><p style=""font-size:2.5rem"">What were the numbers <b>in order</b>?<br>(When you are ready to lock in your answer, press <b>ENTER</b>)</p><button id = button_1 class = ""square num-button"" onclick = ""recordClick(this)""><div class = content><div class = numbers>1</div></div></button><button id = button_2 class = ""square num-button"" onclick = ""recordClick(this)""><div class = content><div class = numbers>2</div></div></button><button id = button_3 class = ""square num-button"" onclick = ""recordClick(this)""><div class = content><div class = numbers>3</div></div></button><button id = button_4 class = ""square num-button"" onclick = ""recordClick(this)""><div class = content><div class = numbers>4</div></div></button><button id = button_5 class = ""square num-button"" onclick = ""recordClick(this)""><div class = content><div class = numbers>5</div></div></button><button id = button_6 class = ""square num-button"" onclick = ""recordClick(this)""><div class = content><div class = numbers>6</div></div></button><button id = button_7 class = ""square num-button"" onclick = ""recordClick(this)""><div class = content><div class = numbers>7</div></div></button><button id = button_8 class = ""square num-button"" onclick = ""recordClick(this)""><div class = content><div class = numbers>8</div></div></button><button id = button_9 class = ""square num-button"" onclick = ""recordClick(this)""><div class = content><div class = numbers>9</div></div></button><button class = clear_button id = ""ClearButton"" onclick = ""clearResponse()"">Clear</button><p><u><b>Current Answer:</b></u></p><div id=echoed_txt style=""font-size: 6rem; color:blue;""><b></b></div></div><br><br><br><br><br><br><br>",enter,fwdspan,response,tKJCjY8h39Od3L7P7TJHTT4zCZo2,html-keyboard-response,127,600807,0.0-7.0-2.9-0.9-3.9,9.0,"[5,1,4,2,7,3,6,8]","[5,1,4,2,7,3,9,8,6]",0.0,"[3, 4, 5, 6, 7, 8, 9, 9, 8, 9, 9, 10]",,637e1c5a4cf3a6a0f0acd67c,11:24:54,15/01/2024
,,,fwdspan,update_span,tKJCjY8h39Od3L7P7TJHTT4zCZo2,call-function,128,601074,0.0-7.0-2.9-0.9-4.9,,,,,,,637e1c5a4cf3a6a0f0acd67c,11:24:54,15/01/2024
1315.0999999046326,"<p style=""font-size:3rem"">Trial 11 of 12</p><br><br><br>",0,fwdspan,start_trial,tKJCjY8h39Od3L7P7TJHTT4zCZo2,html-button-response,129,602390,0.0-7.0-2.10-0.10-0.10,,,,,,,637e1c5a4cf3a6a0f0acd67c,11:24:54,15/01/2024
,"<p style=""font-size:14rem;font-weight:400;"">4</p>",,fwdspan,number,tKJCjY8h39Od3L7P7TJHTT4zCZo2,html-keyboard-response,130,603397,0.0-7.0-2.10-0.10-1.68-0.68,,,,,,,637e1c5a4cf3a6a0f0acd67c,11:24:54,15/01/2024
,"<p style=""font-size:14rem;font-weight:400;"">2</p>",,fwdspan,number,tKJCjY8h39Od3L7P7TJHTT4zCZo2,html-keyboard-response,131,604415,0.0-7.0-2.10-0.10-1.69-0.69,,,,,,,637e1c5a4cf3a6a0f0acd67c,11:24:54,15/01/2024
,"<p style=""font-size:14rem;font-weight:400;"">3</p>",,fwdspan,number,tKJCjY8h39Od3L7P7TJHTT4zCZo2,html-keyboard-response,132,605438,0.0-7.0-2.10-0.10-1.70-0.70,,,,,,,637e1c5a4cf3a6a0f0acd67c,11:24:54,15/01/2024
,"<p style=""font-size:14rem;font-weight:400;"">9</p>",,fwdspan,number,tKJCjY8h39Od3L7P7TJHTT4zCZo2,html-keyboard-response,133,606443,0.0-7.0-2.10-0.10-1.71-0.71,,,,,,,637e1c5a4cf3a6a0f0acd67c,11:24:54,15/01/2024
,"<p style=""font-size:14rem;font-weight:400;"">7</p>",,fwdspan,number,tKJCjY8h39Od3L7P7TJHTT4zCZo2,html-keyboard-response,134,607452,0.0-7.0-2.10-0.10-1.72-0.72,,,,,,,637e1c5a4cf3a6a0f0acd67c,11:24:54,15/01/2024
,"<p style=""font-size:14rem;font-weight:400;"">6</p>",,fwdspan,number,tKJCjY8h39Od3L7P7TJHTT4zCZo2,html-keyboard-response,135,608474,0.0-7.0-2.10-0.10-1.73-0.73,,,,,,,637e1c5a4cf3a6a0f0acd67c,11:24:54,15/01/2024
,"<p style=""font-size:14rem;font-weight:400;"">8</p>",,fwdspan,number,tKJCjY8h39Od3L7P7TJHTT4zCZo2,html-keyboard-response,136,609492,0.0-7.0-2.10-0.10-1.74-0.74,,,,,,,637e1c5a4cf3a6a0f0acd67c,11:24:54,15/01/2024
,"<p style=""font-size:14rem;font-weight:400;"">5</p>",,fwdspan,number,tKJCjY8h39Od3L7P7TJHTT4zCZo2,html-keyboard-response,137,610495,0.0-7.0-2.10-0.10-1.75-0.75,,,,,,,637e1c5a4cf3a6a0f0acd67c,11:24:54,15/01/2024
,"<p style=""font-size:14rem;font-weight:400;"">1</p>",,fwdspan,number,tKJCjY8h39Od3L7P7TJHTT4zCZo2,html-keyboard-response,138,611523,0.0-7.0-2.10-0.10-1.76-0.76,,,,,,,637e1c5a4cf3a6a0f0acd67c,11:24:54,15/01/2024
,[],,fwdspan,delay,tKJCjY8h39Od3L7P7TJHTT4zCZo2,html-keyboard-response,139,612089,0.0-7.0-2.10-0.10-2.10,,,,,,,637e1c5a4cf3a6a0f0acd67c,11:24:54,15/01/2024
10569.599999904633,"<div class = numbox><p style=""font-size:2.5rem"">What were the numbers <b>in order</b>?<br>(When you are ready to lock in your answer, press <b>ENTER</b>)</p><button id = button_1 class = ""square num-button"" onclick = ""recordClick(this)""><div class = content><div class = numbers>1</div></div></button><button id = button_2 class = ""square num-button"" onclick = ""recordClick(this)""><div class = content><div class = numbers>2</div></div></button><button id = button_3 class = ""square num-button"" onclick = ""recordClick(this)""><div class = content><div class = numbers>3</div></div></button><button id = button_4 class = ""square num-button"" onclick = ""recordClick(this)""><div class = content><div class = numbers>4</div></div></button><button id = button_5 class = ""square num-button"" onclick = ""recordClick(this)""><div class = content><div class = numbers>5</div></div></button><button id = button_6 class = ""square num-button"" onclick = ""recordClick(this)""><div class = content><div class = numbers>6</div></div></button><button id = button_7 class = ""square num-button"" onclick = ""recordClick(this)""><div class = content><div class = numbers>7</div></div></button><button id = button_8 class = ""square num-button"" onclick = ""recordClick(this)""><div class = content><div class = numbers>8</div></div></button><button id = button_9 class = ""square num-button"" onclick = ""recordClick(this)""><div class = content><div class = numbers>9</div></div></button><button class = clear_button id = ""ClearButton"" onclick = ""clearResponse()"">Clear</button><p><u><b>Current Answer:</b></u></p><div id=echoed_txt style=""font-size: 6rem; color:blue;""><b></b></div></div><br><br><br><br><br><br><br>",enter,fwdspan,response,tKJCjY8h39Od3L7P7TJHTT4zCZo2,html-keyboard-response,140,622661,0.0-7.0-2.10-0.10-3.10,9.0,"[4,2,3,9,7,6,8,5,1]","[4,2,3,9,7,6,8,5,1]",1.0,"[3, 4, 5, 6, 7, 8, 9, 9, 8, 9, 9, 10]",,637e1c5a4cf3a6a0f0acd67c,11:24:54,15/01/2024
,,,fwdspan,update_span,tKJCjY8h39Od3L7P7TJHTT4zCZo2,call-function,141,622928,0.0-7.0-2.10-0.10-4.10,,,,,,,637e1c5a4cf3a6a0f0acd67c,11:24:54,15/01/2024
2170.2999999523163,"<p style=""font-size:3rem"">Trial 12 of 12</p><br><br><br>",0,fwdspan,start_trial,tKJCjY8h39Od3L7P7TJHTT4zCZo2,html-button-response,142,625100,0.0-7.0-2.11-0.11-0.11,,,,,,,637e1c5a4cf3a6a0f0acd67c,11:24:54,15/01/2024
,"<p style=""font-size:14rem;font-weight:400;"">7</p>",,fwdspan,number,tKJCjY8h39Od3L7P7TJHTT4zCZo2,html-keyboard-response,143,626114,0.0-7.0-2.11-0.11-1.77-0.77,,,,,,,637e1c5a4cf3a6a0f0acd67c,11:24:54,15/01/2024
,"<p style=""font-size:14rem;font-weight:400;"">1</p>",,fwdspan,number,tKJCjY8h39Od3L7P7TJHTT4zCZo2,html-keyboard-response,144,627124,0.0-7.0-2.11-0.11-1.78-0.78,,,,,,,637e1c5a4cf3a6a0f0acd67c,11:24:54,15/01/2024
,"<p style=""font-size:14rem;font-weight:400;"">9</p>",,fwdspan,number,tKJCjY8h39Od3L7P7TJHTT4zCZo2,html-keyboard-response,145,628147,0.0-7.0-2.11-0.11-1.79-0.79,,,,,,,637e1c5a4cf3a6a0f0acd67c,11:24:54,15/01/2024
,"<p style=""font-size:14rem;font-weight:400;"">2</p>",,fwdspan,number,tKJCjY8h39Od3L7P7TJHTT4zCZo2,html-keyboard-response,146,629163,0.0-7.0-2.11-0.11-1.80-0.80,,,,,,,637e1c5a4cf3a6a0f0acd67c,11:24:54,15/01/2024
,"<p style=""font-size:14rem;font-weight:400;"">5</p>",,fwdspan,number,tKJCjY8h39Od3L7P7TJHTT4zCZo2,html-keyboard-response,147,630174,0.0-7.0-2.11-0.11-1.81-0.81,,,,,,,637e1c5a4cf3a6a0f0acd67c,11:24:54,15/01/2024
,"<p style=""font-size:14rem;font-weight:400;"">6</p>",,fwdspan,number,tKJCjY8h39Od3L7P7TJHTT4zCZo2,html-keyboard-response,148,631187,0.0-7.0-2.11-0.11-1.82-0.82,,,,,,,637e1c5a4cf3a6a0f0acd67c,11:24:54,15/01/2024
,"<p style=""font-size:14rem;font-weight:400;"">8</p>",,fwdspan,number,tKJCjY8h39Od3L7P7TJHTT4zCZo2,html-keyboard-response,149,632203,0.0-7.0-2.11-0.11-1.83-0.83,,,,,,,637e1c5a4cf3a6a0f0acd67c,11:24:54,15/01/2024
,"<p style=""font-size:14rem;font-weight:400;"">4</p>",,fwdspan,number,tKJCjY8h39Od3L7P7TJHTT4zCZo2,html-keyboard-response,150,633220,0.0-7.0-2.11-0.11-1.84-0.84,,,,,,,637e1c5a4cf3a6a0f0acd67c,11:24:54,15/01/2024
,"<p style=""font-size:14rem;font-weight:400;"">3</p>",,fwdspan,number,tKJCjY8h39Od3L7P7TJHTT4zCZo2,html-keyboard-response,151,634236,0.0-7.0-2.11-0.11-1.85-0.85,,,,,,,637e1c5a4cf3a6a0f0acd67c,11:24:54,15/01/2024
,"<p style=""font-size:14rem;font-weight:400;"">3</p>",,fwdspan,number,tKJCjY8h39Od3L7P7TJHTT4zCZo2,html-keyboard-response,152,635268,0.0-7.0-2.11-0.11-1.86-0.86,,,,,,,637e1c5a4cf3a6a0f0acd67c,11:24:54,15/01/2024
,[],,fwdspan,delay,tKJCjY8h39Od3L7P7TJHTT4zCZo2,html-keyboard-response,153,635824,0.0-7.0-2.11-0.11-2.11,,,,,,,637e1c5a4cf3a6a0f0acd67c,11:24:54,15/01/2024
10722.0,"<div class = numbox><p style=""font-size:2.5rem"">What were the numbers <b>in order</b>?<br>(When you are ready to lock in your answer, press <b>ENTER</b>)</p><button id = button_1 class = ""square num-button"" onclick = ""recordClick(this)""><div class = content><div class = numbers>1</div></div></button><button id = button_2 class = ""square num-button"" onclick = ""recordClick(this)""><div class = content><div class = numbers>2</div></div></button><button id = button_3 class = ""square num-button"" onclick = ""recordClick(this)""><div class = content><div class = numbers>3</div></div></button><button id = button_4 class = ""square num-button"" onclick = ""recordClick(this)""><div class = content><div class = numbers>4</div></div></button><button id = button_5 class = ""square num-button"" onclick = ""recordClick(this)""><div class = content><div class = numbers>5</div></div></button><button id = button_6 class = ""square num-button"" onclick = ""recordClick(this)""><div class = content><div class = numbers>6</div></div></button><button id = button_7 class = ""square num-button"" onclick = ""recordClick(this)""><div class = content><div class = numbers>7</div></div></button><button id = button_8 class = ""square num-button"" onclick = ""recordClick(this)""><div class = content><div class = numbers>8</div></div></button><button id = button_9 class = ""square num-button"" onclick = ""recordClick(this)""><div class = content><div class = numbers>9</div></div></button><button class = clear_button id = ""ClearButton"" onclick = ""clearResponse()"">Clear</button><p><u><b>Current Answer:</b></u></p><div id=echoed_txt style=""font-size: 6rem; color:blue;""><b></b></div></div><br><br><br><br><br><br><br>",enter,fwdspan,response,tKJCjY8h39Od3L7P7TJHTT4zCZo2,html-keyboard-response,154,646549,0.0-7.0-2.11-0.11-3.11,10.0,"[7,1,9,2,5,6,8,4,3,3]","[7,1,9,2,5,6,8,4,3,3]",1.0,"[3, 4, 5, 6, 7, 8, 9, 9, 8, 9, 9, 10]",,637e1c5a4cf3a6a0f0acd67c,11:24:54,15/01/2024
,,,fwdspan,update_span,tKJCjY8h39Od3L7P7TJHTT4zCZo2,call-function,155,646814,0.0-7.0-2.11-0.11-4.11,,,,,,,637e1c5a4cf3a6a0f0acd67c,11:24:54,15/01/2024
52291.5,,{'Q0': 'I found the number remembering a bit stressful. I thought the questionnaire could have had more answers as options available.'},fwdspan,survey,tKJCjY8h39Od3L7P7TJHTT4zCZo2,lmdlab-survey-text,156,699871,0.0-7.0-3.0,,,,,,tKJCjY8h39Od3L7P7TJHTT4zCZo2,637e1c5a4cf3a6a0f0acd67c,11:24:54,15/01/2024
4913.800000190735,<p><p style='font-size: 3rem'>Great work!<br><br>This completes the digit span task.</p><br><br><br>,0,fwdspan,finish,tKJCjY8h39Od3L7P7TJHTT4zCZo2,html-button-response,157,704792,0.0-7.0-4.0,,,,,,,637e1c5a4cf3a6a0f0acd67c,11:24:54,15/01/2024
