rt,stimulus,response,exp_name,exp_stage,subjectID,trial_type,trial_index,time_elapsed,internal_node_id,span,answer,correct,correct_full,span_history,databaseID,prolificID,start_time,date
1398.3999999910593,"<p style=""font-size:4rem""><br><br>In the next part today, we have a completely different short task.<br><br><br>This part involves keeping numbers in you mind. Participation takes around 5 minutes.<br><br><br></p>",0,fwdspan,instruct,SD8ba28dKaTnYHMXddk8uf2MMXh1,html-button-response,19,169188,0.0-7.0-0.0,,,,,,,62d2c9d825a0449c13aa42cc,1:01:41 PM,1/15/2024
4723.20000000298,"<p style=""font-size:5rem"">Welcome to the <b>digit span task</b>!<br><br></p><p style=""font-size:3.4rem""><br>On each trial, you will see a sequence of digits, followed by a delay.</p><p style=""font-size:3.4rem""><br>Then you will be asked to type them back in the same order in which they were seen.</p><p style=""font-size:3.4rem""><br><br><br>For example, if you saw the digits <b style=""color:blue;"">1</b>, <b style=""color:blue;"">2</b>, <b style=""color:blue;"">3</b>, you would respond with <b style=""color:blue;"">1</b>, <b style=""color:blue;"">2</b>, <b style=""color:blue;"">3</b></p><p style=""font-size:3.4rem""><br><br><br>To ensure the best measure of true performance for our study,<br><br>it is very important that you do not use any memory aid (e.g., pen and paper).<br><br>Please do the task solely in your head.</p><p style=""font-size:3.4rem""><br><br><br>There will be 12 total trials. Participation takes around 5 minutes.</p><br><br><br>",0,fwdspan,instruct,SD8ba28dKaTnYHMXddk8uf2MMXh1,html-button-response,20,173913,0.0-7.0-1.0,,,,,,,62d2c9d825a0449c13aa42cc,1:01:41 PM,1/15/2024
887.7999999970198,"<p style=""font-size:3rem"">Trial 1 of 12</p><br><br><br>",0,fwdspan,start_trial,SD8ba28dKaTnYHMXddk8uf2MMXh1,html-button-response,21,174802,0.0-7.0-2.0-0.0-0.0,,,,,,,62d2c9d825a0449c13aa42cc,1:01:41 PM,1/15/2024
,"<p style=""font-size:14rem;font-weight:400;"">2</p>",,fwdspan,number,SD8ba28dKaTnYHMXddk8uf2MMXh1,html-keyboard-response,22,175812,0.0-7.0-2.0-0.0-1.0-0.0,,,,,,,62d2c9d825a0449c13aa42cc,1:01:41 PM,1/15/2024
,"<p style=""font-size:14rem;font-weight:400;"">3</p>",,fwdspan,number,SD8ba28dKaTnYHMXddk8uf2MMXh1,html-keyboard-response,23,176832,0.0-7.0-2.0-0.0-1.1-0.1,,,,,,,62d2c9d825a0449c13aa42cc,1:01:41 PM,1/15/2024
,"<p style=""font-size:14rem;font-weight:400;"">4</p>",,fwdspan,number,SD8ba28dKaTnYHMXddk8uf2MMXh1,html-keyboard-response,24,177860,0.0-7.0-2.0-0.0-1.2-0.2,,,,,,,62d2c9d825a0449c13aa42cc,1:01:41 PM,1/15/2024
,[],,fwdspan,delay,SD8ba28dKaTnYHMXddk8uf2MMXh1,html-keyboard-response,25,178418,0.0-7.0-2.0-0.0-2.0,,,,,,,62d2c9d825a0449c13aa42cc,1:01:41 PM,1/15/2024
3712.0,"<div class = numbox><p style=""font-size:2.5rem"">What were the numbers <b>in order</b>?<br>(When you are ready to lock in your answer, press <b>ENTER</b>)</p><button id = button_1 class = ""square num-button"" onclick = ""recordClick(this)""><div class = content><div class = numbers>1</div></div></button><button id = button_2 class = ""square num-button"" onclick = ""recordClick(this)""><div class = content><div class = numbers>2</div></div></button><button id = button_3 class = ""square num-button"" onclick = ""recordClick(this)""><div class = content><div class = numbers>3</div></div></button><button id = button_4 class = ""square num-button"" onclick = ""recordClick(this)""><div class = content><div class = numbers>4</div></div></button><button id = button_5 class = ""square num-button"" onclick = ""recordClick(this)""><div class = content><div class = numbers>5</div></div></button><button id = button_6 class = ""square num-button"" onclick = ""recordClick(this)""><div class = content><div class = numbers>6</div></div></button><button id = button_7 class = ""square num-button"" onclick = ""recordClick(this)""><div class = content><div class = numbers>7</div></div></button><button id = button_8 class = ""square num-button"" onclick = ""recordClick(this)""><div class = content><div class = numbers>8</div></div></button><button id = button_9 class = ""square num-button"" onclick = ""recordClick(this)""><div class = content><div class = numbers>9</div></div></button><button class = clear_button id = ""ClearButton"" onclick = ""clearResponse()"">Clear</button><p><u><b>Current Answer:</b></u></p><div id=echoed_txt style=""font-size: 6rem; color:blue;""><b></b></div></div><br><br><br><br><br><br><br>",enter,fwdspan,response,SD8ba28dKaTnYHMXddk8uf2MMXh1,html-keyboard-response,26,182131,0.0-7.0-2.0-0.0-3.0,3.0,"[2,3,4]","[2,3,4]",1.0,"[3, 4, 5, 6, 7, 8, 9, 9, 10, 10, 9, 9]",,62d2c9d825a0449c13aa42cc,1:01:41 PM,1/15/2024
,,,fwdspan,update_span,SD8ba28dKaTnYHMXddk8uf2MMXh1,call-function,27,182394,0.0-7.0-2.0-0.0-4.0,,,,,,,62d2c9d825a0449c13aa42cc,1:01:41 PM,1/15/2024
1878.0,"<p style=""font-size:3rem"">Trial 2 of 12</p><br><br><br>",0,fwdspan,start_trial,SD8ba28dKaTnYHMXddk8uf2MMXh1,html-button-response,28,184273,0.0-7.0-2.1-0.1-0.1,,,,,,,62d2c9d825a0449c13aa42cc,1:01:41 PM,1/15/2024
,"<p style=""font-size:14rem;font-weight:400;"">5</p>",,fwdspan,number,SD8ba28dKaTnYHMXddk8uf2MMXh1,html-keyboard-response,29,185296,0.0-7.0-2.1-0.1-1.3-0.3,,,,,,,62d2c9d825a0449c13aa42cc,1:01:41 PM,1/15/2024
,"<p style=""font-size:14rem;font-weight:400;"">8</p>",,fwdspan,number,SD8ba28dKaTnYHMXddk8uf2MMXh1,html-keyboard-response,30,186317,0.0-7.0-2.1-0.1-1.4-0.4,,,,,,,62d2c9d825a0449c13aa42cc,1:01:41 PM,1/15/2024
,"<p style=""font-size:14rem;font-weight:400;"">7</p>",,fwdspan,number,SD8ba28dKaTnYHMXddk8uf2MMXh1,html-keyboard-response,31,187328,0.0-7.0-2.1-0.1-1.5-0.5,,,,,,,62d2c9d825a0449c13aa42cc,1:01:41 PM,1/15/2024
,"<p style=""font-size:14rem;font-weight:400;"">2</p>",,fwdspan,number,SD8ba28dKaTnYHMXddk8uf2MMXh1,html-keyboard-response,32,188348,0.0-7.0-2.1-0.1-1.6-0.6,,,,,,,62d2c9d825a0449c13aa42cc,1:01:41 PM,1/15/2024
,[],,fwdspan,delay,SD8ba28dKaTnYHMXddk8uf2MMXh1,html-keyboard-response,33,188912,0.0-7.0-2.1-0.1-2.1,,,,,,,62d2c9d825a0449c13aa42cc,1:01:41 PM,1/15/2024
2121.699999988079,"<div class = numbox><p style=""font-size:2.5rem"">What were the numbers <b>in order</b>?<br>(When you are ready to lock in your answer, press <b>ENTER</b>)</p><button id = button_1 class = ""square num-button"" onclick = ""recordClick(this)""><div class = content><div class = numbers>1</div></div></button><button id = button_2 class = ""square num-button"" onclick = ""recordClick(this)""><div class = content><div class = numbers>2</div></div></button><button id = button_3 class = ""square num-button"" onclick = ""recordClick(this)""><div class = content><div class = numbers>3</div></div></button><button id = button_4 class = ""square num-button"" onclick = ""recordClick(this)""><div class = content><div class = numbers>4</div></div></button><button id = button_5 class = ""square num-button"" onclick = ""recordClick(this)""><div class = content><div class = numbers>5</div></div></button><button id = button_6 class = ""square num-button"" onclick = ""recordClick(this)""><div class = content><div class = numbers>6</div></div></button><button id = button_7 class = ""square num-button"" onclick = ""recordClick(this)""><div class = content><div class = numbers>7</div></div></button><button id = button_8 class = ""square num-button"" onclick = ""recordClick(this)""><div class = content><div class = numbers>8</div></div></button><button id = button_9 class = ""square num-button"" onclick = ""recordClick(this)""><div class = content><div class = numbers>9</div></div></button><button class = clear_button id = ""ClearButton"" onclick = ""clearResponse()"">Clear</button><p><u><b>Current Answer:</b></u></p><div id=echoed_txt style=""font-size: 6rem; color:blue;""><b></b></div></div><br><br><br><br><br><br><br>",enter,fwdspan,response,SD8ba28dKaTnYHMXddk8uf2MMXh1,html-keyboard-response,34,191035,0.0-7.0-2.1-0.1-3.1,4.0,"[5,8,7,2]","[5,8,7,2]",1.0,"[3, 4, 5, 6, 7, 8, 9, 9, 10, 10, 9, 9]",,62d2c9d825a0449c13aa42cc,1:01:41 PM,1/15/2024
,,,fwdspan,update_span,SD8ba28dKaTnYHMXddk8uf2MMXh1,call-function,35,191290,0.0-7.0-2.1-0.1-4.1,,,,,,,62d2c9d825a0449c13aa42cc,1:01:41 PM,1/15/2024
1789.699999988079,"<p style=""font-size:3rem"">Trial 3 of 12</p><br><br><br>",0,fwdspan,start_trial,SD8ba28dKaTnYHMXddk8uf2MMXh1,html-button-response,36,193080,0.0-7.0-2.2-0.2-0.2,,,,,,,62d2c9d825a0449c13aa42cc,1:01:41 PM,1/15/2024
,"<p style=""font-size:14rem;font-weight:400;"">7</p>",,fwdspan,number,SD8ba28dKaTnYHMXddk8uf2MMXh1,html-keyboard-response,37,194083,0.0-7.0-2.2-0.2-1.7-0.7,,,,,,,62d2c9d825a0449c13aa42cc,1:01:41 PM,1/15/2024
,"<p style=""font-size:14rem;font-weight:400;"">6</p>",,fwdspan,number,SD8ba28dKaTnYHMXddk8uf2MMXh1,html-keyboard-response,38,195096,0.0-7.0-2.2-0.2-1.8-0.8,,,,,,,62d2c9d825a0449c13aa42cc,1:01:41 PM,1/15/2024
,"<p style=""font-size:14rem;font-weight:400;"">4</p>",,fwdspan,number,SD8ba28dKaTnYHMXddk8uf2MMXh1,html-keyboard-response,39,196105,0.0-7.0-2.2-0.2-1.9-0.9,,,,,,,62d2c9d825a0449c13aa42cc,1:01:41 PM,1/15/2024
,"<p style=""font-size:14rem;font-weight:400;"">9</p>",,fwdspan,number,SD8ba28dKaTnYHMXddk8uf2MMXh1,html-keyboard-response,40,197134,0.0-7.0-2.2-0.2-1.10-0.10,,,,,,,62d2c9d825a0449c13aa42cc,1:01:41 PM,1/15/2024
,"<p style=""font-size:14rem;font-weight:400;"">8</p>",,fwdspan,number,SD8ba28dKaTnYHMXddk8uf2MMXh1,html-keyboard-response,41,198143,0.0-7.0-2.2-0.2-1.11-0.11,,,,,,,62d2c9d825a0449c13aa42cc,1:01:41 PM,1/15/2024
,[],,fwdspan,delay,SD8ba28dKaTnYHMXddk8uf2MMXh1,html-keyboard-response,42,198694,0.0-7.0-2.2-0.2-2.2,,,,,,,62d2c9d825a0449c13aa42cc,1:01:41 PM,1/15/2024
2443.2999999970198,"<div class = numbox><p style=""font-size:2.5rem"">What were the numbers <b>in order</b>?<br>(When you are ready to lock in your answer, press <b>ENTER</b>)</p><button id = button_1 class = ""square num-button"" onclick = ""recordClick(this)""><div class = content><div class = numbers>1</div></div></button><button id = button_2 class = ""square num-button"" onclick = ""recordClick(this)""><div class = content><div class = numbers>2</div></div></button><button id = button_3 class = ""square num-button"" onclick = ""recordClick(this)""><div class = content><div class = numbers>3</div></div></button><button id = button_4 class = ""square num-button"" onclick = ""recordClick(this)""><div class = content><div class = numbers>4</div></div></button><button id = button_5 class = ""square num-button"" onclick = ""recordClick(this)""><div class = content><div class = numbers>5</div></div></button><button id = button_6 class = ""square num-button"" onclick = ""recordClick(this)""><div class = content><div class = numbers>6</div></div></button><button id = button_7 class = ""square num-button"" onclick = ""recordClick(this)""><div class = content><div class = numbers>7</div></div></button><button id = button_8 class = ""square num-button"" onclick = ""recordClick(this)""><div class = content><div class = numbers>8</div></div></button><button id = button_9 class = ""square num-button"" onclick = ""recordClick(this)""><div class = content><div class = numbers>9</div></div></button><button class = clear_button id = ""ClearButton"" onclick = ""clearResponse()"">Clear</button><p><u><b>Current Answer:</b></u></p><div id=echoed_txt style=""font-size: 6rem; color:blue;""><b></b></div></div><br><br><br><br><br><br><br>",enter,fwdspan,response,SD8ba28dKaTnYHMXddk8uf2MMXh1,html-keyboard-response,43,201139,0.0-7.0-2.2-0.2-3.2,5.0,"[7,6,4,9,8]","[7,6,4,9,8]",1.0,"[3, 4, 5, 6, 7, 8, 9, 9, 10, 10, 9, 9]",,62d2c9d825a0449c13aa42cc,1:01:41 PM,1/15/2024
,,,fwdspan,update_span,SD8ba28dKaTnYHMXddk8uf2MMXh1,call-function,44,201399,0.0-7.0-2.2-0.2-4.2,,,,,,,62d2c9d825a0449c13aa42cc,1:01:41 PM,1/15/2024
1112.5,"<p style=""font-size:3rem"">Trial 4 of 12</p><br><br><br>",0,fwdspan,start_trial,SD8ba28dKaTnYHMXddk8uf2MMXh1,html-button-response,45,202512,0.0-7.0-2.3-0.3-0.3,,,,,,,62d2c9d825a0449c13aa42cc,1:01:41 PM,1/15/2024
,"<p style=""font-size:14rem;font-weight:400;"">7</p>",,fwdspan,number,SD8ba28dKaTnYHMXddk8uf2MMXh1,html-keyboard-response,46,203534,0.0-7.0-2.3-0.3-1.12-0.12,,,,,,,62d2c9d825a0449c13aa42cc,1:01:41 PM,1/15/2024
,"<p style=""font-size:14rem;font-weight:400;"">6</p>",,fwdspan,number,SD8ba28dKaTnYHMXddk8uf2MMXh1,html-keyboard-response,47,204551,0.0-7.0-2.3-0.3-1.13-0.13,,,,,,,62d2c9d825a0449c13aa42cc,1:01:41 PM,1/15/2024
,"<p style=""font-size:14rem;font-weight:400;"">4</p>",,fwdspan,number,SD8ba28dKaTnYHMXddk8uf2MMXh1,html-keyboard-response,48,205562,0.0-7.0-2.3-0.3-1.14-0.14,,,,,,,62d2c9d825a0449c13aa42cc,1:01:41 PM,1/15/2024
,"<p style=""font-size:14rem;font-weight:400;"">3</p>",,fwdspan,number,SD8ba28dKaTnYHMXddk8uf2MMXh1,html-keyboard-response,49,206585,0.0-7.0-2.3-0.3-1.15-0.15,,,,,,,62d2c9d825a0449c13aa42cc,1:01:41 PM,1/15/2024
,"<p style=""font-size:14rem;font-weight:400;"">9</p>",,fwdspan,number,SD8ba28dKaTnYHMXddk8uf2MMXh1,html-keyboard-response,50,207595,0.0-7.0-2.3-0.3-1.16-0.16,,,,,,,62d2c9d825a0449c13aa42cc,1:01:41 PM,1/15/2024
,"<p style=""font-size:14rem;font-weight:400;"">1</p>",,fwdspan,number,SD8ba28dKaTnYHMXddk8uf2MMXh1,html-keyboard-response,51,208601,0.0-7.0-2.3-0.3-1.17-0.17,,,,,,,62d2c9d825a0449c13aa42cc,1:01:41 PM,1/15/2024
,[],,fwdspan,delay,SD8ba28dKaTnYHMXddk8uf2MMXh1,html-keyboard-response,52,209154,0.0-7.0-2.3-0.3-2.3,,,,,,,62d2c9d825a0449c13aa42cc,1:01:41 PM,1/15/2024
3815.300000011921,"<div class = numbox><p style=""font-size:2.5rem"">What were the numbers <b>in order</b>?<br>(When you are ready to lock in your answer, press <b>ENTER</b>)</p><button id = button_1 class = ""square num-button"" onclick = ""recordClick(this)""><div class = content><div class = numbers>1</div></div></button><button id = button_2 class = ""square num-button"" onclick = ""recordClick(this)""><div class = content><div class = numbers>2</div></div></button><button id = button_3 class = ""square num-button"" onclick = ""recordClick(this)""><div class = content><div class = numbers>3</div></div></button><button id = button_4 class = ""square num-button"" onclick = ""recordClick(this)""><div class = content><div class = numbers>4</div></div></button><button id = button_5 class = ""square num-button"" onclick = ""recordClick(this)""><div class = content><div class = numbers>5</div></div></button><button id = button_6 class = ""square num-button"" onclick = ""recordClick(this)""><div class = content><div class = numbers>6</div></div></button><button id = button_7 class = ""square num-button"" onclick = ""recordClick(this)""><div class = content><div class = numbers>7</div></div></button><button id = button_8 class = ""square num-button"" onclick = ""recordClick(this)""><div class = content><div class = numbers>8</div></div></button><button id = button_9 class = ""square num-button"" onclick = ""recordClick(this)""><div class = content><div class = numbers>9</div></div></button><button class = clear_button id = ""ClearButton"" onclick = ""clearResponse()"">Clear</button><p><u><b>Current Answer:</b></u></p><div id=echoed_txt style=""font-size: 6rem; color:blue;""><b></b></div></div><br><br><br><br><br><br><br>",enter,fwdspan,response,SD8ba28dKaTnYHMXddk8uf2MMXh1,html-keyboard-response,53,212970,0.0-7.0-2.3-0.3-3.3,6.0,"[7,6,4,3,9,1]","[7,6,4,3,9,1]",1.0,"[3, 4, 5, 6, 7, 8, 9, 9, 10, 10, 9, 9]",,62d2c9d825a0449c13aa42cc,1:01:41 PM,1/15/2024
,,,fwdspan,update_span,SD8ba28dKaTnYHMXddk8uf2MMXh1,call-function,54,213225,0.0-7.0-2.3-0.3-4.3,,,,,,,62d2c9d825a0449c13aa42cc,1:01:41 PM,1/15/2024
644.8999999910593,"<p style=""font-size:3rem"">Trial 5 of 12</p><br><br><br>",0,fwdspan,start_trial,SD8ba28dKaTnYHMXddk8uf2MMXh1,html-button-response,55,213870,0.0-7.0-2.4-0.4-0.4,,,,,,,62d2c9d825a0449c13aa42cc,1:01:41 PM,1/15/2024
,"<p style=""font-size:14rem;font-weight:400;"">6</p>",,fwdspan,number,SD8ba28dKaTnYHMXddk8uf2MMXh1,html-keyboard-response,56,214887,0.0-7.0-2.4-0.4-1.18-0.18,,,,,,,62d2c9d825a0449c13aa42cc,1:01:41 PM,1/15/2024
,"<p style=""font-size:14rem;font-weight:400;"">5</p>",,fwdspan,number,SD8ba28dKaTnYHMXddk8uf2MMXh1,html-keyboard-response,57,215909,0.0-7.0-2.4-0.4-1.19-0.19,,,,,,,62d2c9d825a0449c13aa42cc,1:01:41 PM,1/15/2024
,"<p style=""font-size:14rem;font-weight:400;"">1</p>",,fwdspan,number,SD8ba28dKaTnYHMXddk8uf2MMXh1,html-keyboard-response,58,216918,0.0-7.0-2.4-0.4-1.20-0.20,,,,,,,62d2c9d825a0449c13aa42cc,1:01:41 PM,1/15/2024
,"<p style=""font-size:14rem;font-weight:400;"">8</p>",,fwdspan,number,SD8ba28dKaTnYHMXddk8uf2MMXh1,html-keyboard-response,59,217923,0.0-7.0-2.4-0.4-1.21-0.21,,,,,,,62d2c9d825a0449c13aa42cc,1:01:41 PM,1/15/2024
,"<p style=""font-size:14rem;font-weight:400;"">7</p>",,fwdspan,number,SD8ba28dKaTnYHMXddk8uf2MMXh1,html-keyboard-response,60,218926,0.0-7.0-2.4-0.4-1.22-0.22,,,,,,,62d2c9d825a0449c13aa42cc,1:01:41 PM,1/15/2024
,"<p style=""font-size:14rem;font-weight:400;"">3</p>",,fwdspan,number,SD8ba28dKaTnYHMXddk8uf2MMXh1,html-keyboard-response,61,219944,0.0-7.0-2.4-0.4-1.23-0.23,,,,,,,62d2c9d825a0449c13aa42cc,1:01:41 PM,1/15/2024
,"<p style=""font-size:14rem;font-weight:400;"">2</p>",,fwdspan,number,SD8ba28dKaTnYHMXddk8uf2MMXh1,html-keyboard-response,62,220949,0.0-7.0-2.4-0.4-1.24-0.24,,,,,,,62d2c9d825a0449c13aa42cc,1:01:41 PM,1/15/2024
,[],,fwdspan,delay,SD8ba28dKaTnYHMXddk8uf2MMXh1,html-keyboard-response,63,221504,0.0-7.0-2.4-0.4-2.4,,,,,,,62d2c9d825a0449c13aa42cc,1:01:41 PM,1/15/2024
3849.7999999970198,"<div class = numbox><p style=""font-size:2.5rem"">What were the numbers <b>in order</b>?<br>(When you are ready to lock in your answer, press <b>ENTER</b>)</p><button id = button_1 class = ""square num-button"" onclick = ""recordClick(this)""><div class = content><div class = numbers>1</div></div></button><button id = button_2 class = ""square num-button"" onclick = ""recordClick(this)""><div class = content><div class = numbers>2</div></div></button><button id = button_3 class = ""square num-button"" onclick = ""recordClick(this)""><div class = content><div class = numbers>3</div></div></button><button id = button_4 class = ""square num-button"" onclick = ""recordClick(this)""><div class = content><div class = numbers>4</div></div></button><button id = button_5 class = ""square num-button"" onclick = ""recordClick(this)""><div class = content><div class = numbers>5</div></div></button><button id = button_6 class = ""square num-button"" onclick = ""recordClick(this)""><div class = content><div class = numbers>6</div></div></button><button id = button_7 class = ""square num-button"" onclick = ""recordClick(this)""><div class = content><div class = numbers>7</div></div></button><button id = button_8 class = ""square num-button"" onclick = ""recordClick(this)""><div class = content><div class = numbers>8</div></div></button><button id = button_9 class = ""square num-button"" onclick = ""recordClick(this)""><div class = content><div class = numbers>9</div></div></button><button class = clear_button id = ""ClearButton"" onclick = ""clearResponse()"">Clear</button><p><u><b>Current Answer:</b></u></p><div id=echoed_txt style=""font-size: 6rem; color:blue;""><b></b></div></div><br><br><br><br><br><br><br>",enter,fwdspan,response,SD8ba28dKaTnYHMXddk8uf2MMXh1,html-keyboard-response,64,225354,0.0-7.0-2.4-0.4-3.4,7.0,"[6,5,1,8,7,3,2]","[6,5,1,8,7,3,2]",1.0,"[3, 4, 5, 6, 7, 8, 9, 9, 10, 10, 9, 9]",,62d2c9d825a0449c13aa42cc,1:01:41 PM,1/15/2024
,,,fwdspan,update_span,SD8ba28dKaTnYHMXddk8uf2MMXh1,call-function,65,225610,0.0-7.0-2.4-0.4-4.4,,,,,,,62d2c9d825a0449c13aa42cc,1:01:41 PM,1/15/2024
485.59999999403954,"<p style=""font-size:3rem"">Trial 6 of 12</p><br><br><br>",0,fwdspan,start_trial,SD8ba28dKaTnYHMXddk8uf2MMXh1,html-button-response,66,226096,0.0-7.0-2.5-0.5-0.5,,,,,,,62d2c9d825a0449c13aa42cc,1:01:41 PM,1/15/2024
,"<p style=""font-size:14rem;font-weight:400;"">3</p>",,fwdspan,number,SD8ba28dKaTnYHMXddk8uf2MMXh1,html-keyboard-response,67,227106,0.0-7.0-2.5-0.5-1.25-0.25,,,,,,,62d2c9d825a0449c13aa42cc,1:01:41 PM,1/15/2024
,"<p style=""font-size:14rem;font-weight:400;"">8</p>",,fwdspan,number,SD8ba28dKaTnYHMXddk8uf2MMXh1,html-keyboard-response,68,228123,0.0-7.0-2.5-0.5-1.26-0.26,,,,,,,62d2c9d825a0449c13aa42cc,1:01:41 PM,1/15/2024
,"<p style=""font-size:14rem;font-weight:400;"">9</p>",,fwdspan,number,SD8ba28dKaTnYHMXddk8uf2MMXh1,html-keyboard-response,69,229135,0.0-7.0-2.5-0.5-1.27-0.27,,,,,,,62d2c9d825a0449c13aa42cc,1:01:41 PM,1/15/2024
,"<p style=""font-size:14rem;font-weight:400;"">7</p>",,fwdspan,number,SD8ba28dKaTnYHMXddk8uf2MMXh1,html-keyboard-response,70,230150,0.0-7.0-2.5-0.5-1.28-0.28,,,,,,,62d2c9d825a0449c13aa42cc,1:01:41 PM,1/15/2024
,"<p style=""font-size:14rem;font-weight:400;"">4</p>",,fwdspan,number,SD8ba28dKaTnYHMXddk8uf2MMXh1,html-keyboard-response,71,231161,0.0-7.0-2.5-0.5-1.29-0.29,,,,,,,62d2c9d825a0449c13aa42cc,1:01:41 PM,1/15/2024
,"<p style=""font-size:14rem;font-weight:400;"">2</p>",,fwdspan,number,SD8ba28dKaTnYHMXddk8uf2MMXh1,html-keyboard-response,72,232173,0.0-7.0-2.5-0.5-1.30-0.30,,,,,,,62d2c9d825a0449c13aa42cc,1:01:41 PM,1/15/2024
,"<p style=""font-size:14rem;font-weight:400;"">1</p>",,fwdspan,number,SD8ba28dKaTnYHMXddk8uf2MMXh1,html-keyboard-response,73,233182,0.0-7.0-2.5-0.5-1.31-0.31,,,,,,,62d2c9d825a0449c13aa42cc,1:01:41 PM,1/15/2024
,"<p style=""font-size:14rem;font-weight:400;"">5</p>",,fwdspan,number,SD8ba28dKaTnYHMXddk8uf2MMXh1,html-keyboard-response,74,234190,0.0-7.0-2.5-0.5-1.32-0.32,,,,,,,62d2c9d825a0449c13aa42cc,1:01:41 PM,1/15/2024
,[],,fwdspan,delay,SD8ba28dKaTnYHMXddk8uf2MMXh1,html-keyboard-response,75,234745,0.0-7.0-2.5-0.5-2.5,,,,,,,62d2c9d825a0449c13aa42cc,1:01:41 PM,1/15/2024
5016.79999999702,"<div class = numbox><p style=""font-size:2.5rem"">What were the numbers <b>in order</b>?<br>(When you are ready to lock in your answer, press <b>ENTER</b>)</p><button id = button_1 class = ""square num-button"" onclick = ""recordClick(this)""><div class = content><div class = numbers>1</div></div></button><button id = button_2 class = ""square num-button"" onclick = ""recordClick(this)""><div class = content><div class = numbers>2</div></div></button><button id = button_3 class = ""square num-button"" onclick = ""recordClick(this)""><div class = content><div class = numbers>3</div></div></button><button id = button_4 class = ""square num-button"" onclick = ""recordClick(this)""><div class = content><div class = numbers>4</div></div></button><button id = button_5 class = ""square num-button"" onclick = ""recordClick(this)""><div class = content><div class = numbers>5</div></div></button><button id = button_6 class = ""square num-button"" onclick = ""recordClick(this)""><div class = content><div class = numbers>6</div></div></button><button id = button_7 class = ""square num-button"" onclick = ""recordClick(this)""><div class = content><div class = numbers>7</div></div></button><button id = button_8 class = ""square num-button"" onclick = ""recordClick(this)""><div class = content><div class = numbers>8</div></div></button><button id = button_9 class = ""square num-button"" onclick = ""recordClick(this)""><div class = content><div class = numbers>9</div></div></button><button class = clear_button id = ""ClearButton"" onclick = ""clearResponse()"">Clear</button><p><u><b>Current Answer:</b></u></p><div id=echoed_txt style=""font-size: 6rem; color:blue;""><b></b></div></div><br><br><br><br><br><br><br>",enter,fwdspan,response,SD8ba28dKaTnYHMXddk8uf2MMXh1,html-keyboard-response,76,239763,0.0-7.0-2.5-0.5-3.5,8.0,"[3,8,9,7,4,2,1,5]","[3,8,9,7,4,2,1,5]",1.0,"[3, 4, 5, 6, 7, 8, 9, 9, 10, 10, 9, 9]",,62d2c9d825a0449c13aa42cc,1:01:41 PM,1/15/2024
,,,fwdspan,update_span,SD8ba28dKaTnYHMXddk8uf2MMXh1,call-function,77,240019,0.0-7.0-2.5-0.5-4.5,,,,,,,62d2c9d825a0449c13aa42cc,1:01:41 PM,1/15/2024
576.8999999910593,"<p style=""font-size:3rem"">Trial 7 of 12</p><br><br><br>",0,fwdspan,start_trial,SD8ba28dKaTnYHMXddk8uf2MMXh1,html-button-response,78,240596,0.0-7.0-2.6-0.6-0.6,,,,,,,62d2c9d825a0449c13aa42cc,1:01:41 PM,1/15/2024
,"<p style=""font-size:14rem;font-weight:400;"">5</p>",,fwdspan,number,SD8ba28dKaTnYHMXddk8uf2MMXh1,html-keyboard-response,79,241603,0.0-7.0-2.6-0.6-1.33-0.33,,,,,,,62d2c9d825a0449c13aa42cc,1:01:41 PM,1/15/2024
,"<p style=""font-size:14rem;font-weight:400;"">6</p>",,fwdspan,number,SD8ba28dKaTnYHMXddk8uf2MMXh1,html-keyboard-response,80,242621,0.0-7.0-2.6-0.6-1.34-0.34,,,,,,,62d2c9d825a0449c13aa42cc,1:01:41 PM,1/15/2024
,"<p style=""font-size:14rem;font-weight:400;"">1</p>",,fwdspan,number,SD8ba28dKaTnYHMXddk8uf2MMXh1,html-keyboard-response,81,243650,0.0-7.0-2.6-0.6-1.35-0.35,,,,,,,62d2c9d825a0449c13aa42cc,1:01:41 PM,1/15/2024
,"<p style=""font-size:14rem;font-weight:400;"">9</p>",,fwdspan,number,SD8ba28dKaTnYHMXddk8uf2MMXh1,html-keyboard-response,82,244663,0.0-7.0-2.6-0.6-1.36-0.36,,,,,,,62d2c9d825a0449c13aa42cc,1:01:41 PM,1/15/2024
,"<p style=""font-size:14rem;font-weight:400;"">3</p>",,fwdspan,number,SD8ba28dKaTnYHMXddk8uf2MMXh1,html-keyboard-response,83,245676,0.0-7.0-2.6-0.6-1.37-0.37,,,,,,,62d2c9d825a0449c13aa42cc,1:01:41 PM,1/15/2024
,"<p style=""font-size:14rem;font-weight:400;"">4</p>",,fwdspan,number,SD8ba28dKaTnYHMXddk8uf2MMXh1,html-keyboard-response,84,246693,0.0-7.0-2.6-0.6-1.38-0.38,,,,,,,62d2c9d825a0449c13aa42cc,1:01:41 PM,1/15/2024
,"<p style=""font-size:14rem;font-weight:400;"">2</p>",,fwdspan,number,SD8ba28dKaTnYHMXddk8uf2MMXh1,html-keyboard-response,85,247696,0.0-7.0-2.6-0.6-1.39-0.39,,,,,,,62d2c9d825a0449c13aa42cc,1:01:41 PM,1/15/2024
,"<p style=""font-size:14rem;font-weight:400;"">7</p>",,fwdspan,number,SD8ba28dKaTnYHMXddk8uf2MMXh1,html-keyboard-response,86,248706,0.0-7.0-2.6-0.6-1.40-0.40,,,,,,,62d2c9d825a0449c13aa42cc,1:01:41 PM,1/15/2024
,"<p style=""font-size:14rem;font-weight:400;"">8</p>",,fwdspan,number,SD8ba28dKaTnYHMXddk8uf2MMXh1,html-keyboard-response,87,249734,0.0-7.0-2.6-0.6-1.41-0.41,,,,,,,62d2c9d825a0449c13aa42cc,1:01:41 PM,1/15/2024
,[],,fwdspan,delay,SD8ba28dKaTnYHMXddk8uf2MMXh1,html-keyboard-response,88,250310,0.0-7.0-2.6-0.6-2.6,,,,,,,62d2c9d825a0449c13aa42cc,1:01:41 PM,1/15/2024
4363.600000008941,"<div class = numbox><p style=""font-size:2.5rem"">What were the numbers <b>in order</b>?<br>(When you are ready to lock in your answer, press <b>ENTER</b>)</p><button id = button_1 class = ""square num-button"" onclick = ""recordClick(this)""><div class = content><div class = numbers>1</div></div></button><button id = button_2 class = ""square num-button"" onclick = ""recordClick(this)""><div class = content><div class = numbers>2</div></div></button><button id = button_3 class = ""square num-button"" onclick = ""recordClick(this)""><div class = content><div class = numbers>3</div></div></button><button id = button_4 class = ""square num-button"" onclick = ""recordClick(this)""><div class = content><div class = numbers>4</div></div></button><button id = button_5 class = ""square num-button"" onclick = ""recordClick(this)""><div class = content><div class = numbers>5</div></div></button><button id = button_6 class = ""square num-button"" onclick = ""recordClick(this)""><div class = content><div class = numbers>6</div></div></button><button id = button_7 class = ""square num-button"" onclick = ""recordClick(this)""><div class = content><div class = numbers>7</div></div></button><button id = button_8 class = ""square num-button"" onclick = ""recordClick(this)""><div class = content><div class = numbers>8</div></div></button><button id = button_9 class = ""square num-button"" onclick = ""recordClick(this)""><div class = content><div class = numbers>9</div></div></button><button class = clear_button id = ""ClearButton"" onclick = ""clearResponse()"">Clear</button><p><u><b>Current Answer:</b></u></p><div id=echoed_txt style=""font-size: 6rem; color:blue;""><b></b></div></div><br><br><br><br><br><br><br>",enter,fwdspan,response,SD8ba28dKaTnYHMXddk8uf2MMXh1,html-keyboard-response,89,254674,0.0-7.0-2.6-0.6-3.6,9.0,"[5,6,4,9,3,1,2,7,4]","[5,6,1,9,3,4,2,7,8]",0.0,"[3, 4, 5, 6, 7, 8, 9, 9, 10, 10, 9, 9]",,62d2c9d825a0449c13aa42cc,1:01:41 PM,1/15/2024
,,,fwdspan,update_span,SD8ba28dKaTnYHMXddk8uf2MMXh1,call-function,90,254926,0.0-7.0-2.6-0.6-4.6,,,,,,,62d2c9d825a0449c13aa42cc,1:01:41 PM,1/15/2024
461.59999999403954,"<p style=""font-size:3rem"">Trial 8 of 12</p><br><br><br>",0,fwdspan,start_trial,SD8ba28dKaTnYHMXddk8uf2MMXh1,html-button-response,91,255388,0.0-7.0-2.7-0.7-0.7,,,,,,,62d2c9d825a0449c13aa42cc,1:01:41 PM,1/15/2024
,"<p style=""font-size:14rem;font-weight:400;"">9</p>",,fwdspan,number,SD8ba28dKaTnYHMXddk8uf2MMXh1,html-keyboard-response,92,256412,0.0-7.0-2.7-0.7-1.42-0.42,,,,,,,62d2c9d825a0449c13aa42cc,1:01:41 PM,1/15/2024
,"<p style=""font-size:14rem;font-weight:400;"">4</p>",,fwdspan,number,SD8ba28dKaTnYHMXddk8uf2MMXh1,html-keyboard-response,93,257436,0.0-7.0-2.7-0.7-1.43-0.43,,,,,,,62d2c9d825a0449c13aa42cc,1:01:41 PM,1/15/2024
,"<p style=""font-size:14rem;font-weight:400;"">5</p>",,fwdspan,number,SD8ba28dKaTnYHMXddk8uf2MMXh1,html-keyboard-response,94,258454,0.0-7.0-2.7-0.7-1.44-0.44,,,,,,,62d2c9d825a0449c13aa42cc,1:01:41 PM,1/15/2024
,"<p style=""font-size:14rem;font-weight:400;"">8</p>",,fwdspan,number,SD8ba28dKaTnYHMXddk8uf2MMXh1,html-keyboard-response,95,259473,0.0-7.0-2.7-0.7-1.45-0.45,,,,,,,62d2c9d825a0449c13aa42cc,1:01:41 PM,1/15/2024
,"<p style=""font-size:14rem;font-weight:400;"">6</p>",,fwdspan,number,SD8ba28dKaTnYHMXddk8uf2MMXh1,html-keyboard-response,96,260489,0.0-7.0-2.7-0.7-1.46-0.46,,,,,,,62d2c9d825a0449c13aa42cc,1:01:41 PM,1/15/2024
,"<p style=""font-size:14rem;font-weight:400;"">3</p>",,fwdspan,number,SD8ba28dKaTnYHMXddk8uf2MMXh1,html-keyboard-response,97,261495,0.0-7.0-2.7-0.7-1.47-0.47,,,,,,,62d2c9d825a0449c13aa42cc,1:01:41 PM,1/15/2024
,"<p style=""font-size:14rem;font-weight:400;"">7</p>",,fwdspan,number,SD8ba28dKaTnYHMXddk8uf2MMXh1,html-keyboard-response,98,262504,0.0-7.0-2.7-0.7-1.48-0.48,,,,,,,62d2c9d825a0449c13aa42cc,1:01:41 PM,1/15/2024
,"<p style=""font-size:14rem;font-weight:400;"">2</p>",,fwdspan,number,SD8ba28dKaTnYHMXddk8uf2MMXh1,html-keyboard-response,99,263519,0.0-7.0-2.7-0.7-1.49-0.49,,,,,,,62d2c9d825a0449c13aa42cc,1:01:41 PM,1/15/2024
,"<p style=""font-size:14rem;font-weight:400;"">1</p>",,fwdspan,number,SD8ba28dKaTnYHMXddk8uf2MMXh1,html-keyboard-response,100,264530,0.0-7.0-2.7-0.7-1.50-0.50,,,,,,,62d2c9d825a0449c13aa42cc,1:01:41 PM,1/15/2024
,[],,fwdspan,delay,SD8ba28dKaTnYHMXddk8uf2MMXh1,html-keyboard-response,101,265104,0.0-7.0-2.7-0.7-2.7,,,,,,,62d2c9d825a0449c13aa42cc,1:01:41 PM,1/15/2024
5065.0999999940395,"<div class = numbox><p style=""font-size:2.5rem"">What were the numbers <b>in order</b>?<br>(When you are ready to lock in your answer, press <b>ENTER</b>)</p><button id = button_1 class = ""square num-button"" onclick = ""recordClick(this)""><div class = content><div class = numbers>1</div></div></button><button id = button_2 class = ""square num-button"" onclick = ""recordClick(this)""><div class = content><div class = numbers>2</div></div></button><button id = button_3 class = ""square num-button"" onclick = ""recordClick(this)""><div class = content><div class = numbers>3</div></div></button><button id = button_4 class = ""square num-button"" onclick = ""recordClick(this)""><div class = content><div class = numbers>4</div></div></button><button id = button_5 class = ""square num-button"" onclick = ""recordClick(this)""><div class = content><div class = numbers>5</div></div></button><button id = button_6 class = ""square num-button"" onclick = ""recordClick(this)""><div class = content><div class = numbers>6</div></div></button><button id = button_7 class = ""square num-button"" onclick = ""recordClick(this)""><div class = content><div class = numbers>7</div></div></button><button id = button_8 class = ""square num-button"" onclick = ""recordClick(this)""><div class = content><div class = numbers>8</div></div></button><button id = button_9 class = ""square num-button"" onclick = ""recordClick(this)""><div class = content><div class = numbers>9</div></div></button><button class = clear_button id = ""ClearButton"" onclick = ""clearResponse()"">Clear</button><p><u><b>Current Answer:</b></u></p><div id=echoed_txt style=""font-size: 6rem; color:blue;""><b></b></div></div><br><br><br><br><br><br><br>",enter,fwdspan,response,SD8ba28dKaTnYHMXddk8uf2MMXh1,html-keyboard-response,102,270170,0.0-7.0-2.7-0.7-3.7,9.0,"[9,4,5,8,6,3,7,2,1]","[9,4,5,8,6,3,7,2,1]",1.0,"[3, 4, 5, 6, 7, 8, 9, 9, 10, 10, 9, 9]",,62d2c9d825a0449c13aa42cc,1:01:41 PM,1/15/2024
,,,fwdspan,update_span,SD8ba28dKaTnYHMXddk8uf2MMXh1,call-function,103,270428,0.0-7.0-2.7-0.7-4.7,,,,,,,62d2c9d825a0449c13aa42cc,1:01:41 PM,1/15/2024
559.3000000119209,"<p style=""font-size:3rem"">Trial 9 of 12</p><br><br><br>",0,fwdspan,start_trial,SD8ba28dKaTnYHMXddk8uf2MMXh1,html-button-response,104,270988,0.0-7.0-2.8-0.8-0.8,,,,,,,62d2c9d825a0449c13aa42cc,1:01:41 PM,1/15/2024
,"<p style=""font-size:14rem;font-weight:400;"">3</p>",,fwdspan,number,SD8ba28dKaTnYHMXddk8uf2MMXh1,html-keyboard-response,105,272003,0.0-7.0-2.8-0.8-1.51-0.51,,,,,,,62d2c9d825a0449c13aa42cc,1:01:41 PM,1/15/2024
,"<p style=""font-size:14rem;font-weight:400;"">2</p>",,fwdspan,number,SD8ba28dKaTnYHMXddk8uf2MMXh1,html-keyboard-response,106,273026,0.0-7.0-2.8-0.8-1.52-0.52,,,,,,,62d2c9d825a0449c13aa42cc,1:01:41 PM,1/15/2024
,"<p style=""font-size:14rem;font-weight:400;"">1</p>",,fwdspan,number,SD8ba28dKaTnYHMXddk8uf2MMXh1,html-keyboard-response,107,274028,0.0-7.0-2.8-0.8-1.53-0.53,,,,,,,62d2c9d825a0449c13aa42cc,1:01:41 PM,1/15/2024
,"<p style=""font-size:14rem;font-weight:400;"">5</p>",,fwdspan,number,SD8ba28dKaTnYHMXddk8uf2MMXh1,html-keyboard-response,108,275040,0.0-7.0-2.8-0.8-1.54-0.54,,,,,,,62d2c9d825a0449c13aa42cc,1:01:41 PM,1/15/2024
,"<p style=""font-size:14rem;font-weight:400;"">6</p>",,fwdspan,number,SD8ba28dKaTnYHMXddk8uf2MMXh1,html-keyboard-response,109,276051,0.0-7.0-2.8-0.8-1.55-0.55,,,,,,,62d2c9d825a0449c13aa42cc,1:01:41 PM,1/15/2024
,"<p style=""font-size:14rem;font-weight:400;"">7</p>",,fwdspan,number,SD8ba28dKaTnYHMXddk8uf2MMXh1,html-keyboard-response,110,277081,0.0-7.0-2.8-0.8-1.56-0.56,,,,,,,62d2c9d825a0449c13aa42cc,1:01:41 PM,1/15/2024
,"<p style=""font-size:14rem;font-weight:400;"">4</p>",,fwdspan,number,SD8ba28dKaTnYHMXddk8uf2MMXh1,html-keyboard-response,111,278102,0.0-7.0-2.8-0.8-1.57-0.57,,,,,,,62d2c9d825a0449c13aa42cc,1:01:41 PM,1/15/2024
,"<p style=""font-size:14rem;font-weight:400;"">9</p>",,fwdspan,number,SD8ba28dKaTnYHMXddk8uf2MMXh1,html-keyboard-response,112,279107,0.0-7.0-2.8-0.8-1.58-0.58,,,,,,,62d2c9d825a0449c13aa42cc,1:01:41 PM,1/15/2024
,"<p style=""font-size:14rem;font-weight:400;"">8</p>",,fwdspan,number,SD8ba28dKaTnYHMXddk8uf2MMXh1,html-keyboard-response,113,280124,0.0-7.0-2.8-0.8-1.59-0.59,,,,,,,62d2c9d825a0449c13aa42cc,1:01:41 PM,1/15/2024
,"<p style=""font-size:14rem;font-weight:400;"">7</p>",,fwdspan,number,SD8ba28dKaTnYHMXddk8uf2MMXh1,html-keyboard-response,114,281131,0.0-7.0-2.8-0.8-1.60-0.60,,,,,,,62d2c9d825a0449c13aa42cc,1:01:41 PM,1/15/2024
,[],,fwdspan,delay,SD8ba28dKaTnYHMXddk8uf2MMXh1,html-keyboard-response,115,281704,0.0-7.0-2.8-0.8-2.8,,,,,,,62d2c9d825a0449c13aa42cc,1:01:41 PM,1/15/2024
4569.20000000298,"<div class = numbox><p style=""font-size:2.5rem"">What were the numbers <b>in order</b>?<br>(When you are ready to lock in your answer, press <b>ENTER</b>)</p><button id = button_1 class = ""square num-button"" onclick = ""recordClick(this)""><div class = content><div class = numbers>1</div></div></button><button id = button_2 class = ""square num-button"" onclick = ""recordClick(this)""><div class = content><div class = numbers>2</div></div></button><button id = button_3 class = ""square num-button"" onclick = ""recordClick(this)""><div class = content><div class = numbers>3</div></div></button><button id = button_4 class = ""square num-button"" onclick = ""recordClick(this)""><div class = content><div class = numbers>4</div></div></button><button id = button_5 class = ""square num-button"" onclick = ""recordClick(this)""><div class = content><div class = numbers>5</div></div></button><button id = button_6 class = ""square num-button"" onclick = ""recordClick(this)""><div class = content><div class = numbers>6</div></div></button><button id = button_7 class = ""square num-button"" onclick = ""recordClick(this)""><div class = content><div class = numbers>7</div></div></button><button id = button_8 class = ""square num-button"" onclick = ""recordClick(this)""><div class = content><div class = numbers>8</div></div></button><button id = button_9 class = ""square num-button"" onclick = ""recordClick(this)""><div class = content><div class = numbers>9</div></div></button><button class = clear_button id = ""ClearButton"" onclick = ""clearResponse()"">Clear</button><p><u><b>Current Answer:</b></u></p><div id=echoed_txt style=""font-size: 6rem; color:blue;""><b></b></div></div><br><br><br><br><br><br><br>",enter,fwdspan,response,SD8ba28dKaTnYHMXddk8uf2MMXh1,html-keyboard-response,116,286274,0.0-7.0-2.8-0.8-3.8,10.0,"[3,2,1,5,6,7,4,9,2]","[3,2,1,5,6,7,4,9,8,7]",0.0,"[3, 4, 5, 6, 7, 8, 9, 9, 10, 10, 9, 9]",,62d2c9d825a0449c13aa42cc,1:01:41 PM,1/15/2024
,,,fwdspan,update_span,SD8ba28dKaTnYHMXddk8uf2MMXh1,call-function,117,286532,0.0-7.0-2.8-0.8-4.8,,,,,,,62d2c9d825a0449c13aa42cc,1:01:41 PM,1/15/2024
667.6000000089407,"<p style=""font-size:3rem"">Trial 10 of 12</p><br><br><br>",0,fwdspan,start_trial,SD8ba28dKaTnYHMXddk8uf2MMXh1,html-button-response,118,287200,0.0-7.0-2.9-0.9-0.9,,,,,,,62d2c9d825a0449c13aa42cc,1:01:41 PM,1/15/2024
,"<p style=""font-size:14rem;font-weight:400;"">4</p>",,fwdspan,number,SD8ba28dKaTnYHMXddk8uf2MMXh1,html-keyboard-response,119,288217,0.0-7.0-2.9-0.9-1.61-0.61,,,,,,,62d2c9d825a0449c13aa42cc,1:01:41 PM,1/15/2024
,"<p style=""font-size:14rem;font-weight:400;"">5</p>",,fwdspan,number,SD8ba28dKaTnYHMXddk8uf2MMXh1,html-keyboard-response,120,289225,0.0-7.0-2.9-0.9-1.62-0.62,,,,,,,62d2c9d825a0449c13aa42cc,1:01:41 PM,1/15/2024
,"<p style=""font-size:14rem;font-weight:400;"">1</p>",,fwdspan,number,SD8ba28dKaTnYHMXddk8uf2MMXh1,html-keyboard-response,121,290237,0.0-7.0-2.9-0.9-1.63-0.63,,,,,,,62d2c9d825a0449c13aa42cc,1:01:41 PM,1/15/2024
,"<p style=""font-size:14rem;font-weight:400;"">8</p>",,fwdspan,number,SD8ba28dKaTnYHMXddk8uf2MMXh1,html-keyboard-response,122,291242,0.0-7.0-2.9-0.9-1.64-0.64,,,,,,,62d2c9d825a0449c13aa42cc,1:01:41 PM,1/15/2024
,"<p style=""font-size:14rem;font-weight:400;"">9</p>",,fwdspan,number,SD8ba28dKaTnYHMXddk8uf2MMXh1,html-keyboard-response,123,292247,0.0-7.0-2.9-0.9-1.65-0.65,,,,,,,62d2c9d825a0449c13aa42cc,1:01:41 PM,1/15/2024
,"<p style=""font-size:14rem;font-weight:400;"">6</p>",,fwdspan,number,SD8ba28dKaTnYHMXddk8uf2MMXh1,html-keyboard-response,124,293262,0.0-7.0-2.9-0.9-1.66-0.66,,,,,,,62d2c9d825a0449c13aa42cc,1:01:41 PM,1/15/2024
,"<p style=""font-size:14rem;font-weight:400;"">2</p>",,fwdspan,number,SD8ba28dKaTnYHMXddk8uf2MMXh1,html-keyboard-response,125,294284,0.0-7.0-2.9-0.9-1.67-0.67,,,,,,,62d2c9d825a0449c13aa42cc,1:01:41 PM,1/15/2024
,"<p style=""font-size:14rem;font-weight:400;"">3</p>",,fwdspan,number,SD8ba28dKaTnYHMXddk8uf2MMXh1,html-keyboard-response,126,295302,0.0-7.0-2.9-0.9-1.68-0.68,,,,,,,62d2c9d825a0449c13aa42cc,1:01:41 PM,1/15/2024
,"<p style=""font-size:14rem;font-weight:400;"">7</p>",,fwdspan,number,SD8ba28dKaTnYHMXddk8uf2MMXh1,html-keyboard-response,127,296327,0.0-7.0-2.9-0.9-1.69-0.69,,,,,,,62d2c9d825a0449c13aa42cc,1:01:41 PM,1/15/2024
,"<p style=""font-size:14rem;font-weight:400;"">3</p>",,fwdspan,number,SD8ba28dKaTnYHMXddk8uf2MMXh1,html-keyboard-response,128,297338,0.0-7.0-2.9-0.9-1.70-0.70,,,,,,,62d2c9d825a0449c13aa42cc,1:01:41 PM,1/15/2024
,[],,fwdspan,delay,SD8ba28dKaTnYHMXddk8uf2MMXh1,html-keyboard-response,129,297906,0.0-7.0-2.9-0.9-2.9,,,,,,,62d2c9d825a0449c13aa42cc,1:01:41 PM,1/15/2024
5006.9000000059605,"<div class = numbox><p style=""font-size:2.5rem"">What were the numbers <b>in order</b>?<br>(When you are ready to lock in your answer, press <b>ENTER</b>)</p><button id = button_1 class = ""square num-button"" onclick = ""recordClick(this)""><div class = content><div class = numbers>1</div></div></button><button id = button_2 class = ""square num-button"" onclick = ""recordClick(this)""><div class = content><div class = numbers>2</div></div></button><button id = button_3 class = ""square num-button"" onclick = ""recordClick(this)""><div class = content><div class = numbers>3</div></div></button><button id = button_4 class = ""square num-button"" onclick = ""recordClick(this)""><div class = content><div class = numbers>4</div></div></button><button id = button_5 class = ""square num-button"" onclick = ""recordClick(this)""><div class = content><div class = numbers>5</div></div></button><button id = button_6 class = ""square num-button"" onclick = ""recordClick(this)""><div class = content><div class = numbers>6</div></div></button><button id = button_7 class = ""square num-button"" onclick = ""recordClick(this)""><div class = content><div class = numbers>7</div></div></button><button id = button_8 class = ""square num-button"" onclick = ""recordClick(this)""><div class = content><div class = numbers>8</div></div></button><button id = button_9 class = ""square num-button"" onclick = ""recordClick(this)""><div class = content><div class = numbers>9</div></div></button><button class = clear_button id = ""ClearButton"" onclick = ""clearResponse()"">Clear</button><p><u><b>Current Answer:</b></u></p><div id=echoed_txt style=""font-size: 6rem; color:blue;""><b></b></div></div><br><br><br><br><br><br><br>",enter,fwdspan,response,SD8ba28dKaTnYHMXddk8uf2MMXh1,html-keyboard-response,130,302914,0.0-7.0-2.9-0.9-3.9,10.0,"[4,5,1,2,9,6,3,7,5,1]","[4,5,1,8,9,6,2,3,7,3]",0.0,"[3, 4, 5, 6, 7, 8, 9, 9, 10, 10, 9, 9]",,62d2c9d825a0449c13aa42cc,1:01:41 PM,1/15/2024
,,,fwdspan,update_span,SD8ba28dKaTnYHMXddk8uf2MMXh1,call-function,131,303179,0.0-7.0-2.9-0.9-4.9,,,,,,,62d2c9d825a0449c13aa42cc,1:01:41 PM,1/15/2024
532.0,"<p style=""font-size:3rem"">Trial 11 of 12</p><br><br><br>",0,fwdspan,start_trial,SD8ba28dKaTnYHMXddk8uf2MMXh1,html-button-response,132,303712,0.0-7.0-2.10-0.10-0.10,,,,,,,62d2c9d825a0449c13aa42cc,1:01:41 PM,1/15/2024
,"<p style=""font-size:14rem;font-weight:400;"">5</p>",,fwdspan,number,SD8ba28dKaTnYHMXddk8uf2MMXh1,html-keyboard-response,133,304730,0.0-7.0-2.10-0.10-1.71-0.71,,,,,,,62d2c9d825a0449c13aa42cc,1:01:41 PM,1/15/2024
,"<p style=""font-size:14rem;font-weight:400;"">8</p>",,fwdspan,number,SD8ba28dKaTnYHMXddk8uf2MMXh1,html-keyboard-response,134,305740,0.0-7.0-2.10-0.10-1.72-0.72,,,,,,,62d2c9d825a0449c13aa42cc,1:01:41 PM,1/15/2024
,"<p style=""font-size:14rem;font-weight:400;"">1</p>",,fwdspan,number,SD8ba28dKaTnYHMXddk8uf2MMXh1,html-keyboard-response,135,306747,0.0-7.0-2.10-0.10-1.73-0.73,,,,,,,62d2c9d825a0449c13aa42cc,1:01:41 PM,1/15/2024
,"<p style=""font-size:14rem;font-weight:400;"">7</p>",,fwdspan,number,SD8ba28dKaTnYHMXddk8uf2MMXh1,html-keyboard-response,136,307762,0.0-7.0-2.10-0.10-1.74-0.74,,,,,,,62d2c9d825a0449c13aa42cc,1:01:41 PM,1/15/2024
,"<p style=""font-size:14rem;font-weight:400;"">3</p>",,fwdspan,number,SD8ba28dKaTnYHMXddk8uf2MMXh1,html-keyboard-response,137,308772,0.0-7.0-2.10-0.10-1.75-0.75,,,,,,,62d2c9d825a0449c13aa42cc,1:01:41 PM,1/15/2024
,"<p style=""font-size:14rem;font-weight:400;"">9</p>",,fwdspan,number,SD8ba28dKaTnYHMXddk8uf2MMXh1,html-keyboard-response,138,309786,0.0-7.0-2.10-0.10-1.76-0.76,,,,,,,62d2c9d825a0449c13aa42cc,1:01:41 PM,1/15/2024
,"<p style=""font-size:14rem;font-weight:400;"">4</p>",,fwdspan,number,SD8ba28dKaTnYHMXddk8uf2MMXh1,html-keyboard-response,139,310797,0.0-7.0-2.10-0.10-1.77-0.77,,,,,,,62d2c9d825a0449c13aa42cc,1:01:41 PM,1/15/2024
,"<p style=""font-size:14rem;font-weight:400;"">6</p>",,fwdspan,number,SD8ba28dKaTnYHMXddk8uf2MMXh1,html-keyboard-response,140,311808,0.0-7.0-2.10-0.10-1.78-0.78,,,,,,,62d2c9d825a0449c13aa42cc,1:01:41 PM,1/15/2024
,"<p style=""font-size:14rem;font-weight:400;"">2</p>",,fwdspan,number,SD8ba28dKaTnYHMXddk8uf2MMXh1,html-keyboard-response,141,312812,0.0-7.0-2.10-0.10-1.79-0.79,,,,,,,62d2c9d825a0449c13aa42cc,1:01:41 PM,1/15/2024
,[],,fwdspan,delay,SD8ba28dKaTnYHMXddk8uf2MMXh1,html-keyboard-response,142,313372,0.0-7.0-2.10-0.10-2.10,,,,,,,62d2c9d825a0449c13aa42cc,1:01:41 PM,1/15/2024
5045.399999991059,"<div class = numbox><p style=""font-size:2.5rem"">What were the numbers <b>in order</b>?<br>(When you are ready to lock in your answer, press <b>ENTER</b>)</p><button id = button_1 class = ""square num-button"" onclick = ""recordClick(this)""><div class = content><div class = numbers>1</div></div></button><button id = button_2 class = ""square num-button"" onclick = ""recordClick(this)""><div class = content><div class = numbers>2</div></div></button><button id = button_3 class = ""square num-button"" onclick = ""recordClick(this)""><div class = content><div class = numbers>3</div></div></button><button id = button_4 class = ""square num-button"" onclick = ""recordClick(this)""><div class = content><div class = numbers>4</div></div></button><button id = button_5 class = ""square num-button"" onclick = ""recordClick(this)""><div class = content><div class = numbers>5</div></div></button><button id = button_6 class = ""square num-button"" onclick = ""recordClick(this)""><div class = content><div class = numbers>6</div></div></button><button id = button_7 class = ""square num-button"" onclick = ""recordClick(this)""><div class = content><div class = numbers>7</div></div></button><button id = button_8 class = ""square num-button"" onclick = ""recordClick(this)""><div class = content><div class = numbers>8</div></div></button><button id = button_9 class = ""square num-button"" onclick = ""recordClick(this)""><div class = content><div class = numbers>9</div></div></button><button class = clear_button id = ""ClearButton"" onclick = ""clearResponse()"">Clear</button><p><u><b>Current Answer:</b></u></p><div id=echoed_txt style=""font-size: 6rem; color:blue;""><b></b></div></div><br><br><br><br><br><br><br>",enter,fwdspan,response,SD8ba28dKaTnYHMXddk8uf2MMXh1,html-keyboard-response,143,318418,0.0-7.0-2.10-0.10-3.10,9.0,"[5,8,1,7,9,3,4,2,5]","[5,8,1,7,3,9,4,6,2]",0.0,"[3, 4, 5, 6, 7, 8, 9, 9, 10, 10, 9, 9]",,62d2c9d825a0449c13aa42cc,1:01:41 PM,1/15/2024
,,,fwdspan,update_span,SD8ba28dKaTnYHMXddk8uf2MMXh1,call-function,144,318679,0.0-7.0-2.10-0.10-4.10,,,,,,,62d2c9d825a0449c13aa42cc,1:01:41 PM,1/15/2024
570.4000000059605,"<p style=""font-size:3rem"">Trial 12 of 12</p><br><br><br>",0,fwdspan,start_trial,SD8ba28dKaTnYHMXddk8uf2MMXh1,html-button-response,145,319250,0.0-7.0-2.11-0.11-0.11,,,,,,,62d2c9d825a0449c13aa42cc,1:01:41 PM,1/15/2024
,"<p style=""font-size:14rem;font-weight:400;"">6</p>",,fwdspan,number,SD8ba28dKaTnYHMXddk8uf2MMXh1,html-keyboard-response,146,320272,0.0-7.0-2.11-0.11-1.80-0.80,,,,,,,62d2c9d825a0449c13aa42cc,1:01:41 PM,1/15/2024
,"<p style=""font-size:14rem;font-weight:400;"">4</p>",,fwdspan,number,SD8ba28dKaTnYHMXddk8uf2MMXh1,html-keyboard-response,147,321281,0.0-7.0-2.11-0.11-1.81-0.81,,,,,,,62d2c9d825a0449c13aa42cc,1:01:41 PM,1/15/2024
,"<p style=""font-size:14rem;font-weight:400;"">7</p>",,fwdspan,number,SD8ba28dKaTnYHMXddk8uf2MMXh1,html-keyboard-response,148,322305,0.0-7.0-2.11-0.11-1.82-0.82,,,,,,,62d2c9d825a0449c13aa42cc,1:01:41 PM,1/15/2024
,"<p style=""font-size:14rem;font-weight:400;"">8</p>",,fwdspan,number,SD8ba28dKaTnYHMXddk8uf2MMXh1,html-keyboard-response,149,323318,0.0-7.0-2.11-0.11-1.83-0.83,,,,,,,62d2c9d825a0449c13aa42cc,1:01:41 PM,1/15/2024
,"<p style=""font-size:14rem;font-weight:400;"">1</p>",,fwdspan,number,SD8ba28dKaTnYHMXddk8uf2MMXh1,html-keyboard-response,150,324331,0.0-7.0-2.11-0.11-1.84-0.84,,,,,,,62d2c9d825a0449c13aa42cc,1:01:41 PM,1/15/2024
,"<p style=""font-size:14rem;font-weight:400;"">9</p>",,fwdspan,number,SD8ba28dKaTnYHMXddk8uf2MMXh1,html-keyboard-response,151,325337,0.0-7.0-2.11-0.11-1.85-0.85,,,,,,,62d2c9d825a0449c13aa42cc,1:01:41 PM,1/15/2024
,"<p style=""font-size:14rem;font-weight:400;"">3</p>",,fwdspan,number,SD8ba28dKaTnYHMXddk8uf2MMXh1,html-keyboard-response,152,326354,0.0-7.0-2.11-0.11-1.86-0.86,,,,,,,62d2c9d825a0449c13aa42cc,1:01:41 PM,1/15/2024
,"<p style=""font-size:14rem;font-weight:400;"">2</p>",,fwdspan,number,SD8ba28dKaTnYHMXddk8uf2MMXh1,html-keyboard-response,153,327362,0.0-7.0-2.11-0.11-1.87-0.87,,,,,,,62d2c9d825a0449c13aa42cc,1:01:41 PM,1/15/2024
,"<p style=""font-size:14rem;font-weight:400;"">5</p>",,fwdspan,number,SD8ba28dKaTnYHMXddk8uf2MMXh1,html-keyboard-response,154,328381,0.0-7.0-2.11-0.11-1.88-0.88,,,,,,,62d2c9d825a0449c13aa42cc,1:01:41 PM,1/15/2024
,[],,fwdspan,delay,SD8ba28dKaTnYHMXddk8uf2MMXh1,html-keyboard-response,155,328936,0.0-7.0-2.11-0.11-2.11,,,,,,,62d2c9d825a0449c13aa42cc,1:01:41 PM,1/15/2024
4137.100000008941,"<div class = numbox><p style=""font-size:2.5rem"">What were the numbers <b>in order</b>?<br>(When you are ready to lock in your answer, press <b>ENTER</b>)</p><button id = button_1 class = ""square num-button"" onclick = ""recordClick(this)""><div class = content><div class = numbers>1</div></div></button><button id = button_2 class = ""square num-button"" onclick = ""recordClick(this)""><div class = content><div class = numbers>2</div></div></button><button id = button_3 class = ""square num-button"" onclick = ""recordClick(this)""><div class = content><div class = numbers>3</div></div></button><button id = button_4 class = ""square num-button"" onclick = ""recordClick(this)""><div class = content><div class = numbers>4</div></div></button><button id = button_5 class = ""square num-button"" onclick = ""recordClick(this)""><div class = content><div class = numbers>5</div></div></button><button id = button_6 class = ""square num-button"" onclick = ""recordClick(this)""><div class = content><div class = numbers>6</div></div></button><button id = button_7 class = ""square num-button"" onclick = ""recordClick(this)""><div class = content><div class = numbers>7</div></div></button><button id = button_8 class = ""square num-button"" onclick = ""recordClick(this)""><div class = content><div class = numbers>8</div></div></button><button id = button_9 class = ""square num-button"" onclick = ""recordClick(this)""><div class = content><div class = numbers>9</div></div></button><button class = clear_button id = ""ClearButton"" onclick = ""clearResponse()"">Clear</button><p><u><b>Current Answer:</b></u></p><div id=echoed_txt style=""font-size: 6rem; color:blue;""><b></b></div></div><br><br><br><br><br><br><br>",enter,fwdspan,response,SD8ba28dKaTnYHMXddk8uf2MMXh1,html-keyboard-response,156,333074,0.0-7.0-2.11-0.11-3.11,9.0,"[6,4,7,8,1,9,2,4,5]","[6,4,7,8,1,9,3,2,5]",0.0,"[3, 4, 5, 6, 7, 8, 9, 9, 10, 10, 9, 9]",,62d2c9d825a0449c13aa42cc,1:01:41 PM,1/15/2024
,,,fwdspan,update_span,SD8ba28dKaTnYHMXddk8uf2MMXh1,call-function,157,333335,0.0-7.0-2.11-0.11-4.11,,,,,,,62d2c9d825a0449c13aa42cc,1:01:41 PM,1/15/2024
20150.20000000298,,{'Q0': 'Nothing was unclear and I understood everything well'},fwdspan,survey,SD8ba28dKaTnYHMXddk8uf2MMXh1,lmdlab-survey-text,158,354249,0.0-7.0-3.0,,,,,,SD8ba28dKaTnYHMXddk8uf2MMXh1,62d2c9d825a0449c13aa42cc,1:01:41 PM,1/15/2024
884.7999999970198,<p><p style='font-size: 3rem'>Great work!<br><br>This completes the digit span task.</p><br><br><br>,0,fwdspan,finish,SD8ba28dKaTnYHMXddk8uf2MMXh1,html-button-response,159,355135,0.0-7.0-4.0,,,,,,,62d2c9d825a0449c13aa42cc,1:01:41 PM,1/15/2024
