rt,stimulus,response,exp_name,exp_stage,subjectID,trial_type,trial_index,time_elapsed,internal_node_id,span,answer,correct,correct_full,span_history,databaseID,prolificID,start_time,date
4485.600000000559,"<p style=""font-size:4rem""><br><br>In the next part today, we have a completely different short task.<br><br><br>This part involves keeping numbers in you mind. Participation takes around 5 minutes.<br><br><br></p>",0,fwdspan,instruct,4KbgGiN6UgXbOw3zSpudclFqdMf1,html-button-response,19,2961409,0.0-7.0-0.0,,,,,,,5f22b52e1c71f8024cba331b,12:02:57,15/01/2024
8806.700000000186,"<p style=""font-size:5rem"">Welcome to the <b>digit span task</b>!<br><br></p><p style=""font-size:3.4rem""><br>On each trial, you will see a sequence of digits, followed by a delay.</p><p style=""font-size:3.4rem""><br>Then you will be asked to type them back in the same order in which they were seen.</p><p style=""font-size:3.4rem""><br><br><br>For example, if you saw the digits <b style=""color:blue;"">1</b>, <b style=""color:blue;"">2</b>, <b style=""color:blue;"">3</b>, you would respond with <b style=""color:blue;"">1</b>, <b style=""color:blue;"">2</b>, <b style=""color:blue;"">3</b></p><p style=""font-size:3.4rem""><br><br><br>To ensure the best measure of true performance for our study,<br><br>it is very important that you do not use any memory aid (e.g., pen and paper).<br><br>Please do the task solely in your head.</p><p style=""font-size:3.4rem""><br><br><br>There will be 12 total trials. Participation takes around 5 minutes.</p><br><br><br>",0,fwdspan,instruct,4KbgGiN6UgXbOw3zSpudclFqdMf1,html-button-response,20,2970217,0.0-7.0-1.0,,,,,,,5f22b52e1c71f8024cba331b,12:02:57,15/01/2024
1277.7000000001863,"<p style=""font-size:3rem"">Trial 1 of 12</p><br><br><br>",0,fwdspan,start_trial,4KbgGiN6UgXbOw3zSpudclFqdMf1,html-button-response,21,2971497,0.0-7.0-2.0-0.0-0.0,,,,,,,5f22b52e1c71f8024cba331b,12:02:57,15/01/2024
,"<p style=""font-size:14rem;font-weight:400;"">3</p>",,fwdspan,number,4KbgGiN6UgXbOw3zSpudclFqdMf1,html-keyboard-response,22,2972515,0.0-7.0-2.0-0.0-1.0-0.0,,,,,,,5f22b52e1c71f8024cba331b,12:02:57,15/01/2024
,"<p style=""font-size:14rem;font-weight:400;"">6</p>",,fwdspan,number,4KbgGiN6UgXbOw3zSpudclFqdMf1,html-keyboard-response,23,2973545,0.0-7.0-2.0-0.0-1.1-0.1,,,,,,,5f22b52e1c71f8024cba331b,12:02:57,15/01/2024
,"<p style=""font-size:14rem;font-weight:400;"">5</p>",,fwdspan,number,4KbgGiN6UgXbOw3zSpudclFqdMf1,html-keyboard-response,24,2974574,0.0-7.0-2.0-0.0-1.2-0.2,,,,,,,5f22b52e1c71f8024cba331b,12:02:57,15/01/2024
,[],,fwdspan,delay,4KbgGiN6UgXbOw3zSpudclFqdMf1,html-keyboard-response,25,2975150,0.0-7.0-2.0-0.0-2.0,,,,,,,5f22b52e1c71f8024cba331b,12:02:57,15/01/2024
4972.600000000559,"<div class = numbox><p style=""font-size:2.5rem"">What were the numbers <b>in order</b>?<br>(When you are ready to lock in your answer, press <b>ENTER</b>)</p><button id = button_1 class = ""square num-button"" onclick = ""recordClick(this)""><div class = content><div class = numbers>1</div></div></button><button id = button_2 class = ""square num-button"" onclick = ""recordClick(this)""><div class = content><div class = numbers>2</div></div></button><button id = button_3 class = ""square num-button"" onclick = ""recordClick(this)""><div class = content><div class = numbers>3</div></div></button><button id = button_4 class = ""square num-button"" onclick = ""recordClick(this)""><div class = content><div class = numbers>4</div></div></button><button id = button_5 class = ""square num-button"" onclick = ""recordClick(this)""><div class = content><div class = numbers>5</div></div></button><button id = button_6 class = ""square num-button"" onclick = ""recordClick(this)""><div class = content><div class = numbers>6</div></div></button><button id = button_7 class = ""square num-button"" onclick = ""recordClick(this)""><div class = content><div class = numbers>7</div></div></button><button id = button_8 class = ""square num-button"" onclick = ""recordClick(this)""><div class = content><div class = numbers>8</div></div></button><button id = button_9 class = ""square num-button"" onclick = ""recordClick(this)""><div class = content><div class = numbers>9</div></div></button><button class = clear_button id = ""ClearButton"" onclick = ""clearResponse()"">Clear</button><p><u><b>Current Answer:</b></u></p><div id=echoed_txt style=""font-size: 6rem; color:blue;""><b></b></div></div><br><br><br><br><br><br><br>",enter,fwdspan,response,4KbgGiN6UgXbOw3zSpudclFqdMf1,html-keyboard-response,26,2980124,0.0-7.0-2.0-0.0-3.0,3.0,"[3,6,5]","[3,6,5]",1.0,"[3, 4, 5, 6, 7, 8, 8, 7, 7, 6, 7, 8]",,5f22b52e1c71f8024cba331b,12:02:57,15/01/2024
,,,fwdspan,update_span,4KbgGiN6UgXbOw3zSpudclFqdMf1,call-function,27,2980376,0.0-7.0-2.0-0.0-4.0,,,,,,,5f22b52e1c71f8024cba331b,12:02:57,15/01/2024
1020.2999999998137,"<p style=""font-size:3rem"">Trial 2 of 12</p><br><br><br>",0,fwdspan,start_trial,4KbgGiN6UgXbOw3zSpudclFqdMf1,html-button-response,28,2981397,0.0-7.0-2.1-0.1-0.1,,,,,,,5f22b52e1c71f8024cba331b,12:02:57,15/01/2024
,"<p style=""font-size:14rem;font-weight:400;"">8</p>",,fwdspan,number,4KbgGiN6UgXbOw3zSpudclFqdMf1,html-keyboard-response,29,2982409,0.0-7.0-2.1-0.1-1.3-0.3,,,,,,,5f22b52e1c71f8024cba331b,12:02:57,15/01/2024
,"<p style=""font-size:14rem;font-weight:400;"">7</p>",,fwdspan,number,4KbgGiN6UgXbOw3zSpudclFqdMf1,html-keyboard-response,30,2983414,0.0-7.0-2.1-0.1-1.4-0.4,,,,,,,5f22b52e1c71f8024cba331b,12:02:57,15/01/2024
,"<p style=""font-size:14rem;font-weight:400;"">1</p>",,fwdspan,number,4KbgGiN6UgXbOw3zSpudclFqdMf1,html-keyboard-response,31,2984429,0.0-7.0-2.1-0.1-1.5-0.5,,,,,,,5f22b52e1c71f8024cba331b,12:02:57,15/01/2024
,"<p style=""font-size:14rem;font-weight:400;"">2</p>",,fwdspan,number,4KbgGiN6UgXbOw3zSpudclFqdMf1,html-keyboard-response,32,2985446,0.0-7.0-2.1-0.1-1.6-0.6,,,,,,,5f22b52e1c71f8024cba331b,12:02:57,15/01/2024
,[],,fwdspan,delay,4KbgGiN6UgXbOw3zSpudclFqdMf1,html-keyboard-response,33,2986011,0.0-7.0-2.1-0.1-2.1,,,,,,,5f22b52e1c71f8024cba331b,12:02:57,15/01/2024
3501.199999999255,"<div class = numbox><p style=""font-size:2.5rem"">What were the numbers <b>in order</b>?<br>(When you are ready to lock in your answer, press <b>ENTER</b>)</p><button id = button_1 class = ""square num-button"" onclick = ""recordClick(this)""><div class = content><div class = numbers>1</div></div></button><button id = button_2 class = ""square num-button"" onclick = ""recordClick(this)""><div class = content><div class = numbers>2</div></div></button><button id = button_3 class = ""square num-button"" onclick = ""recordClick(this)""><div class = content><div class = numbers>3</div></div></button><button id = button_4 class = ""square num-button"" onclick = ""recordClick(this)""><div class = content><div class = numbers>4</div></div></button><button id = button_5 class = ""square num-button"" onclick = ""recordClick(this)""><div class = content><div class = numbers>5</div></div></button><button id = button_6 class = ""square num-button"" onclick = ""recordClick(this)""><div class = content><div class = numbers>6</div></div></button><button id = button_7 class = ""square num-button"" onclick = ""recordClick(this)""><div class = content><div class = numbers>7</div></div></button><button id = button_8 class = ""square num-button"" onclick = ""recordClick(this)""><div class = content><div class = numbers>8</div></div></button><button id = button_9 class = ""square num-button"" onclick = ""recordClick(this)""><div class = content><div class = numbers>9</div></div></button><button class = clear_button id = ""ClearButton"" onclick = ""clearResponse()"">Clear</button><p><u><b>Current Answer:</b></u></p><div id=echoed_txt style=""font-size: 6rem; color:blue;""><b></b></div></div><br><br><br><br><br><br><br>",enter,fwdspan,response,4KbgGiN6UgXbOw3zSpudclFqdMf1,html-keyboard-response,34,2989512,0.0-7.0-2.1-0.1-3.1,4.0,"[8,7,1,2]","[8,7,1,2]",1.0,"[3, 4, 5, 6, 7, 8, 8, 7, 7, 6, 7, 8]",,5f22b52e1c71f8024cba331b,12:02:57,15/01/2024
,,,fwdspan,update_span,4KbgGiN6UgXbOw3zSpudclFqdMf1,call-function,35,2989767,0.0-7.0-2.1-0.1-4.1,,,,,,,5f22b52e1c71f8024cba331b,12:02:57,15/01/2024
713.3999999994412,"<p style=""font-size:3rem"">Trial 3 of 12</p><br><br><br>",0,fwdspan,start_trial,4KbgGiN6UgXbOw3zSpudclFqdMf1,html-button-response,36,2990481,0.0-7.0-2.2-0.2-0.2,,,,,,,5f22b52e1c71f8024cba331b,12:02:57,15/01/2024
,"<p style=""font-size:14rem;font-weight:400;"">2</p>",,fwdspan,number,4KbgGiN6UgXbOw3zSpudclFqdMf1,html-keyboard-response,37,2991497,0.0-7.0-2.2-0.2-1.7-0.7,,,,,,,5f22b52e1c71f8024cba331b,12:02:57,15/01/2024
,"<p style=""font-size:14rem;font-weight:400;"">6</p>",,fwdspan,number,4KbgGiN6UgXbOw3zSpudclFqdMf1,html-keyboard-response,38,2992512,0.0-7.0-2.2-0.2-1.8-0.8,,,,,,,5f22b52e1c71f8024cba331b,12:02:57,15/01/2024
,"<p style=""font-size:14rem;font-weight:400;"">5</p>",,fwdspan,number,4KbgGiN6UgXbOw3zSpudclFqdMf1,html-keyboard-response,39,2993516,0.0-7.0-2.2-0.2-1.9-0.9,,,,,,,5f22b52e1c71f8024cba331b,12:02:57,15/01/2024
,"<p style=""font-size:14rem;font-weight:400;"">1</p>",,fwdspan,number,4KbgGiN6UgXbOw3zSpudclFqdMf1,html-keyboard-response,40,2994546,0.0-7.0-2.2-0.2-1.10-0.10,,,,,,,5f22b52e1c71f8024cba331b,12:02:57,15/01/2024
,"<p style=""font-size:14rem;font-weight:400;"">4</p>",,fwdspan,number,4KbgGiN6UgXbOw3zSpudclFqdMf1,html-keyboard-response,41,2995560,0.0-7.0-2.2-0.2-1.11-0.11,,,,,,,5f22b52e1c71f8024cba331b,12:02:57,15/01/2024
,[],,fwdspan,delay,4KbgGiN6UgXbOw3zSpudclFqdMf1,html-keyboard-response,42,2996137,0.0-7.0-2.2-0.2-2.2,,,,,,,5f22b52e1c71f8024cba331b,12:02:57,15/01/2024
3481.300000000745,"<div class = numbox><p style=""font-size:2.5rem"">What were the numbers <b>in order</b>?<br>(When you are ready to lock in your answer, press <b>ENTER</b>)</p><button id = button_1 class = ""square num-button"" onclick = ""recordClick(this)""><div class = content><div class = numbers>1</div></div></button><button id = button_2 class = ""square num-button"" onclick = ""recordClick(this)""><div class = content><div class = numbers>2</div></div></button><button id = button_3 class = ""square num-button"" onclick = ""recordClick(this)""><div class = content><div class = numbers>3</div></div></button><button id = button_4 class = ""square num-button"" onclick = ""recordClick(this)""><div class = content><div class = numbers>4</div></div></button><button id = button_5 class = ""square num-button"" onclick = ""recordClick(this)""><div class = content><div class = numbers>5</div></div></button><button id = button_6 class = ""square num-button"" onclick = ""recordClick(this)""><div class = content><div class = numbers>6</div></div></button><button id = button_7 class = ""square num-button"" onclick = ""recordClick(this)""><div class = content><div class = numbers>7</div></div></button><button id = button_8 class = ""square num-button"" onclick = ""recordClick(this)""><div class = content><div class = numbers>8</div></div></button><button id = button_9 class = ""square num-button"" onclick = ""recordClick(this)""><div class = content><div class = numbers>9</div></div></button><button class = clear_button id = ""ClearButton"" onclick = ""clearResponse()"">Clear</button><p><u><b>Current Answer:</b></u></p><div id=echoed_txt style=""font-size: 6rem; color:blue;""><b></b></div></div><br><br><br><br><br><br><br>",enter,fwdspan,response,4KbgGiN6UgXbOw3zSpudclFqdMf1,html-keyboard-response,43,2999619,0.0-7.0-2.2-0.2-3.2,5.0,"[2,6,5,1,4]","[2,6,5,1,4]",1.0,"[3, 4, 5, 6, 7, 8, 8, 7, 7, 6, 7, 8]",,5f22b52e1c71f8024cba331b,12:02:57,15/01/2024
,,,fwdspan,update_span,4KbgGiN6UgXbOw3zSpudclFqdMf1,call-function,44,2999882,0.0-7.0-2.2-0.2-4.2,,,,,,,5f22b52e1c71f8024cba331b,12:02:57,15/01/2024
855.1000000005588,"<p style=""font-size:3rem"">Trial 4 of 12</p><br><br><br>",0,fwdspan,start_trial,4KbgGiN6UgXbOw3zSpudclFqdMf1,html-button-response,45,3000738,0.0-7.0-2.3-0.3-0.3,,,,,,,5f22b52e1c71f8024cba331b,12:02:57,15/01/2024
,"<p style=""font-size:14rem;font-weight:400;"">3</p>",,fwdspan,number,4KbgGiN6UgXbOw3zSpudclFqdMf1,html-keyboard-response,46,3001743,0.0-7.0-2.3-0.3-1.12-0.12,,,,,,,5f22b52e1c71f8024cba331b,12:02:57,15/01/2024
,"<p style=""font-size:14rem;font-weight:400;"">1</p>",,fwdspan,number,4KbgGiN6UgXbOw3zSpudclFqdMf1,html-keyboard-response,47,3002761,0.0-7.0-2.3-0.3-1.13-0.13,,,,,,,5f22b52e1c71f8024cba331b,12:02:57,15/01/2024
,"<p style=""font-size:14rem;font-weight:400;"">2</p>",,fwdspan,number,4KbgGiN6UgXbOw3zSpudclFqdMf1,html-keyboard-response,48,3003777,0.0-7.0-2.3-0.3-1.14-0.14,,,,,,,5f22b52e1c71f8024cba331b,12:02:57,15/01/2024
,"<p style=""font-size:14rem;font-weight:400;"">4</p>",,fwdspan,number,4KbgGiN6UgXbOw3zSpudclFqdMf1,html-keyboard-response,49,3004794,0.0-7.0-2.3-0.3-1.15-0.15,,,,,,,5f22b52e1c71f8024cba331b,12:02:57,15/01/2024
,"<p style=""font-size:14rem;font-weight:400;"">8</p>",,fwdspan,number,4KbgGiN6UgXbOw3zSpudclFqdMf1,html-keyboard-response,50,3005799,0.0-7.0-2.3-0.3-1.16-0.16,,,,,,,5f22b52e1c71f8024cba331b,12:02:57,15/01/2024
,"<p style=""font-size:14rem;font-weight:400;"">5</p>",,fwdspan,number,4KbgGiN6UgXbOw3zSpudclFqdMf1,html-keyboard-response,51,3006802,0.0-7.0-2.3-0.3-1.17-0.17,,,,,,,5f22b52e1c71f8024cba331b,12:02:57,15/01/2024
,[],,fwdspan,delay,4KbgGiN6UgXbOw3zSpudclFqdMf1,html-keyboard-response,52,3007360,0.0-7.0-2.3-0.3-2.3,,,,,,,5f22b52e1c71f8024cba331b,12:02:57,15/01/2024
4410.0,"<div class = numbox><p style=""font-size:2.5rem"">What were the numbers <b>in order</b>?<br>(When you are ready to lock in your answer, press <b>ENTER</b>)</p><button id = button_1 class = ""square num-button"" onclick = ""recordClick(this)""><div class = content><div class = numbers>1</div></div></button><button id = button_2 class = ""square num-button"" onclick = ""recordClick(this)""><div class = content><div class = numbers>2</div></div></button><button id = button_3 class = ""square num-button"" onclick = ""recordClick(this)""><div class = content><div class = numbers>3</div></div></button><button id = button_4 class = ""square num-button"" onclick = ""recordClick(this)""><div class = content><div class = numbers>4</div></div></button><button id = button_5 class = ""square num-button"" onclick = ""recordClick(this)""><div class = content><div class = numbers>5</div></div></button><button id = button_6 class = ""square num-button"" onclick = ""recordClick(this)""><div class = content><div class = numbers>6</div></div></button><button id = button_7 class = ""square num-button"" onclick = ""recordClick(this)""><div class = content><div class = numbers>7</div></div></button><button id = button_8 class = ""square num-button"" onclick = ""recordClick(this)""><div class = content><div class = numbers>8</div></div></button><button id = button_9 class = ""square num-button"" onclick = ""recordClick(this)""><div class = content><div class = numbers>9</div></div></button><button class = clear_button id = ""ClearButton"" onclick = ""clearResponse()"">Clear</button><p><u><b>Current Answer:</b></u></p><div id=echoed_txt style=""font-size: 6rem; color:blue;""><b></b></div></div><br><br><br><br><br><br><br>",enter,fwdspan,response,4KbgGiN6UgXbOw3zSpudclFqdMf1,html-keyboard-response,53,3011771,0.0-7.0-2.3-0.3-3.3,6.0,"[3,1,2,4,8,5]","[3,1,2,4,8,5]",1.0,"[3, 4, 5, 6, 7, 8, 8, 7, 7, 6, 7, 8]",,5f22b52e1c71f8024cba331b,12:02:57,15/01/2024
,,,fwdspan,update_span,4KbgGiN6UgXbOw3zSpudclFqdMf1,call-function,54,3012031,0.0-7.0-2.3-0.3-4.3,,,,,,,5f22b52e1c71f8024cba331b,12:02:57,15/01/2024
786.8999999994412,"<p style=""font-size:3rem"">Trial 5 of 12</p><br><br><br>",0,fwdspan,start_trial,4KbgGiN6UgXbOw3zSpudclFqdMf1,html-button-response,55,3012819,0.0-7.0-2.4-0.4-0.4,,,,,,,5f22b52e1c71f8024cba331b,12:02:57,15/01/2024
,"<p style=""font-size:14rem;font-weight:400;"">8</p>",,fwdspan,number,4KbgGiN6UgXbOw3zSpudclFqdMf1,html-keyboard-response,56,3013838,0.0-7.0-2.4-0.4-1.18-0.18,,,,,,,5f22b52e1c71f8024cba331b,12:02:57,15/01/2024
,"<p style=""font-size:14rem;font-weight:400;"">9</p>",,fwdspan,number,4KbgGiN6UgXbOw3zSpudclFqdMf1,html-keyboard-response,57,3014854,0.0-7.0-2.4-0.4-1.19-0.19,,,,,,,5f22b52e1c71f8024cba331b,12:02:57,15/01/2024
,"<p style=""font-size:14rem;font-weight:400;"">5</p>",,fwdspan,number,4KbgGiN6UgXbOw3zSpudclFqdMf1,html-keyboard-response,58,3015884,0.0-7.0-2.4-0.4-1.20-0.20,,,,,,,5f22b52e1c71f8024cba331b,12:02:57,15/01/2024
,"<p style=""font-size:14rem;font-weight:400;"">7</p>",,fwdspan,number,4KbgGiN6UgXbOw3zSpudclFqdMf1,html-keyboard-response,59,3016912,0.0-7.0-2.4-0.4-1.21-0.21,,,,,,,5f22b52e1c71f8024cba331b,12:02:57,15/01/2024
,"<p style=""font-size:14rem;font-weight:400;"">2</p>",,fwdspan,number,4KbgGiN6UgXbOw3zSpudclFqdMf1,html-keyboard-response,60,3017929,0.0-7.0-2.4-0.4-1.22-0.22,,,,,,,5f22b52e1c71f8024cba331b,12:02:57,15/01/2024
,"<p style=""font-size:14rem;font-weight:400;"">6</p>",,fwdspan,number,4KbgGiN6UgXbOw3zSpudclFqdMf1,html-keyboard-response,61,3018955,0.0-7.0-2.4-0.4-1.23-0.23,,,,,,,5f22b52e1c71f8024cba331b,12:02:57,15/01/2024
,"<p style=""font-size:14rem;font-weight:400;"">3</p>",,fwdspan,number,4KbgGiN6UgXbOw3zSpudclFqdMf1,html-keyboard-response,62,3019984,0.0-7.0-2.4-0.4-1.24-0.24,,,,,,,5f22b52e1c71f8024cba331b,12:02:57,15/01/2024
,[],,fwdspan,delay,4KbgGiN6UgXbOw3zSpudclFqdMf1,html-keyboard-response,63,3020536,0.0-7.0-2.4-0.4-2.4,,,,,,,5f22b52e1c71f8024cba331b,12:02:57,15/01/2024
5204.5999999996275,"<div class = numbox><p style=""font-size:2.5rem"">What were the numbers <b>in order</b>?<br>(When you are ready to lock in your answer, press <b>ENTER</b>)</p><button id = button_1 class = ""square num-button"" onclick = ""recordClick(this)""><div class = content><div class = numbers>1</div></div></button><button id = button_2 class = ""square num-button"" onclick = ""recordClick(this)""><div class = content><div class = numbers>2</div></div></button><button id = button_3 class = ""square num-button"" onclick = ""recordClick(this)""><div class = content><div class = numbers>3</div></div></button><button id = button_4 class = ""square num-button"" onclick = ""recordClick(this)""><div class = content><div class = numbers>4</div></div></button><button id = button_5 class = ""square num-button"" onclick = ""recordClick(this)""><div class = content><div class = numbers>5</div></div></button><button id = button_6 class = ""square num-button"" onclick = ""recordClick(this)""><div class = content><div class = numbers>6</div></div></button><button id = button_7 class = ""square num-button"" onclick = ""recordClick(this)""><div class = content><div class = numbers>7</div></div></button><button id = button_8 class = ""square num-button"" onclick = ""recordClick(this)""><div class = content><div class = numbers>8</div></div></button><button id = button_9 class = ""square num-button"" onclick = ""recordClick(this)""><div class = content><div class = numbers>9</div></div></button><button class = clear_button id = ""ClearButton"" onclick = ""clearResponse()"">Clear</button><p><u><b>Current Answer:</b></u></p><div id=echoed_txt style=""font-size: 6rem; color:blue;""><b></b></div></div><br><br><br><br><br><br><br>",enter,fwdspan,response,4KbgGiN6UgXbOw3zSpudclFqdMf1,html-keyboard-response,64,3025741,0.0-7.0-2.4-0.4-3.4,7.0,"[8,9,5,7,2,6,3]","[8,9,5,7,2,6,3]",1.0,"[3, 4, 5, 6, 7, 8, 8, 7, 7, 6, 7, 8]",,5f22b52e1c71f8024cba331b,12:02:57,15/01/2024
,,,fwdspan,update_span,4KbgGiN6UgXbOw3zSpudclFqdMf1,call-function,65,3026005,0.0-7.0-2.4-0.4-4.4,,,,,,,5f22b52e1c71f8024cba331b,12:02:57,15/01/2024
825.1000000005588,"<p style=""font-size:3rem"">Trial 6 of 12</p><br><br><br>",0,fwdspan,start_trial,4KbgGiN6UgXbOw3zSpudclFqdMf1,html-button-response,66,3026831,0.0-7.0-2.5-0.5-0.5,,,,,,,5f22b52e1c71f8024cba331b,12:02:57,15/01/2024
,"<p style=""font-size:14rem;font-weight:400;"">4</p>",,fwdspan,number,4KbgGiN6UgXbOw3zSpudclFqdMf1,html-keyboard-response,67,3027847,0.0-7.0-2.5-0.5-1.25-0.25,,,,,,,5f22b52e1c71f8024cba331b,12:02:57,15/01/2024
,"<p style=""font-size:14rem;font-weight:400;"">3</p>",,fwdspan,number,4KbgGiN6UgXbOw3zSpudclFqdMf1,html-keyboard-response,68,3028878,0.0-7.0-2.5-0.5-1.26-0.26,,,,,,,5f22b52e1c71f8024cba331b,12:02:57,15/01/2024
,"<p style=""font-size:14rem;font-weight:400;"">5</p>",,fwdspan,number,4KbgGiN6UgXbOw3zSpudclFqdMf1,html-keyboard-response,69,3029895,0.0-7.0-2.5-0.5-1.27-0.27,,,,,,,5f22b52e1c71f8024cba331b,12:02:57,15/01/2024
,"<p style=""font-size:14rem;font-weight:400;"">2</p>",,fwdspan,number,4KbgGiN6UgXbOw3zSpudclFqdMf1,html-keyboard-response,70,3030909,0.0-7.0-2.5-0.5-1.28-0.28,,,,,,,5f22b52e1c71f8024cba331b,12:02:57,15/01/2024
,"<p style=""font-size:14rem;font-weight:400;"">9</p>",,fwdspan,number,4KbgGiN6UgXbOw3zSpudclFqdMf1,html-keyboard-response,71,3031924,0.0-7.0-2.5-0.5-1.29-0.29,,,,,,,5f22b52e1c71f8024cba331b,12:02:57,15/01/2024
,"<p style=""font-size:14rem;font-weight:400;"">7</p>",,fwdspan,number,4KbgGiN6UgXbOw3zSpudclFqdMf1,html-keyboard-response,72,3032953,0.0-7.0-2.5-0.5-1.30-0.30,,,,,,,5f22b52e1c71f8024cba331b,12:02:57,15/01/2024
,"<p style=""font-size:14rem;font-weight:400;"">1</p>",,fwdspan,number,4KbgGiN6UgXbOw3zSpudclFqdMf1,html-keyboard-response,73,3033984,0.0-7.0-2.5-0.5-1.31-0.31,,,,,,,5f22b52e1c71f8024cba331b,12:02:57,15/01/2024
,"<p style=""font-size:14rem;font-weight:400;"">6</p>",,fwdspan,number,4KbgGiN6UgXbOw3zSpudclFqdMf1,html-keyboard-response,74,3035000,0.0-7.0-2.5-0.5-1.32-0.32,,,,,,,5f22b52e1c71f8024cba331b,12:02:57,15/01/2024
,[],,fwdspan,delay,4KbgGiN6UgXbOw3zSpudclFqdMf1,html-keyboard-response,75,3035558,0.0-7.0-2.5-0.5-2.5,,,,,,,5f22b52e1c71f8024cba331b,12:02:57,15/01/2024
6332.199999999255,"<div class = numbox><p style=""font-size:2.5rem"">What were the numbers <b>in order</b>?<br>(When you are ready to lock in your answer, press <b>ENTER</b>)</p><button id = button_1 class = ""square num-button"" onclick = ""recordClick(this)""><div class = content><div class = numbers>1</div></div></button><button id = button_2 class = ""square num-button"" onclick = ""recordClick(this)""><div class = content><div class = numbers>2</div></div></button><button id = button_3 class = ""square num-button"" onclick = ""recordClick(this)""><div class = content><div class = numbers>3</div></div></button><button id = button_4 class = ""square num-button"" onclick = ""recordClick(this)""><div class = content><div class = numbers>4</div></div></button><button id = button_5 class = ""square num-button"" onclick = ""recordClick(this)""><div class = content><div class = numbers>5</div></div></button><button id = button_6 class = ""square num-button"" onclick = ""recordClick(this)""><div class = content><div class = numbers>6</div></div></button><button id = button_7 class = ""square num-button"" onclick = ""recordClick(this)""><div class = content><div class = numbers>7</div></div></button><button id = button_8 class = ""square num-button"" onclick = ""recordClick(this)""><div class = content><div class = numbers>8</div></div></button><button id = button_9 class = ""square num-button"" onclick = ""recordClick(this)""><div class = content><div class = numbers>9</div></div></button><button class = clear_button id = ""ClearButton"" onclick = ""clearResponse()"">Clear</button><p><u><b>Current Answer:</b></u></p><div id=echoed_txt style=""font-size: 6rem; color:blue;""><b></b></div></div><br><br><br><br><br><br><br>",enter,fwdspan,response,4KbgGiN6UgXbOw3zSpudclFqdMf1,html-keyboard-response,76,3041891,0.0-7.0-2.5-0.5-3.5,8.0,"[4,3,5,2,9,1,7]","[4,3,5,2,9,7,1,6]",0.0,"[3, 4, 5, 6, 7, 8, 8, 7, 7, 6, 7, 8]",,5f22b52e1c71f8024cba331b,12:02:57,15/01/2024
,,,fwdspan,update_span,4KbgGiN6UgXbOw3zSpudclFqdMf1,call-function,77,3042154,0.0-7.0-2.5-0.5-4.5,,,,,,,5f22b52e1c71f8024cba331b,12:02:57,15/01/2024
690.7000000001863,"<p style=""font-size:3rem"">Trial 7 of 12</p><br><br><br>",0,fwdspan,start_trial,4KbgGiN6UgXbOw3zSpudclFqdMf1,html-button-response,78,3042846,0.0-7.0-2.6-0.6-0.6,,,,,,,5f22b52e1c71f8024cba331b,12:02:57,15/01/2024
,"<p style=""font-size:14rem;font-weight:400;"">3</p>",,fwdspan,number,4KbgGiN6UgXbOw3zSpudclFqdMf1,html-keyboard-response,79,3043857,0.0-7.0-2.6-0.6-1.33-0.33,,,,,,,5f22b52e1c71f8024cba331b,12:02:57,15/01/2024
,"<p style=""font-size:14rem;font-weight:400;"">4</p>",,fwdspan,number,4KbgGiN6UgXbOw3zSpudclFqdMf1,html-keyboard-response,80,3044870,0.0-7.0-2.6-0.6-1.34-0.34,,,,,,,5f22b52e1c71f8024cba331b,12:02:57,15/01/2024
,"<p style=""font-size:14rem;font-weight:400;"">7</p>",,fwdspan,number,4KbgGiN6UgXbOw3zSpudclFqdMf1,html-keyboard-response,81,3045883,0.0-7.0-2.6-0.6-1.35-0.35,,,,,,,5f22b52e1c71f8024cba331b,12:02:57,15/01/2024
,"<p style=""font-size:14rem;font-weight:400;"">8</p>",,fwdspan,number,4KbgGiN6UgXbOw3zSpudclFqdMf1,html-keyboard-response,82,3046899,0.0-7.0-2.6-0.6-1.36-0.36,,,,,,,5f22b52e1c71f8024cba331b,12:02:57,15/01/2024
,"<p style=""font-size:14rem;font-weight:400;"">9</p>",,fwdspan,number,4KbgGiN6UgXbOw3zSpudclFqdMf1,html-keyboard-response,83,3047929,0.0-7.0-2.6-0.6-1.37-0.37,,,,,,,5f22b52e1c71f8024cba331b,12:02:57,15/01/2024
,"<p style=""font-size:14rem;font-weight:400;"">5</p>",,fwdspan,number,4KbgGiN6UgXbOw3zSpudclFqdMf1,html-keyboard-response,84,3048947,0.0-7.0-2.6-0.6-1.38-0.38,,,,,,,5f22b52e1c71f8024cba331b,12:02:57,15/01/2024
,"<p style=""font-size:14rem;font-weight:400;"">2</p>",,fwdspan,number,4KbgGiN6UgXbOw3zSpudclFqdMf1,html-keyboard-response,85,3049975,0.0-7.0-2.6-0.6-1.39-0.39,,,,,,,5f22b52e1c71f8024cba331b,12:02:57,15/01/2024
,"<p style=""font-size:14rem;font-weight:400;"">1</p>",,fwdspan,number,4KbgGiN6UgXbOw3zSpudclFqdMf1,html-keyboard-response,86,3051004,0.0-7.0-2.6-0.6-1.40-0.40,,,,,,,5f22b52e1c71f8024cba331b,12:02:57,15/01/2024
,[],,fwdspan,delay,4KbgGiN6UgXbOw3zSpudclFqdMf1,html-keyboard-response,87,3051582,0.0-7.0-2.6-0.6-2.6,,,,,,,5f22b52e1c71f8024cba331b,12:02:57,15/01/2024
6245.299999999814,"<div class = numbox><p style=""font-size:2.5rem"">What were the numbers <b>in order</b>?<br>(When you are ready to lock in your answer, press <b>ENTER</b>)</p><button id = button_1 class = ""square num-button"" onclick = ""recordClick(this)""><div class = content><div class = numbers>1</div></div></button><button id = button_2 class = ""square num-button"" onclick = ""recordClick(this)""><div class = content><div class = numbers>2</div></div></button><button id = button_3 class = ""square num-button"" onclick = ""recordClick(this)""><div class = content><div class = numbers>3</div></div></button><button id = button_4 class = ""square num-button"" onclick = ""recordClick(this)""><div class = content><div class = numbers>4</div></div></button><button id = button_5 class = ""square num-button"" onclick = ""recordClick(this)""><div class = content><div class = numbers>5</div></div></button><button id = button_6 class = ""square num-button"" onclick = ""recordClick(this)""><div class = content><div class = numbers>6</div></div></button><button id = button_7 class = ""square num-button"" onclick = ""recordClick(this)""><div class = content><div class = numbers>7</div></div></button><button id = button_8 class = ""square num-button"" onclick = ""recordClick(this)""><div class = content><div class = numbers>8</div></div></button><button id = button_9 class = ""square num-button"" onclick = ""recordClick(this)""><div class = content><div class = numbers>9</div></div></button><button class = clear_button id = ""ClearButton"" onclick = ""clearResponse()"">Clear</button><p><u><b>Current Answer:</b></u></p><div id=echoed_txt style=""font-size: 6rem; color:blue;""><b></b></div></div><br><br><br><br><br><br><br>",enter,fwdspan,response,4KbgGiN6UgXbOw3zSpudclFqdMf1,html-keyboard-response,88,3057828,0.0-7.0-2.6-0.6-3.6,8.0,"[3,4,7,8,9,5,1,2]","[3,4,7,8,9,5,2,1]",0.0,"[3, 4, 5, 6, 7, 8, 8, 7, 7, 6, 7, 8]",,5f22b52e1c71f8024cba331b,12:02:57,15/01/2024
,,,fwdspan,update_span,4KbgGiN6UgXbOw3zSpudclFqdMf1,call-function,89,3058091,0.0-7.0-2.6-0.6-4.6,,,,,,,5f22b52e1c71f8024cba331b,12:02:57,15/01/2024
646.7000000001863,"<p style=""font-size:3rem"">Trial 8 of 12</p><br><br><br>",0,fwdspan,start_trial,4KbgGiN6UgXbOw3zSpudclFqdMf1,html-button-response,90,3058738,0.0-7.0-2.7-0.7-0.7,,,,,,,5f22b52e1c71f8024cba331b,12:02:57,15/01/2024
,"<p style=""font-size:14rem;font-weight:400;"">3</p>",,fwdspan,number,4KbgGiN6UgXbOw3zSpudclFqdMf1,html-keyboard-response,91,3059744,0.0-7.0-2.7-0.7-1.41-0.41,,,,,,,5f22b52e1c71f8024cba331b,12:02:57,15/01/2024
,"<p style=""font-size:14rem;font-weight:400;"">5</p>",,fwdspan,number,4KbgGiN6UgXbOw3zSpudclFqdMf1,html-keyboard-response,92,3060773,0.0-7.0-2.7-0.7-1.42-0.42,,,,,,,5f22b52e1c71f8024cba331b,12:02:57,15/01/2024
,"<p style=""font-size:14rem;font-weight:400;"">8</p>",,fwdspan,number,4KbgGiN6UgXbOw3zSpudclFqdMf1,html-keyboard-response,93,3061802,0.0-7.0-2.7-0.7-1.43-0.43,,,,,,,5f22b52e1c71f8024cba331b,12:02:57,15/01/2024
,"<p style=""font-size:14rem;font-weight:400;"">1</p>",,fwdspan,number,4KbgGiN6UgXbOw3zSpudclFqdMf1,html-keyboard-response,94,3062829,0.0-7.0-2.7-0.7-1.44-0.44,,,,,,,5f22b52e1c71f8024cba331b,12:02:57,15/01/2024
,"<p style=""font-size:14rem;font-weight:400;"">4</p>",,fwdspan,number,4KbgGiN6UgXbOw3zSpudclFqdMf1,html-keyboard-response,95,3063847,0.0-7.0-2.7-0.7-1.45-0.45,,,,,,,5f22b52e1c71f8024cba331b,12:02:57,15/01/2024
,"<p style=""font-size:14rem;font-weight:400;"">9</p>",,fwdspan,number,4KbgGiN6UgXbOw3zSpudclFqdMf1,html-keyboard-response,96,3064859,0.0-7.0-2.7-0.7-1.46-0.46,,,,,,,5f22b52e1c71f8024cba331b,12:02:57,15/01/2024
,"<p style=""font-size:14rem;font-weight:400;"">2</p>",,fwdspan,number,4KbgGiN6UgXbOw3zSpudclFqdMf1,html-keyboard-response,97,3065875,0.0-7.0-2.7-0.7-1.47-0.47,,,,,,,5f22b52e1c71f8024cba331b,12:02:57,15/01/2024
,[],,fwdspan,delay,4KbgGiN6UgXbOw3zSpudclFqdMf1,html-keyboard-response,98,3066439,0.0-7.0-2.7-0.7-2.7,,,,,,,5f22b52e1c71f8024cba331b,12:02:57,15/01/2024
8040.299999999814,"<div class = numbox><p style=""font-size:2.5rem"">What were the numbers <b>in order</b>?<br>(When you are ready to lock in your answer, press <b>ENTER</b>)</p><button id = button_1 class = ""square num-button"" onclick = ""recordClick(this)""><div class = content><div class = numbers>1</div></div></button><button id = button_2 class = ""square num-button"" onclick = ""recordClick(this)""><div class = content><div class = numbers>2</div></div></button><button id = button_3 class = ""square num-button"" onclick = ""recordClick(this)""><div class = content><div class = numbers>3</div></div></button><button id = button_4 class = ""square num-button"" onclick = ""recordClick(this)""><div class = content><div class = numbers>4</div></div></button><button id = button_5 class = ""square num-button"" onclick = ""recordClick(this)""><div class = content><div class = numbers>5</div></div></button><button id = button_6 class = ""square num-button"" onclick = ""recordClick(this)""><div class = content><div class = numbers>6</div></div></button><button id = button_7 class = ""square num-button"" onclick = ""recordClick(this)""><div class = content><div class = numbers>7</div></div></button><button id = button_8 class = ""square num-button"" onclick = ""recordClick(this)""><div class = content><div class = numbers>8</div></div></button><button id = button_9 class = ""square num-button"" onclick = ""recordClick(this)""><div class = content><div class = numbers>9</div></div></button><button class = clear_button id = ""ClearButton"" onclick = ""clearResponse()"">Clear</button><p><u><b>Current Answer:</b></u></p><div id=echoed_txt style=""font-size: 6rem; color:blue;""><b></b></div></div><br><br><br><br><br><br><br>",enter,fwdspan,response,4KbgGiN6UgXbOw3zSpudclFqdMf1,html-keyboard-response,99,3074480,0.0-7.0-2.7-0.7-3.7,7.0,"[3,5,8,1,9,5,2]","[3,5,8,1,4,9,2]",0.0,"[3, 4, 5, 6, 7, 8, 8, 7, 7, 6, 7, 8]",,5f22b52e1c71f8024cba331b,12:02:57,15/01/2024
,,,fwdspan,update_span,4KbgGiN6UgXbOw3zSpudclFqdMf1,call-function,100,3074741,0.0-7.0-2.7-0.7-4.7,,,,,,,5f22b52e1c71f8024cba331b,12:02:57,15/01/2024
743.6999999992549,"<p style=""font-size:3rem"">Trial 9 of 12</p><br><br><br>",0,fwdspan,start_trial,4KbgGiN6UgXbOw3zSpudclFqdMf1,html-button-response,101,3075485,0.0-7.0-2.8-0.8-0.8,,,,,,,5f22b52e1c71f8024cba331b,12:02:57,15/01/2024
,"<p style=""font-size:14rem;font-weight:400;"">4</p>",,fwdspan,number,4KbgGiN6UgXbOw3zSpudclFqdMf1,html-keyboard-response,102,3076503,0.0-7.0-2.8-0.8-1.48-0.48,,,,,,,5f22b52e1c71f8024cba331b,12:02:57,15/01/2024
,"<p style=""font-size:14rem;font-weight:400;"">9</p>",,fwdspan,number,4KbgGiN6UgXbOw3zSpudclFqdMf1,html-keyboard-response,103,3077517,0.0-7.0-2.8-0.8-1.49-0.49,,,,,,,5f22b52e1c71f8024cba331b,12:02:57,15/01/2024
,"<p style=""font-size:14rem;font-weight:400;"">6</p>",,fwdspan,number,4KbgGiN6UgXbOw3zSpudclFqdMf1,html-keyboard-response,104,3078531,0.0-7.0-2.8-0.8-1.50-0.50,,,,,,,5f22b52e1c71f8024cba331b,12:02:57,15/01/2024
,"<p style=""font-size:14rem;font-weight:400;"">5</p>",,fwdspan,number,4KbgGiN6UgXbOw3zSpudclFqdMf1,html-keyboard-response,105,3079549,0.0-7.0-2.8-0.8-1.51-0.51,,,,,,,5f22b52e1c71f8024cba331b,12:02:57,15/01/2024
,"<p style=""font-size:14rem;font-weight:400;"">7</p>",,fwdspan,number,4KbgGiN6UgXbOw3zSpudclFqdMf1,html-keyboard-response,106,3080580,0.0-7.0-2.8-0.8-1.52-0.52,,,,,,,5f22b52e1c71f8024cba331b,12:02:57,15/01/2024
,"<p style=""font-size:14rem;font-weight:400;"">2</p>",,fwdspan,number,4KbgGiN6UgXbOw3zSpudclFqdMf1,html-keyboard-response,107,3081607,0.0-7.0-2.8-0.8-1.53-0.53,,,,,,,5f22b52e1c71f8024cba331b,12:02:57,15/01/2024
,"<p style=""font-size:14rem;font-weight:400;"">1</p>",,fwdspan,number,4KbgGiN6UgXbOw3zSpudclFqdMf1,html-keyboard-response,108,3082622,0.0-7.0-2.8-0.8-1.54-0.54,,,,,,,5f22b52e1c71f8024cba331b,12:02:57,15/01/2024
,[],,fwdspan,delay,4KbgGiN6UgXbOw3zSpudclFqdMf1,html-keyboard-response,109,3083174,0.0-7.0-2.8-0.8-2.8,,,,,,,5f22b52e1c71f8024cba331b,12:02:57,15/01/2024
5216.899999999441,"<div class = numbox><p style=""font-size:2.5rem"">What were the numbers <b>in order</b>?<br>(When you are ready to lock in your answer, press <b>ENTER</b>)</p><button id = button_1 class = ""square num-button"" onclick = ""recordClick(this)""><div class = content><div class = numbers>1</div></div></button><button id = button_2 class = ""square num-button"" onclick = ""recordClick(this)""><div class = content><div class = numbers>2</div></div></button><button id = button_3 class = ""square num-button"" onclick = ""recordClick(this)""><div class = content><div class = numbers>3</div></div></button><button id = button_4 class = ""square num-button"" onclick = ""recordClick(this)""><div class = content><div class = numbers>4</div></div></button><button id = button_5 class = ""square num-button"" onclick = ""recordClick(this)""><div class = content><div class = numbers>5</div></div></button><button id = button_6 class = ""square num-button"" onclick = ""recordClick(this)""><div class = content><div class = numbers>6</div></div></button><button id = button_7 class = ""square num-button"" onclick = ""recordClick(this)""><div class = content><div class = numbers>7</div></div></button><button id = button_8 class = ""square num-button"" onclick = ""recordClick(this)""><div class = content><div class = numbers>8</div></div></button><button id = button_9 class = ""square num-button"" onclick = ""recordClick(this)""><div class = content><div class = numbers>9</div></div></button><button class = clear_button id = ""ClearButton"" onclick = ""clearResponse()"">Clear</button><p><u><b>Current Answer:</b></u></p><div id=echoed_txt style=""font-size: 6rem; color:blue;""><b></b></div></div><br><br><br><br><br><br><br>",enter,fwdspan,response,4KbgGiN6UgXbOw3zSpudclFqdMf1,html-keyboard-response,110,3088391,0.0-7.0-2.8-0.8-3.8,7.0,"[4,9,6,5,7,1,2]","[4,9,6,5,7,2,1]",0.0,"[3, 4, 5, 6, 7, 8, 8, 7, 7, 6, 7, 8]",,5f22b52e1c71f8024cba331b,12:02:57,15/01/2024
,,,fwdspan,update_span,4KbgGiN6UgXbOw3zSpudclFqdMf1,call-function,111,3088642,0.0-7.0-2.8-0.8-4.8,,,,,,,5f22b52e1c71f8024cba331b,12:02:57,15/01/2024
690.2000000001863,"<p style=""font-size:3rem"">Trial 10 of 12</p><br><br><br>",0,fwdspan,start_trial,4KbgGiN6UgXbOw3zSpudclFqdMf1,html-button-response,112,3089333,0.0-7.0-2.9-0.9-0.9,,,,,,,5f22b52e1c71f8024cba331b,12:02:57,15/01/2024
,"<p style=""font-size:14rem;font-weight:400;"">8</p>",,fwdspan,number,4KbgGiN6UgXbOw3zSpudclFqdMf1,html-keyboard-response,113,3090344,0.0-7.0-2.9-0.9-1.55-0.55,,,,,,,5f22b52e1c71f8024cba331b,12:02:57,15/01/2024
,"<p style=""font-size:14rem;font-weight:400;"">3</p>",,fwdspan,number,4KbgGiN6UgXbOw3zSpudclFqdMf1,html-keyboard-response,114,3091371,0.0-7.0-2.9-0.9-1.56-0.56,,,,,,,5f22b52e1c71f8024cba331b,12:02:57,15/01/2024
,"<p style=""font-size:14rem;font-weight:400;"">2</p>",,fwdspan,number,4KbgGiN6UgXbOw3zSpudclFqdMf1,html-keyboard-response,115,3092386,0.0-7.0-2.9-0.9-1.57-0.57,,,,,,,5f22b52e1c71f8024cba331b,12:02:57,15/01/2024
,"<p style=""font-size:14rem;font-weight:400;"">1</p>",,fwdspan,number,4KbgGiN6UgXbOw3zSpudclFqdMf1,html-keyboard-response,116,3093400,0.0-7.0-2.9-0.9-1.58-0.58,,,,,,,5f22b52e1c71f8024cba331b,12:02:57,15/01/2024
,"<p style=""font-size:14rem;font-weight:400;"">5</p>",,fwdspan,number,4KbgGiN6UgXbOw3zSpudclFqdMf1,html-keyboard-response,117,3094428,0.0-7.0-2.9-0.9-1.59-0.59,,,,,,,5f22b52e1c71f8024cba331b,12:02:57,15/01/2024
,"<p style=""font-size:14rem;font-weight:400;"">6</p>",,fwdspan,number,4KbgGiN6UgXbOw3zSpudclFqdMf1,html-keyboard-response,118,3095444,0.0-7.0-2.9-0.9-1.60-0.60,,,,,,,5f22b52e1c71f8024cba331b,12:02:57,15/01/2024
,[],,fwdspan,delay,4KbgGiN6UgXbOw3zSpudclFqdMf1,html-keyboard-response,119,3096020,0.0-7.0-2.9-0.9-2.9,,,,,,,5f22b52e1c71f8024cba331b,12:02:57,15/01/2024
4944.899999999441,"<div class = numbox><p style=""font-size:2.5rem"">What were the numbers <b>in order</b>?<br>(When you are ready to lock in your answer, press <b>ENTER</b>)</p><button id = button_1 class = ""square num-button"" onclick = ""recordClick(this)""><div class = content><div class = numbers>1</div></div></button><button id = button_2 class = ""square num-button"" onclick = ""recordClick(this)""><div class = content><div class = numbers>2</div></div></button><button id = button_3 class = ""square num-button"" onclick = ""recordClick(this)""><div class = content><div class = numbers>3</div></div></button><button id = button_4 class = ""square num-button"" onclick = ""recordClick(this)""><div class = content><div class = numbers>4</div></div></button><button id = button_5 class = ""square num-button"" onclick = ""recordClick(this)""><div class = content><div class = numbers>5</div></div></button><button id = button_6 class = ""square num-button"" onclick = ""recordClick(this)""><div class = content><div class = numbers>6</div></div></button><button id = button_7 class = ""square num-button"" onclick = ""recordClick(this)""><div class = content><div class = numbers>7</div></div></button><button id = button_8 class = ""square num-button"" onclick = ""recordClick(this)""><div class = content><div class = numbers>8</div></div></button><button id = button_9 class = ""square num-button"" onclick = ""recordClick(this)""><div class = content><div class = numbers>9</div></div></button><button class = clear_button id = ""ClearButton"" onclick = ""clearResponse()"">Clear</button><p><u><b>Current Answer:</b></u></p><div id=echoed_txt style=""font-size: 6rem; color:blue;""><b></b></div></div><br><br><br><br><br><br><br>",enter,fwdspan,response,4KbgGiN6UgXbOw3zSpudclFqdMf1,html-keyboard-response,120,3100966,0.0-7.0-2.9-0.9-3.9,6.0,"[8,3,2,1,5,6]","[8,3,2,1,5,6]",1.0,"[3, 4, 5, 6, 7, 8, 8, 7, 7, 6, 7, 8]",,5f22b52e1c71f8024cba331b,12:02:57,15/01/2024
,,,fwdspan,update_span,4KbgGiN6UgXbOw3zSpudclFqdMf1,call-function,121,3101233,0.0-7.0-2.9-0.9-4.9,,,,,,,5f22b52e1c71f8024cba331b,12:02:57,15/01/2024
620.9000000003725,"<p style=""font-size:3rem"">Trial 11 of 12</p><br><br><br>",0,fwdspan,start_trial,4KbgGiN6UgXbOw3zSpudclFqdMf1,html-button-response,122,3101854,0.0-7.0-2.10-0.10-0.10,,,,,,,5f22b52e1c71f8024cba331b,12:02:57,15/01/2024
,"<p style=""font-size:14rem;font-weight:400;"">7</p>",,fwdspan,number,4KbgGiN6UgXbOw3zSpudclFqdMf1,html-keyboard-response,123,3102869,0.0-7.0-2.10-0.10-1.61-0.61,,,,,,,5f22b52e1c71f8024cba331b,12:02:57,15/01/2024
,"<p style=""font-size:14rem;font-weight:400;"">9</p>",,fwdspan,number,4KbgGiN6UgXbOw3zSpudclFqdMf1,html-keyboard-response,124,3103874,0.0-7.0-2.10-0.10-1.62-0.62,,,,,,,5f22b52e1c71f8024cba331b,12:02:57,15/01/2024
,"<p style=""font-size:14rem;font-weight:400;"">5</p>",,fwdspan,number,4KbgGiN6UgXbOw3zSpudclFqdMf1,html-keyboard-response,125,3104902,0.0-7.0-2.10-0.10-1.63-0.63,,,,,,,5f22b52e1c71f8024cba331b,12:02:57,15/01/2024
,"<p style=""font-size:14rem;font-weight:400;"">8</p>",,fwdspan,number,4KbgGiN6UgXbOw3zSpudclFqdMf1,html-keyboard-response,126,3105917,0.0-7.0-2.10-0.10-1.64-0.64,,,,,,,5f22b52e1c71f8024cba331b,12:02:57,15/01/2024
,"<p style=""font-size:14rem;font-weight:400;"">4</p>",,fwdspan,number,4KbgGiN6UgXbOw3zSpudclFqdMf1,html-keyboard-response,127,3106948,0.0-7.0-2.10-0.10-1.65-0.65,,,,,,,5f22b52e1c71f8024cba331b,12:02:57,15/01/2024
,"<p style=""font-size:14rem;font-weight:400;"">6</p>",,fwdspan,number,4KbgGiN6UgXbOw3zSpudclFqdMf1,html-keyboard-response,128,3107977,0.0-7.0-2.10-0.10-1.66-0.66,,,,,,,5f22b52e1c71f8024cba331b,12:02:57,15/01/2024
,"<p style=""font-size:14rem;font-weight:400;"">3</p>",,fwdspan,number,4KbgGiN6UgXbOw3zSpudclFqdMf1,html-keyboard-response,129,3108992,0.0-7.0-2.10-0.10-1.67-0.67,,,,,,,5f22b52e1c71f8024cba331b,12:02:57,15/01/2024
,[],,fwdspan,delay,4KbgGiN6UgXbOw3zSpudclFqdMf1,html-keyboard-response,130,3109569,0.0-7.0-2.10-0.10-2.10,,,,,,,5f22b52e1c71f8024cba331b,12:02:57,15/01/2024
5092.4000000003725,"<div class = numbox><p style=""font-size:2.5rem"">What were the numbers <b>in order</b>?<br>(When you are ready to lock in your answer, press <b>ENTER</b>)</p><button id = button_1 class = ""square num-button"" onclick = ""recordClick(this)""><div class = content><div class = numbers>1</div></div></button><button id = button_2 class = ""square num-button"" onclick = ""recordClick(this)""><div class = content><div class = numbers>2</div></div></button><button id = button_3 class = ""square num-button"" onclick = ""recordClick(this)""><div class = content><div class = numbers>3</div></div></button><button id = button_4 class = ""square num-button"" onclick = ""recordClick(this)""><div class = content><div class = numbers>4</div></div></button><button id = button_5 class = ""square num-button"" onclick = ""recordClick(this)""><div class = content><div class = numbers>5</div></div></button><button id = button_6 class = ""square num-button"" onclick = ""recordClick(this)""><div class = content><div class = numbers>6</div></div></button><button id = button_7 class = ""square num-button"" onclick = ""recordClick(this)""><div class = content><div class = numbers>7</div></div></button><button id = button_8 class = ""square num-button"" onclick = ""recordClick(this)""><div class = content><div class = numbers>8</div></div></button><button id = button_9 class = ""square num-button"" onclick = ""recordClick(this)""><div class = content><div class = numbers>9</div></div></button><button class = clear_button id = ""ClearButton"" onclick = ""clearResponse()"">Clear</button><p><u><b>Current Answer:</b></u></p><div id=echoed_txt style=""font-size: 6rem; color:blue;""><b></b></div></div><br><br><br><br><br><br><br>",enter,fwdspan,response,4KbgGiN6UgXbOw3zSpudclFqdMf1,html-keyboard-response,131,3114662,0.0-7.0-2.10-0.10-3.10,7.0,"[7,9,5,8,4,6,3]","[7,9,5,8,4,6,3]",1.0,"[3, 4, 5, 6, 7, 8, 8, 7, 7, 6, 7, 8]",,5f22b52e1c71f8024cba331b,12:02:57,15/01/2024
,,,fwdspan,update_span,4KbgGiN6UgXbOw3zSpudclFqdMf1,call-function,132,3114920,0.0-7.0-2.10-0.10-4.10,,,,,,,5f22b52e1c71f8024cba331b,12:02:57,15/01/2024
569.9000000003725,"<p style=""font-size:3rem"">Trial 12 of 12</p><br><br><br>",0,fwdspan,start_trial,4KbgGiN6UgXbOw3zSpudclFqdMf1,html-button-response,133,3115490,0.0-7.0-2.11-0.11-0.11,,,,,,,5f22b52e1c71f8024cba331b,12:02:57,15/01/2024
,"<p style=""font-size:14rem;font-weight:400;"">5</p>",,fwdspan,number,4KbgGiN6UgXbOw3zSpudclFqdMf1,html-keyboard-response,134,3116508,0.0-7.0-2.11-0.11-1.68-0.68,,,,,,,5f22b52e1c71f8024cba331b,12:02:57,15/01/2024
,"<p style=""font-size:14rem;font-weight:400;"">2</p>",,fwdspan,number,4KbgGiN6UgXbOw3zSpudclFqdMf1,html-keyboard-response,135,3117536,0.0-7.0-2.11-0.11-1.69-0.69,,,,,,,5f22b52e1c71f8024cba331b,12:02:57,15/01/2024
,"<p style=""font-size:14rem;font-weight:400;"">4</p>",,fwdspan,number,4KbgGiN6UgXbOw3zSpudclFqdMf1,html-keyboard-response,136,3118539,0.0-7.0-2.11-0.11-1.70-0.70,,,,,,,5f22b52e1c71f8024cba331b,12:02:57,15/01/2024
,"<p style=""font-size:14rem;font-weight:400;"">8</p>",,fwdspan,number,4KbgGiN6UgXbOw3zSpudclFqdMf1,html-keyboard-response,137,3119569,0.0-7.0-2.11-0.11-1.71-0.71,,,,,,,5f22b52e1c71f8024cba331b,12:02:57,15/01/2024
,"<p style=""font-size:14rem;font-weight:400;"">7</p>",,fwdspan,number,4KbgGiN6UgXbOw3zSpudclFqdMf1,html-keyboard-response,138,3120597,0.0-7.0-2.11-0.11-1.72-0.72,,,,,,,5f22b52e1c71f8024cba331b,12:02:57,15/01/2024
,"<p style=""font-size:14rem;font-weight:400;"">6</p>",,fwdspan,number,4KbgGiN6UgXbOw3zSpudclFqdMf1,html-keyboard-response,139,3121611,0.0-7.0-2.11-0.11-1.73-0.73,,,,,,,5f22b52e1c71f8024cba331b,12:02:57,15/01/2024
,"<p style=""font-size:14rem;font-weight:400;"">3</p>",,fwdspan,number,4KbgGiN6UgXbOw3zSpudclFqdMf1,html-keyboard-response,140,3122637,0.0-7.0-2.11-0.11-1.74-0.74,,,,,,,5f22b52e1c71f8024cba331b,12:02:57,15/01/2024
,"<p style=""font-size:14rem;font-weight:400;"">9</p>",,fwdspan,number,4KbgGiN6UgXbOw3zSpudclFqdMf1,html-keyboard-response,141,3123666,0.0-7.0-2.11-0.11-1.75-0.75,,,,,,,5f22b52e1c71f8024cba331b,12:02:57,15/01/2024
,[],,fwdspan,delay,4KbgGiN6UgXbOw3zSpudclFqdMf1,html-keyboard-response,142,3124218,0.0-7.0-2.11-0.11-2.11,,,,,,,5f22b52e1c71f8024cba331b,12:02:57,15/01/2024
9066.0,"<div class = numbox><p style=""font-size:2.5rem"">What were the numbers <b>in order</b>?<br>(When you are ready to lock in your answer, press <b>ENTER</b>)</p><button id = button_1 class = ""square num-button"" onclick = ""recordClick(this)""><div class = content><div class = numbers>1</div></div></button><button id = button_2 class = ""square num-button"" onclick = ""recordClick(this)""><div class = content><div class = numbers>2</div></div></button><button id = button_3 class = ""square num-button"" onclick = ""recordClick(this)""><div class = content><div class = numbers>3</div></div></button><button id = button_4 class = ""square num-button"" onclick = ""recordClick(this)""><div class = content><div class = numbers>4</div></div></button><button id = button_5 class = ""square num-button"" onclick = ""recordClick(this)""><div class = content><div class = numbers>5</div></div></button><button id = button_6 class = ""square num-button"" onclick = ""recordClick(this)""><div class = content><div class = numbers>6</div></div></button><button id = button_7 class = ""square num-button"" onclick = ""recordClick(this)""><div class = content><div class = numbers>7</div></div></button><button id = button_8 class = ""square num-button"" onclick = ""recordClick(this)""><div class = content><div class = numbers>8</div></div></button><button id = button_9 class = ""square num-button"" onclick = ""recordClick(this)""><div class = content><div class = numbers>9</div></div></button><button class = clear_button id = ""ClearButton"" onclick = ""clearResponse()"">Clear</button><p><u><b>Current Answer:</b></u></p><div id=echoed_txt style=""font-size: 6rem; color:blue;""><b></b></div></div><br><br><br><br><br><br><br>",enter,fwdspan,response,4KbgGiN6UgXbOw3zSpudclFqdMf1,html-keyboard-response,143,3133284,0.0-7.0-2.11-0.11-3.11,8.0,"[5,2,4,8,7,6,3]","[5,2,4,8,7,6,3,9]",0.0,"[3, 4, 5, 6, 7, 8, 8, 7, 7, 6, 7, 8]",,5f22b52e1c71f8024cba331b,12:02:57,15/01/2024
,,,fwdspan,update_span,4KbgGiN6UgXbOw3zSpudclFqdMf1,call-function,144,3133550,0.0-7.0-2.11-0.11-4.11,,,,,,,5f22b52e1c71f8024cba331b,12:02:57,15/01/2024
10474.700000000186,,{'Q0': 'Cool thanks'},fwdspan,survey,4KbgGiN6UgXbOw3zSpudclFqdMf1,lmdlab-survey-text,145,3144786,0.0-7.0-3.0,,,,,,4KbgGiN6UgXbOw3zSpudclFqdMf1,5f22b52e1c71f8024cba331b,12:02:57,15/01/2024
1608.0,<p><p style='font-size: 3rem'>Great work!<br><br>This completes the digit span task.</p><br><br><br>,0,fwdspan,finish,4KbgGiN6UgXbOw3zSpudclFqdMf1,html-button-response,146,3146395,0.0-7.0-4.0,,,,,,,5f22b52e1c71f8024cba331b,12:02:57,15/01/2024
