rt,stimulus,response,exp_name,exp_stage,subjectID,trial_type,trial_index,time_elapsed,internal_node_id,span,answer,correct,correct_full,span_history,databaseID,prolificID,start_time,date
3886.2999999970198,"<p style=""font-size:4rem""><br><br>In the next part today, we have a completely different short task.<br><br><br>This part involves keeping numbers in you mind. Participation takes around 5 minutes.<br><br><br></p>",0,fwdspan,instruct,TX773m5mfwWBoUnMiBqxFQkiPDF3,html-button-response,19,353454,0.0-7.0-0.0,,,,,,,615751428f5b982adf71384e,12:58:32,15/01/2024
12658.60000000149,"<p style=""font-size:5rem"">Welcome to the <b>digit span task</b>!<br><br></p><p style=""font-size:3.4rem""><br>On each trial, you will see a sequence of digits, followed by a delay.</p><p style=""font-size:3.4rem""><br>Then you will be asked to type them back in the same order in which they were seen.</p><p style=""font-size:3.4rem""><br><br><br>For example, if you saw the digits <b style=""color:blue;"">1</b>, <b style=""color:blue;"">2</b>, <b style=""color:blue;"">3</b>, you would respond with <b style=""color:blue;"">1</b>, <b style=""color:blue;"">2</b>, <b style=""color:blue;"">3</b></p><p style=""font-size:3.4rem""><br><br><br>To ensure the best measure of true performance for our study,<br><br>it is very important that you do not use any memory aid (e.g., pen and paper).<br><br>Please do the task solely in your head.</p><p style=""font-size:3.4rem""><br><br><br>There will be 12 total trials. Participation takes around 5 minutes.</p><br><br><br>",0,fwdspan,instruct,TX773m5mfwWBoUnMiBqxFQkiPDF3,html-button-response,20,366114,0.0-7.0-1.0,,,,,,,615751428f5b982adf71384e,12:58:32,15/01/2024
2120.10000000149,"<p style=""font-size:3rem"">Trial 1 of 12</p><br><br><br>",0,fwdspan,start_trial,TX773m5mfwWBoUnMiBqxFQkiPDF3,html-button-response,21,368237,0.0-7.0-2.0-0.0-0.0,,,,,,,615751428f5b982adf71384e,12:58:32,15/01/2024
,"<p style=""font-size:14rem;font-weight:400;"">5</p>",,fwdspan,number,TX773m5mfwWBoUnMiBqxFQkiPDF3,html-keyboard-response,22,369255,0.0-7.0-2.0-0.0-1.0-0.0,,,,,,,615751428f5b982adf71384e,12:58:32,15/01/2024
,"<p style=""font-size:14rem;font-weight:400;"">7</p>",,fwdspan,number,TX773m5mfwWBoUnMiBqxFQkiPDF3,html-keyboard-response,23,370282,0.0-7.0-2.0-0.0-1.1-0.1,,,,,,,615751428f5b982adf71384e,12:58:32,15/01/2024
,"<p style=""font-size:14rem;font-weight:400;"">6</p>",,fwdspan,number,TX773m5mfwWBoUnMiBqxFQkiPDF3,html-keyboard-response,24,371291,0.0-7.0-2.0-0.0-1.2-0.2,,,,,,,615751428f5b982adf71384e,12:58:32,15/01/2024
,[],,fwdspan,delay,TX773m5mfwWBoUnMiBqxFQkiPDF3,html-keyboard-response,25,371865,0.0-7.0-2.0-0.0-2.0,,,,,,,615751428f5b982adf71384e,12:58:32,15/01/2024
5177.79999999702,"<div class = numbox><p style=""font-size:2.5rem"">What were the numbers <b>in order</b>?<br>(When you are ready to lock in your answer, press <b>ENTER</b>)</p><button id = button_1 class = ""square num-button"" onclick = ""recordClick(this)""><div class = content><div class = numbers>1</div></div></button><button id = button_2 class = ""square num-button"" onclick = ""recordClick(this)""><div class = content><div class = numbers>2</div></div></button><button id = button_3 class = ""square num-button"" onclick = ""recordClick(this)""><div class = content><div class = numbers>3</div></div></button><button id = button_4 class = ""square num-button"" onclick = ""recordClick(this)""><div class = content><div class = numbers>4</div></div></button><button id = button_5 class = ""square num-button"" onclick = ""recordClick(this)""><div class = content><div class = numbers>5</div></div></button><button id = button_6 class = ""square num-button"" onclick = ""recordClick(this)""><div class = content><div class = numbers>6</div></div></button><button id = button_7 class = ""square num-button"" onclick = ""recordClick(this)""><div class = content><div class = numbers>7</div></div></button><button id = button_8 class = ""square num-button"" onclick = ""recordClick(this)""><div class = content><div class = numbers>8</div></div></button><button id = button_9 class = ""square num-button"" onclick = ""recordClick(this)""><div class = content><div class = numbers>9</div></div></button><button class = clear_button id = ""ClearButton"" onclick = ""clearResponse()"">Clear</button><p><u><b>Current Answer:</b></u></p><div id=echoed_txt style=""font-size: 6rem; color:blue;""><b></b></div></div><br><br><br><br><br><br><br>",enter,fwdspan,response,TX773m5mfwWBoUnMiBqxFQkiPDF3,html-keyboard-response,26,377045,0.0-7.0-2.0-0.0-3.0,3.0,"[5,7,6]","[5,7,6]",1.0,"[3, 4, 5, 5, 6, 6, 7, 8, 8, 7, 7, 6]",,615751428f5b982adf71384e,12:58:32,15/01/2024
,,,fwdspan,update_span,TX773m5mfwWBoUnMiBqxFQkiPDF3,call-function,27,377298,0.0-7.0-2.0-0.0-4.0,,,,,,,615751428f5b982adf71384e,12:58:32,15/01/2024
1701.2999999970198,"<p style=""font-size:3rem"">Trial 2 of 12</p><br><br><br>",0,fwdspan,start_trial,TX773m5mfwWBoUnMiBqxFQkiPDF3,html-button-response,28,379000,0.0-7.0-2.1-0.1-0.1,,,,,,,615751428f5b982adf71384e,12:58:32,15/01/2024
,"<p style=""font-size:14rem;font-weight:400;"">6</p>",,fwdspan,number,TX773m5mfwWBoUnMiBqxFQkiPDF3,html-keyboard-response,29,380016,0.0-7.0-2.1-0.1-1.3-0.3,,,,,,,615751428f5b982adf71384e,12:58:32,15/01/2024
,"<p style=""font-size:14rem;font-weight:400;"">2</p>",,fwdspan,number,TX773m5mfwWBoUnMiBqxFQkiPDF3,html-keyboard-response,30,381043,0.0-7.0-2.1-0.1-1.4-0.4,,,,,,,615751428f5b982adf71384e,12:58:32,15/01/2024
,"<p style=""font-size:14rem;font-weight:400;"">3</p>",,fwdspan,number,TX773m5mfwWBoUnMiBqxFQkiPDF3,html-keyboard-response,31,382070,0.0-7.0-2.1-0.1-1.5-0.5,,,,,,,615751428f5b982adf71384e,12:58:32,15/01/2024
,"<p style=""font-size:14rem;font-weight:400;"">5</p>",,fwdspan,number,TX773m5mfwWBoUnMiBqxFQkiPDF3,html-keyboard-response,32,383082,0.0-7.0-2.1-0.1-1.6-0.6,,,,,,,615751428f5b982adf71384e,12:58:32,15/01/2024
,[],,fwdspan,delay,TX773m5mfwWBoUnMiBqxFQkiPDF3,html-keyboard-response,33,383656,0.0-7.0-2.1-0.1-2.1,,,,,,,615751428f5b982adf71384e,12:58:32,15/01/2024
3114.10000000149,"<div class = numbox><p style=""font-size:2.5rem"">What were the numbers <b>in order</b>?<br>(When you are ready to lock in your answer, press <b>ENTER</b>)</p><button id = button_1 class = ""square num-button"" onclick = ""recordClick(this)""><div class = content><div class = numbers>1</div></div></button><button id = button_2 class = ""square num-button"" onclick = ""recordClick(this)""><div class = content><div class = numbers>2</div></div></button><button id = button_3 class = ""square num-button"" onclick = ""recordClick(this)""><div class = content><div class = numbers>3</div></div></button><button id = button_4 class = ""square num-button"" onclick = ""recordClick(this)""><div class = content><div class = numbers>4</div></div></button><button id = button_5 class = ""square num-button"" onclick = ""recordClick(this)""><div class = content><div class = numbers>5</div></div></button><button id = button_6 class = ""square num-button"" onclick = ""recordClick(this)""><div class = content><div class = numbers>6</div></div></button><button id = button_7 class = ""square num-button"" onclick = ""recordClick(this)""><div class = content><div class = numbers>7</div></div></button><button id = button_8 class = ""square num-button"" onclick = ""recordClick(this)""><div class = content><div class = numbers>8</div></div></button><button id = button_9 class = ""square num-button"" onclick = ""recordClick(this)""><div class = content><div class = numbers>9</div></div></button><button class = clear_button id = ""ClearButton"" onclick = ""clearResponse()"">Clear</button><p><u><b>Current Answer:</b></u></p><div id=echoed_txt style=""font-size: 6rem; color:blue;""><b></b></div></div><br><br><br><br><br><br><br>",enter,fwdspan,response,TX773m5mfwWBoUnMiBqxFQkiPDF3,html-keyboard-response,34,386772,0.0-7.0-2.1-0.1-3.1,4.0,"[6,2,3,5]","[6,2,3,5]",1.0,"[3, 4, 5, 5, 6, 6, 7, 8, 8, 7, 7, 6]",,615751428f5b982adf71384e,12:58:32,15/01/2024
,,,fwdspan,update_span,TX773m5mfwWBoUnMiBqxFQkiPDF3,call-function,35,387025,0.0-7.0-2.1-0.1-4.1,,,,,,,615751428f5b982adf71384e,12:58:32,15/01/2024
1557.8000000044703,"<p style=""font-size:3rem"">Trial 3 of 12</p><br><br><br>",0,fwdspan,start_trial,TX773m5mfwWBoUnMiBqxFQkiPDF3,html-button-response,36,388584,0.0-7.0-2.2-0.2-0.2,,,,,,,615751428f5b982adf71384e,12:58:32,15/01/2024
,"<p style=""font-size:14rem;font-weight:400;"">7</p>",,fwdspan,number,TX773m5mfwWBoUnMiBqxFQkiPDF3,html-keyboard-response,37,389604,0.0-7.0-2.2-0.2-1.7-0.7,,,,,,,615751428f5b982adf71384e,12:58:32,15/01/2024
,"<p style=""font-size:14rem;font-weight:400;"">9</p>",,fwdspan,number,TX773m5mfwWBoUnMiBqxFQkiPDF3,html-keyboard-response,38,390631,0.0-7.0-2.2-0.2-1.8-0.8,,,,,,,615751428f5b982adf71384e,12:58:32,15/01/2024
,"<p style=""font-size:14rem;font-weight:400;"">8</p>",,fwdspan,number,TX773m5mfwWBoUnMiBqxFQkiPDF3,html-keyboard-response,39,391646,0.0-7.0-2.2-0.2-1.9-0.9,,,,,,,615751428f5b982adf71384e,12:58:32,15/01/2024
,"<p style=""font-size:14rem;font-weight:400;"">6</p>",,fwdspan,number,TX773m5mfwWBoUnMiBqxFQkiPDF3,html-keyboard-response,40,392675,0.0-7.0-2.2-0.2-1.10-0.10,,,,,,,615751428f5b982adf71384e,12:58:32,15/01/2024
,"<p style=""font-size:14rem;font-weight:400;"">5</p>",,fwdspan,number,TX773m5mfwWBoUnMiBqxFQkiPDF3,html-keyboard-response,41,393703,0.0-7.0-2.2-0.2-1.11-0.11,,,,,,,615751428f5b982adf71384e,12:58:32,15/01/2024
,[],,fwdspan,delay,TX773m5mfwWBoUnMiBqxFQkiPDF3,html-keyboard-response,42,394275,0.0-7.0-2.2-0.2-2.2,,,,,,,615751428f5b982adf71384e,12:58:32,15/01/2024
4103.89999999851,"<div class = numbox><p style=""font-size:2.5rem"">What were the numbers <b>in order</b>?<br>(When you are ready to lock in your answer, press <b>ENTER</b>)</p><button id = button_1 class = ""square num-button"" onclick = ""recordClick(this)""><div class = content><div class = numbers>1</div></div></button><button id = button_2 class = ""square num-button"" onclick = ""recordClick(this)""><div class = content><div class = numbers>2</div></div></button><button id = button_3 class = ""square num-button"" onclick = ""recordClick(this)""><div class = content><div class = numbers>3</div></div></button><button id = button_4 class = ""square num-button"" onclick = ""recordClick(this)""><div class = content><div class = numbers>4</div></div></button><button id = button_5 class = ""square num-button"" onclick = ""recordClick(this)""><div class = content><div class = numbers>5</div></div></button><button id = button_6 class = ""square num-button"" onclick = ""recordClick(this)""><div class = content><div class = numbers>6</div></div></button><button id = button_7 class = ""square num-button"" onclick = ""recordClick(this)""><div class = content><div class = numbers>7</div></div></button><button id = button_8 class = ""square num-button"" onclick = ""recordClick(this)""><div class = content><div class = numbers>8</div></div></button><button id = button_9 class = ""square num-button"" onclick = ""recordClick(this)""><div class = content><div class = numbers>9</div></div></button><button class = clear_button id = ""ClearButton"" onclick = ""clearResponse()"">Clear</button><p><u><b>Current Answer:</b></u></p><div id=echoed_txt style=""font-size: 6rem; color:blue;""><b></b></div></div><br><br><br><br><br><br><br>",enter,fwdspan,response,TX773m5mfwWBoUnMiBqxFQkiPDF3,html-keyboard-response,43,398380,0.0-7.0-2.2-0.2-3.2,5.0,"[7,8,9,6,5]","[7,9,8,6,5]",0.0,"[3, 4, 5, 5, 6, 6, 7, 8, 8, 7, 7, 6]",,615751428f5b982adf71384e,12:58:32,15/01/2024
,,,fwdspan,update_span,TX773m5mfwWBoUnMiBqxFQkiPDF3,call-function,44,398640,0.0-7.0-2.2-0.2-4.2,,,,,,,615751428f5b982adf71384e,12:58:32,15/01/2024
1561.2000000029802,"<p style=""font-size:3rem"">Trial 4 of 12</p><br><br><br>",0,fwdspan,start_trial,TX773m5mfwWBoUnMiBqxFQkiPDF3,html-button-response,45,400202,0.0-7.0-2.3-0.3-0.3,,,,,,,615751428f5b982adf71384e,12:58:32,15/01/2024
,"<p style=""font-size:14rem;font-weight:400;"">8</p>",,fwdspan,number,TX773m5mfwWBoUnMiBqxFQkiPDF3,html-keyboard-response,46,401219,0.0-7.0-2.3-0.3-1.12-0.12,,,,,,,615751428f5b982adf71384e,12:58:32,15/01/2024
,"<p style=""font-size:14rem;font-weight:400;"">1</p>",,fwdspan,number,TX773m5mfwWBoUnMiBqxFQkiPDF3,html-keyboard-response,47,402240,0.0-7.0-2.3-0.3-1.13-0.13,,,,,,,615751428f5b982adf71384e,12:58:32,15/01/2024
,"<p style=""font-size:14rem;font-weight:400;"">3</p>",,fwdspan,number,TX773m5mfwWBoUnMiBqxFQkiPDF3,html-keyboard-response,48,403267,0.0-7.0-2.3-0.3-1.14-0.14,,,,,,,615751428f5b982adf71384e,12:58:32,15/01/2024
,"<p style=""font-size:14rem;font-weight:400;"">6</p>",,fwdspan,number,TX773m5mfwWBoUnMiBqxFQkiPDF3,html-keyboard-response,49,404288,0.0-7.0-2.3-0.3-1.15-0.15,,,,,,,615751428f5b982adf71384e,12:58:32,15/01/2024
,"<p style=""font-size:14rem;font-weight:400;"">9</p>",,fwdspan,number,TX773m5mfwWBoUnMiBqxFQkiPDF3,html-keyboard-response,50,405313,0.0-7.0-2.3-0.3-1.16-0.16,,,,,,,615751428f5b982adf71384e,12:58:32,15/01/2024
,[],,fwdspan,delay,TX773m5mfwWBoUnMiBqxFQkiPDF3,html-keyboard-response,51,405890,0.0-7.0-2.3-0.3-2.3,,,,,,,615751428f5b982adf71384e,12:58:32,15/01/2024
3713.10000000149,"<div class = numbox><p style=""font-size:2.5rem"">What were the numbers <b>in order</b>?<br>(When you are ready to lock in your answer, press <b>ENTER</b>)</p><button id = button_1 class = ""square num-button"" onclick = ""recordClick(this)""><div class = content><div class = numbers>1</div></div></button><button id = button_2 class = ""square num-button"" onclick = ""recordClick(this)""><div class = content><div class = numbers>2</div></div></button><button id = button_3 class = ""square num-button"" onclick = ""recordClick(this)""><div class = content><div class = numbers>3</div></div></button><button id = button_4 class = ""square num-button"" onclick = ""recordClick(this)""><div class = content><div class = numbers>4</div></div></button><button id = button_5 class = ""square num-button"" onclick = ""recordClick(this)""><div class = content><div class = numbers>5</div></div></button><button id = button_6 class = ""square num-button"" onclick = ""recordClick(this)""><div class = content><div class = numbers>6</div></div></button><button id = button_7 class = ""square num-button"" onclick = ""recordClick(this)""><div class = content><div class = numbers>7</div></div></button><button id = button_8 class = ""square num-button"" onclick = ""recordClick(this)""><div class = content><div class = numbers>8</div></div></button><button id = button_9 class = ""square num-button"" onclick = ""recordClick(this)""><div class = content><div class = numbers>9</div></div></button><button class = clear_button id = ""ClearButton"" onclick = ""clearResponse()"">Clear</button><p><u><b>Current Answer:</b></u></p><div id=echoed_txt style=""font-size: 6rem; color:blue;""><b></b></div></div><br><br><br><br><br><br><br>",enter,fwdspan,response,TX773m5mfwWBoUnMiBqxFQkiPDF3,html-keyboard-response,52,409604,0.0-7.0-2.3-0.3-3.3,5.0,"[8,1,3,6,9]","[8,1,3,6,9]",1.0,"[3, 4, 5, 5, 6, 6, 7, 8, 8, 7, 7, 6]",,615751428f5b982adf71384e,12:58:32,15/01/2024
,,,fwdspan,update_span,TX773m5mfwWBoUnMiBqxFQkiPDF3,call-function,53,409858,0.0-7.0-2.3-0.3-4.3,,,,,,,615751428f5b982adf71384e,12:58:32,15/01/2024
971.4000000059605,"<p style=""font-size:3rem"">Trial 5 of 12</p><br><br><br>",0,fwdspan,start_trial,TX773m5mfwWBoUnMiBqxFQkiPDF3,html-button-response,54,410830,0.0-7.0-2.4-0.4-0.4,,,,,,,615751428f5b982adf71384e,12:58:32,15/01/2024
,"<p style=""font-size:14rem;font-weight:400;"">6</p>",,fwdspan,number,TX773m5mfwWBoUnMiBqxFQkiPDF3,html-keyboard-response,55,411849,0.0-7.0-2.4-0.4-1.17-0.17,,,,,,,615751428f5b982adf71384e,12:58:32,15/01/2024
,"<p style=""font-size:14rem;font-weight:400;"">1</p>",,fwdspan,number,TX773m5mfwWBoUnMiBqxFQkiPDF3,html-keyboard-response,56,412877,0.0-7.0-2.4-0.4-1.18-0.18,,,,,,,615751428f5b982adf71384e,12:58:32,15/01/2024
,"<p style=""font-size:14rem;font-weight:400;"">2</p>",,fwdspan,number,TX773m5mfwWBoUnMiBqxFQkiPDF3,html-keyboard-response,57,413901,0.0-7.0-2.4-0.4-1.19-0.19,,,,,,,615751428f5b982adf71384e,12:58:32,15/01/2024
,"<p style=""font-size:14rem;font-weight:400;"">8</p>",,fwdspan,number,TX773m5mfwWBoUnMiBqxFQkiPDF3,html-keyboard-response,58,414924,0.0-7.0-2.4-0.4-1.20-0.20,,,,,,,615751428f5b982adf71384e,12:58:32,15/01/2024
,"<p style=""font-size:14rem;font-weight:400;"">7</p>",,fwdspan,number,TX773m5mfwWBoUnMiBqxFQkiPDF3,html-keyboard-response,59,415949,0.0-7.0-2.4-0.4-1.21-0.21,,,,,,,615751428f5b982adf71384e,12:58:32,15/01/2024
,"<p style=""font-size:14rem;font-weight:400;"">9</p>",,fwdspan,number,TX773m5mfwWBoUnMiBqxFQkiPDF3,html-keyboard-response,60,416967,0.0-7.0-2.4-0.4-1.22-0.22,,,,,,,615751428f5b982adf71384e,12:58:32,15/01/2024
,[],,fwdspan,delay,TX773m5mfwWBoUnMiBqxFQkiPDF3,html-keyboard-response,61,417533,0.0-7.0-2.4-0.4-2.4,,,,,,,615751428f5b982adf71384e,12:58:32,15/01/2024
5277.69999999553,"<div class = numbox><p style=""font-size:2.5rem"">What were the numbers <b>in order</b>?<br>(When you are ready to lock in your answer, press <b>ENTER</b>)</p><button id = button_1 class = ""square num-button"" onclick = ""recordClick(this)""><div class = content><div class = numbers>1</div></div></button><button id = button_2 class = ""square num-button"" onclick = ""recordClick(this)""><div class = content><div class = numbers>2</div></div></button><button id = button_3 class = ""square num-button"" onclick = ""recordClick(this)""><div class = content><div class = numbers>3</div></div></button><button id = button_4 class = ""square num-button"" onclick = ""recordClick(this)""><div class = content><div class = numbers>4</div></div></button><button id = button_5 class = ""square num-button"" onclick = ""recordClick(this)""><div class = content><div class = numbers>5</div></div></button><button id = button_6 class = ""square num-button"" onclick = ""recordClick(this)""><div class = content><div class = numbers>6</div></div></button><button id = button_7 class = ""square num-button"" onclick = ""recordClick(this)""><div class = content><div class = numbers>7</div></div></button><button id = button_8 class = ""square num-button"" onclick = ""recordClick(this)""><div class = content><div class = numbers>8</div></div></button><button id = button_9 class = ""square num-button"" onclick = ""recordClick(this)""><div class = content><div class = numbers>9</div></div></button><button class = clear_button id = ""ClearButton"" onclick = ""clearResponse()"">Clear</button><p><u><b>Current Answer:</b></u></p><div id=echoed_txt style=""font-size: 6rem; color:blue;""><b></b></div></div><br><br><br><br><br><br><br>",enter,fwdspan,response,TX773m5mfwWBoUnMiBqxFQkiPDF3,html-keyboard-response,62,422812,0.0-7.0-2.4-0.4-3.4,6.0,"[6,1,2,8,9,7]","[6,1,2,8,7,9]",0.0,"[3, 4, 5, 5, 6, 6, 7, 8, 8, 7, 7, 6]",,615751428f5b982adf71384e,12:58:32,15/01/2024
,,,fwdspan,update_span,TX773m5mfwWBoUnMiBqxFQkiPDF3,call-function,63,423067,0.0-7.0-2.4-0.4-4.4,,,,,,,615751428f5b982adf71384e,12:58:32,15/01/2024
1299.7999999970198,"<p style=""font-size:3rem"">Trial 6 of 12</p><br><br><br>",0,fwdspan,start_trial,TX773m5mfwWBoUnMiBqxFQkiPDF3,html-button-response,64,424368,0.0-7.0-2.5-0.5-0.5,,,,,,,615751428f5b982adf71384e,12:58:32,15/01/2024
,"<p style=""font-size:14rem;font-weight:400;"">4</p>",,fwdspan,number,TX773m5mfwWBoUnMiBqxFQkiPDF3,html-keyboard-response,65,425393,0.0-7.0-2.5-0.5-1.23-0.23,,,,,,,615751428f5b982adf71384e,12:58:32,15/01/2024
,"<p style=""font-size:14rem;font-weight:400;"">9</p>",,fwdspan,number,TX773m5mfwWBoUnMiBqxFQkiPDF3,html-keyboard-response,66,426421,0.0-7.0-2.5-0.5-1.24-0.24,,,,,,,615751428f5b982adf71384e,12:58:32,15/01/2024
,"<p style=""font-size:14rem;font-weight:400;"">5</p>",,fwdspan,number,TX773m5mfwWBoUnMiBqxFQkiPDF3,html-keyboard-response,67,427436,0.0-7.0-2.5-0.5-1.25-0.25,,,,,,,615751428f5b982adf71384e,12:58:32,15/01/2024
,"<p style=""font-size:14rem;font-weight:400;"">2</p>",,fwdspan,number,TX773m5mfwWBoUnMiBqxFQkiPDF3,html-keyboard-response,68,428462,0.0-7.0-2.5-0.5-1.26-0.26,,,,,,,615751428f5b982adf71384e,12:58:32,15/01/2024
,"<p style=""font-size:14rem;font-weight:400;"">3</p>",,fwdspan,number,TX773m5mfwWBoUnMiBqxFQkiPDF3,html-keyboard-response,69,429483,0.0-7.0-2.5-0.5-1.27-0.27,,,,,,,615751428f5b982adf71384e,12:58:32,15/01/2024
,"<p style=""font-size:14rem;font-weight:400;"">6</p>",,fwdspan,number,TX773m5mfwWBoUnMiBqxFQkiPDF3,html-keyboard-response,70,430511,0.0-7.0-2.5-0.5-1.28-0.28,,,,,,,615751428f5b982adf71384e,12:58:32,15/01/2024
,[],,fwdspan,delay,TX773m5mfwWBoUnMiBqxFQkiPDF3,html-keyboard-response,71,431067,0.0-7.0-2.5-0.5-2.5,,,,,,,615751428f5b982adf71384e,12:58:32,15/01/2024
7544.10000000149,"<div class = numbox><p style=""font-size:2.5rem"">What were the numbers <b>in order</b>?<br>(When you are ready to lock in your answer, press <b>ENTER</b>)</p><button id = button_1 class = ""square num-button"" onclick = ""recordClick(this)""><div class = content><div class = numbers>1</div></div></button><button id = button_2 class = ""square num-button"" onclick = ""recordClick(this)""><div class = content><div class = numbers>2</div></div></button><button id = button_3 class = ""square num-button"" onclick = ""recordClick(this)""><div class = content><div class = numbers>3</div></div></button><button id = button_4 class = ""square num-button"" onclick = ""recordClick(this)""><div class = content><div class = numbers>4</div></div></button><button id = button_5 class = ""square num-button"" onclick = ""recordClick(this)""><div class = content><div class = numbers>5</div></div></button><button id = button_6 class = ""square num-button"" onclick = ""recordClick(this)""><div class = content><div class = numbers>6</div></div></button><button id = button_7 class = ""square num-button"" onclick = ""recordClick(this)""><div class = content><div class = numbers>7</div></div></button><button id = button_8 class = ""square num-button"" onclick = ""recordClick(this)""><div class = content><div class = numbers>8</div></div></button><button id = button_9 class = ""square num-button"" onclick = ""recordClick(this)""><div class = content><div class = numbers>9</div></div></button><button class = clear_button id = ""ClearButton"" onclick = ""clearResponse()"">Clear</button><p><u><b>Current Answer:</b></u></p><div id=echoed_txt style=""font-size: 6rem; color:blue;""><b></b></div></div><br><br><br><br><br><br><br>",enter,fwdspan,response,TX773m5mfwWBoUnMiBqxFQkiPDF3,html-keyboard-response,72,438612,0.0-7.0-2.5-0.5-3.5,6.0,"[4,9,5,2,3,6]","[4,9,5,2,3,6]",1.0,"[3, 4, 5, 5, 6, 6, 7, 8, 8, 7, 7, 6]",,615751428f5b982adf71384e,12:58:32,15/01/2024
,,,fwdspan,update_span,TX773m5mfwWBoUnMiBqxFQkiPDF3,call-function,73,438864,0.0-7.0-2.5-0.5-4.5,,,,,,,615751428f5b982adf71384e,12:58:32,15/01/2024
929.8999999985099,"<p style=""font-size:3rem"">Trial 7 of 12</p><br><br><br>",0,fwdspan,start_trial,TX773m5mfwWBoUnMiBqxFQkiPDF3,html-button-response,74,439795,0.0-7.0-2.6-0.6-0.6,,,,,,,615751428f5b982adf71384e,12:58:32,15/01/2024
,"<p style=""font-size:14rem;font-weight:400;"">6</p>",,fwdspan,number,TX773m5mfwWBoUnMiBqxFQkiPDF3,html-keyboard-response,75,440809,0.0-7.0-2.6-0.6-1.29-0.29,,,,,,,615751428f5b982adf71384e,12:58:32,15/01/2024
,"<p style=""font-size:14rem;font-weight:400;"">9</p>",,fwdspan,number,TX773m5mfwWBoUnMiBqxFQkiPDF3,html-keyboard-response,76,441835,0.0-7.0-2.6-0.6-1.30-0.30,,,,,,,615751428f5b982adf71384e,12:58:32,15/01/2024
,"<p style=""font-size:14rem;font-weight:400;"">5</p>",,fwdspan,number,TX773m5mfwWBoUnMiBqxFQkiPDF3,html-keyboard-response,77,442856,0.0-7.0-2.6-0.6-1.31-0.31,,,,,,,615751428f5b982adf71384e,12:58:32,15/01/2024
,"<p style=""font-size:14rem;font-weight:400;"">8</p>",,fwdspan,number,TX773m5mfwWBoUnMiBqxFQkiPDF3,html-keyboard-response,78,443883,0.0-7.0-2.6-0.6-1.32-0.32,,,,,,,615751428f5b982adf71384e,12:58:32,15/01/2024
,"<p style=""font-size:14rem;font-weight:400;"">1</p>",,fwdspan,number,TX773m5mfwWBoUnMiBqxFQkiPDF3,html-keyboard-response,79,444908,0.0-7.0-2.6-0.6-1.33-0.33,,,,,,,615751428f5b982adf71384e,12:58:32,15/01/2024
,"<p style=""font-size:14rem;font-weight:400;"">3</p>",,fwdspan,number,TX773m5mfwWBoUnMiBqxFQkiPDF3,html-keyboard-response,80,445934,0.0-7.0-2.6-0.6-1.34-0.34,,,,,,,615751428f5b982adf71384e,12:58:32,15/01/2024
,"<p style=""font-size:14rem;font-weight:400;"">4</p>",,fwdspan,number,TX773m5mfwWBoUnMiBqxFQkiPDF3,html-keyboard-response,81,446961,0.0-7.0-2.6-0.6-1.35-0.35,,,,,,,615751428f5b982adf71384e,12:58:32,15/01/2024
,[],,fwdspan,delay,TX773m5mfwWBoUnMiBqxFQkiPDF3,html-keyboard-response,82,447522,0.0-7.0-2.6-0.6-2.6,,,,,,,615751428f5b982adf71384e,12:58:32,15/01/2024
8008.89999999851,"<div class = numbox><p style=""font-size:2.5rem"">What were the numbers <b>in order</b>?<br>(When you are ready to lock in your answer, press <b>ENTER</b>)</p><button id = button_1 class = ""square num-button"" onclick = ""recordClick(this)""><div class = content><div class = numbers>1</div></div></button><button id = button_2 class = ""square num-button"" onclick = ""recordClick(this)""><div class = content><div class = numbers>2</div></div></button><button id = button_3 class = ""square num-button"" onclick = ""recordClick(this)""><div class = content><div class = numbers>3</div></div></button><button id = button_4 class = ""square num-button"" onclick = ""recordClick(this)""><div class = content><div class = numbers>4</div></div></button><button id = button_5 class = ""square num-button"" onclick = ""recordClick(this)""><div class = content><div class = numbers>5</div></div></button><button id = button_6 class = ""square num-button"" onclick = ""recordClick(this)""><div class = content><div class = numbers>6</div></div></button><button id = button_7 class = ""square num-button"" onclick = ""recordClick(this)""><div class = content><div class = numbers>7</div></div></button><button id = button_8 class = ""square num-button"" onclick = ""recordClick(this)""><div class = content><div class = numbers>8</div></div></button><button id = button_9 class = ""square num-button"" onclick = ""recordClick(this)""><div class = content><div class = numbers>9</div></div></button><button class = clear_button id = ""ClearButton"" onclick = ""clearResponse()"">Clear</button><p><u><b>Current Answer:</b></u></p><div id=echoed_txt style=""font-size: 6rem; color:blue;""><b></b></div></div><br><br><br><br><br><br><br>",enter,fwdspan,response,TX773m5mfwWBoUnMiBqxFQkiPDF3,html-keyboard-response,83,455532,0.0-7.0-2.6-0.6-3.6,7.0,"[6,9,5,8,1,3,4]","[6,9,5,8,1,3,4]",1.0,"[3, 4, 5, 5, 6, 6, 7, 8, 8, 7, 7, 6]",,615751428f5b982adf71384e,12:58:32,15/01/2024
,,,fwdspan,update_span,TX773m5mfwWBoUnMiBqxFQkiPDF3,call-function,84,455791,0.0-7.0-2.6-0.6-4.6,,,,,,,615751428f5b982adf71384e,12:58:32,15/01/2024
1336.7999999970198,"<p style=""font-size:3rem"">Trial 8 of 12</p><br><br><br>",0,fwdspan,start_trial,TX773m5mfwWBoUnMiBqxFQkiPDF3,html-button-response,85,457129,0.0-7.0-2.7-0.7-0.7,,,,,,,615751428f5b982adf71384e,12:58:32,15/01/2024
,"<p style=""font-size:14rem;font-weight:400;"">8</p>",,fwdspan,number,TX773m5mfwWBoUnMiBqxFQkiPDF3,html-keyboard-response,86,458144,0.0-7.0-2.7-0.7-1.36-0.36,,,,,,,615751428f5b982adf71384e,12:58:32,15/01/2024
,"<p style=""font-size:14rem;font-weight:400;"">6</p>",,fwdspan,number,TX773m5mfwWBoUnMiBqxFQkiPDF3,html-keyboard-response,87,459172,0.0-7.0-2.7-0.7-1.37-0.37,,,,,,,615751428f5b982adf71384e,12:58:32,15/01/2024
,"<p style=""font-size:14rem;font-weight:400;"">3</p>",,fwdspan,number,TX773m5mfwWBoUnMiBqxFQkiPDF3,html-keyboard-response,88,460193,0.0-7.0-2.7-0.7-1.38-0.38,,,,,,,615751428f5b982adf71384e,12:58:32,15/01/2024
,"<p style=""font-size:14rem;font-weight:400;"">9</p>",,fwdspan,number,TX773m5mfwWBoUnMiBqxFQkiPDF3,html-keyboard-response,89,461218,0.0-7.0-2.7-0.7-1.39-0.39,,,,,,,615751428f5b982adf71384e,12:58:32,15/01/2024
,"<p style=""font-size:14rem;font-weight:400;"">1</p>",,fwdspan,number,TX773m5mfwWBoUnMiBqxFQkiPDF3,html-keyboard-response,90,462245,0.0-7.0-2.7-0.7-1.40-0.40,,,,,,,615751428f5b982adf71384e,12:58:32,15/01/2024
,"<p style=""font-size:14rem;font-weight:400;"">2</p>",,fwdspan,number,TX773m5mfwWBoUnMiBqxFQkiPDF3,html-keyboard-response,91,463272,0.0-7.0-2.7-0.7-1.41-0.41,,,,,,,615751428f5b982adf71384e,12:58:32,15/01/2024
,"<p style=""font-size:14rem;font-weight:400;"">5</p>",,fwdspan,number,TX773m5mfwWBoUnMiBqxFQkiPDF3,html-keyboard-response,92,464302,0.0-7.0-2.7-0.7-1.42-0.42,,,,,,,615751428f5b982adf71384e,12:58:32,15/01/2024
,"<p style=""font-size:14rem;font-weight:400;"">4</p>",,fwdspan,number,TX773m5mfwWBoUnMiBqxFQkiPDF3,html-keyboard-response,93,465306,0.0-7.0-2.7-0.7-1.43-0.43,,,,,,,615751428f5b982adf71384e,12:58:32,15/01/2024
,[],,fwdspan,delay,TX773m5mfwWBoUnMiBqxFQkiPDF3,html-keyboard-response,94,465858,0.0-7.0-2.7-0.7-2.7,,,,,,,615751428f5b982adf71384e,12:58:32,15/01/2024
6177.60000000149,"<div class = numbox><p style=""font-size:2.5rem"">What were the numbers <b>in order</b>?<br>(When you are ready to lock in your answer, press <b>ENTER</b>)</p><button id = button_1 class = ""square num-button"" onclick = ""recordClick(this)""><div class = content><div class = numbers>1</div></div></button><button id = button_2 class = ""square num-button"" onclick = ""recordClick(this)""><div class = content><div class = numbers>2</div></div></button><button id = button_3 class = ""square num-button"" onclick = ""recordClick(this)""><div class = content><div class = numbers>3</div></div></button><button id = button_4 class = ""square num-button"" onclick = ""recordClick(this)""><div class = content><div class = numbers>4</div></div></button><button id = button_5 class = ""square num-button"" onclick = ""recordClick(this)""><div class = content><div class = numbers>5</div></div></button><button id = button_6 class = ""square num-button"" onclick = ""recordClick(this)""><div class = content><div class = numbers>6</div></div></button><button id = button_7 class = ""square num-button"" onclick = ""recordClick(this)""><div class = content><div class = numbers>7</div></div></button><button id = button_8 class = ""square num-button"" onclick = ""recordClick(this)""><div class = content><div class = numbers>8</div></div></button><button id = button_9 class = ""square num-button"" onclick = ""recordClick(this)""><div class = content><div class = numbers>9</div></div></button><button class = clear_button id = ""ClearButton"" onclick = ""clearResponse()"">Clear</button><p><u><b>Current Answer:</b></u></p><div id=echoed_txt style=""font-size: 6rem; color:blue;""><b></b></div></div><br><br><br><br><br><br><br>",enter,fwdspan,response,TX773m5mfwWBoUnMiBqxFQkiPDF3,html-keyboard-response,95,472037,0.0-7.0-2.7-0.7-3.7,8.0,"[8,6,3,9,1,2,6,5]","[8,6,3,9,1,2,5,4]",0.0,"[3, 4, 5, 5, 6, 6, 7, 8, 8, 7, 7, 6]",,615751428f5b982adf71384e,12:58:32,15/01/2024
,,,fwdspan,update_span,TX773m5mfwWBoUnMiBqxFQkiPDF3,call-function,96,472293,0.0-7.0-2.7-0.7-4.7,,,,,,,615751428f5b982adf71384e,12:58:32,15/01/2024
1056.6000000014901,"<p style=""font-size:3rem"">Trial 9 of 12</p><br><br><br>",0,fwdspan,start_trial,TX773m5mfwWBoUnMiBqxFQkiPDF3,html-button-response,97,473351,0.0-7.0-2.8-0.8-0.8,,,,,,,615751428f5b982adf71384e,12:58:32,15/01/2024
,"<p style=""font-size:14rem;font-weight:400;"">2</p>",,fwdspan,number,TX773m5mfwWBoUnMiBqxFQkiPDF3,html-keyboard-response,98,474372,0.0-7.0-2.8-0.8-1.44-0.44,,,,,,,615751428f5b982adf71384e,12:58:32,15/01/2024
,"<p style=""font-size:14rem;font-weight:400;"">3</p>",,fwdspan,number,TX773m5mfwWBoUnMiBqxFQkiPDF3,html-keyboard-response,99,475399,0.0-7.0-2.8-0.8-1.45-0.45,,,,,,,615751428f5b982adf71384e,12:58:32,15/01/2024
,"<p style=""font-size:14rem;font-weight:400;"">7</p>",,fwdspan,number,TX773m5mfwWBoUnMiBqxFQkiPDF3,html-keyboard-response,100,476425,0.0-7.0-2.8-0.8-1.46-0.46,,,,,,,615751428f5b982adf71384e,12:58:32,15/01/2024
,"<p style=""font-size:14rem;font-weight:400;"">5</p>",,fwdspan,number,TX773m5mfwWBoUnMiBqxFQkiPDF3,html-keyboard-response,101,477452,0.0-7.0-2.8-0.8-1.47-0.47,,,,,,,615751428f5b982adf71384e,12:58:32,15/01/2024
,"<p style=""font-size:14rem;font-weight:400;"">6</p>",,fwdspan,number,TX773m5mfwWBoUnMiBqxFQkiPDF3,html-keyboard-response,102,478478,0.0-7.0-2.8-0.8-1.48-0.48,,,,,,,615751428f5b982adf71384e,12:58:32,15/01/2024
,"<p style=""font-size:14rem;font-weight:400;"">9</p>",,fwdspan,number,TX773m5mfwWBoUnMiBqxFQkiPDF3,html-keyboard-response,103,479509,0.0-7.0-2.8-0.8-1.49-0.49,,,,,,,615751428f5b982adf71384e,12:58:32,15/01/2024
,"<p style=""font-size:14rem;font-weight:400;"">4</p>",,fwdspan,number,TX773m5mfwWBoUnMiBqxFQkiPDF3,html-keyboard-response,104,480535,0.0-7.0-2.8-0.8-1.50-0.50,,,,,,,615751428f5b982adf71384e,12:58:32,15/01/2024
,"<p style=""font-size:14rem;font-weight:400;"">8</p>",,fwdspan,number,TX773m5mfwWBoUnMiBqxFQkiPDF3,html-keyboard-response,105,481556,0.0-7.0-2.8-0.8-1.51-0.51,,,,,,,615751428f5b982adf71384e,12:58:32,15/01/2024
,[],,fwdspan,delay,TX773m5mfwWBoUnMiBqxFQkiPDF3,html-keyboard-response,106,482130,0.0-7.0-2.8-0.8-2.8,,,,,,,615751428f5b982adf71384e,12:58:32,15/01/2024
6056.69999999553,"<div class = numbox><p style=""font-size:2.5rem"">What were the numbers <b>in order</b>?<br>(When you are ready to lock in your answer, press <b>ENTER</b>)</p><button id = button_1 class = ""square num-button"" onclick = ""recordClick(this)""><div class = content><div class = numbers>1</div></div></button><button id = button_2 class = ""square num-button"" onclick = ""recordClick(this)""><div class = content><div class = numbers>2</div></div></button><button id = button_3 class = ""square num-button"" onclick = ""recordClick(this)""><div class = content><div class = numbers>3</div></div></button><button id = button_4 class = ""square num-button"" onclick = ""recordClick(this)""><div class = content><div class = numbers>4</div></div></button><button id = button_5 class = ""square num-button"" onclick = ""recordClick(this)""><div class = content><div class = numbers>5</div></div></button><button id = button_6 class = ""square num-button"" onclick = ""recordClick(this)""><div class = content><div class = numbers>6</div></div></button><button id = button_7 class = ""square num-button"" onclick = ""recordClick(this)""><div class = content><div class = numbers>7</div></div></button><button id = button_8 class = ""square num-button"" onclick = ""recordClick(this)""><div class = content><div class = numbers>8</div></div></button><button id = button_9 class = ""square num-button"" onclick = ""recordClick(this)""><div class = content><div class = numbers>9</div></div></button><button class = clear_button id = ""ClearButton"" onclick = ""clearResponse()"">Clear</button><p><u><b>Current Answer:</b></u></p><div id=echoed_txt style=""font-size: 6rem; color:blue;""><b></b></div></div><br><br><br><br><br><br><br>",enter,fwdspan,response,TX773m5mfwWBoUnMiBqxFQkiPDF3,html-keyboard-response,107,488188,0.0-7.0-2.8-0.8-3.8,8.0,"[2,9,6,5,6,1,4,7,8]","[2,3,7,5,6,9,4,8]",0.0,"[3, 4, 5, 5, 6, 6, 7, 8, 8, 7, 7, 6]",,615751428f5b982adf71384e,12:58:32,15/01/2024
,,,fwdspan,update_span,TX773m5mfwWBoUnMiBqxFQkiPDF3,call-function,108,488444,0.0-7.0-2.8-0.8-4.8,,,,,,,615751428f5b982adf71384e,12:58:32,15/01/2024
1100.2000000029802,"<p style=""font-size:3rem"">Trial 10 of 12</p><br><br><br>",0,fwdspan,start_trial,TX773m5mfwWBoUnMiBqxFQkiPDF3,html-button-response,109,489545,0.0-7.0-2.9-0.9-0.9,,,,,,,615751428f5b982adf71384e,12:58:32,15/01/2024
,"<p style=""font-size:14rem;font-weight:400;"">5</p>",,fwdspan,number,TX773m5mfwWBoUnMiBqxFQkiPDF3,html-keyboard-response,110,490557,0.0-7.0-2.9-0.9-1.52-0.52,,,,,,,615751428f5b982adf71384e,12:58:32,15/01/2024
,"<p style=""font-size:14rem;font-weight:400;"">1</p>",,fwdspan,number,TX773m5mfwWBoUnMiBqxFQkiPDF3,html-keyboard-response,111,491582,0.0-7.0-2.9-0.9-1.53-0.53,,,,,,,615751428f5b982adf71384e,12:58:32,15/01/2024
,"<p style=""font-size:14rem;font-weight:400;"">4</p>",,fwdspan,number,TX773m5mfwWBoUnMiBqxFQkiPDF3,html-keyboard-response,112,492610,0.0-7.0-2.9-0.9-1.54-0.54,,,,,,,615751428f5b982adf71384e,12:58:32,15/01/2024
,"<p style=""font-size:14rem;font-weight:400;"">6</p>",,fwdspan,number,TX773m5mfwWBoUnMiBqxFQkiPDF3,html-keyboard-response,113,493624,0.0-7.0-2.9-0.9-1.55-0.55,,,,,,,615751428f5b982adf71384e,12:58:32,15/01/2024
,"<p style=""font-size:14rem;font-weight:400;"">2</p>",,fwdspan,number,TX773m5mfwWBoUnMiBqxFQkiPDF3,html-keyboard-response,114,494650,0.0-7.0-2.9-0.9-1.56-0.56,,,,,,,615751428f5b982adf71384e,12:58:32,15/01/2024
,"<p style=""font-size:14rem;font-weight:400;"">3</p>",,fwdspan,number,TX773m5mfwWBoUnMiBqxFQkiPDF3,html-keyboard-response,115,495676,0.0-7.0-2.9-0.9-1.57-0.57,,,,,,,615751428f5b982adf71384e,12:58:32,15/01/2024
,"<p style=""font-size:14rem;font-weight:400;"">8</p>",,fwdspan,number,TX773m5mfwWBoUnMiBqxFQkiPDF3,html-keyboard-response,116,496700,0.0-7.0-2.9-0.9-1.58-0.58,,,,,,,615751428f5b982adf71384e,12:58:32,15/01/2024
,[],,fwdspan,delay,TX773m5mfwWBoUnMiBqxFQkiPDF3,html-keyboard-response,117,497274,0.0-7.0-2.9-0.9-2.9,,,,,,,615751428f5b982adf71384e,12:58:32,15/01/2024
10352.89999999851,"<div class = numbox><p style=""font-size:2.5rem"">What were the numbers <b>in order</b>?<br>(When you are ready to lock in your answer, press <b>ENTER</b>)</p><button id = button_1 class = ""square num-button"" onclick = ""recordClick(this)""><div class = content><div class = numbers>1</div></div></button><button id = button_2 class = ""square num-button"" onclick = ""recordClick(this)""><div class = content><div class = numbers>2</div></div></button><button id = button_3 class = ""square num-button"" onclick = ""recordClick(this)""><div class = content><div class = numbers>3</div></div></button><button id = button_4 class = ""square num-button"" onclick = ""recordClick(this)""><div class = content><div class = numbers>4</div></div></button><button id = button_5 class = ""square num-button"" onclick = ""recordClick(this)""><div class = content><div class = numbers>5</div></div></button><button id = button_6 class = ""square num-button"" onclick = ""recordClick(this)""><div class = content><div class = numbers>6</div></div></button><button id = button_7 class = ""square num-button"" onclick = ""recordClick(this)""><div class = content><div class = numbers>7</div></div></button><button id = button_8 class = ""square num-button"" onclick = ""recordClick(this)""><div class = content><div class = numbers>8</div></div></button><button id = button_9 class = ""square num-button"" onclick = ""recordClick(this)""><div class = content><div class = numbers>9</div></div></button><button class = clear_button id = ""ClearButton"" onclick = ""clearResponse()"">Clear</button><p><u><b>Current Answer:</b></u></p><div id=echoed_txt style=""font-size: 6rem; color:blue;""><b></b></div></div><br><br><br><br><br><br><br>",enter,fwdspan,response,TX773m5mfwWBoUnMiBqxFQkiPDF3,html-keyboard-response,118,507628,0.0-7.0-2.9-0.9-3.9,7.0,"[5,1,4,6,9,3,2,8]","[5,1,4,6,2,3,8]",0.0,"[3, 4, 5, 5, 6, 6, 7, 8, 8, 7, 7, 6]",,615751428f5b982adf71384e,12:58:32,15/01/2024
,,,fwdspan,update_span,TX773m5mfwWBoUnMiBqxFQkiPDF3,call-function,119,507893,0.0-7.0-2.9-0.9-4.9,,,,,,,615751428f5b982adf71384e,12:58:32,15/01/2024
1127.8000000044703,"<p style=""font-size:3rem"">Trial 11 of 12</p><br><br><br>",0,fwdspan,start_trial,TX773m5mfwWBoUnMiBqxFQkiPDF3,html-button-response,120,509022,0.0-7.0-2.10-0.10-0.10,,,,,,,615751428f5b982adf71384e,12:58:32,15/01/2024
,"<p style=""font-size:14rem;font-weight:400;"">7</p>",,fwdspan,number,TX773m5mfwWBoUnMiBqxFQkiPDF3,html-keyboard-response,121,510032,0.0-7.0-2.10-0.10-1.59-0.59,,,,,,,615751428f5b982adf71384e,12:58:32,15/01/2024
,"<p style=""font-size:14rem;font-weight:400;"">1</p>",,fwdspan,number,TX773m5mfwWBoUnMiBqxFQkiPDF3,html-keyboard-response,122,511054,0.0-7.0-2.10-0.10-1.60-0.60,,,,,,,615751428f5b982adf71384e,12:58:32,15/01/2024
,"<p style=""font-size:14rem;font-weight:400;"">2</p>",,fwdspan,number,TX773m5mfwWBoUnMiBqxFQkiPDF3,html-keyboard-response,123,512083,0.0-7.0-2.10-0.10-1.61-0.61,,,,,,,615751428f5b982adf71384e,12:58:32,15/01/2024
,"<p style=""font-size:14rem;font-weight:400;"">6</p>",,fwdspan,number,TX773m5mfwWBoUnMiBqxFQkiPDF3,html-keyboard-response,124,513113,0.0-7.0-2.10-0.10-1.62-0.62,,,,,,,615751428f5b982adf71384e,12:58:32,15/01/2024
,"<p style=""font-size:14rem;font-weight:400;"">9</p>",,fwdspan,number,TX773m5mfwWBoUnMiBqxFQkiPDF3,html-keyboard-response,125,514140,0.0-7.0-2.10-0.10-1.63-0.63,,,,,,,615751428f5b982adf71384e,12:58:32,15/01/2024
,"<p style=""font-size:14rem;font-weight:400;"">8</p>",,fwdspan,number,TX773m5mfwWBoUnMiBqxFQkiPDF3,html-keyboard-response,126,515167,0.0-7.0-2.10-0.10-1.64-0.64,,,,,,,615751428f5b982adf71384e,12:58:32,15/01/2024
,"<p style=""font-size:14rem;font-weight:400;"">3</p>",,fwdspan,number,TX773m5mfwWBoUnMiBqxFQkiPDF3,html-keyboard-response,127,516191,0.0-7.0-2.10-0.10-1.65-0.65,,,,,,,615751428f5b982adf71384e,12:58:32,15/01/2024
,[],,fwdspan,delay,TX773m5mfwWBoUnMiBqxFQkiPDF3,html-keyboard-response,128,516752,0.0-7.0-2.10-0.10-2.10,,,,,,,615751428f5b982adf71384e,12:58:32,15/01/2024
11195.60000000149,"<div class = numbox><p style=""font-size:2.5rem"">What were the numbers <b>in order</b>?<br>(When you are ready to lock in your answer, press <b>ENTER</b>)</p><button id = button_1 class = ""square num-button"" onclick = ""recordClick(this)""><div class = content><div class = numbers>1</div></div></button><button id = button_2 class = ""square num-button"" onclick = ""recordClick(this)""><div class = content><div class = numbers>2</div></div></button><button id = button_3 class = ""square num-button"" onclick = ""recordClick(this)""><div class = content><div class = numbers>3</div></div></button><button id = button_4 class = ""square num-button"" onclick = ""recordClick(this)""><div class = content><div class = numbers>4</div></div></button><button id = button_5 class = ""square num-button"" onclick = ""recordClick(this)""><div class = content><div class = numbers>5</div></div></button><button id = button_6 class = ""square num-button"" onclick = ""recordClick(this)""><div class = content><div class = numbers>6</div></div></button><button id = button_7 class = ""square num-button"" onclick = ""recordClick(this)""><div class = content><div class = numbers>7</div></div></button><button id = button_8 class = ""square num-button"" onclick = ""recordClick(this)""><div class = content><div class = numbers>8</div></div></button><button id = button_9 class = ""square num-button"" onclick = ""recordClick(this)""><div class = content><div class = numbers>9</div></div></button><button class = clear_button id = ""ClearButton"" onclick = ""clearResponse()"">Clear</button><p><u><b>Current Answer:</b></u></p><div id=echoed_txt style=""font-size: 6rem; color:blue;""><b></b></div></div><br><br><br><br><br><br><br>",enter,fwdspan,response,TX773m5mfwWBoUnMiBqxFQkiPDF3,html-keyboard-response,129,527948,0.0-7.0-2.10-0.10-3.10,7.0,"[7,9,2,6,1,3,8]","[7,1,2,6,9,8,3]",0.0,"[3, 4, 5, 5, 6, 6, 7, 8, 8, 7, 7, 6]",,615751428f5b982adf71384e,12:58:32,15/01/2024
,,,fwdspan,update_span,TX773m5mfwWBoUnMiBqxFQkiPDF3,call-function,130,528207,0.0-7.0-2.10-0.10-4.10,,,,,,,615751428f5b982adf71384e,12:58:32,15/01/2024
1303.7999999970198,"<p style=""font-size:3rem"">Trial 12 of 12</p><br><br><br>",0,fwdspan,start_trial,TX773m5mfwWBoUnMiBqxFQkiPDF3,html-button-response,131,529511,0.0-7.0-2.11-0.11-0.11,,,,,,,615751428f5b982adf71384e,12:58:32,15/01/2024
,"<p style=""font-size:14rem;font-weight:400;"">7</p>",,fwdspan,number,TX773m5mfwWBoUnMiBqxFQkiPDF3,html-keyboard-response,132,530513,0.0-7.0-2.11-0.11-1.66-0.66,,,,,,,615751428f5b982adf71384e,12:58:32,15/01/2024
,"<p style=""font-size:14rem;font-weight:400;"">6</p>",,fwdspan,number,TX773m5mfwWBoUnMiBqxFQkiPDF3,html-keyboard-response,133,531518,0.0-7.0-2.11-0.11-1.67-0.67,,,,,,,615751428f5b982adf71384e,12:58:32,15/01/2024
,"<p style=""font-size:14rem;font-weight:400;"">8</p>",,fwdspan,number,TX773m5mfwWBoUnMiBqxFQkiPDF3,html-keyboard-response,134,532540,0.0-7.0-2.11-0.11-1.68-0.68,,,,,,,615751428f5b982adf71384e,12:58:32,15/01/2024
,"<p style=""font-size:14rem;font-weight:400;"">4</p>",,fwdspan,number,TX773m5mfwWBoUnMiBqxFQkiPDF3,html-keyboard-response,135,533557,0.0-7.0-2.11-0.11-1.69-0.69,,,,,,,615751428f5b982adf71384e,12:58:32,15/01/2024
,"<p style=""font-size:14rem;font-weight:400;"">3</p>",,fwdspan,number,TX773m5mfwWBoUnMiBqxFQkiPDF3,html-keyboard-response,136,534583,0.0-7.0-2.11-0.11-1.70-0.70,,,,,,,615751428f5b982adf71384e,12:58:32,15/01/2024
,"<p style=""font-size:14rem;font-weight:400;"">2</p>",,fwdspan,number,TX773m5mfwWBoUnMiBqxFQkiPDF3,html-keyboard-response,137,535609,0.0-7.0-2.11-0.11-1.71-0.71,,,,,,,615751428f5b982adf71384e,12:58:32,15/01/2024
,[],,fwdspan,delay,TX773m5mfwWBoUnMiBqxFQkiPDF3,html-keyboard-response,138,536186,0.0-7.0-2.11-0.11-2.11,,,,,,,615751428f5b982adf71384e,12:58:32,15/01/2024
3712.60000000149,"<div class = numbox><p style=""font-size:2.5rem"">What were the numbers <b>in order</b>?<br>(When you are ready to lock in your answer, press <b>ENTER</b>)</p><button id = button_1 class = ""square num-button"" onclick = ""recordClick(this)""><div class = content><div class = numbers>1</div></div></button><button id = button_2 class = ""square num-button"" onclick = ""recordClick(this)""><div class = content><div class = numbers>2</div></div></button><button id = button_3 class = ""square num-button"" onclick = ""recordClick(this)""><div class = content><div class = numbers>3</div></div></button><button id = button_4 class = ""square num-button"" onclick = ""recordClick(this)""><div class = content><div class = numbers>4</div></div></button><button id = button_5 class = ""square num-button"" onclick = ""recordClick(this)""><div class = content><div class = numbers>5</div></div></button><button id = button_6 class = ""square num-button"" onclick = ""recordClick(this)""><div class = content><div class = numbers>6</div></div></button><button id = button_7 class = ""square num-button"" onclick = ""recordClick(this)""><div class = content><div class = numbers>7</div></div></button><button id = button_8 class = ""square num-button"" onclick = ""recordClick(this)""><div class = content><div class = numbers>8</div></div></button><button id = button_9 class = ""square num-button"" onclick = ""recordClick(this)""><div class = content><div class = numbers>9</div></div></button><button class = clear_button id = ""ClearButton"" onclick = ""clearResponse()"">Clear</button><p><u><b>Current Answer:</b></u></p><div id=echoed_txt style=""font-size: 6rem; color:blue;""><b></b></div></div><br><br><br><br><br><br><br>",enter,fwdspan,response,TX773m5mfwWBoUnMiBqxFQkiPDF3,html-keyboard-response,139,539900,0.0-7.0-2.11-0.11-3.11,6.0,"[7,6,8,4,3,2]","[7,6,8,4,3,2]",1.0,"[3, 4, 5, 5, 6, 6, 7, 8, 8, 7, 7, 6]",,615751428f5b982adf71384e,12:58:32,15/01/2024
,,,fwdspan,update_span,TX773m5mfwWBoUnMiBqxFQkiPDF3,call-function,140,540163,0.0-7.0-2.11-0.11-4.11,,,,,,,615751428f5b982adf71384e,12:58:32,15/01/2024
27508.10000000149,,"{'Q0': 'Nothing was unclear, the task was good.'}",fwdspan,survey,TX773m5mfwWBoUnMiBqxFQkiPDF3,lmdlab-survey-text,141,568431,0.0-7.0-3.0,,,,,,TX773m5mfwWBoUnMiBqxFQkiPDF3,615751428f5b982adf71384e,12:58:32,15/01/2024
1052.1000000014901,<p><p style='font-size: 3rem'>Great work!<br><br>This completes the digit span task.</p><br><br><br>,0,fwdspan,finish,TX773m5mfwWBoUnMiBqxFQkiPDF3,html-button-response,142,569487,0.0-7.0-4.0,,,,,,,615751428f5b982adf71384e,12:58:32,15/01/2024
