rt,stimulus,response,exp_name,exp_stage,subjectID,trial_type,trial_index,time_elapsed,internal_node_id,span,answer,correct,correct_full,span_history,databaseID,prolificID,start_time,date
7759.0,"<p style=""font-size:4rem""><br><br>In the next part today, we have a completely different short task.<br><br><br>This part involves keeping numbers in you mind. Participation takes around 5 minutes.<br><br><br></p>",0,fwdspan,instruct,sjAannmt3JPZXAGVAotLBUUqIty2,html-button-response,19,395646,0.0-7.0-0.0,,,,,,,651c10cdf893ceabafc002da,11:25:32 AM,1/15/2024
19598.0,"<p style=""font-size:5rem"">Welcome to the <b>digit span task</b>!<br><br></p><p style=""font-size:3.4rem""><br>On each trial, you will see a sequence of digits, followed by a delay.</p><p style=""font-size:3.4rem""><br>Then you will be asked to type them back in the same order in which they were seen.</p><p style=""font-size:3.4rem""><br><br><br>For example, if you saw the digits <b style=""color:blue;"">1</b>, <b style=""color:blue;"">2</b>, <b style=""color:blue;"">3</b>, you would respond with <b style=""color:blue;"">1</b>, <b style=""color:blue;"">2</b>, <b style=""color:blue;"">3</b></p><p style=""font-size:3.4rem""><br><br><br>To ensure the best measure of true performance for our study,<br><br>it is very important that you do not use any memory aid (e.g., pen and paper).<br><br>Please do the task solely in your head.</p><p style=""font-size:3.4rem""><br><br><br>There will be 12 total trials. Participation takes around 5 minutes.</p><br><br><br>",0,fwdspan,instruct,sjAannmt3JPZXAGVAotLBUUqIty2,html-button-response,20,415246,0.0-7.0-1.0,,,,,,,651c10cdf893ceabafc002da,11:25:32 AM,1/15/2024
1614.0,"<p style=""font-size:3rem"">Trial 1 of 12</p><br><br><br>",0,fwdspan,start_trial,sjAannmt3JPZXAGVAotLBUUqIty2,html-button-response,21,416863,0.0-7.0-2.0-0.0-0.0,,,,,,,651c10cdf893ceabafc002da,11:25:32 AM,1/15/2024
,"<p style=""font-size:14rem;font-weight:400;"">9</p>",,fwdspan,number,sjAannmt3JPZXAGVAotLBUUqIty2,html-keyboard-response,22,417880,0.0-7.0-2.0-0.0-1.0-0.0,,,,,,,651c10cdf893ceabafc002da,11:25:32 AM,1/15/2024
,"<p style=""font-size:14rem;font-weight:400;"">5</p>",,fwdspan,number,sjAannmt3JPZXAGVAotLBUUqIty2,html-keyboard-response,23,418894,0.0-7.0-2.0-0.0-1.1-0.1,,,,,,,651c10cdf893ceabafc002da,11:25:32 AM,1/15/2024
,"<p style=""font-size:14rem;font-weight:400;"">4</p>",,fwdspan,number,sjAannmt3JPZXAGVAotLBUUqIty2,html-keyboard-response,24,419911,0.0-7.0-2.0-0.0-1.2-0.2,,,,,,,651c10cdf893ceabafc002da,11:25:32 AM,1/15/2024
,[],,fwdspan,delay,sjAannmt3JPZXAGVAotLBUUqIty2,html-keyboard-response,25,420479,0.0-7.0-2.0-0.0-2.0,,,,,,,651c10cdf893ceabafc002da,11:25:32 AM,1/15/2024
5401.0,"<div class = numbox><p style=""font-size:2.5rem"">What were the numbers <b>in order</b>?<br>(When you are ready to lock in your answer, press <b>ENTER</b>)</p><button id = button_1 class = ""square num-button"" onclick = ""recordClick(this)""><div class = content><div class = numbers>1</div></div></button><button id = button_2 class = ""square num-button"" onclick = ""recordClick(this)""><div class = content><div class = numbers>2</div></div></button><button id = button_3 class = ""square num-button"" onclick = ""recordClick(this)""><div class = content><div class = numbers>3</div></div></button><button id = button_4 class = ""square num-button"" onclick = ""recordClick(this)""><div class = content><div class = numbers>4</div></div></button><button id = button_5 class = ""square num-button"" onclick = ""recordClick(this)""><div class = content><div class = numbers>5</div></div></button><button id = button_6 class = ""square num-button"" onclick = ""recordClick(this)""><div class = content><div class = numbers>6</div></div></button><button id = button_7 class = ""square num-button"" onclick = ""recordClick(this)""><div class = content><div class = numbers>7</div></div></button><button id = button_8 class = ""square num-button"" onclick = ""recordClick(this)""><div class = content><div class = numbers>8</div></div></button><button id = button_9 class = ""square num-button"" onclick = ""recordClick(this)""><div class = content><div class = numbers>9</div></div></button><button class = clear_button id = ""ClearButton"" onclick = ""clearResponse()"">Clear</button><p><u><b>Current Answer:</b></u></p><div id=echoed_txt style=""font-size: 6rem; color:blue;""><b></b></div></div><br><br><br><br><br><br><br>",enter,fwdspan,response,sjAannmt3JPZXAGVAotLBUUqIty2,html-keyboard-response,26,425881,0.0-7.0-2.0-0.0-3.0,3.0,"[9,5,4]","[9,5,4]",1.0,"[3, 4, 5, 6, 7, 8, 8, 7, 7, 8, 8, 7]",,651c10cdf893ceabafc002da,11:25:32 AM,1/15/2024
,,,fwdspan,update_span,sjAannmt3JPZXAGVAotLBUUqIty2,call-function,27,426137,0.0-7.0-2.0-0.0-4.0,,,,,,,651c10cdf893ceabafc002da,11:25:32 AM,1/15/2024
3406.0,"<p style=""font-size:3rem"">Trial 2 of 12</p><br><br><br>",0,fwdspan,start_trial,sjAannmt3JPZXAGVAotLBUUqIty2,html-button-response,28,429542,0.0-7.0-2.1-0.1-0.1,,,,,,,651c10cdf893ceabafc002da,11:25:32 AM,1/15/2024
,"<p style=""font-size:14rem;font-weight:400;"">5</p>",,fwdspan,number,sjAannmt3JPZXAGVAotLBUUqIty2,html-keyboard-response,29,430565,0.0-7.0-2.1-0.1-1.3-0.3,,,,,,,651c10cdf893ceabafc002da,11:25:32 AM,1/15/2024
,"<p style=""font-size:14rem;font-weight:400;"">1</p>",,fwdspan,number,sjAannmt3JPZXAGVAotLBUUqIty2,html-keyboard-response,30,431601,0.0-7.0-2.1-0.1-1.4-0.4,,,,,,,651c10cdf893ceabafc002da,11:25:32 AM,1/15/2024
,"<p style=""font-size:14rem;font-weight:400;"">7</p>",,fwdspan,number,sjAannmt3JPZXAGVAotLBUUqIty2,html-keyboard-response,31,432610,0.0-7.0-2.1-0.1-1.5-0.5,,,,,,,651c10cdf893ceabafc002da,11:25:32 AM,1/15/2024
,"<p style=""font-size:14rem;font-weight:400;"">6</p>",,fwdspan,number,sjAannmt3JPZXAGVAotLBUUqIty2,html-keyboard-response,32,433636,0.0-7.0-2.1-0.1-1.6-0.6,,,,,,,651c10cdf893ceabafc002da,11:25:32 AM,1/15/2024
,[],,fwdspan,delay,sjAannmt3JPZXAGVAotLBUUqIty2,html-keyboard-response,33,434210,0.0-7.0-2.1-0.1-2.1,,,,,,,651c10cdf893ceabafc002da,11:25:32 AM,1/15/2024
4473.0,"<div class = numbox><p style=""font-size:2.5rem"">What were the numbers <b>in order</b>?<br>(When you are ready to lock in your answer, press <b>ENTER</b>)</p><button id = button_1 class = ""square num-button"" onclick = ""recordClick(this)""><div class = content><div class = numbers>1</div></div></button><button id = button_2 class = ""square num-button"" onclick = ""recordClick(this)""><div class = content><div class = numbers>2</div></div></button><button id = button_3 class = ""square num-button"" onclick = ""recordClick(this)""><div class = content><div class = numbers>3</div></div></button><button id = button_4 class = ""square num-button"" onclick = ""recordClick(this)""><div class = content><div class = numbers>4</div></div></button><button id = button_5 class = ""square num-button"" onclick = ""recordClick(this)""><div class = content><div class = numbers>5</div></div></button><button id = button_6 class = ""square num-button"" onclick = ""recordClick(this)""><div class = content><div class = numbers>6</div></div></button><button id = button_7 class = ""square num-button"" onclick = ""recordClick(this)""><div class = content><div class = numbers>7</div></div></button><button id = button_8 class = ""square num-button"" onclick = ""recordClick(this)""><div class = content><div class = numbers>8</div></div></button><button id = button_9 class = ""square num-button"" onclick = ""recordClick(this)""><div class = content><div class = numbers>9</div></div></button><button class = clear_button id = ""ClearButton"" onclick = ""clearResponse()"">Clear</button><p><u><b>Current Answer:</b></u></p><div id=echoed_txt style=""font-size: 6rem; color:blue;""><b></b></div></div><br><br><br><br><br><br><br>",enter,fwdspan,response,sjAannmt3JPZXAGVAotLBUUqIty2,html-keyboard-response,34,438683,0.0-7.0-2.1-0.1-3.1,4.0,"[5,1,7,6]","[5,1,7,6]",1.0,"[3, 4, 5, 6, 7, 8, 8, 7, 7, 8, 8, 7]",,651c10cdf893ceabafc002da,11:25:32 AM,1/15/2024
,,,fwdspan,update_span,sjAannmt3JPZXAGVAotLBUUqIty2,call-function,35,438937,0.0-7.0-2.1-0.1-4.1,,,,,,,651c10cdf893ceabafc002da,11:25:32 AM,1/15/2024
12461.0,"<p style=""font-size:3rem"">Trial 3 of 12</p><br><br><br>",0,fwdspan,start_trial,sjAannmt3JPZXAGVAotLBUUqIty2,html-button-response,36,451399,0.0-7.0-2.2-0.2-0.2,,,,,,,651c10cdf893ceabafc002da,11:25:32 AM,1/15/2024
,"<p style=""font-size:14rem;font-weight:400;"">1</p>",,fwdspan,number,sjAannmt3JPZXAGVAotLBUUqIty2,html-keyboard-response,37,452412,0.0-7.0-2.2-0.2-1.7-0.7,,,,,,,651c10cdf893ceabafc002da,11:25:32 AM,1/15/2024
,"<p style=""font-size:14rem;font-weight:400;"">7</p>",,fwdspan,number,sjAannmt3JPZXAGVAotLBUUqIty2,html-keyboard-response,38,453433,0.0-7.0-2.2-0.2-1.8-0.8,,,,,,,651c10cdf893ceabafc002da,11:25:32 AM,1/15/2024
,"<p style=""font-size:14rem;font-weight:400;"">2</p>",,fwdspan,number,sjAannmt3JPZXAGVAotLBUUqIty2,html-keyboard-response,39,454454,0.0-7.0-2.2-0.2-1.9-0.9,,,,,,,651c10cdf893ceabafc002da,11:25:32 AM,1/15/2024
,"<p style=""font-size:14rem;font-weight:400;"">3</p>",,fwdspan,number,sjAannmt3JPZXAGVAotLBUUqIty2,html-keyboard-response,40,455489,0.0-7.0-2.2-0.2-1.10-0.10,,,,,,,651c10cdf893ceabafc002da,11:25:32 AM,1/15/2024
,"<p style=""font-size:14rem;font-weight:400;"">4</p>",,fwdspan,number,sjAannmt3JPZXAGVAotLBUUqIty2,html-keyboard-response,41,456510,0.0-7.0-2.2-0.2-1.11-0.11,,,,,,,651c10cdf893ceabafc002da,11:25:32 AM,1/15/2024
,[],,fwdspan,delay,sjAannmt3JPZXAGVAotLBUUqIty2,html-keyboard-response,42,457085,0.0-7.0-2.2-0.2-2.2,,,,,,,651c10cdf893ceabafc002da,11:25:32 AM,1/15/2024
3376.0,"<div class = numbox><p style=""font-size:2.5rem"">What were the numbers <b>in order</b>?<br>(When you are ready to lock in your answer, press <b>ENTER</b>)</p><button id = button_1 class = ""square num-button"" onclick = ""recordClick(this)""><div class = content><div class = numbers>1</div></div></button><button id = button_2 class = ""square num-button"" onclick = ""recordClick(this)""><div class = content><div class = numbers>2</div></div></button><button id = button_3 class = ""square num-button"" onclick = ""recordClick(this)""><div class = content><div class = numbers>3</div></div></button><button id = button_4 class = ""square num-button"" onclick = ""recordClick(this)""><div class = content><div class = numbers>4</div></div></button><button id = button_5 class = ""square num-button"" onclick = ""recordClick(this)""><div class = content><div class = numbers>5</div></div></button><button id = button_6 class = ""square num-button"" onclick = ""recordClick(this)""><div class = content><div class = numbers>6</div></div></button><button id = button_7 class = ""square num-button"" onclick = ""recordClick(this)""><div class = content><div class = numbers>7</div></div></button><button id = button_8 class = ""square num-button"" onclick = ""recordClick(this)""><div class = content><div class = numbers>8</div></div></button><button id = button_9 class = ""square num-button"" onclick = ""recordClick(this)""><div class = content><div class = numbers>9</div></div></button><button class = clear_button id = ""ClearButton"" onclick = ""clearResponse()"">Clear</button><p><u><b>Current Answer:</b></u></p><div id=echoed_txt style=""font-size: 6rem; color:blue;""><b></b></div></div><br><br><br><br><br><br><br>",enter,fwdspan,response,sjAannmt3JPZXAGVAotLBUUqIty2,html-keyboard-response,43,460461,0.0-7.0-2.2-0.2-3.2,5.0,"[1,7,2,3,4]","[1,7,2,3,4]",1.0,"[3, 4, 5, 6, 7, 8, 8, 7, 7, 8, 8, 7]",,651c10cdf893ceabafc002da,11:25:32 AM,1/15/2024
,,,fwdspan,update_span,sjAannmt3JPZXAGVAotLBUUqIty2,call-function,44,460719,0.0-7.0-2.2-0.2-4.2,,,,,,,651c10cdf893ceabafc002da,11:25:32 AM,1/15/2024
2287.0,"<p style=""font-size:3rem"">Trial 4 of 12</p><br><br><br>",0,fwdspan,start_trial,sjAannmt3JPZXAGVAotLBUUqIty2,html-button-response,45,463007,0.0-7.0-2.3-0.3-0.3,,,,,,,651c10cdf893ceabafc002da,11:25:32 AM,1/15/2024
,"<p style=""font-size:14rem;font-weight:400;"">7</p>",,fwdspan,number,sjAannmt3JPZXAGVAotLBUUqIty2,html-keyboard-response,46,464012,0.0-7.0-2.3-0.3-1.12-0.12,,,,,,,651c10cdf893ceabafc002da,11:25:32 AM,1/15/2024
,"<p style=""font-size:14rem;font-weight:400;"">2</p>",,fwdspan,number,sjAannmt3JPZXAGVAotLBUUqIty2,html-keyboard-response,47,465028,0.0-7.0-2.3-0.3-1.13-0.13,,,,,,,651c10cdf893ceabafc002da,11:25:32 AM,1/15/2024
,"<p style=""font-size:14rem;font-weight:400;"">4</p>",,fwdspan,number,sjAannmt3JPZXAGVAotLBUUqIty2,html-keyboard-response,48,466048,0.0-7.0-2.3-0.3-1.14-0.14,,,,,,,651c10cdf893ceabafc002da,11:25:32 AM,1/15/2024
,"<p style=""font-size:14rem;font-weight:400;"">3</p>",,fwdspan,number,sjAannmt3JPZXAGVAotLBUUqIty2,html-keyboard-response,49,467069,0.0-7.0-2.3-0.3-1.15-0.15,,,,,,,651c10cdf893ceabafc002da,11:25:32 AM,1/15/2024
,"<p style=""font-size:14rem;font-weight:400;"">8</p>",,fwdspan,number,sjAannmt3JPZXAGVAotLBUUqIty2,html-keyboard-response,50,468089,0.0-7.0-2.3-0.3-1.16-0.16,,,,,,,651c10cdf893ceabafc002da,11:25:32 AM,1/15/2024
,"<p style=""font-size:14rem;font-weight:400;"">9</p>",,fwdspan,number,sjAannmt3JPZXAGVAotLBUUqIty2,html-keyboard-response,51,469115,0.0-7.0-2.3-0.3-1.17-0.17,,,,,,,651c10cdf893ceabafc002da,11:25:32 AM,1/15/2024
,[],,fwdspan,delay,sjAannmt3JPZXAGVAotLBUUqIty2,html-keyboard-response,52,469724,0.0-7.0-2.3-0.3-2.3,,,,,,,651c10cdf893ceabafc002da,11:25:32 AM,1/15/2024
4083.0,"<div class = numbox><p style=""font-size:2.5rem"">What were the numbers <b>in order</b>?<br>(When you are ready to lock in your answer, press <b>ENTER</b>)</p><button id = button_1 class = ""square num-button"" onclick = ""recordClick(this)""><div class = content><div class = numbers>1</div></div></button><button id = button_2 class = ""square num-button"" onclick = ""recordClick(this)""><div class = content><div class = numbers>2</div></div></button><button id = button_3 class = ""square num-button"" onclick = ""recordClick(this)""><div class = content><div class = numbers>3</div></div></button><button id = button_4 class = ""square num-button"" onclick = ""recordClick(this)""><div class = content><div class = numbers>4</div></div></button><button id = button_5 class = ""square num-button"" onclick = ""recordClick(this)""><div class = content><div class = numbers>5</div></div></button><button id = button_6 class = ""square num-button"" onclick = ""recordClick(this)""><div class = content><div class = numbers>6</div></div></button><button id = button_7 class = ""square num-button"" onclick = ""recordClick(this)""><div class = content><div class = numbers>7</div></div></button><button id = button_8 class = ""square num-button"" onclick = ""recordClick(this)""><div class = content><div class = numbers>8</div></div></button><button id = button_9 class = ""square num-button"" onclick = ""recordClick(this)""><div class = content><div class = numbers>9</div></div></button><button class = clear_button id = ""ClearButton"" onclick = ""clearResponse()"">Clear</button><p><u><b>Current Answer:</b></u></p><div id=echoed_txt style=""font-size: 6rem; color:blue;""><b></b></div></div><br><br><br><br><br><br><br>",enter,fwdspan,response,sjAannmt3JPZXAGVAotLBUUqIty2,html-keyboard-response,53,473808,0.0-7.0-2.3-0.3-3.3,6.0,"[7,2,4,3,8,9]","[7,2,4,3,8,9]",1.0,"[3, 4, 5, 6, 7, 8, 8, 7, 7, 8, 8, 7]",,651c10cdf893ceabafc002da,11:25:32 AM,1/15/2024
,,,fwdspan,update_span,sjAannmt3JPZXAGVAotLBUUqIty2,call-function,54,474066,0.0-7.0-2.3-0.3-4.3,,,,,,,651c10cdf893ceabafc002da,11:25:32 AM,1/15/2024
1093.0,"<p style=""font-size:3rem"">Trial 5 of 12</p><br><br><br>",0,fwdspan,start_trial,sjAannmt3JPZXAGVAotLBUUqIty2,html-button-response,55,475159,0.0-7.0-2.4-0.4-0.4,,,,,,,651c10cdf893ceabafc002da,11:25:32 AM,1/15/2024
,"<p style=""font-size:14rem;font-weight:400;"">6</p>",,fwdspan,number,sjAannmt3JPZXAGVAotLBUUqIty2,html-keyboard-response,56,476184,0.0-7.0-2.4-0.4-1.18-0.18,,,,,,,651c10cdf893ceabafc002da,11:25:32 AM,1/15/2024
,"<p style=""font-size:14rem;font-weight:400;"">7</p>",,fwdspan,number,sjAannmt3JPZXAGVAotLBUUqIty2,html-keyboard-response,57,477206,0.0-7.0-2.4-0.4-1.19-0.19,,,,,,,651c10cdf893ceabafc002da,11:25:32 AM,1/15/2024
,"<p style=""font-size:14rem;font-weight:400;"">4</p>",,fwdspan,number,sjAannmt3JPZXAGVAotLBUUqIty2,html-keyboard-response,58,478230,0.0-7.0-2.4-0.4-1.20-0.20,,,,,,,651c10cdf893ceabafc002da,11:25:32 AM,1/15/2024
,"<p style=""font-size:14rem;font-weight:400;"">8</p>",,fwdspan,number,sjAannmt3JPZXAGVAotLBUUqIty2,html-keyboard-response,59,479243,0.0-7.0-2.4-0.4-1.21-0.21,,,,,,,651c10cdf893ceabafc002da,11:25:32 AM,1/15/2024
,"<p style=""font-size:14rem;font-weight:400;"">3</p>",,fwdspan,number,sjAannmt3JPZXAGVAotLBUUqIty2,html-keyboard-response,60,480305,0.0-7.0-2.4-0.4-1.22-0.22,,,,,,,651c10cdf893ceabafc002da,11:25:32 AM,1/15/2024
,"<p style=""font-size:14rem;font-weight:400;"">2</p>",,fwdspan,number,sjAannmt3JPZXAGVAotLBUUqIty2,html-keyboard-response,61,481332,0.0-7.0-2.4-0.4-1.23-0.23,,,,,,,651c10cdf893ceabafc002da,11:25:32 AM,1/15/2024
,"<p style=""font-size:14rem;font-weight:400;"">9</p>",,fwdspan,number,sjAannmt3JPZXAGVAotLBUUqIty2,html-keyboard-response,62,482342,0.0-7.0-2.4-0.4-1.24-0.24,,,,,,,651c10cdf893ceabafc002da,11:25:32 AM,1/15/2024
,[],,fwdspan,delay,sjAannmt3JPZXAGVAotLBUUqIty2,html-keyboard-response,63,482912,0.0-7.0-2.4-0.4-2.4,,,,,,,651c10cdf893ceabafc002da,11:25:32 AM,1/15/2024
5551.0,"<div class = numbox><p style=""font-size:2.5rem"">What were the numbers <b>in order</b>?<br>(When you are ready to lock in your answer, press <b>ENTER</b>)</p><button id = button_1 class = ""square num-button"" onclick = ""recordClick(this)""><div class = content><div class = numbers>1</div></div></button><button id = button_2 class = ""square num-button"" onclick = ""recordClick(this)""><div class = content><div class = numbers>2</div></div></button><button id = button_3 class = ""square num-button"" onclick = ""recordClick(this)""><div class = content><div class = numbers>3</div></div></button><button id = button_4 class = ""square num-button"" onclick = ""recordClick(this)""><div class = content><div class = numbers>4</div></div></button><button id = button_5 class = ""square num-button"" onclick = ""recordClick(this)""><div class = content><div class = numbers>5</div></div></button><button id = button_6 class = ""square num-button"" onclick = ""recordClick(this)""><div class = content><div class = numbers>6</div></div></button><button id = button_7 class = ""square num-button"" onclick = ""recordClick(this)""><div class = content><div class = numbers>7</div></div></button><button id = button_8 class = ""square num-button"" onclick = ""recordClick(this)""><div class = content><div class = numbers>8</div></div></button><button id = button_9 class = ""square num-button"" onclick = ""recordClick(this)""><div class = content><div class = numbers>9</div></div></button><button class = clear_button id = ""ClearButton"" onclick = ""clearResponse()"">Clear</button><p><u><b>Current Answer:</b></u></p><div id=echoed_txt style=""font-size: 6rem; color:blue;""><b></b></div></div><br><br><br><br><br><br><br>",enter,fwdspan,response,sjAannmt3JPZXAGVAotLBUUqIty2,html-keyboard-response,64,488463,0.0-7.0-2.4-0.4-3.4,7.0,"[6,7,4,8,3,2,9]","[6,7,4,8,3,2,9]",1.0,"[3, 4, 5, 6, 7, 8, 8, 7, 7, 8, 8, 7]",,651c10cdf893ceabafc002da,11:25:32 AM,1/15/2024
,,,fwdspan,update_span,sjAannmt3JPZXAGVAotLBUUqIty2,call-function,65,488724,0.0-7.0-2.4-0.4-4.4,,,,,,,651c10cdf893ceabafc002da,11:25:32 AM,1/15/2024
9523.0,"<p style=""font-size:3rem"">Trial 6 of 12</p><br><br><br>",0,fwdspan,start_trial,sjAannmt3JPZXAGVAotLBUUqIty2,html-button-response,66,498247,0.0-7.0-2.5-0.5-0.5,,,,,,,651c10cdf893ceabafc002da,11:25:32 AM,1/15/2024
,"<p style=""font-size:14rem;font-weight:400;"">3</p>",,fwdspan,number,sjAannmt3JPZXAGVAotLBUUqIty2,html-keyboard-response,67,499280,0.0-7.0-2.5-0.5-1.25-0.25,,,,,,,651c10cdf893ceabafc002da,11:25:32 AM,1/15/2024
,"<p style=""font-size:14rem;font-weight:400;"">1</p>",,fwdspan,number,sjAannmt3JPZXAGVAotLBUUqIty2,html-keyboard-response,68,500294,0.0-7.0-2.5-0.5-1.26-0.26,,,,,,,651c10cdf893ceabafc002da,11:25:32 AM,1/15/2024
,"<p style=""font-size:14rem;font-weight:400;"">4</p>",,fwdspan,number,sjAannmt3JPZXAGVAotLBUUqIty2,html-keyboard-response,69,501317,0.0-7.0-2.5-0.5-1.27-0.27,,,,,,,651c10cdf893ceabafc002da,11:25:32 AM,1/15/2024
,"<p style=""font-size:14rem;font-weight:400;"">2</p>",,fwdspan,number,sjAannmt3JPZXAGVAotLBUUqIty2,html-keyboard-response,70,502331,0.0-7.0-2.5-0.5-1.28-0.28,,,,,,,651c10cdf893ceabafc002da,11:25:32 AM,1/15/2024
,"<p style=""font-size:14rem;font-weight:400;"">6</p>",,fwdspan,number,sjAannmt3JPZXAGVAotLBUUqIty2,html-keyboard-response,71,503348,0.0-7.0-2.5-0.5-1.29-0.29,,,,,,,651c10cdf893ceabafc002da,11:25:32 AM,1/15/2024
,"<p style=""font-size:14rem;font-weight:400;"">7</p>",,fwdspan,number,sjAannmt3JPZXAGVAotLBUUqIty2,html-keyboard-response,72,504374,0.0-7.0-2.5-0.5-1.30-0.30,,,,,,,651c10cdf893ceabafc002da,11:25:32 AM,1/15/2024
,"<p style=""font-size:14rem;font-weight:400;"">5</p>",,fwdspan,number,sjAannmt3JPZXAGVAotLBUUqIty2,html-keyboard-response,73,505383,0.0-7.0-2.5-0.5-1.31-0.31,,,,,,,651c10cdf893ceabafc002da,11:25:32 AM,1/15/2024
,"<p style=""font-size:14rem;font-weight:400;"">9</p>",,fwdspan,number,sjAannmt3JPZXAGVAotLBUUqIty2,html-keyboard-response,74,506389,0.0-7.0-2.5-0.5-1.32-0.32,,,,,,,651c10cdf893ceabafc002da,11:25:32 AM,1/15/2024
,[],,fwdspan,delay,sjAannmt3JPZXAGVAotLBUUqIty2,html-keyboard-response,75,506966,0.0-7.0-2.5-0.5-2.5,,,,,,,651c10cdf893ceabafc002da,11:25:32 AM,1/15/2024
4760.0,"<div class = numbox><p style=""font-size:2.5rem"">What were the numbers <b>in order</b>?<br>(When you are ready to lock in your answer, press <b>ENTER</b>)</p><button id = button_1 class = ""square num-button"" onclick = ""recordClick(this)""><div class = content><div class = numbers>1</div></div></button><button id = button_2 class = ""square num-button"" onclick = ""recordClick(this)""><div class = content><div class = numbers>2</div></div></button><button id = button_3 class = ""square num-button"" onclick = ""recordClick(this)""><div class = content><div class = numbers>3</div></div></button><button id = button_4 class = ""square num-button"" onclick = ""recordClick(this)""><div class = content><div class = numbers>4</div></div></button><button id = button_5 class = ""square num-button"" onclick = ""recordClick(this)""><div class = content><div class = numbers>5</div></div></button><button id = button_6 class = ""square num-button"" onclick = ""recordClick(this)""><div class = content><div class = numbers>6</div></div></button><button id = button_7 class = ""square num-button"" onclick = ""recordClick(this)""><div class = content><div class = numbers>7</div></div></button><button id = button_8 class = ""square num-button"" onclick = ""recordClick(this)""><div class = content><div class = numbers>8</div></div></button><button id = button_9 class = ""square num-button"" onclick = ""recordClick(this)""><div class = content><div class = numbers>9</div></div></button><button class = clear_button id = ""ClearButton"" onclick = ""clearResponse()"">Clear</button><p><u><b>Current Answer:</b></u></p><div id=echoed_txt style=""font-size: 6rem; color:blue;""><b></b></div></div><br><br><br><br><br><br><br>",enter,fwdspan,response,sjAannmt3JPZXAGVAotLBUUqIty2,html-keyboard-response,76,511726,0.0-7.0-2.5-0.5-3.5,8.0,"[3,1,2,7,4,5,6,9]","[3,1,4,2,6,7,5,9]",0.0,"[3, 4, 5, 6, 7, 8, 8, 7, 7, 8, 8, 7]",,651c10cdf893ceabafc002da,11:25:32 AM,1/15/2024
,,,fwdspan,update_span,sjAannmt3JPZXAGVAotLBUUqIty2,call-function,77,511986,0.0-7.0-2.5-0.5-4.5,,,,,,,651c10cdf893ceabafc002da,11:25:32 AM,1/15/2024
13476.0,"<p style=""font-size:3rem"">Trial 7 of 12</p><br><br><br>",0,fwdspan,start_trial,sjAannmt3JPZXAGVAotLBUUqIty2,html-button-response,78,525463,0.0-7.0-2.6-0.6-0.6,,,,,,,651c10cdf893ceabafc002da,11:25:32 AM,1/15/2024
,"<p style=""font-size:14rem;font-weight:400;"">9</p>",,fwdspan,number,sjAannmt3JPZXAGVAotLBUUqIty2,html-keyboard-response,79,526477,0.0-7.0-2.6-0.6-1.33-0.33,,,,,,,651c10cdf893ceabafc002da,11:25:32 AM,1/15/2024
,"<p style=""font-size:14rem;font-weight:400;"">5</p>",,fwdspan,number,sjAannmt3JPZXAGVAotLBUUqIty2,html-keyboard-response,80,527490,0.0-7.0-2.6-0.6-1.34-0.34,,,,,,,651c10cdf893ceabafc002da,11:25:32 AM,1/15/2024
,"<p style=""font-size:14rem;font-weight:400;"">1</p>",,fwdspan,number,sjAannmt3JPZXAGVAotLBUUqIty2,html-keyboard-response,81,528528,0.0-7.0-2.6-0.6-1.35-0.35,,,,,,,651c10cdf893ceabafc002da,11:25:32 AM,1/15/2024
,"<p style=""font-size:14rem;font-weight:400;"">6</p>",,fwdspan,number,sjAannmt3JPZXAGVAotLBUUqIty2,html-keyboard-response,82,529540,0.0-7.0-2.6-0.6-1.36-0.36,,,,,,,651c10cdf893ceabafc002da,11:25:32 AM,1/15/2024
,"<p style=""font-size:14rem;font-weight:400;"">2</p>",,fwdspan,number,sjAannmt3JPZXAGVAotLBUUqIty2,html-keyboard-response,83,530562,0.0-7.0-2.6-0.6-1.37-0.37,,,,,,,651c10cdf893ceabafc002da,11:25:32 AM,1/15/2024
,"<p style=""font-size:14rem;font-weight:400;"">7</p>",,fwdspan,number,sjAannmt3JPZXAGVAotLBUUqIty2,html-keyboard-response,84,531568,0.0-7.0-2.6-0.6-1.38-0.38,,,,,,,651c10cdf893ceabafc002da,11:25:32 AM,1/15/2024
,"<p style=""font-size:14rem;font-weight:400;"">3</p>",,fwdspan,number,sjAannmt3JPZXAGVAotLBUUqIty2,html-keyboard-response,85,532586,0.0-7.0-2.6-0.6-1.39-0.39,,,,,,,651c10cdf893ceabafc002da,11:25:32 AM,1/15/2024
,"<p style=""font-size:14rem;font-weight:400;"">8</p>",,fwdspan,number,sjAannmt3JPZXAGVAotLBUUqIty2,html-keyboard-response,86,533594,0.0-7.0-2.6-0.6-1.40-0.40,,,,,,,651c10cdf893ceabafc002da,11:25:32 AM,1/15/2024
,[],,fwdspan,delay,sjAannmt3JPZXAGVAotLBUUqIty2,html-keyboard-response,87,534166,0.0-7.0-2.6-0.6-2.6,,,,,,,651c10cdf893ceabafc002da,11:25:32 AM,1/15/2024
3825.0,"<div class = numbox><p style=""font-size:2.5rem"">What were the numbers <b>in order</b>?<br>(When you are ready to lock in your answer, press <b>ENTER</b>)</p><button id = button_1 class = ""square num-button"" onclick = ""recordClick(this)""><div class = content><div class = numbers>1</div></div></button><button id = button_2 class = ""square num-button"" onclick = ""recordClick(this)""><div class = content><div class = numbers>2</div></div></button><button id = button_3 class = ""square num-button"" onclick = ""recordClick(this)""><div class = content><div class = numbers>3</div></div></button><button id = button_4 class = ""square num-button"" onclick = ""recordClick(this)""><div class = content><div class = numbers>4</div></div></button><button id = button_5 class = ""square num-button"" onclick = ""recordClick(this)""><div class = content><div class = numbers>5</div></div></button><button id = button_6 class = ""square num-button"" onclick = ""recordClick(this)""><div class = content><div class = numbers>6</div></div></button><button id = button_7 class = ""square num-button"" onclick = ""recordClick(this)""><div class = content><div class = numbers>7</div></div></button><button id = button_8 class = ""square num-button"" onclick = ""recordClick(this)""><div class = content><div class = numbers>8</div></div></button><button id = button_9 class = ""square num-button"" onclick = ""recordClick(this)""><div class = content><div class = numbers>9</div></div></button><button class = clear_button id = ""ClearButton"" onclick = ""clearResponse()"">Clear</button><p><u><b>Current Answer:</b></u></p><div id=echoed_txt style=""font-size: 6rem; color:blue;""><b></b></div></div><br><br><br><br><br><br><br>",enter,fwdspan,response,sjAannmt3JPZXAGVAotLBUUqIty2,html-keyboard-response,88,537992,0.0-7.0-2.6-0.6-3.6,8.0,"[9,5,1,6]","[9,5,1,6,2,7,3,8]",0.0,"[3, 4, 5, 6, 7, 8, 8, 7, 7, 8, 8, 7]",,651c10cdf893ceabafc002da,11:25:32 AM,1/15/2024
,,,fwdspan,update_span,sjAannmt3JPZXAGVAotLBUUqIty2,call-function,89,538254,0.0-7.0-2.6-0.6-4.6,,,,,,,651c10cdf893ceabafc002da,11:25:32 AM,1/15/2024
1128.0,"<p style=""font-size:3rem"">Trial 8 of 12</p><br><br><br>",0,fwdspan,start_trial,sjAannmt3JPZXAGVAotLBUUqIty2,html-button-response,90,539383,0.0-7.0-2.7-0.7-0.7,,,,,,,651c10cdf893ceabafc002da,11:25:32 AM,1/15/2024
,"<p style=""font-size:14rem;font-weight:400;"">8</p>",,fwdspan,number,sjAannmt3JPZXAGVAotLBUUqIty2,html-keyboard-response,91,540399,0.0-7.0-2.7-0.7-1.41-0.41,,,,,,,651c10cdf893ceabafc002da,11:25:32 AM,1/15/2024
,"<p style=""font-size:14rem;font-weight:400;"">5</p>",,fwdspan,number,sjAannmt3JPZXAGVAotLBUUqIty2,html-keyboard-response,92,541421,0.0-7.0-2.7-0.7-1.42-0.42,,,,,,,651c10cdf893ceabafc002da,11:25:32 AM,1/15/2024
,"<p style=""font-size:14rem;font-weight:400;"">1</p>",,fwdspan,number,sjAannmt3JPZXAGVAotLBUUqIty2,html-keyboard-response,93,542426,0.0-7.0-2.7-0.7-1.43-0.43,,,,,,,651c10cdf893ceabafc002da,11:25:32 AM,1/15/2024
,"<p style=""font-size:14rem;font-weight:400;"">7</p>",,fwdspan,number,sjAannmt3JPZXAGVAotLBUUqIty2,html-keyboard-response,94,543451,0.0-7.0-2.7-0.7-1.44-0.44,,,,,,,651c10cdf893ceabafc002da,11:25:32 AM,1/15/2024
,"<p style=""font-size:14rem;font-weight:400;"">4</p>",,fwdspan,number,sjAannmt3JPZXAGVAotLBUUqIty2,html-keyboard-response,95,544469,0.0-7.0-2.7-0.7-1.45-0.45,,,,,,,651c10cdf893ceabafc002da,11:25:32 AM,1/15/2024
,"<p style=""font-size:14rem;font-weight:400;"">6</p>",,fwdspan,number,sjAannmt3JPZXAGVAotLBUUqIty2,html-keyboard-response,96,545474,0.0-7.0-2.7-0.7-1.46-0.46,,,,,,,651c10cdf893ceabafc002da,11:25:32 AM,1/15/2024
,"<p style=""font-size:14rem;font-weight:400;"">3</p>",,fwdspan,number,sjAannmt3JPZXAGVAotLBUUqIty2,html-keyboard-response,97,546494,0.0-7.0-2.7-0.7-1.47-0.47,,,,,,,651c10cdf893ceabafc002da,11:25:32 AM,1/15/2024
,[],,fwdspan,delay,sjAannmt3JPZXAGVAotLBUUqIty2,html-keyboard-response,98,547059,0.0-7.0-2.7-0.7-2.7,,,,,,,651c10cdf893ceabafc002da,11:25:32 AM,1/15/2024
5044.0,"<div class = numbox><p style=""font-size:2.5rem"">What were the numbers <b>in order</b>?<br>(When you are ready to lock in your answer, press <b>ENTER</b>)</p><button id = button_1 class = ""square num-button"" onclick = ""recordClick(this)""><div class = content><div class = numbers>1</div></div></button><button id = button_2 class = ""square num-button"" onclick = ""recordClick(this)""><div class = content><div class = numbers>2</div></div></button><button id = button_3 class = ""square num-button"" onclick = ""recordClick(this)""><div class = content><div class = numbers>3</div></div></button><button id = button_4 class = ""square num-button"" onclick = ""recordClick(this)""><div class = content><div class = numbers>4</div></div></button><button id = button_5 class = ""square num-button"" onclick = ""recordClick(this)""><div class = content><div class = numbers>5</div></div></button><button id = button_6 class = ""square num-button"" onclick = ""recordClick(this)""><div class = content><div class = numbers>6</div></div></button><button id = button_7 class = ""square num-button"" onclick = ""recordClick(this)""><div class = content><div class = numbers>7</div></div></button><button id = button_8 class = ""square num-button"" onclick = ""recordClick(this)""><div class = content><div class = numbers>8</div></div></button><button id = button_9 class = ""square num-button"" onclick = ""recordClick(this)""><div class = content><div class = numbers>9</div></div></button><button class = clear_button id = ""ClearButton"" onclick = ""clearResponse()"">Clear</button><p><u><b>Current Answer:</b></u></p><div id=echoed_txt style=""font-size: 6rem; color:blue;""><b></b></div></div><br><br><br><br><br><br><br>",enter,fwdspan,response,sjAannmt3JPZXAGVAotLBUUqIty2,html-keyboard-response,99,552106,0.0-7.0-2.7-0.7-3.7,7.0,"[8,5,7,4,1,6,3]","[8,5,1,7,4,6,3]",0.0,"[3, 4, 5, 6, 7, 8, 8, 7, 7, 8, 8, 7]",,651c10cdf893ceabafc002da,11:25:32 AM,1/15/2024
,,,fwdspan,update_span,sjAannmt3JPZXAGVAotLBUUqIty2,call-function,100,552366,0.0-7.0-2.7-0.7-4.7,,,,,,,651c10cdf893ceabafc002da,11:25:32 AM,1/15/2024
18832.0,"<p style=""font-size:3rem"">Trial 9 of 12</p><br><br><br>",0,fwdspan,start_trial,sjAannmt3JPZXAGVAotLBUUqIty2,html-button-response,101,571199,0.0-7.0-2.8-0.8-0.8,,,,,,,651c10cdf893ceabafc002da,11:25:32 AM,1/15/2024
,"<p style=""font-size:14rem;font-weight:400;"">4</p>",,fwdspan,number,sjAannmt3JPZXAGVAotLBUUqIty2,html-keyboard-response,102,572227,0.0-7.0-2.8-0.8-1.48-0.48,,,,,,,651c10cdf893ceabafc002da,11:25:32 AM,1/15/2024
,"<p style=""font-size:14rem;font-weight:400;"">7</p>",,fwdspan,number,sjAannmt3JPZXAGVAotLBUUqIty2,html-keyboard-response,103,573242,0.0-7.0-2.8-0.8-1.49-0.49,,,,,,,651c10cdf893ceabafc002da,11:25:32 AM,1/15/2024
,"<p style=""font-size:14rem;font-weight:400;"">1</p>",,fwdspan,number,sjAannmt3JPZXAGVAotLBUUqIty2,html-keyboard-response,104,574260,0.0-7.0-2.8-0.8-1.50-0.50,,,,,,,651c10cdf893ceabafc002da,11:25:32 AM,1/15/2024
,"<p style=""font-size:14rem;font-weight:400;"">5</p>",,fwdspan,number,sjAannmt3JPZXAGVAotLBUUqIty2,html-keyboard-response,105,575278,0.0-7.0-2.8-0.8-1.51-0.51,,,,,,,651c10cdf893ceabafc002da,11:25:32 AM,1/15/2024
,"<p style=""font-size:14rem;font-weight:400;"">9</p>",,fwdspan,number,sjAannmt3JPZXAGVAotLBUUqIty2,html-keyboard-response,106,576309,0.0-7.0-2.8-0.8-1.52-0.52,,,,,,,651c10cdf893ceabafc002da,11:25:32 AM,1/15/2024
,"<p style=""font-size:14rem;font-weight:400;"">2</p>",,fwdspan,number,sjAannmt3JPZXAGVAotLBUUqIty2,html-keyboard-response,107,577320,0.0-7.0-2.8-0.8-1.53-0.53,,,,,,,651c10cdf893ceabafc002da,11:25:32 AM,1/15/2024
,"<p style=""font-size:14rem;font-weight:400;"">3</p>",,fwdspan,number,sjAannmt3JPZXAGVAotLBUUqIty2,html-keyboard-response,108,578347,0.0-7.0-2.8-0.8-1.54-0.54,,,,,,,651c10cdf893ceabafc002da,11:25:32 AM,1/15/2024
,[],,fwdspan,delay,sjAannmt3JPZXAGVAotLBUUqIty2,html-keyboard-response,109,578923,0.0-7.0-2.8-0.8-2.8,,,,,,,651c10cdf893ceabafc002da,11:25:32 AM,1/15/2024
6045.0,"<div class = numbox><p style=""font-size:2.5rem"">What were the numbers <b>in order</b>?<br>(When you are ready to lock in your answer, press <b>ENTER</b>)</p><button id = button_1 class = ""square num-button"" onclick = ""recordClick(this)""><div class = content><div class = numbers>1</div></div></button><button id = button_2 class = ""square num-button"" onclick = ""recordClick(this)""><div class = content><div class = numbers>2</div></div></button><button id = button_3 class = ""square num-button"" onclick = ""recordClick(this)""><div class = content><div class = numbers>3</div></div></button><button id = button_4 class = ""square num-button"" onclick = ""recordClick(this)""><div class = content><div class = numbers>4</div></div></button><button id = button_5 class = ""square num-button"" onclick = ""recordClick(this)""><div class = content><div class = numbers>5</div></div></button><button id = button_6 class = ""square num-button"" onclick = ""recordClick(this)""><div class = content><div class = numbers>6</div></div></button><button id = button_7 class = ""square num-button"" onclick = ""recordClick(this)""><div class = content><div class = numbers>7</div></div></button><button id = button_8 class = ""square num-button"" onclick = ""recordClick(this)""><div class = content><div class = numbers>8</div></div></button><button id = button_9 class = ""square num-button"" onclick = ""recordClick(this)""><div class = content><div class = numbers>9</div></div></button><button class = clear_button id = ""ClearButton"" onclick = ""clearResponse()"">Clear</button><p><u><b>Current Answer:</b></u></p><div id=echoed_txt style=""font-size: 6rem; color:blue;""><b></b></div></div><br><br><br><br><br><br><br>",enter,fwdspan,response,sjAannmt3JPZXAGVAotLBUUqIty2,html-keyboard-response,110,584968,0.0-7.0-2.8-0.8-3.8,7.0,"[4,7,1,5,9,2,3]","[4,7,1,5,9,2,3]",1.0,"[3, 4, 5, 6, 7, 8, 8, 7, 7, 8, 8, 7]",,651c10cdf893ceabafc002da,11:25:32 AM,1/15/2024
,,,fwdspan,update_span,sjAannmt3JPZXAGVAotLBUUqIty2,call-function,111,585232,0.0-7.0-2.8-0.8-4.8,,,,,,,651c10cdf893ceabafc002da,11:25:32 AM,1/15/2024
1006.0,"<p style=""font-size:3rem"">Trial 10 of 12</p><br><br><br>",0,fwdspan,start_trial,sjAannmt3JPZXAGVAotLBUUqIty2,html-button-response,112,586239,0.0-7.0-2.9-0.9-0.9,,,,,,,651c10cdf893ceabafc002da,11:25:32 AM,1/15/2024
,"<p style=""font-size:14rem;font-weight:400;"">9</p>",,fwdspan,number,sjAannmt3JPZXAGVAotLBUUqIty2,html-keyboard-response,113,587251,0.0-7.0-2.9-0.9-1.55-0.55,,,,,,,651c10cdf893ceabafc002da,11:25:32 AM,1/15/2024
,"<p style=""font-size:14rem;font-weight:400;"">1</p>",,fwdspan,number,sjAannmt3JPZXAGVAotLBUUqIty2,html-keyboard-response,114,588272,0.0-7.0-2.9-0.9-1.56-0.56,,,,,,,651c10cdf893ceabafc002da,11:25:32 AM,1/15/2024
,"<p style=""font-size:14rem;font-weight:400;"">2</p>",,fwdspan,number,sjAannmt3JPZXAGVAotLBUUqIty2,html-keyboard-response,115,589293,0.0-7.0-2.9-0.9-1.57-0.57,,,,,,,651c10cdf893ceabafc002da,11:25:32 AM,1/15/2024
,"<p style=""font-size:14rem;font-weight:400;"">4</p>",,fwdspan,number,sjAannmt3JPZXAGVAotLBUUqIty2,html-keyboard-response,116,590297,0.0-7.0-2.9-0.9-1.58-0.58,,,,,,,651c10cdf893ceabafc002da,11:25:32 AM,1/15/2024
,"<p style=""font-size:14rem;font-weight:400;"">6</p>",,fwdspan,number,sjAannmt3JPZXAGVAotLBUUqIty2,html-keyboard-response,117,591319,0.0-7.0-2.9-0.9-1.59-0.59,,,,,,,651c10cdf893ceabafc002da,11:25:32 AM,1/15/2024
,"<p style=""font-size:14rem;font-weight:400;"">8</p>",,fwdspan,number,sjAannmt3JPZXAGVAotLBUUqIty2,html-keyboard-response,118,592332,0.0-7.0-2.9-0.9-1.60-0.60,,,,,,,651c10cdf893ceabafc002da,11:25:32 AM,1/15/2024
,"<p style=""font-size:14rem;font-weight:400;"">3</p>",,fwdspan,number,sjAannmt3JPZXAGVAotLBUUqIty2,html-keyboard-response,119,593336,0.0-7.0-2.9-0.9-1.61-0.61,,,,,,,651c10cdf893ceabafc002da,11:25:32 AM,1/15/2024
,"<p style=""font-size:14rem;font-weight:400;"">5</p>",,fwdspan,number,sjAannmt3JPZXAGVAotLBUUqIty2,html-keyboard-response,120,594352,0.0-7.0-2.9-0.9-1.62-0.62,,,,,,,651c10cdf893ceabafc002da,11:25:32 AM,1/15/2024
,[],,fwdspan,delay,sjAannmt3JPZXAGVAotLBUUqIty2,html-keyboard-response,121,594913,0.0-7.0-2.9-0.9-2.9,,,,,,,651c10cdf893ceabafc002da,11:25:32 AM,1/15/2024
4704.0,"<div class = numbox><p style=""font-size:2.5rem"">What were the numbers <b>in order</b>?<br>(When you are ready to lock in your answer, press <b>ENTER</b>)</p><button id = button_1 class = ""square num-button"" onclick = ""recordClick(this)""><div class = content><div class = numbers>1</div></div></button><button id = button_2 class = ""square num-button"" onclick = ""recordClick(this)""><div class = content><div class = numbers>2</div></div></button><button id = button_3 class = ""square num-button"" onclick = ""recordClick(this)""><div class = content><div class = numbers>3</div></div></button><button id = button_4 class = ""square num-button"" onclick = ""recordClick(this)""><div class = content><div class = numbers>4</div></div></button><button id = button_5 class = ""square num-button"" onclick = ""recordClick(this)""><div class = content><div class = numbers>5</div></div></button><button id = button_6 class = ""square num-button"" onclick = ""recordClick(this)""><div class = content><div class = numbers>6</div></div></button><button id = button_7 class = ""square num-button"" onclick = ""recordClick(this)""><div class = content><div class = numbers>7</div></div></button><button id = button_8 class = ""square num-button"" onclick = ""recordClick(this)""><div class = content><div class = numbers>8</div></div></button><button id = button_9 class = ""square num-button"" onclick = ""recordClick(this)""><div class = content><div class = numbers>9</div></div></button><button class = clear_button id = ""ClearButton"" onclick = ""clearResponse()"">Clear</button><p><u><b>Current Answer:</b></u></p><div id=echoed_txt style=""font-size: 6rem; color:blue;""><b></b></div></div><br><br><br><br><br><br><br>",enter,fwdspan,response,sjAannmt3JPZXAGVAotLBUUqIty2,html-keyboard-response,122,599617,0.0-7.0-2.9-0.9-3.9,8.0,[9],"[9,1,2,4,6,8,3,5]",0.0,"[3, 4, 5, 6, 7, 8, 8, 7, 7, 8, 8, 7]",,651c10cdf893ceabafc002da,11:25:32 AM,1/15/2024
,,,fwdspan,update_span,sjAannmt3JPZXAGVAotLBUUqIty2,call-function,123,599879,0.0-7.0-2.9-0.9-4.9,,,,,,,651c10cdf893ceabafc002da,11:25:32 AM,1/15/2024
976.0,"<p style=""font-size:3rem"">Trial 11 of 12</p><br><br><br>",0,fwdspan,start_trial,sjAannmt3JPZXAGVAotLBUUqIty2,html-button-response,124,600855,0.0-7.0-2.10-0.10-0.10,,,,,,,651c10cdf893ceabafc002da,11:25:32 AM,1/15/2024
,"<p style=""font-size:14rem;font-weight:400;"">8</p>",,fwdspan,number,sjAannmt3JPZXAGVAotLBUUqIty2,html-keyboard-response,125,601882,0.0-7.0-2.10-0.10-1.63-0.63,,,,,,,651c10cdf893ceabafc002da,11:25:32 AM,1/15/2024
,"<p style=""font-size:14rem;font-weight:400;"">9</p>",,fwdspan,number,sjAannmt3JPZXAGVAotLBUUqIty2,html-keyboard-response,126,602894,0.0-7.0-2.10-0.10-1.64-0.64,,,,,,,651c10cdf893ceabafc002da,11:25:32 AM,1/15/2024
,"<p style=""font-size:14rem;font-weight:400;"">2</p>",,fwdspan,number,sjAannmt3JPZXAGVAotLBUUqIty2,html-keyboard-response,127,603908,0.0-7.0-2.10-0.10-1.65-0.65,,,,,,,651c10cdf893ceabafc002da,11:25:32 AM,1/15/2024
,"<p style=""font-size:14rem;font-weight:400;"">5</p>",,fwdspan,number,sjAannmt3JPZXAGVAotLBUUqIty2,html-keyboard-response,128,604930,0.0-7.0-2.10-0.10-1.66-0.66,,,,,,,651c10cdf893ceabafc002da,11:25:32 AM,1/15/2024
,"<p style=""font-size:14rem;font-weight:400;"">4</p>",,fwdspan,number,sjAannmt3JPZXAGVAotLBUUqIty2,html-keyboard-response,129,605957,0.0-7.0-2.10-0.10-1.67-0.67,,,,,,,651c10cdf893ceabafc002da,11:25:32 AM,1/15/2024
,"<p style=""font-size:14rem;font-weight:400;"">3</p>",,fwdspan,number,sjAannmt3JPZXAGVAotLBUUqIty2,html-keyboard-response,130,606982,0.0-7.0-2.10-0.10-1.68-0.68,,,,,,,651c10cdf893ceabafc002da,11:25:32 AM,1/15/2024
,"<p style=""font-size:14rem;font-weight:400;"">7</p>",,fwdspan,number,sjAannmt3JPZXAGVAotLBUUqIty2,html-keyboard-response,131,607994,0.0-7.0-2.10-0.10-1.69-0.69,,,,,,,651c10cdf893ceabafc002da,11:25:32 AM,1/15/2024
,"<p style=""font-size:14rem;font-weight:400;"">6</p>",,fwdspan,number,sjAannmt3JPZXAGVAotLBUUqIty2,html-keyboard-response,132,609015,0.0-7.0-2.10-0.10-1.70-0.70,,,,,,,651c10cdf893ceabafc002da,11:25:32 AM,1/15/2024
,[],,fwdspan,delay,sjAannmt3JPZXAGVAotLBUUqIty2,html-keyboard-response,133,609579,0.0-7.0-2.10-0.10-2.10,,,,,,,651c10cdf893ceabafc002da,11:25:32 AM,1/15/2024
5237.0,"<div class = numbox><p style=""font-size:2.5rem"">What were the numbers <b>in order</b>?<br>(When you are ready to lock in your answer, press <b>ENTER</b>)</p><button id = button_1 class = ""square num-button"" onclick = ""recordClick(this)""><div class = content><div class = numbers>1</div></div></button><button id = button_2 class = ""square num-button"" onclick = ""recordClick(this)""><div class = content><div class = numbers>2</div></div></button><button id = button_3 class = ""square num-button"" onclick = ""recordClick(this)""><div class = content><div class = numbers>3</div></div></button><button id = button_4 class = ""square num-button"" onclick = ""recordClick(this)""><div class = content><div class = numbers>4</div></div></button><button id = button_5 class = ""square num-button"" onclick = ""recordClick(this)""><div class = content><div class = numbers>5</div></div></button><button id = button_6 class = ""square num-button"" onclick = ""recordClick(this)""><div class = content><div class = numbers>6</div></div></button><button id = button_7 class = ""square num-button"" onclick = ""recordClick(this)""><div class = content><div class = numbers>7</div></div></button><button id = button_8 class = ""square num-button"" onclick = ""recordClick(this)""><div class = content><div class = numbers>8</div></div></button><button id = button_9 class = ""square num-button"" onclick = ""recordClick(this)""><div class = content><div class = numbers>9</div></div></button><button class = clear_button id = ""ClearButton"" onclick = ""clearResponse()"">Clear</button><p><u><b>Current Answer:</b></u></p><div id=echoed_txt style=""font-size: 6rem; color:blue;""><b></b></div></div><br><br><br><br><br><br><br>",enter,fwdspan,response,sjAannmt3JPZXAGVAotLBUUqIty2,html-keyboard-response,134,614817,0.0-7.0-2.10-0.10-3.10,8.0,"[8,9,2,3,4]","[8,9,2,5,4,3,7,6]",0.0,"[3, 4, 5, 6, 7, 8, 8, 7, 7, 8, 8, 7]",,651c10cdf893ceabafc002da,11:25:32 AM,1/15/2024
,,,fwdspan,update_span,sjAannmt3JPZXAGVAotLBUUqIty2,call-function,135,615071,0.0-7.0-2.10-0.10-4.10,,,,,,,651c10cdf893ceabafc002da,11:25:32 AM,1/15/2024
927.0,"<p style=""font-size:3rem"">Trial 12 of 12</p><br><br><br>",0,fwdspan,start_trial,sjAannmt3JPZXAGVAotLBUUqIty2,html-button-response,136,615999,0.0-7.0-2.11-0.11-0.11,,,,,,,651c10cdf893ceabafc002da,11:25:32 AM,1/15/2024
,"<p style=""font-size:14rem;font-weight:400;"">2</p>",,fwdspan,number,sjAannmt3JPZXAGVAotLBUUqIty2,html-keyboard-response,137,617036,0.0-7.0-2.11-0.11-1.71-0.71,,,,,,,651c10cdf893ceabafc002da,11:25:32 AM,1/15/2024
,"<p style=""font-size:14rem;font-weight:400;"">4</p>",,fwdspan,number,sjAannmt3JPZXAGVAotLBUUqIty2,html-keyboard-response,138,618056,0.0-7.0-2.11-0.11-1.72-0.72,,,,,,,651c10cdf893ceabafc002da,11:25:32 AM,1/15/2024
,"<p style=""font-size:14rem;font-weight:400;"">5</p>",,fwdspan,number,sjAannmt3JPZXAGVAotLBUUqIty2,html-keyboard-response,139,619060,0.0-7.0-2.11-0.11-1.73-0.73,,,,,,,651c10cdf893ceabafc002da,11:25:32 AM,1/15/2024
,"<p style=""font-size:14rem;font-weight:400;"">3</p>",,fwdspan,number,sjAannmt3JPZXAGVAotLBUUqIty2,html-keyboard-response,140,620067,0.0-7.0-2.11-0.11-1.74-0.74,,,,,,,651c10cdf893ceabafc002da,11:25:32 AM,1/15/2024
,"<p style=""font-size:14rem;font-weight:400;"">7</p>",,fwdspan,number,sjAannmt3JPZXAGVAotLBUUqIty2,html-keyboard-response,141,621076,0.0-7.0-2.11-0.11-1.75-0.75,,,,,,,651c10cdf893ceabafc002da,11:25:32 AM,1/15/2024
,"<p style=""font-size:14rem;font-weight:400;"">6</p>",,fwdspan,number,sjAannmt3JPZXAGVAotLBUUqIty2,html-keyboard-response,142,622101,0.0-7.0-2.11-0.11-1.76-0.76,,,,,,,651c10cdf893ceabafc002da,11:25:32 AM,1/15/2024
,"<p style=""font-size:14rem;font-weight:400;"">1</p>",,fwdspan,number,sjAannmt3JPZXAGVAotLBUUqIty2,html-keyboard-response,143,623110,0.0-7.0-2.11-0.11-1.77-0.77,,,,,,,651c10cdf893ceabafc002da,11:25:32 AM,1/15/2024
,[],,fwdspan,delay,sjAannmt3JPZXAGVAotLBUUqIty2,html-keyboard-response,144,623672,0.0-7.0-2.11-0.11-2.11,,,,,,,651c10cdf893ceabafc002da,11:25:32 AM,1/15/2024
7864.0,"<div class = numbox><p style=""font-size:2.5rem"">What were the numbers <b>in order</b>?<br>(When you are ready to lock in your answer, press <b>ENTER</b>)</p><button id = button_1 class = ""square num-button"" onclick = ""recordClick(this)""><div class = content><div class = numbers>1</div></div></button><button id = button_2 class = ""square num-button"" onclick = ""recordClick(this)""><div class = content><div class = numbers>2</div></div></button><button id = button_3 class = ""square num-button"" onclick = ""recordClick(this)""><div class = content><div class = numbers>3</div></div></button><button id = button_4 class = ""square num-button"" onclick = ""recordClick(this)""><div class = content><div class = numbers>4</div></div></button><button id = button_5 class = ""square num-button"" onclick = ""recordClick(this)""><div class = content><div class = numbers>5</div></div></button><button id = button_6 class = ""square num-button"" onclick = ""recordClick(this)""><div class = content><div class = numbers>6</div></div></button><button id = button_7 class = ""square num-button"" onclick = ""recordClick(this)""><div class = content><div class = numbers>7</div></div></button><button id = button_8 class = ""square num-button"" onclick = ""recordClick(this)""><div class = content><div class = numbers>8</div></div></button><button id = button_9 class = ""square num-button"" onclick = ""recordClick(this)""><div class = content><div class = numbers>9</div></div></button><button class = clear_button id = ""ClearButton"" onclick = ""clearResponse()"">Clear</button><p><u><b>Current Answer:</b></u></p><div id=echoed_txt style=""font-size: 6rem; color:blue;""><b></b></div></div><br><br><br><br><br><br><br>",enter,fwdspan,response,sjAannmt3JPZXAGVAotLBUUqIty2,html-keyboard-response,145,631537,0.0-7.0-2.11-0.11-3.11,7.0,"[2,5,4,3,7,1,6]","[2,4,5,3,7,6,1]",0.0,"[3, 4, 5, 6, 7, 8, 8, 7, 7, 8, 8, 7]",,651c10cdf893ceabafc002da,11:25:32 AM,1/15/2024
,,,fwdspan,update_span,sjAannmt3JPZXAGVAotLBUUqIty2,call-function,146,631793,0.0-7.0-2.11-0.11-4.11,,,,,,,651c10cdf893ceabafc002da,11:25:32 AM,1/15/2024
22439.0,,{'Q0': 'It was fine! I just have a terrible memory with numbers '},fwdspan,survey,sjAannmt3JPZXAGVAotLBUUqIty2,lmdlab-survey-text,147,654990,0.0-7.0-3.0,,,,,,sjAannmt3JPZXAGVAotLBUUqIty2,651c10cdf893ceabafc002da,11:25:32 AM,1/15/2024
1791.0,<p><p style='font-size: 3rem'>Great work!<br><br>This completes the digit span task.</p><br><br><br>,0,fwdspan,finish,sjAannmt3JPZXAGVAotLBUUqIty2,html-button-response,148,656783,0.0-7.0-4.0,,,,,,,651c10cdf893ceabafc002da,11:25:32 AM,1/15/2024
