rt,stimulus,response,exp_name,exp_stage,subjectID,trial_type,trial_index,time_elapsed,internal_node_id,span,answer,correct,correct_full,span_history,databaseID,prolificID,start_time,date
6636.4000000059605,"<p style=""font-size:4rem""><br><br>In the next part today, we have a completely different short task.<br><br><br>This part involves keeping numbers in you mind. Participation takes around 5 minutes.<br><br><br></p>",0,fwdspan,instruct,R3WUr1hZ3Ob9EiRohVKty8vX9Ay2,html-button-response,19,406092,0.0-7.0-0.0,,,,,,,62a1979157e5b6c9a24af760,11:21:41 AM,1/15/2024
12923.0,"<p style=""font-size:5rem"">Welcome to the <b>digit span task</b>!<br><br></p><p style=""font-size:3.4rem""><br>On each trial, you will see a sequence of digits, followed by a delay.</p><p style=""font-size:3.4rem""><br>Then you will be asked to type them back in the same order in which they were seen.</p><p style=""font-size:3.4rem""><br><br><br>For example, if you saw the digits <b style=""color:blue;"">1</b>, <b style=""color:blue;"">2</b>, <b style=""color:blue;"">3</b>, you would respond with <b style=""color:blue;"">1</b>, <b style=""color:blue;"">2</b>, <b style=""color:blue;"">3</b></p><p style=""font-size:3.4rem""><br><br><br>To ensure the best measure of true performance for our study,<br><br>it is very important that you do not use any memory aid (e.g., pen and paper).<br><br>Please do the task solely in your head.</p><p style=""font-size:3.4rem""><br><br><br>There will be 12 total trials. Participation takes around 5 minutes.</p><br><br><br>",0,fwdspan,instruct,R3WUr1hZ3Ob9EiRohVKty8vX9Ay2,html-button-response,20,419017,0.0-7.0-1.0,,,,,,,62a1979157e5b6c9a24af760,11:21:41 AM,1/15/2024
2120.0,"<p style=""font-size:3rem"">Trial 1 of 12</p><br><br><br>",0,fwdspan,start_trial,R3WUr1hZ3Ob9EiRohVKty8vX9Ay2,html-button-response,21,421141,0.0-7.0-2.0-0.0-0.0,,,,,,,62a1979157e5b6c9a24af760,11:21:41 AM,1/15/2024
,"<p style=""font-size:14rem;font-weight:400;"">1</p>",,fwdspan,number,R3WUr1hZ3Ob9EiRohVKty8vX9Ay2,html-keyboard-response,22,422171,0.0-7.0-2.0-0.0-1.0-0.0,,,,,,,62a1979157e5b6c9a24af760,11:21:41 AM,1/15/2024
,"<p style=""font-size:14rem;font-weight:400;"">8</p>",,fwdspan,number,R3WUr1hZ3Ob9EiRohVKty8vX9Ay2,html-keyboard-response,23,423198,0.0-7.0-2.0-0.0-1.1-0.1,,,,,,,62a1979157e5b6c9a24af760,11:21:41 AM,1/15/2024
,"<p style=""font-size:14rem;font-weight:400;"">9</p>",,fwdspan,number,R3WUr1hZ3Ob9EiRohVKty8vX9Ay2,html-keyboard-response,24,424214,0.0-7.0-2.0-0.0-1.2-0.2,,,,,,,62a1979157e5b6c9a24af760,11:21:41 AM,1/15/2024
,[],,fwdspan,delay,R3WUr1hZ3Ob9EiRohVKty8vX9Ay2,html-keyboard-response,25,424777,0.0-7.0-2.0-0.0-2.0,,,,,,,62a1979157e5b6c9a24af760,11:21:41 AM,1/15/2024
11717.09999999404,"<div class = numbox><p style=""font-size:2.5rem"">What were the numbers <b>in order</b>?<br>(When you are ready to lock in your answer, press <b>ENTER</b>)</p><button id = button_1 class = ""square num-button"" onclick = ""recordClick(this)""><div class = content><div class = numbers>1</div></div></button><button id = button_2 class = ""square num-button"" onclick = ""recordClick(this)""><div class = content><div class = numbers>2</div></div></button><button id = button_3 class = ""square num-button"" onclick = ""recordClick(this)""><div class = content><div class = numbers>3</div></div></button><button id = button_4 class = ""square num-button"" onclick = ""recordClick(this)""><div class = content><div class = numbers>4</div></div></button><button id = button_5 class = ""square num-button"" onclick = ""recordClick(this)""><div class = content><div class = numbers>5</div></div></button><button id = button_6 class = ""square num-button"" onclick = ""recordClick(this)""><div class = content><div class = numbers>6</div></div></button><button id = button_7 class = ""square num-button"" onclick = ""recordClick(this)""><div class = content><div class = numbers>7</div></div></button><button id = button_8 class = ""square num-button"" onclick = ""recordClick(this)""><div class = content><div class = numbers>8</div></div></button><button id = button_9 class = ""square num-button"" onclick = ""recordClick(this)""><div class = content><div class = numbers>9</div></div></button><button class = clear_button id = ""ClearButton"" onclick = ""clearResponse()"">Clear</button><p><u><b>Current Answer:</b></u></p><div id=echoed_txt style=""font-size: 6rem; color:blue;""><b></b></div></div><br><br><br><br><br><br><br>",enter,fwdspan,response,R3WUr1hZ3Ob9EiRohVKty8vX9Ay2,html-keyboard-response,26,436497,0.0-7.0-2.0-0.0-3.0,3.0,"[1,8,9]","[1,8,9]",1.0,"[3, 4, 5, 6, 7, 8, 9, 9, 10, 10, 9, 10]",,62a1979157e5b6c9a24af760,11:21:41 AM,1/15/2024
,,,fwdspan,update_span,R3WUr1hZ3Ob9EiRohVKty8vX9Ay2,call-function,27,436751,0.0-7.0-2.0-0.0-4.0,,,,,,,62a1979157e5b6c9a24af760,11:21:41 AM,1/15/2024
1897.2000000178814,"<p style=""font-size:3rem"">Trial 2 of 12</p><br><br><br>",0,fwdspan,start_trial,R3WUr1hZ3Ob9EiRohVKty8vX9Ay2,html-button-response,28,438649,0.0-7.0-2.1-0.1-0.1,,,,,,,62a1979157e5b6c9a24af760,11:21:41 AM,1/15/2024
,"<p style=""font-size:14rem;font-weight:400;"">1</p>",,fwdspan,number,R3WUr1hZ3Ob9EiRohVKty8vX9Ay2,html-keyboard-response,29,439662,0.0-7.0-2.1-0.1-1.3-0.3,,,,,,,62a1979157e5b6c9a24af760,11:21:41 AM,1/15/2024
,"<p style=""font-size:14rem;font-weight:400;"">9</p>",,fwdspan,number,R3WUr1hZ3Ob9EiRohVKty8vX9Ay2,html-keyboard-response,30,440684,0.0-7.0-2.1-0.1-1.4-0.4,,,,,,,62a1979157e5b6c9a24af760,11:21:41 AM,1/15/2024
,"<p style=""font-size:14rem;font-weight:400;"">4</p>",,fwdspan,number,R3WUr1hZ3Ob9EiRohVKty8vX9Ay2,html-keyboard-response,31,441708,0.0-7.0-2.1-0.1-1.5-0.5,,,,,,,62a1979157e5b6c9a24af760,11:21:41 AM,1/15/2024
,"<p style=""font-size:14rem;font-weight:400;"">7</p>",,fwdspan,number,R3WUr1hZ3Ob9EiRohVKty8vX9Ay2,html-keyboard-response,32,442733,0.0-7.0-2.1-0.1-1.6-0.6,,,,,,,62a1979157e5b6c9a24af760,11:21:41 AM,1/15/2024
,[],,fwdspan,delay,R3WUr1hZ3Ob9EiRohVKty8vX9Ay2,html-keyboard-response,33,443294,0.0-7.0-2.1-0.1-2.1,,,,,,,62a1979157e5b6c9a24af760,11:21:41 AM,1/15/2024
4931.799999982119,"<div class = numbox><p style=""font-size:2.5rem"">What were the numbers <b>in order</b>?<br>(When you are ready to lock in your answer, press <b>ENTER</b>)</p><button id = button_1 class = ""square num-button"" onclick = ""recordClick(this)""><div class = content><div class = numbers>1</div></div></button><button id = button_2 class = ""square num-button"" onclick = ""recordClick(this)""><div class = content><div class = numbers>2</div></div></button><button id = button_3 class = ""square num-button"" onclick = ""recordClick(this)""><div class = content><div class = numbers>3</div></div></button><button id = button_4 class = ""square num-button"" onclick = ""recordClick(this)""><div class = content><div class = numbers>4</div></div></button><button id = button_5 class = ""square num-button"" onclick = ""recordClick(this)""><div class = content><div class = numbers>5</div></div></button><button id = button_6 class = ""square num-button"" onclick = ""recordClick(this)""><div class = content><div class = numbers>6</div></div></button><button id = button_7 class = ""square num-button"" onclick = ""recordClick(this)""><div class = content><div class = numbers>7</div></div></button><button id = button_8 class = ""square num-button"" onclick = ""recordClick(this)""><div class = content><div class = numbers>8</div></div></button><button id = button_9 class = ""square num-button"" onclick = ""recordClick(this)""><div class = content><div class = numbers>9</div></div></button><button class = clear_button id = ""ClearButton"" onclick = ""clearResponse()"">Clear</button><p><u><b>Current Answer:</b></u></p><div id=echoed_txt style=""font-size: 6rem; color:blue;""><b></b></div></div><br><br><br><br><br><br><br>",enter,fwdspan,response,R3WUr1hZ3Ob9EiRohVKty8vX9Ay2,html-keyboard-response,34,448227,0.0-7.0-2.1-0.1-3.1,4.0,"[1,9,4,7]","[1,9,4,7]",1.0,"[3, 4, 5, 6, 7, 8, 9, 9, 10, 10, 9, 10]",,62a1979157e5b6c9a24af760,11:21:41 AM,1/15/2024
,,,fwdspan,update_span,R3WUr1hZ3Ob9EiRohVKty8vX9Ay2,call-function,35,448490,0.0-7.0-2.1-0.1-4.1,,,,,,,62a1979157e5b6c9a24af760,11:21:41 AM,1/15/2024
1551.0999999940395,"<p style=""font-size:3rem"">Trial 3 of 12</p><br><br><br>",0,fwdspan,start_trial,R3WUr1hZ3Ob9EiRohVKty8vX9Ay2,html-button-response,36,450042,0.0-7.0-2.2-0.2-0.2,,,,,,,62a1979157e5b6c9a24af760,11:21:41 AM,1/15/2024
,"<p style=""font-size:14rem;font-weight:400;"">3</p>",,fwdspan,number,R3WUr1hZ3Ob9EiRohVKty8vX9Ay2,html-keyboard-response,37,451066,0.0-7.0-2.2-0.2-1.7-0.7,,,,,,,62a1979157e5b6c9a24af760,11:21:41 AM,1/15/2024
,"<p style=""font-size:14rem;font-weight:400;"">4</p>",,fwdspan,number,R3WUr1hZ3Ob9EiRohVKty8vX9Ay2,html-keyboard-response,38,452084,0.0-7.0-2.2-0.2-1.8-0.8,,,,,,,62a1979157e5b6c9a24af760,11:21:41 AM,1/15/2024
,"<p style=""font-size:14rem;font-weight:400;"">5</p>",,fwdspan,number,R3WUr1hZ3Ob9EiRohVKty8vX9Ay2,html-keyboard-response,39,453115,0.0-7.0-2.2-0.2-1.9-0.9,,,,,,,62a1979157e5b6c9a24af760,11:21:41 AM,1/15/2024
,"<p style=""font-size:14rem;font-weight:400;"">8</p>",,fwdspan,number,R3WUr1hZ3Ob9EiRohVKty8vX9Ay2,html-keyboard-response,40,454132,0.0-7.0-2.2-0.2-1.10-0.10,,,,,,,62a1979157e5b6c9a24af760,11:21:41 AM,1/15/2024
,"<p style=""font-size:14rem;font-weight:400;"">9</p>",,fwdspan,number,R3WUr1hZ3Ob9EiRohVKty8vX9Ay2,html-keyboard-response,41,455135,0.0-7.0-2.2-0.2-1.11-0.11,,,,,,,62a1979157e5b6c9a24af760,11:21:41 AM,1/15/2024
,[],,fwdspan,delay,R3WUr1hZ3Ob9EiRohVKty8vX9Ay2,html-keyboard-response,42,455695,0.0-7.0-2.2-0.2-2.2,,,,,,,62a1979157e5b6c9a24af760,11:21:41 AM,1/15/2024
23098.69999998808,"<div class = numbox><p style=""font-size:2.5rem"">What were the numbers <b>in order</b>?<br>(When you are ready to lock in your answer, press <b>ENTER</b>)</p><button id = button_1 class = ""square num-button"" onclick = ""recordClick(this)""><div class = content><div class = numbers>1</div></div></button><button id = button_2 class = ""square num-button"" onclick = ""recordClick(this)""><div class = content><div class = numbers>2</div></div></button><button id = button_3 class = ""square num-button"" onclick = ""recordClick(this)""><div class = content><div class = numbers>3</div></div></button><button id = button_4 class = ""square num-button"" onclick = ""recordClick(this)""><div class = content><div class = numbers>4</div></div></button><button id = button_5 class = ""square num-button"" onclick = ""recordClick(this)""><div class = content><div class = numbers>5</div></div></button><button id = button_6 class = ""square num-button"" onclick = ""recordClick(this)""><div class = content><div class = numbers>6</div></div></button><button id = button_7 class = ""square num-button"" onclick = ""recordClick(this)""><div class = content><div class = numbers>7</div></div></button><button id = button_8 class = ""square num-button"" onclick = ""recordClick(this)""><div class = content><div class = numbers>8</div></div></button><button id = button_9 class = ""square num-button"" onclick = ""recordClick(this)""><div class = content><div class = numbers>9</div></div></button><button class = clear_button id = ""ClearButton"" onclick = ""clearResponse()"">Clear</button><p><u><b>Current Answer:</b></u></p><div id=echoed_txt style=""font-size: 6rem; color:blue;""><b></b></div></div><br><br><br><br><br><br><br>",enter,fwdspan,response,R3WUr1hZ3Ob9EiRohVKty8vX9Ay2,html-keyboard-response,43,478794,0.0-7.0-2.2-0.2-3.2,5.0,"[3,4,5,8,9]","[3,4,5,8,9]",1.0,"[3, 4, 5, 6, 7, 8, 9, 9, 10, 10, 9, 10]",,62a1979157e5b6c9a24af760,11:21:41 AM,1/15/2024
,,,fwdspan,update_span,R3WUr1hZ3Ob9EiRohVKty8vX9Ay2,call-function,44,479052,0.0-7.0-2.2-0.2-4.2,,,,,,,62a1979157e5b6c9a24af760,11:21:41 AM,1/15/2024
2839.399999976158,"<p style=""font-size:3rem"">Trial 4 of 12</p><br><br><br>",0,fwdspan,start_trial,R3WUr1hZ3Ob9EiRohVKty8vX9Ay2,html-button-response,45,481892,0.0-7.0-2.3-0.3-0.3,,,,,,,62a1979157e5b6c9a24af760,11:21:41 AM,1/15/2024
,"<p style=""font-size:14rem;font-weight:400;"">8</p>",,fwdspan,number,R3WUr1hZ3Ob9EiRohVKty8vX9Ay2,html-keyboard-response,46,482917,0.0-7.0-2.3-0.3-1.12-0.12,,,,,,,62a1979157e5b6c9a24af760,11:21:41 AM,1/15/2024
,"<p style=""font-size:14rem;font-weight:400;"">4</p>",,fwdspan,number,R3WUr1hZ3Ob9EiRohVKty8vX9Ay2,html-keyboard-response,47,483932,0.0-7.0-2.3-0.3-1.13-0.13,,,,,,,62a1979157e5b6c9a24af760,11:21:41 AM,1/15/2024
,"<p style=""font-size:14rem;font-weight:400;"">1</p>",,fwdspan,number,R3WUr1hZ3Ob9EiRohVKty8vX9Ay2,html-keyboard-response,48,484950,0.0-7.0-2.3-0.3-1.14-0.14,,,,,,,62a1979157e5b6c9a24af760,11:21:41 AM,1/15/2024
,"<p style=""font-size:14rem;font-weight:400;"">5</p>",,fwdspan,number,R3WUr1hZ3Ob9EiRohVKty8vX9Ay2,html-keyboard-response,49,485975,0.0-7.0-2.3-0.3-1.15-0.15,,,,,,,62a1979157e5b6c9a24af760,11:21:41 AM,1/15/2024
,"<p style=""font-size:14rem;font-weight:400;"">3</p>",,fwdspan,number,R3WUr1hZ3Ob9EiRohVKty8vX9Ay2,html-keyboard-response,50,486992,0.0-7.0-2.3-0.3-1.16-0.16,,,,,,,62a1979157e5b6c9a24af760,11:21:41 AM,1/15/2024
,"<p style=""font-size:14rem;font-weight:400;"">6</p>",,fwdspan,number,R3WUr1hZ3Ob9EiRohVKty8vX9Ay2,html-keyboard-response,51,488008,0.0-7.0-2.3-0.3-1.17-0.17,,,,,,,62a1979157e5b6c9a24af760,11:21:41 AM,1/15/2024
,[],,fwdspan,delay,R3WUr1hZ3Ob9EiRohVKty8vX9Ay2,html-keyboard-response,52,488562,0.0-7.0-2.3-0.3-2.3,,,,,,,62a1979157e5b6c9a24af760,11:21:41 AM,1/15/2024
8118.5,"<div class = numbox><p style=""font-size:2.5rem"">What were the numbers <b>in order</b>?<br>(When you are ready to lock in your answer, press <b>ENTER</b>)</p><button id = button_1 class = ""square num-button"" onclick = ""recordClick(this)""><div class = content><div class = numbers>1</div></div></button><button id = button_2 class = ""square num-button"" onclick = ""recordClick(this)""><div class = content><div class = numbers>2</div></div></button><button id = button_3 class = ""square num-button"" onclick = ""recordClick(this)""><div class = content><div class = numbers>3</div></div></button><button id = button_4 class = ""square num-button"" onclick = ""recordClick(this)""><div class = content><div class = numbers>4</div></div></button><button id = button_5 class = ""square num-button"" onclick = ""recordClick(this)""><div class = content><div class = numbers>5</div></div></button><button id = button_6 class = ""square num-button"" onclick = ""recordClick(this)""><div class = content><div class = numbers>6</div></div></button><button id = button_7 class = ""square num-button"" onclick = ""recordClick(this)""><div class = content><div class = numbers>7</div></div></button><button id = button_8 class = ""square num-button"" onclick = ""recordClick(this)""><div class = content><div class = numbers>8</div></div></button><button id = button_9 class = ""square num-button"" onclick = ""recordClick(this)""><div class = content><div class = numbers>9</div></div></button><button class = clear_button id = ""ClearButton"" onclick = ""clearResponse()"">Clear</button><p><u><b>Current Answer:</b></u></p><div id=echoed_txt style=""font-size: 6rem; color:blue;""><b></b></div></div><br><br><br><br><br><br><br>",enter,fwdspan,response,R3WUr1hZ3Ob9EiRohVKty8vX9Ay2,html-keyboard-response,53,496682,0.0-7.0-2.3-0.3-3.3,6.0,"[8,4,1,5,3,6]","[8,4,1,5,3,6]",1.0,"[3, 4, 5, 6, 7, 8, 9, 9, 10, 10, 9, 10]",,62a1979157e5b6c9a24af760,11:21:41 AM,1/15/2024
,,,fwdspan,update_span,R3WUr1hZ3Ob9EiRohVKty8vX9Ay2,call-function,54,496934,0.0-7.0-2.3-0.3-4.3,,,,,,,62a1979157e5b6c9a24af760,11:21:41 AM,1/15/2024
3046.800000011921,"<p style=""font-size:3rem"">Trial 5 of 12</p><br><br><br>",0,fwdspan,start_trial,R3WUr1hZ3Ob9EiRohVKty8vX9Ay2,html-button-response,55,499982,0.0-7.0-2.4-0.4-0.4,,,,,,,62a1979157e5b6c9a24af760,11:21:41 AM,1/15/2024
,"<p style=""font-size:14rem;font-weight:400;"">5</p>",,fwdspan,number,R3WUr1hZ3Ob9EiRohVKty8vX9Ay2,html-keyboard-response,56,501000,0.0-7.0-2.4-0.4-1.18-0.18,,,,,,,62a1979157e5b6c9a24af760,11:21:41 AM,1/15/2024
,"<p style=""font-size:14rem;font-weight:400;"">6</p>",,fwdspan,number,R3WUr1hZ3Ob9EiRohVKty8vX9Ay2,html-keyboard-response,57,502016,0.0-7.0-2.4-0.4-1.19-0.19,,,,,,,62a1979157e5b6c9a24af760,11:21:41 AM,1/15/2024
,"<p style=""font-size:14rem;font-weight:400;"">7</p>",,fwdspan,number,R3WUr1hZ3Ob9EiRohVKty8vX9Ay2,html-keyboard-response,58,503032,0.0-7.0-2.4-0.4-1.20-0.20,,,,,,,62a1979157e5b6c9a24af760,11:21:41 AM,1/15/2024
,"<p style=""font-size:14rem;font-weight:400;"">9</p>",,fwdspan,number,R3WUr1hZ3Ob9EiRohVKty8vX9Ay2,html-keyboard-response,59,504051,0.0-7.0-2.4-0.4-1.21-0.21,,,,,,,62a1979157e5b6c9a24af760,11:21:41 AM,1/15/2024
,"<p style=""font-size:14rem;font-weight:400;"">8</p>",,fwdspan,number,R3WUr1hZ3Ob9EiRohVKty8vX9Ay2,html-keyboard-response,60,505075,0.0-7.0-2.4-0.4-1.22-0.22,,,,,,,62a1979157e5b6c9a24af760,11:21:41 AM,1/15/2024
,"<p style=""font-size:14rem;font-weight:400;"">3</p>",,fwdspan,number,R3WUr1hZ3Ob9EiRohVKty8vX9Ay2,html-keyboard-response,61,506077,0.0-7.0-2.4-0.4-1.23-0.23,,,,,,,62a1979157e5b6c9a24af760,11:21:41 AM,1/15/2024
,"<p style=""font-size:14rem;font-weight:400;"">4</p>",,fwdspan,number,R3WUr1hZ3Ob9EiRohVKty8vX9Ay2,html-keyboard-response,62,507092,0.0-7.0-2.4-0.4-1.24-0.24,,,,,,,62a1979157e5b6c9a24af760,11:21:41 AM,1/15/2024
,[],,fwdspan,delay,R3WUr1hZ3Ob9EiRohVKty8vX9Ay2,html-keyboard-response,63,507646,0.0-7.0-2.4-0.4-2.4,,,,,,,62a1979157e5b6c9a24af760,11:21:41 AM,1/15/2024
12939.0,"<div class = numbox><p style=""font-size:2.5rem"">What were the numbers <b>in order</b>?<br>(When you are ready to lock in your answer, press <b>ENTER</b>)</p><button id = button_1 class = ""square num-button"" onclick = ""recordClick(this)""><div class = content><div class = numbers>1</div></div></button><button id = button_2 class = ""square num-button"" onclick = ""recordClick(this)""><div class = content><div class = numbers>2</div></div></button><button id = button_3 class = ""square num-button"" onclick = ""recordClick(this)""><div class = content><div class = numbers>3</div></div></button><button id = button_4 class = ""square num-button"" onclick = ""recordClick(this)""><div class = content><div class = numbers>4</div></div></button><button id = button_5 class = ""square num-button"" onclick = ""recordClick(this)""><div class = content><div class = numbers>5</div></div></button><button id = button_6 class = ""square num-button"" onclick = ""recordClick(this)""><div class = content><div class = numbers>6</div></div></button><button id = button_7 class = ""square num-button"" onclick = ""recordClick(this)""><div class = content><div class = numbers>7</div></div></button><button id = button_8 class = ""square num-button"" onclick = ""recordClick(this)""><div class = content><div class = numbers>8</div></div></button><button id = button_9 class = ""square num-button"" onclick = ""recordClick(this)""><div class = content><div class = numbers>9</div></div></button><button class = clear_button id = ""ClearButton"" onclick = ""clearResponse()"">Clear</button><p><u><b>Current Answer:</b></u></p><div id=echoed_txt style=""font-size: 6rem; color:blue;""><b></b></div></div><br><br><br><br><br><br><br>",enter,fwdspan,response,R3WUr1hZ3Ob9EiRohVKty8vX9Ay2,html-keyboard-response,64,520586,0.0-7.0-2.4-0.4-3.4,7.0,"[5,6,7,9,8,3,4]","[5,6,7,9,8,3,4]",1.0,"[3, 4, 5, 6, 7, 8, 9, 9, 10, 10, 9, 10]",,62a1979157e5b6c9a24af760,11:21:41 AM,1/15/2024
,,,fwdspan,update_span,R3WUr1hZ3Ob9EiRohVKty8vX9Ay2,call-function,65,520851,0.0-7.0-2.4-0.4-4.4,,,,,,,62a1979157e5b6c9a24af760,11:21:41 AM,1/15/2024
2130.4000000059605,"<p style=""font-size:3rem"">Trial 6 of 12</p><br><br><br>",0,fwdspan,start_trial,R3WUr1hZ3Ob9EiRohVKty8vX9Ay2,html-button-response,66,522982,0.0-7.0-2.5-0.5-0.5,,,,,,,62a1979157e5b6c9a24af760,11:21:41 AM,1/15/2024
,"<p style=""font-size:14rem;font-weight:400;"">7</p>",,fwdspan,number,R3WUr1hZ3Ob9EiRohVKty8vX9Ay2,html-keyboard-response,67,524003,0.0-7.0-2.5-0.5-1.25-0.25,,,,,,,62a1979157e5b6c9a24af760,11:21:41 AM,1/15/2024
,"<p style=""font-size:14rem;font-weight:400;"">3</p>",,fwdspan,number,R3WUr1hZ3Ob9EiRohVKty8vX9Ay2,html-keyboard-response,68,525018,0.0-7.0-2.5-0.5-1.26-0.26,,,,,,,62a1979157e5b6c9a24af760,11:21:41 AM,1/15/2024
,"<p style=""font-size:14rem;font-weight:400;"">2</p>",,fwdspan,number,R3WUr1hZ3Ob9EiRohVKty8vX9Ay2,html-keyboard-response,69,526033,0.0-7.0-2.5-0.5-1.27-0.27,,,,,,,62a1979157e5b6c9a24af760,11:21:41 AM,1/15/2024
,"<p style=""font-size:14rem;font-weight:400;"">9</p>",,fwdspan,number,R3WUr1hZ3Ob9EiRohVKty8vX9Ay2,html-keyboard-response,70,527042,0.0-7.0-2.5-0.5-1.28-0.28,,,,,,,62a1979157e5b6c9a24af760,11:21:41 AM,1/15/2024
,"<p style=""font-size:14rem;font-weight:400;"">4</p>",,fwdspan,number,R3WUr1hZ3Ob9EiRohVKty8vX9Ay2,html-keyboard-response,71,528059,0.0-7.0-2.5-0.5-1.29-0.29,,,,,,,62a1979157e5b6c9a24af760,11:21:41 AM,1/15/2024
,"<p style=""font-size:14rem;font-weight:400;"">8</p>",,fwdspan,number,R3WUr1hZ3Ob9EiRohVKty8vX9Ay2,html-keyboard-response,72,529075,0.0-7.0-2.5-0.5-1.30-0.30,,,,,,,62a1979157e5b6c9a24af760,11:21:41 AM,1/15/2024
,"<p style=""font-size:14rem;font-weight:400;"">6</p>",,fwdspan,number,R3WUr1hZ3Ob9EiRohVKty8vX9Ay2,html-keyboard-response,73,530091,0.0-7.0-2.5-0.5-1.31-0.31,,,,,,,62a1979157e5b6c9a24af760,11:21:41 AM,1/15/2024
,"<p style=""font-size:14rem;font-weight:400;"">1</p>",,fwdspan,number,R3WUr1hZ3Ob9EiRohVKty8vX9Ay2,html-keyboard-response,74,531108,0.0-7.0-2.5-0.5-1.32-0.32,,,,,,,62a1979157e5b6c9a24af760,11:21:41 AM,1/15/2024
,[],,fwdspan,delay,R3WUr1hZ3Ob9EiRohVKty8vX9Ay2,html-keyboard-response,75,531679,0.0-7.0-2.5-0.5-2.5,,,,,,,62a1979157e5b6c9a24af760,11:21:41 AM,1/15/2024
16591.0,"<div class = numbox><p style=""font-size:2.5rem"">What were the numbers <b>in order</b>?<br>(When you are ready to lock in your answer, press <b>ENTER</b>)</p><button id = button_1 class = ""square num-button"" onclick = ""recordClick(this)""><div class = content><div class = numbers>1</div></div></button><button id = button_2 class = ""square num-button"" onclick = ""recordClick(this)""><div class = content><div class = numbers>2</div></div></button><button id = button_3 class = ""square num-button"" onclick = ""recordClick(this)""><div class = content><div class = numbers>3</div></div></button><button id = button_4 class = ""square num-button"" onclick = ""recordClick(this)""><div class = content><div class = numbers>4</div></div></button><button id = button_5 class = ""square num-button"" onclick = ""recordClick(this)""><div class = content><div class = numbers>5</div></div></button><button id = button_6 class = ""square num-button"" onclick = ""recordClick(this)""><div class = content><div class = numbers>6</div></div></button><button id = button_7 class = ""square num-button"" onclick = ""recordClick(this)""><div class = content><div class = numbers>7</div></div></button><button id = button_8 class = ""square num-button"" onclick = ""recordClick(this)""><div class = content><div class = numbers>8</div></div></button><button id = button_9 class = ""square num-button"" onclick = ""recordClick(this)""><div class = content><div class = numbers>9</div></div></button><button class = clear_button id = ""ClearButton"" onclick = ""clearResponse()"">Clear</button><p><u><b>Current Answer:</b></u></p><div id=echoed_txt style=""font-size: 6rem; color:blue;""><b></b></div></div><br><br><br><br><br><br><br>",enter,fwdspan,response,R3WUr1hZ3Ob9EiRohVKty8vX9Ay2,html-keyboard-response,76,548272,0.0-7.0-2.5-0.5-3.5,8.0,"[7,3,2,9,4,8,6,1]","[7,3,2,9,4,8,6,1]",1.0,"[3, 4, 5, 6, 7, 8, 9, 9, 10, 10, 9, 10]",,62a1979157e5b6c9a24af760,11:21:41 AM,1/15/2024
,,,fwdspan,update_span,R3WUr1hZ3Ob9EiRohVKty8vX9Ay2,call-function,77,548533,0.0-7.0-2.5-0.5-4.5,,,,,,,62a1979157e5b6c9a24af760,11:21:41 AM,1/15/2024
1894.9000000059605,"<p style=""font-size:3rem"">Trial 7 of 12</p><br><br><br>",0,fwdspan,start_trial,R3WUr1hZ3Ob9EiRohVKty8vX9Ay2,html-button-response,78,550429,0.0-7.0-2.6-0.6-0.6,,,,,,,62a1979157e5b6c9a24af760,11:21:41 AM,1/15/2024
,"<p style=""font-size:14rem;font-weight:400;"">4</p>",,fwdspan,number,R3WUr1hZ3Ob9EiRohVKty8vX9Ay2,html-keyboard-response,79,551452,0.0-7.0-2.6-0.6-1.33-0.33,,,,,,,62a1979157e5b6c9a24af760,11:21:41 AM,1/15/2024
,"<p style=""font-size:14rem;font-weight:400;"">7</p>",,fwdspan,number,R3WUr1hZ3Ob9EiRohVKty8vX9Ay2,html-keyboard-response,80,552474,0.0-7.0-2.6-0.6-1.34-0.34,,,,,,,62a1979157e5b6c9a24af760,11:21:41 AM,1/15/2024
,"<p style=""font-size:14rem;font-weight:400;"">6</p>",,fwdspan,number,R3WUr1hZ3Ob9EiRohVKty8vX9Ay2,html-keyboard-response,81,553500,0.0-7.0-2.6-0.6-1.35-0.35,,,,,,,62a1979157e5b6c9a24af760,11:21:41 AM,1/15/2024
,"<p style=""font-size:14rem;font-weight:400;"">9</p>",,fwdspan,number,R3WUr1hZ3Ob9EiRohVKty8vX9Ay2,html-keyboard-response,82,554525,0.0-7.0-2.6-0.6-1.36-0.36,,,,,,,62a1979157e5b6c9a24af760,11:21:41 AM,1/15/2024
,"<p style=""font-size:14rem;font-weight:400;"">2</p>",,fwdspan,number,R3WUr1hZ3Ob9EiRohVKty8vX9Ay2,html-keyboard-response,83,555536,0.0-7.0-2.6-0.6-1.37-0.37,,,,,,,62a1979157e5b6c9a24af760,11:21:41 AM,1/15/2024
,"<p style=""font-size:14rem;font-weight:400;"">5</p>",,fwdspan,number,R3WUr1hZ3Ob9EiRohVKty8vX9Ay2,html-keyboard-response,84,556567,0.0-7.0-2.6-0.6-1.38-0.38,,,,,,,62a1979157e5b6c9a24af760,11:21:41 AM,1/15/2024
,"<p style=""font-size:14rem;font-weight:400;"">1</p>",,fwdspan,number,R3WUr1hZ3Ob9EiRohVKty8vX9Ay2,html-keyboard-response,85,557584,0.0-7.0-2.6-0.6-1.39-0.39,,,,,,,62a1979157e5b6c9a24af760,11:21:41 AM,1/15/2024
,"<p style=""font-size:14rem;font-weight:400;"">3</p>",,fwdspan,number,R3WUr1hZ3Ob9EiRohVKty8vX9Ay2,html-keyboard-response,86,558590,0.0-7.0-2.6-0.6-1.40-0.40,,,,,,,62a1979157e5b6c9a24af760,11:21:41 AM,1/15/2024
,"<p style=""font-size:14rem;font-weight:400;"">8</p>",,fwdspan,number,R3WUr1hZ3Ob9EiRohVKty8vX9Ay2,html-keyboard-response,87,559609,0.0-7.0-2.6-0.6-1.41-0.41,,,,,,,62a1979157e5b6c9a24af760,11:21:41 AM,1/15/2024
,[],,fwdspan,delay,R3WUr1hZ3Ob9EiRohVKty8vX9Ay2,html-keyboard-response,88,560179,0.0-7.0-2.6-0.6-2.6,,,,,,,62a1979157e5b6c9a24af760,11:21:41 AM,1/15/2024
14501.09999999404,"<div class = numbox><p style=""font-size:2.5rem"">What were the numbers <b>in order</b>?<br>(When you are ready to lock in your answer, press <b>ENTER</b>)</p><button id = button_1 class = ""square num-button"" onclick = ""recordClick(this)""><div class = content><div class = numbers>1</div></div></button><button id = button_2 class = ""square num-button"" onclick = ""recordClick(this)""><div class = content><div class = numbers>2</div></div></button><button id = button_3 class = ""square num-button"" onclick = ""recordClick(this)""><div class = content><div class = numbers>3</div></div></button><button id = button_4 class = ""square num-button"" onclick = ""recordClick(this)""><div class = content><div class = numbers>4</div></div></button><button id = button_5 class = ""square num-button"" onclick = ""recordClick(this)""><div class = content><div class = numbers>5</div></div></button><button id = button_6 class = ""square num-button"" onclick = ""recordClick(this)""><div class = content><div class = numbers>6</div></div></button><button id = button_7 class = ""square num-button"" onclick = ""recordClick(this)""><div class = content><div class = numbers>7</div></div></button><button id = button_8 class = ""square num-button"" onclick = ""recordClick(this)""><div class = content><div class = numbers>8</div></div></button><button id = button_9 class = ""square num-button"" onclick = ""recordClick(this)""><div class = content><div class = numbers>9</div></div></button><button class = clear_button id = ""ClearButton"" onclick = ""clearResponse()"">Clear</button><p><u><b>Current Answer:</b></u></p><div id=echoed_txt style=""font-size: 6rem; color:blue;""><b></b></div></div><br><br><br><br><br><br><br>",enter,fwdspan,response,R3WUr1hZ3Ob9EiRohVKty8vX9Ay2,html-keyboard-response,89,574682,0.0-7.0-2.6-0.6-3.6,9.0,"[4,6,9,2,5,1,3,8]","[4,7,6,9,2,5,1,3,8]",0.0,"[3, 4, 5, 6, 7, 8, 9, 9, 10, 10, 9, 10]",,62a1979157e5b6c9a24af760,11:21:41 AM,1/15/2024
,,,fwdspan,update_span,R3WUr1hZ3Ob9EiRohVKty8vX9Ay2,call-function,90,574935,0.0-7.0-2.6-0.6-4.6,,,,,,,62a1979157e5b6c9a24af760,11:21:41 AM,1/15/2024
3009.0999999940395,"<p style=""font-size:3rem"">Trial 8 of 12</p><br><br><br>",0,fwdspan,start_trial,R3WUr1hZ3Ob9EiRohVKty8vX9Ay2,html-button-response,91,577945,0.0-7.0-2.7-0.7-0.7,,,,,,,62a1979157e5b6c9a24af760,11:21:41 AM,1/15/2024
,"<p style=""font-size:14rem;font-weight:400;"">1</p>",,fwdspan,number,R3WUr1hZ3Ob9EiRohVKty8vX9Ay2,html-keyboard-response,92,578967,0.0-7.0-2.7-0.7-1.42-0.42,,,,,,,62a1979157e5b6c9a24af760,11:21:41 AM,1/15/2024
,"<p style=""font-size:14rem;font-weight:400;"">8</p>",,fwdspan,number,R3WUr1hZ3Ob9EiRohVKty8vX9Ay2,html-keyboard-response,93,579986,0.0-7.0-2.7-0.7-1.43-0.43,,,,,,,62a1979157e5b6c9a24af760,11:21:41 AM,1/15/2024
,"<p style=""font-size:14rem;font-weight:400;"">9</p>",,fwdspan,number,R3WUr1hZ3Ob9EiRohVKty8vX9Ay2,html-keyboard-response,94,581002,0.0-7.0-2.7-0.7-1.44-0.44,,,,,,,62a1979157e5b6c9a24af760,11:21:41 AM,1/15/2024
,"<p style=""font-size:14rem;font-weight:400;"">2</p>",,fwdspan,number,R3WUr1hZ3Ob9EiRohVKty8vX9Ay2,html-keyboard-response,95,582019,0.0-7.0-2.7-0.7-1.45-0.45,,,,,,,62a1979157e5b6c9a24af760,11:21:41 AM,1/15/2024
,"<p style=""font-size:14rem;font-weight:400;"">4</p>",,fwdspan,number,R3WUr1hZ3Ob9EiRohVKty8vX9Ay2,html-keyboard-response,96,583035,0.0-7.0-2.7-0.7-1.46-0.46,,,,,,,62a1979157e5b6c9a24af760,11:21:41 AM,1/15/2024
,"<p style=""font-size:14rem;font-weight:400;"">5</p>",,fwdspan,number,R3WUr1hZ3Ob9EiRohVKty8vX9Ay2,html-keyboard-response,97,584043,0.0-7.0-2.7-0.7-1.47-0.47,,,,,,,62a1979157e5b6c9a24af760,11:21:41 AM,1/15/2024
,"<p style=""font-size:14rem;font-weight:400;"">7</p>",,fwdspan,number,R3WUr1hZ3Ob9EiRohVKty8vX9Ay2,html-keyboard-response,98,585060,0.0-7.0-2.7-0.7-1.48-0.48,,,,,,,62a1979157e5b6c9a24af760,11:21:41 AM,1/15/2024
,"<p style=""font-size:14rem;font-weight:400;"">6</p>",,fwdspan,number,R3WUr1hZ3Ob9EiRohVKty8vX9Ay2,html-keyboard-response,99,586068,0.0-7.0-2.7-0.7-1.49-0.49,,,,,,,62a1979157e5b6c9a24af760,11:21:41 AM,1/15/2024
,"<p style=""font-size:14rem;font-weight:400;"">3</p>",,fwdspan,number,R3WUr1hZ3Ob9EiRohVKty8vX9Ay2,html-keyboard-response,100,587086,0.0-7.0-2.7-0.7-1.50-0.50,,,,,,,62a1979157e5b6c9a24af760,11:21:41 AM,1/15/2024
,[],,fwdspan,delay,R3WUr1hZ3Ob9EiRohVKty8vX9Ay2,html-keyboard-response,101,587663,0.0-7.0-2.7-0.7-2.7,,,,,,,62a1979157e5b6c9a24af760,11:21:41 AM,1/15/2024
11637.59999999404,"<div class = numbox><p style=""font-size:2.5rem"">What were the numbers <b>in order</b>?<br>(When you are ready to lock in your answer, press <b>ENTER</b>)</p><button id = button_1 class = ""square num-button"" onclick = ""recordClick(this)""><div class = content><div class = numbers>1</div></div></button><button id = button_2 class = ""square num-button"" onclick = ""recordClick(this)""><div class = content><div class = numbers>2</div></div></button><button id = button_3 class = ""square num-button"" onclick = ""recordClick(this)""><div class = content><div class = numbers>3</div></div></button><button id = button_4 class = ""square num-button"" onclick = ""recordClick(this)""><div class = content><div class = numbers>4</div></div></button><button id = button_5 class = ""square num-button"" onclick = ""recordClick(this)""><div class = content><div class = numbers>5</div></div></button><button id = button_6 class = ""square num-button"" onclick = ""recordClick(this)""><div class = content><div class = numbers>6</div></div></button><button id = button_7 class = ""square num-button"" onclick = ""recordClick(this)""><div class = content><div class = numbers>7</div></div></button><button id = button_8 class = ""square num-button"" onclick = ""recordClick(this)""><div class = content><div class = numbers>8</div></div></button><button id = button_9 class = ""square num-button"" onclick = ""recordClick(this)""><div class = content><div class = numbers>9</div></div></button><button class = clear_button id = ""ClearButton"" onclick = ""clearResponse()"">Clear</button><p><u><b>Current Answer:</b></u></p><div id=echoed_txt style=""font-size: 6rem; color:blue;""><b></b></div></div><br><br><br><br><br><br><br>",enter,fwdspan,response,R3WUr1hZ3Ob9EiRohVKty8vX9Ay2,html-keyboard-response,102,599303,0.0-7.0-2.7-0.7-3.7,9.0,"[1,8,9,2,4,5,7,6,3]","[1,8,9,2,4,5,7,6,3]",1.0,"[3, 4, 5, 6, 7, 8, 9, 9, 10, 10, 9, 10]",,62a1979157e5b6c9a24af760,11:21:41 AM,1/15/2024
,,,fwdspan,update_span,R3WUr1hZ3Ob9EiRohVKty8vX9Ay2,call-function,103,599568,0.0-7.0-2.7-0.7-4.7,,,,,,,62a1979157e5b6c9a24af760,11:21:41 AM,1/15/2024
6870.5999999940395,"<p style=""font-size:3rem"">Trial 9 of 12</p><br><br><br>",0,fwdspan,start_trial,R3WUr1hZ3Ob9EiRohVKty8vX9Ay2,html-button-response,104,606439,0.0-7.0-2.8-0.8-0.8,,,,,,,62a1979157e5b6c9a24af760,11:21:41 AM,1/15/2024
,"<p style=""font-size:14rem;font-weight:400;"">2</p>",,fwdspan,number,R3WUr1hZ3Ob9EiRohVKty8vX9Ay2,html-keyboard-response,105,607454,0.0-7.0-2.8-0.8-1.51-0.51,,,,,,,62a1979157e5b6c9a24af760,11:21:41 AM,1/15/2024
,"<p style=""font-size:14rem;font-weight:400;"">8</p>",,fwdspan,number,R3WUr1hZ3Ob9EiRohVKty8vX9Ay2,html-keyboard-response,106,608468,0.0-7.0-2.8-0.8-1.52-0.52,,,,,,,62a1979157e5b6c9a24af760,11:21:41 AM,1/15/2024
,"<p style=""font-size:14rem;font-weight:400;"">1</p>",,fwdspan,number,R3WUr1hZ3Ob9EiRohVKty8vX9Ay2,html-keyboard-response,107,609484,0.0-7.0-2.8-0.8-1.53-0.53,,,,,,,62a1979157e5b6c9a24af760,11:21:41 AM,1/15/2024
,"<p style=""font-size:14rem;font-weight:400;"">4</p>",,fwdspan,number,R3WUr1hZ3Ob9EiRohVKty8vX9Ay2,html-keyboard-response,108,610508,0.0-7.0-2.8-0.8-1.54-0.54,,,,,,,62a1979157e5b6c9a24af760,11:21:41 AM,1/15/2024
,"<p style=""font-size:14rem;font-weight:400;"">5</p>",,fwdspan,number,R3WUr1hZ3Ob9EiRohVKty8vX9Ay2,html-keyboard-response,109,611527,0.0-7.0-2.8-0.8-1.55-0.55,,,,,,,62a1979157e5b6c9a24af760,11:21:41 AM,1/15/2024
,"<p style=""font-size:14rem;font-weight:400;"">3</p>",,fwdspan,number,R3WUr1hZ3Ob9EiRohVKty8vX9Ay2,html-keyboard-response,110,612536,0.0-7.0-2.8-0.8-1.56-0.56,,,,,,,62a1979157e5b6c9a24af760,11:21:41 AM,1/15/2024
,"<p style=""font-size:14rem;font-weight:400;"">9</p>",,fwdspan,number,R3WUr1hZ3Ob9EiRohVKty8vX9Ay2,html-keyboard-response,111,613553,0.0-7.0-2.8-0.8-1.57-0.57,,,,,,,62a1979157e5b6c9a24af760,11:21:41 AM,1/15/2024
,"<p style=""font-size:14rem;font-weight:400;"">7</p>",,fwdspan,number,R3WUr1hZ3Ob9EiRohVKty8vX9Ay2,html-keyboard-response,112,614577,0.0-7.0-2.8-0.8-1.58-0.58,,,,,,,62a1979157e5b6c9a24af760,11:21:41 AM,1/15/2024
,"<p style=""font-size:14rem;font-weight:400;"">6</p>",,fwdspan,number,R3WUr1hZ3Ob9EiRohVKty8vX9Ay2,html-keyboard-response,113,615594,0.0-7.0-2.8-0.8-1.59-0.59,,,,,,,62a1979157e5b6c9a24af760,11:21:41 AM,1/15/2024
,"<p style=""font-size:14rem;font-weight:400;"">7</p>",,fwdspan,number,R3WUr1hZ3Ob9EiRohVKty8vX9Ay2,html-keyboard-response,114,616603,0.0-7.0-2.8-0.8-1.60-0.60,,,,,,,62a1979157e5b6c9a24af760,11:21:41 AM,1/15/2024
,[],,fwdspan,delay,R3WUr1hZ3Ob9EiRohVKty8vX9Ay2,html-keyboard-response,115,617164,0.0-7.0-2.8-0.8-2.8,,,,,,,62a1979157e5b6c9a24af760,11:21:41 AM,1/15/2024
14424.300000011921,"<div class = numbox><p style=""font-size:2.5rem"">What were the numbers <b>in order</b>?<br>(When you are ready to lock in your answer, press <b>ENTER</b>)</p><button id = button_1 class = ""square num-button"" onclick = ""recordClick(this)""><div class = content><div class = numbers>1</div></div></button><button id = button_2 class = ""square num-button"" onclick = ""recordClick(this)""><div class = content><div class = numbers>2</div></div></button><button id = button_3 class = ""square num-button"" onclick = ""recordClick(this)""><div class = content><div class = numbers>3</div></div></button><button id = button_4 class = ""square num-button"" onclick = ""recordClick(this)""><div class = content><div class = numbers>4</div></div></button><button id = button_5 class = ""square num-button"" onclick = ""recordClick(this)""><div class = content><div class = numbers>5</div></div></button><button id = button_6 class = ""square num-button"" onclick = ""recordClick(this)""><div class = content><div class = numbers>6</div></div></button><button id = button_7 class = ""square num-button"" onclick = ""recordClick(this)""><div class = content><div class = numbers>7</div></div></button><button id = button_8 class = ""square num-button"" onclick = ""recordClick(this)""><div class = content><div class = numbers>8</div></div></button><button id = button_9 class = ""square num-button"" onclick = ""recordClick(this)""><div class = content><div class = numbers>9</div></div></button><button class = clear_button id = ""ClearButton"" onclick = ""clearResponse()"">Clear</button><p><u><b>Current Answer:</b></u></p><div id=echoed_txt style=""font-size: 6rem; color:blue;""><b></b></div></div><br><br><br><br><br><br><br>",enter,fwdspan,response,R3WUr1hZ3Ob9EiRohVKty8vX9Ay2,html-keyboard-response,116,631591,0.0-7.0-2.8-0.8-3.8,10.0,"[2,8,1,4,5,5,6,9,7]","[2,8,1,4,5,3,9,7,6,7]",0.0,"[3, 4, 5, 6, 7, 8, 9, 9, 10, 10, 9, 10]",,62a1979157e5b6c9a24af760,11:21:41 AM,1/15/2024
,,,fwdspan,update_span,R3WUr1hZ3Ob9EiRohVKty8vX9Ay2,call-function,117,631853,0.0-7.0-2.8-0.8-4.8,,,,,,,62a1979157e5b6c9a24af760,11:21:41 AM,1/15/2024
14123.799999982119,"<p style=""font-size:3rem"">Trial 10 of 12</p><br><br><br>",0,fwdspan,start_trial,R3WUr1hZ3Ob9EiRohVKty8vX9Ay2,html-button-response,118,645978,0.0-7.0-2.9-0.9-0.9,,,,,,,62a1979157e5b6c9a24af760,11:21:41 AM,1/15/2024
,"<p style=""font-size:14rem;font-weight:400;"">6</p>",,fwdspan,number,R3WUr1hZ3Ob9EiRohVKty8vX9Ay2,html-keyboard-response,119,647002,0.0-7.0-2.9-0.9-1.61-0.61,,,,,,,62a1979157e5b6c9a24af760,11:21:41 AM,1/15/2024
,"<p style=""font-size:14rem;font-weight:400;"">3</p>",,fwdspan,number,R3WUr1hZ3Ob9EiRohVKty8vX9Ay2,html-keyboard-response,120,648024,0.0-7.0-2.9-0.9-1.62-0.62,,,,,,,62a1979157e5b6c9a24af760,11:21:41 AM,1/15/2024
,"<p style=""font-size:14rem;font-weight:400;"">5</p>",,fwdspan,number,R3WUr1hZ3Ob9EiRohVKty8vX9Ay2,html-keyboard-response,121,649036,0.0-7.0-2.9-0.9-1.63-0.63,,,,,,,62a1979157e5b6c9a24af760,11:21:41 AM,1/15/2024
,"<p style=""font-size:14rem;font-weight:400;"">1</p>",,fwdspan,number,R3WUr1hZ3Ob9EiRohVKty8vX9Ay2,html-keyboard-response,122,650069,0.0-7.0-2.9-0.9-1.64-0.64,,,,,,,62a1979157e5b6c9a24af760,11:21:41 AM,1/15/2024
,"<p style=""font-size:14rem;font-weight:400;"">8</p>",,fwdspan,number,R3WUr1hZ3Ob9EiRohVKty8vX9Ay2,html-keyboard-response,123,651077,0.0-7.0-2.9-0.9-1.65-0.65,,,,,,,62a1979157e5b6c9a24af760,11:21:41 AM,1/15/2024
,"<p style=""font-size:14rem;font-weight:400;"">4</p>",,fwdspan,number,R3WUr1hZ3Ob9EiRohVKty8vX9Ay2,html-keyboard-response,124,652104,0.0-7.0-2.9-0.9-1.66-0.66,,,,,,,62a1979157e5b6c9a24af760,11:21:41 AM,1/15/2024
,"<p style=""font-size:14rem;font-weight:400;"">9</p>",,fwdspan,number,R3WUr1hZ3Ob9EiRohVKty8vX9Ay2,html-keyboard-response,125,653128,0.0-7.0-2.9-0.9-1.67-0.67,,,,,,,62a1979157e5b6c9a24af760,11:21:41 AM,1/15/2024
,"<p style=""font-size:14rem;font-weight:400;"">7</p>",,fwdspan,number,R3WUr1hZ3Ob9EiRohVKty8vX9Ay2,html-keyboard-response,126,654140,0.0-7.0-2.9-0.9-1.68-0.68,,,,,,,62a1979157e5b6c9a24af760,11:21:41 AM,1/15/2024
,"<p style=""font-size:14rem;font-weight:400;"">2</p>",,fwdspan,number,R3WUr1hZ3Ob9EiRohVKty8vX9Ay2,html-keyboard-response,127,655162,0.0-7.0-2.9-0.9-1.69-0.69,,,,,,,62a1979157e5b6c9a24af760,11:21:41 AM,1/15/2024
,"<p style=""font-size:14rem;font-weight:400;"">8</p>",,fwdspan,number,R3WUr1hZ3Ob9EiRohVKty8vX9Ay2,html-keyboard-response,128,656177,0.0-7.0-2.9-0.9-1.70-0.70,,,,,,,62a1979157e5b6c9a24af760,11:21:41 AM,1/15/2024
,[],,fwdspan,delay,R3WUr1hZ3Ob9EiRohVKty8vX9Ay2,html-keyboard-response,129,656731,0.0-7.0-2.9-0.9-2.9,,,,,,,62a1979157e5b6c9a24af760,11:21:41 AM,1/15/2024
17971.20000001788,"<div class = numbox><p style=""font-size:2.5rem"">What were the numbers <b>in order</b>?<br>(When you are ready to lock in your answer, press <b>ENTER</b>)</p><button id = button_1 class = ""square num-button"" onclick = ""recordClick(this)""><div class = content><div class = numbers>1</div></div></button><button id = button_2 class = ""square num-button"" onclick = ""recordClick(this)""><div class = content><div class = numbers>2</div></div></button><button id = button_3 class = ""square num-button"" onclick = ""recordClick(this)""><div class = content><div class = numbers>3</div></div></button><button id = button_4 class = ""square num-button"" onclick = ""recordClick(this)""><div class = content><div class = numbers>4</div></div></button><button id = button_5 class = ""square num-button"" onclick = ""recordClick(this)""><div class = content><div class = numbers>5</div></div></button><button id = button_6 class = ""square num-button"" onclick = ""recordClick(this)""><div class = content><div class = numbers>6</div></div></button><button id = button_7 class = ""square num-button"" onclick = ""recordClick(this)""><div class = content><div class = numbers>7</div></div></button><button id = button_8 class = ""square num-button"" onclick = ""recordClick(this)""><div class = content><div class = numbers>8</div></div></button><button id = button_9 class = ""square num-button"" onclick = ""recordClick(this)""><div class = content><div class = numbers>9</div></div></button><button class = clear_button id = ""ClearButton"" onclick = ""clearResponse()"">Clear</button><p><u><b>Current Answer:</b></u></p><div id=echoed_txt style=""font-size: 6rem; color:blue;""><b></b></div></div><br><br><br><br><br><br><br>",enter,fwdspan,response,R3WUr1hZ3Ob9EiRohVKty8vX9Ay2,html-keyboard-response,130,674703,0.0-7.0-2.9-0.9-3.9,10.0,"[6,3,5,1,8,4,2,7,6,7]","[6,3,5,1,8,4,9,7,2,8]",0.0,"[3, 4, 5, 6, 7, 8, 9, 9, 10, 10, 9, 10]",,62a1979157e5b6c9a24af760,11:21:41 AM,1/15/2024
,,,fwdspan,update_span,R3WUr1hZ3Ob9EiRohVKty8vX9Ay2,call-function,131,674969,0.0-7.0-2.9-0.9-4.9,,,,,,,62a1979157e5b6c9a24af760,11:21:41 AM,1/15/2024
3316.300000011921,"<p style=""font-size:3rem"">Trial 11 of 12</p><br><br><br>",0,fwdspan,start_trial,R3WUr1hZ3Ob9EiRohVKty8vX9Ay2,html-button-response,132,678286,0.0-7.0-2.10-0.10-0.10,,,,,,,62a1979157e5b6c9a24af760,11:21:41 AM,1/15/2024
,"<p style=""font-size:14rem;font-weight:400;"">4</p>",,fwdspan,number,R3WUr1hZ3Ob9EiRohVKty8vX9Ay2,html-keyboard-response,133,679303,0.0-7.0-2.10-0.10-1.71-0.71,,,,,,,62a1979157e5b6c9a24af760,11:21:41 AM,1/15/2024
,"<p style=""font-size:14rem;font-weight:400;"">5</p>",,fwdspan,number,R3WUr1hZ3Ob9EiRohVKty8vX9Ay2,html-keyboard-response,134,680319,0.0-7.0-2.10-0.10-1.72-0.72,,,,,,,62a1979157e5b6c9a24af760,11:21:41 AM,1/15/2024
,"<p style=""font-size:14rem;font-weight:400;"">1</p>",,fwdspan,number,R3WUr1hZ3Ob9EiRohVKty8vX9Ay2,html-keyboard-response,135,681337,0.0-7.0-2.10-0.10-1.73-0.73,,,,,,,62a1979157e5b6c9a24af760,11:21:41 AM,1/15/2024
,"<p style=""font-size:14rem;font-weight:400;"">2</p>",,fwdspan,number,R3WUr1hZ3Ob9EiRohVKty8vX9Ay2,html-keyboard-response,136,682361,0.0-7.0-2.10-0.10-1.74-0.74,,,,,,,62a1979157e5b6c9a24af760,11:21:41 AM,1/15/2024
,"<p style=""font-size:14rem;font-weight:400;"">9</p>",,fwdspan,number,R3WUr1hZ3Ob9EiRohVKty8vX9Ay2,html-keyboard-response,137,683378,0.0-7.0-2.10-0.10-1.75-0.75,,,,,,,62a1979157e5b6c9a24af760,11:21:41 AM,1/15/2024
,"<p style=""font-size:14rem;font-weight:400;"">8</p>",,fwdspan,number,R3WUr1hZ3Ob9EiRohVKty8vX9Ay2,html-keyboard-response,138,684387,0.0-7.0-2.10-0.10-1.76-0.76,,,,,,,62a1979157e5b6c9a24af760,11:21:41 AM,1/15/2024
,"<p style=""font-size:14rem;font-weight:400;"">7</p>",,fwdspan,number,R3WUr1hZ3Ob9EiRohVKty8vX9Ay2,html-keyboard-response,139,685404,0.0-7.0-2.10-0.10-1.77-0.77,,,,,,,62a1979157e5b6c9a24af760,11:21:41 AM,1/15/2024
,"<p style=""font-size:14rem;font-weight:400;"">6</p>",,fwdspan,number,R3WUr1hZ3Ob9EiRohVKty8vX9Ay2,html-keyboard-response,140,686420,0.0-7.0-2.10-0.10-1.78-0.78,,,,,,,62a1979157e5b6c9a24af760,11:21:41 AM,1/15/2024
,"<p style=""font-size:14rem;font-weight:400;"">3</p>",,fwdspan,number,R3WUr1hZ3Ob9EiRohVKty8vX9Ay2,html-keyboard-response,141,687429,0.0-7.0-2.10-0.10-1.79-0.79,,,,,,,62a1979157e5b6c9a24af760,11:21:41 AM,1/15/2024
,[],,fwdspan,delay,R3WUr1hZ3Ob9EiRohVKty8vX9Ay2,html-keyboard-response,142,687998,0.0-7.0-2.10-0.10-2.10,,,,,,,62a1979157e5b6c9a24af760,11:21:41 AM,1/15/2024
11659.199999988079,"<div class = numbox><p style=""font-size:2.5rem"">What were the numbers <b>in order</b>?<br>(When you are ready to lock in your answer, press <b>ENTER</b>)</p><button id = button_1 class = ""square num-button"" onclick = ""recordClick(this)""><div class = content><div class = numbers>1</div></div></button><button id = button_2 class = ""square num-button"" onclick = ""recordClick(this)""><div class = content><div class = numbers>2</div></div></button><button id = button_3 class = ""square num-button"" onclick = ""recordClick(this)""><div class = content><div class = numbers>3</div></div></button><button id = button_4 class = ""square num-button"" onclick = ""recordClick(this)""><div class = content><div class = numbers>4</div></div></button><button id = button_5 class = ""square num-button"" onclick = ""recordClick(this)""><div class = content><div class = numbers>5</div></div></button><button id = button_6 class = ""square num-button"" onclick = ""recordClick(this)""><div class = content><div class = numbers>6</div></div></button><button id = button_7 class = ""square num-button"" onclick = ""recordClick(this)""><div class = content><div class = numbers>7</div></div></button><button id = button_8 class = ""square num-button"" onclick = ""recordClick(this)""><div class = content><div class = numbers>8</div></div></button><button id = button_9 class = ""square num-button"" onclick = ""recordClick(this)""><div class = content><div class = numbers>9</div></div></button><button class = clear_button id = ""ClearButton"" onclick = ""clearResponse()"">Clear</button><p><u><b>Current Answer:</b></u></p><div id=echoed_txt style=""font-size: 6rem; color:blue;""><b></b></div></div><br><br><br><br><br><br><br>",enter,fwdspan,response,R3WUr1hZ3Ob9EiRohVKty8vX9Ay2,html-keyboard-response,143,699660,0.0-7.0-2.10-0.10-3.10,9.0,"[4,5,1,2,9,8,7,6,3]","[4,5,1,2,9,8,7,6,3]",1.0,"[3, 4, 5, 6, 7, 8, 9, 9, 10, 10, 9, 10]",,62a1979157e5b6c9a24af760,11:21:41 AM,1/15/2024
,,,fwdspan,update_span,R3WUr1hZ3Ob9EiRohVKty8vX9Ay2,call-function,144,699920,0.0-7.0-2.10-0.10-4.10,,,,,,,62a1979157e5b6c9a24af760,11:21:41 AM,1/15/2024
3735.9000000059605,"<p style=""font-size:3rem"">Trial 12 of 12</p><br><br><br>",0,fwdspan,start_trial,R3WUr1hZ3Ob9EiRohVKty8vX9Ay2,html-button-response,145,703656,0.0-7.0-2.11-0.11-0.11,,,,,,,62a1979157e5b6c9a24af760,11:21:41 AM,1/15/2024
,"<p style=""font-size:14rem;font-weight:400;"">1</p>",,fwdspan,number,R3WUr1hZ3Ob9EiRohVKty8vX9Ay2,html-keyboard-response,146,704661,0.0-7.0-2.11-0.11-1.80-0.80,,,,,,,62a1979157e5b6c9a24af760,11:21:41 AM,1/15/2024
,"<p style=""font-size:14rem;font-weight:400;"">3</p>",,fwdspan,number,R3WUr1hZ3Ob9EiRohVKty8vX9Ay2,html-keyboard-response,147,705686,0.0-7.0-2.11-0.11-1.81-0.81,,,,,,,62a1979157e5b6c9a24af760,11:21:41 AM,1/15/2024
,"<p style=""font-size:14rem;font-weight:400;"">4</p>",,fwdspan,number,R3WUr1hZ3Ob9EiRohVKty8vX9Ay2,html-keyboard-response,148,706703,0.0-7.0-2.11-0.11-1.82-0.82,,,,,,,62a1979157e5b6c9a24af760,11:21:41 AM,1/15/2024
,"<p style=""font-size:14rem;font-weight:400;"">5</p>",,fwdspan,number,R3WUr1hZ3Ob9EiRohVKty8vX9Ay2,html-keyboard-response,149,707728,0.0-7.0-2.11-0.11-1.83-0.83,,,,,,,62a1979157e5b6c9a24af760,11:21:41 AM,1/15/2024
,"<p style=""font-size:14rem;font-weight:400;"">9</p>",,fwdspan,number,R3WUr1hZ3Ob9EiRohVKty8vX9Ay2,html-keyboard-response,150,708745,0.0-7.0-2.11-0.11-1.84-0.84,,,,,,,62a1979157e5b6c9a24af760,11:21:41 AM,1/15/2024
,"<p style=""font-size:14rem;font-weight:400;"">7</p>",,fwdspan,number,R3WUr1hZ3Ob9EiRohVKty8vX9Ay2,html-keyboard-response,151,709762,0.0-7.0-2.11-0.11-1.85-0.85,,,,,,,62a1979157e5b6c9a24af760,11:21:41 AM,1/15/2024
,"<p style=""font-size:14rem;font-weight:400;"">6</p>",,fwdspan,number,R3WUr1hZ3Ob9EiRohVKty8vX9Ay2,html-keyboard-response,152,710778,0.0-7.0-2.11-0.11-1.86-0.86,,,,,,,62a1979157e5b6c9a24af760,11:21:41 AM,1/15/2024
,"<p style=""font-size:14rem;font-weight:400;"">2</p>",,fwdspan,number,R3WUr1hZ3Ob9EiRohVKty8vX9Ay2,html-keyboard-response,153,711794,0.0-7.0-2.11-0.11-1.87-0.87,,,,,,,62a1979157e5b6c9a24af760,11:21:41 AM,1/15/2024
,"<p style=""font-size:14rem;font-weight:400;"">8</p>",,fwdspan,number,R3WUr1hZ3Ob9EiRohVKty8vX9Ay2,html-keyboard-response,154,712806,0.0-7.0-2.11-0.11-1.88-0.88,,,,,,,62a1979157e5b6c9a24af760,11:21:41 AM,1/15/2024
,"<p style=""font-size:14rem;font-weight:400;"">7</p>",,fwdspan,number,R3WUr1hZ3Ob9EiRohVKty8vX9Ay2,html-keyboard-response,155,713821,0.0-7.0-2.11-0.11-1.89-0.89,,,,,,,62a1979157e5b6c9a24af760,11:21:41 AM,1/15/2024
,[],,fwdspan,delay,R3WUr1hZ3Ob9EiRohVKty8vX9Ay2,html-keyboard-response,156,714382,0.0-7.0-2.11-0.11-2.11,,,,,,,62a1979157e5b6c9a24af760,11:21:41 AM,1/15/2024
13844.700000017881,"<div class = numbox><p style=""font-size:2.5rem"">What were the numbers <b>in order</b>?<br>(When you are ready to lock in your answer, press <b>ENTER</b>)</p><button id = button_1 class = ""square num-button"" onclick = ""recordClick(this)""><div class = content><div class = numbers>1</div></div></button><button id = button_2 class = ""square num-button"" onclick = ""recordClick(this)""><div class = content><div class = numbers>2</div></div></button><button id = button_3 class = ""square num-button"" onclick = ""recordClick(this)""><div class = content><div class = numbers>3</div></div></button><button id = button_4 class = ""square num-button"" onclick = ""recordClick(this)""><div class = content><div class = numbers>4</div></div></button><button id = button_5 class = ""square num-button"" onclick = ""recordClick(this)""><div class = content><div class = numbers>5</div></div></button><button id = button_6 class = ""square num-button"" onclick = ""recordClick(this)""><div class = content><div class = numbers>6</div></div></button><button id = button_7 class = ""square num-button"" onclick = ""recordClick(this)""><div class = content><div class = numbers>7</div></div></button><button id = button_8 class = ""square num-button"" onclick = ""recordClick(this)""><div class = content><div class = numbers>8</div></div></button><button id = button_9 class = ""square num-button"" onclick = ""recordClick(this)""><div class = content><div class = numbers>9</div></div></button><button class = clear_button id = ""ClearButton"" onclick = ""clearResponse()"">Clear</button><p><u><b>Current Answer:</b></u></p><div id=echoed_txt style=""font-size: 6rem; color:blue;""><b></b></div></div><br><br><br><br><br><br><br>",enter,fwdspan,response,R3WUr1hZ3Ob9EiRohVKty8vX9Ay2,html-keyboard-response,157,728229,0.0-7.0-2.11-0.11-3.11,10.0,"[1,3,4,2,9,9,7,6,2,8,7]","[1,3,4,5,9,7,6,2,8,7]",0.0,"[3, 4, 5, 6, 7, 8, 9, 9, 10, 10, 9, 10]",,62a1979157e5b6c9a24af760,11:21:41 AM,1/15/2024
,,,fwdspan,update_span,R3WUr1hZ3Ob9EiRohVKty8vX9Ay2,call-function,158,728487,0.0-7.0-2.11-0.11-4.11,,,,,,,62a1979157e5b6c9a24af760,11:21:41 AM,1/15/2024
57278.69999998808,,"{'Q0': 'I enjoyed the task of remembering the numbers, all aspects of the study were great, thank you'}",fwdspan,survey,R3WUr1hZ3Ob9EiRohVKty8vX9Ay2,lmdlab-survey-text,159,786521,0.0-7.0-3.0,,,,,,R3WUr1hZ3Ob9EiRohVKty8vX9Ay2,62a1979157e5b6c9a24af760,11:21:41 AM,1/15/2024
3324.699999988079,<p><p style='font-size: 3rem'>Great work!<br><br>This completes the digit span task.</p><br><br><br>,0,fwdspan,finish,R3WUr1hZ3Ob9EiRohVKty8vX9Ay2,html-button-response,160,789852,0.0-7.0-4.0,,,,,,,62a1979157e5b6c9a24af760,11:21:41 AM,1/15/2024
