rt,stimulus,response,exp_name,exp_stage,subjectID,trial_type,trial_index,time_elapsed,internal_node_id,span,answer,correct,correct_full,span_history,databaseID,prolificID,start_time,date
5078.0,"<p style=""font-size:4rem""><br><br>In the next part today, we have a completely different short task.<br><br><br>This part involves keeping numbers in you mind. Participation takes around 5 minutes.<br><br><br></p>",0,fwdspan,instruct,vpxiOKhynibVMEWma56HyrApJQW2,html-button-response,19,393745,0.0-7.0-0.0,,,,,,,5f3ec6221b5af3158bc86acd,11:21:09,15/01/2024
15372.5,"<p style=""font-size:5rem"">Welcome to the <b>digit span task</b>!<br><br></p><p style=""font-size:3.4rem""><br>On each trial, you will see a sequence of digits, followed by a delay.</p><p style=""font-size:3.4rem""><br>Then you will be asked to type them back in the same order in which they were seen.</p><p style=""font-size:3.4rem""><br><br><br>For example, if you saw the digits <b style=""color:blue;"">1</b>, <b style=""color:blue;"">2</b>, <b style=""color:blue;"">3</b>, you would respond with <b style=""color:blue;"">1</b>, <b style=""color:blue;"">2</b>, <b style=""color:blue;"">3</b></p><p style=""font-size:3.4rem""><br><br><br>To ensure the best measure of true performance for our study,<br><br>it is very important that you do not use any memory aid (e.g., pen and paper).<br><br>Please do the task solely in your head.</p><p style=""font-size:3.4rem""><br><br><br>There will be 12 total trials. Participation takes around 5 minutes.</p><br><br><br>",0,fwdspan,instruct,vpxiOKhynibVMEWma56HyrApJQW2,html-button-response,20,409119,0.0-7.0-1.0,,,,,,,5f3ec6221b5af3158bc86acd,11:21:09,15/01/2024
1714.9000000953674,"<p style=""font-size:3rem"">Trial 1 of 12</p><br><br><br>",0,fwdspan,start_trial,vpxiOKhynibVMEWma56HyrApJQW2,html-button-response,21,410835,0.0-7.0-2.0-0.0-0.0,,,,,,,5f3ec6221b5af3158bc86acd,11:21:09,15/01/2024
,"<p style=""font-size:14rem;font-weight:400;"">9</p>",,fwdspan,number,vpxiOKhynibVMEWma56HyrApJQW2,html-keyboard-response,22,411838,0.0-7.0-2.0-0.0-1.0-0.0,,,,,,,5f3ec6221b5af3158bc86acd,11:21:09,15/01/2024
,"<p style=""font-size:14rem;font-weight:400;"">3</p>",,fwdspan,number,vpxiOKhynibVMEWma56HyrApJQW2,html-keyboard-response,23,412863,0.0-7.0-2.0-0.0-1.1-0.1,,,,,,,5f3ec6221b5af3158bc86acd,11:21:09,15/01/2024
,"<p style=""font-size:14rem;font-weight:400;"">8</p>",,fwdspan,number,vpxiOKhynibVMEWma56HyrApJQW2,html-keyboard-response,24,413887,0.0-7.0-2.0-0.0-1.2-0.2,,,,,,,5f3ec6221b5af3158bc86acd,11:21:09,15/01/2024
,[],,fwdspan,delay,vpxiOKhynibVMEWma56HyrApJQW2,html-keyboard-response,25,414461,0.0-7.0-2.0-0.0-2.0,,,,,,,5f3ec6221b5af3158bc86acd,11:21:09,15/01/2024
6484.599999904633,"<div class = numbox><p style=""font-size:2.5rem"">What were the numbers <b>in order</b>?<br>(When you are ready to lock in your answer, press <b>ENTER</b>)</p><button id = button_1 class = ""square num-button"" onclick = ""recordClick(this)""><div class = content><div class = numbers>1</div></div></button><button id = button_2 class = ""square num-button"" onclick = ""recordClick(this)""><div class = content><div class = numbers>2</div></div></button><button id = button_3 class = ""square num-button"" onclick = ""recordClick(this)""><div class = content><div class = numbers>3</div></div></button><button id = button_4 class = ""square num-button"" onclick = ""recordClick(this)""><div class = content><div class = numbers>4</div></div></button><button id = button_5 class = ""square num-button"" onclick = ""recordClick(this)""><div class = content><div class = numbers>5</div></div></button><button id = button_6 class = ""square num-button"" onclick = ""recordClick(this)""><div class = content><div class = numbers>6</div></div></button><button id = button_7 class = ""square num-button"" onclick = ""recordClick(this)""><div class = content><div class = numbers>7</div></div></button><button id = button_8 class = ""square num-button"" onclick = ""recordClick(this)""><div class = content><div class = numbers>8</div></div></button><button id = button_9 class = ""square num-button"" onclick = ""recordClick(this)""><div class = content><div class = numbers>9</div></div></button><button class = clear_button id = ""ClearButton"" onclick = ""clearResponse()"">Clear</button><p><u><b>Current Answer:</b></u></p><div id=echoed_txt style=""font-size: 6rem; color:blue;""><b></b></div></div><br><br><br><br><br><br><br>",enter,fwdspan,response,vpxiOKhynibVMEWma56HyrApJQW2,html-keyboard-response,26,420947,0.0-7.0-2.0-0.0-3.0,3.0,"[9,3,8]","[9,3,8]",1.0,"[3, 4, 5, 6, 7, 7, 6, 6, 5, 6, 6, 5]",,5f3ec6221b5af3158bc86acd,11:21:09,15/01/2024
,,,fwdspan,update_span,vpxiOKhynibVMEWma56HyrApJQW2,call-function,27,421213,0.0-7.0-2.0-0.0-4.0,,,,,,,5f3ec6221b5af3158bc86acd,11:21:09,15/01/2024
1462.9000000953674,"<p style=""font-size:3rem"">Trial 2 of 12</p><br><br><br>",0,fwdspan,start_trial,vpxiOKhynibVMEWma56HyrApJQW2,html-button-response,28,422677,0.0-7.0-2.1-0.1-0.1,,,,,,,5f3ec6221b5af3158bc86acd,11:21:09,15/01/2024
,"<p style=""font-size:14rem;font-weight:400;"">1</p>",,fwdspan,number,vpxiOKhynibVMEWma56HyrApJQW2,html-keyboard-response,29,423698,0.0-7.0-2.1-0.1-1.3-0.3,,,,,,,5f3ec6221b5af3158bc86acd,11:21:09,15/01/2024
,"<p style=""font-size:14rem;font-weight:400;"">7</p>",,fwdspan,number,vpxiOKhynibVMEWma56HyrApJQW2,html-keyboard-response,30,424704,0.0-7.0-2.1-0.1-1.4-0.4,,,,,,,5f3ec6221b5af3158bc86acd,11:21:09,15/01/2024
,"<p style=""font-size:14rem;font-weight:400;"">5</p>",,fwdspan,number,vpxiOKhynibVMEWma56HyrApJQW2,html-keyboard-response,31,425722,0.0-7.0-2.1-0.1-1.5-0.5,,,,,,,5f3ec6221b5af3158bc86acd,11:21:09,15/01/2024
,"<p style=""font-size:14rem;font-weight:400;"">2</p>",,fwdspan,number,vpxiOKhynibVMEWma56HyrApJQW2,html-keyboard-response,32,426736,0.0-7.0-2.1-0.1-1.6-0.6,,,,,,,5f3ec6221b5af3158bc86acd,11:21:09,15/01/2024
,[],,fwdspan,delay,vpxiOKhynibVMEWma56HyrApJQW2,html-keyboard-response,33,427312,0.0-7.0-2.1-0.1-2.1,,,,,,,5f3ec6221b5af3158bc86acd,11:21:09,15/01/2024
9290.900000095367,"<div class = numbox><p style=""font-size:2.5rem"">What were the numbers <b>in order</b>?<br>(When you are ready to lock in your answer, press <b>ENTER</b>)</p><button id = button_1 class = ""square num-button"" onclick = ""recordClick(this)""><div class = content><div class = numbers>1</div></div></button><button id = button_2 class = ""square num-button"" onclick = ""recordClick(this)""><div class = content><div class = numbers>2</div></div></button><button id = button_3 class = ""square num-button"" onclick = ""recordClick(this)""><div class = content><div class = numbers>3</div></div></button><button id = button_4 class = ""square num-button"" onclick = ""recordClick(this)""><div class = content><div class = numbers>4</div></div></button><button id = button_5 class = ""square num-button"" onclick = ""recordClick(this)""><div class = content><div class = numbers>5</div></div></button><button id = button_6 class = ""square num-button"" onclick = ""recordClick(this)""><div class = content><div class = numbers>6</div></div></button><button id = button_7 class = ""square num-button"" onclick = ""recordClick(this)""><div class = content><div class = numbers>7</div></div></button><button id = button_8 class = ""square num-button"" onclick = ""recordClick(this)""><div class = content><div class = numbers>8</div></div></button><button id = button_9 class = ""square num-button"" onclick = ""recordClick(this)""><div class = content><div class = numbers>9</div></div></button><button class = clear_button id = ""ClearButton"" onclick = ""clearResponse()"">Clear</button><p><u><b>Current Answer:</b></u></p><div id=echoed_txt style=""font-size: 6rem; color:blue;""><b></b></div></div><br><br><br><br><br><br><br>",enter,fwdspan,response,vpxiOKhynibVMEWma56HyrApJQW2,html-keyboard-response,34,436604,0.0-7.0-2.1-0.1-3.1,4.0,"[1,7,5,2]","[1,7,5,2]",1.0,"[3, 4, 5, 6, 7, 7, 6, 6, 5, 6, 6, 5]",,5f3ec6221b5af3158bc86acd,11:21:09,15/01/2024
,,,fwdspan,update_span,vpxiOKhynibVMEWma56HyrApJQW2,call-function,35,436856,0.0-7.0-2.1-0.1-4.1,,,,,,,5f3ec6221b5af3158bc86acd,11:21:09,15/01/2024
1426.0999999046326,"<p style=""font-size:3rem"">Trial 3 of 12</p><br><br><br>",0,fwdspan,start_trial,vpxiOKhynibVMEWma56HyrApJQW2,html-button-response,36,438283,0.0-7.0-2.2-0.2-0.2,,,,,,,5f3ec6221b5af3158bc86acd,11:21:09,15/01/2024
,"<p style=""font-size:14rem;font-weight:400;"">6</p>",,fwdspan,number,vpxiOKhynibVMEWma56HyrApJQW2,html-keyboard-response,37,439311,0.0-7.0-2.2-0.2-1.7-0.7,,,,,,,5f3ec6221b5af3158bc86acd,11:21:09,15/01/2024
,"<p style=""font-size:14rem;font-weight:400;"">1</p>",,fwdspan,number,vpxiOKhynibVMEWma56HyrApJQW2,html-keyboard-response,38,440334,0.0-7.0-2.2-0.2-1.8-0.8,,,,,,,5f3ec6221b5af3158bc86acd,11:21:09,15/01/2024
,"<p style=""font-size:14rem;font-weight:400;"">8</p>",,fwdspan,number,vpxiOKhynibVMEWma56HyrApJQW2,html-keyboard-response,39,441357,0.0-7.0-2.2-0.2-1.9-0.9,,,,,,,5f3ec6221b5af3158bc86acd,11:21:09,15/01/2024
,"<p style=""font-size:14rem;font-weight:400;"">7</p>",,fwdspan,number,vpxiOKhynibVMEWma56HyrApJQW2,html-keyboard-response,40,442386,0.0-7.0-2.2-0.2-1.10-0.10,,,,,,,5f3ec6221b5af3158bc86acd,11:21:09,15/01/2024
,"<p style=""font-size:14rem;font-weight:400;"">9</p>",,fwdspan,number,vpxiOKhynibVMEWma56HyrApJQW2,html-keyboard-response,41,443411,0.0-7.0-2.2-0.2-1.11-0.11,,,,,,,5f3ec6221b5af3158bc86acd,11:21:09,15/01/2024
,[],,fwdspan,delay,vpxiOKhynibVMEWma56HyrApJQW2,html-keyboard-response,42,443986,0.0-7.0-2.2-0.2-2.2,,,,,,,5f3ec6221b5af3158bc86acd,11:21:09,15/01/2024
4386.400000095367,"<div class = numbox><p style=""font-size:2.5rem"">What were the numbers <b>in order</b>?<br>(When you are ready to lock in your answer, press <b>ENTER</b>)</p><button id = button_1 class = ""square num-button"" onclick = ""recordClick(this)""><div class = content><div class = numbers>1</div></div></button><button id = button_2 class = ""square num-button"" onclick = ""recordClick(this)""><div class = content><div class = numbers>2</div></div></button><button id = button_3 class = ""square num-button"" onclick = ""recordClick(this)""><div class = content><div class = numbers>3</div></div></button><button id = button_4 class = ""square num-button"" onclick = ""recordClick(this)""><div class = content><div class = numbers>4</div></div></button><button id = button_5 class = ""square num-button"" onclick = ""recordClick(this)""><div class = content><div class = numbers>5</div></div></button><button id = button_6 class = ""square num-button"" onclick = ""recordClick(this)""><div class = content><div class = numbers>6</div></div></button><button id = button_7 class = ""square num-button"" onclick = ""recordClick(this)""><div class = content><div class = numbers>7</div></div></button><button id = button_8 class = ""square num-button"" onclick = ""recordClick(this)""><div class = content><div class = numbers>8</div></div></button><button id = button_9 class = ""square num-button"" onclick = ""recordClick(this)""><div class = content><div class = numbers>9</div></div></button><button class = clear_button id = ""ClearButton"" onclick = ""clearResponse()"">Clear</button><p><u><b>Current Answer:</b></u></p><div id=echoed_txt style=""font-size: 6rem; color:blue;""><b></b></div></div><br><br><br><br><br><br><br>",enter,fwdspan,response,vpxiOKhynibVMEWma56HyrApJQW2,html-keyboard-response,43,448374,0.0-7.0-2.2-0.2-3.2,5.0,"[6,1,8,7,9]","[6,1,8,7,9]",1.0,"[3, 4, 5, 6, 7, 7, 6, 6, 5, 6, 6, 5]",,5f3ec6221b5af3158bc86acd,11:21:09,15/01/2024
,,,fwdspan,update_span,vpxiOKhynibVMEWma56HyrApJQW2,call-function,44,448632,0.0-7.0-2.2-0.2-4.2,,,,,,,5f3ec6221b5af3158bc86acd,11:21:09,15/01/2024
1720.5,"<p style=""font-size:3rem"">Trial 4 of 12</p><br><br><br>",0,fwdspan,start_trial,vpxiOKhynibVMEWma56HyrApJQW2,html-button-response,45,450353,0.0-7.0-2.3-0.3-0.3,,,,,,,5f3ec6221b5af3158bc86acd,11:21:09,15/01/2024
,"<p style=""font-size:14rem;font-weight:400;"">6</p>",,fwdspan,number,vpxiOKhynibVMEWma56HyrApJQW2,html-keyboard-response,46,451366,0.0-7.0-2.3-0.3-1.12-0.12,,,,,,,5f3ec6221b5af3158bc86acd,11:21:09,15/01/2024
,"<p style=""font-size:14rem;font-weight:400;"">8</p>",,fwdspan,number,vpxiOKhynibVMEWma56HyrApJQW2,html-keyboard-response,47,452391,0.0-7.0-2.3-0.3-1.13-0.13,,,,,,,5f3ec6221b5af3158bc86acd,11:21:09,15/01/2024
,"<p style=""font-size:14rem;font-weight:400;"">9</p>",,fwdspan,number,vpxiOKhynibVMEWma56HyrApJQW2,html-keyboard-response,48,453414,0.0-7.0-2.3-0.3-1.14-0.14,,,,,,,5f3ec6221b5af3158bc86acd,11:21:09,15/01/2024
,"<p style=""font-size:14rem;font-weight:400;"">1</p>",,fwdspan,number,vpxiOKhynibVMEWma56HyrApJQW2,html-keyboard-response,49,454441,0.0-7.0-2.3-0.3-1.15-0.15,,,,,,,5f3ec6221b5af3158bc86acd,11:21:09,15/01/2024
,"<p style=""font-size:14rem;font-weight:400;"">7</p>",,fwdspan,number,vpxiOKhynibVMEWma56HyrApJQW2,html-keyboard-response,50,455461,0.0-7.0-2.3-0.3-1.16-0.16,,,,,,,5f3ec6221b5af3158bc86acd,11:21:09,15/01/2024
,"<p style=""font-size:14rem;font-weight:400;"">3</p>",,fwdspan,number,vpxiOKhynibVMEWma56HyrApJQW2,html-keyboard-response,51,456488,0.0-7.0-2.3-0.3-1.17-0.17,,,,,,,5f3ec6221b5af3158bc86acd,11:21:09,15/01/2024
,[],,fwdspan,delay,vpxiOKhynibVMEWma56HyrApJQW2,html-keyboard-response,52,457063,0.0-7.0-2.3-0.3-2.3,,,,,,,5f3ec6221b5af3158bc86acd,11:21:09,15/01/2024
5505.89999961853,"<div class = numbox><p style=""font-size:2.5rem"">What were the numbers <b>in order</b>?<br>(When you are ready to lock in your answer, press <b>ENTER</b>)</p><button id = button_1 class = ""square num-button"" onclick = ""recordClick(this)""><div class = content><div class = numbers>1</div></div></button><button id = button_2 class = ""square num-button"" onclick = ""recordClick(this)""><div class = content><div class = numbers>2</div></div></button><button id = button_3 class = ""square num-button"" onclick = ""recordClick(this)""><div class = content><div class = numbers>3</div></div></button><button id = button_4 class = ""square num-button"" onclick = ""recordClick(this)""><div class = content><div class = numbers>4</div></div></button><button id = button_5 class = ""square num-button"" onclick = ""recordClick(this)""><div class = content><div class = numbers>5</div></div></button><button id = button_6 class = ""square num-button"" onclick = ""recordClick(this)""><div class = content><div class = numbers>6</div></div></button><button id = button_7 class = ""square num-button"" onclick = ""recordClick(this)""><div class = content><div class = numbers>7</div></div></button><button id = button_8 class = ""square num-button"" onclick = ""recordClick(this)""><div class = content><div class = numbers>8</div></div></button><button id = button_9 class = ""square num-button"" onclick = ""recordClick(this)""><div class = content><div class = numbers>9</div></div></button><button class = clear_button id = ""ClearButton"" onclick = ""clearResponse()"">Clear</button><p><u><b>Current Answer:</b></u></p><div id=echoed_txt style=""font-size: 6rem; color:blue;""><b></b></div></div><br><br><br><br><br><br><br>",enter,fwdspan,response,vpxiOKhynibVMEWma56HyrApJQW2,html-keyboard-response,53,462570,0.0-7.0-2.3-0.3-3.3,6.0,"[6,8,9,1,7,3]","[6,8,9,1,7,3]",1.0,"[3, 4, 5, 6, 7, 7, 6, 6, 5, 6, 6, 5]",,5f3ec6221b5af3158bc86acd,11:21:09,15/01/2024
,,,fwdspan,update_span,vpxiOKhynibVMEWma56HyrApJQW2,call-function,54,462834,0.0-7.0-2.3-0.3-4.3,,,,,,,5f3ec6221b5af3158bc86acd,11:21:09,15/01/2024
1140.5,"<p style=""font-size:3rem"">Trial 5 of 12</p><br><br><br>",0,fwdspan,start_trial,vpxiOKhynibVMEWma56HyrApJQW2,html-button-response,55,463975,0.0-7.0-2.4-0.4-0.4,,,,,,,5f3ec6221b5af3158bc86acd,11:21:09,15/01/2024
,"<p style=""font-size:14rem;font-weight:400;"">7</p>",,fwdspan,number,vpxiOKhynibVMEWma56HyrApJQW2,html-keyboard-response,56,464993,0.0-7.0-2.4-0.4-1.18-0.18,,,,,,,5f3ec6221b5af3158bc86acd,11:21:09,15/01/2024
,"<p style=""font-size:14rem;font-weight:400;"">2</p>",,fwdspan,number,vpxiOKhynibVMEWma56HyrApJQW2,html-keyboard-response,57,466021,0.0-7.0-2.4-0.4-1.19-0.19,,,,,,,5f3ec6221b5af3158bc86acd,11:21:09,15/01/2024
,"<p style=""font-size:14rem;font-weight:400;"">4</p>",,fwdspan,number,vpxiOKhynibVMEWma56HyrApJQW2,html-keyboard-response,58,467048,0.0-7.0-2.4-0.4-1.20-0.20,,,,,,,5f3ec6221b5af3158bc86acd,11:21:09,15/01/2024
,"<p style=""font-size:14rem;font-weight:400;"">8</p>",,fwdspan,number,vpxiOKhynibVMEWma56HyrApJQW2,html-keyboard-response,59,468072,0.0-7.0-2.4-0.4-1.21-0.21,,,,,,,5f3ec6221b5af3158bc86acd,11:21:09,15/01/2024
,"<p style=""font-size:14rem;font-weight:400;"">3</p>",,fwdspan,number,vpxiOKhynibVMEWma56HyrApJQW2,html-keyboard-response,60,469083,0.0-7.0-2.4-0.4-1.22-0.22,,,,,,,5f3ec6221b5af3158bc86acd,11:21:09,15/01/2024
,"<p style=""font-size:14rem;font-weight:400;"">5</p>",,fwdspan,number,vpxiOKhynibVMEWma56HyrApJQW2,html-keyboard-response,61,470110,0.0-7.0-2.4-0.4-1.23-0.23,,,,,,,5f3ec6221b5af3158bc86acd,11:21:09,15/01/2024
,"<p style=""font-size:14rem;font-weight:400;"">1</p>",,fwdspan,number,vpxiOKhynibVMEWma56HyrApJQW2,html-keyboard-response,62,471137,0.0-7.0-2.4-0.4-1.24-0.24,,,,,,,5f3ec6221b5af3158bc86acd,11:21:09,15/01/2024
,[],,fwdspan,delay,vpxiOKhynibVMEWma56HyrApJQW2,html-keyboard-response,63,471714,0.0-7.0-2.4-0.4-2.4,,,,,,,5f3ec6221b5af3158bc86acd,11:21:09,15/01/2024
9939.5,"<div class = numbox><p style=""font-size:2.5rem"">What were the numbers <b>in order</b>?<br>(When you are ready to lock in your answer, press <b>ENTER</b>)</p><button id = button_1 class = ""square num-button"" onclick = ""recordClick(this)""><div class = content><div class = numbers>1</div></div></button><button id = button_2 class = ""square num-button"" onclick = ""recordClick(this)""><div class = content><div class = numbers>2</div></div></button><button id = button_3 class = ""square num-button"" onclick = ""recordClick(this)""><div class = content><div class = numbers>3</div></div></button><button id = button_4 class = ""square num-button"" onclick = ""recordClick(this)""><div class = content><div class = numbers>4</div></div></button><button id = button_5 class = ""square num-button"" onclick = ""recordClick(this)""><div class = content><div class = numbers>5</div></div></button><button id = button_6 class = ""square num-button"" onclick = ""recordClick(this)""><div class = content><div class = numbers>6</div></div></button><button id = button_7 class = ""square num-button"" onclick = ""recordClick(this)""><div class = content><div class = numbers>7</div></div></button><button id = button_8 class = ""square num-button"" onclick = ""recordClick(this)""><div class = content><div class = numbers>8</div></div></button><button id = button_9 class = ""square num-button"" onclick = ""recordClick(this)""><div class = content><div class = numbers>9</div></div></button><button class = clear_button id = ""ClearButton"" onclick = ""clearResponse()"">Clear</button><p><u><b>Current Answer:</b></u></p><div id=echoed_txt style=""font-size: 6rem; color:blue;""><b></b></div></div><br><br><br><br><br><br><br>",enter,fwdspan,response,vpxiOKhynibVMEWma56HyrApJQW2,html-keyboard-response,64,481654,0.0-7.0-2.4-0.4-3.4,7.0,"[7,2,4,8,3,6,5,1]","[7,2,4,8,3,5,1]",0.0,"[3, 4, 5, 6, 7, 7, 6, 6, 5, 6, 6, 5]",,5f3ec6221b5af3158bc86acd,11:21:09,15/01/2024
,,,fwdspan,update_span,vpxiOKhynibVMEWma56HyrApJQW2,call-function,65,481915,0.0-7.0-2.4-0.4-4.4,,,,,,,5f3ec6221b5af3158bc86acd,11:21:09,15/01/2024
1222.5,"<p style=""font-size:3rem"">Trial 6 of 12</p><br><br><br>",0,fwdspan,start_trial,vpxiOKhynibVMEWma56HyrApJQW2,html-button-response,66,483138,0.0-7.0-2.5-0.5-0.5,,,,,,,5f3ec6221b5af3158bc86acd,11:21:09,15/01/2024
,"<p style=""font-size:14rem;font-weight:400;"">9</p>",,fwdspan,number,vpxiOKhynibVMEWma56HyrApJQW2,html-keyboard-response,67,484168,0.0-7.0-2.5-0.5-1.25-0.25,,,,,,,5f3ec6221b5af3158bc86acd,11:21:09,15/01/2024
,"<p style=""font-size:14rem;font-weight:400;"">7</p>",,fwdspan,number,vpxiOKhynibVMEWma56HyrApJQW2,html-keyboard-response,68,485193,0.0-7.0-2.5-0.5-1.26-0.26,,,,,,,5f3ec6221b5af3158bc86acd,11:21:09,15/01/2024
,"<p style=""font-size:14rem;font-weight:400;"">6</p>",,fwdspan,number,vpxiOKhynibVMEWma56HyrApJQW2,html-keyboard-response,69,486218,0.0-7.0-2.5-0.5-1.27-0.27,,,,,,,5f3ec6221b5af3158bc86acd,11:21:09,15/01/2024
,"<p style=""font-size:14rem;font-weight:400;"">8</p>",,fwdspan,number,vpxiOKhynibVMEWma56HyrApJQW2,html-keyboard-response,70,487243,0.0-7.0-2.5-0.5-1.28-0.28,,,,,,,5f3ec6221b5af3158bc86acd,11:21:09,15/01/2024
,"<p style=""font-size:14rem;font-weight:400;"">2</p>",,fwdspan,number,vpxiOKhynibVMEWma56HyrApJQW2,html-keyboard-response,71,488257,0.0-7.0-2.5-0.5-1.29-0.29,,,,,,,5f3ec6221b5af3158bc86acd,11:21:09,15/01/2024
,"<p style=""font-size:14rem;font-weight:400;"">5</p>",,fwdspan,number,vpxiOKhynibVMEWma56HyrApJQW2,html-keyboard-response,72,489270,0.0-7.0-2.5-0.5-1.30-0.30,,,,,,,5f3ec6221b5af3158bc86acd,11:21:09,15/01/2024
,"<p style=""font-size:14rem;font-weight:400;"">1</p>",,fwdspan,number,vpxiOKhynibVMEWma56HyrApJQW2,html-keyboard-response,73,490287,0.0-7.0-2.5-0.5-1.31-0.31,,,,,,,5f3ec6221b5af3158bc86acd,11:21:09,15/01/2024
,[],,fwdspan,delay,vpxiOKhynibVMEWma56HyrApJQW2,html-keyboard-response,74,490862,0.0-7.0-2.5-0.5-2.5,,,,,,,5f3ec6221b5af3158bc86acd,11:21:09,15/01/2024
7366.699999809265,"<div class = numbox><p style=""font-size:2.5rem"">What were the numbers <b>in order</b>?<br>(When you are ready to lock in your answer, press <b>ENTER</b>)</p><button id = button_1 class = ""square num-button"" onclick = ""recordClick(this)""><div class = content><div class = numbers>1</div></div></button><button id = button_2 class = ""square num-button"" onclick = ""recordClick(this)""><div class = content><div class = numbers>2</div></div></button><button id = button_3 class = ""square num-button"" onclick = ""recordClick(this)""><div class = content><div class = numbers>3</div></div></button><button id = button_4 class = ""square num-button"" onclick = ""recordClick(this)""><div class = content><div class = numbers>4</div></div></button><button id = button_5 class = ""square num-button"" onclick = ""recordClick(this)""><div class = content><div class = numbers>5</div></div></button><button id = button_6 class = ""square num-button"" onclick = ""recordClick(this)""><div class = content><div class = numbers>6</div></div></button><button id = button_7 class = ""square num-button"" onclick = ""recordClick(this)""><div class = content><div class = numbers>7</div></div></button><button id = button_8 class = ""square num-button"" onclick = ""recordClick(this)""><div class = content><div class = numbers>8</div></div></button><button id = button_9 class = ""square num-button"" onclick = ""recordClick(this)""><div class = content><div class = numbers>9</div></div></button><button class = clear_button id = ""ClearButton"" onclick = ""clearResponse()"">Clear</button><p><u><b>Current Answer:</b></u></p><div id=echoed_txt style=""font-size: 6rem; color:blue;""><b></b></div></div><br><br><br><br><br><br><br>",enter,fwdspan,response,vpxiOKhynibVMEWma56HyrApJQW2,html-keyboard-response,75,498230,0.0-7.0-2.5-0.5-3.5,7.0,"[9,7,6,8,2,3,5,1]","[9,7,6,8,2,5,1]",0.0,"[3, 4, 5, 6, 7, 7, 6, 6, 5, 6, 6, 5]",,5f3ec6221b5af3158bc86acd,11:21:09,15/01/2024
,,,fwdspan,update_span,vpxiOKhynibVMEWma56HyrApJQW2,call-function,76,498485,0.0-7.0-2.5-0.5-4.5,,,,,,,5f3ec6221b5af3158bc86acd,11:21:09,15/01/2024
1348.7999997138977,"<p style=""font-size:3rem"">Trial 7 of 12</p><br><br><br>",0,fwdspan,start_trial,vpxiOKhynibVMEWma56HyrApJQW2,html-button-response,77,499835,0.0-7.0-2.6-0.6-0.6,,,,,,,5f3ec6221b5af3158bc86acd,11:21:09,15/01/2024
,"<p style=""font-size:14rem;font-weight:400;"">1</p>",,fwdspan,number,vpxiOKhynibVMEWma56HyrApJQW2,html-keyboard-response,78,500851,0.0-7.0-2.6-0.6-1.32-0.32,,,,,,,5f3ec6221b5af3158bc86acd,11:21:09,15/01/2024
,"<p style=""font-size:14rem;font-weight:400;"">7</p>",,fwdspan,number,vpxiOKhynibVMEWma56HyrApJQW2,html-keyboard-response,79,501878,0.0-7.0-2.6-0.6-1.33-0.33,,,,,,,5f3ec6221b5af3158bc86acd,11:21:09,15/01/2024
,"<p style=""font-size:14rem;font-weight:400;"">3</p>",,fwdspan,number,vpxiOKhynibVMEWma56HyrApJQW2,html-keyboard-response,80,502891,0.0-7.0-2.6-0.6-1.34-0.34,,,,,,,5f3ec6221b5af3158bc86acd,11:21:09,15/01/2024
,"<p style=""font-size:14rem;font-weight:400;"">4</p>",,fwdspan,number,vpxiOKhynibVMEWma56HyrApJQW2,html-keyboard-response,81,503919,0.0-7.0-2.6-0.6-1.35-0.35,,,,,,,5f3ec6221b5af3158bc86acd,11:21:09,15/01/2024
,"<p style=""font-size:14rem;font-weight:400;"">2</p>",,fwdspan,number,vpxiOKhynibVMEWma56HyrApJQW2,html-keyboard-response,82,504943,0.0-7.0-2.6-0.6-1.36-0.36,,,,,,,5f3ec6221b5af3158bc86acd,11:21:09,15/01/2024
,"<p style=""font-size:14rem;font-weight:400;"">9</p>",,fwdspan,number,vpxiOKhynibVMEWma56HyrApJQW2,html-keyboard-response,83,505963,0.0-7.0-2.6-0.6-1.37-0.37,,,,,,,5f3ec6221b5af3158bc86acd,11:21:09,15/01/2024
,[],,fwdspan,delay,vpxiOKhynibVMEWma56HyrApJQW2,html-keyboard-response,84,506536,0.0-7.0-2.6-0.6-2.6,,,,,,,5f3ec6221b5af3158bc86acd,11:21:09,15/01/2024
20864.700000286102,"<div class = numbox><p style=""font-size:2.5rem"">What were the numbers <b>in order</b>?<br>(When you are ready to lock in your answer, press <b>ENTER</b>)</p><button id = button_1 class = ""square num-button"" onclick = ""recordClick(this)""><div class = content><div class = numbers>1</div></div></button><button id = button_2 class = ""square num-button"" onclick = ""recordClick(this)""><div class = content><div class = numbers>2</div></div></button><button id = button_3 class = ""square num-button"" onclick = ""recordClick(this)""><div class = content><div class = numbers>3</div></div></button><button id = button_4 class = ""square num-button"" onclick = ""recordClick(this)""><div class = content><div class = numbers>4</div></div></button><button id = button_5 class = ""square num-button"" onclick = ""recordClick(this)""><div class = content><div class = numbers>5</div></div></button><button id = button_6 class = ""square num-button"" onclick = ""recordClick(this)""><div class = content><div class = numbers>6</div></div></button><button id = button_7 class = ""square num-button"" onclick = ""recordClick(this)""><div class = content><div class = numbers>7</div></div></button><button id = button_8 class = ""square num-button"" onclick = ""recordClick(this)""><div class = content><div class = numbers>8</div></div></button><button id = button_9 class = ""square num-button"" onclick = ""recordClick(this)""><div class = content><div class = numbers>9</div></div></button><button class = clear_button id = ""ClearButton"" onclick = ""clearResponse()"">Clear</button><p><u><b>Current Answer:</b></u></p><div id=echoed_txt style=""font-size: 6rem; color:blue;""><b></b></div></div><br><br><br><br><br><br><br>",enter,fwdspan,response,vpxiOKhynibVMEWma56HyrApJQW2,html-keyboard-response,85,527402,0.0-7.0-2.6-0.6-3.6,6.0,"[9,7,3,4,2,9,1]","[1,7,3,4,2,9]",0.0,"[3, 4, 5, 6, 7, 7, 6, 6, 5, 6, 6, 5]",,5f3ec6221b5af3158bc86acd,11:21:09,15/01/2024
,,,fwdspan,update_span,vpxiOKhynibVMEWma56HyrApJQW2,call-function,86,527663,0.0-7.0-2.6-0.6-4.6,,,,,,,5f3ec6221b5af3158bc86acd,11:21:09,15/01/2024
869.4000000953674,"<p style=""font-size:3rem"">Trial 8 of 12</p><br><br><br>",0,fwdspan,start_trial,vpxiOKhynibVMEWma56HyrApJQW2,html-button-response,87,528533,0.0-7.0-2.7-0.7-0.7,,,,,,,5f3ec6221b5af3158bc86acd,11:21:09,15/01/2024
,"<p style=""font-size:14rem;font-weight:400;"">7</p>",,fwdspan,number,vpxiOKhynibVMEWma56HyrApJQW2,html-keyboard-response,88,529548,0.0-7.0-2.7-0.7-1.38-0.38,,,,,,,5f3ec6221b5af3158bc86acd,11:21:09,15/01/2024
,"<p style=""font-size:14rem;font-weight:400;"">8</p>",,fwdspan,number,vpxiOKhynibVMEWma56HyrApJQW2,html-keyboard-response,89,530571,0.0-7.0-2.7-0.7-1.39-0.39,,,,,,,5f3ec6221b5af3158bc86acd,11:21:09,15/01/2024
,"<p style=""font-size:14rem;font-weight:400;"">3</p>",,fwdspan,number,vpxiOKhynibVMEWma56HyrApJQW2,html-keyboard-response,90,531586,0.0-7.0-2.7-0.7-1.40-0.40,,,,,,,5f3ec6221b5af3158bc86acd,11:21:09,15/01/2024
,"<p style=""font-size:14rem;font-weight:400;"">2</p>",,fwdspan,number,vpxiOKhynibVMEWma56HyrApJQW2,html-keyboard-response,91,532614,0.0-7.0-2.7-0.7-1.41-0.41,,,,,,,5f3ec6221b5af3158bc86acd,11:21:09,15/01/2024
,"<p style=""font-size:14rem;font-weight:400;"">6</p>",,fwdspan,number,vpxiOKhynibVMEWma56HyrApJQW2,html-keyboard-response,92,533635,0.0-7.0-2.7-0.7-1.42-0.42,,,,,,,5f3ec6221b5af3158bc86acd,11:21:09,15/01/2024
,"<p style=""font-size:14rem;font-weight:400;"">9</p>",,fwdspan,number,vpxiOKhynibVMEWma56HyrApJQW2,html-keyboard-response,93,534661,0.0-7.0-2.7-0.7-1.43-0.43,,,,,,,5f3ec6221b5af3158bc86acd,11:21:09,15/01/2024
,[],,fwdspan,delay,vpxiOKhynibVMEWma56HyrApJQW2,html-keyboard-response,94,535236,0.0-7.0-2.7-0.7-2.7,,,,,,,5f3ec6221b5af3158bc86acd,11:21:09,15/01/2024
14944.0,"<div class = numbox><p style=""font-size:2.5rem"">What were the numbers <b>in order</b>?<br>(When you are ready to lock in your answer, press <b>ENTER</b>)</p><button id = button_1 class = ""square num-button"" onclick = ""recordClick(this)""><div class = content><div class = numbers>1</div></div></button><button id = button_2 class = ""square num-button"" onclick = ""recordClick(this)""><div class = content><div class = numbers>2</div></div></button><button id = button_3 class = ""square num-button"" onclick = ""recordClick(this)""><div class = content><div class = numbers>3</div></div></button><button id = button_4 class = ""square num-button"" onclick = ""recordClick(this)""><div class = content><div class = numbers>4</div></div></button><button id = button_5 class = ""square num-button"" onclick = ""recordClick(this)""><div class = content><div class = numbers>5</div></div></button><button id = button_6 class = ""square num-button"" onclick = ""recordClick(this)""><div class = content><div class = numbers>6</div></div></button><button id = button_7 class = ""square num-button"" onclick = ""recordClick(this)""><div class = content><div class = numbers>7</div></div></button><button id = button_8 class = ""square num-button"" onclick = ""recordClick(this)""><div class = content><div class = numbers>8</div></div></button><button id = button_9 class = ""square num-button"" onclick = ""recordClick(this)""><div class = content><div class = numbers>9</div></div></button><button class = clear_button id = ""ClearButton"" onclick = ""clearResponse()"">Clear</button><p><u><b>Current Answer:</b></u></p><div id=echoed_txt style=""font-size: 6rem; color:blue;""><b></b></div></div><br><br><br><br><br><br><br>",enter,fwdspan,response,vpxiOKhynibVMEWma56HyrApJQW2,html-keyboard-response,95,550181,0.0-7.0-2.7-0.7-3.7,6.0,"[7,8,3,2,6,9,1]","[7,8,3,2,6,9]",0.0,"[3, 4, 5, 6, 7, 7, 6, 6, 5, 6, 6, 5]",,5f3ec6221b5af3158bc86acd,11:21:09,15/01/2024
,,,fwdspan,update_span,vpxiOKhynibVMEWma56HyrApJQW2,call-function,96,550440,0.0-7.0-2.7-0.7-4.7,,,,,,,5f3ec6221b5af3158bc86acd,11:21:09,15/01/2024
1205.1999998092651,"<p style=""font-size:3rem"">Trial 9 of 12</p><br><br><br>",0,fwdspan,start_trial,vpxiOKhynibVMEWma56HyrApJQW2,html-button-response,97,551646,0.0-7.0-2.8-0.8-0.8,,,,,,,5f3ec6221b5af3158bc86acd,11:21:09,15/01/2024
,"<p style=""font-size:14rem;font-weight:400;"">7</p>",,fwdspan,number,vpxiOKhynibVMEWma56HyrApJQW2,html-keyboard-response,98,552669,0.0-7.0-2.8-0.8-1.44-0.44,,,,,,,5f3ec6221b5af3158bc86acd,11:21:09,15/01/2024
,"<p style=""font-size:14rem;font-weight:400;"">6</p>",,fwdspan,number,vpxiOKhynibVMEWma56HyrApJQW2,html-keyboard-response,99,553693,0.0-7.0-2.8-0.8-1.45-0.45,,,,,,,5f3ec6221b5af3158bc86acd,11:21:09,15/01/2024
,"<p style=""font-size:14rem;font-weight:400;"">4</p>",,fwdspan,number,vpxiOKhynibVMEWma56HyrApJQW2,html-keyboard-response,100,554719,0.0-7.0-2.8-0.8-1.46-0.46,,,,,,,5f3ec6221b5af3158bc86acd,11:21:09,15/01/2024
,"<p style=""font-size:14rem;font-weight:400;"">2</p>",,fwdspan,number,vpxiOKhynibVMEWma56HyrApJQW2,html-keyboard-response,101,555742,0.0-7.0-2.8-0.8-1.47-0.47,,,,,,,5f3ec6221b5af3158bc86acd,11:21:09,15/01/2024
,"<p style=""font-size:14rem;font-weight:400;"">1</p>",,fwdspan,number,vpxiOKhynibVMEWma56HyrApJQW2,html-keyboard-response,102,556767,0.0-7.0-2.8-0.8-1.48-0.48,,,,,,,5f3ec6221b5af3158bc86acd,11:21:09,15/01/2024
,[],,fwdspan,delay,vpxiOKhynibVMEWma56HyrApJQW2,html-keyboard-response,103,557342,0.0-7.0-2.8-0.8-2.8,,,,,,,5f3ec6221b5af3158bc86acd,11:21:09,15/01/2024
4302.5,"<div class = numbox><p style=""font-size:2.5rem"">What were the numbers <b>in order</b>?<br>(When you are ready to lock in your answer, press <b>ENTER</b>)</p><button id = button_1 class = ""square num-button"" onclick = ""recordClick(this)""><div class = content><div class = numbers>1</div></div></button><button id = button_2 class = ""square num-button"" onclick = ""recordClick(this)""><div class = content><div class = numbers>2</div></div></button><button id = button_3 class = ""square num-button"" onclick = ""recordClick(this)""><div class = content><div class = numbers>3</div></div></button><button id = button_4 class = ""square num-button"" onclick = ""recordClick(this)""><div class = content><div class = numbers>4</div></div></button><button id = button_5 class = ""square num-button"" onclick = ""recordClick(this)""><div class = content><div class = numbers>5</div></div></button><button id = button_6 class = ""square num-button"" onclick = ""recordClick(this)""><div class = content><div class = numbers>6</div></div></button><button id = button_7 class = ""square num-button"" onclick = ""recordClick(this)""><div class = content><div class = numbers>7</div></div></button><button id = button_8 class = ""square num-button"" onclick = ""recordClick(this)""><div class = content><div class = numbers>8</div></div></button><button id = button_9 class = ""square num-button"" onclick = ""recordClick(this)""><div class = content><div class = numbers>9</div></div></button><button class = clear_button id = ""ClearButton"" onclick = ""clearResponse()"">Clear</button><p><u><b>Current Answer:</b></u></p><div id=echoed_txt style=""font-size: 6rem; color:blue;""><b></b></div></div><br><br><br><br><br><br><br>",enter,fwdspan,response,vpxiOKhynibVMEWma56HyrApJQW2,html-keyboard-response,104,561646,0.0-7.0-2.8-0.8-3.8,5.0,"[7,6,4,2,1]","[7,6,4,2,1]",1.0,"[3, 4, 5, 6, 7, 7, 6, 6, 5, 6, 6, 5]",,5f3ec6221b5af3158bc86acd,11:21:09,15/01/2024
,,,fwdspan,update_span,vpxiOKhynibVMEWma56HyrApJQW2,call-function,105,561899,0.0-7.0-2.8-0.8-4.8,,,,,,,5f3ec6221b5af3158bc86acd,11:21:09,15/01/2024
1126.0,"<p style=""font-size:3rem"">Trial 10 of 12</p><br><br><br>",0,fwdspan,start_trial,vpxiOKhynibVMEWma56HyrApJQW2,html-button-response,106,563025,0.0-7.0-2.9-0.9-0.9,,,,,,,5f3ec6221b5af3158bc86acd,11:21:09,15/01/2024
,"<p style=""font-size:14rem;font-weight:400;"">4</p>",,fwdspan,number,vpxiOKhynibVMEWma56HyrApJQW2,html-keyboard-response,107,564054,0.0-7.0-2.9-0.9-1.49-0.49,,,,,,,5f3ec6221b5af3158bc86acd,11:21:09,15/01/2024
,"<p style=""font-size:14rem;font-weight:400;"">9</p>",,fwdspan,number,vpxiOKhynibVMEWma56HyrApJQW2,html-keyboard-response,108,565076,0.0-7.0-2.9-0.9-1.50-0.50,,,,,,,5f3ec6221b5af3158bc86acd,11:21:09,15/01/2024
,"<p style=""font-size:14rem;font-weight:400;"">1</p>",,fwdspan,number,vpxiOKhynibVMEWma56HyrApJQW2,html-keyboard-response,109,566107,0.0-7.0-2.9-0.9-1.51-0.51,,,,,,,5f3ec6221b5af3158bc86acd,11:21:09,15/01/2024
,"<p style=""font-size:14rem;font-weight:400;"">2</p>",,fwdspan,number,vpxiOKhynibVMEWma56HyrApJQW2,html-keyboard-response,110,567118,0.0-7.0-2.9-0.9-1.52-0.52,,,,,,,5f3ec6221b5af3158bc86acd,11:21:09,15/01/2024
,"<p style=""font-size:14rem;font-weight:400;"">6</p>",,fwdspan,number,vpxiOKhynibVMEWma56HyrApJQW2,html-keyboard-response,111,568131,0.0-7.0-2.9-0.9-1.53-0.53,,,,,,,5f3ec6221b5af3158bc86acd,11:21:09,15/01/2024
,"<p style=""font-size:14rem;font-weight:400;"">8</p>",,fwdspan,number,vpxiOKhynibVMEWma56HyrApJQW2,html-keyboard-response,112,569154,0.0-7.0-2.9-0.9-1.54-0.54,,,,,,,5f3ec6221b5af3158bc86acd,11:21:09,15/01/2024
,[],,fwdspan,delay,vpxiOKhynibVMEWma56HyrApJQW2,html-keyboard-response,113,569724,0.0-7.0-2.9-0.9-2.9,,,,,,,5f3ec6221b5af3158bc86acd,11:21:09,15/01/2024
15236.799999713898,"<div class = numbox><p style=""font-size:2.5rem"">What were the numbers <b>in order</b>?<br>(When you are ready to lock in your answer, press <b>ENTER</b>)</p><button id = button_1 class = ""square num-button"" onclick = ""recordClick(this)""><div class = content><div class = numbers>1</div></div></button><button id = button_2 class = ""square num-button"" onclick = ""recordClick(this)""><div class = content><div class = numbers>2</div></div></button><button id = button_3 class = ""square num-button"" onclick = ""recordClick(this)""><div class = content><div class = numbers>3</div></div></button><button id = button_4 class = ""square num-button"" onclick = ""recordClick(this)""><div class = content><div class = numbers>4</div></div></button><button id = button_5 class = ""square num-button"" onclick = ""recordClick(this)""><div class = content><div class = numbers>5</div></div></button><button id = button_6 class = ""square num-button"" onclick = ""recordClick(this)""><div class = content><div class = numbers>6</div></div></button><button id = button_7 class = ""square num-button"" onclick = ""recordClick(this)""><div class = content><div class = numbers>7</div></div></button><button id = button_8 class = ""square num-button"" onclick = ""recordClick(this)""><div class = content><div class = numbers>8</div></div></button><button id = button_9 class = ""square num-button"" onclick = ""recordClick(this)""><div class = content><div class = numbers>9</div></div></button><button class = clear_button id = ""ClearButton"" onclick = ""clearResponse()"">Clear</button><p><u><b>Current Answer:</b></u></p><div id=echoed_txt style=""font-size: 6rem; color:blue;""><b></b></div></div><br><br><br><br><br><br><br>",enter,fwdspan,response,vpxiOKhynibVMEWma56HyrApJQW2,html-keyboard-response,114,584962,0.0-7.0-2.9-0.9-3.9,6.0,"[7,4,9,1,2,3,8]","[4,9,1,2,6,8]",0.0,"[3, 4, 5, 6, 7, 7, 6, 6, 5, 6, 6, 5]",,5f3ec6221b5af3158bc86acd,11:21:09,15/01/2024
,,,fwdspan,update_span,vpxiOKhynibVMEWma56HyrApJQW2,call-function,115,585228,0.0-7.0-2.9-0.9-4.9,,,,,,,5f3ec6221b5af3158bc86acd,11:21:09,15/01/2024
966.4000000953674,"<p style=""font-size:3rem"">Trial 11 of 12</p><br><br><br>",0,fwdspan,start_trial,vpxiOKhynibVMEWma56HyrApJQW2,html-button-response,116,586195,0.0-7.0-2.10-0.10-0.10,,,,,,,5f3ec6221b5af3158bc86acd,11:21:09,15/01/2024
,"<p style=""font-size:14rem;font-weight:400;"">3</p>",,fwdspan,number,vpxiOKhynibVMEWma56HyrApJQW2,html-keyboard-response,117,587213,0.0-7.0-2.10-0.10-1.55-0.55,,,,,,,5f3ec6221b5af3158bc86acd,11:21:09,15/01/2024
,"<p style=""font-size:14rem;font-weight:400;"">7</p>",,fwdspan,number,vpxiOKhynibVMEWma56HyrApJQW2,html-keyboard-response,118,588235,0.0-7.0-2.10-0.10-1.56-0.56,,,,,,,5f3ec6221b5af3158bc86acd,11:21:09,15/01/2024
,"<p style=""font-size:14rem;font-weight:400;"">2</p>",,fwdspan,number,vpxiOKhynibVMEWma56HyrApJQW2,html-keyboard-response,119,589262,0.0-7.0-2.10-0.10-1.57-0.57,,,,,,,5f3ec6221b5af3158bc86acd,11:21:09,15/01/2024
,"<p style=""font-size:14rem;font-weight:400;"">5</p>",,fwdspan,number,vpxiOKhynibVMEWma56HyrApJQW2,html-keyboard-response,120,590286,0.0-7.0-2.10-0.10-1.58-0.58,,,,,,,5f3ec6221b5af3158bc86acd,11:21:09,15/01/2024
,"<p style=""font-size:14rem;font-weight:400;"">4</p>",,fwdspan,number,vpxiOKhynibVMEWma56HyrApJQW2,html-keyboard-response,121,591317,0.0-7.0-2.10-0.10-1.59-0.59,,,,,,,5f3ec6221b5af3158bc86acd,11:21:09,15/01/2024
,"<p style=""font-size:14rem;font-weight:400;"">8</p>",,fwdspan,number,vpxiOKhynibVMEWma56HyrApJQW2,html-keyboard-response,122,592348,0.0-7.0-2.10-0.10-1.60-0.60,,,,,,,5f3ec6221b5af3158bc86acd,11:21:09,15/01/2024
,[],,fwdspan,delay,vpxiOKhynibVMEWma56HyrApJQW2,html-keyboard-response,123,592920,0.0-7.0-2.10-0.10-2.10,,,,,,,5f3ec6221b5af3158bc86acd,11:21:09,15/01/2024
9946.0,"<div class = numbox><p style=""font-size:2.5rem"">What were the numbers <b>in order</b>?<br>(When you are ready to lock in your answer, press <b>ENTER</b>)</p><button id = button_1 class = ""square num-button"" onclick = ""recordClick(this)""><div class = content><div class = numbers>1</div></div></button><button id = button_2 class = ""square num-button"" onclick = ""recordClick(this)""><div class = content><div class = numbers>2</div></div></button><button id = button_3 class = ""square num-button"" onclick = ""recordClick(this)""><div class = content><div class = numbers>3</div></div></button><button id = button_4 class = ""square num-button"" onclick = ""recordClick(this)""><div class = content><div class = numbers>4</div></div></button><button id = button_5 class = ""square num-button"" onclick = ""recordClick(this)""><div class = content><div class = numbers>5</div></div></button><button id = button_6 class = ""square num-button"" onclick = ""recordClick(this)""><div class = content><div class = numbers>6</div></div></button><button id = button_7 class = ""square num-button"" onclick = ""recordClick(this)""><div class = content><div class = numbers>7</div></div></button><button id = button_8 class = ""square num-button"" onclick = ""recordClick(this)""><div class = content><div class = numbers>8</div></div></button><button id = button_9 class = ""square num-button"" onclick = ""recordClick(this)""><div class = content><div class = numbers>9</div></div></button><button class = clear_button id = ""ClearButton"" onclick = ""clearResponse()"">Clear</button><p><u><b>Current Answer:</b></u></p><div id=echoed_txt style=""font-size: 6rem; color:blue;""><b></b></div></div><br><br><br><br><br><br><br>",enter,fwdspan,response,vpxiOKhynibVMEWma56HyrApJQW2,html-keyboard-response,124,602867,0.0-7.0-2.10-0.10-3.10,6.0,"[3,7,2,9,4,7,8]","[3,7,2,5,4,8]",0.0,"[3, 4, 5, 6, 7, 7, 6, 6, 5, 6, 6, 5]",,5f3ec6221b5af3158bc86acd,11:21:09,15/01/2024
,,,fwdspan,update_span,vpxiOKhynibVMEWma56HyrApJQW2,call-function,125,603127,0.0-7.0-2.10-0.10-4.10,,,,,,,5f3ec6221b5af3158bc86acd,11:21:09,15/01/2024
1139.2999997138977,"<p style=""font-size:3rem"">Trial 12 of 12</p><br><br><br>",0,fwdspan,start_trial,vpxiOKhynibVMEWma56HyrApJQW2,html-button-response,126,604266,0.0-7.0-2.11-0.11-0.11,,,,,,,5f3ec6221b5af3158bc86acd,11:21:09,15/01/2024
,"<p style=""font-size:14rem;font-weight:400;"">3</p>",,fwdspan,number,vpxiOKhynibVMEWma56HyrApJQW2,html-keyboard-response,127,605278,0.0-7.0-2.11-0.11-1.61-0.61,,,,,,,5f3ec6221b5af3158bc86acd,11:21:09,15/01/2024
,"<p style=""font-size:14rem;font-weight:400;"">2</p>",,fwdspan,number,vpxiOKhynibVMEWma56HyrApJQW2,html-keyboard-response,128,606303,0.0-7.0-2.11-0.11-1.62-0.62,,,,,,,5f3ec6221b5af3158bc86acd,11:21:09,15/01/2024
,"<p style=""font-size:14rem;font-weight:400;"">8</p>",,fwdspan,number,vpxiOKhynibVMEWma56HyrApJQW2,html-keyboard-response,129,607327,0.0-7.0-2.11-0.11-1.63-0.63,,,,,,,5f3ec6221b5af3158bc86acd,11:21:09,15/01/2024
,"<p style=""font-size:14rem;font-weight:400;"">1</p>",,fwdspan,number,vpxiOKhynibVMEWma56HyrApJQW2,html-keyboard-response,130,608352,0.0-7.0-2.11-0.11-1.64-0.64,,,,,,,5f3ec6221b5af3158bc86acd,11:21:09,15/01/2024
,"<p style=""font-size:14rem;font-weight:400;"">5</p>",,fwdspan,number,vpxiOKhynibVMEWma56HyrApJQW2,html-keyboard-response,131,609376,0.0-7.0-2.11-0.11-1.65-0.65,,,,,,,5f3ec6221b5af3158bc86acd,11:21:09,15/01/2024
,[],,fwdspan,delay,vpxiOKhynibVMEWma56HyrApJQW2,html-keyboard-response,132,609954,0.0-7.0-2.11-0.11-2.11,,,,,,,5f3ec6221b5af3158bc86acd,11:21:09,15/01/2024
11912.599999904633,"<div class = numbox><p style=""font-size:2.5rem"">What were the numbers <b>in order</b>?<br>(When you are ready to lock in your answer, press <b>ENTER</b>)</p><button id = button_1 class = ""square num-button"" onclick = ""recordClick(this)""><div class = content><div class = numbers>1</div></div></button><button id = button_2 class = ""square num-button"" onclick = ""recordClick(this)""><div class = content><div class = numbers>2</div></div></button><button id = button_3 class = ""square num-button"" onclick = ""recordClick(this)""><div class = content><div class = numbers>3</div></div></button><button id = button_4 class = ""square num-button"" onclick = ""recordClick(this)""><div class = content><div class = numbers>4</div></div></button><button id = button_5 class = ""square num-button"" onclick = ""recordClick(this)""><div class = content><div class = numbers>5</div></div></button><button id = button_6 class = ""square num-button"" onclick = ""recordClick(this)""><div class = content><div class = numbers>6</div></div></button><button id = button_7 class = ""square num-button"" onclick = ""recordClick(this)""><div class = content><div class = numbers>7</div></div></button><button id = button_8 class = ""square num-button"" onclick = ""recordClick(this)""><div class = content><div class = numbers>8</div></div></button><button id = button_9 class = ""square num-button"" onclick = ""recordClick(this)""><div class = content><div class = numbers>9</div></div></button><button class = clear_button id = ""ClearButton"" onclick = ""clearResponse()"">Clear</button><p><u><b>Current Answer:</b></u></p><div id=echoed_txt style=""font-size: 6rem; color:blue;""><b></b></div></div><br><br><br><br><br><br><br>",enter,fwdspan,response,vpxiOKhynibVMEWma56HyrApJQW2,html-keyboard-response,133,621868,0.0-7.0-2.11-0.11-3.11,5.0,"[3,2,8,1,5]","[3,2,8,1,5]",1.0,"[3, 4, 5, 6, 7, 7, 6, 6, 5, 6, 6, 5]",,5f3ec6221b5af3158bc86acd,11:21:09,15/01/2024
,,,fwdspan,update_span,vpxiOKhynibVMEWma56HyrApJQW2,call-function,134,622127,0.0-7.0-2.11-0.11-4.11,,,,,,,5f3ec6221b5af3158bc86acd,11:21:09,15/01/2024
17154.299999713898,,{'Q0': 'I liked this task '},fwdspan,survey,vpxiOKhynibVMEWma56HyrApJQW2,lmdlab-survey-text,135,640044,0.0-7.0-3.0,,,,,,vpxiOKhynibVMEWma56HyrApJQW2,5f3ec6221b5af3158bc86acd,11:21:09,15/01/2024
1112.5,<p><p style='font-size: 3rem'>Great work!<br><br>This completes the digit span task.</p><br><br><br>,0,fwdspan,finish,vpxiOKhynibVMEWma56HyrApJQW2,html-button-response,136,641158,0.0-7.0-4.0,,,,,,,5f3ec6221b5af3158bc86acd,11:21:09,15/01/2024
