rt,stimulus,response,exp_name,exp_stage,subjectID,trial_type,trial_index,time_elapsed,internal_node_id,span,answer,correct,correct_full,span_history,databaseID,prolificID,start_time,date
4529.5,"<p style=""font-size:4rem""><br><br>In the next part today, we have a completely different short task.<br><br><br>This part involves keeping numbers in you mind. Participation takes around 5 minutes.<br><br><br></p>",0,fwdspan,instruct,K7YeTsDfEHbxVESUViEhGcJEpOq1,html-button-response,19,559015,0.0-7.0-0.0,,,,,,,6546549b0511efc35646724f,11:23:19,15/01/2024
23223.59999999404,"<p style=""font-size:5rem"">Welcome to the <b>digit span task</b>!<br><br></p><p style=""font-size:3.4rem""><br>On each trial, you will see a sequence of digits, followed by a delay.</p><p style=""font-size:3.4rem""><br>Then you will be asked to type them back in the same order in which they were seen.</p><p style=""font-size:3.4rem""><br><br><br>For example, if you saw the digits <b style=""color:blue;"">1</b>, <b style=""color:blue;"">2</b>, <b style=""color:blue;"">3</b>, you would respond with <b style=""color:blue;"">1</b>, <b style=""color:blue;"">2</b>, <b style=""color:blue;"">3</b></p><p style=""font-size:3.4rem""><br><br><br>To ensure the best measure of true performance for our study,<br><br>it is very important that you do not use any memory aid (e.g., pen and paper).<br><br>Please do the task solely in your head.</p><p style=""font-size:3.4rem""><br><br><br>There will be 12 total trials. Participation takes around 5 minutes.</p><br><br><br>",0,fwdspan,instruct,K7YeTsDfEHbxVESUViEhGcJEpOq1,html-button-response,20,582247,0.0-7.0-1.0,,,,,,,6546549b0511efc35646724f,11:23:19,15/01/2024
1771.5,"<p style=""font-size:3rem"">Trial 1 of 12</p><br><br><br>",0,fwdspan,start_trial,K7YeTsDfEHbxVESUViEhGcJEpOq1,html-button-response,21,584023,0.0-7.0-2.0-0.0-0.0,,,,,,,6546549b0511efc35646724f,11:23:19,15/01/2024
,"<p style=""font-size:14rem;font-weight:400;"">8</p>",,fwdspan,number,K7YeTsDfEHbxVESUViEhGcJEpOq1,html-keyboard-response,22,585033,0.0-7.0-2.0-0.0-1.0-0.0,,,,,,,6546549b0511efc35646724f,11:23:19,15/01/2024
,"<p style=""font-size:14rem;font-weight:400;"">2</p>",,fwdspan,number,K7YeTsDfEHbxVESUViEhGcJEpOq1,html-keyboard-response,23,586038,0.0-7.0-2.0-0.0-1.1-0.1,,,,,,,6546549b0511efc35646724f,11:23:19,15/01/2024
,"<p style=""font-size:14rem;font-weight:400;"">6</p>",,fwdspan,number,K7YeTsDfEHbxVESUViEhGcJEpOq1,html-keyboard-response,24,587046,0.0-7.0-2.0-0.0-1.2-0.2,,,,,,,6546549b0511efc35646724f,11:23:19,15/01/2024
,[],,fwdspan,delay,K7YeTsDfEHbxVESUViEhGcJEpOq1,html-keyboard-response,25,587599,0.0-7.0-2.0-0.0-2.0,,,,,,,6546549b0511efc35646724f,11:23:19,15/01/2024
3639.7999999821186,"<div class = numbox><p style=""font-size:2.5rem"">What were the numbers <b>in order</b>?<br>(When you are ready to lock in your answer, press <b>ENTER</b>)</p><button id = button_1 class = ""square num-button"" onclick = ""recordClick(this)""><div class = content><div class = numbers>1</div></div></button><button id = button_2 class = ""square num-button"" onclick = ""recordClick(this)""><div class = content><div class = numbers>2</div></div></button><button id = button_3 class = ""square num-button"" onclick = ""recordClick(this)""><div class = content><div class = numbers>3</div></div></button><button id = button_4 class = ""square num-button"" onclick = ""recordClick(this)""><div class = content><div class = numbers>4</div></div></button><button id = button_5 class = ""square num-button"" onclick = ""recordClick(this)""><div class = content><div class = numbers>5</div></div></button><button id = button_6 class = ""square num-button"" onclick = ""recordClick(this)""><div class = content><div class = numbers>6</div></div></button><button id = button_7 class = ""square num-button"" onclick = ""recordClick(this)""><div class = content><div class = numbers>7</div></div></button><button id = button_8 class = ""square num-button"" onclick = ""recordClick(this)""><div class = content><div class = numbers>8</div></div></button><button id = button_9 class = ""square num-button"" onclick = ""recordClick(this)""><div class = content><div class = numbers>9</div></div></button><button class = clear_button id = ""ClearButton"" onclick = ""clearResponse()"">Clear</button><p><u><b>Current Answer:</b></u></p><div id=echoed_txt style=""font-size: 6rem; color:blue;""><b></b></div></div><br><br><br><br><br><br><br>",enter,fwdspan,response,K7YeTsDfEHbxVESUViEhGcJEpOq1,html-keyboard-response,26,591241,0.0-7.0-2.0-0.0-3.0,3.0,"[8,2,6]","[8,2,6]",1.0,"[3, 4, 5, 6, 7, 8, 9, 10, 11, 11, 10, 11]",,6546549b0511efc35646724f,11:23:19,15/01/2024
,,,fwdspan,update_span,K7YeTsDfEHbxVESUViEhGcJEpOq1,call-function,27,591499,0.0-7.0-2.0-0.0-4.0,,,,,,,6546549b0511efc35646724f,11:23:19,15/01/2024
1078.9000000059605,"<p style=""font-size:3rem"">Trial 2 of 12</p><br><br><br>",0,fwdspan,start_trial,K7YeTsDfEHbxVESUViEhGcJEpOq1,html-button-response,28,592579,0.0-7.0-2.1-0.1-0.1,,,,,,,6546549b0511efc35646724f,11:23:19,15/01/2024
,"<p style=""font-size:14rem;font-weight:400;"">2</p>",,fwdspan,number,K7YeTsDfEHbxVESUViEhGcJEpOq1,html-keyboard-response,29,593603,0.0-7.0-2.1-0.1-1.3-0.3,,,,,,,6546549b0511efc35646724f,11:23:19,15/01/2024
,"<p style=""font-size:14rem;font-weight:400;"">6</p>",,fwdspan,number,K7YeTsDfEHbxVESUViEhGcJEpOq1,html-keyboard-response,30,594606,0.0-7.0-2.1-0.1-1.4-0.4,,,,,,,6546549b0511efc35646724f,11:23:19,15/01/2024
,"<p style=""font-size:14rem;font-weight:400;"">7</p>",,fwdspan,number,K7YeTsDfEHbxVESUViEhGcJEpOq1,html-keyboard-response,31,595610,0.0-7.0-2.1-0.1-1.5-0.5,,,,,,,6546549b0511efc35646724f,11:23:19,15/01/2024
,"<p style=""font-size:14rem;font-weight:400;"">8</p>",,fwdspan,number,K7YeTsDfEHbxVESUViEhGcJEpOq1,html-keyboard-response,32,596614,0.0-7.0-2.1-0.1-1.6-0.6,,,,,,,6546549b0511efc35646724f,11:23:19,15/01/2024
,[],,fwdspan,delay,K7YeTsDfEHbxVESUViEhGcJEpOq1,html-keyboard-response,33,597182,0.0-7.0-2.1-0.1-2.1,,,,,,,6546549b0511efc35646724f,11:23:19,15/01/2024
2898.0999999940395,"<div class = numbox><p style=""font-size:2.5rem"">What were the numbers <b>in order</b>?<br>(When you are ready to lock in your answer, press <b>ENTER</b>)</p><button id = button_1 class = ""square num-button"" onclick = ""recordClick(this)""><div class = content><div class = numbers>1</div></div></button><button id = button_2 class = ""square num-button"" onclick = ""recordClick(this)""><div class = content><div class = numbers>2</div></div></button><button id = button_3 class = ""square num-button"" onclick = ""recordClick(this)""><div class = content><div class = numbers>3</div></div></button><button id = button_4 class = ""square num-button"" onclick = ""recordClick(this)""><div class = content><div class = numbers>4</div></div></button><button id = button_5 class = ""square num-button"" onclick = ""recordClick(this)""><div class = content><div class = numbers>5</div></div></button><button id = button_6 class = ""square num-button"" onclick = ""recordClick(this)""><div class = content><div class = numbers>6</div></div></button><button id = button_7 class = ""square num-button"" onclick = ""recordClick(this)""><div class = content><div class = numbers>7</div></div></button><button id = button_8 class = ""square num-button"" onclick = ""recordClick(this)""><div class = content><div class = numbers>8</div></div></button><button id = button_9 class = ""square num-button"" onclick = ""recordClick(this)""><div class = content><div class = numbers>9</div></div></button><button class = clear_button id = ""ClearButton"" onclick = ""clearResponse()"">Clear</button><p><u><b>Current Answer:</b></u></p><div id=echoed_txt style=""font-size: 6rem; color:blue;""><b></b></div></div><br><br><br><br><br><br><br>",enter,fwdspan,response,K7YeTsDfEHbxVESUViEhGcJEpOq1,html-keyboard-response,34,600082,0.0-7.0-2.1-0.1-3.1,4.0,"[2,6,7,8]","[2,6,7,8]",1.0,"[3, 4, 5, 6, 7, 8, 9, 10, 11, 11, 10, 11]",,6546549b0511efc35646724f,11:23:19,15/01/2024
,,,fwdspan,update_span,K7YeTsDfEHbxVESUViEhGcJEpOq1,call-function,35,600341,0.0-7.0-2.1-0.1-4.1,,,,,,,6546549b0511efc35646724f,11:23:19,15/01/2024
1311.300000011921,"<p style=""font-size:3rem"">Trial 3 of 12</p><br><br><br>",0,fwdspan,start_trial,K7YeTsDfEHbxVESUViEhGcJEpOq1,html-button-response,36,601653,0.0-7.0-2.2-0.2-0.2,,,,,,,6546549b0511efc35646724f,11:23:19,15/01/2024
,"<p style=""font-size:14rem;font-weight:400;"">8</p>",,fwdspan,number,K7YeTsDfEHbxVESUViEhGcJEpOq1,html-keyboard-response,37,602655,0.0-7.0-2.2-0.2-1.7-0.7,,,,,,,6546549b0511efc35646724f,11:23:19,15/01/2024
,"<p style=""font-size:14rem;font-weight:400;"">4</p>",,fwdspan,number,K7YeTsDfEHbxVESUViEhGcJEpOq1,html-keyboard-response,38,603664,0.0-7.0-2.2-0.2-1.8-0.8,,,,,,,6546549b0511efc35646724f,11:23:19,15/01/2024
,"<p style=""font-size:14rem;font-weight:400;"">1</p>",,fwdspan,number,K7YeTsDfEHbxVESUViEhGcJEpOq1,html-keyboard-response,39,604689,0.0-7.0-2.2-0.2-1.9-0.9,,,,,,,6546549b0511efc35646724f,11:23:19,15/01/2024
,"<p style=""font-size:14rem;font-weight:400;"">6</p>",,fwdspan,number,K7YeTsDfEHbxVESUViEhGcJEpOq1,html-keyboard-response,40,605691,0.0-7.0-2.2-0.2-1.10-0.10,,,,,,,6546549b0511efc35646724f,11:23:19,15/01/2024
,"<p style=""font-size:14rem;font-weight:400;"">5</p>",,fwdspan,number,K7YeTsDfEHbxVESUViEhGcJEpOq1,html-keyboard-response,41,606695,0.0-7.0-2.2-0.2-1.11-0.11,,,,,,,6546549b0511efc35646724f,11:23:19,15/01/2024
,[],,fwdspan,delay,K7YeTsDfEHbxVESUViEhGcJEpOq1,html-keyboard-response,42,607251,0.0-7.0-2.2-0.2-2.2,,,,,,,6546549b0511efc35646724f,11:23:19,15/01/2024
4659.0,"<div class = numbox><p style=""font-size:2.5rem"">What were the numbers <b>in order</b>?<br>(When you are ready to lock in your answer, press <b>ENTER</b>)</p><button id = button_1 class = ""square num-button"" onclick = ""recordClick(this)""><div class = content><div class = numbers>1</div></div></button><button id = button_2 class = ""square num-button"" onclick = ""recordClick(this)""><div class = content><div class = numbers>2</div></div></button><button id = button_3 class = ""square num-button"" onclick = ""recordClick(this)""><div class = content><div class = numbers>3</div></div></button><button id = button_4 class = ""square num-button"" onclick = ""recordClick(this)""><div class = content><div class = numbers>4</div></div></button><button id = button_5 class = ""square num-button"" onclick = ""recordClick(this)""><div class = content><div class = numbers>5</div></div></button><button id = button_6 class = ""square num-button"" onclick = ""recordClick(this)""><div class = content><div class = numbers>6</div></div></button><button id = button_7 class = ""square num-button"" onclick = ""recordClick(this)""><div class = content><div class = numbers>7</div></div></button><button id = button_8 class = ""square num-button"" onclick = ""recordClick(this)""><div class = content><div class = numbers>8</div></div></button><button id = button_9 class = ""square num-button"" onclick = ""recordClick(this)""><div class = content><div class = numbers>9</div></div></button><button class = clear_button id = ""ClearButton"" onclick = ""clearResponse()"">Clear</button><p><u><b>Current Answer:</b></u></p><div id=echoed_txt style=""font-size: 6rem; color:blue;""><b></b></div></div><br><br><br><br><br><br><br>",enter,fwdspan,response,K7YeTsDfEHbxVESUViEhGcJEpOq1,html-keyboard-response,43,611911,0.0-7.0-2.2-0.2-3.2,5.0,"[8,4,1,6,5]","[8,4,1,6,5]",1.0,"[3, 4, 5, 6, 7, 8, 9, 10, 11, 11, 10, 11]",,6546549b0511efc35646724f,11:23:19,15/01/2024
,,,fwdspan,update_span,K7YeTsDfEHbxVESUViEhGcJEpOq1,call-function,44,612174,0.0-7.0-2.2-0.2-4.2,,,,,,,6546549b0511efc35646724f,11:23:19,15/01/2024
1383.800000011921,"<p style=""font-size:3rem"">Trial 4 of 12</p><br><br><br>",0,fwdspan,start_trial,K7YeTsDfEHbxVESUViEhGcJEpOq1,html-button-response,45,613559,0.0-7.0-2.3-0.3-0.3,,,,,,,6546549b0511efc35646724f,11:23:19,15/01/2024
,"<p style=""font-size:14rem;font-weight:400;"">6</p>",,fwdspan,number,K7YeTsDfEHbxVESUViEhGcJEpOq1,html-keyboard-response,46,614571,0.0-7.0-2.3-0.3-1.12-0.12,,,,,,,6546549b0511efc35646724f,11:23:19,15/01/2024
,"<p style=""font-size:14rem;font-weight:400;"">8</p>",,fwdspan,number,K7YeTsDfEHbxVESUViEhGcJEpOq1,html-keyboard-response,47,615586,0.0-7.0-2.3-0.3-1.13-0.13,,,,,,,6546549b0511efc35646724f,11:23:19,15/01/2024
,"<p style=""font-size:14rem;font-weight:400;"">3</p>",,fwdspan,number,K7YeTsDfEHbxVESUViEhGcJEpOq1,html-keyboard-response,48,616594,0.0-7.0-2.3-0.3-1.14-0.14,,,,,,,6546549b0511efc35646724f,11:23:19,15/01/2024
,"<p style=""font-size:14rem;font-weight:400;"">5</p>",,fwdspan,number,K7YeTsDfEHbxVESUViEhGcJEpOq1,html-keyboard-response,49,617607,0.0-7.0-2.3-0.3-1.15-0.15,,,,,,,6546549b0511efc35646724f,11:23:19,15/01/2024
,"<p style=""font-size:14rem;font-weight:400;"">1</p>",,fwdspan,number,K7YeTsDfEHbxVESUViEhGcJEpOq1,html-keyboard-response,50,618648,0.0-7.0-2.3-0.3-1.16-0.16,,,,,,,6546549b0511efc35646724f,11:23:19,15/01/2024
,"<p style=""font-size:14rem;font-weight:400;"">4</p>",,fwdspan,number,K7YeTsDfEHbxVESUViEhGcJEpOq1,html-keyboard-response,51,619652,0.0-7.0-2.3-0.3-1.17-0.17,,,,,,,6546549b0511efc35646724f,11:23:19,15/01/2024
,[],,fwdspan,delay,K7YeTsDfEHbxVESUViEhGcJEpOq1,html-keyboard-response,52,620204,0.0-7.0-2.3-0.3-2.3,,,,,,,6546549b0511efc35646724f,11:23:19,15/01/2024
3612.699999988079,"<div class = numbox><p style=""font-size:2.5rem"">What were the numbers <b>in order</b>?<br>(When you are ready to lock in your answer, press <b>ENTER</b>)</p><button id = button_1 class = ""square num-button"" onclick = ""recordClick(this)""><div class = content><div class = numbers>1</div></div></button><button id = button_2 class = ""square num-button"" onclick = ""recordClick(this)""><div class = content><div class = numbers>2</div></div></button><button id = button_3 class = ""square num-button"" onclick = ""recordClick(this)""><div class = content><div class = numbers>3</div></div></button><button id = button_4 class = ""square num-button"" onclick = ""recordClick(this)""><div class = content><div class = numbers>4</div></div></button><button id = button_5 class = ""square num-button"" onclick = ""recordClick(this)""><div class = content><div class = numbers>5</div></div></button><button id = button_6 class = ""square num-button"" onclick = ""recordClick(this)""><div class = content><div class = numbers>6</div></div></button><button id = button_7 class = ""square num-button"" onclick = ""recordClick(this)""><div class = content><div class = numbers>7</div></div></button><button id = button_8 class = ""square num-button"" onclick = ""recordClick(this)""><div class = content><div class = numbers>8</div></div></button><button id = button_9 class = ""square num-button"" onclick = ""recordClick(this)""><div class = content><div class = numbers>9</div></div></button><button class = clear_button id = ""ClearButton"" onclick = ""clearResponse()"">Clear</button><p><u><b>Current Answer:</b></u></p><div id=echoed_txt style=""font-size: 6rem; color:blue;""><b></b></div></div><br><br><br><br><br><br><br>",enter,fwdspan,response,K7YeTsDfEHbxVESUViEhGcJEpOq1,html-keyboard-response,53,623818,0.0-7.0-2.3-0.3-3.3,6.0,"[6,8,3,5,1,4]","[6,8,3,5,1,4]",1.0,"[3, 4, 5, 6, 7, 8, 9, 10, 11, 11, 10, 11]",,6546549b0511efc35646724f,11:23:19,15/01/2024
,,,fwdspan,update_span,K7YeTsDfEHbxVESUViEhGcJEpOq1,call-function,54,624075,0.0-7.0-2.3-0.3-4.3,,,,,,,6546549b0511efc35646724f,11:23:19,15/01/2024
1543.2999999821186,"<p style=""font-size:3rem"">Trial 5 of 12</p><br><br><br>",0,fwdspan,start_trial,K7YeTsDfEHbxVESUViEhGcJEpOq1,html-button-response,55,625619,0.0-7.0-2.4-0.4-0.4,,,,,,,6546549b0511efc35646724f,11:23:19,15/01/2024
,"<p style=""font-size:14rem;font-weight:400;"">8</p>",,fwdspan,number,K7YeTsDfEHbxVESUViEhGcJEpOq1,html-keyboard-response,56,626632,0.0-7.0-2.4-0.4-1.18-0.18,,,,,,,6546549b0511efc35646724f,11:23:19,15/01/2024
,"<p style=""font-size:14rem;font-weight:400;"">1</p>",,fwdspan,number,K7YeTsDfEHbxVESUViEhGcJEpOq1,html-keyboard-response,57,627635,0.0-7.0-2.4-0.4-1.19-0.19,,,,,,,6546549b0511efc35646724f,11:23:19,15/01/2024
,"<p style=""font-size:14rem;font-weight:400;"">3</p>",,fwdspan,number,K7YeTsDfEHbxVESUViEhGcJEpOq1,html-keyboard-response,58,628637,0.0-7.0-2.4-0.4-1.20-0.20,,,,,,,6546549b0511efc35646724f,11:23:19,15/01/2024
,"<p style=""font-size:14rem;font-weight:400;"">7</p>",,fwdspan,number,K7YeTsDfEHbxVESUViEhGcJEpOq1,html-keyboard-response,59,629640,0.0-7.0-2.4-0.4-1.21-0.21,,,,,,,6546549b0511efc35646724f,11:23:19,15/01/2024
,"<p style=""font-size:14rem;font-weight:400;"">4</p>",,fwdspan,number,K7YeTsDfEHbxVESUViEhGcJEpOq1,html-keyboard-response,60,630643,0.0-7.0-2.4-0.4-1.22-0.22,,,,,,,6546549b0511efc35646724f,11:23:19,15/01/2024
,"<p style=""font-size:14rem;font-weight:400;"">9</p>",,fwdspan,number,K7YeTsDfEHbxVESUViEhGcJEpOq1,html-keyboard-response,61,631663,0.0-7.0-2.4-0.4-1.23-0.23,,,,,,,6546549b0511efc35646724f,11:23:19,15/01/2024
,"<p style=""font-size:14rem;font-weight:400;"">2</p>",,fwdspan,number,K7YeTsDfEHbxVESUViEhGcJEpOq1,html-keyboard-response,62,632688,0.0-7.0-2.4-0.4-1.24-0.24,,,,,,,6546549b0511efc35646724f,11:23:19,15/01/2024
,[],,fwdspan,delay,K7YeTsDfEHbxVESUViEhGcJEpOq1,html-keyboard-response,63,633242,0.0-7.0-2.4-0.4-2.4,,,,,,,6546549b0511efc35646724f,11:23:19,15/01/2024
5104.9000000059605,"<div class = numbox><p style=""font-size:2.5rem"">What were the numbers <b>in order</b>?<br>(When you are ready to lock in your answer, press <b>ENTER</b>)</p><button id = button_1 class = ""square num-button"" onclick = ""recordClick(this)""><div class = content><div class = numbers>1</div></div></button><button id = button_2 class = ""square num-button"" onclick = ""recordClick(this)""><div class = content><div class = numbers>2</div></div></button><button id = button_3 class = ""square num-button"" onclick = ""recordClick(this)""><div class = content><div class = numbers>3</div></div></button><button id = button_4 class = ""square num-button"" onclick = ""recordClick(this)""><div class = content><div class = numbers>4</div></div></button><button id = button_5 class = ""square num-button"" onclick = ""recordClick(this)""><div class = content><div class = numbers>5</div></div></button><button id = button_6 class = ""square num-button"" onclick = ""recordClick(this)""><div class = content><div class = numbers>6</div></div></button><button id = button_7 class = ""square num-button"" onclick = ""recordClick(this)""><div class = content><div class = numbers>7</div></div></button><button id = button_8 class = ""square num-button"" onclick = ""recordClick(this)""><div class = content><div class = numbers>8</div></div></button><button id = button_9 class = ""square num-button"" onclick = ""recordClick(this)""><div class = content><div class = numbers>9</div></div></button><button class = clear_button id = ""ClearButton"" onclick = ""clearResponse()"">Clear</button><p><u><b>Current Answer:</b></u></p><div id=echoed_txt style=""font-size: 6rem; color:blue;""><b></b></div></div><br><br><br><br><br><br><br>",enter,fwdspan,response,K7YeTsDfEHbxVESUViEhGcJEpOq1,html-keyboard-response,64,638355,0.0-7.0-2.4-0.4-3.4,7.0,"[8,1,3,7,4,9,2]","[8,1,3,7,4,9,2]",1.0,"[3, 4, 5, 6, 7, 8, 9, 10, 11, 11, 10, 11]",,6546549b0511efc35646724f,11:23:19,15/01/2024
,,,fwdspan,update_span,K7YeTsDfEHbxVESUViEhGcJEpOq1,call-function,65,638611,0.0-7.0-2.4-0.4-4.4,,,,,,,6546549b0511efc35646724f,11:23:19,15/01/2024
932.0,"<p style=""font-size:3rem"">Trial 6 of 12</p><br><br><br>",0,fwdspan,start_trial,K7YeTsDfEHbxVESUViEhGcJEpOq1,html-button-response,66,639544,0.0-7.0-2.5-0.5-0.5,,,,,,,6546549b0511efc35646724f,11:23:19,15/01/2024
,"<p style=""font-size:14rem;font-weight:400;"">4</p>",,fwdspan,number,K7YeTsDfEHbxVESUViEhGcJEpOq1,html-keyboard-response,67,640555,0.0-7.0-2.5-0.5-1.25-0.25,,,,,,,6546549b0511efc35646724f,11:23:19,15/01/2024
,"<p style=""font-size:14rem;font-weight:400;"">1</p>",,fwdspan,number,K7YeTsDfEHbxVESUViEhGcJEpOq1,html-keyboard-response,68,641570,0.0-7.0-2.5-0.5-1.26-0.26,,,,,,,6546549b0511efc35646724f,11:23:19,15/01/2024
,"<p style=""font-size:14rem;font-weight:400;"">3</p>",,fwdspan,number,K7YeTsDfEHbxVESUViEhGcJEpOq1,html-keyboard-response,69,642579,0.0-7.0-2.5-0.5-1.27-0.27,,,,,,,6546549b0511efc35646724f,11:23:19,15/01/2024
,"<p style=""font-size:14rem;font-weight:400;"">2</p>",,fwdspan,number,K7YeTsDfEHbxVESUViEhGcJEpOq1,html-keyboard-response,70,643593,0.0-7.0-2.5-0.5-1.28-0.28,,,,,,,6546549b0511efc35646724f,11:23:19,15/01/2024
,"<p style=""font-size:14rem;font-weight:400;"">9</p>",,fwdspan,number,K7YeTsDfEHbxVESUViEhGcJEpOq1,html-keyboard-response,71,644602,0.0-7.0-2.5-0.5-1.29-0.29,,,,,,,6546549b0511efc35646724f,11:23:19,15/01/2024
,"<p style=""font-size:14rem;font-weight:400;"">7</p>",,fwdspan,number,K7YeTsDfEHbxVESUViEhGcJEpOq1,html-keyboard-response,72,645617,0.0-7.0-2.5-0.5-1.30-0.30,,,,,,,6546549b0511efc35646724f,11:23:19,15/01/2024
,"<p style=""font-size:14rem;font-weight:400;"">6</p>",,fwdspan,number,K7YeTsDfEHbxVESUViEhGcJEpOq1,html-keyboard-response,73,646624,0.0-7.0-2.5-0.5-1.31-0.31,,,,,,,6546549b0511efc35646724f,11:23:19,15/01/2024
,"<p style=""font-size:14rem;font-weight:400;"">8</p>",,fwdspan,number,K7YeTsDfEHbxVESUViEhGcJEpOq1,html-keyboard-response,74,647645,0.0-7.0-2.5-0.5-1.32-0.32,,,,,,,6546549b0511efc35646724f,11:23:19,15/01/2024
,[],,fwdspan,delay,K7YeTsDfEHbxVESUViEhGcJEpOq1,html-keyboard-response,75,648196,0.0-7.0-2.5-0.5-2.5,,,,,,,6546549b0511efc35646724f,11:23:19,15/01/2024
8410.0,"<div class = numbox><p style=""font-size:2.5rem"">What were the numbers <b>in order</b>?<br>(When you are ready to lock in your answer, press <b>ENTER</b>)</p><button id = button_1 class = ""square num-button"" onclick = ""recordClick(this)""><div class = content><div class = numbers>1</div></div></button><button id = button_2 class = ""square num-button"" onclick = ""recordClick(this)""><div class = content><div class = numbers>2</div></div></button><button id = button_3 class = ""square num-button"" onclick = ""recordClick(this)""><div class = content><div class = numbers>3</div></div></button><button id = button_4 class = ""square num-button"" onclick = ""recordClick(this)""><div class = content><div class = numbers>4</div></div></button><button id = button_5 class = ""square num-button"" onclick = ""recordClick(this)""><div class = content><div class = numbers>5</div></div></button><button id = button_6 class = ""square num-button"" onclick = ""recordClick(this)""><div class = content><div class = numbers>6</div></div></button><button id = button_7 class = ""square num-button"" onclick = ""recordClick(this)""><div class = content><div class = numbers>7</div></div></button><button id = button_8 class = ""square num-button"" onclick = ""recordClick(this)""><div class = content><div class = numbers>8</div></div></button><button id = button_9 class = ""square num-button"" onclick = ""recordClick(this)""><div class = content><div class = numbers>9</div></div></button><button class = clear_button id = ""ClearButton"" onclick = ""clearResponse()"">Clear</button><p><u><b>Current Answer:</b></u></p><div id=echoed_txt style=""font-size: 6rem; color:blue;""><b></b></div></div><br><br><br><br><br><br><br>",enter,fwdspan,response,K7YeTsDfEHbxVESUViEhGcJEpOq1,html-keyboard-response,76,656608,0.0-7.0-2.5-0.5-3.5,8.0,"[4,1,3,2,9,7,6,8]","[4,1,3,2,9,7,6,8]",1.0,"[3, 4, 5, 6, 7, 8, 9, 10, 11, 11, 10, 11]",,6546549b0511efc35646724f,11:23:19,15/01/2024
,,,fwdspan,update_span,K7YeTsDfEHbxVESUViEhGcJEpOq1,call-function,77,656874,0.0-7.0-2.5-0.5-4.5,,,,,,,6546549b0511efc35646724f,11:23:19,15/01/2024
1372.699999988079,"<p style=""font-size:3rem"">Trial 7 of 12</p><br><br><br>",0,fwdspan,start_trial,K7YeTsDfEHbxVESUViEhGcJEpOq1,html-button-response,78,658248,0.0-7.0-2.6-0.6-0.6,,,,,,,6546549b0511efc35646724f,11:23:19,15/01/2024
,"<p style=""font-size:14rem;font-weight:400;"">5</p>",,fwdspan,number,K7YeTsDfEHbxVESUViEhGcJEpOq1,html-keyboard-response,79,659280,0.0-7.0-2.6-0.6-1.33-0.33,,,,,,,6546549b0511efc35646724f,11:23:19,15/01/2024
,"<p style=""font-size:14rem;font-weight:400;"">6</p>",,fwdspan,number,K7YeTsDfEHbxVESUViEhGcJEpOq1,html-keyboard-response,80,660299,0.0-7.0-2.6-0.6-1.34-0.34,,,,,,,6546549b0511efc35646724f,11:23:19,15/01/2024
,"<p style=""font-size:14rem;font-weight:400;"">3</p>",,fwdspan,number,K7YeTsDfEHbxVESUViEhGcJEpOq1,html-keyboard-response,81,661303,0.0-7.0-2.6-0.6-1.35-0.35,,,,,,,6546549b0511efc35646724f,11:23:19,15/01/2024
,"<p style=""font-size:14rem;font-weight:400;"">9</p>",,fwdspan,number,K7YeTsDfEHbxVESUViEhGcJEpOq1,html-keyboard-response,82,662317,0.0-7.0-2.6-0.6-1.36-0.36,,,,,,,6546549b0511efc35646724f,11:23:19,15/01/2024
,"<p style=""font-size:14rem;font-weight:400;"">4</p>",,fwdspan,number,K7YeTsDfEHbxVESUViEhGcJEpOq1,html-keyboard-response,83,663345,0.0-7.0-2.6-0.6-1.37-0.37,,,,,,,6546549b0511efc35646724f,11:23:19,15/01/2024
,"<p style=""font-size:14rem;font-weight:400;"">8</p>",,fwdspan,number,K7YeTsDfEHbxVESUViEhGcJEpOq1,html-keyboard-response,84,664357,0.0-7.0-2.6-0.6-1.38-0.38,,,,,,,6546549b0511efc35646724f,11:23:19,15/01/2024
,"<p style=""font-size:14rem;font-weight:400;"">1</p>",,fwdspan,number,K7YeTsDfEHbxVESUViEhGcJEpOq1,html-keyboard-response,85,665360,0.0-7.0-2.6-0.6-1.39-0.39,,,,,,,6546549b0511efc35646724f,11:23:19,15/01/2024
,"<p style=""font-size:14rem;font-weight:400;"">2</p>",,fwdspan,number,K7YeTsDfEHbxVESUViEhGcJEpOq1,html-keyboard-response,86,666363,0.0-7.0-2.6-0.6-1.40-0.40,,,,,,,6546549b0511efc35646724f,11:23:19,15/01/2024
,"<p style=""font-size:14rem;font-weight:400;"">7</p>",,fwdspan,number,K7YeTsDfEHbxVESUViEhGcJEpOq1,html-keyboard-response,87,667378,0.0-7.0-2.6-0.6-1.41-0.41,,,,,,,6546549b0511efc35646724f,11:23:19,15/01/2024
,[],,fwdspan,delay,K7YeTsDfEHbxVESUViEhGcJEpOq1,html-keyboard-response,88,667945,0.0-7.0-2.6-0.6-2.6,,,,,,,6546549b0511efc35646724f,11:23:19,15/01/2024
6424.4000000059605,"<div class = numbox><p style=""font-size:2.5rem"">What were the numbers <b>in order</b>?<br>(When you are ready to lock in your answer, press <b>ENTER</b>)</p><button id = button_1 class = ""square num-button"" onclick = ""recordClick(this)""><div class = content><div class = numbers>1</div></div></button><button id = button_2 class = ""square num-button"" onclick = ""recordClick(this)""><div class = content><div class = numbers>2</div></div></button><button id = button_3 class = ""square num-button"" onclick = ""recordClick(this)""><div class = content><div class = numbers>3</div></div></button><button id = button_4 class = ""square num-button"" onclick = ""recordClick(this)""><div class = content><div class = numbers>4</div></div></button><button id = button_5 class = ""square num-button"" onclick = ""recordClick(this)""><div class = content><div class = numbers>5</div></div></button><button id = button_6 class = ""square num-button"" onclick = ""recordClick(this)""><div class = content><div class = numbers>6</div></div></button><button id = button_7 class = ""square num-button"" onclick = ""recordClick(this)""><div class = content><div class = numbers>7</div></div></button><button id = button_8 class = ""square num-button"" onclick = ""recordClick(this)""><div class = content><div class = numbers>8</div></div></button><button id = button_9 class = ""square num-button"" onclick = ""recordClick(this)""><div class = content><div class = numbers>9</div></div></button><button class = clear_button id = ""ClearButton"" onclick = ""clearResponse()"">Clear</button><p><u><b>Current Answer:</b></u></p><div id=echoed_txt style=""font-size: 6rem; color:blue;""><b></b></div></div><br><br><br><br><br><br><br>",enter,fwdspan,response,K7YeTsDfEHbxVESUViEhGcJEpOq1,html-keyboard-response,89,674370,0.0-7.0-2.6-0.6-3.6,9.0,"[5,6,3,9,4,8,1,2,7]","[5,6,3,9,4,8,1,2,7]",1.0,"[3, 4, 5, 6, 7, 8, 9, 10, 11, 11, 10, 11]",,6546549b0511efc35646724f,11:23:19,15/01/2024
,,,fwdspan,update_span,K7YeTsDfEHbxVESUViEhGcJEpOq1,call-function,90,674624,0.0-7.0-2.6-0.6-4.6,,,,,,,6546549b0511efc35646724f,11:23:19,15/01/2024
1482.4000000059605,"<p style=""font-size:3rem"">Trial 8 of 12</p><br><br><br>",0,fwdspan,start_trial,K7YeTsDfEHbxVESUViEhGcJEpOq1,html-button-response,91,676108,0.0-7.0-2.7-0.7-0.7,,,,,,,6546549b0511efc35646724f,11:23:19,15/01/2024
,"<p style=""font-size:14rem;font-weight:400;"">5</p>",,fwdspan,number,K7YeTsDfEHbxVESUViEhGcJEpOq1,html-keyboard-response,92,677126,0.0-7.0-2.7-0.7-1.42-0.42,,,,,,,6546549b0511efc35646724f,11:23:19,15/01/2024
,"<p style=""font-size:14rem;font-weight:400;"">8</p>",,fwdspan,number,K7YeTsDfEHbxVESUViEhGcJEpOq1,html-keyboard-response,93,678129,0.0-7.0-2.7-0.7-1.43-0.43,,,,,,,6546549b0511efc35646724f,11:23:19,15/01/2024
,"<p style=""font-size:14rem;font-weight:400;"">1</p>",,fwdspan,number,K7YeTsDfEHbxVESUViEhGcJEpOq1,html-keyboard-response,94,679134,0.0-7.0-2.7-0.7-1.44-0.44,,,,,,,6546549b0511efc35646724f,11:23:19,15/01/2024
,"<p style=""font-size:14rem;font-weight:400;"">7</p>",,fwdspan,number,K7YeTsDfEHbxVESUViEhGcJEpOq1,html-keyboard-response,95,680160,0.0-7.0-2.7-0.7-1.45-0.45,,,,,,,6546549b0511efc35646724f,11:23:19,15/01/2024
,"<p style=""font-size:14rem;font-weight:400;"">6</p>",,fwdspan,number,K7YeTsDfEHbxVESUViEhGcJEpOq1,html-keyboard-response,96,681164,0.0-7.0-2.7-0.7-1.46-0.46,,,,,,,6546549b0511efc35646724f,11:23:19,15/01/2024
,"<p style=""font-size:14rem;font-weight:400;"">2</p>",,fwdspan,number,K7YeTsDfEHbxVESUViEhGcJEpOq1,html-keyboard-response,97,682169,0.0-7.0-2.7-0.7-1.47-0.47,,,,,,,6546549b0511efc35646724f,11:23:19,15/01/2024
,"<p style=""font-size:14rem;font-weight:400;"">9</p>",,fwdspan,number,K7YeTsDfEHbxVESUViEhGcJEpOq1,html-keyboard-response,98,683172,0.0-7.0-2.7-0.7-1.48-0.48,,,,,,,6546549b0511efc35646724f,11:23:19,15/01/2024
,"<p style=""font-size:14rem;font-weight:400;"">4</p>",,fwdspan,number,K7YeTsDfEHbxVESUViEhGcJEpOq1,html-keyboard-response,99,684176,0.0-7.0-2.7-0.7-1.49-0.49,,,,,,,6546549b0511efc35646724f,11:23:19,15/01/2024
,"<p style=""font-size:14rem;font-weight:400;"">3</p>",,fwdspan,number,K7YeTsDfEHbxVESUViEhGcJEpOq1,html-keyboard-response,100,685180,0.0-7.0-2.7-0.7-1.50-0.50,,,,,,,6546549b0511efc35646724f,11:23:19,15/01/2024
,"<p style=""font-size:14rem;font-weight:400;"">3</p>",,fwdspan,number,K7YeTsDfEHbxVESUViEhGcJEpOq1,html-keyboard-response,101,686183,0.0-7.0-2.7-0.7-1.51-0.51,,,,,,,6546549b0511efc35646724f,11:23:19,15/01/2024
,[],,fwdspan,delay,K7YeTsDfEHbxVESUViEhGcJEpOq1,html-keyboard-response,102,686734,0.0-7.0-2.7-0.7-2.7,,,,,,,6546549b0511efc35646724f,11:23:19,15/01/2024
6925.200000017881,"<div class = numbox><p style=""font-size:2.5rem"">What were the numbers <b>in order</b>?<br>(When you are ready to lock in your answer, press <b>ENTER</b>)</p><button id = button_1 class = ""square num-button"" onclick = ""recordClick(this)""><div class = content><div class = numbers>1</div></div></button><button id = button_2 class = ""square num-button"" onclick = ""recordClick(this)""><div class = content><div class = numbers>2</div></div></button><button id = button_3 class = ""square num-button"" onclick = ""recordClick(this)""><div class = content><div class = numbers>3</div></div></button><button id = button_4 class = ""square num-button"" onclick = ""recordClick(this)""><div class = content><div class = numbers>4</div></div></button><button id = button_5 class = ""square num-button"" onclick = ""recordClick(this)""><div class = content><div class = numbers>5</div></div></button><button id = button_6 class = ""square num-button"" onclick = ""recordClick(this)""><div class = content><div class = numbers>6</div></div></button><button id = button_7 class = ""square num-button"" onclick = ""recordClick(this)""><div class = content><div class = numbers>7</div></div></button><button id = button_8 class = ""square num-button"" onclick = ""recordClick(this)""><div class = content><div class = numbers>8</div></div></button><button id = button_9 class = ""square num-button"" onclick = ""recordClick(this)""><div class = content><div class = numbers>9</div></div></button><button class = clear_button id = ""ClearButton"" onclick = ""clearResponse()"">Clear</button><p><u><b>Current Answer:</b></u></p><div id=echoed_txt style=""font-size: 6rem; color:blue;""><b></b></div></div><br><br><br><br><br><br><br>",enter,fwdspan,response,K7YeTsDfEHbxVESUViEhGcJEpOq1,html-keyboard-response,103,693660,0.0-7.0-2.7-0.7-3.7,10.0,"[5,8,1,7,6,2,9,4,3,3]","[5,8,1,7,6,2,9,4,3,3]",1.0,"[3, 4, 5, 6, 7, 8, 9, 10, 11, 11, 10, 11]",,6546549b0511efc35646724f,11:23:19,15/01/2024
,,,fwdspan,update_span,K7YeTsDfEHbxVESUViEhGcJEpOq1,call-function,104,693923,0.0-7.0-2.7-0.7-4.7,,,,,,,6546549b0511efc35646724f,11:23:19,15/01/2024
1351.7000000178814,"<p style=""font-size:3rem"">Trial 9 of 12</p><br><br><br>",0,fwdspan,start_trial,K7YeTsDfEHbxVESUViEhGcJEpOq1,html-button-response,105,695276,0.0-7.0-2.8-0.8-0.8,,,,,,,6546549b0511efc35646724f,11:23:19,15/01/2024
,"<p style=""font-size:14rem;font-weight:400;"">5</p>",,fwdspan,number,K7YeTsDfEHbxVESUViEhGcJEpOq1,html-keyboard-response,106,696278,0.0-7.0-2.8-0.8-1.52-0.52,,,,,,,6546549b0511efc35646724f,11:23:19,15/01/2024
,"<p style=""font-size:14rem;font-weight:400;"">2</p>",,fwdspan,number,K7YeTsDfEHbxVESUViEhGcJEpOq1,html-keyboard-response,107,697284,0.0-7.0-2.8-0.8-1.53-0.53,,,,,,,6546549b0511efc35646724f,11:23:19,15/01/2024
,"<p style=""font-size:14rem;font-weight:400;"">3</p>",,fwdspan,number,K7YeTsDfEHbxVESUViEhGcJEpOq1,html-keyboard-response,108,698286,0.0-7.0-2.8-0.8-1.54-0.54,,,,,,,6546549b0511efc35646724f,11:23:19,15/01/2024
,"<p style=""font-size:14rem;font-weight:400;"">9</p>",,fwdspan,number,K7YeTsDfEHbxVESUViEhGcJEpOq1,html-keyboard-response,109,699302,0.0-7.0-2.8-0.8-1.55-0.55,,,,,,,6546549b0511efc35646724f,11:23:19,15/01/2024
,"<p style=""font-size:14rem;font-weight:400;"">8</p>",,fwdspan,number,K7YeTsDfEHbxVESUViEhGcJEpOq1,html-keyboard-response,110,700327,0.0-7.0-2.8-0.8-1.56-0.56,,,,,,,6546549b0511efc35646724f,11:23:19,15/01/2024
,"<p style=""font-size:14rem;font-weight:400;"">6</p>",,fwdspan,number,K7YeTsDfEHbxVESUViEhGcJEpOq1,html-keyboard-response,111,701331,0.0-7.0-2.8-0.8-1.57-0.57,,,,,,,6546549b0511efc35646724f,11:23:19,15/01/2024
,"<p style=""font-size:14rem;font-weight:400;"">7</p>",,fwdspan,number,K7YeTsDfEHbxVESUViEhGcJEpOq1,html-keyboard-response,112,702335,0.0-7.0-2.8-0.8-1.58-0.58,,,,,,,6546549b0511efc35646724f,11:23:19,15/01/2024
,"<p style=""font-size:14rem;font-weight:400;"">1</p>",,fwdspan,number,K7YeTsDfEHbxVESUViEhGcJEpOq1,html-keyboard-response,113,703339,0.0-7.0-2.8-0.8-1.59-0.59,,,,,,,6546549b0511efc35646724f,11:23:19,15/01/2024
,"<p style=""font-size:14rem;font-weight:400;"">4</p>",,fwdspan,number,K7YeTsDfEHbxVESUViEhGcJEpOq1,html-keyboard-response,114,704344,0.0-7.0-2.8-0.8-1.60-0.60,,,,,,,6546549b0511efc35646724f,11:23:19,15/01/2024
,"<p style=""font-size:14rem;font-weight:400;"">3</p>",,fwdspan,number,K7YeTsDfEHbxVESUViEhGcJEpOq1,html-keyboard-response,115,705353,0.0-7.0-2.8-0.8-1.61-0.61,,,,,,,6546549b0511efc35646724f,11:23:19,15/01/2024
,"<p style=""font-size:14rem;font-weight:400;"">4</p>",,fwdspan,number,K7YeTsDfEHbxVESUViEhGcJEpOq1,html-keyboard-response,116,706368,0.0-7.0-2.8-0.8-1.62-0.62,,,,,,,6546549b0511efc35646724f,11:23:19,15/01/2024
,[],,fwdspan,delay,K7YeTsDfEHbxVESUViEhGcJEpOq1,html-keyboard-response,117,706921,0.0-7.0-2.8-0.8-2.8,,,,,,,6546549b0511efc35646724f,11:23:19,15/01/2024
8693.5,"<div class = numbox><p style=""font-size:2.5rem"">What were the numbers <b>in order</b>?<br>(When you are ready to lock in your answer, press <b>ENTER</b>)</p><button id = button_1 class = ""square num-button"" onclick = ""recordClick(this)""><div class = content><div class = numbers>1</div></div></button><button id = button_2 class = ""square num-button"" onclick = ""recordClick(this)""><div class = content><div class = numbers>2</div></div></button><button id = button_3 class = ""square num-button"" onclick = ""recordClick(this)""><div class = content><div class = numbers>3</div></div></button><button id = button_4 class = ""square num-button"" onclick = ""recordClick(this)""><div class = content><div class = numbers>4</div></div></button><button id = button_5 class = ""square num-button"" onclick = ""recordClick(this)""><div class = content><div class = numbers>5</div></div></button><button id = button_6 class = ""square num-button"" onclick = ""recordClick(this)""><div class = content><div class = numbers>6</div></div></button><button id = button_7 class = ""square num-button"" onclick = ""recordClick(this)""><div class = content><div class = numbers>7</div></div></button><button id = button_8 class = ""square num-button"" onclick = ""recordClick(this)""><div class = content><div class = numbers>8</div></div></button><button id = button_9 class = ""square num-button"" onclick = ""recordClick(this)""><div class = content><div class = numbers>9</div></div></button><button class = clear_button id = ""ClearButton"" onclick = ""clearResponse()"">Clear</button><p><u><b>Current Answer:</b></u></p><div id=echoed_txt style=""font-size: 6rem; color:blue;""><b></b></div></div><br><br><br><br><br><br><br>",enter,fwdspan,response,K7YeTsDfEHbxVESUViEhGcJEpOq1,html-keyboard-response,118,715616,0.0-7.0-2.8-0.8-3.8,11.0,"[5,7,6,9,8,6,7,4,3,4,4]","[5,2,3,9,8,6,7,1,4,3,4]",0.0,"[3, 4, 5, 6, 7, 8, 9, 10, 11, 11, 10, 11]",,6546549b0511efc35646724f,11:23:19,15/01/2024
,,,fwdspan,update_span,K7YeTsDfEHbxVESUViEhGcJEpOq1,call-function,119,715880,0.0-7.0-2.8-0.8-4.8,,,,,,,6546549b0511efc35646724f,11:23:19,15/01/2024
1195.300000011921,"<p style=""font-size:3rem"">Trial 10 of 12</p><br><br><br>",0,fwdspan,start_trial,K7YeTsDfEHbxVESUViEhGcJEpOq1,html-button-response,120,717077,0.0-7.0-2.9-0.9-0.9,,,,,,,6546549b0511efc35646724f,11:23:19,15/01/2024
,"<p style=""font-size:14rem;font-weight:400;"">8</p>",,fwdspan,number,K7YeTsDfEHbxVESUViEhGcJEpOq1,html-keyboard-response,121,718087,0.0-7.0-2.9-0.9-1.63-0.63,,,,,,,6546549b0511efc35646724f,11:23:19,15/01/2024
,"<p style=""font-size:14rem;font-weight:400;"">1</p>",,fwdspan,number,K7YeTsDfEHbxVESUViEhGcJEpOq1,html-keyboard-response,122,719091,0.0-7.0-2.9-0.9-1.64-0.64,,,,,,,6546549b0511efc35646724f,11:23:19,15/01/2024
,"<p style=""font-size:14rem;font-weight:400;"">3</p>",,fwdspan,number,K7YeTsDfEHbxVESUViEhGcJEpOq1,html-keyboard-response,123,720095,0.0-7.0-2.9-0.9-1.65-0.65,,,,,,,6546549b0511efc35646724f,11:23:19,15/01/2024
,"<p style=""font-size:14rem;font-weight:400;"">5</p>",,fwdspan,number,K7YeTsDfEHbxVESUViEhGcJEpOq1,html-keyboard-response,124,721112,0.0-7.0-2.9-0.9-1.66-0.66,,,,,,,6546549b0511efc35646724f,11:23:19,15/01/2024
,"<p style=""font-size:14rem;font-weight:400;"">2</p>",,fwdspan,number,K7YeTsDfEHbxVESUViEhGcJEpOq1,html-keyboard-response,125,722130,0.0-7.0-2.9-0.9-1.67-0.67,,,,,,,6546549b0511efc35646724f,11:23:19,15/01/2024
,"<p style=""font-size:14rem;font-weight:400;"">7</p>",,fwdspan,number,K7YeTsDfEHbxVESUViEhGcJEpOq1,html-keyboard-response,126,723134,0.0-7.0-2.9-0.9-1.68-0.68,,,,,,,6546549b0511efc35646724f,11:23:19,15/01/2024
,"<p style=""font-size:14rem;font-weight:400;"">6</p>",,fwdspan,number,K7YeTsDfEHbxVESUViEhGcJEpOq1,html-keyboard-response,127,724138,0.0-7.0-2.9-0.9-1.69-0.69,,,,,,,6546549b0511efc35646724f,11:23:19,15/01/2024
,"<p style=""font-size:14rem;font-weight:400;"">4</p>",,fwdspan,number,K7YeTsDfEHbxVESUViEhGcJEpOq1,html-keyboard-response,128,725143,0.0-7.0-2.9-0.9-1.70-0.70,,,,,,,6546549b0511efc35646724f,11:23:19,15/01/2024
,"<p style=""font-size:14rem;font-weight:400;"">9</p>",,fwdspan,number,K7YeTsDfEHbxVESUViEhGcJEpOq1,html-keyboard-response,129,726146,0.0-7.0-2.9-0.9-1.71-0.71,,,,,,,6546549b0511efc35646724f,11:23:19,15/01/2024
,"<p style=""font-size:14rem;font-weight:400;"">1</p>",,fwdspan,number,K7YeTsDfEHbxVESUViEhGcJEpOq1,html-keyboard-response,130,727149,0.0-7.0-2.9-0.9-1.72-0.72,,,,,,,6546549b0511efc35646724f,11:23:19,15/01/2024
,"<p style=""font-size:14rem;font-weight:400;"">8</p>",,fwdspan,number,K7YeTsDfEHbxVESUViEhGcJEpOq1,html-keyboard-response,131,728152,0.0-7.0-2.9-0.9-1.73-0.73,,,,,,,6546549b0511efc35646724f,11:23:19,15/01/2024
,[],,fwdspan,delay,K7YeTsDfEHbxVESUViEhGcJEpOq1,html-keyboard-response,132,728705,0.0-7.0-2.9-0.9-2.9,,,,,,,6546549b0511efc35646724f,11:23:19,15/01/2024
13528.90000000596,"<div class = numbox><p style=""font-size:2.5rem"">What were the numbers <b>in order</b>?<br>(When you are ready to lock in your answer, press <b>ENTER</b>)</p><button id = button_1 class = ""square num-button"" onclick = ""recordClick(this)""><div class = content><div class = numbers>1</div></div></button><button id = button_2 class = ""square num-button"" onclick = ""recordClick(this)""><div class = content><div class = numbers>2</div></div></button><button id = button_3 class = ""square num-button"" onclick = ""recordClick(this)""><div class = content><div class = numbers>3</div></div></button><button id = button_4 class = ""square num-button"" onclick = ""recordClick(this)""><div class = content><div class = numbers>4</div></div></button><button id = button_5 class = ""square num-button"" onclick = ""recordClick(this)""><div class = content><div class = numbers>5</div></div></button><button id = button_6 class = ""square num-button"" onclick = ""recordClick(this)""><div class = content><div class = numbers>6</div></div></button><button id = button_7 class = ""square num-button"" onclick = ""recordClick(this)""><div class = content><div class = numbers>7</div></div></button><button id = button_8 class = ""square num-button"" onclick = ""recordClick(this)""><div class = content><div class = numbers>8</div></div></button><button id = button_9 class = ""square num-button"" onclick = ""recordClick(this)""><div class = content><div class = numbers>9</div></div></button><button class = clear_button id = ""ClearButton"" onclick = ""clearResponse()"">Clear</button><p><u><b>Current Answer:</b></u></p><div id=echoed_txt style=""font-size: 6rem; color:blue;""><b></b></div></div><br><br><br><br><br><br><br>",enter,fwdspan,response,K7YeTsDfEHbxVESUViEhGcJEpOq1,html-keyboard-response,133,742236,0.0-7.0-2.9-0.9-3.9,11.0,"[5,6,2,5,9,7,3,8]","[8,1,3,5,2,7,6,4,9,1,8]",0.0,"[3, 4, 5, 6, 7, 8, 9, 10, 11, 11, 10, 11]",,6546549b0511efc35646724f,11:23:19,15/01/2024
,,,fwdspan,update_span,K7YeTsDfEHbxVESUViEhGcJEpOq1,call-function,134,742497,0.0-7.0-2.9-0.9-4.9,,,,,,,6546549b0511efc35646724f,11:23:19,15/01/2024
1459.0999999940395,"<p style=""font-size:3rem"">Trial 11 of 12</p><br><br><br>",0,fwdspan,start_trial,K7YeTsDfEHbxVESUViEhGcJEpOq1,html-button-response,135,743957,0.0-7.0-2.10-0.10-0.10,,,,,,,6546549b0511efc35646724f,11:23:19,15/01/2024
,"<p style=""font-size:14rem;font-weight:400;"">5</p>",,fwdspan,number,K7YeTsDfEHbxVESUViEhGcJEpOq1,html-keyboard-response,136,744975,0.0-7.0-2.10-0.10-1.74-0.74,,,,,,,6546549b0511efc35646724f,11:23:19,15/01/2024
,"<p style=""font-size:14rem;font-weight:400;"">6</p>",,fwdspan,number,K7YeTsDfEHbxVESUViEhGcJEpOq1,html-keyboard-response,137,745979,0.0-7.0-2.10-0.10-1.75-0.75,,,,,,,6546549b0511efc35646724f,11:23:19,15/01/2024
,"<p style=""font-size:14rem;font-weight:400;"">4</p>",,fwdspan,number,K7YeTsDfEHbxVESUViEhGcJEpOq1,html-keyboard-response,138,746983,0.0-7.0-2.10-0.10-1.76-0.76,,,,,,,6546549b0511efc35646724f,11:23:19,15/01/2024
,"<p style=""font-size:14rem;font-weight:400;"">9</p>",,fwdspan,number,K7YeTsDfEHbxVESUViEhGcJEpOq1,html-keyboard-response,139,748002,0.0-7.0-2.10-0.10-1.77-0.77,,,,,,,6546549b0511efc35646724f,11:23:19,15/01/2024
,"<p style=""font-size:14rem;font-weight:400;"">2</p>",,fwdspan,number,K7YeTsDfEHbxVESUViEhGcJEpOq1,html-keyboard-response,140,749005,0.0-7.0-2.10-0.10-1.78-0.78,,,,,,,6546549b0511efc35646724f,11:23:19,15/01/2024
,"<p style=""font-size:14rem;font-weight:400;"">1</p>",,fwdspan,number,K7YeTsDfEHbxVESUViEhGcJEpOq1,html-keyboard-response,141,750009,0.0-7.0-2.10-0.10-1.79-0.79,,,,,,,6546549b0511efc35646724f,11:23:19,15/01/2024
,"<p style=""font-size:14rem;font-weight:400;"">7</p>",,fwdspan,number,K7YeTsDfEHbxVESUViEhGcJEpOq1,html-keyboard-response,142,751014,0.0-7.0-2.10-0.10-1.80-0.80,,,,,,,6546549b0511efc35646724f,11:23:19,15/01/2024
,"<p style=""font-size:14rem;font-weight:400;"">3</p>",,fwdspan,number,K7YeTsDfEHbxVESUViEhGcJEpOq1,html-keyboard-response,143,752016,0.0-7.0-2.10-0.10-1.81-0.81,,,,,,,6546549b0511efc35646724f,11:23:19,15/01/2024
,"<p style=""font-size:14rem;font-weight:400;"">8</p>",,fwdspan,number,K7YeTsDfEHbxVESUViEhGcJEpOq1,html-keyboard-response,144,753020,0.0-7.0-2.10-0.10-1.82-0.82,,,,,,,6546549b0511efc35646724f,11:23:19,15/01/2024
,"<p style=""font-size:14rem;font-weight:400;"">8</p>",,fwdspan,number,K7YeTsDfEHbxVESUViEhGcJEpOq1,html-keyboard-response,145,754023,0.0-7.0-2.10-0.10-1.83-0.83,,,,,,,6546549b0511efc35646724f,11:23:19,15/01/2024
,[],,fwdspan,delay,K7YeTsDfEHbxVESUViEhGcJEpOq1,html-keyboard-response,146,754578,0.0-7.0-2.10-0.10-2.10,,,,,,,6546549b0511efc35646724f,11:23:19,15/01/2024
6678.800000011921,"<div class = numbox><p style=""font-size:2.5rem"">What were the numbers <b>in order</b>?<br>(When you are ready to lock in your answer, press <b>ENTER</b>)</p><button id = button_1 class = ""square num-button"" onclick = ""recordClick(this)""><div class = content><div class = numbers>1</div></div></button><button id = button_2 class = ""square num-button"" onclick = ""recordClick(this)""><div class = content><div class = numbers>2</div></div></button><button id = button_3 class = ""square num-button"" onclick = ""recordClick(this)""><div class = content><div class = numbers>3</div></div></button><button id = button_4 class = ""square num-button"" onclick = ""recordClick(this)""><div class = content><div class = numbers>4</div></div></button><button id = button_5 class = ""square num-button"" onclick = ""recordClick(this)""><div class = content><div class = numbers>5</div></div></button><button id = button_6 class = ""square num-button"" onclick = ""recordClick(this)""><div class = content><div class = numbers>6</div></div></button><button id = button_7 class = ""square num-button"" onclick = ""recordClick(this)""><div class = content><div class = numbers>7</div></div></button><button id = button_8 class = ""square num-button"" onclick = ""recordClick(this)""><div class = content><div class = numbers>8</div></div></button><button id = button_9 class = ""square num-button"" onclick = ""recordClick(this)""><div class = content><div class = numbers>9</div></div></button><button class = clear_button id = ""ClearButton"" onclick = ""clearResponse()"">Clear</button><p><u><b>Current Answer:</b></u></p><div id=echoed_txt style=""font-size: 6rem; color:blue;""><b></b></div></div><br><br><br><br><br><br><br>",enter,fwdspan,response,K7YeTsDfEHbxVESUViEhGcJEpOq1,html-keyboard-response,147,761260,0.0-7.0-2.10-0.10-3.10,10.0,"[5,6,4,9,2,1,7,3,8,8]","[5,6,4,9,2,1,7,3,8,8]",1.0,"[3, 4, 5, 6, 7, 8, 9, 10, 11, 11, 10, 11]",,6546549b0511efc35646724f,11:23:19,15/01/2024
,,,fwdspan,update_span,K7YeTsDfEHbxVESUViEhGcJEpOq1,call-function,148,761515,0.0-7.0-2.10-0.10-4.10,,,,,,,6546549b0511efc35646724f,11:23:19,15/01/2024
1209.9000000059605,"<p style=""font-size:3rem"">Trial 12 of 12</p><br><br><br>",0,fwdspan,start_trial,K7YeTsDfEHbxVESUViEhGcJEpOq1,html-button-response,149,762726,0.0-7.0-2.11-0.11-0.11,,,,,,,6546549b0511efc35646724f,11:23:19,15/01/2024
,"<p style=""font-size:14rem;font-weight:400;"">2</p>",,fwdspan,number,K7YeTsDfEHbxVESUViEhGcJEpOq1,html-keyboard-response,150,763746,0.0-7.0-2.11-0.11-1.84-0.84,,,,,,,6546549b0511efc35646724f,11:23:19,15/01/2024
,"<p style=""font-size:14rem;font-weight:400;"">9</p>",,fwdspan,number,K7YeTsDfEHbxVESUViEhGcJEpOq1,html-keyboard-response,151,764751,0.0-7.0-2.11-0.11-1.85-0.85,,,,,,,6546549b0511efc35646724f,11:23:19,15/01/2024
,"<p style=""font-size:14rem;font-weight:400;"">3</p>",,fwdspan,number,K7YeTsDfEHbxVESUViEhGcJEpOq1,html-keyboard-response,152,765769,0.0-7.0-2.11-0.11-1.86-0.86,,,,,,,6546549b0511efc35646724f,11:23:19,15/01/2024
,"<p style=""font-size:14rem;font-weight:400;"">6</p>",,fwdspan,number,K7YeTsDfEHbxVESUViEhGcJEpOq1,html-keyboard-response,153,766773,0.0-7.0-2.11-0.11-1.87-0.87,,,,,,,6546549b0511efc35646724f,11:23:19,15/01/2024
,"<p style=""font-size:14rem;font-weight:400;"">4</p>",,fwdspan,number,K7YeTsDfEHbxVESUViEhGcJEpOq1,html-keyboard-response,154,767777,0.0-7.0-2.11-0.11-1.88-0.88,,,,,,,6546549b0511efc35646724f,11:23:19,15/01/2024
,"<p style=""font-size:14rem;font-weight:400;"">8</p>",,fwdspan,number,K7YeTsDfEHbxVESUViEhGcJEpOq1,html-keyboard-response,155,768780,0.0-7.0-2.11-0.11-1.89-0.89,,,,,,,6546549b0511efc35646724f,11:23:19,15/01/2024
,"<p style=""font-size:14rem;font-weight:400;"">5</p>",,fwdspan,number,K7YeTsDfEHbxVESUViEhGcJEpOq1,html-keyboard-response,156,769783,0.0-7.0-2.11-0.11-1.90-0.90,,,,,,,6546549b0511efc35646724f,11:23:19,15/01/2024
,"<p style=""font-size:14rem;font-weight:400;"">1</p>",,fwdspan,number,K7YeTsDfEHbxVESUViEhGcJEpOq1,html-keyboard-response,157,770788,0.0-7.0-2.11-0.11-1.91-0.91,,,,,,,6546549b0511efc35646724f,11:23:19,15/01/2024
,"<p style=""font-size:14rem;font-weight:400;"">7</p>",,fwdspan,number,K7YeTsDfEHbxVESUViEhGcJEpOq1,html-keyboard-response,158,771791,0.0-7.0-2.11-0.11-1.92-0.92,,,,,,,6546549b0511efc35646724f,11:23:19,15/01/2024
,"<p style=""font-size:14rem;font-weight:400;"">5</p>",,fwdspan,number,K7YeTsDfEHbxVESUViEhGcJEpOq1,html-keyboard-response,159,772795,0.0-7.0-2.11-0.11-1.93-0.93,,,,,,,6546549b0511efc35646724f,11:23:19,15/01/2024
,"<p style=""font-size:14rem;font-weight:400;"">2</p>",,fwdspan,number,K7YeTsDfEHbxVESUViEhGcJEpOq1,html-keyboard-response,160,773805,0.0-7.0-2.11-0.11-1.94-0.94,,,,,,,6546549b0511efc35646724f,11:23:19,15/01/2024
,[],,fwdspan,delay,K7YeTsDfEHbxVESUViEhGcJEpOq1,html-keyboard-response,161,774357,0.0-7.0-2.11-0.11-2.11,,,,,,,6546549b0511efc35646724f,11:23:19,15/01/2024
4875.9000000059605,"<div class = numbox><p style=""font-size:2.5rem"">What were the numbers <b>in order</b>?<br>(When you are ready to lock in your answer, press <b>ENTER</b>)</p><button id = button_1 class = ""square num-button"" onclick = ""recordClick(this)""><div class = content><div class = numbers>1</div></div></button><button id = button_2 class = ""square num-button"" onclick = ""recordClick(this)""><div class = content><div class = numbers>2</div></div></button><button id = button_3 class = ""square num-button"" onclick = ""recordClick(this)""><div class = content><div class = numbers>3</div></div></button><button id = button_4 class = ""square num-button"" onclick = ""recordClick(this)""><div class = content><div class = numbers>4</div></div></button><button id = button_5 class = ""square num-button"" onclick = ""recordClick(this)""><div class = content><div class = numbers>5</div></div></button><button id = button_6 class = ""square num-button"" onclick = ""recordClick(this)""><div class = content><div class = numbers>6</div></div></button><button id = button_7 class = ""square num-button"" onclick = ""recordClick(this)""><div class = content><div class = numbers>7</div></div></button><button id = button_8 class = ""square num-button"" onclick = ""recordClick(this)""><div class = content><div class = numbers>8</div></div></button><button id = button_9 class = ""square num-button"" onclick = ""recordClick(this)""><div class = content><div class = numbers>9</div></div></button><button class = clear_button id = ""ClearButton"" onclick = ""clearResponse()"">Clear</button><p><u><b>Current Answer:</b></u></p><div id=echoed_txt style=""font-size: 6rem; color:blue;""><b></b></div></div><br><br><br><br><br><br><br>",enter,fwdspan,response,K7YeTsDfEHbxVESUViEhGcJEpOq1,html-keyboard-response,162,779234,0.0-7.0-2.11-0.11-3.11,11.0,"[2,9,3,6,4,8,5]","[2,9,3,6,4,8,5,1,7,5,2]",0.0,"[3, 4, 5, 6, 7, 8, 9, 10, 11, 11, 10, 11]",,6546549b0511efc35646724f,11:23:19,15/01/2024
,,,fwdspan,update_span,K7YeTsDfEHbxVESUViEhGcJEpOq1,call-function,163,779501,0.0-7.0-2.11-0.11-4.11,,,,,,,6546549b0511efc35646724f,11:23:19,15/01/2024
35874.09999999404,,"{'Q0': 'Nothing was unclear, however did not enjoy the longer numbers towards the end'}",fwdspan,survey,K7YeTsDfEHbxVESUViEhGcJEpOq1,lmdlab-survey-text,164,816127,0.0-7.0-3.0,,,,,,K7YeTsDfEHbxVESUViEhGcJEpOq1,6546549b0511efc35646724f,11:23:19,15/01/2024
1211.4000000059605,<p><p style='font-size: 3rem'>Great work!<br><br>This completes the digit span task.</p><br><br><br>,0,fwdspan,finish,K7YeTsDfEHbxVESUViEhGcJEpOq1,html-button-response,165,817345,0.0-7.0-4.0,,,,,,,6546549b0511efc35646724f,11:23:19,15/01/2024
