rt,stimulus,response,exp_name,exp_stage,subjectID,trial_type,trial_index,time_elapsed,internal_node_id,span,answer,correct,correct_full,span_history,databaseID,prolificID,start_time,date
4053.4000000059605,"<p style=""font-size:4rem""><br><br>In the next part today, we have a completely different short task.<br><br><br>This part involves keeping numbers in you mind. Participation takes around 5 minutes.<br><br><br></p>",0,fwdspan,instruct,g0WCa8plPwgiifQVww7hWG4zu4k2,html-button-response,19,300469,0.0-7.0-0.0,,,,,,,6384d247abd7c0f44276bfab,1:10:38 PM,1/15/2024
11590.399999976158,"<p style=""font-size:5rem"">Welcome to the <b>digit span task</b>!<br><br></p><p style=""font-size:3.4rem""><br>On each trial, you will see a sequence of digits, followed by a delay.</p><p style=""font-size:3.4rem""><br>Then you will be asked to type them back in the same order in which they were seen.</p><p style=""font-size:3.4rem""><br><br><br>For example, if you saw the digits <b style=""color:blue;"">1</b>, <b style=""color:blue;"">2</b>, <b style=""color:blue;"">3</b>, you would respond with <b style=""color:blue;"">1</b>, <b style=""color:blue;"">2</b>, <b style=""color:blue;"">3</b></p><p style=""font-size:3.4rem""><br><br><br>To ensure the best measure of true performance for our study,<br><br>it is very important that you do not use any memory aid (e.g., pen and paper).<br><br>Please do the task solely in your head.</p><p style=""font-size:3.4rem""><br><br><br>There will be 12 total trials. Participation takes around 5 minutes.</p><br><br><br>",0,fwdspan,instruct,g0WCa8plPwgiifQVww7hWG4zu4k2,html-button-response,20,312060,0.0-7.0-1.0,,,,,,,6384d247abd7c0f44276bfab,1:10:38 PM,1/15/2024
1148.7999999821186,"<p style=""font-size:3rem"">Trial 1 of 12</p><br><br><br>",0,fwdspan,start_trial,g0WCa8plPwgiifQVww7hWG4zu4k2,html-button-response,21,313212,0.0-7.0-2.0-0.0-0.0,,,,,,,6384d247abd7c0f44276bfab,1:10:38 PM,1/15/2024
,"<p style=""font-size:14rem;font-weight:400;"">6</p>",,fwdspan,number,g0WCa8plPwgiifQVww7hWG4zu4k2,html-keyboard-response,22,314222,0.0-7.0-2.0-0.0-1.0-0.0,,,,,,,6384d247abd7c0f44276bfab,1:10:38 PM,1/15/2024
,"<p style=""font-size:14rem;font-weight:400;"">3</p>",,fwdspan,number,g0WCa8plPwgiifQVww7hWG4zu4k2,html-keyboard-response,23,315249,0.0-7.0-2.0-0.0-1.1-0.1,,,,,,,6384d247abd7c0f44276bfab,1:10:38 PM,1/15/2024
,"<p style=""font-size:14rem;font-weight:400;"">2</p>",,fwdspan,number,g0WCa8plPwgiifQVww7hWG4zu4k2,html-keyboard-response,24,316275,0.0-7.0-2.0-0.0-1.2-0.2,,,,,,,6384d247abd7c0f44276bfab,1:10:38 PM,1/15/2024
,[],,fwdspan,delay,g0WCa8plPwgiifQVww7hWG4zu4k2,html-keyboard-response,25,316853,0.0-7.0-2.0-0.0-2.0,,,,,,,6384d247abd7c0f44276bfab,1:10:38 PM,1/15/2024
3643.4000000059605,"<div class = numbox><p style=""font-size:2.5rem"">What were the numbers <b>in order</b>?<br>(When you are ready to lock in your answer, press <b>ENTER</b>)</p><button id = button_1 class = ""square num-button"" onclick = ""recordClick(this)""><div class = content><div class = numbers>1</div></div></button><button id = button_2 class = ""square num-button"" onclick = ""recordClick(this)""><div class = content><div class = numbers>2</div></div></button><button id = button_3 class = ""square num-button"" onclick = ""recordClick(this)""><div class = content><div class = numbers>3</div></div></button><button id = button_4 class = ""square num-button"" onclick = ""recordClick(this)""><div class = content><div class = numbers>4</div></div></button><button id = button_5 class = ""square num-button"" onclick = ""recordClick(this)""><div class = content><div class = numbers>5</div></div></button><button id = button_6 class = ""square num-button"" onclick = ""recordClick(this)""><div class = content><div class = numbers>6</div></div></button><button id = button_7 class = ""square num-button"" onclick = ""recordClick(this)""><div class = content><div class = numbers>7</div></div></button><button id = button_8 class = ""square num-button"" onclick = ""recordClick(this)""><div class = content><div class = numbers>8</div></div></button><button id = button_9 class = ""square num-button"" onclick = ""recordClick(this)""><div class = content><div class = numbers>9</div></div></button><button class = clear_button id = ""ClearButton"" onclick = ""clearResponse()"">Clear</button><p><u><b>Current Answer:</b></u></p><div id=echoed_txt style=""font-size: 6rem; color:blue;""><b></b></div></div><br><br><br><br><br><br><br>",enter,fwdspan,response,g0WCa8plPwgiifQVww7hWG4zu4k2,html-keyboard-response,26,320497,0.0-7.0-2.0-0.0-3.0,3.0,"[6,3,2]","[6,3,2]",1.0,"[3, 4, 5, 6, 7, 8, 8, 7, 8, 8, 7, 8]",,6384d247abd7c0f44276bfab,1:10:38 PM,1/15/2024
,,,fwdspan,update_span,g0WCa8plPwgiifQVww7hWG4zu4k2,call-function,27,320755,0.0-7.0-2.0-0.0-4.0,,,,,,,6384d247abd7c0f44276bfab,1:10:38 PM,1/15/2024
3751.0999999940395,"<p style=""font-size:3rem"">Trial 2 of 12</p><br><br><br>",0,fwdspan,start_trial,g0WCa8plPwgiifQVww7hWG4zu4k2,html-button-response,28,324507,0.0-7.0-2.1-0.1-0.1,,,,,,,6384d247abd7c0f44276bfab,1:10:38 PM,1/15/2024
,"<p style=""font-size:14rem;font-weight:400;"">2</p>",,fwdspan,number,g0WCa8plPwgiifQVww7hWG4zu4k2,html-keyboard-response,29,325517,0.0-7.0-2.1-0.1-1.3-0.3,,,,,,,6384d247abd7c0f44276bfab,1:10:38 PM,1/15/2024
,"<p style=""font-size:14rem;font-weight:400;"">7</p>",,fwdspan,number,g0WCa8plPwgiifQVww7hWG4zu4k2,html-keyboard-response,30,326533,0.0-7.0-2.1-0.1-1.4-0.4,,,,,,,6384d247abd7c0f44276bfab,1:10:38 PM,1/15/2024
,"<p style=""font-size:14rem;font-weight:400;"">9</p>",,fwdspan,number,g0WCa8plPwgiifQVww7hWG4zu4k2,html-keyboard-response,31,327557,0.0-7.0-2.1-0.1-1.5-0.5,,,,,,,6384d247abd7c0f44276bfab,1:10:38 PM,1/15/2024
,"<p style=""font-size:14rem;font-weight:400;"">5</p>",,fwdspan,number,g0WCa8plPwgiifQVww7hWG4zu4k2,html-keyboard-response,32,328571,0.0-7.0-2.1-0.1-1.6-0.6,,,,,,,6384d247abd7c0f44276bfab,1:10:38 PM,1/15/2024
,[],,fwdspan,delay,g0WCa8plPwgiifQVww7hWG4zu4k2,html-keyboard-response,33,329148,0.0-7.0-2.1-0.1-2.1,,,,,,,6384d247abd7c0f44276bfab,1:10:38 PM,1/15/2024
4273.5999999940395,"<div class = numbox><p style=""font-size:2.5rem"">What were the numbers <b>in order</b>?<br>(When you are ready to lock in your answer, press <b>ENTER</b>)</p><button id = button_1 class = ""square num-button"" onclick = ""recordClick(this)""><div class = content><div class = numbers>1</div></div></button><button id = button_2 class = ""square num-button"" onclick = ""recordClick(this)""><div class = content><div class = numbers>2</div></div></button><button id = button_3 class = ""square num-button"" onclick = ""recordClick(this)""><div class = content><div class = numbers>3</div></div></button><button id = button_4 class = ""square num-button"" onclick = ""recordClick(this)""><div class = content><div class = numbers>4</div></div></button><button id = button_5 class = ""square num-button"" onclick = ""recordClick(this)""><div class = content><div class = numbers>5</div></div></button><button id = button_6 class = ""square num-button"" onclick = ""recordClick(this)""><div class = content><div class = numbers>6</div></div></button><button id = button_7 class = ""square num-button"" onclick = ""recordClick(this)""><div class = content><div class = numbers>7</div></div></button><button id = button_8 class = ""square num-button"" onclick = ""recordClick(this)""><div class = content><div class = numbers>8</div></div></button><button id = button_9 class = ""square num-button"" onclick = ""recordClick(this)""><div class = content><div class = numbers>9</div></div></button><button class = clear_button id = ""ClearButton"" onclick = ""clearResponse()"">Clear</button><p><u><b>Current Answer:</b></u></p><div id=echoed_txt style=""font-size: 6rem; color:blue;""><b></b></div></div><br><br><br><br><br><br><br>",enter,fwdspan,response,g0WCa8plPwgiifQVww7hWG4zu4k2,html-keyboard-response,34,333423,0.0-7.0-2.1-0.1-3.1,4.0,"[2,7,9,5]","[2,7,9,5]",1.0,"[3, 4, 5, 6, 7, 8, 8, 7, 8, 8, 7, 8]",,6384d247abd7c0f44276bfab,1:10:38 PM,1/15/2024
,,,fwdspan,update_span,g0WCa8plPwgiifQVww7hWG4zu4k2,call-function,35,333689,0.0-7.0-2.1-0.1-4.1,,,,,,,6384d247abd7c0f44276bfab,1:10:38 PM,1/15/2024
2392.5,"<p style=""font-size:3rem"">Trial 3 of 12</p><br><br><br>",0,fwdspan,start_trial,g0WCa8plPwgiifQVww7hWG4zu4k2,html-button-response,36,336083,0.0-7.0-2.2-0.2-0.2,,,,,,,6384d247abd7c0f44276bfab,1:10:38 PM,1/15/2024
,"<p style=""font-size:14rem;font-weight:400;"">6</p>",,fwdspan,number,g0WCa8plPwgiifQVww7hWG4zu4k2,html-keyboard-response,37,337104,0.0-7.0-2.2-0.2-1.7-0.7,,,,,,,6384d247abd7c0f44276bfab,1:10:38 PM,1/15/2024
,"<p style=""font-size:14rem;font-weight:400;"">3</p>",,fwdspan,number,g0WCa8plPwgiifQVww7hWG4zu4k2,html-keyboard-response,38,338127,0.0-7.0-2.2-0.2-1.8-0.8,,,,,,,6384d247abd7c0f44276bfab,1:10:38 PM,1/15/2024
,"<p style=""font-size:14rem;font-weight:400;"">1</p>",,fwdspan,number,g0WCa8plPwgiifQVww7hWG4zu4k2,html-keyboard-response,39,339155,0.0-7.0-2.2-0.2-1.9-0.9,,,,,,,6384d247abd7c0f44276bfab,1:10:38 PM,1/15/2024
,"<p style=""font-size:14rem;font-weight:400;"">9</p>",,fwdspan,number,g0WCa8plPwgiifQVww7hWG4zu4k2,html-keyboard-response,40,340182,0.0-7.0-2.2-0.2-1.10-0.10,,,,,,,6384d247abd7c0f44276bfab,1:10:38 PM,1/15/2024
,"<p style=""font-size:14rem;font-weight:400;"">4</p>",,fwdspan,number,g0WCa8plPwgiifQVww7hWG4zu4k2,html-keyboard-response,41,341206,0.0-7.0-2.2-0.2-1.11-0.11,,,,,,,6384d247abd7c0f44276bfab,1:10:38 PM,1/15/2024
,[],,fwdspan,delay,g0WCa8plPwgiifQVww7hWG4zu4k2,html-keyboard-response,42,341771,0.0-7.0-2.2-0.2-2.2,,,,,,,6384d247abd7c0f44276bfab,1:10:38 PM,1/15/2024
3179.4000000059605,"<div class = numbox><p style=""font-size:2.5rem"">What were the numbers <b>in order</b>?<br>(When you are ready to lock in your answer, press <b>ENTER</b>)</p><button id = button_1 class = ""square num-button"" onclick = ""recordClick(this)""><div class = content><div class = numbers>1</div></div></button><button id = button_2 class = ""square num-button"" onclick = ""recordClick(this)""><div class = content><div class = numbers>2</div></div></button><button id = button_3 class = ""square num-button"" onclick = ""recordClick(this)""><div class = content><div class = numbers>3</div></div></button><button id = button_4 class = ""square num-button"" onclick = ""recordClick(this)""><div class = content><div class = numbers>4</div></div></button><button id = button_5 class = ""square num-button"" onclick = ""recordClick(this)""><div class = content><div class = numbers>5</div></div></button><button id = button_6 class = ""square num-button"" onclick = ""recordClick(this)""><div class = content><div class = numbers>6</div></div></button><button id = button_7 class = ""square num-button"" onclick = ""recordClick(this)""><div class = content><div class = numbers>7</div></div></button><button id = button_8 class = ""square num-button"" onclick = ""recordClick(this)""><div class = content><div class = numbers>8</div></div></button><button id = button_9 class = ""square num-button"" onclick = ""recordClick(this)""><div class = content><div class = numbers>9</div></div></button><button class = clear_button id = ""ClearButton"" onclick = ""clearResponse()"">Clear</button><p><u><b>Current Answer:</b></u></p><div id=echoed_txt style=""font-size: 6rem; color:blue;""><b></b></div></div><br><br><br><br><br><br><br>",enter,fwdspan,response,g0WCa8plPwgiifQVww7hWG4zu4k2,html-keyboard-response,43,344951,0.0-7.0-2.2-0.2-3.2,5.0,"[6,3,1,9,4]","[6,3,1,9,4]",1.0,"[3, 4, 5, 6, 7, 8, 8, 7, 8, 8, 7, 8]",,6384d247abd7c0f44276bfab,1:10:38 PM,1/15/2024
,,,fwdspan,update_span,g0WCa8plPwgiifQVww7hWG4zu4k2,call-function,44,345214,0.0-7.0-2.2-0.2-4.2,,,,,,,6384d247abd7c0f44276bfab,1:10:38 PM,1/15/2024
1806.1000000238419,"<p style=""font-size:3rem"">Trial 4 of 12</p><br><br><br>",0,fwdspan,start_trial,g0WCa8plPwgiifQVww7hWG4zu4k2,html-button-response,45,347021,0.0-7.0-2.3-0.3-0.3,,,,,,,6384d247abd7c0f44276bfab,1:10:38 PM,1/15/2024
,"<p style=""font-size:14rem;font-weight:400;"">7</p>",,fwdspan,number,g0WCa8plPwgiifQVww7hWG4zu4k2,html-keyboard-response,46,348029,0.0-7.0-2.3-0.3-1.12-0.12,,,,,,,6384d247abd7c0f44276bfab,1:10:38 PM,1/15/2024
,"<p style=""font-size:14rem;font-weight:400;"">3</p>",,fwdspan,number,g0WCa8plPwgiifQVww7hWG4zu4k2,html-keyboard-response,47,349054,0.0-7.0-2.3-0.3-1.13-0.13,,,,,,,6384d247abd7c0f44276bfab,1:10:38 PM,1/15/2024
,"<p style=""font-size:14rem;font-weight:400;"">8</p>",,fwdspan,number,g0WCa8plPwgiifQVww7hWG4zu4k2,html-keyboard-response,48,350077,0.0-7.0-2.3-0.3-1.14-0.14,,,,,,,6384d247abd7c0f44276bfab,1:10:38 PM,1/15/2024
,"<p style=""font-size:14rem;font-weight:400;"">1</p>",,fwdspan,number,g0WCa8plPwgiifQVww7hWG4zu4k2,html-keyboard-response,49,351104,0.0-7.0-2.3-0.3-1.15-0.15,,,,,,,6384d247abd7c0f44276bfab,1:10:38 PM,1/15/2024
,"<p style=""font-size:14rem;font-weight:400;"">6</p>",,fwdspan,number,g0WCa8plPwgiifQVww7hWG4zu4k2,html-keyboard-response,50,352131,0.0-7.0-2.3-0.3-1.16-0.16,,,,,,,6384d247abd7c0f44276bfab,1:10:38 PM,1/15/2024
,"<p style=""font-size:14rem;font-weight:400;"">9</p>",,fwdspan,number,g0WCa8plPwgiifQVww7hWG4zu4k2,html-keyboard-response,51,353158,0.0-7.0-2.3-0.3-1.17-0.17,,,,,,,6384d247abd7c0f44276bfab,1:10:38 PM,1/15/2024
,[],,fwdspan,delay,g0WCa8plPwgiifQVww7hWG4zu4k2,html-keyboard-response,52,353735,0.0-7.0-2.3-0.3-2.3,,,,,,,6384d247abd7c0f44276bfab,1:10:38 PM,1/15/2024
3487.7999999821186,"<div class = numbox><p style=""font-size:2.5rem"">What were the numbers <b>in order</b>?<br>(When you are ready to lock in your answer, press <b>ENTER</b>)</p><button id = button_1 class = ""square num-button"" onclick = ""recordClick(this)""><div class = content><div class = numbers>1</div></div></button><button id = button_2 class = ""square num-button"" onclick = ""recordClick(this)""><div class = content><div class = numbers>2</div></div></button><button id = button_3 class = ""square num-button"" onclick = ""recordClick(this)""><div class = content><div class = numbers>3</div></div></button><button id = button_4 class = ""square num-button"" onclick = ""recordClick(this)""><div class = content><div class = numbers>4</div></div></button><button id = button_5 class = ""square num-button"" onclick = ""recordClick(this)""><div class = content><div class = numbers>5</div></div></button><button id = button_6 class = ""square num-button"" onclick = ""recordClick(this)""><div class = content><div class = numbers>6</div></div></button><button id = button_7 class = ""square num-button"" onclick = ""recordClick(this)""><div class = content><div class = numbers>7</div></div></button><button id = button_8 class = ""square num-button"" onclick = ""recordClick(this)""><div class = content><div class = numbers>8</div></div></button><button id = button_9 class = ""square num-button"" onclick = ""recordClick(this)""><div class = content><div class = numbers>9</div></div></button><button class = clear_button id = ""ClearButton"" onclick = ""clearResponse()"">Clear</button><p><u><b>Current Answer:</b></u></p><div id=echoed_txt style=""font-size: 6rem; color:blue;""><b></b></div></div><br><br><br><br><br><br><br>",enter,fwdspan,response,g0WCa8plPwgiifQVww7hWG4zu4k2,html-keyboard-response,53,357224,0.0-7.0-2.3-0.3-3.3,6.0,"[7,3,8,1,6,9]","[7,3,8,1,6,9]",1.0,"[3, 4, 5, 6, 7, 8, 8, 7, 8, 8, 7, 8]",,6384d247abd7c0f44276bfab,1:10:38 PM,1/15/2024
,,,fwdspan,update_span,g0WCa8plPwgiifQVww7hWG4zu4k2,call-function,54,357489,0.0-7.0-2.3-0.3-4.3,,,,,,,6384d247abd7c0f44276bfab,1:10:38 PM,1/15/2024
1154.5999999940395,"<p style=""font-size:3rem"">Trial 5 of 12</p><br><br><br>",0,fwdspan,start_trial,g0WCa8plPwgiifQVww7hWG4zu4k2,html-button-response,55,358645,0.0-7.0-2.4-0.4-0.4,,,,,,,6384d247abd7c0f44276bfab,1:10:38 PM,1/15/2024
,"<p style=""font-size:14rem;font-weight:400;"">1</p>",,fwdspan,number,g0WCa8plPwgiifQVww7hWG4zu4k2,html-keyboard-response,56,359665,0.0-7.0-2.4-0.4-1.18-0.18,,,,,,,6384d247abd7c0f44276bfab,1:10:38 PM,1/15/2024
,"<p style=""font-size:14rem;font-weight:400;"">5</p>",,fwdspan,number,g0WCa8plPwgiifQVww7hWG4zu4k2,html-keyboard-response,57,360691,0.0-7.0-2.4-0.4-1.19-0.19,,,,,,,6384d247abd7c0f44276bfab,1:10:38 PM,1/15/2024
,"<p style=""font-size:14rem;font-weight:400;"">3</p>",,fwdspan,number,g0WCa8plPwgiifQVww7hWG4zu4k2,html-keyboard-response,58,361719,0.0-7.0-2.4-0.4-1.20-0.20,,,,,,,6384d247abd7c0f44276bfab,1:10:38 PM,1/15/2024
,"<p style=""font-size:14rem;font-weight:400;"">6</p>",,fwdspan,number,g0WCa8plPwgiifQVww7hWG4zu4k2,html-keyboard-response,59,362748,0.0-7.0-2.4-0.4-1.21-0.21,,,,,,,6384d247abd7c0f44276bfab,1:10:38 PM,1/15/2024
,"<p style=""font-size:14rem;font-weight:400;"">4</p>",,fwdspan,number,g0WCa8plPwgiifQVww7hWG4zu4k2,html-keyboard-response,60,363776,0.0-7.0-2.4-0.4-1.22-0.22,,,,,,,6384d247abd7c0f44276bfab,1:10:38 PM,1/15/2024
,"<p style=""font-size:14rem;font-weight:400;"">2</p>",,fwdspan,number,g0WCa8plPwgiifQVww7hWG4zu4k2,html-keyboard-response,61,364803,0.0-7.0-2.4-0.4-1.23-0.23,,,,,,,6384d247abd7c0f44276bfab,1:10:38 PM,1/15/2024
,"<p style=""font-size:14rem;font-weight:400;"">9</p>",,fwdspan,number,g0WCa8plPwgiifQVww7hWG4zu4k2,html-keyboard-response,62,365831,0.0-7.0-2.4-0.4-1.24-0.24,,,,,,,6384d247abd7c0f44276bfab,1:10:38 PM,1/15/2024
,[],,fwdspan,delay,g0WCa8plPwgiifQVww7hWG4zu4k2,html-keyboard-response,63,366404,0.0-7.0-2.4-0.4-2.4,,,,,,,6384d247abd7c0f44276bfab,1:10:38 PM,1/15/2024
5025.899999976158,"<div class = numbox><p style=""font-size:2.5rem"">What were the numbers <b>in order</b>?<br>(When you are ready to lock in your answer, press <b>ENTER</b>)</p><button id = button_1 class = ""square num-button"" onclick = ""recordClick(this)""><div class = content><div class = numbers>1</div></div></button><button id = button_2 class = ""square num-button"" onclick = ""recordClick(this)""><div class = content><div class = numbers>2</div></div></button><button id = button_3 class = ""square num-button"" onclick = ""recordClick(this)""><div class = content><div class = numbers>3</div></div></button><button id = button_4 class = ""square num-button"" onclick = ""recordClick(this)""><div class = content><div class = numbers>4</div></div></button><button id = button_5 class = ""square num-button"" onclick = ""recordClick(this)""><div class = content><div class = numbers>5</div></div></button><button id = button_6 class = ""square num-button"" onclick = ""recordClick(this)""><div class = content><div class = numbers>6</div></div></button><button id = button_7 class = ""square num-button"" onclick = ""recordClick(this)""><div class = content><div class = numbers>7</div></div></button><button id = button_8 class = ""square num-button"" onclick = ""recordClick(this)""><div class = content><div class = numbers>8</div></div></button><button id = button_9 class = ""square num-button"" onclick = ""recordClick(this)""><div class = content><div class = numbers>9</div></div></button><button class = clear_button id = ""ClearButton"" onclick = ""clearResponse()"">Clear</button><p><u><b>Current Answer:</b></u></p><div id=echoed_txt style=""font-size: 6rem; color:blue;""><b></b></div></div><br><br><br><br><br><br><br>",enter,fwdspan,response,g0WCa8plPwgiifQVww7hWG4zu4k2,html-keyboard-response,64,371431,0.0-7.0-2.4-0.4-3.4,7.0,"[1,5,3,6,4,2,9]","[1,5,3,6,4,2,9]",1.0,"[3, 4, 5, 6, 7, 8, 8, 7, 8, 8, 7, 8]",,6384d247abd7c0f44276bfab,1:10:38 PM,1/15/2024
,,,fwdspan,update_span,g0WCa8plPwgiifQVww7hWG4zu4k2,call-function,65,371684,0.0-7.0-2.4-0.4-4.4,,,,,,,6384d247abd7c0f44276bfab,1:10:38 PM,1/15/2024
1404.199999988079,"<p style=""font-size:3rem"">Trial 6 of 12</p><br><br><br>",0,fwdspan,start_trial,g0WCa8plPwgiifQVww7hWG4zu4k2,html-button-response,66,373089,0.0-7.0-2.5-0.5-0.5,,,,,,,6384d247abd7c0f44276bfab,1:10:38 PM,1/15/2024
,"<p style=""font-size:14rem;font-weight:400;"">8</p>",,fwdspan,number,g0WCa8plPwgiifQVww7hWG4zu4k2,html-keyboard-response,67,374112,0.0-7.0-2.5-0.5-1.25-0.25,,,,,,,6384d247abd7c0f44276bfab,1:10:38 PM,1/15/2024
,"<p style=""font-size:14rem;font-weight:400;"">6</p>",,fwdspan,number,g0WCa8plPwgiifQVww7hWG4zu4k2,html-keyboard-response,68,375138,0.0-7.0-2.5-0.5-1.26-0.26,,,,,,,6384d247abd7c0f44276bfab,1:10:38 PM,1/15/2024
,"<p style=""font-size:14rem;font-weight:400;"">7</p>",,fwdspan,number,g0WCa8plPwgiifQVww7hWG4zu4k2,html-keyboard-response,69,376165,0.0-7.0-2.5-0.5-1.27-0.27,,,,,,,6384d247abd7c0f44276bfab,1:10:38 PM,1/15/2024
,"<p style=""font-size:14rem;font-weight:400;"">5</p>",,fwdspan,number,g0WCa8plPwgiifQVww7hWG4zu4k2,html-keyboard-response,70,377196,0.0-7.0-2.5-0.5-1.28-0.28,,,,,,,6384d247abd7c0f44276bfab,1:10:38 PM,1/15/2024
,"<p style=""font-size:14rem;font-weight:400;"">9</p>",,fwdspan,number,g0WCa8plPwgiifQVww7hWG4zu4k2,html-keyboard-response,71,378222,0.0-7.0-2.5-0.5-1.29-0.29,,,,,,,6384d247abd7c0f44276bfab,1:10:38 PM,1/15/2024
,"<p style=""font-size:14rem;font-weight:400;"">4</p>",,fwdspan,number,g0WCa8plPwgiifQVww7hWG4zu4k2,html-keyboard-response,72,379238,0.0-7.0-2.5-0.5-1.30-0.30,,,,,,,6384d247abd7c0f44276bfab,1:10:38 PM,1/15/2024
,"<p style=""font-size:14rem;font-weight:400;"">1</p>",,fwdspan,number,g0WCa8plPwgiifQVww7hWG4zu4k2,html-keyboard-response,73,380264,0.0-7.0-2.5-0.5-1.31-0.31,,,,,,,6384d247abd7c0f44276bfab,1:10:38 PM,1/15/2024
,"<p style=""font-size:14rem;font-weight:400;"">2</p>",,fwdspan,number,g0WCa8plPwgiifQVww7hWG4zu4k2,html-keyboard-response,74,381288,0.0-7.0-2.5-0.5-1.32-0.32,,,,,,,6384d247abd7c0f44276bfab,1:10:38 PM,1/15/2024
,[],,fwdspan,delay,g0WCa8plPwgiifQVww7hWG4zu4k2,html-keyboard-response,75,381863,0.0-7.0-2.5-0.5-2.5,,,,,,,6384d247abd7c0f44276bfab,1:10:38 PM,1/15/2024
6343.100000023842,"<div class = numbox><p style=""font-size:2.5rem"">What were the numbers <b>in order</b>?<br>(When you are ready to lock in your answer, press <b>ENTER</b>)</p><button id = button_1 class = ""square num-button"" onclick = ""recordClick(this)""><div class = content><div class = numbers>1</div></div></button><button id = button_2 class = ""square num-button"" onclick = ""recordClick(this)""><div class = content><div class = numbers>2</div></div></button><button id = button_3 class = ""square num-button"" onclick = ""recordClick(this)""><div class = content><div class = numbers>3</div></div></button><button id = button_4 class = ""square num-button"" onclick = ""recordClick(this)""><div class = content><div class = numbers>4</div></div></button><button id = button_5 class = ""square num-button"" onclick = ""recordClick(this)""><div class = content><div class = numbers>5</div></div></button><button id = button_6 class = ""square num-button"" onclick = ""recordClick(this)""><div class = content><div class = numbers>6</div></div></button><button id = button_7 class = ""square num-button"" onclick = ""recordClick(this)""><div class = content><div class = numbers>7</div></div></button><button id = button_8 class = ""square num-button"" onclick = ""recordClick(this)""><div class = content><div class = numbers>8</div></div></button><button id = button_9 class = ""square num-button"" onclick = ""recordClick(this)""><div class = content><div class = numbers>9</div></div></button><button class = clear_button id = ""ClearButton"" onclick = ""clearResponse()"">Clear</button><p><u><b>Current Answer:</b></u></p><div id=echoed_txt style=""font-size: 6rem; color:blue;""><b></b></div></div><br><br><br><br><br><br><br>",enter,fwdspan,response,g0WCa8plPwgiifQVww7hWG4zu4k2,html-keyboard-response,76,388207,0.0-7.0-2.5-0.5-3.5,8.0,"[8,6,7,5,4,1,9,2]","[8,6,7,5,9,4,1,2]",0.0,"[3, 4, 5, 6, 7, 8, 8, 7, 8, 8, 7, 8]",,6384d247abd7c0f44276bfab,1:10:38 PM,1/15/2024
,,,fwdspan,update_span,g0WCa8plPwgiifQVww7hWG4zu4k2,call-function,77,388462,0.0-7.0-2.5-0.5-4.5,,,,,,,6384d247abd7c0f44276bfab,1:10:38 PM,1/15/2024
1076.300000011921,"<p style=""font-size:3rem"">Trial 7 of 12</p><br><br><br>",0,fwdspan,start_trial,g0WCa8plPwgiifQVww7hWG4zu4k2,html-button-response,78,389539,0.0-7.0-2.6-0.6-0.6,,,,,,,6384d247abd7c0f44276bfab,1:10:38 PM,1/15/2024
,"<p style=""font-size:14rem;font-weight:400;"">5</p>",,fwdspan,number,g0WCa8plPwgiifQVww7hWG4zu4k2,html-keyboard-response,79,390564,0.0-7.0-2.6-0.6-1.33-0.33,,,,,,,6384d247abd7c0f44276bfab,1:10:38 PM,1/15/2024
,"<p style=""font-size:14rem;font-weight:400;"">2</p>",,fwdspan,number,g0WCa8plPwgiifQVww7hWG4zu4k2,html-keyboard-response,80,391589,0.0-7.0-2.6-0.6-1.34-0.34,,,,,,,6384d247abd7c0f44276bfab,1:10:38 PM,1/15/2024
,"<p style=""font-size:14rem;font-weight:400;"">8</p>",,fwdspan,number,g0WCa8plPwgiifQVww7hWG4zu4k2,html-keyboard-response,81,392613,0.0-7.0-2.6-0.6-1.35-0.35,,,,,,,6384d247abd7c0f44276bfab,1:10:38 PM,1/15/2024
,"<p style=""font-size:14rem;font-weight:400;"">7</p>",,fwdspan,number,g0WCa8plPwgiifQVww7hWG4zu4k2,html-keyboard-response,82,393639,0.0-7.0-2.6-0.6-1.36-0.36,,,,,,,6384d247abd7c0f44276bfab,1:10:38 PM,1/15/2024
,"<p style=""font-size:14rem;font-weight:400;"">3</p>",,fwdspan,number,g0WCa8plPwgiifQVww7hWG4zu4k2,html-keyboard-response,83,394667,0.0-7.0-2.6-0.6-1.37-0.37,,,,,,,6384d247abd7c0f44276bfab,1:10:38 PM,1/15/2024
,"<p style=""font-size:14rem;font-weight:400;"">9</p>",,fwdspan,number,g0WCa8plPwgiifQVww7hWG4zu4k2,html-keyboard-response,84,395695,0.0-7.0-2.6-0.6-1.38-0.38,,,,,,,6384d247abd7c0f44276bfab,1:10:38 PM,1/15/2024
,"<p style=""font-size:14rem;font-weight:400;"">1</p>",,fwdspan,number,g0WCa8plPwgiifQVww7hWG4zu4k2,html-keyboard-response,85,396721,0.0-7.0-2.6-0.6-1.39-0.39,,,,,,,6384d247abd7c0f44276bfab,1:10:38 PM,1/15/2024
,"<p style=""font-size:14rem;font-weight:400;"">4</p>",,fwdspan,number,g0WCa8plPwgiifQVww7hWG4zu4k2,html-keyboard-response,86,397748,0.0-7.0-2.6-0.6-1.40-0.40,,,,,,,6384d247abd7c0f44276bfab,1:10:38 PM,1/15/2024
,[],,fwdspan,delay,g0WCa8plPwgiifQVww7hWG4zu4k2,html-keyboard-response,87,398324,0.0-7.0-2.6-0.6-2.6,,,,,,,6384d247abd7c0f44276bfab,1:10:38 PM,1/15/2024
6537.399999976158,"<div class = numbox><p style=""font-size:2.5rem"">What were the numbers <b>in order</b>?<br>(When you are ready to lock in your answer, press <b>ENTER</b>)</p><button id = button_1 class = ""square num-button"" onclick = ""recordClick(this)""><div class = content><div class = numbers>1</div></div></button><button id = button_2 class = ""square num-button"" onclick = ""recordClick(this)""><div class = content><div class = numbers>2</div></div></button><button id = button_3 class = ""square num-button"" onclick = ""recordClick(this)""><div class = content><div class = numbers>3</div></div></button><button id = button_4 class = ""square num-button"" onclick = ""recordClick(this)""><div class = content><div class = numbers>4</div></div></button><button id = button_5 class = ""square num-button"" onclick = ""recordClick(this)""><div class = content><div class = numbers>5</div></div></button><button id = button_6 class = ""square num-button"" onclick = ""recordClick(this)""><div class = content><div class = numbers>6</div></div></button><button id = button_7 class = ""square num-button"" onclick = ""recordClick(this)""><div class = content><div class = numbers>7</div></div></button><button id = button_8 class = ""square num-button"" onclick = ""recordClick(this)""><div class = content><div class = numbers>8</div></div></button><button id = button_9 class = ""square num-button"" onclick = ""recordClick(this)""><div class = content><div class = numbers>9</div></div></button><button class = clear_button id = ""ClearButton"" onclick = ""clearResponse()"">Clear</button><p><u><b>Current Answer:</b></u></p><div id=echoed_txt style=""font-size: 6rem; color:blue;""><b></b></div></div><br><br><br><br><br><br><br>",enter,fwdspan,response,g0WCa8plPwgiifQVww7hWG4zu4k2,html-keyboard-response,88,404862,0.0-7.0-2.6-0.6-3.6,8.0,"[5,8,7,2,3,9,1]","[5,2,8,7,3,9,1,4]",0.0,"[3, 4, 5, 6, 7, 8, 8, 7, 8, 8, 7, 8]",,6384d247abd7c0f44276bfab,1:10:38 PM,1/15/2024
,,,fwdspan,update_span,g0WCa8plPwgiifQVww7hWG4zu4k2,call-function,89,405121,0.0-7.0-2.6-0.6-4.6,,,,,,,6384d247abd7c0f44276bfab,1:10:38 PM,1/15/2024
1248.4000000059605,"<p style=""font-size:3rem"">Trial 8 of 12</p><br><br><br>",0,fwdspan,start_trial,g0WCa8plPwgiifQVww7hWG4zu4k2,html-button-response,90,406370,0.0-7.0-2.7-0.7-0.7,,,,,,,6384d247abd7c0f44276bfab,1:10:38 PM,1/15/2024
,"<p style=""font-size:14rem;font-weight:400;"">1</p>",,fwdspan,number,g0WCa8plPwgiifQVww7hWG4zu4k2,html-keyboard-response,91,407375,0.0-7.0-2.7-0.7-1.41-0.41,,,,,,,6384d247abd7c0f44276bfab,1:10:38 PM,1/15/2024
,"<p style=""font-size:14rem;font-weight:400;"">7</p>",,fwdspan,number,g0WCa8plPwgiifQVww7hWG4zu4k2,html-keyboard-response,92,408395,0.0-7.0-2.7-0.7-1.42-0.42,,,,,,,6384d247abd7c0f44276bfab,1:10:38 PM,1/15/2024
,"<p style=""font-size:14rem;font-weight:400;"">3</p>",,fwdspan,number,g0WCa8plPwgiifQVww7hWG4zu4k2,html-keyboard-response,93,409422,0.0-7.0-2.7-0.7-1.43-0.43,,,,,,,6384d247abd7c0f44276bfab,1:10:38 PM,1/15/2024
,"<p style=""font-size:14rem;font-weight:400;"">5</p>",,fwdspan,number,g0WCa8plPwgiifQVww7hWG4zu4k2,html-keyboard-response,94,410438,0.0-7.0-2.7-0.7-1.44-0.44,,,,,,,6384d247abd7c0f44276bfab,1:10:38 PM,1/15/2024
,"<p style=""font-size:14rem;font-weight:400;"">9</p>",,fwdspan,number,g0WCa8plPwgiifQVww7hWG4zu4k2,html-keyboard-response,95,411462,0.0-7.0-2.7-0.7-1.45-0.45,,,,,,,6384d247abd7c0f44276bfab,1:10:38 PM,1/15/2024
,"<p style=""font-size:14rem;font-weight:400;"">2</p>",,fwdspan,number,g0WCa8plPwgiifQVww7hWG4zu4k2,html-keyboard-response,96,412478,0.0-7.0-2.7-0.7-1.46-0.46,,,,,,,6384d247abd7c0f44276bfab,1:10:38 PM,1/15/2024
,"<p style=""font-size:14rem;font-weight:400;"">4</p>",,fwdspan,number,g0WCa8plPwgiifQVww7hWG4zu4k2,html-keyboard-response,97,413492,0.0-7.0-2.7-0.7-1.47-0.47,,,,,,,6384d247abd7c0f44276bfab,1:10:38 PM,1/15/2024
,[],,fwdspan,delay,g0WCa8plPwgiifQVww7hWG4zu4k2,html-keyboard-response,98,414070,0.0-7.0-2.7-0.7-2.7,,,,,,,6384d247abd7c0f44276bfab,1:10:38 PM,1/15/2024
5086.700000017881,"<div class = numbox><p style=""font-size:2.5rem"">What were the numbers <b>in order</b>?<br>(When you are ready to lock in your answer, press <b>ENTER</b>)</p><button id = button_1 class = ""square num-button"" onclick = ""recordClick(this)""><div class = content><div class = numbers>1</div></div></button><button id = button_2 class = ""square num-button"" onclick = ""recordClick(this)""><div class = content><div class = numbers>2</div></div></button><button id = button_3 class = ""square num-button"" onclick = ""recordClick(this)""><div class = content><div class = numbers>3</div></div></button><button id = button_4 class = ""square num-button"" onclick = ""recordClick(this)""><div class = content><div class = numbers>4</div></div></button><button id = button_5 class = ""square num-button"" onclick = ""recordClick(this)""><div class = content><div class = numbers>5</div></div></button><button id = button_6 class = ""square num-button"" onclick = ""recordClick(this)""><div class = content><div class = numbers>6</div></div></button><button id = button_7 class = ""square num-button"" onclick = ""recordClick(this)""><div class = content><div class = numbers>7</div></div></button><button id = button_8 class = ""square num-button"" onclick = ""recordClick(this)""><div class = content><div class = numbers>8</div></div></button><button id = button_9 class = ""square num-button"" onclick = ""recordClick(this)""><div class = content><div class = numbers>9</div></div></button><button class = clear_button id = ""ClearButton"" onclick = ""clearResponse()"">Clear</button><p><u><b>Current Answer:</b></u></p><div id=echoed_txt style=""font-size: 6rem; color:blue;""><b></b></div></div><br><br><br><br><br><br><br>",enter,fwdspan,response,g0WCa8plPwgiifQVww7hWG4zu4k2,html-keyboard-response,99,419159,0.0-7.0-2.7-0.7-3.7,7.0,"[1,7,3,5,9,2,4]","[1,7,3,5,9,2,4]",1.0,"[3, 4, 5, 6, 7, 8, 8, 7, 8, 8, 7, 8]",,6384d247abd7c0f44276bfab,1:10:38 PM,1/15/2024
,,,fwdspan,update_span,g0WCa8plPwgiifQVww7hWG4zu4k2,call-function,100,419423,0.0-7.0-2.7-0.7-4.7,,,,,,,6384d247abd7c0f44276bfab,1:10:38 PM,1/15/2024
1056.8999999761581,"<p style=""font-size:3rem"">Trial 9 of 12</p><br><br><br>",0,fwdspan,start_trial,g0WCa8plPwgiifQVww7hWG4zu4k2,html-button-response,101,420481,0.0-7.0-2.8-0.8-0.8,,,,,,,6384d247abd7c0f44276bfab,1:10:38 PM,1/15/2024
,"<p style=""font-size:14rem;font-weight:400;"">3</p>",,fwdspan,number,g0WCa8plPwgiifQVww7hWG4zu4k2,html-keyboard-response,102,421509,0.0-7.0-2.8-0.8-1.48-0.48,,,,,,,6384d247abd7c0f44276bfab,1:10:38 PM,1/15/2024
,"<p style=""font-size:14rem;font-weight:400;"">7</p>",,fwdspan,number,g0WCa8plPwgiifQVww7hWG4zu4k2,html-keyboard-response,103,422538,0.0-7.0-2.8-0.8-1.49-0.49,,,,,,,6384d247abd7c0f44276bfab,1:10:38 PM,1/15/2024
,"<p style=""font-size:14rem;font-weight:400;"">1</p>",,fwdspan,number,g0WCa8plPwgiifQVww7hWG4zu4k2,html-keyboard-response,104,423563,0.0-7.0-2.8-0.8-1.50-0.50,,,,,,,6384d247abd7c0f44276bfab,1:10:38 PM,1/15/2024
,"<p style=""font-size:14rem;font-weight:400;"">9</p>",,fwdspan,number,g0WCa8plPwgiifQVww7hWG4zu4k2,html-keyboard-response,105,424591,0.0-7.0-2.8-0.8-1.51-0.51,,,,,,,6384d247abd7c0f44276bfab,1:10:38 PM,1/15/2024
,"<p style=""font-size:14rem;font-weight:400;"">6</p>",,fwdspan,number,g0WCa8plPwgiifQVww7hWG4zu4k2,html-keyboard-response,106,425621,0.0-7.0-2.8-0.8-1.52-0.52,,,,,,,6384d247abd7c0f44276bfab,1:10:38 PM,1/15/2024
,"<p style=""font-size:14rem;font-weight:400;"">2</p>",,fwdspan,number,g0WCa8plPwgiifQVww7hWG4zu4k2,html-keyboard-response,107,426647,0.0-7.0-2.8-0.8-1.53-0.53,,,,,,,6384d247abd7c0f44276bfab,1:10:38 PM,1/15/2024
,"<p style=""font-size:14rem;font-weight:400;"">4</p>",,fwdspan,number,g0WCa8plPwgiifQVww7hWG4zu4k2,html-keyboard-response,108,427678,0.0-7.0-2.8-0.8-1.54-0.54,,,,,,,6384d247abd7c0f44276bfab,1:10:38 PM,1/15/2024
,"<p style=""font-size:14rem;font-weight:400;"">5</p>",,fwdspan,number,g0WCa8plPwgiifQVww7hWG4zu4k2,html-keyboard-response,109,428701,0.0-7.0-2.8-0.8-1.55-0.55,,,,,,,6384d247abd7c0f44276bfab,1:10:38 PM,1/15/2024
,[],,fwdspan,delay,g0WCa8plPwgiifQVww7hWG4zu4k2,html-keyboard-response,110,429277,0.0-7.0-2.8-0.8-2.8,,,,,,,6384d247abd7c0f44276bfab,1:10:38 PM,1/15/2024
8144.299999982119,"<div class = numbox><p style=""font-size:2.5rem"">What were the numbers <b>in order</b>?<br>(When you are ready to lock in your answer, press <b>ENTER</b>)</p><button id = button_1 class = ""square num-button"" onclick = ""recordClick(this)""><div class = content><div class = numbers>1</div></div></button><button id = button_2 class = ""square num-button"" onclick = ""recordClick(this)""><div class = content><div class = numbers>2</div></div></button><button id = button_3 class = ""square num-button"" onclick = ""recordClick(this)""><div class = content><div class = numbers>3</div></div></button><button id = button_4 class = ""square num-button"" onclick = ""recordClick(this)""><div class = content><div class = numbers>4</div></div></button><button id = button_5 class = ""square num-button"" onclick = ""recordClick(this)""><div class = content><div class = numbers>5</div></div></button><button id = button_6 class = ""square num-button"" onclick = ""recordClick(this)""><div class = content><div class = numbers>6</div></div></button><button id = button_7 class = ""square num-button"" onclick = ""recordClick(this)""><div class = content><div class = numbers>7</div></div></button><button id = button_8 class = ""square num-button"" onclick = ""recordClick(this)""><div class = content><div class = numbers>8</div></div></button><button id = button_9 class = ""square num-button"" onclick = ""recordClick(this)""><div class = content><div class = numbers>9</div></div></button><button class = clear_button id = ""ClearButton"" onclick = ""clearResponse()"">Clear</button><p><u><b>Current Answer:</b></u></p><div id=echoed_txt style=""font-size: 6rem; color:blue;""><b></b></div></div><br><br><br><br><br><br><br>",enter,fwdspan,response,g0WCa8plPwgiifQVww7hWG4zu4k2,html-keyboard-response,111,437423,0.0-7.0-2.8-0.8-3.8,8.0,"[3,7,1,9,6,1,4,2,5]","[3,7,1,9,6,2,4,5]",0.0,"[3, 4, 5, 6, 7, 8, 8, 7, 8, 8, 7, 8]",,6384d247abd7c0f44276bfab,1:10:38 PM,1/15/2024
,,,fwdspan,update_span,g0WCa8plPwgiifQVww7hWG4zu4k2,call-function,112,437687,0.0-7.0-2.8-0.8-4.8,,,,,,,6384d247abd7c0f44276bfab,1:10:38 PM,1/15/2024
1074.699999988079,"<p style=""font-size:3rem"">Trial 10 of 12</p><br><br><br>",0,fwdspan,start_trial,g0WCa8plPwgiifQVww7hWG4zu4k2,html-button-response,113,438762,0.0-7.0-2.9-0.9-0.9,,,,,,,6384d247abd7c0f44276bfab,1:10:38 PM,1/15/2024
,"<p style=""font-size:14rem;font-weight:400;"">2</p>",,fwdspan,number,g0WCa8plPwgiifQVww7hWG4zu4k2,html-keyboard-response,114,439790,0.0-7.0-2.9-0.9-1.56-0.56,,,,,,,6384d247abd7c0f44276bfab,1:10:38 PM,1/15/2024
,"<p style=""font-size:14rem;font-weight:400;"">8</p>",,fwdspan,number,g0WCa8plPwgiifQVww7hWG4zu4k2,html-keyboard-response,115,440819,0.0-7.0-2.9-0.9-1.57-0.57,,,,,,,6384d247abd7c0f44276bfab,1:10:38 PM,1/15/2024
,"<p style=""font-size:14rem;font-weight:400;"">6</p>",,fwdspan,number,g0WCa8plPwgiifQVww7hWG4zu4k2,html-keyboard-response,116,441831,0.0-7.0-2.9-0.9-1.58-0.58,,,,,,,6384d247abd7c0f44276bfab,1:10:38 PM,1/15/2024
,"<p style=""font-size:14rem;font-weight:400;"">5</p>",,fwdspan,number,g0WCa8plPwgiifQVww7hWG4zu4k2,html-keyboard-response,117,442859,0.0-7.0-2.9-0.9-1.59-0.59,,,,,,,6384d247abd7c0f44276bfab,1:10:38 PM,1/15/2024
,"<p style=""font-size:14rem;font-weight:400;"">1</p>",,fwdspan,number,g0WCa8plPwgiifQVww7hWG4zu4k2,html-keyboard-response,118,443886,0.0-7.0-2.9-0.9-1.60-0.60,,,,,,,6384d247abd7c0f44276bfab,1:10:38 PM,1/15/2024
,"<p style=""font-size:14rem;font-weight:400;"">3</p>",,fwdspan,number,g0WCa8plPwgiifQVww7hWG4zu4k2,html-keyboard-response,119,444910,0.0-7.0-2.9-0.9-1.61-0.61,,,,,,,6384d247abd7c0f44276bfab,1:10:38 PM,1/15/2024
,"<p style=""font-size:14rem;font-weight:400;"">7</p>",,fwdspan,number,g0WCa8plPwgiifQVww7hWG4zu4k2,html-keyboard-response,120,445934,0.0-7.0-2.9-0.9-1.62-0.62,,,,,,,6384d247abd7c0f44276bfab,1:10:38 PM,1/15/2024
,"<p style=""font-size:14rem;font-weight:400;"">4</p>",,fwdspan,number,g0WCa8plPwgiifQVww7hWG4zu4k2,html-keyboard-response,121,446962,0.0-7.0-2.9-0.9-1.63-0.63,,,,,,,6384d247abd7c0f44276bfab,1:10:38 PM,1/15/2024
,[],,fwdspan,delay,g0WCa8plPwgiifQVww7hWG4zu4k2,html-keyboard-response,122,447536,0.0-7.0-2.9-0.9-2.9,,,,,,,6384d247abd7c0f44276bfab,1:10:38 PM,1/15/2024
6445.0999999940395,"<div class = numbox><p style=""font-size:2.5rem"">What were the numbers <b>in order</b>?<br>(When you are ready to lock in your answer, press <b>ENTER</b>)</p><button id = button_1 class = ""square num-button"" onclick = ""recordClick(this)""><div class = content><div class = numbers>1</div></div></button><button id = button_2 class = ""square num-button"" onclick = ""recordClick(this)""><div class = content><div class = numbers>2</div></div></button><button id = button_3 class = ""square num-button"" onclick = ""recordClick(this)""><div class = content><div class = numbers>3</div></div></button><button id = button_4 class = ""square num-button"" onclick = ""recordClick(this)""><div class = content><div class = numbers>4</div></div></button><button id = button_5 class = ""square num-button"" onclick = ""recordClick(this)""><div class = content><div class = numbers>5</div></div></button><button id = button_6 class = ""square num-button"" onclick = ""recordClick(this)""><div class = content><div class = numbers>6</div></div></button><button id = button_7 class = ""square num-button"" onclick = ""recordClick(this)""><div class = content><div class = numbers>7</div></div></button><button id = button_8 class = ""square num-button"" onclick = ""recordClick(this)""><div class = content><div class = numbers>8</div></div></button><button id = button_9 class = ""square num-button"" onclick = ""recordClick(this)""><div class = content><div class = numbers>9</div></div></button><button class = clear_button id = ""ClearButton"" onclick = ""clearResponse()"">Clear</button><p><u><b>Current Answer:</b></u></p><div id=echoed_txt style=""font-size: 6rem; color:blue;""><b></b></div></div><br><br><br><br><br><br><br>",enter,fwdspan,response,g0WCa8plPwgiifQVww7hWG4zu4k2,html-keyboard-response,123,453983,0.0-7.0-2.9-0.9-3.9,8.0,"[2,6,3,8,5,1,2,4]","[2,8,6,5,1,3,7,4]",0.0,"[3, 4, 5, 6, 7, 8, 8, 7, 8, 8, 7, 8]",,6384d247abd7c0f44276bfab,1:10:38 PM,1/15/2024
,,,fwdspan,update_span,g0WCa8plPwgiifQVww7hWG4zu4k2,call-function,124,454235,0.0-7.0-2.9-0.9-4.9,,,,,,,6384d247abd7c0f44276bfab,1:10:38 PM,1/15/2024
932.2999999821186,"<p style=""font-size:3rem"">Trial 11 of 12</p><br><br><br>",0,fwdspan,start_trial,g0WCa8plPwgiifQVww7hWG4zu4k2,html-button-response,125,455169,0.0-7.0-2.10-0.10-0.10,,,,,,,6384d247abd7c0f44276bfab,1:10:38 PM,1/15/2024
,"<p style=""font-size:14rem;font-weight:400;"">1</p>",,fwdspan,number,g0WCa8plPwgiifQVww7hWG4zu4k2,html-keyboard-response,126,456196,0.0-7.0-2.10-0.10-1.64-0.64,,,,,,,6384d247abd7c0f44276bfab,1:10:38 PM,1/15/2024
,"<p style=""font-size:14rem;font-weight:400;"">9</p>",,fwdspan,number,g0WCa8plPwgiifQVww7hWG4zu4k2,html-keyboard-response,127,457224,0.0-7.0-2.10-0.10-1.65-0.65,,,,,,,6384d247abd7c0f44276bfab,1:10:38 PM,1/15/2024
,"<p style=""font-size:14rem;font-weight:400;"">7</p>",,fwdspan,number,g0WCa8plPwgiifQVww7hWG4zu4k2,html-keyboard-response,128,458249,0.0-7.0-2.10-0.10-1.66-0.66,,,,,,,6384d247abd7c0f44276bfab,1:10:38 PM,1/15/2024
,"<p style=""font-size:14rem;font-weight:400;"">6</p>",,fwdspan,number,g0WCa8plPwgiifQVww7hWG4zu4k2,html-keyboard-response,129,459277,0.0-7.0-2.10-0.10-1.67-0.67,,,,,,,6384d247abd7c0f44276bfab,1:10:38 PM,1/15/2024
,"<p style=""font-size:14rem;font-weight:400;"">3</p>",,fwdspan,number,g0WCa8plPwgiifQVww7hWG4zu4k2,html-keyboard-response,130,460288,0.0-7.0-2.10-0.10-1.68-0.68,,,,,,,6384d247abd7c0f44276bfab,1:10:38 PM,1/15/2024
,"<p style=""font-size:14rem;font-weight:400;"">8</p>",,fwdspan,number,g0WCa8plPwgiifQVww7hWG4zu4k2,html-keyboard-response,131,461316,0.0-7.0-2.10-0.10-1.69-0.69,,,,,,,6384d247abd7c0f44276bfab,1:10:38 PM,1/15/2024
,"<p style=""font-size:14rem;font-weight:400;"">5</p>",,fwdspan,number,g0WCa8plPwgiifQVww7hWG4zu4k2,html-keyboard-response,132,462340,0.0-7.0-2.10-0.10-1.70-0.70,,,,,,,6384d247abd7c0f44276bfab,1:10:38 PM,1/15/2024
,[],,fwdspan,delay,g0WCa8plPwgiifQVww7hWG4zu4k2,html-keyboard-response,133,462916,0.0-7.0-2.10-0.10-2.10,,,,,,,6384d247abd7c0f44276bfab,1:10:38 PM,1/15/2024
4554.0999999940395,"<div class = numbox><p style=""font-size:2.5rem"">What were the numbers <b>in order</b>?<br>(When you are ready to lock in your answer, press <b>ENTER</b>)</p><button id = button_1 class = ""square num-button"" onclick = ""recordClick(this)""><div class = content><div class = numbers>1</div></div></button><button id = button_2 class = ""square num-button"" onclick = ""recordClick(this)""><div class = content><div class = numbers>2</div></div></button><button id = button_3 class = ""square num-button"" onclick = ""recordClick(this)""><div class = content><div class = numbers>3</div></div></button><button id = button_4 class = ""square num-button"" onclick = ""recordClick(this)""><div class = content><div class = numbers>4</div></div></button><button id = button_5 class = ""square num-button"" onclick = ""recordClick(this)""><div class = content><div class = numbers>5</div></div></button><button id = button_6 class = ""square num-button"" onclick = ""recordClick(this)""><div class = content><div class = numbers>6</div></div></button><button id = button_7 class = ""square num-button"" onclick = ""recordClick(this)""><div class = content><div class = numbers>7</div></div></button><button id = button_8 class = ""square num-button"" onclick = ""recordClick(this)""><div class = content><div class = numbers>8</div></div></button><button id = button_9 class = ""square num-button"" onclick = ""recordClick(this)""><div class = content><div class = numbers>9</div></div></button><button class = clear_button id = ""ClearButton"" onclick = ""clearResponse()"">Clear</button><p><u><b>Current Answer:</b></u></p><div id=echoed_txt style=""font-size: 6rem; color:blue;""><b></b></div></div><br><br><br><br><br><br><br>",enter,fwdspan,response,g0WCa8plPwgiifQVww7hWG4zu4k2,html-keyboard-response,134,467471,0.0-7.0-2.10-0.10-3.10,7.0,"[1,9,7,6,3,8,5]","[1,9,7,6,3,8,5]",1.0,"[3, 4, 5, 6, 7, 8, 8, 7, 8, 8, 7, 8]",,6384d247abd7c0f44276bfab,1:10:38 PM,1/15/2024
,,,fwdspan,update_span,g0WCa8plPwgiifQVww7hWG4zu4k2,call-function,135,467723,0.0-7.0-2.10-0.10-4.10,,,,,,,6384d247abd7c0f44276bfab,1:10:38 PM,1/15/2024
776.9000000059605,"<p style=""font-size:3rem"">Trial 12 of 12</p><br><br><br>",0,fwdspan,start_trial,g0WCa8plPwgiifQVww7hWG4zu4k2,html-button-response,136,468501,0.0-7.0-2.11-0.11-0.11,,,,,,,6384d247abd7c0f44276bfab,1:10:38 PM,1/15/2024
,"<p style=""font-size:14rem;font-weight:400;"">1</p>",,fwdspan,number,g0WCa8plPwgiifQVww7hWG4zu4k2,html-keyboard-response,137,469523,0.0-7.0-2.11-0.11-1.71-0.71,,,,,,,6384d247abd7c0f44276bfab,1:10:38 PM,1/15/2024
,"<p style=""font-size:14rem;font-weight:400;"">5</p>",,fwdspan,number,g0WCa8plPwgiifQVww7hWG4zu4k2,html-keyboard-response,138,470552,0.0-7.0-2.11-0.11-1.72-0.72,,,,,,,6384d247abd7c0f44276bfab,1:10:38 PM,1/15/2024
,"<p style=""font-size:14rem;font-weight:400;"">8</p>",,fwdspan,number,g0WCa8plPwgiifQVww7hWG4zu4k2,html-keyboard-response,139,471578,0.0-7.0-2.11-0.11-1.73-0.73,,,,,,,6384d247abd7c0f44276bfab,1:10:38 PM,1/15/2024
,"<p style=""font-size:14rem;font-weight:400;"">3</p>",,fwdspan,number,g0WCa8plPwgiifQVww7hWG4zu4k2,html-keyboard-response,140,472605,0.0-7.0-2.11-0.11-1.74-0.74,,,,,,,6384d247abd7c0f44276bfab,1:10:38 PM,1/15/2024
,"<p style=""font-size:14rem;font-weight:400;"">7</p>",,fwdspan,number,g0WCa8plPwgiifQVww7hWG4zu4k2,html-keyboard-response,141,473632,0.0-7.0-2.11-0.11-1.75-0.75,,,,,,,6384d247abd7c0f44276bfab,1:10:38 PM,1/15/2024
,"<p style=""font-size:14rem;font-weight:400;"">6</p>",,fwdspan,number,g0WCa8plPwgiifQVww7hWG4zu4k2,html-keyboard-response,142,474658,0.0-7.0-2.11-0.11-1.76-0.76,,,,,,,6384d247abd7c0f44276bfab,1:10:38 PM,1/15/2024
,"<p style=""font-size:14rem;font-weight:400;"">4</p>",,fwdspan,number,g0WCa8plPwgiifQVww7hWG4zu4k2,html-keyboard-response,143,475685,0.0-7.0-2.11-0.11-1.77-0.77,,,,,,,6384d247abd7c0f44276bfab,1:10:38 PM,1/15/2024
,"<p style=""font-size:14rem;font-weight:400;"">9</p>",,fwdspan,number,g0WCa8plPwgiifQVww7hWG4zu4k2,html-keyboard-response,144,476713,0.0-7.0-2.11-0.11-1.78-0.78,,,,,,,6384d247abd7c0f44276bfab,1:10:38 PM,1/15/2024
,[],,fwdspan,delay,g0WCa8plPwgiifQVww7hWG4zu4k2,html-keyboard-response,145,477288,0.0-7.0-2.11-0.11-2.11,,,,,,,6384d247abd7c0f44276bfab,1:10:38 PM,1/15/2024
4093.5,"<div class = numbox><p style=""font-size:2.5rem"">What were the numbers <b>in order</b>?<br>(When you are ready to lock in your answer, press <b>ENTER</b>)</p><button id = button_1 class = ""square num-button"" onclick = ""recordClick(this)""><div class = content><div class = numbers>1</div></div></button><button id = button_2 class = ""square num-button"" onclick = ""recordClick(this)""><div class = content><div class = numbers>2</div></div></button><button id = button_3 class = ""square num-button"" onclick = ""recordClick(this)""><div class = content><div class = numbers>3</div></div></button><button id = button_4 class = ""square num-button"" onclick = ""recordClick(this)""><div class = content><div class = numbers>4</div></div></button><button id = button_5 class = ""square num-button"" onclick = ""recordClick(this)""><div class = content><div class = numbers>5</div></div></button><button id = button_6 class = ""square num-button"" onclick = ""recordClick(this)""><div class = content><div class = numbers>6</div></div></button><button id = button_7 class = ""square num-button"" onclick = ""recordClick(this)""><div class = content><div class = numbers>7</div></div></button><button id = button_8 class = ""square num-button"" onclick = ""recordClick(this)""><div class = content><div class = numbers>8</div></div></button><button id = button_9 class = ""square num-button"" onclick = ""recordClick(this)""><div class = content><div class = numbers>9</div></div></button><button class = clear_button id = ""ClearButton"" onclick = ""clearResponse()"">Clear</button><p><u><b>Current Answer:</b></u></p><div id=echoed_txt style=""font-size: 6rem; color:blue;""><b></b></div></div><br><br><br><br><br><br><br>",enter,fwdspan,response,g0WCa8plPwgiifQVww7hWG4zu4k2,html-keyboard-response,146,481383,0.0-7.0-2.11-0.11-3.11,8.0,"[1,5,8,3,7,6,4,9]","[1,5,8,3,7,6,4,9]",1.0,"[3, 4, 5, 6, 7, 8, 8, 7, 8, 8, 7, 8]",,6384d247abd7c0f44276bfab,1:10:38 PM,1/15/2024
,,,fwdspan,update_span,g0WCa8plPwgiifQVww7hWG4zu4k2,call-function,147,481642,0.0-7.0-2.11-0.11-4.11,,,,,,,6384d247abd7c0f44276bfab,1:10:38 PM,1/15/2024
26563.80000001192,,{'Q0': 'I enjoyed the number memory but found some harder to remember for some reason'},fwdspan,survey,g0WCa8plPwgiifQVww7hWG4zu4k2,lmdlab-survey-text,148,508971,0.0-7.0-3.0,,,,,,g0WCa8plPwgiifQVww7hWG4zu4k2,6384d247abd7c0f44276bfab,1:10:38 PM,1/15/2024
1775.699999988079,<p><p style='font-size: 3rem'>Great work!<br><br>This completes the digit span task.</p><br><br><br>,0,fwdspan,finish,g0WCa8plPwgiifQVww7hWG4zu4k2,html-button-response,149,510749,0.0-7.0-4.0,,,,,,,6384d247abd7c0f44276bfab,1:10:38 PM,1/15/2024
