rt,stimulus,response,exp_name,exp_stage,subjectID,trial_type,trial_index,time_elapsed,internal_node_id,span,answer,correct,correct_full,span_history,databaseID,prolificID,start_time,date
6613.0999999940395,"<p style=""font-size:4rem""><br><br>In the next part today, we have a completely different short task.<br><br><br>This part involves keeping numbers in you mind. Participation takes around 5 minutes.<br><br><br></p>",0,fwdspan,instruct,t9B0mrNCFwTY7aAfM27J7pkFrMj2,html-button-response,19,593973,0.0-7.0-0.0,,,,,,,637fbedd06b96e980ee37a6d,12:26:12 PM,1/15/2024
23010.30000001192,"<p style=""font-size:5rem"">Welcome to the <b>digit span task</b>!<br><br></p><p style=""font-size:3.4rem""><br>On each trial, you will see a sequence of digits, followed by a delay.</p><p style=""font-size:3.4rem""><br>Then you will be asked to type them back in the same order in which they were seen.</p><p style=""font-size:3.4rem""><br><br><br>For example, if you saw the digits <b style=""color:blue;"">1</b>, <b style=""color:blue;"">2</b>, <b style=""color:blue;"">3</b>, you would respond with <b style=""color:blue;"">1</b>, <b style=""color:blue;"">2</b>, <b style=""color:blue;"">3</b></p><p style=""font-size:3.4rem""><br><br><br>To ensure the best measure of true performance for our study,<br><br>it is very important that you do not use any memory aid (e.g., pen and paper).<br><br>Please do the task solely in your head.</p><p style=""font-size:3.4rem""><br><br><br>There will be 12 total trials. Participation takes around 5 minutes.</p><br><br><br>",0,fwdspan,instruct,t9B0mrNCFwTY7aAfM27J7pkFrMj2,html-button-response,20,616991,0.0-7.0-1.0,,,,,,,637fbedd06b96e980ee37a6d,12:26:12 PM,1/15/2024
1465.7000000178814,"<p style=""font-size:3rem"">Trial 1 of 12</p><br><br><br>",0,fwdspan,start_trial,t9B0mrNCFwTY7aAfM27J7pkFrMj2,html-button-response,21,618492,0.0-7.0-2.0-0.0-0.0,,,,,,,637fbedd06b96e980ee37a6d,12:26:12 PM,1/15/2024
,"<p style=""font-size:14rem;font-weight:400;"">2</p>",,fwdspan,number,t9B0mrNCFwTY7aAfM27J7pkFrMj2,html-keyboard-response,22,619511,0.0-7.0-2.0-0.0-1.0-0.0,,,,,,,637fbedd06b96e980ee37a6d,12:26:12 PM,1/15/2024
,"<p style=""font-size:14rem;font-weight:400;"">7</p>",,fwdspan,number,t9B0mrNCFwTY7aAfM27J7pkFrMj2,html-keyboard-response,23,620535,0.0-7.0-2.0-0.0-1.1-0.1,,,,,,,637fbedd06b96e980ee37a6d,12:26:12 PM,1/15/2024
,"<p style=""font-size:14rem;font-weight:400;"">1</p>",,fwdspan,number,t9B0mrNCFwTY7aAfM27J7pkFrMj2,html-keyboard-response,24,621547,0.0-7.0-2.0-0.0-1.2-0.2,,,,,,,637fbedd06b96e980ee37a6d,12:26:12 PM,1/15/2024
,[],,fwdspan,delay,t9B0mrNCFwTY7aAfM27J7pkFrMj2,html-keyboard-response,25,622127,0.0-7.0-2.0-0.0-2.0,,,,,,,637fbedd06b96e980ee37a6d,12:26:12 PM,1/15/2024
4786.200000017881,"<div class = numbox><p style=""font-size:2.5rem"">What were the numbers <b>in order</b>?<br>(When you are ready to lock in your answer, press <b>ENTER</b>)</p><button id = button_1 class = ""square num-button"" onclick = ""recordClick(this)""><div class = content><div class = numbers>1</div></div></button><button id = button_2 class = ""square num-button"" onclick = ""recordClick(this)""><div class = content><div class = numbers>2</div></div></button><button id = button_3 class = ""square num-button"" onclick = ""recordClick(this)""><div class = content><div class = numbers>3</div></div></button><button id = button_4 class = ""square num-button"" onclick = ""recordClick(this)""><div class = content><div class = numbers>4</div></div></button><button id = button_5 class = ""square num-button"" onclick = ""recordClick(this)""><div class = content><div class = numbers>5</div></div></button><button id = button_6 class = ""square num-button"" onclick = ""recordClick(this)""><div class = content><div class = numbers>6</div></div></button><button id = button_7 class = ""square num-button"" onclick = ""recordClick(this)""><div class = content><div class = numbers>7</div></div></button><button id = button_8 class = ""square num-button"" onclick = ""recordClick(this)""><div class = content><div class = numbers>8</div></div></button><button id = button_9 class = ""square num-button"" onclick = ""recordClick(this)""><div class = content><div class = numbers>9</div></div></button><button class = clear_button id = ""ClearButton"" onclick = ""clearResponse()"">Clear</button><p><u><b>Current Answer:</b></u></p><div id=echoed_txt style=""font-size: 6rem; color:blue;""><b></b></div></div><br><br><br><br><br><br><br>",enter,fwdspan,response,t9B0mrNCFwTY7aAfM27J7pkFrMj2,html-keyboard-response,26,626919,0.0-7.0-2.0-0.0-3.0,3.0,"[2,7,1]","[2,7,1]",1.0,"[3, 4, 5, 6, 7, 8, 8, 9, 10, 11, 11, 10]",,637fbedd06b96e980ee37a6d,12:26:12 PM,1/15/2024
,,,fwdspan,update_span,t9B0mrNCFwTY7aAfM27J7pkFrMj2,call-function,27,627181,0.0-7.0-2.0-0.0-4.0,,,,,,,637fbedd06b96e980ee37a6d,12:26:12 PM,1/15/2024
1477.3999999761581,"<p style=""font-size:3rem"">Trial 2 of 12</p><br><br><br>",0,fwdspan,start_trial,t9B0mrNCFwTY7aAfM27J7pkFrMj2,html-button-response,28,628663,0.0-7.0-2.1-0.1-0.1,,,,,,,637fbedd06b96e980ee37a6d,12:26:12 PM,1/15/2024
,"<p style=""font-size:14rem;font-weight:400;"">2</p>",,fwdspan,number,t9B0mrNCFwTY7aAfM27J7pkFrMj2,html-keyboard-response,29,629675,0.0-7.0-2.1-0.1-1.3-0.3,,,,,,,637fbedd06b96e980ee37a6d,12:26:12 PM,1/15/2024
,"<p style=""font-size:14rem;font-weight:400;"">1</p>",,fwdspan,number,t9B0mrNCFwTY7aAfM27J7pkFrMj2,html-keyboard-response,30,630680,0.0-7.0-2.1-0.1-1.4-0.4,,,,,,,637fbedd06b96e980ee37a6d,12:26:12 PM,1/15/2024
,"<p style=""font-size:14rem;font-weight:400;"">6</p>",,fwdspan,number,t9B0mrNCFwTY7aAfM27J7pkFrMj2,html-keyboard-response,31,631698,0.0-7.0-2.1-0.1-1.5-0.5,,,,,,,637fbedd06b96e980ee37a6d,12:26:12 PM,1/15/2024
,"<p style=""font-size:14rem;font-weight:400;"">3</p>",,fwdspan,number,t9B0mrNCFwTY7aAfM27J7pkFrMj2,html-keyboard-response,32,632705,0.0-7.0-2.1-0.1-1.6-0.6,,,,,,,637fbedd06b96e980ee37a6d,12:26:12 PM,1/15/2024
,[],,fwdspan,delay,t9B0mrNCFwTY7aAfM27J7pkFrMj2,html-keyboard-response,33,633261,0.0-7.0-2.1-0.1-2.1,,,,,,,637fbedd06b96e980ee37a6d,12:26:12 PM,1/15/2024
3886.800000011921,"<div class = numbox><p style=""font-size:2.5rem"">What were the numbers <b>in order</b>?<br>(When you are ready to lock in your answer, press <b>ENTER</b>)</p><button id = button_1 class = ""square num-button"" onclick = ""recordClick(this)""><div class = content><div class = numbers>1</div></div></button><button id = button_2 class = ""square num-button"" onclick = ""recordClick(this)""><div class = content><div class = numbers>2</div></div></button><button id = button_3 class = ""square num-button"" onclick = ""recordClick(this)""><div class = content><div class = numbers>3</div></div></button><button id = button_4 class = ""square num-button"" onclick = ""recordClick(this)""><div class = content><div class = numbers>4</div></div></button><button id = button_5 class = ""square num-button"" onclick = ""recordClick(this)""><div class = content><div class = numbers>5</div></div></button><button id = button_6 class = ""square num-button"" onclick = ""recordClick(this)""><div class = content><div class = numbers>6</div></div></button><button id = button_7 class = ""square num-button"" onclick = ""recordClick(this)""><div class = content><div class = numbers>7</div></div></button><button id = button_8 class = ""square num-button"" onclick = ""recordClick(this)""><div class = content><div class = numbers>8</div></div></button><button id = button_9 class = ""square num-button"" onclick = ""recordClick(this)""><div class = content><div class = numbers>9</div></div></button><button class = clear_button id = ""ClearButton"" onclick = ""clearResponse()"">Clear</button><p><u><b>Current Answer:</b></u></p><div id=echoed_txt style=""font-size: 6rem; color:blue;""><b></b></div></div><br><br><br><br><br><br><br>",enter,fwdspan,response,t9B0mrNCFwTY7aAfM27J7pkFrMj2,html-keyboard-response,34,637152,0.0-7.0-2.1-0.1-3.1,4.0,"[2,1,6,3]","[2,1,6,3]",1.0,"[3, 4, 5, 6, 7, 8, 8, 9, 10, 11, 11, 10]",,637fbedd06b96e980ee37a6d,12:26:12 PM,1/15/2024
,,,fwdspan,update_span,t9B0mrNCFwTY7aAfM27J7pkFrMj2,call-function,35,637412,0.0-7.0-2.1-0.1-4.1,,,,,,,637fbedd06b96e980ee37a6d,12:26:12 PM,1/15/2024
1290.699999988079,"<p style=""font-size:3rem"">Trial 3 of 12</p><br><br><br>",0,fwdspan,start_trial,t9B0mrNCFwTY7aAfM27J7pkFrMj2,html-button-response,36,638708,0.0-7.0-2.2-0.2-0.2,,,,,,,637fbedd06b96e980ee37a6d,12:26:12 PM,1/15/2024
,"<p style=""font-size:14rem;font-weight:400;"">1</p>",,fwdspan,number,t9B0mrNCFwTY7aAfM27J7pkFrMj2,html-keyboard-response,37,639727,0.0-7.0-2.2-0.2-1.7-0.7,,,,,,,637fbedd06b96e980ee37a6d,12:26:12 PM,1/15/2024
,"<p style=""font-size:14rem;font-weight:400;"">5</p>",,fwdspan,number,t9B0mrNCFwTY7aAfM27J7pkFrMj2,html-keyboard-response,38,640746,0.0-7.0-2.2-0.2-1.8-0.8,,,,,,,637fbedd06b96e980ee37a6d,12:26:12 PM,1/15/2024
,"<p style=""font-size:14rem;font-weight:400;"">6</p>",,fwdspan,number,t9B0mrNCFwTY7aAfM27J7pkFrMj2,html-keyboard-response,39,641758,0.0-7.0-2.2-0.2-1.9-0.9,,,,,,,637fbedd06b96e980ee37a6d,12:26:12 PM,1/15/2024
,"<p style=""font-size:14rem;font-weight:400;"">3</p>",,fwdspan,number,t9B0mrNCFwTY7aAfM27J7pkFrMj2,html-keyboard-response,40,642760,0.0-7.0-2.2-0.2-1.10-0.10,,,,,,,637fbedd06b96e980ee37a6d,12:26:12 PM,1/15/2024
,"<p style=""font-size:14rem;font-weight:400;"">9</p>",,fwdspan,number,t9B0mrNCFwTY7aAfM27J7pkFrMj2,html-keyboard-response,41,643763,0.0-7.0-2.2-0.2-1.11-0.11,,,,,,,637fbedd06b96e980ee37a6d,12:26:12 PM,1/15/2024
,[],,fwdspan,delay,t9B0mrNCFwTY7aAfM27J7pkFrMj2,html-keyboard-response,42,644316,0.0-7.0-2.2-0.2-2.2,,,,,,,637fbedd06b96e980ee37a6d,12:26:12 PM,1/15/2024
4886.4000000059605,"<div class = numbox><p style=""font-size:2.5rem"">What were the numbers <b>in order</b>?<br>(When you are ready to lock in your answer, press <b>ENTER</b>)</p><button id = button_1 class = ""square num-button"" onclick = ""recordClick(this)""><div class = content><div class = numbers>1</div></div></button><button id = button_2 class = ""square num-button"" onclick = ""recordClick(this)""><div class = content><div class = numbers>2</div></div></button><button id = button_3 class = ""square num-button"" onclick = ""recordClick(this)""><div class = content><div class = numbers>3</div></div></button><button id = button_4 class = ""square num-button"" onclick = ""recordClick(this)""><div class = content><div class = numbers>4</div></div></button><button id = button_5 class = ""square num-button"" onclick = ""recordClick(this)""><div class = content><div class = numbers>5</div></div></button><button id = button_6 class = ""square num-button"" onclick = ""recordClick(this)""><div class = content><div class = numbers>6</div></div></button><button id = button_7 class = ""square num-button"" onclick = ""recordClick(this)""><div class = content><div class = numbers>7</div></div></button><button id = button_8 class = ""square num-button"" onclick = ""recordClick(this)""><div class = content><div class = numbers>8</div></div></button><button id = button_9 class = ""square num-button"" onclick = ""recordClick(this)""><div class = content><div class = numbers>9</div></div></button><button class = clear_button id = ""ClearButton"" onclick = ""clearResponse()"">Clear</button><p><u><b>Current Answer:</b></u></p><div id=echoed_txt style=""font-size: 6rem; color:blue;""><b></b></div></div><br><br><br><br><br><br><br>",enter,fwdspan,response,t9B0mrNCFwTY7aAfM27J7pkFrMj2,html-keyboard-response,43,649207,0.0-7.0-2.2-0.2-3.2,5.0,"[1,5,6,3,9]","[1,5,6,3,9]",1.0,"[3, 4, 5, 6, 7, 8, 8, 9, 10, 11, 11, 10]",,637fbedd06b96e980ee37a6d,12:26:12 PM,1/15/2024
,,,fwdspan,update_span,t9B0mrNCFwTY7aAfM27J7pkFrMj2,call-function,44,649463,0.0-7.0-2.2-0.2-4.2,,,,,,,637fbedd06b96e980ee37a6d,12:26:12 PM,1/15/2024
1203.699999988079,"<p style=""font-size:3rem"">Trial 4 of 12</p><br><br><br>",0,fwdspan,start_trial,t9B0mrNCFwTY7aAfM27J7pkFrMj2,html-button-response,45,650670,0.0-7.0-2.3-0.3-0.3,,,,,,,637fbedd06b96e980ee37a6d,12:26:12 PM,1/15/2024
,"<p style=""font-size:14rem;font-weight:400;"">4</p>",,fwdspan,number,t9B0mrNCFwTY7aAfM27J7pkFrMj2,html-keyboard-response,46,651686,0.0-7.0-2.3-0.3-1.12-0.12,,,,,,,637fbedd06b96e980ee37a6d,12:26:12 PM,1/15/2024
,"<p style=""font-size:14rem;font-weight:400;"">7</p>",,fwdspan,number,t9B0mrNCFwTY7aAfM27J7pkFrMj2,html-keyboard-response,47,652708,0.0-7.0-2.3-0.3-1.13-0.13,,,,,,,637fbedd06b96e980ee37a6d,12:26:12 PM,1/15/2024
,"<p style=""font-size:14rem;font-weight:400;"">5</p>",,fwdspan,number,t9B0mrNCFwTY7aAfM27J7pkFrMj2,html-keyboard-response,48,653721,0.0-7.0-2.3-0.3-1.14-0.14,,,,,,,637fbedd06b96e980ee37a6d,12:26:12 PM,1/15/2024
,"<p style=""font-size:14rem;font-weight:400;"">8</p>",,fwdspan,number,t9B0mrNCFwTY7aAfM27J7pkFrMj2,html-keyboard-response,49,654724,0.0-7.0-2.3-0.3-1.15-0.15,,,,,,,637fbedd06b96e980ee37a6d,12:26:12 PM,1/15/2024
,"<p style=""font-size:14rem;font-weight:400;"">6</p>",,fwdspan,number,t9B0mrNCFwTY7aAfM27J7pkFrMj2,html-keyboard-response,50,655733,0.0-7.0-2.3-0.3-1.16-0.16,,,,,,,637fbedd06b96e980ee37a6d,12:26:12 PM,1/15/2024
,"<p style=""font-size:14rem;font-weight:400;"">2</p>",,fwdspan,number,t9B0mrNCFwTY7aAfM27J7pkFrMj2,html-keyboard-response,51,656747,0.0-7.0-2.3-0.3-1.17-0.17,,,,,,,637fbedd06b96e980ee37a6d,12:26:12 PM,1/15/2024
,[],,fwdspan,delay,t9B0mrNCFwTY7aAfM27J7pkFrMj2,html-keyboard-response,52,657317,0.0-7.0-2.3-0.3-2.3,,,,,,,637fbedd06b96e980ee37a6d,12:26:12 PM,1/15/2024
5100.5999999940395,"<div class = numbox><p style=""font-size:2.5rem"">What were the numbers <b>in order</b>?<br>(When you are ready to lock in your answer, press <b>ENTER</b>)</p><button id = button_1 class = ""square num-button"" onclick = ""recordClick(this)""><div class = content><div class = numbers>1</div></div></button><button id = button_2 class = ""square num-button"" onclick = ""recordClick(this)""><div class = content><div class = numbers>2</div></div></button><button id = button_3 class = ""square num-button"" onclick = ""recordClick(this)""><div class = content><div class = numbers>3</div></div></button><button id = button_4 class = ""square num-button"" onclick = ""recordClick(this)""><div class = content><div class = numbers>4</div></div></button><button id = button_5 class = ""square num-button"" onclick = ""recordClick(this)""><div class = content><div class = numbers>5</div></div></button><button id = button_6 class = ""square num-button"" onclick = ""recordClick(this)""><div class = content><div class = numbers>6</div></div></button><button id = button_7 class = ""square num-button"" onclick = ""recordClick(this)""><div class = content><div class = numbers>7</div></div></button><button id = button_8 class = ""square num-button"" onclick = ""recordClick(this)""><div class = content><div class = numbers>8</div></div></button><button id = button_9 class = ""square num-button"" onclick = ""recordClick(this)""><div class = content><div class = numbers>9</div></div></button><button class = clear_button id = ""ClearButton"" onclick = ""clearResponse()"">Clear</button><p><u><b>Current Answer:</b></u></p><div id=echoed_txt style=""font-size: 6rem; color:blue;""><b></b></div></div><br><br><br><br><br><br><br>",enter,fwdspan,response,t9B0mrNCFwTY7aAfM27J7pkFrMj2,html-keyboard-response,53,662422,0.0-7.0-2.3-0.3-3.3,6.0,"[4,7,5,8,6,2]","[4,7,5,8,6,2]",1.0,"[3, 4, 5, 6, 7, 8, 8, 9, 10, 11, 11, 10]",,637fbedd06b96e980ee37a6d,12:26:12 PM,1/15/2024
,,,fwdspan,update_span,t9B0mrNCFwTY7aAfM27J7pkFrMj2,call-function,54,662683,0.0-7.0-2.3-0.3-4.3,,,,,,,637fbedd06b96e980ee37a6d,12:26:12 PM,1/15/2024
1791.9000000059605,"<p style=""font-size:3rem"">Trial 5 of 12</p><br><br><br>",0,fwdspan,start_trial,t9B0mrNCFwTY7aAfM27J7pkFrMj2,html-button-response,55,664479,0.0-7.0-2.4-0.4-0.4,,,,,,,637fbedd06b96e980ee37a6d,12:26:12 PM,1/15/2024
,"<p style=""font-size:14rem;font-weight:400;"">6</p>",,fwdspan,number,t9B0mrNCFwTY7aAfM27J7pkFrMj2,html-keyboard-response,56,665484,0.0-7.0-2.4-0.4-1.18-0.18,,,,,,,637fbedd06b96e980ee37a6d,12:26:12 PM,1/15/2024
,"<p style=""font-size:14rem;font-weight:400;"">2</p>",,fwdspan,number,t9B0mrNCFwTY7aAfM27J7pkFrMj2,html-keyboard-response,57,666498,0.0-7.0-2.4-0.4-1.19-0.19,,,,,,,637fbedd06b96e980ee37a6d,12:26:12 PM,1/15/2024
,"<p style=""font-size:14rem;font-weight:400;"">3</p>",,fwdspan,number,t9B0mrNCFwTY7aAfM27J7pkFrMj2,html-keyboard-response,58,667517,0.0-7.0-2.4-0.4-1.20-0.20,,,,,,,637fbedd06b96e980ee37a6d,12:26:12 PM,1/15/2024
,"<p style=""font-size:14rem;font-weight:400;"">8</p>",,fwdspan,number,t9B0mrNCFwTY7aAfM27J7pkFrMj2,html-keyboard-response,59,668546,0.0-7.0-2.4-0.4-1.21-0.21,,,,,,,637fbedd06b96e980ee37a6d,12:26:12 PM,1/15/2024
,"<p style=""font-size:14rem;font-weight:400;"">1</p>",,fwdspan,number,t9B0mrNCFwTY7aAfM27J7pkFrMj2,html-keyboard-response,60,669562,0.0-7.0-2.4-0.4-1.22-0.22,,,,,,,637fbedd06b96e980ee37a6d,12:26:12 PM,1/15/2024
,"<p style=""font-size:14rem;font-weight:400;"">7</p>",,fwdspan,number,t9B0mrNCFwTY7aAfM27J7pkFrMj2,html-keyboard-response,61,670569,0.0-7.0-2.4-0.4-1.23-0.23,,,,,,,637fbedd06b96e980ee37a6d,12:26:12 PM,1/15/2024
,"<p style=""font-size:14rem;font-weight:400;"">9</p>",,fwdspan,number,t9B0mrNCFwTY7aAfM27J7pkFrMj2,html-keyboard-response,62,671589,0.0-7.0-2.4-0.4-1.24-0.24,,,,,,,637fbedd06b96e980ee37a6d,12:26:12 PM,1/15/2024
,[],,fwdspan,delay,t9B0mrNCFwTY7aAfM27J7pkFrMj2,html-keyboard-response,63,672148,0.0-7.0-2.4-0.4-2.4,,,,,,,637fbedd06b96e980ee37a6d,12:26:12 PM,1/15/2024
6475.0999999940395,"<div class = numbox><p style=""font-size:2.5rem"">What were the numbers <b>in order</b>?<br>(When you are ready to lock in your answer, press <b>ENTER</b>)</p><button id = button_1 class = ""square num-button"" onclick = ""recordClick(this)""><div class = content><div class = numbers>1</div></div></button><button id = button_2 class = ""square num-button"" onclick = ""recordClick(this)""><div class = content><div class = numbers>2</div></div></button><button id = button_3 class = ""square num-button"" onclick = ""recordClick(this)""><div class = content><div class = numbers>3</div></div></button><button id = button_4 class = ""square num-button"" onclick = ""recordClick(this)""><div class = content><div class = numbers>4</div></div></button><button id = button_5 class = ""square num-button"" onclick = ""recordClick(this)""><div class = content><div class = numbers>5</div></div></button><button id = button_6 class = ""square num-button"" onclick = ""recordClick(this)""><div class = content><div class = numbers>6</div></div></button><button id = button_7 class = ""square num-button"" onclick = ""recordClick(this)""><div class = content><div class = numbers>7</div></div></button><button id = button_8 class = ""square num-button"" onclick = ""recordClick(this)""><div class = content><div class = numbers>8</div></div></button><button id = button_9 class = ""square num-button"" onclick = ""recordClick(this)""><div class = content><div class = numbers>9</div></div></button><button class = clear_button id = ""ClearButton"" onclick = ""clearResponse()"">Clear</button><p><u><b>Current Answer:</b></u></p><div id=echoed_txt style=""font-size: 6rem; color:blue;""><b></b></div></div><br><br><br><br><br><br><br>",enter,fwdspan,response,t9B0mrNCFwTY7aAfM27J7pkFrMj2,html-keyboard-response,64,678627,0.0-7.0-2.4-0.4-3.4,7.0,"[6,2,3,8,1,7,9]","[6,2,3,8,1,7,9]",1.0,"[3, 4, 5, 6, 7, 8, 8, 9, 10, 11, 11, 10]",,637fbedd06b96e980ee37a6d,12:26:12 PM,1/15/2024
,,,fwdspan,update_span,t9B0mrNCFwTY7aAfM27J7pkFrMj2,call-function,65,678887,0.0-7.0-2.4-0.4-4.4,,,,,,,637fbedd06b96e980ee37a6d,12:26:12 PM,1/15/2024
1315.7000000178814,"<p style=""font-size:3rem"">Trial 6 of 12</p><br><br><br>",0,fwdspan,start_trial,t9B0mrNCFwTY7aAfM27J7pkFrMj2,html-button-response,66,680205,0.0-7.0-2.5-0.5-0.5,,,,,,,637fbedd06b96e980ee37a6d,12:26:12 PM,1/15/2024
,"<p style=""font-size:14rem;font-weight:400;"">5</p>",,fwdspan,number,t9B0mrNCFwTY7aAfM27J7pkFrMj2,html-keyboard-response,67,681231,0.0-7.0-2.5-0.5-1.25-0.25,,,,,,,637fbedd06b96e980ee37a6d,12:26:12 PM,1/15/2024
,"<p style=""font-size:14rem;font-weight:400;"">1</p>",,fwdspan,number,t9B0mrNCFwTY7aAfM27J7pkFrMj2,html-keyboard-response,68,682253,0.0-7.0-2.5-0.5-1.26-0.26,,,,,,,637fbedd06b96e980ee37a6d,12:26:12 PM,1/15/2024
,"<p style=""font-size:14rem;font-weight:400;"">2</p>",,fwdspan,number,t9B0mrNCFwTY7aAfM27J7pkFrMj2,html-keyboard-response,69,683267,0.0-7.0-2.5-0.5-1.27-0.27,,,,,,,637fbedd06b96e980ee37a6d,12:26:12 PM,1/15/2024
,"<p style=""font-size:14rem;font-weight:400;"">9</p>",,fwdspan,number,t9B0mrNCFwTY7aAfM27J7pkFrMj2,html-keyboard-response,70,684293,0.0-7.0-2.5-0.5-1.28-0.28,,,,,,,637fbedd06b96e980ee37a6d,12:26:12 PM,1/15/2024
,"<p style=""font-size:14rem;font-weight:400;"">3</p>",,fwdspan,number,t9B0mrNCFwTY7aAfM27J7pkFrMj2,html-keyboard-response,71,685304,0.0-7.0-2.5-0.5-1.29-0.29,,,,,,,637fbedd06b96e980ee37a6d,12:26:12 PM,1/15/2024
,"<p style=""font-size:14rem;font-weight:400;"">6</p>",,fwdspan,number,t9B0mrNCFwTY7aAfM27J7pkFrMj2,html-keyboard-response,72,686321,0.0-7.0-2.5-0.5-1.30-0.30,,,,,,,637fbedd06b96e980ee37a6d,12:26:12 PM,1/15/2024
,"<p style=""font-size:14rem;font-weight:400;"">4</p>",,fwdspan,number,t9B0mrNCFwTY7aAfM27J7pkFrMj2,html-keyboard-response,73,687324,0.0-7.0-2.5-0.5-1.31-0.31,,,,,,,637fbedd06b96e980ee37a6d,12:26:12 PM,1/15/2024
,"<p style=""font-size:14rem;font-weight:400;"">8</p>",,fwdspan,number,t9B0mrNCFwTY7aAfM27J7pkFrMj2,html-keyboard-response,74,688328,0.0-7.0-2.5-0.5-1.32-0.32,,,,,,,637fbedd06b96e980ee37a6d,12:26:12 PM,1/15/2024
,[],,fwdspan,delay,t9B0mrNCFwTY7aAfM27J7pkFrMj2,html-keyboard-response,75,688882,0.0-7.0-2.5-0.5-2.5,,,,,,,637fbedd06b96e980ee37a6d,12:26:12 PM,1/15/2024
7419.799999982119,"<div class = numbox><p style=""font-size:2.5rem"">What were the numbers <b>in order</b>?<br>(When you are ready to lock in your answer, press <b>ENTER</b>)</p><button id = button_1 class = ""square num-button"" onclick = ""recordClick(this)""><div class = content><div class = numbers>1</div></div></button><button id = button_2 class = ""square num-button"" onclick = ""recordClick(this)""><div class = content><div class = numbers>2</div></div></button><button id = button_3 class = ""square num-button"" onclick = ""recordClick(this)""><div class = content><div class = numbers>3</div></div></button><button id = button_4 class = ""square num-button"" onclick = ""recordClick(this)""><div class = content><div class = numbers>4</div></div></button><button id = button_5 class = ""square num-button"" onclick = ""recordClick(this)""><div class = content><div class = numbers>5</div></div></button><button id = button_6 class = ""square num-button"" onclick = ""recordClick(this)""><div class = content><div class = numbers>6</div></div></button><button id = button_7 class = ""square num-button"" onclick = ""recordClick(this)""><div class = content><div class = numbers>7</div></div></button><button id = button_8 class = ""square num-button"" onclick = ""recordClick(this)""><div class = content><div class = numbers>8</div></div></button><button id = button_9 class = ""square num-button"" onclick = ""recordClick(this)""><div class = content><div class = numbers>9</div></div></button><button class = clear_button id = ""ClearButton"" onclick = ""clearResponse()"">Clear</button><p><u><b>Current Answer:</b></u></p><div id=echoed_txt style=""font-size: 6rem; color:blue;""><b></b></div></div><br><br><br><br><br><br><br>",enter,fwdspan,response,t9B0mrNCFwTY7aAfM27J7pkFrMj2,html-keyboard-response,76,696306,0.0-7.0-2.5-0.5-3.5,8.0,"[5,1,2,9,3,6,4]","[5,1,2,9,3,6,4,8]",0.0,"[3, 4, 5, 6, 7, 8, 8, 9, 10, 11, 11, 10]",,637fbedd06b96e980ee37a6d,12:26:12 PM,1/15/2024
,,,fwdspan,update_span,t9B0mrNCFwTY7aAfM27J7pkFrMj2,call-function,77,696573,0.0-7.0-2.5-0.5-4.5,,,,,,,637fbedd06b96e980ee37a6d,12:26:12 PM,1/15/2024
1977.300000011921,"<p style=""font-size:3rem"">Trial 7 of 12</p><br><br><br>",0,fwdspan,start_trial,t9B0mrNCFwTY7aAfM27J7pkFrMj2,html-button-response,78,698556,0.0-7.0-2.6-0.6-0.6,,,,,,,637fbedd06b96e980ee37a6d,12:26:12 PM,1/15/2024
,"<p style=""font-size:14rem;font-weight:400;"">5</p>",,fwdspan,number,t9B0mrNCFwTY7aAfM27J7pkFrMj2,html-keyboard-response,79,699581,0.0-7.0-2.6-0.6-1.33-0.33,,,,,,,637fbedd06b96e980ee37a6d,12:26:12 PM,1/15/2024
,"<p style=""font-size:14rem;font-weight:400;"">3</p>",,fwdspan,number,t9B0mrNCFwTY7aAfM27J7pkFrMj2,html-keyboard-response,80,700599,0.0-7.0-2.6-0.6-1.34-0.34,,,,,,,637fbedd06b96e980ee37a6d,12:26:12 PM,1/15/2024
,"<p style=""font-size:14rem;font-weight:400;"">2</p>",,fwdspan,number,t9B0mrNCFwTY7aAfM27J7pkFrMj2,html-keyboard-response,81,701619,0.0-7.0-2.6-0.6-1.35-0.35,,,,,,,637fbedd06b96e980ee37a6d,12:26:12 PM,1/15/2024
,"<p style=""font-size:14rem;font-weight:400;"">8</p>",,fwdspan,number,t9B0mrNCFwTY7aAfM27J7pkFrMj2,html-keyboard-response,82,702651,0.0-7.0-2.6-0.6-1.36-0.36,,,,,,,637fbedd06b96e980ee37a6d,12:26:12 PM,1/15/2024
,"<p style=""font-size:14rem;font-weight:400;"">4</p>",,fwdspan,number,t9B0mrNCFwTY7aAfM27J7pkFrMj2,html-keyboard-response,83,703669,0.0-7.0-2.6-0.6-1.37-0.37,,,,,,,637fbedd06b96e980ee37a6d,12:26:12 PM,1/15/2024
,"<p style=""font-size:14rem;font-weight:400;"">7</p>",,fwdspan,number,t9B0mrNCFwTY7aAfM27J7pkFrMj2,html-keyboard-response,84,704684,0.0-7.0-2.6-0.6-1.38-0.38,,,,,,,637fbedd06b96e980ee37a6d,12:26:12 PM,1/15/2024
,"<p style=""font-size:14rem;font-weight:400;"">9</p>",,fwdspan,number,t9B0mrNCFwTY7aAfM27J7pkFrMj2,html-keyboard-response,85,705696,0.0-7.0-2.6-0.6-1.39-0.39,,,,,,,637fbedd06b96e980ee37a6d,12:26:12 PM,1/15/2024
,"<p style=""font-size:14rem;font-weight:400;"">1</p>",,fwdspan,number,t9B0mrNCFwTY7aAfM27J7pkFrMj2,html-keyboard-response,86,706711,0.0-7.0-2.6-0.6-1.40-0.40,,,,,,,637fbedd06b96e980ee37a6d,12:26:12 PM,1/15/2024
,[],,fwdspan,delay,t9B0mrNCFwTY7aAfM27J7pkFrMj2,html-keyboard-response,87,707290,0.0-7.0-2.6-0.6-2.6,,,,,,,637fbedd06b96e980ee37a6d,12:26:12 PM,1/15/2024
9679.90000000596,"<div class = numbox><p style=""font-size:2.5rem"">What were the numbers <b>in order</b>?<br>(When you are ready to lock in your answer, press <b>ENTER</b>)</p><button id = button_1 class = ""square num-button"" onclick = ""recordClick(this)""><div class = content><div class = numbers>1</div></div></button><button id = button_2 class = ""square num-button"" onclick = ""recordClick(this)""><div class = content><div class = numbers>2</div></div></button><button id = button_3 class = ""square num-button"" onclick = ""recordClick(this)""><div class = content><div class = numbers>3</div></div></button><button id = button_4 class = ""square num-button"" onclick = ""recordClick(this)""><div class = content><div class = numbers>4</div></div></button><button id = button_5 class = ""square num-button"" onclick = ""recordClick(this)""><div class = content><div class = numbers>5</div></div></button><button id = button_6 class = ""square num-button"" onclick = ""recordClick(this)""><div class = content><div class = numbers>6</div></div></button><button id = button_7 class = ""square num-button"" onclick = ""recordClick(this)""><div class = content><div class = numbers>7</div></div></button><button id = button_8 class = ""square num-button"" onclick = ""recordClick(this)""><div class = content><div class = numbers>8</div></div></button><button id = button_9 class = ""square num-button"" onclick = ""recordClick(this)""><div class = content><div class = numbers>9</div></div></button><button class = clear_button id = ""ClearButton"" onclick = ""clearResponse()"">Clear</button><p><u><b>Current Answer:</b></u></p><div id=echoed_txt style=""font-size: 6rem; color:blue;""><b></b></div></div><br><br><br><br><br><br><br>",enter,fwdspan,response,t9B0mrNCFwTY7aAfM27J7pkFrMj2,html-keyboard-response,88,716974,0.0-7.0-2.6-0.6-3.6,8.0,"[5,3,2,8,4,7,9,1]","[5,3,2,8,4,7,9,1]",1.0,"[3, 4, 5, 6, 7, 8, 8, 9, 10, 11, 11, 10]",,637fbedd06b96e980ee37a6d,12:26:12 PM,1/15/2024
,,,fwdspan,update_span,t9B0mrNCFwTY7aAfM27J7pkFrMj2,call-function,89,717231,0.0-7.0-2.6-0.6-4.6,,,,,,,637fbedd06b96e980ee37a6d,12:26:12 PM,1/15/2024
17081.90000000596,"<p style=""font-size:3rem"">Trial 8 of 12</p><br><br><br>",0,fwdspan,start_trial,t9B0mrNCFwTY7aAfM27J7pkFrMj2,html-button-response,90,734316,0.0-7.0-2.7-0.7-0.7,,,,,,,637fbedd06b96e980ee37a6d,12:26:12 PM,1/15/2024
,"<p style=""font-size:14rem;font-weight:400;"">4</p>",,fwdspan,number,t9B0mrNCFwTY7aAfM27J7pkFrMj2,html-keyboard-response,91,735333,0.0-7.0-2.7-0.7-1.41-0.41,,,,,,,637fbedd06b96e980ee37a6d,12:26:12 PM,1/15/2024
,"<p style=""font-size:14rem;font-weight:400;"">7</p>",,fwdspan,number,t9B0mrNCFwTY7aAfM27J7pkFrMj2,html-keyboard-response,92,736349,0.0-7.0-2.7-0.7-1.42-0.42,,,,,,,637fbedd06b96e980ee37a6d,12:26:12 PM,1/15/2024
,"<p style=""font-size:14rem;font-weight:400;"">9</p>",,fwdspan,number,t9B0mrNCFwTY7aAfM27J7pkFrMj2,html-keyboard-response,93,737371,0.0-7.0-2.7-0.7-1.43-0.43,,,,,,,637fbedd06b96e980ee37a6d,12:26:12 PM,1/15/2024
,"<p style=""font-size:14rem;font-weight:400;"">1</p>",,fwdspan,number,t9B0mrNCFwTY7aAfM27J7pkFrMj2,html-keyboard-response,94,738397,0.0-7.0-2.7-0.7-1.44-0.44,,,,,,,637fbedd06b96e980ee37a6d,12:26:12 PM,1/15/2024
,"<p style=""font-size:14rem;font-weight:400;"">5</p>",,fwdspan,number,t9B0mrNCFwTY7aAfM27J7pkFrMj2,html-keyboard-response,95,739430,0.0-7.0-2.7-0.7-1.45-0.45,,,,,,,637fbedd06b96e980ee37a6d,12:26:12 PM,1/15/2024
,"<p style=""font-size:14rem;font-weight:400;"">3</p>",,fwdspan,number,t9B0mrNCFwTY7aAfM27J7pkFrMj2,html-keyboard-response,96,740449,0.0-7.0-2.7-0.7-1.46-0.46,,,,,,,637fbedd06b96e980ee37a6d,12:26:12 PM,1/15/2024
,"<p style=""font-size:14rem;font-weight:400;"">8</p>",,fwdspan,number,t9B0mrNCFwTY7aAfM27J7pkFrMj2,html-keyboard-response,97,741465,0.0-7.0-2.7-0.7-1.47-0.47,,,,,,,637fbedd06b96e980ee37a6d,12:26:12 PM,1/15/2024
,"<p style=""font-size:14rem;font-weight:400;"">2</p>",,fwdspan,number,t9B0mrNCFwTY7aAfM27J7pkFrMj2,html-keyboard-response,98,742485,0.0-7.0-2.7-0.7-1.48-0.48,,,,,,,637fbedd06b96e980ee37a6d,12:26:12 PM,1/15/2024
,"<p style=""font-size:14rem;font-weight:400;"">6</p>",,fwdspan,number,t9B0mrNCFwTY7aAfM27J7pkFrMj2,html-keyboard-response,99,743519,0.0-7.0-2.7-0.7-1.49-0.49,,,,,,,637fbedd06b96e980ee37a6d,12:26:12 PM,1/15/2024
,[],,fwdspan,delay,t9B0mrNCFwTY7aAfM27J7pkFrMj2,html-keyboard-response,100,744092,0.0-7.0-2.7-0.7-2.7,,,,,,,637fbedd06b96e980ee37a6d,12:26:12 PM,1/15/2024
16532.899999976158,"<div class = numbox><p style=""font-size:2.5rem"">What were the numbers <b>in order</b>?<br>(When you are ready to lock in your answer, press <b>ENTER</b>)</p><button id = button_1 class = ""square num-button"" onclick = ""recordClick(this)""><div class = content><div class = numbers>1</div></div></button><button id = button_2 class = ""square num-button"" onclick = ""recordClick(this)""><div class = content><div class = numbers>2</div></div></button><button id = button_3 class = ""square num-button"" onclick = ""recordClick(this)""><div class = content><div class = numbers>3</div></div></button><button id = button_4 class = ""square num-button"" onclick = ""recordClick(this)""><div class = content><div class = numbers>4</div></div></button><button id = button_5 class = ""square num-button"" onclick = ""recordClick(this)""><div class = content><div class = numbers>5</div></div></button><button id = button_6 class = ""square num-button"" onclick = ""recordClick(this)""><div class = content><div class = numbers>6</div></div></button><button id = button_7 class = ""square num-button"" onclick = ""recordClick(this)""><div class = content><div class = numbers>7</div></div></button><button id = button_8 class = ""square num-button"" onclick = ""recordClick(this)""><div class = content><div class = numbers>8</div></div></button><button id = button_9 class = ""square num-button"" onclick = ""recordClick(this)""><div class = content><div class = numbers>9</div></div></button><button class = clear_button id = ""ClearButton"" onclick = ""clearResponse()"">Clear</button><p><u><b>Current Answer:</b></u></p><div id=echoed_txt style=""font-size: 6rem; color:blue;""><b></b></div></div><br><br><br><br><br><br><br>",enter,fwdspan,response,t9B0mrNCFwTY7aAfM27J7pkFrMj2,html-keyboard-response,101,760629,0.0-7.0-2.7-0.7-3.7,9.0,"[4,7,9,1,5,3,8,2,6]","[4,7,9,1,5,3,8,2,6]",1.0,"[3, 4, 5, 6, 7, 8, 8, 9, 10, 11, 11, 10]",,637fbedd06b96e980ee37a6d,12:26:12 PM,1/15/2024
,,,fwdspan,update_span,t9B0mrNCFwTY7aAfM27J7pkFrMj2,call-function,102,760898,0.0-7.0-2.7-0.7-4.7,,,,,,,637fbedd06b96e980ee37a6d,12:26:12 PM,1/15/2024
7045.4000000059605,"<p style=""font-size:3rem"">Trial 9 of 12</p><br><br><br>",0,fwdspan,start_trial,t9B0mrNCFwTY7aAfM27J7pkFrMj2,html-button-response,103,767948,0.0-7.0-2.8-0.8-0.8,,,,,,,637fbedd06b96e980ee37a6d,12:26:12 PM,1/15/2024
,"<p style=""font-size:14rem;font-weight:400;"">3</p>",,fwdspan,number,t9B0mrNCFwTY7aAfM27J7pkFrMj2,html-keyboard-response,104,768969,0.0-7.0-2.8-0.8-1.50-0.50,,,,,,,637fbedd06b96e980ee37a6d,12:26:12 PM,1/15/2024
,"<p style=""font-size:14rem;font-weight:400;"">9</p>",,fwdspan,number,t9B0mrNCFwTY7aAfM27J7pkFrMj2,html-keyboard-response,105,769986,0.0-7.0-2.8-0.8-1.51-0.51,,,,,,,637fbedd06b96e980ee37a6d,12:26:12 PM,1/15/2024
,"<p style=""font-size:14rem;font-weight:400;"">7</p>",,fwdspan,number,t9B0mrNCFwTY7aAfM27J7pkFrMj2,html-keyboard-response,106,771002,0.0-7.0-2.8-0.8-1.52-0.52,,,,,,,637fbedd06b96e980ee37a6d,12:26:12 PM,1/15/2024
,"<p style=""font-size:14rem;font-weight:400;"">2</p>",,fwdspan,number,t9B0mrNCFwTY7aAfM27J7pkFrMj2,html-keyboard-response,107,772019,0.0-7.0-2.8-0.8-1.53-0.53,,,,,,,637fbedd06b96e980ee37a6d,12:26:12 PM,1/15/2024
,"<p style=""font-size:14rem;font-weight:400;"">4</p>",,fwdspan,number,t9B0mrNCFwTY7aAfM27J7pkFrMj2,html-keyboard-response,108,773034,0.0-7.0-2.8-0.8-1.54-0.54,,,,,,,637fbedd06b96e980ee37a6d,12:26:12 PM,1/15/2024
,"<p style=""font-size:14rem;font-weight:400;"">6</p>",,fwdspan,number,t9B0mrNCFwTY7aAfM27J7pkFrMj2,html-keyboard-response,109,774055,0.0-7.0-2.8-0.8-1.55-0.55,,,,,,,637fbedd06b96e980ee37a6d,12:26:12 PM,1/15/2024
,"<p style=""font-size:14rem;font-weight:400;"">8</p>",,fwdspan,number,t9B0mrNCFwTY7aAfM27J7pkFrMj2,html-keyboard-response,110,775071,0.0-7.0-2.8-0.8-1.56-0.56,,,,,,,637fbedd06b96e980ee37a6d,12:26:12 PM,1/15/2024
,"<p style=""font-size:14rem;font-weight:400;"">1</p>",,fwdspan,number,t9B0mrNCFwTY7aAfM27J7pkFrMj2,html-keyboard-response,111,776099,0.0-7.0-2.8-0.8-1.57-0.57,,,,,,,637fbedd06b96e980ee37a6d,12:26:12 PM,1/15/2024
,"<p style=""font-size:14rem;font-weight:400;"">5</p>",,fwdspan,number,t9B0mrNCFwTY7aAfM27J7pkFrMj2,html-keyboard-response,112,777114,0.0-7.0-2.8-0.8-1.58-0.58,,,,,,,637fbedd06b96e980ee37a6d,12:26:12 PM,1/15/2024
,"<p style=""font-size:14rem;font-weight:400;"">8</p>",,fwdspan,number,t9B0mrNCFwTY7aAfM27J7pkFrMj2,html-keyboard-response,113,778144,0.0-7.0-2.8-0.8-1.59-0.59,,,,,,,637fbedd06b96e980ee37a6d,12:26:12 PM,1/15/2024
,[],,fwdspan,delay,t9B0mrNCFwTY7aAfM27J7pkFrMj2,html-keyboard-response,114,778725,0.0-7.0-2.8-0.8-2.8,,,,,,,637fbedd06b96e980ee37a6d,12:26:12 PM,1/15/2024
20827.69999998808,"<div class = numbox><p style=""font-size:2.5rem"">What were the numbers <b>in order</b>?<br>(When you are ready to lock in your answer, press <b>ENTER</b>)</p><button id = button_1 class = ""square num-button"" onclick = ""recordClick(this)""><div class = content><div class = numbers>1</div></div></button><button id = button_2 class = ""square num-button"" onclick = ""recordClick(this)""><div class = content><div class = numbers>2</div></div></button><button id = button_3 class = ""square num-button"" onclick = ""recordClick(this)""><div class = content><div class = numbers>3</div></div></button><button id = button_4 class = ""square num-button"" onclick = ""recordClick(this)""><div class = content><div class = numbers>4</div></div></button><button id = button_5 class = ""square num-button"" onclick = ""recordClick(this)""><div class = content><div class = numbers>5</div></div></button><button id = button_6 class = ""square num-button"" onclick = ""recordClick(this)""><div class = content><div class = numbers>6</div></div></button><button id = button_7 class = ""square num-button"" onclick = ""recordClick(this)""><div class = content><div class = numbers>7</div></div></button><button id = button_8 class = ""square num-button"" onclick = ""recordClick(this)""><div class = content><div class = numbers>8</div></div></button><button id = button_9 class = ""square num-button"" onclick = ""recordClick(this)""><div class = content><div class = numbers>9</div></div></button><button class = clear_button id = ""ClearButton"" onclick = ""clearResponse()"">Clear</button><p><u><b>Current Answer:</b></u></p><div id=echoed_txt style=""font-size: 6rem; color:blue;""><b></b></div></div><br><br><br><br><br><br><br>",enter,fwdspan,response,t9B0mrNCFwTY7aAfM27J7pkFrMj2,html-keyboard-response,115,799558,0.0-7.0-2.8-0.8-3.8,10.0,"[3,9,7,2,4,6,8,1,5,8]","[3,9,7,2,4,6,8,1,5,8]",1.0,"[3, 4, 5, 6, 7, 8, 8, 9, 10, 11, 11, 10]",,637fbedd06b96e980ee37a6d,12:26:12 PM,1/15/2024
,,,fwdspan,update_span,t9B0mrNCFwTY7aAfM27J7pkFrMj2,call-function,116,799831,0.0-7.0-2.8-0.8-4.8,,,,,,,637fbedd06b96e980ee37a6d,12:26:12 PM,1/15/2024
2839.0,"<p style=""font-size:3rem"">Trial 10 of 12</p><br><br><br>",0,fwdspan,start_trial,t9B0mrNCFwTY7aAfM27J7pkFrMj2,html-button-response,117,802674,0.0-7.0-2.9-0.9-0.9,,,,,,,637fbedd06b96e980ee37a6d,12:26:12 PM,1/15/2024
,"<p style=""font-size:14rem;font-weight:400;"">5</p>",,fwdspan,number,t9B0mrNCFwTY7aAfM27J7pkFrMj2,html-keyboard-response,118,803685,0.0-7.0-2.9-0.9-1.60-0.60,,,,,,,637fbedd06b96e980ee37a6d,12:26:12 PM,1/15/2024
,"<p style=""font-size:14rem;font-weight:400;"">2</p>",,fwdspan,number,t9B0mrNCFwTY7aAfM27J7pkFrMj2,html-keyboard-response,119,804703,0.0-7.0-2.9-0.9-1.61-0.61,,,,,,,637fbedd06b96e980ee37a6d,12:26:12 PM,1/15/2024
,"<p style=""font-size:14rem;font-weight:400;"">7</p>",,fwdspan,number,t9B0mrNCFwTY7aAfM27J7pkFrMj2,html-keyboard-response,120,805735,0.0-7.0-2.9-0.9-1.62-0.62,,,,,,,637fbedd06b96e980ee37a6d,12:26:12 PM,1/15/2024
,"<p style=""font-size:14rem;font-weight:400;"">1</p>",,fwdspan,number,t9B0mrNCFwTY7aAfM27J7pkFrMj2,html-keyboard-response,121,806757,0.0-7.0-2.9-0.9-1.63-0.63,,,,,,,637fbedd06b96e980ee37a6d,12:26:12 PM,1/15/2024
,"<p style=""font-size:14rem;font-weight:400;"">9</p>",,fwdspan,number,t9B0mrNCFwTY7aAfM27J7pkFrMj2,html-keyboard-response,122,807770,0.0-7.0-2.9-0.9-1.64-0.64,,,,,,,637fbedd06b96e980ee37a6d,12:26:12 PM,1/15/2024
,"<p style=""font-size:14rem;font-weight:400;"">6</p>",,fwdspan,number,t9B0mrNCFwTY7aAfM27J7pkFrMj2,html-keyboard-response,123,808790,0.0-7.0-2.9-0.9-1.65-0.65,,,,,,,637fbedd06b96e980ee37a6d,12:26:12 PM,1/15/2024
,"<p style=""font-size:14rem;font-weight:400;"">3</p>",,fwdspan,number,t9B0mrNCFwTY7aAfM27J7pkFrMj2,html-keyboard-response,124,809818,0.0-7.0-2.9-0.9-1.66-0.66,,,,,,,637fbedd06b96e980ee37a6d,12:26:12 PM,1/15/2024
,"<p style=""font-size:14rem;font-weight:400;"">4</p>",,fwdspan,number,t9B0mrNCFwTY7aAfM27J7pkFrMj2,html-keyboard-response,125,810831,0.0-7.0-2.9-0.9-1.67-0.67,,,,,,,637fbedd06b96e980ee37a6d,12:26:12 PM,1/15/2024
,"<p style=""font-size:14rem;font-weight:400;"">8</p>",,fwdspan,number,t9B0mrNCFwTY7aAfM27J7pkFrMj2,html-keyboard-response,126,811852,0.0-7.0-2.9-0.9-1.68-0.68,,,,,,,637fbedd06b96e980ee37a6d,12:26:12 PM,1/15/2024
,"<p style=""font-size:14rem;font-weight:400;"">7</p>",,fwdspan,number,t9B0mrNCFwTY7aAfM27J7pkFrMj2,html-keyboard-response,127,812856,0.0-7.0-2.9-0.9-1.69-0.69,,,,,,,637fbedd06b96e980ee37a6d,12:26:12 PM,1/15/2024
,"<p style=""font-size:14rem;font-weight:400;"">9</p>",,fwdspan,number,t9B0mrNCFwTY7aAfM27J7pkFrMj2,html-keyboard-response,128,813888,0.0-7.0-2.9-0.9-1.70-0.70,,,,,,,637fbedd06b96e980ee37a6d,12:26:12 PM,1/15/2024
,[],,fwdspan,delay,t9B0mrNCFwTY7aAfM27J7pkFrMj2,html-keyboard-response,129,814441,0.0-7.0-2.9-0.9-2.9,,,,,,,637fbedd06b96e980ee37a6d,12:26:12 PM,1/15/2024
8284.399999976158,"<div class = numbox><p style=""font-size:2.5rem"">What were the numbers <b>in order</b>?<br>(When you are ready to lock in your answer, press <b>ENTER</b>)</p><button id = button_1 class = ""square num-button"" onclick = ""recordClick(this)""><div class = content><div class = numbers>1</div></div></button><button id = button_2 class = ""square num-button"" onclick = ""recordClick(this)""><div class = content><div class = numbers>2</div></div></button><button id = button_3 class = ""square num-button"" onclick = ""recordClick(this)""><div class = content><div class = numbers>3</div></div></button><button id = button_4 class = ""square num-button"" onclick = ""recordClick(this)""><div class = content><div class = numbers>4</div></div></button><button id = button_5 class = ""square num-button"" onclick = ""recordClick(this)""><div class = content><div class = numbers>5</div></div></button><button id = button_6 class = ""square num-button"" onclick = ""recordClick(this)""><div class = content><div class = numbers>6</div></div></button><button id = button_7 class = ""square num-button"" onclick = ""recordClick(this)""><div class = content><div class = numbers>7</div></div></button><button id = button_8 class = ""square num-button"" onclick = ""recordClick(this)""><div class = content><div class = numbers>8</div></div></button><button id = button_9 class = ""square num-button"" onclick = ""recordClick(this)""><div class = content><div class = numbers>9</div></div></button><button class = clear_button id = ""ClearButton"" onclick = ""clearResponse()"">Clear</button><p><u><b>Current Answer:</b></u></p><div id=echoed_txt style=""font-size: 6rem; color:blue;""><b></b></div></div><br><br><br><br><br><br><br>",enter,fwdspan,response,t9B0mrNCFwTY7aAfM27J7pkFrMj2,html-keyboard-response,130,822731,0.0-7.0-2.9-0.9-3.9,11.0,"[1,5,7,3,5,6,9,8,7]","[5,2,7,1,9,6,3,4,8,7,9]",0.0,"[3, 4, 5, 6, 7, 8, 8, 9, 10, 11, 11, 10]",,637fbedd06b96e980ee37a6d,12:26:12 PM,1/15/2024
,,,fwdspan,update_span,t9B0mrNCFwTY7aAfM27J7pkFrMj2,call-function,131,822990,0.0-7.0-2.9-0.9-4.9,,,,,,,637fbedd06b96e980ee37a6d,12:26:12 PM,1/15/2024
8469.5,"<p style=""font-size:3rem"">Trial 11 of 12</p><br><br><br>",0,fwdspan,start_trial,t9B0mrNCFwTY7aAfM27J7pkFrMj2,html-button-response,132,831463,0.0-7.0-2.10-0.10-0.10,,,,,,,637fbedd06b96e980ee37a6d,12:26:12 PM,1/15/2024
,"<p style=""font-size:14rem;font-weight:400;"">8</p>",,fwdspan,number,t9B0mrNCFwTY7aAfM27J7pkFrMj2,html-keyboard-response,133,832480,0.0-7.0-2.10-0.10-1.71-0.71,,,,,,,637fbedd06b96e980ee37a6d,12:26:12 PM,1/15/2024
,"<p style=""font-size:14rem;font-weight:400;"">3</p>",,fwdspan,number,t9B0mrNCFwTY7aAfM27J7pkFrMj2,html-keyboard-response,134,833508,0.0-7.0-2.10-0.10-1.72-0.72,,,,,,,637fbedd06b96e980ee37a6d,12:26:12 PM,1/15/2024
,"<p style=""font-size:14rem;font-weight:400;"">5</p>",,fwdspan,number,t9B0mrNCFwTY7aAfM27J7pkFrMj2,html-keyboard-response,135,834513,0.0-7.0-2.10-0.10-1.73-0.73,,,,,,,637fbedd06b96e980ee37a6d,12:26:12 PM,1/15/2024
,"<p style=""font-size:14rem;font-weight:400;"">1</p>",,fwdspan,number,t9B0mrNCFwTY7aAfM27J7pkFrMj2,html-keyboard-response,136,835524,0.0-7.0-2.10-0.10-1.74-0.74,,,,,,,637fbedd06b96e980ee37a6d,12:26:12 PM,1/15/2024
,"<p style=""font-size:14rem;font-weight:400;"">9</p>",,fwdspan,number,t9B0mrNCFwTY7aAfM27J7pkFrMj2,html-keyboard-response,137,836540,0.0-7.0-2.10-0.10-1.75-0.75,,,,,,,637fbedd06b96e980ee37a6d,12:26:12 PM,1/15/2024
,"<p style=""font-size:14rem;font-weight:400;"">6</p>",,fwdspan,number,t9B0mrNCFwTY7aAfM27J7pkFrMj2,html-keyboard-response,138,837560,0.0-7.0-2.10-0.10-1.76-0.76,,,,,,,637fbedd06b96e980ee37a6d,12:26:12 PM,1/15/2024
,"<p style=""font-size:14rem;font-weight:400;"">4</p>",,fwdspan,number,t9B0mrNCFwTY7aAfM27J7pkFrMj2,html-keyboard-response,139,838573,0.0-7.0-2.10-0.10-1.77-0.77,,,,,,,637fbedd06b96e980ee37a6d,12:26:12 PM,1/15/2024
,"<p style=""font-size:14rem;font-weight:400;"">7</p>",,fwdspan,number,t9B0mrNCFwTY7aAfM27J7pkFrMj2,html-keyboard-response,140,839590,0.0-7.0-2.10-0.10-1.78-0.78,,,,,,,637fbedd06b96e980ee37a6d,12:26:12 PM,1/15/2024
,"<p style=""font-size:14rem;font-weight:400;"">2</p>",,fwdspan,number,t9B0mrNCFwTY7aAfM27J7pkFrMj2,html-keyboard-response,141,840610,0.0-7.0-2.10-0.10-1.79-0.79,,,,,,,637fbedd06b96e980ee37a6d,12:26:12 PM,1/15/2024
,"<p style=""font-size:14rem;font-weight:400;"">8</p>",,fwdspan,number,t9B0mrNCFwTY7aAfM27J7pkFrMj2,html-keyboard-response,142,841635,0.0-7.0-2.10-0.10-1.80-0.80,,,,,,,637fbedd06b96e980ee37a6d,12:26:12 PM,1/15/2024
,"<p style=""font-size:14rem;font-weight:400;"">3</p>",,fwdspan,number,t9B0mrNCFwTY7aAfM27J7pkFrMj2,html-keyboard-response,143,842659,0.0-7.0-2.10-0.10-1.81-0.81,,,,,,,637fbedd06b96e980ee37a6d,12:26:12 PM,1/15/2024
,[],,fwdspan,delay,t9B0mrNCFwTY7aAfM27J7pkFrMj2,html-keyboard-response,144,843231,0.0-7.0-2.10-0.10-2.10,,,,,,,637fbedd06b96e980ee37a6d,12:26:12 PM,1/15/2024
23093.30000001192,"<div class = numbox><p style=""font-size:2.5rem"">What were the numbers <b>in order</b>?<br>(When you are ready to lock in your answer, press <b>ENTER</b>)</p><button id = button_1 class = ""square num-button"" onclick = ""recordClick(this)""><div class = content><div class = numbers>1</div></div></button><button id = button_2 class = ""square num-button"" onclick = ""recordClick(this)""><div class = content><div class = numbers>2</div></div></button><button id = button_3 class = ""square num-button"" onclick = ""recordClick(this)""><div class = content><div class = numbers>3</div></div></button><button id = button_4 class = ""square num-button"" onclick = ""recordClick(this)""><div class = content><div class = numbers>4</div></div></button><button id = button_5 class = ""square num-button"" onclick = ""recordClick(this)""><div class = content><div class = numbers>5</div></div></button><button id = button_6 class = ""square num-button"" onclick = ""recordClick(this)""><div class = content><div class = numbers>6</div></div></button><button id = button_7 class = ""square num-button"" onclick = ""recordClick(this)""><div class = content><div class = numbers>7</div></div></button><button id = button_8 class = ""square num-button"" onclick = ""recordClick(this)""><div class = content><div class = numbers>8</div></div></button><button id = button_9 class = ""square num-button"" onclick = ""recordClick(this)""><div class = content><div class = numbers>9</div></div></button><button class = clear_button id = ""ClearButton"" onclick = ""clearResponse()"">Clear</button><p><u><b>Current Answer:</b></u></p><div id=echoed_txt style=""font-size: 6rem; color:blue;""><b></b></div></div><br><br><br><br><br><br><br>",enter,fwdspan,response,t9B0mrNCFwTY7aAfM27J7pkFrMj2,html-keyboard-response,145,866328,0.0-7.0-2.10-0.10-3.10,11.0,"[8,3,5,1,6,4,7,2,8,3]","[8,3,5,1,9,6,4,7,2,8,3]",0.0,"[3, 4, 5, 6, 7, 8, 8, 9, 10, 11, 11, 10]",,637fbedd06b96e980ee37a6d,12:26:12 PM,1/15/2024
,,,fwdspan,update_span,t9B0mrNCFwTY7aAfM27J7pkFrMj2,call-function,146,866600,0.0-7.0-2.10-0.10-4.10,,,,,,,637fbedd06b96e980ee37a6d,12:26:12 PM,1/15/2024
5552.799999982119,"<p style=""font-size:3rem"">Trial 12 of 12</p><br><br><br>",0,fwdspan,start_trial,t9B0mrNCFwTY7aAfM27J7pkFrMj2,html-button-response,147,872157,0.0-7.0-2.11-0.11-0.11,,,,,,,637fbedd06b96e980ee37a6d,12:26:12 PM,1/15/2024
,"<p style=""font-size:14rem;font-weight:400;"">6</p>",,fwdspan,number,t9B0mrNCFwTY7aAfM27J7pkFrMj2,html-keyboard-response,148,873174,0.0-7.0-2.11-0.11-1.82-0.82,,,,,,,637fbedd06b96e980ee37a6d,12:26:12 PM,1/15/2024
,"<p style=""font-size:14rem;font-weight:400;"">9</p>",,fwdspan,number,t9B0mrNCFwTY7aAfM27J7pkFrMj2,html-keyboard-response,149,874193,0.0-7.0-2.11-0.11-1.83-0.83,,,,,,,637fbedd06b96e980ee37a6d,12:26:12 PM,1/15/2024
,"<p style=""font-size:14rem;font-weight:400;"">3</p>",,fwdspan,number,t9B0mrNCFwTY7aAfM27J7pkFrMj2,html-keyboard-response,150,875208,0.0-7.0-2.11-0.11-1.84-0.84,,,,,,,637fbedd06b96e980ee37a6d,12:26:12 PM,1/15/2024
,"<p style=""font-size:14rem;font-weight:400;"">1</p>",,fwdspan,number,t9B0mrNCFwTY7aAfM27J7pkFrMj2,html-keyboard-response,151,876236,0.0-7.0-2.11-0.11-1.85-0.85,,,,,,,637fbedd06b96e980ee37a6d,12:26:12 PM,1/15/2024
,"<p style=""font-size:14rem;font-weight:400;"">5</p>",,fwdspan,number,t9B0mrNCFwTY7aAfM27J7pkFrMj2,html-keyboard-response,152,877245,0.0-7.0-2.11-0.11-1.86-0.86,,,,,,,637fbedd06b96e980ee37a6d,12:26:12 PM,1/15/2024
,"<p style=""font-size:14rem;font-weight:400;"">4</p>",,fwdspan,number,t9B0mrNCFwTY7aAfM27J7pkFrMj2,html-keyboard-response,153,878257,0.0-7.0-2.11-0.11-1.87-0.87,,,,,,,637fbedd06b96e980ee37a6d,12:26:12 PM,1/15/2024
,"<p style=""font-size:14rem;font-weight:400;"">7</p>",,fwdspan,number,t9B0mrNCFwTY7aAfM27J7pkFrMj2,html-keyboard-response,154,879272,0.0-7.0-2.11-0.11-1.88-0.88,,,,,,,637fbedd06b96e980ee37a6d,12:26:12 PM,1/15/2024
,"<p style=""font-size:14rem;font-weight:400;"">2</p>",,fwdspan,number,t9B0mrNCFwTY7aAfM27J7pkFrMj2,html-keyboard-response,155,880276,0.0-7.0-2.11-0.11-1.89-0.89,,,,,,,637fbedd06b96e980ee37a6d,12:26:12 PM,1/15/2024
,"<p style=""font-size:14rem;font-weight:400;"">8</p>",,fwdspan,number,t9B0mrNCFwTY7aAfM27J7pkFrMj2,html-keyboard-response,156,881301,0.0-7.0-2.11-0.11-1.90-0.90,,,,,,,637fbedd06b96e980ee37a6d,12:26:12 PM,1/15/2024
,"<p style=""font-size:14rem;font-weight:400;"">1</p>",,fwdspan,number,t9B0mrNCFwTY7aAfM27J7pkFrMj2,html-keyboard-response,157,882306,0.0-7.0-2.11-0.11-1.91-0.91,,,,,,,637fbedd06b96e980ee37a6d,12:26:12 PM,1/15/2024
,[],,fwdspan,delay,t9B0mrNCFwTY7aAfM27J7pkFrMj2,html-keyboard-response,158,882866,0.0-7.0-2.11-0.11-2.11,,,,,,,637fbedd06b96e980ee37a6d,12:26:12 PM,1/15/2024
13566.700000017881,"<div class = numbox><p style=""font-size:2.5rem"">What were the numbers <b>in order</b>?<br>(When you are ready to lock in your answer, press <b>ENTER</b>)</p><button id = button_1 class = ""square num-button"" onclick = ""recordClick(this)""><div class = content><div class = numbers>1</div></div></button><button id = button_2 class = ""square num-button"" onclick = ""recordClick(this)""><div class = content><div class = numbers>2</div></div></button><button id = button_3 class = ""square num-button"" onclick = ""recordClick(this)""><div class = content><div class = numbers>3</div></div></button><button id = button_4 class = ""square num-button"" onclick = ""recordClick(this)""><div class = content><div class = numbers>4</div></div></button><button id = button_5 class = ""square num-button"" onclick = ""recordClick(this)""><div class = content><div class = numbers>5</div></div></button><button id = button_6 class = ""square num-button"" onclick = ""recordClick(this)""><div class = content><div class = numbers>6</div></div></button><button id = button_7 class = ""square num-button"" onclick = ""recordClick(this)""><div class = content><div class = numbers>7</div></div></button><button id = button_8 class = ""square num-button"" onclick = ""recordClick(this)""><div class = content><div class = numbers>8</div></div></button><button id = button_9 class = ""square num-button"" onclick = ""recordClick(this)""><div class = content><div class = numbers>9</div></div></button><button class = clear_button id = ""ClearButton"" onclick = ""clearResponse()"">Clear</button><p><u><b>Current Answer:</b></u></p><div id=echoed_txt style=""font-size: 6rem; color:blue;""><b></b></div></div><br><br><br><br><br><br><br>",enter,fwdspan,response,t9B0mrNCFwTY7aAfM27J7pkFrMj2,html-keyboard-response,159,896439,0.0-7.0-2.11-0.11-3.11,10.0,"[6,2,3,1,5,6,7,8,4,9,5,2]","[6,9,3,1,5,4,7,2,8,1]",0.0,"[3, 4, 5, 6, 7, 8, 8, 9, 10, 11, 11, 10]",,637fbedd06b96e980ee37a6d,12:26:12 PM,1/15/2024
,,,fwdspan,update_span,t9B0mrNCFwTY7aAfM27J7pkFrMj2,call-function,160,896701,0.0-7.0-2.11-0.11-4.11,,,,,,,637fbedd06b96e980ee37a6d,12:26:12 PM,1/15/2024
31790.69999998808,,{'Q0': 'The experiment was fun. I enjoyed it. Looking forward to participating in part 2'},fwdspan,survey,t9B0mrNCFwTY7aAfM27J7pkFrMj2,lmdlab-survey-text,161,929250,0.0-7.0-3.0,,,,,,t9B0mrNCFwTY7aAfM27J7pkFrMj2,637fbedd06b96e980ee37a6d,12:26:12 PM,1/15/2024
5218.199999988079,<p><p style='font-size: 3rem'>Great work!<br><br>This completes the digit span task.</p><br><br><br>,0,fwdspan,finish,t9B0mrNCFwTY7aAfM27J7pkFrMj2,html-button-response,162,934482,0.0-7.0-4.0,,,,,,,637fbedd06b96e980ee37a6d,12:26:12 PM,1/15/2024
