rt,stimulus,response,exp_name,exp_stage,subjectID,trial_type,trial_index,time_elapsed,internal_node_id,span,answer,correct,correct_full,span_history,databaseID,prolificID,start_time,date
2613.5999999998603,"<p style=""font-size:4rem""><br><br>In the next part today, we have a completely different short task.<br><br><br>This part involves keeping numbers in you mind. Participation takes around 5 minutes.<br><br><br></p>",0,fwdspan,instruct,eLYvwh44jcf1hBi3LxEtwLG7e4s1,html-button-response,19,287376,0.0-7.0-0.0,,,,,,,5e4feb8037713502e9ed364b,11:21:02,15/01/2024
7270.600000000093,"<p style=""font-size:5rem"">Welcome to the <b>digit span task</b>!<br><br></p><p style=""font-size:3.4rem""><br>On each trial, you will see a sequence of digits, followed by a delay.</p><p style=""font-size:3.4rem""><br>Then you will be asked to type them back in the same order in which they were seen.</p><p style=""font-size:3.4rem""><br><br><br>For example, if you saw the digits <b style=""color:blue;"">1</b>, <b style=""color:blue;"">2</b>, <b style=""color:blue;"">3</b>, you would respond with <b style=""color:blue;"">1</b>, <b style=""color:blue;"">2</b>, <b style=""color:blue;"">3</b></p><p style=""font-size:3.4rem""><br><br><br>To ensure the best measure of true performance for our study,<br><br>it is very important that you do not use any memory aid (e.g., pen and paper).<br><br>Please do the task solely in your head.</p><p style=""font-size:3.4rem""><br><br><br>There will be 12 total trials. Participation takes around 5 minutes.</p><br><br><br>",0,fwdspan,instruct,eLYvwh44jcf1hBi3LxEtwLG7e4s1,html-button-response,20,294652,0.0-7.0-1.0,,,,,,,5e4feb8037713502e9ed364b,11:21:02,15/01/2024
1566.1999999999534,"<p style=""font-size:3rem"">Trial 1 of 12</p><br><br><br>",0,fwdspan,start_trial,eLYvwh44jcf1hBi3LxEtwLG7e4s1,html-button-response,21,296226,0.0-7.0-2.0-0.0-0.0,,,,,,,5e4feb8037713502e9ed364b,11:21:02,15/01/2024
,"<p style=""font-size:14rem;font-weight:400;"">7</p>",,fwdspan,number,eLYvwh44jcf1hBi3LxEtwLG7e4s1,html-keyboard-response,22,297231,0.0-7.0-2.0-0.0-1.0-0.0,,,,,,,5e4feb8037713502e9ed364b,11:21:02,15/01/2024
,"<p style=""font-size:14rem;font-weight:400;"">1</p>",,fwdspan,number,eLYvwh44jcf1hBi3LxEtwLG7e4s1,html-keyboard-response,23,298236,0.0-7.0-2.0-0.0-1.1-0.1,,,,,,,5e4feb8037713502e9ed364b,11:21:02,15/01/2024
,"<p style=""font-size:14rem;font-weight:400;"">2</p>",,fwdspan,number,eLYvwh44jcf1hBi3LxEtwLG7e4s1,html-keyboard-response,24,299238,0.0-7.0-2.0-0.0-1.2-0.2,,,,,,,5e4feb8037713502e9ed364b,11:21:02,15/01/2024
,[],,fwdspan,delay,eLYvwh44jcf1hBi3LxEtwLG7e4s1,html-keyboard-response,25,299790,0.0-7.0-2.0-0.0-2.0,,,,,,,5e4feb8037713502e9ed364b,11:21:02,15/01/2024
6406.5,"<div class = numbox><p style=""font-size:2.5rem"">What were the numbers <b>in order</b>?<br>(When you are ready to lock in your answer, press <b>ENTER</b>)</p><button id = button_1 class = ""square num-button"" onclick = ""recordClick(this)""><div class = content><div class = numbers>1</div></div></button><button id = button_2 class = ""square num-button"" onclick = ""recordClick(this)""><div class = content><div class = numbers>2</div></div></button><button id = button_3 class = ""square num-button"" onclick = ""recordClick(this)""><div class = content><div class = numbers>3</div></div></button><button id = button_4 class = ""square num-button"" onclick = ""recordClick(this)""><div class = content><div class = numbers>4</div></div></button><button id = button_5 class = ""square num-button"" onclick = ""recordClick(this)""><div class = content><div class = numbers>5</div></div></button><button id = button_6 class = ""square num-button"" onclick = ""recordClick(this)""><div class = content><div class = numbers>6</div></div></button><button id = button_7 class = ""square num-button"" onclick = ""recordClick(this)""><div class = content><div class = numbers>7</div></div></button><button id = button_8 class = ""square num-button"" onclick = ""recordClick(this)""><div class = content><div class = numbers>8</div></div></button><button id = button_9 class = ""square num-button"" onclick = ""recordClick(this)""><div class = content><div class = numbers>9</div></div></button><button class = clear_button id = ""ClearButton"" onclick = ""clearResponse()"">Clear</button><p><u><b>Current Answer:</b></u></p><div id=echoed_txt style=""font-size: 6rem; color:blue;""><b></b></div></div><br><br><br><br><br><br><br>",enter,fwdspan,response,eLYvwh44jcf1hBi3LxEtwLG7e4s1,html-keyboard-response,26,306201,0.0-7.0-2.0-0.0-3.0,3.0,"[7,1,2]","[7,1,2]",1.0,"[3, 4, 5, 6, 7, 8, 8, 7, 8, 8, 7, 8]",,5e4feb8037713502e9ed364b,11:21:02,15/01/2024
,,,fwdspan,update_span,eLYvwh44jcf1hBi3LxEtwLG7e4s1,call-function,27,306455,0.0-7.0-2.0-0.0-4.0,,,,,,,5e4feb8037713502e9ed364b,11:21:02,15/01/2024
1115.8999999999069,"<p style=""font-size:3rem"">Trial 2 of 12</p><br><br><br>",0,fwdspan,start_trial,eLYvwh44jcf1hBi3LxEtwLG7e4s1,html-button-response,28,307574,0.0-7.0-2.1-0.1-0.1,,,,,,,5e4feb8037713502e9ed364b,11:21:02,15/01/2024
,"<p style=""font-size:14rem;font-weight:400;"">7</p>",,fwdspan,number,eLYvwh44jcf1hBi3LxEtwLG7e4s1,html-keyboard-response,29,308577,0.0-7.0-2.1-0.1-1.3-0.3,,,,,,,5e4feb8037713502e9ed364b,11:21:02,15/01/2024
,"<p style=""font-size:14rem;font-weight:400;"">6</p>",,fwdspan,number,eLYvwh44jcf1hBi3LxEtwLG7e4s1,html-keyboard-response,30,309579,0.0-7.0-2.1-0.1-1.4-0.4,,,,,,,5e4feb8037713502e9ed364b,11:21:02,15/01/2024
,"<p style=""font-size:14rem;font-weight:400;"">3</p>",,fwdspan,number,eLYvwh44jcf1hBi3LxEtwLG7e4s1,html-keyboard-response,31,310581,0.0-7.0-2.1-0.1-1.5-0.5,,,,,,,5e4feb8037713502e9ed364b,11:21:02,15/01/2024
,"<p style=""font-size:14rem;font-weight:400;"">8</p>",,fwdspan,number,eLYvwh44jcf1hBi3LxEtwLG7e4s1,html-keyboard-response,32,311584,0.0-7.0-2.1-0.1-1.6-0.6,,,,,,,5e4feb8037713502e9ed364b,11:21:02,15/01/2024
,[],,fwdspan,delay,eLYvwh44jcf1hBi3LxEtwLG7e4s1,html-keyboard-response,33,312136,0.0-7.0-2.1-0.1-2.1,,,,,,,5e4feb8037713502e9ed364b,11:21:02,15/01/2024
7706.100000000093,"<div class = numbox><p style=""font-size:2.5rem"">What were the numbers <b>in order</b>?<br>(When you are ready to lock in your answer, press <b>ENTER</b>)</p><button id = button_1 class = ""square num-button"" onclick = ""recordClick(this)""><div class = content><div class = numbers>1</div></div></button><button id = button_2 class = ""square num-button"" onclick = ""recordClick(this)""><div class = content><div class = numbers>2</div></div></button><button id = button_3 class = ""square num-button"" onclick = ""recordClick(this)""><div class = content><div class = numbers>3</div></div></button><button id = button_4 class = ""square num-button"" onclick = ""recordClick(this)""><div class = content><div class = numbers>4</div></div></button><button id = button_5 class = ""square num-button"" onclick = ""recordClick(this)""><div class = content><div class = numbers>5</div></div></button><button id = button_6 class = ""square num-button"" onclick = ""recordClick(this)""><div class = content><div class = numbers>6</div></div></button><button id = button_7 class = ""square num-button"" onclick = ""recordClick(this)""><div class = content><div class = numbers>7</div></div></button><button id = button_8 class = ""square num-button"" onclick = ""recordClick(this)""><div class = content><div class = numbers>8</div></div></button><button id = button_9 class = ""square num-button"" onclick = ""recordClick(this)""><div class = content><div class = numbers>9</div></div></button><button class = clear_button id = ""ClearButton"" onclick = ""clearResponse()"">Clear</button><p><u><b>Current Answer:</b></u></p><div id=echoed_txt style=""font-size: 6rem; color:blue;""><b></b></div></div><br><br><br><br><br><br><br>",enter,fwdspan,response,eLYvwh44jcf1hBi3LxEtwLG7e4s1,html-keyboard-response,34,319846,0.0-7.0-2.1-0.1-3.1,4.0,"[7,6,3,8]","[7,6,3,8]",1.0,"[3, 4, 5, 6, 7, 8, 8, 7, 8, 8, 7, 8]",,5e4feb8037713502e9ed364b,11:21:02,15/01/2024
,,,fwdspan,update_span,eLYvwh44jcf1hBi3LxEtwLG7e4s1,call-function,35,320099,0.0-7.0-2.1-0.1-4.1,,,,,,,5e4feb8037713502e9ed364b,11:21:02,15/01/2024
1008.0,"<p style=""font-size:3rem"">Trial 3 of 12</p><br><br><br>",0,fwdspan,start_trial,eLYvwh44jcf1hBi3LxEtwLG7e4s1,html-button-response,36,321109,0.0-7.0-2.2-0.2-0.2,,,,,,,5e4feb8037713502e9ed364b,11:21:02,15/01/2024
,"<p style=""font-size:14rem;font-weight:400;"">3</p>",,fwdspan,number,eLYvwh44jcf1hBi3LxEtwLG7e4s1,html-keyboard-response,37,322113,0.0-7.0-2.2-0.2-1.7-0.7,,,,,,,5e4feb8037713502e9ed364b,11:21:02,15/01/2024
,"<p style=""font-size:14rem;font-weight:400;"">5</p>",,fwdspan,number,eLYvwh44jcf1hBi3LxEtwLG7e4s1,html-keyboard-response,38,323116,0.0-7.0-2.2-0.2-1.8-0.8,,,,,,,5e4feb8037713502e9ed364b,11:21:02,15/01/2024
,"<p style=""font-size:14rem;font-weight:400;"">7</p>",,fwdspan,number,eLYvwh44jcf1hBi3LxEtwLG7e4s1,html-keyboard-response,39,324120,0.0-7.0-2.2-0.2-1.9-0.9,,,,,,,5e4feb8037713502e9ed364b,11:21:02,15/01/2024
,"<p style=""font-size:14rem;font-weight:400;"">8</p>",,fwdspan,number,eLYvwh44jcf1hBi3LxEtwLG7e4s1,html-keyboard-response,40,325122,0.0-7.0-2.2-0.2-1.10-0.10,,,,,,,5e4feb8037713502e9ed364b,11:21:02,15/01/2024
,"<p style=""font-size:14rem;font-weight:400;"">4</p>",,fwdspan,number,eLYvwh44jcf1hBi3LxEtwLG7e4s1,html-keyboard-response,41,326125,0.0-7.0-2.2-0.2-1.11-0.11,,,,,,,5e4feb8037713502e9ed364b,11:21:02,15/01/2024
,[],,fwdspan,delay,eLYvwh44jcf1hBi3LxEtwLG7e4s1,html-keyboard-response,42,326676,0.0-7.0-2.2-0.2-2.2,,,,,,,5e4feb8037713502e9ed364b,11:21:02,15/01/2024
9004.299999999814,"<div class = numbox><p style=""font-size:2.5rem"">What were the numbers <b>in order</b>?<br>(When you are ready to lock in your answer, press <b>ENTER</b>)</p><button id = button_1 class = ""square num-button"" onclick = ""recordClick(this)""><div class = content><div class = numbers>1</div></div></button><button id = button_2 class = ""square num-button"" onclick = ""recordClick(this)""><div class = content><div class = numbers>2</div></div></button><button id = button_3 class = ""square num-button"" onclick = ""recordClick(this)""><div class = content><div class = numbers>3</div></div></button><button id = button_4 class = ""square num-button"" onclick = ""recordClick(this)""><div class = content><div class = numbers>4</div></div></button><button id = button_5 class = ""square num-button"" onclick = ""recordClick(this)""><div class = content><div class = numbers>5</div></div></button><button id = button_6 class = ""square num-button"" onclick = ""recordClick(this)""><div class = content><div class = numbers>6</div></div></button><button id = button_7 class = ""square num-button"" onclick = ""recordClick(this)""><div class = content><div class = numbers>7</div></div></button><button id = button_8 class = ""square num-button"" onclick = ""recordClick(this)""><div class = content><div class = numbers>8</div></div></button><button id = button_9 class = ""square num-button"" onclick = ""recordClick(this)""><div class = content><div class = numbers>9</div></div></button><button class = clear_button id = ""ClearButton"" onclick = ""clearResponse()"">Clear</button><p><u><b>Current Answer:</b></u></p><div id=echoed_txt style=""font-size: 6rem; color:blue;""><b></b></div></div><br><br><br><br><br><br><br>",enter,fwdspan,response,eLYvwh44jcf1hBi3LxEtwLG7e4s1,html-keyboard-response,43,335684,0.0-7.0-2.2-0.2-3.2,5.0,"[3,5,7,8,4]","[3,5,7,8,4]",1.0,"[3, 4, 5, 6, 7, 8, 8, 7, 8, 8, 7, 8]",,5e4feb8037713502e9ed364b,11:21:02,15/01/2024
,,,fwdspan,update_span,eLYvwh44jcf1hBi3LxEtwLG7e4s1,call-function,44,335936,0.0-7.0-2.2-0.2-4.2,,,,,,,5e4feb8037713502e9ed364b,11:21:02,15/01/2024
1814.8000000002794,"<p style=""font-size:3rem"">Trial 4 of 12</p><br><br><br>",0,fwdspan,start_trial,eLYvwh44jcf1hBi3LxEtwLG7e4s1,html-button-response,45,337753,0.0-7.0-2.3-0.3-0.3,,,,,,,5e4feb8037713502e9ed364b,11:21:02,15/01/2024
,"<p style=""font-size:14rem;font-weight:400;"">2</p>",,fwdspan,number,eLYvwh44jcf1hBi3LxEtwLG7e4s1,html-keyboard-response,46,338756,0.0-7.0-2.3-0.3-1.12-0.12,,,,,,,5e4feb8037713502e9ed364b,11:21:02,15/01/2024
,"<p style=""font-size:14rem;font-weight:400;"">4</p>",,fwdspan,number,eLYvwh44jcf1hBi3LxEtwLG7e4s1,html-keyboard-response,47,339758,0.0-7.0-2.3-0.3-1.13-0.13,,,,,,,5e4feb8037713502e9ed364b,11:21:02,15/01/2024
,"<p style=""font-size:14rem;font-weight:400;"">7</p>",,fwdspan,number,eLYvwh44jcf1hBi3LxEtwLG7e4s1,html-keyboard-response,48,340761,0.0-7.0-2.3-0.3-1.14-0.14,,,,,,,5e4feb8037713502e9ed364b,11:21:02,15/01/2024
,"<p style=""font-size:14rem;font-weight:400;"">1</p>",,fwdspan,number,eLYvwh44jcf1hBi3LxEtwLG7e4s1,html-keyboard-response,49,341766,0.0-7.0-2.3-0.3-1.15-0.15,,,,,,,5e4feb8037713502e9ed364b,11:21:02,15/01/2024
,"<p style=""font-size:14rem;font-weight:400;"">3</p>",,fwdspan,number,eLYvwh44jcf1hBi3LxEtwLG7e4s1,html-keyboard-response,50,342768,0.0-7.0-2.3-0.3-1.16-0.16,,,,,,,5e4feb8037713502e9ed364b,11:21:02,15/01/2024
,"<p style=""font-size:14rem;font-weight:400;"">8</p>",,fwdspan,number,eLYvwh44jcf1hBi3LxEtwLG7e4s1,html-keyboard-response,51,343770,0.0-7.0-2.3-0.3-1.17-0.17,,,,,,,5e4feb8037713502e9ed364b,11:21:02,15/01/2024
,[],,fwdspan,delay,eLYvwh44jcf1hBi3LxEtwLG7e4s1,html-keyboard-response,52,344322,0.0-7.0-2.3-0.3-2.3,,,,,,,5e4feb8037713502e9ed364b,11:21:02,15/01/2024
7071.899999999907,"<div class = numbox><p style=""font-size:2.5rem"">What were the numbers <b>in order</b>?<br>(When you are ready to lock in your answer, press <b>ENTER</b>)</p><button id = button_1 class = ""square num-button"" onclick = ""recordClick(this)""><div class = content><div class = numbers>1</div></div></button><button id = button_2 class = ""square num-button"" onclick = ""recordClick(this)""><div class = content><div class = numbers>2</div></div></button><button id = button_3 class = ""square num-button"" onclick = ""recordClick(this)""><div class = content><div class = numbers>3</div></div></button><button id = button_4 class = ""square num-button"" onclick = ""recordClick(this)""><div class = content><div class = numbers>4</div></div></button><button id = button_5 class = ""square num-button"" onclick = ""recordClick(this)""><div class = content><div class = numbers>5</div></div></button><button id = button_6 class = ""square num-button"" onclick = ""recordClick(this)""><div class = content><div class = numbers>6</div></div></button><button id = button_7 class = ""square num-button"" onclick = ""recordClick(this)""><div class = content><div class = numbers>7</div></div></button><button id = button_8 class = ""square num-button"" onclick = ""recordClick(this)""><div class = content><div class = numbers>8</div></div></button><button id = button_9 class = ""square num-button"" onclick = ""recordClick(this)""><div class = content><div class = numbers>9</div></div></button><button class = clear_button id = ""ClearButton"" onclick = ""clearResponse()"">Clear</button><p><u><b>Current Answer:</b></u></p><div id=echoed_txt style=""font-size: 6rem; color:blue;""><b></b></div></div><br><br><br><br><br><br><br>",enter,fwdspan,response,eLYvwh44jcf1hBi3LxEtwLG7e4s1,html-keyboard-response,53,351396,0.0-7.0-2.3-0.3-3.3,6.0,"[2,4,7,1,3,8]","[2,4,7,1,3,8]",1.0,"[3, 4, 5, 6, 7, 8, 8, 7, 8, 8, 7, 8]",,5e4feb8037713502e9ed364b,11:21:02,15/01/2024
,,,fwdspan,update_span,eLYvwh44jcf1hBi3LxEtwLG7e4s1,call-function,54,351649,0.0-7.0-2.3-0.3-4.3,,,,,,,5e4feb8037713502e9ed364b,11:21:02,15/01/2024
1180.3999999999069,"<p style=""font-size:3rem"">Trial 5 of 12</p><br><br><br>",0,fwdspan,start_trial,eLYvwh44jcf1hBi3LxEtwLG7e4s1,html-button-response,55,352832,0.0-7.0-2.4-0.4-0.4,,,,,,,5e4feb8037713502e9ed364b,11:21:02,15/01/2024
,"<p style=""font-size:14rem;font-weight:400;"">8</p>",,fwdspan,number,eLYvwh44jcf1hBi3LxEtwLG7e4s1,html-keyboard-response,56,353834,0.0-7.0-2.4-0.4-1.18-0.18,,,,,,,5e4feb8037713502e9ed364b,11:21:02,15/01/2024
,"<p style=""font-size:14rem;font-weight:400;"">2</p>",,fwdspan,number,eLYvwh44jcf1hBi3LxEtwLG7e4s1,html-keyboard-response,57,354836,0.0-7.0-2.4-0.4-1.19-0.19,,,,,,,5e4feb8037713502e9ed364b,11:21:02,15/01/2024
,"<p style=""font-size:14rem;font-weight:400;"">4</p>",,fwdspan,number,eLYvwh44jcf1hBi3LxEtwLG7e4s1,html-keyboard-response,58,355838,0.0-7.0-2.4-0.4-1.20-0.20,,,,,,,5e4feb8037713502e9ed364b,11:21:02,15/01/2024
,"<p style=""font-size:14rem;font-weight:400;"">7</p>",,fwdspan,number,eLYvwh44jcf1hBi3LxEtwLG7e4s1,html-keyboard-response,59,356840,0.0-7.0-2.4-0.4-1.21-0.21,,,,,,,5e4feb8037713502e9ed364b,11:21:02,15/01/2024
,"<p style=""font-size:14rem;font-weight:400;"">1</p>",,fwdspan,number,eLYvwh44jcf1hBi3LxEtwLG7e4s1,html-keyboard-response,60,357842,0.0-7.0-2.4-0.4-1.22-0.22,,,,,,,5e4feb8037713502e9ed364b,11:21:02,15/01/2024
,"<p style=""font-size:14rem;font-weight:400;"">6</p>",,fwdspan,number,eLYvwh44jcf1hBi3LxEtwLG7e4s1,html-keyboard-response,61,358844,0.0-7.0-2.4-0.4-1.23-0.23,,,,,,,5e4feb8037713502e9ed364b,11:21:02,15/01/2024
,"<p style=""font-size:14rem;font-weight:400;"">5</p>",,fwdspan,number,eLYvwh44jcf1hBi3LxEtwLG7e4s1,html-keyboard-response,62,359846,0.0-7.0-2.4-0.4-1.24-0.24,,,,,,,5e4feb8037713502e9ed364b,11:21:02,15/01/2024
,[],,fwdspan,delay,eLYvwh44jcf1hBi3LxEtwLG7e4s1,html-keyboard-response,63,360398,0.0-7.0-2.4-0.4-2.4,,,,,,,5e4feb8037713502e9ed364b,11:21:02,15/01/2024
8268.600000000093,"<div class = numbox><p style=""font-size:2.5rem"">What were the numbers <b>in order</b>?<br>(When you are ready to lock in your answer, press <b>ENTER</b>)</p><button id = button_1 class = ""square num-button"" onclick = ""recordClick(this)""><div class = content><div class = numbers>1</div></div></button><button id = button_2 class = ""square num-button"" onclick = ""recordClick(this)""><div class = content><div class = numbers>2</div></div></button><button id = button_3 class = ""square num-button"" onclick = ""recordClick(this)""><div class = content><div class = numbers>3</div></div></button><button id = button_4 class = ""square num-button"" onclick = ""recordClick(this)""><div class = content><div class = numbers>4</div></div></button><button id = button_5 class = ""square num-button"" onclick = ""recordClick(this)""><div class = content><div class = numbers>5</div></div></button><button id = button_6 class = ""square num-button"" onclick = ""recordClick(this)""><div class = content><div class = numbers>6</div></div></button><button id = button_7 class = ""square num-button"" onclick = ""recordClick(this)""><div class = content><div class = numbers>7</div></div></button><button id = button_8 class = ""square num-button"" onclick = ""recordClick(this)""><div class = content><div class = numbers>8</div></div></button><button id = button_9 class = ""square num-button"" onclick = ""recordClick(this)""><div class = content><div class = numbers>9</div></div></button><button class = clear_button id = ""ClearButton"" onclick = ""clearResponse()"">Clear</button><p><u><b>Current Answer:</b></u></p><div id=echoed_txt style=""font-size: 6rem; color:blue;""><b></b></div></div><br><br><br><br><br><br><br>",enter,fwdspan,response,eLYvwh44jcf1hBi3LxEtwLG7e4s1,html-keyboard-response,64,368669,0.0-7.0-2.4-0.4-3.4,7.0,"[8,2,4,7,1,6,5]","[8,2,4,7,1,6,5]",1.0,"[3, 4, 5, 6, 7, 8, 8, 7, 8, 8, 7, 8]",,5e4feb8037713502e9ed364b,11:21:02,15/01/2024
,,,fwdspan,update_span,eLYvwh44jcf1hBi3LxEtwLG7e4s1,call-function,65,368924,0.0-7.0-2.4-0.4-4.4,,,,,,,5e4feb8037713502e9ed364b,11:21:02,15/01/2024
1437.5,"<p style=""font-size:3rem"">Trial 6 of 12</p><br><br><br>",0,fwdspan,start_trial,eLYvwh44jcf1hBi3LxEtwLG7e4s1,html-button-response,66,370364,0.0-7.0-2.5-0.5-0.5,,,,,,,5e4feb8037713502e9ed364b,11:21:02,15/01/2024
,"<p style=""font-size:14rem;font-weight:400;"">3</p>",,fwdspan,number,eLYvwh44jcf1hBi3LxEtwLG7e4s1,html-keyboard-response,67,371368,0.0-7.0-2.5-0.5-1.25-0.25,,,,,,,5e4feb8037713502e9ed364b,11:21:02,15/01/2024
,"<p style=""font-size:14rem;font-weight:400;"">7</p>",,fwdspan,number,eLYvwh44jcf1hBi3LxEtwLG7e4s1,html-keyboard-response,68,372370,0.0-7.0-2.5-0.5-1.26-0.26,,,,,,,5e4feb8037713502e9ed364b,11:21:02,15/01/2024
,"<p style=""font-size:14rem;font-weight:400;"">4</p>",,fwdspan,number,eLYvwh44jcf1hBi3LxEtwLG7e4s1,html-keyboard-response,69,373374,0.0-7.0-2.5-0.5-1.27-0.27,,,,,,,5e4feb8037713502e9ed364b,11:21:02,15/01/2024
,"<p style=""font-size:14rem;font-weight:400;"">8</p>",,fwdspan,number,eLYvwh44jcf1hBi3LxEtwLG7e4s1,html-keyboard-response,70,374378,0.0-7.0-2.5-0.5-1.28-0.28,,,,,,,5e4feb8037713502e9ed364b,11:21:02,15/01/2024
,"<p style=""font-size:14rem;font-weight:400;"">5</p>",,fwdspan,number,eLYvwh44jcf1hBi3LxEtwLG7e4s1,html-keyboard-response,71,375380,0.0-7.0-2.5-0.5-1.29-0.29,,,,,,,5e4feb8037713502e9ed364b,11:21:02,15/01/2024
,"<p style=""font-size:14rem;font-weight:400;"">6</p>",,fwdspan,number,eLYvwh44jcf1hBi3LxEtwLG7e4s1,html-keyboard-response,72,376383,0.0-7.0-2.5-0.5-1.30-0.30,,,,,,,5e4feb8037713502e9ed364b,11:21:02,15/01/2024
,"<p style=""font-size:14rem;font-weight:400;"">1</p>",,fwdspan,number,eLYvwh44jcf1hBi3LxEtwLG7e4s1,html-keyboard-response,73,377385,0.0-7.0-2.5-0.5-1.31-0.31,,,,,,,5e4feb8037713502e9ed364b,11:21:02,15/01/2024
,"<p style=""font-size:14rem;font-weight:400;"">9</p>",,fwdspan,number,eLYvwh44jcf1hBi3LxEtwLG7e4s1,html-keyboard-response,74,378387,0.0-7.0-2.5-0.5-1.32-0.32,,,,,,,5e4feb8037713502e9ed364b,11:21:02,15/01/2024
,[],,fwdspan,delay,eLYvwh44jcf1hBi3LxEtwLG7e4s1,html-keyboard-response,75,378939,0.0-7.0-2.5-0.5-2.5,,,,,,,5e4feb8037713502e9ed364b,11:21:02,15/01/2024
7536.600000000093,"<div class = numbox><p style=""font-size:2.5rem"">What were the numbers <b>in order</b>?<br>(When you are ready to lock in your answer, press <b>ENTER</b>)</p><button id = button_1 class = ""square num-button"" onclick = ""recordClick(this)""><div class = content><div class = numbers>1</div></div></button><button id = button_2 class = ""square num-button"" onclick = ""recordClick(this)""><div class = content><div class = numbers>2</div></div></button><button id = button_3 class = ""square num-button"" onclick = ""recordClick(this)""><div class = content><div class = numbers>3</div></div></button><button id = button_4 class = ""square num-button"" onclick = ""recordClick(this)""><div class = content><div class = numbers>4</div></div></button><button id = button_5 class = ""square num-button"" onclick = ""recordClick(this)""><div class = content><div class = numbers>5</div></div></button><button id = button_6 class = ""square num-button"" onclick = ""recordClick(this)""><div class = content><div class = numbers>6</div></div></button><button id = button_7 class = ""square num-button"" onclick = ""recordClick(this)""><div class = content><div class = numbers>7</div></div></button><button id = button_8 class = ""square num-button"" onclick = ""recordClick(this)""><div class = content><div class = numbers>8</div></div></button><button id = button_9 class = ""square num-button"" onclick = ""recordClick(this)""><div class = content><div class = numbers>9</div></div></button><button class = clear_button id = ""ClearButton"" onclick = ""clearResponse()"">Clear</button><p><u><b>Current Answer:</b></u></p><div id=echoed_txt style=""font-size: 6rem; color:blue;""><b></b></div></div><br><br><br><br><br><br><br>",enter,fwdspan,response,eLYvwh44jcf1hBi3LxEtwLG7e4s1,html-keyboard-response,76,386479,0.0-7.0-2.5-0.5-3.5,8.0,"[3,7,4,6,1,8,9]","[3,7,4,8,5,6,1,9]",0.0,"[3, 4, 5, 6, 7, 8, 8, 7, 8, 8, 7, 8]",,5e4feb8037713502e9ed364b,11:21:02,15/01/2024
,,,fwdspan,update_span,eLYvwh44jcf1hBi3LxEtwLG7e4s1,call-function,77,386732,0.0-7.0-2.5-0.5-4.5,,,,,,,5e4feb8037713502e9ed364b,11:21:02,15/01/2024
1123.0999999996275,"<p style=""font-size:3rem"">Trial 7 of 12</p><br><br><br>",0,fwdspan,start_trial,eLYvwh44jcf1hBi3LxEtwLG7e4s1,html-button-response,78,387858,0.0-7.0-2.6-0.6-0.6,,,,,,,5e4feb8037713502e9ed364b,11:21:02,15/01/2024
,"<p style=""font-size:14rem;font-weight:400;"">8</p>",,fwdspan,number,eLYvwh44jcf1hBi3LxEtwLG7e4s1,html-keyboard-response,79,388860,0.0-7.0-2.6-0.6-1.33-0.33,,,,,,,5e4feb8037713502e9ed364b,11:21:02,15/01/2024
,"<p style=""font-size:14rem;font-weight:400;"">1</p>",,fwdspan,number,eLYvwh44jcf1hBi3LxEtwLG7e4s1,html-keyboard-response,80,389862,0.0-7.0-2.6-0.6-1.34-0.34,,,,,,,5e4feb8037713502e9ed364b,11:21:02,15/01/2024
,"<p style=""font-size:14rem;font-weight:400;"">4</p>",,fwdspan,number,eLYvwh44jcf1hBi3LxEtwLG7e4s1,html-keyboard-response,81,390865,0.0-7.0-2.6-0.6-1.35-0.35,,,,,,,5e4feb8037713502e9ed364b,11:21:02,15/01/2024
,"<p style=""font-size:14rem;font-weight:400;"">6</p>",,fwdspan,number,eLYvwh44jcf1hBi3LxEtwLG7e4s1,html-keyboard-response,82,391867,0.0-7.0-2.6-0.6-1.36-0.36,,,,,,,5e4feb8037713502e9ed364b,11:21:02,15/01/2024
,"<p style=""font-size:14rem;font-weight:400;"">9</p>",,fwdspan,number,eLYvwh44jcf1hBi3LxEtwLG7e4s1,html-keyboard-response,83,392869,0.0-7.0-2.6-0.6-1.37-0.37,,,,,,,5e4feb8037713502e9ed364b,11:21:02,15/01/2024
,"<p style=""font-size:14rem;font-weight:400;"">3</p>",,fwdspan,number,eLYvwh44jcf1hBi3LxEtwLG7e4s1,html-keyboard-response,84,393872,0.0-7.0-2.6-0.6-1.38-0.38,,,,,,,5e4feb8037713502e9ed364b,11:21:02,15/01/2024
,"<p style=""font-size:14rem;font-weight:400;"">7</p>",,fwdspan,number,eLYvwh44jcf1hBi3LxEtwLG7e4s1,html-keyboard-response,85,394874,0.0-7.0-2.6-0.6-1.39-0.39,,,,,,,5e4feb8037713502e9ed364b,11:21:02,15/01/2024
,"<p style=""font-size:14rem;font-weight:400;"">2</p>",,fwdspan,number,eLYvwh44jcf1hBi3LxEtwLG7e4s1,html-keyboard-response,86,395876,0.0-7.0-2.6-0.6-1.40-0.40,,,,,,,5e4feb8037713502e9ed364b,11:21:02,15/01/2024
,[],,fwdspan,delay,eLYvwh44jcf1hBi3LxEtwLG7e4s1,html-keyboard-response,87,396429,0.0-7.0-2.6-0.6-2.6,,,,,,,5e4feb8037713502e9ed364b,11:21:02,15/01/2024
8647.0,"<div class = numbox><p style=""font-size:2.5rem"">What were the numbers <b>in order</b>?<br>(When you are ready to lock in your answer, press <b>ENTER</b>)</p><button id = button_1 class = ""square num-button"" onclick = ""recordClick(this)""><div class = content><div class = numbers>1</div></div></button><button id = button_2 class = ""square num-button"" onclick = ""recordClick(this)""><div class = content><div class = numbers>2</div></div></button><button id = button_3 class = ""square num-button"" onclick = ""recordClick(this)""><div class = content><div class = numbers>3</div></div></button><button id = button_4 class = ""square num-button"" onclick = ""recordClick(this)""><div class = content><div class = numbers>4</div></div></button><button id = button_5 class = ""square num-button"" onclick = ""recordClick(this)""><div class = content><div class = numbers>5</div></div></button><button id = button_6 class = ""square num-button"" onclick = ""recordClick(this)""><div class = content><div class = numbers>6</div></div></button><button id = button_7 class = ""square num-button"" onclick = ""recordClick(this)""><div class = content><div class = numbers>7</div></div></button><button id = button_8 class = ""square num-button"" onclick = ""recordClick(this)""><div class = content><div class = numbers>8</div></div></button><button id = button_9 class = ""square num-button"" onclick = ""recordClick(this)""><div class = content><div class = numbers>9</div></div></button><button class = clear_button id = ""ClearButton"" onclick = ""clearResponse()"">Clear</button><p><u><b>Current Answer:</b></u></p><div id=echoed_txt style=""font-size: 6rem; color:blue;""><b></b></div></div><br><br><br><br><br><br><br>",enter,fwdspan,response,eLYvwh44jcf1hBi3LxEtwLG7e4s1,html-keyboard-response,88,405079,0.0-7.0-2.6-0.6-3.6,8.0,"[8,3,1,6,4,7,9,2]","[8,1,4,6,9,3,7,2]",0.0,"[3, 4, 5, 6, 7, 8, 8, 7, 8, 8, 7, 8]",,5e4feb8037713502e9ed364b,11:21:02,15/01/2024
,,,fwdspan,update_span,eLYvwh44jcf1hBi3LxEtwLG7e4s1,call-function,89,405334,0.0-7.0-2.6-0.6-4.6,,,,,,,5e4feb8037713502e9ed364b,11:21:02,15/01/2024
1229.1000000000931,"<p style=""font-size:3rem"">Trial 8 of 12</p><br><br><br>",0,fwdspan,start_trial,eLYvwh44jcf1hBi3LxEtwLG7e4s1,html-button-response,90,406565,0.0-7.0-2.7-0.7-0.7,,,,,,,5e4feb8037713502e9ed364b,11:21:02,15/01/2024
,"<p style=""font-size:14rem;font-weight:400;"">2</p>",,fwdspan,number,eLYvwh44jcf1hBi3LxEtwLG7e4s1,html-keyboard-response,91,407568,0.0-7.0-2.7-0.7-1.41-0.41,,,,,,,5e4feb8037713502e9ed364b,11:21:02,15/01/2024
,"<p style=""font-size:14rem;font-weight:400;"">3</p>",,fwdspan,number,eLYvwh44jcf1hBi3LxEtwLG7e4s1,html-keyboard-response,92,408570,0.0-7.0-2.7-0.7-1.42-0.42,,,,,,,5e4feb8037713502e9ed364b,11:21:02,15/01/2024
,"<p style=""font-size:14rem;font-weight:400;"">9</p>",,fwdspan,number,eLYvwh44jcf1hBi3LxEtwLG7e4s1,html-keyboard-response,93,409572,0.0-7.0-2.7-0.7-1.43-0.43,,,,,,,5e4feb8037713502e9ed364b,11:21:02,15/01/2024
,"<p style=""font-size:14rem;font-weight:400;"">4</p>",,fwdspan,number,eLYvwh44jcf1hBi3LxEtwLG7e4s1,html-keyboard-response,94,410575,0.0-7.0-2.7-0.7-1.44-0.44,,,,,,,5e4feb8037713502e9ed364b,11:21:02,15/01/2024
,"<p style=""font-size:14rem;font-weight:400;"">5</p>",,fwdspan,number,eLYvwh44jcf1hBi3LxEtwLG7e4s1,html-keyboard-response,95,411577,0.0-7.0-2.7-0.7-1.45-0.45,,,,,,,5e4feb8037713502e9ed364b,11:21:02,15/01/2024
,"<p style=""font-size:14rem;font-weight:400;"">7</p>",,fwdspan,number,eLYvwh44jcf1hBi3LxEtwLG7e4s1,html-keyboard-response,96,412579,0.0-7.0-2.7-0.7-1.46-0.46,,,,,,,5e4feb8037713502e9ed364b,11:21:02,15/01/2024
,"<p style=""font-size:14rem;font-weight:400;"">1</p>",,fwdspan,number,eLYvwh44jcf1hBi3LxEtwLG7e4s1,html-keyboard-response,97,413581,0.0-7.0-2.7-0.7-1.47-0.47,,,,,,,5e4feb8037713502e9ed364b,11:21:02,15/01/2024
,[],,fwdspan,delay,eLYvwh44jcf1hBi3LxEtwLG7e4s1,html-keyboard-response,98,414133,0.0-7.0-2.7-0.7-2.7,,,,,,,5e4feb8037713502e9ed364b,11:21:02,15/01/2024
8006.100000000093,"<div class = numbox><p style=""font-size:2.5rem"">What were the numbers <b>in order</b>?<br>(When you are ready to lock in your answer, press <b>ENTER</b>)</p><button id = button_1 class = ""square num-button"" onclick = ""recordClick(this)""><div class = content><div class = numbers>1</div></div></button><button id = button_2 class = ""square num-button"" onclick = ""recordClick(this)""><div class = content><div class = numbers>2</div></div></button><button id = button_3 class = ""square num-button"" onclick = ""recordClick(this)""><div class = content><div class = numbers>3</div></div></button><button id = button_4 class = ""square num-button"" onclick = ""recordClick(this)""><div class = content><div class = numbers>4</div></div></button><button id = button_5 class = ""square num-button"" onclick = ""recordClick(this)""><div class = content><div class = numbers>5</div></div></button><button id = button_6 class = ""square num-button"" onclick = ""recordClick(this)""><div class = content><div class = numbers>6</div></div></button><button id = button_7 class = ""square num-button"" onclick = ""recordClick(this)""><div class = content><div class = numbers>7</div></div></button><button id = button_8 class = ""square num-button"" onclick = ""recordClick(this)""><div class = content><div class = numbers>8</div></div></button><button id = button_9 class = ""square num-button"" onclick = ""recordClick(this)""><div class = content><div class = numbers>9</div></div></button><button class = clear_button id = ""ClearButton"" onclick = ""clearResponse()"">Clear</button><p><u><b>Current Answer:</b></u></p><div id=echoed_txt style=""font-size: 6rem; color:blue;""><b></b></div></div><br><br><br><br><br><br><br>",enter,fwdspan,response,eLYvwh44jcf1hBi3LxEtwLG7e4s1,html-keyboard-response,99,422141,0.0-7.0-2.7-0.7-3.7,7.0,"[2,3,9,4,5,7,1]","[2,3,9,4,5,7,1]",1.0,"[3, 4, 5, 6, 7, 8, 8, 7, 8, 8, 7, 8]",,5e4feb8037713502e9ed364b,11:21:02,15/01/2024
,,,fwdspan,update_span,eLYvwh44jcf1hBi3LxEtwLG7e4s1,call-function,100,422396,0.0-7.0-2.7-0.7-4.7,,,,,,,5e4feb8037713502e9ed364b,11:21:02,15/01/2024
1252.3999999999069,"<p style=""font-size:3rem"">Trial 9 of 12</p><br><br><br>",0,fwdspan,start_trial,eLYvwh44jcf1hBi3LxEtwLG7e4s1,html-button-response,101,423650,0.0-7.0-2.8-0.8-0.8,,,,,,,5e4feb8037713502e9ed364b,11:21:02,15/01/2024
,"<p style=""font-size:14rem;font-weight:400;"">6</p>",,fwdspan,number,eLYvwh44jcf1hBi3LxEtwLG7e4s1,html-keyboard-response,102,424653,0.0-7.0-2.8-0.8-1.48-0.48,,,,,,,5e4feb8037713502e9ed364b,11:21:02,15/01/2024
,"<p style=""font-size:14rem;font-weight:400;"">4</p>",,fwdspan,number,eLYvwh44jcf1hBi3LxEtwLG7e4s1,html-keyboard-response,103,425656,0.0-7.0-2.8-0.8-1.49-0.49,,,,,,,5e4feb8037713502e9ed364b,11:21:02,15/01/2024
,"<p style=""font-size:14rem;font-weight:400;"">2</p>",,fwdspan,number,eLYvwh44jcf1hBi3LxEtwLG7e4s1,html-keyboard-response,104,426658,0.0-7.0-2.8-0.8-1.50-0.50,,,,,,,5e4feb8037713502e9ed364b,11:21:02,15/01/2024
,"<p style=""font-size:14rem;font-weight:400;"">9</p>",,fwdspan,number,eLYvwh44jcf1hBi3LxEtwLG7e4s1,html-keyboard-response,105,427661,0.0-7.0-2.8-0.8-1.51-0.51,,,,,,,5e4feb8037713502e9ed364b,11:21:02,15/01/2024
,"<p style=""font-size:14rem;font-weight:400;"">8</p>",,fwdspan,number,eLYvwh44jcf1hBi3LxEtwLG7e4s1,html-keyboard-response,106,428663,0.0-7.0-2.8-0.8-1.52-0.52,,,,,,,5e4feb8037713502e9ed364b,11:21:02,15/01/2024
,"<p style=""font-size:14rem;font-weight:400;"">3</p>",,fwdspan,number,eLYvwh44jcf1hBi3LxEtwLG7e4s1,html-keyboard-response,107,429665,0.0-7.0-2.8-0.8-1.53-0.53,,,,,,,5e4feb8037713502e9ed364b,11:21:02,15/01/2024
,"<p style=""font-size:14rem;font-weight:400;"">7</p>",,fwdspan,number,eLYvwh44jcf1hBi3LxEtwLG7e4s1,html-keyboard-response,108,430668,0.0-7.0-2.8-0.8-1.54-0.54,,,,,,,5e4feb8037713502e9ed364b,11:21:02,15/01/2024
,"<p style=""font-size:14rem;font-weight:400;"">1</p>",,fwdspan,number,eLYvwh44jcf1hBi3LxEtwLG7e4s1,html-keyboard-response,109,431670,0.0-7.0-2.8-0.8-1.55-0.55,,,,,,,5e4feb8037713502e9ed364b,11:21:02,15/01/2024
,[],,fwdspan,delay,eLYvwh44jcf1hBi3LxEtwLG7e4s1,html-keyboard-response,110,432222,0.0-7.0-2.8-0.8-2.8,,,,,,,5e4feb8037713502e9ed364b,11:21:02,15/01/2024
6964.300000000279,"<div class = numbox><p style=""font-size:2.5rem"">What were the numbers <b>in order</b>?<br>(When you are ready to lock in your answer, press <b>ENTER</b>)</p><button id = button_1 class = ""square num-button"" onclick = ""recordClick(this)""><div class = content><div class = numbers>1</div></div></button><button id = button_2 class = ""square num-button"" onclick = ""recordClick(this)""><div class = content><div class = numbers>2</div></div></button><button id = button_3 class = ""square num-button"" onclick = ""recordClick(this)""><div class = content><div class = numbers>3</div></div></button><button id = button_4 class = ""square num-button"" onclick = ""recordClick(this)""><div class = content><div class = numbers>4</div></div></button><button id = button_5 class = ""square num-button"" onclick = ""recordClick(this)""><div class = content><div class = numbers>5</div></div></button><button id = button_6 class = ""square num-button"" onclick = ""recordClick(this)""><div class = content><div class = numbers>6</div></div></button><button id = button_7 class = ""square num-button"" onclick = ""recordClick(this)""><div class = content><div class = numbers>7</div></div></button><button id = button_8 class = ""square num-button"" onclick = ""recordClick(this)""><div class = content><div class = numbers>8</div></div></button><button id = button_9 class = ""square num-button"" onclick = ""recordClick(this)""><div class = content><div class = numbers>9</div></div></button><button class = clear_button id = ""ClearButton"" onclick = ""clearResponse()"">Clear</button><p><u><b>Current Answer:</b></u></p><div id=echoed_txt style=""font-size: 6rem; color:blue;""><b></b></div></div><br><br><br><br><br><br><br>",enter,fwdspan,response,eLYvwh44jcf1hBi3LxEtwLG7e4s1,html-keyboard-response,111,439189,0.0-7.0-2.8-0.8-3.8,8.0,"[6,2,9,4,8,3,1]","[6,4,2,9,8,3,7,1]",0.0,"[3, 4, 5, 6, 7, 8, 8, 7, 8, 8, 7, 8]",,5e4feb8037713502e9ed364b,11:21:02,15/01/2024
,,,fwdspan,update_span,eLYvwh44jcf1hBi3LxEtwLG7e4s1,call-function,112,439447,0.0-7.0-2.8-0.8-4.8,,,,,,,5e4feb8037713502e9ed364b,11:21:02,15/01/2024
943.6999999997206,"<p style=""font-size:3rem"">Trial 10 of 12</p><br><br><br>",0,fwdspan,start_trial,eLYvwh44jcf1hBi3LxEtwLG7e4s1,html-button-response,113,440394,0.0-7.0-2.9-0.9-0.9,,,,,,,5e4feb8037713502e9ed364b,11:21:02,15/01/2024
,"<p style=""font-size:14rem;font-weight:400;"">6</p>",,fwdspan,number,eLYvwh44jcf1hBi3LxEtwLG7e4s1,html-keyboard-response,114,441396,0.0-7.0-2.9-0.9-1.56-0.56,,,,,,,5e4feb8037713502e9ed364b,11:21:02,15/01/2024
,"<p style=""font-size:14rem;font-weight:400;"">9</p>",,fwdspan,number,eLYvwh44jcf1hBi3LxEtwLG7e4s1,html-keyboard-response,115,442398,0.0-7.0-2.9-0.9-1.57-0.57,,,,,,,5e4feb8037713502e9ed364b,11:21:02,15/01/2024
,"<p style=""font-size:14rem;font-weight:400;"">3</p>",,fwdspan,number,eLYvwh44jcf1hBi3LxEtwLG7e4s1,html-keyboard-response,116,443401,0.0-7.0-2.9-0.9-1.58-0.58,,,,,,,5e4feb8037713502e9ed364b,11:21:02,15/01/2024
,"<p style=""font-size:14rem;font-weight:400;"">1</p>",,fwdspan,number,eLYvwh44jcf1hBi3LxEtwLG7e4s1,html-keyboard-response,117,444403,0.0-7.0-2.9-0.9-1.59-0.59,,,,,,,5e4feb8037713502e9ed364b,11:21:02,15/01/2024
,"<p style=""font-size:14rem;font-weight:400;"">4</p>",,fwdspan,number,eLYvwh44jcf1hBi3LxEtwLG7e4s1,html-keyboard-response,118,445406,0.0-7.0-2.9-0.9-1.60-0.60,,,,,,,5e4feb8037713502e9ed364b,11:21:02,15/01/2024
,"<p style=""font-size:14rem;font-weight:400;"">5</p>",,fwdspan,number,eLYvwh44jcf1hBi3LxEtwLG7e4s1,html-keyboard-response,119,446408,0.0-7.0-2.9-0.9-1.61-0.61,,,,,,,5e4feb8037713502e9ed364b,11:21:02,15/01/2024
,"<p style=""font-size:14rem;font-weight:400;"">7</p>",,fwdspan,number,eLYvwh44jcf1hBi3LxEtwLG7e4s1,html-keyboard-response,120,447411,0.0-7.0-2.9-0.9-1.62-0.62,,,,,,,5e4feb8037713502e9ed364b,11:21:02,15/01/2024
,"<p style=""font-size:14rem;font-weight:400;"">8</p>",,fwdspan,number,eLYvwh44jcf1hBi3LxEtwLG7e4s1,html-keyboard-response,121,448413,0.0-7.0-2.9-0.9-1.63-0.63,,,,,,,5e4feb8037713502e9ed364b,11:21:02,15/01/2024
,[],,fwdspan,delay,eLYvwh44jcf1hBi3LxEtwLG7e4s1,html-keyboard-response,122,448966,0.0-7.0-2.9-0.9-2.9,,,,,,,5e4feb8037713502e9ed364b,11:21:02,15/01/2024
6559.199999999721,"<div class = numbox><p style=""font-size:2.5rem"">What were the numbers <b>in order</b>?<br>(When you are ready to lock in your answer, press <b>ENTER</b>)</p><button id = button_1 class = ""square num-button"" onclick = ""recordClick(this)""><div class = content><div class = numbers>1</div></div></button><button id = button_2 class = ""square num-button"" onclick = ""recordClick(this)""><div class = content><div class = numbers>2</div></div></button><button id = button_3 class = ""square num-button"" onclick = ""recordClick(this)""><div class = content><div class = numbers>3</div></div></button><button id = button_4 class = ""square num-button"" onclick = ""recordClick(this)""><div class = content><div class = numbers>4</div></div></button><button id = button_5 class = ""square num-button"" onclick = ""recordClick(this)""><div class = content><div class = numbers>5</div></div></button><button id = button_6 class = ""square num-button"" onclick = ""recordClick(this)""><div class = content><div class = numbers>6</div></div></button><button id = button_7 class = ""square num-button"" onclick = ""recordClick(this)""><div class = content><div class = numbers>7</div></div></button><button id = button_8 class = ""square num-button"" onclick = ""recordClick(this)""><div class = content><div class = numbers>8</div></div></button><button id = button_9 class = ""square num-button"" onclick = ""recordClick(this)""><div class = content><div class = numbers>9</div></div></button><button class = clear_button id = ""ClearButton"" onclick = ""clearResponse()"">Clear</button><p><u><b>Current Answer:</b></u></p><div id=echoed_txt style=""font-size: 6rem; color:blue;""><b></b></div></div><br><br><br><br><br><br><br>",enter,fwdspan,response,eLYvwh44jcf1hBi3LxEtwLG7e4s1,html-keyboard-response,123,455528,0.0-7.0-2.9-0.9-3.9,8.0,"[6,9,4,1,3,9,8]","[6,9,3,1,4,5,7,8]",0.0,"[3, 4, 5, 6, 7, 8, 8, 7, 8, 8, 7, 8]",,5e4feb8037713502e9ed364b,11:21:02,15/01/2024
,,,fwdspan,update_span,eLYvwh44jcf1hBi3LxEtwLG7e4s1,call-function,124,455785,0.0-7.0-2.9-0.9-4.9,,,,,,,5e4feb8037713502e9ed364b,11:21:02,15/01/2024
1211.0,"<p style=""font-size:3rem"">Trial 11 of 12</p><br><br><br>",0,fwdspan,start_trial,eLYvwh44jcf1hBi3LxEtwLG7e4s1,html-button-response,125,456999,0.0-7.0-2.10-0.10-0.10,,,,,,,5e4feb8037713502e9ed364b,11:21:02,15/01/2024
,"<p style=""font-size:14rem;font-weight:400;"">7</p>",,fwdspan,number,eLYvwh44jcf1hBi3LxEtwLG7e4s1,html-keyboard-response,126,458002,0.0-7.0-2.10-0.10-1.64-0.64,,,,,,,5e4feb8037713502e9ed364b,11:21:02,15/01/2024
,"<p style=""font-size:14rem;font-weight:400;"">6</p>",,fwdspan,number,eLYvwh44jcf1hBi3LxEtwLG7e4s1,html-keyboard-response,127,459005,0.0-7.0-2.10-0.10-1.65-0.65,,,,,,,5e4feb8037713502e9ed364b,11:21:02,15/01/2024
,"<p style=""font-size:14rem;font-weight:400;"">4</p>",,fwdspan,number,eLYvwh44jcf1hBi3LxEtwLG7e4s1,html-keyboard-response,128,460007,0.0-7.0-2.10-0.10-1.66-0.66,,,,,,,5e4feb8037713502e9ed364b,11:21:02,15/01/2024
,"<p style=""font-size:14rem;font-weight:400;"">5</p>",,fwdspan,number,eLYvwh44jcf1hBi3LxEtwLG7e4s1,html-keyboard-response,129,461014,0.0-7.0-2.10-0.10-1.67-0.67,,,,,,,5e4feb8037713502e9ed364b,11:21:02,15/01/2024
,"<p style=""font-size:14rem;font-weight:400;"">1</p>",,fwdspan,number,eLYvwh44jcf1hBi3LxEtwLG7e4s1,html-keyboard-response,130,462016,0.0-7.0-2.10-0.10-1.68-0.68,,,,,,,5e4feb8037713502e9ed364b,11:21:02,15/01/2024
,"<p style=""font-size:14rem;font-weight:400;"">8</p>",,fwdspan,number,eLYvwh44jcf1hBi3LxEtwLG7e4s1,html-keyboard-response,131,463018,0.0-7.0-2.10-0.10-1.69-0.69,,,,,,,5e4feb8037713502e9ed364b,11:21:02,15/01/2024
,"<p style=""font-size:14rem;font-weight:400;"">2</p>",,fwdspan,number,eLYvwh44jcf1hBi3LxEtwLG7e4s1,html-keyboard-response,132,464021,0.0-7.0-2.10-0.10-1.70-0.70,,,,,,,5e4feb8037713502e9ed364b,11:21:02,15/01/2024
,[],,fwdspan,delay,eLYvwh44jcf1hBi3LxEtwLG7e4s1,html-keyboard-response,133,464573,0.0-7.0-2.10-0.10-2.10,,,,,,,5e4feb8037713502e9ed364b,11:21:02,15/01/2024
6806.899999999907,"<div class = numbox><p style=""font-size:2.5rem"">What were the numbers <b>in order</b>?<br>(When you are ready to lock in your answer, press <b>ENTER</b>)</p><button id = button_1 class = ""square num-button"" onclick = ""recordClick(this)""><div class = content><div class = numbers>1</div></div></button><button id = button_2 class = ""square num-button"" onclick = ""recordClick(this)""><div class = content><div class = numbers>2</div></div></button><button id = button_3 class = ""square num-button"" onclick = ""recordClick(this)""><div class = content><div class = numbers>3</div></div></button><button id = button_4 class = ""square num-button"" onclick = ""recordClick(this)""><div class = content><div class = numbers>4</div></div></button><button id = button_5 class = ""square num-button"" onclick = ""recordClick(this)""><div class = content><div class = numbers>5</div></div></button><button id = button_6 class = ""square num-button"" onclick = ""recordClick(this)""><div class = content><div class = numbers>6</div></div></button><button id = button_7 class = ""square num-button"" onclick = ""recordClick(this)""><div class = content><div class = numbers>7</div></div></button><button id = button_8 class = ""square num-button"" onclick = ""recordClick(this)""><div class = content><div class = numbers>8</div></div></button><button id = button_9 class = ""square num-button"" onclick = ""recordClick(this)""><div class = content><div class = numbers>9</div></div></button><button class = clear_button id = ""ClearButton"" onclick = ""clearResponse()"">Clear</button><p><u><b>Current Answer:</b></u></p><div id=echoed_txt style=""font-size: 6rem; color:blue;""><b></b></div></div><br><br><br><br><br><br><br>",enter,fwdspan,response,eLYvwh44jcf1hBi3LxEtwLG7e4s1,html-keyboard-response,134,471382,0.0-7.0-2.10-0.10-3.10,7.0,"[7,6,4,5,1,8,2]","[7,6,4,5,1,8,2]",1.0,"[3, 4, 5, 6, 7, 8, 8, 7, 8, 8, 7, 8]",,5e4feb8037713502e9ed364b,11:21:02,15/01/2024
,,,fwdspan,update_span,eLYvwh44jcf1hBi3LxEtwLG7e4s1,call-function,135,471636,0.0-7.0-2.10-0.10-4.10,,,,,,,5e4feb8037713502e9ed364b,11:21:02,15/01/2024
872.3999999999069,"<p style=""font-size:3rem"">Trial 12 of 12</p><br><br><br>",0,fwdspan,start_trial,eLYvwh44jcf1hBi3LxEtwLG7e4s1,html-button-response,136,472511,0.0-7.0-2.11-0.11-0.11,,,,,,,5e4feb8037713502e9ed364b,11:21:02,15/01/2024
,"<p style=""font-size:14rem;font-weight:400;"">3</p>",,fwdspan,number,eLYvwh44jcf1hBi3LxEtwLG7e4s1,html-keyboard-response,137,473514,0.0-7.0-2.11-0.11-1.71-0.71,,,,,,,5e4feb8037713502e9ed364b,11:21:02,15/01/2024
,"<p style=""font-size:14rem;font-weight:400;"">4</p>",,fwdspan,number,eLYvwh44jcf1hBi3LxEtwLG7e4s1,html-keyboard-response,138,474516,0.0-7.0-2.11-0.11-1.72-0.72,,,,,,,5e4feb8037713502e9ed364b,11:21:02,15/01/2024
,"<p style=""font-size:14rem;font-weight:400;"">5</p>",,fwdspan,number,eLYvwh44jcf1hBi3LxEtwLG7e4s1,html-keyboard-response,139,475518,0.0-7.0-2.11-0.11-1.73-0.73,,,,,,,5e4feb8037713502e9ed364b,11:21:02,15/01/2024
,"<p style=""font-size:14rem;font-weight:400;"">8</p>",,fwdspan,number,eLYvwh44jcf1hBi3LxEtwLG7e4s1,html-keyboard-response,140,476520,0.0-7.0-2.11-0.11-1.74-0.74,,,,,,,5e4feb8037713502e9ed364b,11:21:02,15/01/2024
,"<p style=""font-size:14rem;font-weight:400;"">1</p>",,fwdspan,number,eLYvwh44jcf1hBi3LxEtwLG7e4s1,html-keyboard-response,141,477522,0.0-7.0-2.11-0.11-1.75-0.75,,,,,,,5e4feb8037713502e9ed364b,11:21:02,15/01/2024
,"<p style=""font-size:14rem;font-weight:400;"">9</p>",,fwdspan,number,eLYvwh44jcf1hBi3LxEtwLG7e4s1,html-keyboard-response,142,478524,0.0-7.0-2.11-0.11-1.76-0.76,,,,,,,5e4feb8037713502e9ed364b,11:21:02,15/01/2024
,"<p style=""font-size:14rem;font-weight:400;"">7</p>",,fwdspan,number,eLYvwh44jcf1hBi3LxEtwLG7e4s1,html-keyboard-response,143,479526,0.0-7.0-2.11-0.11-1.77-0.77,,,,,,,5e4feb8037713502e9ed364b,11:21:02,15/01/2024
,"<p style=""font-size:14rem;font-weight:400;"">2</p>",,fwdspan,number,eLYvwh44jcf1hBi3LxEtwLG7e4s1,html-keyboard-response,144,480528,0.0-7.0-2.11-0.11-1.78-0.78,,,,,,,5e4feb8037713502e9ed364b,11:21:02,15/01/2024
,[],,fwdspan,delay,eLYvwh44jcf1hBi3LxEtwLG7e4s1,html-keyboard-response,145,481081,0.0-7.0-2.11-0.11-2.11,,,,,,,5e4feb8037713502e9ed364b,11:21:02,15/01/2024
6142.0,"<div class = numbox><p style=""font-size:2.5rem"">What were the numbers <b>in order</b>?<br>(When you are ready to lock in your answer, press <b>ENTER</b>)</p><button id = button_1 class = ""square num-button"" onclick = ""recordClick(this)""><div class = content><div class = numbers>1</div></div></button><button id = button_2 class = ""square num-button"" onclick = ""recordClick(this)""><div class = content><div class = numbers>2</div></div></button><button id = button_3 class = ""square num-button"" onclick = ""recordClick(this)""><div class = content><div class = numbers>3</div></div></button><button id = button_4 class = ""square num-button"" onclick = ""recordClick(this)""><div class = content><div class = numbers>4</div></div></button><button id = button_5 class = ""square num-button"" onclick = ""recordClick(this)""><div class = content><div class = numbers>5</div></div></button><button id = button_6 class = ""square num-button"" onclick = ""recordClick(this)""><div class = content><div class = numbers>6</div></div></button><button id = button_7 class = ""square num-button"" onclick = ""recordClick(this)""><div class = content><div class = numbers>7</div></div></button><button id = button_8 class = ""square num-button"" onclick = ""recordClick(this)""><div class = content><div class = numbers>8</div></div></button><button id = button_9 class = ""square num-button"" onclick = ""recordClick(this)""><div class = content><div class = numbers>9</div></div></button><button class = clear_button id = ""ClearButton"" onclick = ""clearResponse()"">Clear</button><p><u><b>Current Answer:</b></u></p><div id=echoed_txt style=""font-size: 6rem; color:blue;""><b></b></div></div><br><br><br><br><br><br><br>",enter,fwdspan,response,eLYvwh44jcf1hBi3LxEtwLG7e4s1,html-keyboard-response,146,487226,0.0-7.0-2.11-0.11-3.11,8.0,"[3,4,5,8,1,9,7]","[3,4,5,8,1,9,7,2]",0.0,"[3, 4, 5, 6, 7, 8, 8, 7, 8, 8, 7, 8]",,5e4feb8037713502e9ed364b,11:21:02,15/01/2024
,,,fwdspan,update_span,eLYvwh44jcf1hBi3LxEtwLG7e4s1,call-function,147,487481,0.0-7.0-2.11-0.11-4.11,,,,,,,5e4feb8037713502e9ed364b,11:21:02,15/01/2024
12360.900000000373,,{'Q0': 'Was enjoyable'},fwdspan,survey,eLYvwh44jcf1hBi3LxEtwLG7e4s1,lmdlab-survey-text,148,500596,0.0-7.0-3.0,,,,,,eLYvwh44jcf1hBi3LxEtwLG7e4s1,5e4feb8037713502e9ed364b,11:21:02,15/01/2024
1249.0,<p><p style='font-size: 3rem'>Great work!<br><br>This completes the digit span task.</p><br><br><br>,0,fwdspan,finish,eLYvwh44jcf1hBi3LxEtwLG7e4s1,html-button-response,149,501853,0.0-7.0-4.0,,,,,,,5e4feb8037713502e9ed364b,11:21:02,15/01/2024
