rt,stimulus,response,exp_name,exp_stage,subjectID,trial_type,trial_index,time_elapsed,internal_node_id,span,answer,correct,correct_full,span_history,databaseID,prolificID,start_time,date
4537.0,"<p style=""font-size:4rem""><br><br>In the next part today, we have a completely different short task.<br><br><br>This part involves keeping numbers in you mind. Participation takes around 5 minutes.<br><br><br></p>",0,fwdspan,instruct,B2TLBMUjdoeMCe8PBCtCVQcq6wp1,html-button-response,19,262977,0.0-7.0-0.0,,,,,,,58038ecf9c39b3000179ecdc,11:20:39,15/01/2024
14085.0,"<p style=""font-size:5rem"">Welcome to the <b>digit span task</b>!<br><br></p><p style=""font-size:3.4rem""><br>On each trial, you will see a sequence of digits, followed by a delay.</p><p style=""font-size:3.4rem""><br>Then you will be asked to type them back in the same order in which they were seen.</p><p style=""font-size:3.4rem""><br><br><br>For example, if you saw the digits <b style=""color:blue;"">1</b>, <b style=""color:blue;"">2</b>, <b style=""color:blue;"">3</b>, you would respond with <b style=""color:blue;"">1</b>, <b style=""color:blue;"">2</b>, <b style=""color:blue;"">3</b></p><p style=""font-size:3.4rem""><br><br><br>To ensure the best measure of true performance for our study,<br><br>it is very important that you do not use any memory aid (e.g., pen and paper).<br><br>Please do the task solely in your head.</p><p style=""font-size:3.4rem""><br><br><br>There will be 12 total trials. Participation takes around 5 minutes.</p><br><br><br>",0,fwdspan,instruct,B2TLBMUjdoeMCe8PBCtCVQcq6wp1,html-button-response,20,277062,0.0-7.0-1.0,,,,,,,58038ecf9c39b3000179ecdc,11:20:39,15/01/2024
1160.0,"<p style=""font-size:3rem"">Trial 1 of 12</p><br><br><br>",0,fwdspan,start_trial,B2TLBMUjdoeMCe8PBCtCVQcq6wp1,html-button-response,21,278224,0.0-7.0-2.0-0.0-0.0,,,,,,,58038ecf9c39b3000179ecdc,11:20:39,15/01/2024
,"<p style=""font-size:14rem;font-weight:400;"">6</p>",,fwdspan,number,B2TLBMUjdoeMCe8PBCtCVQcq6wp1,html-keyboard-response,22,279226,0.0-7.0-2.0-0.0-1.0-0.0,,,,,,,58038ecf9c39b3000179ecdc,11:20:39,15/01/2024
,"<p style=""font-size:14rem;font-weight:400;"">2</p>",,fwdspan,number,B2TLBMUjdoeMCe8PBCtCVQcq6wp1,html-keyboard-response,23,280227,0.0-7.0-2.0-0.0-1.1-0.1,,,,,,,58038ecf9c39b3000179ecdc,11:20:39,15/01/2024
,"<p style=""font-size:14rem;font-weight:400;"">9</p>",,fwdspan,number,B2TLBMUjdoeMCe8PBCtCVQcq6wp1,html-keyboard-response,24,281228,0.0-7.0-2.0-0.0-1.2-0.2,,,,,,,58038ecf9c39b3000179ecdc,11:20:39,15/01/2024
,[],,fwdspan,delay,B2TLBMUjdoeMCe8PBCtCVQcq6wp1,html-keyboard-response,25,281779,0.0-7.0-2.0-0.0-2.0,,,,,,,58038ecf9c39b3000179ecdc,11:20:39,15/01/2024
6766.0,"<div class = numbox><p style=""font-size:2.5rem"">What were the numbers <b>in order</b>?<br>(When you are ready to lock in your answer, press <b>ENTER</b>)</p><button id = button_1 class = ""square num-button"" onclick = ""recordClick(this)""><div class = content><div class = numbers>1</div></div></button><button id = button_2 class = ""square num-button"" onclick = ""recordClick(this)""><div class = content><div class = numbers>2</div></div></button><button id = button_3 class = ""square num-button"" onclick = ""recordClick(this)""><div class = content><div class = numbers>3</div></div></button><button id = button_4 class = ""square num-button"" onclick = ""recordClick(this)""><div class = content><div class = numbers>4</div></div></button><button id = button_5 class = ""square num-button"" onclick = ""recordClick(this)""><div class = content><div class = numbers>5</div></div></button><button id = button_6 class = ""square num-button"" onclick = ""recordClick(this)""><div class = content><div class = numbers>6</div></div></button><button id = button_7 class = ""square num-button"" onclick = ""recordClick(this)""><div class = content><div class = numbers>7</div></div></button><button id = button_8 class = ""square num-button"" onclick = ""recordClick(this)""><div class = content><div class = numbers>8</div></div></button><button id = button_9 class = ""square num-button"" onclick = ""recordClick(this)""><div class = content><div class = numbers>9</div></div></button><button class = clear_button id = ""ClearButton"" onclick = ""clearResponse()"">Clear</button><p><u><b>Current Answer:</b></u></p><div id=echoed_txt style=""font-size: 6rem; color:blue;""><b></b></div></div><br><br><br><br><br><br><br>",enter,fwdspan,response,B2TLBMUjdoeMCe8PBCtCVQcq6wp1,html-keyboard-response,26,288546,0.0-7.0-2.0-0.0-3.0,3.0,"[6,2,9]","[6,2,9]",1.0,"[3, 4, 5, 6, 7, 8, 9, 9, 8, 8, 9, 10]",,58038ecf9c39b3000179ecdc,11:20:39,15/01/2024
,,,fwdspan,update_span,B2TLBMUjdoeMCe8PBCtCVQcq6wp1,call-function,27,288798,0.0-7.0-2.0-0.0-4.0,,,,,,,58038ecf9c39b3000179ecdc,11:20:39,15/01/2024
6318.0,"<p style=""font-size:3rem"">Trial 2 of 12</p><br><br><br>",0,fwdspan,start_trial,B2TLBMUjdoeMCe8PBCtCVQcq6wp1,html-button-response,28,295115,0.0-7.0-2.1-0.1-0.1,,,,,,,58038ecf9c39b3000179ecdc,11:20:39,15/01/2024
,"<p style=""font-size:14rem;font-weight:400;"">8</p>",,fwdspan,number,B2TLBMUjdoeMCe8PBCtCVQcq6wp1,html-keyboard-response,29,296117,0.0-7.0-2.1-0.1-1.3-0.3,,,,,,,58038ecf9c39b3000179ecdc,11:20:39,15/01/2024
,"<p style=""font-size:14rem;font-weight:400;"">4</p>",,fwdspan,number,B2TLBMUjdoeMCe8PBCtCVQcq6wp1,html-keyboard-response,30,297119,0.0-7.0-2.1-0.1-1.4-0.4,,,,,,,58038ecf9c39b3000179ecdc,11:20:39,15/01/2024
,"<p style=""font-size:14rem;font-weight:400;"">7</p>",,fwdspan,number,B2TLBMUjdoeMCe8PBCtCVQcq6wp1,html-keyboard-response,31,298121,0.0-7.0-2.1-0.1-1.5-0.5,,,,,,,58038ecf9c39b3000179ecdc,11:20:39,15/01/2024
,"<p style=""font-size:14rem;font-weight:400;"">5</p>",,fwdspan,number,B2TLBMUjdoeMCe8PBCtCVQcq6wp1,html-keyboard-response,32,299122,0.0-7.0-2.1-0.1-1.6-0.6,,,,,,,58038ecf9c39b3000179ecdc,11:20:39,15/01/2024
,[],,fwdspan,delay,B2TLBMUjdoeMCe8PBCtCVQcq6wp1,html-keyboard-response,33,299673,0.0-7.0-2.1-0.1-2.1,,,,,,,58038ecf9c39b3000179ecdc,11:20:39,15/01/2024
23152.0,"<div class = numbox><p style=""font-size:2.5rem"">What were the numbers <b>in order</b>?<br>(When you are ready to lock in your answer, press <b>ENTER</b>)</p><button id = button_1 class = ""square num-button"" onclick = ""recordClick(this)""><div class = content><div class = numbers>1</div></div></button><button id = button_2 class = ""square num-button"" onclick = ""recordClick(this)""><div class = content><div class = numbers>2</div></div></button><button id = button_3 class = ""square num-button"" onclick = ""recordClick(this)""><div class = content><div class = numbers>3</div></div></button><button id = button_4 class = ""square num-button"" onclick = ""recordClick(this)""><div class = content><div class = numbers>4</div></div></button><button id = button_5 class = ""square num-button"" onclick = ""recordClick(this)""><div class = content><div class = numbers>5</div></div></button><button id = button_6 class = ""square num-button"" onclick = ""recordClick(this)""><div class = content><div class = numbers>6</div></div></button><button id = button_7 class = ""square num-button"" onclick = ""recordClick(this)""><div class = content><div class = numbers>7</div></div></button><button id = button_8 class = ""square num-button"" onclick = ""recordClick(this)""><div class = content><div class = numbers>8</div></div></button><button id = button_9 class = ""square num-button"" onclick = ""recordClick(this)""><div class = content><div class = numbers>9</div></div></button><button class = clear_button id = ""ClearButton"" onclick = ""clearResponse()"">Clear</button><p><u><b>Current Answer:</b></u></p><div id=echoed_txt style=""font-size: 6rem; color:blue;""><b></b></div></div><br><br><br><br><br><br><br>",enter,fwdspan,response,B2TLBMUjdoeMCe8PBCtCVQcq6wp1,html-keyboard-response,34,322826,0.0-7.0-2.1-0.1-3.1,4.0,"[8,4,7,5]","[8,4,7,5]",1.0,"[3, 4, 5, 6, 7, 8, 9, 9, 8, 8, 9, 10]",,58038ecf9c39b3000179ecdc,11:20:39,15/01/2024
,,,fwdspan,update_span,B2TLBMUjdoeMCe8PBCtCVQcq6wp1,call-function,35,323077,0.0-7.0-2.1-0.1-4.1,,,,,,,58038ecf9c39b3000179ecdc,11:20:39,15/01/2024
7490.0,"<p style=""font-size:3rem"">Trial 3 of 12</p><br><br><br>",0,fwdspan,start_trial,B2TLBMUjdoeMCe8PBCtCVQcq6wp1,html-button-response,36,330568,0.0-7.0-2.2-0.2-0.2,,,,,,,58038ecf9c39b3000179ecdc,11:20:39,15/01/2024
,"<p style=""font-size:14rem;font-weight:400;"">6</p>",,fwdspan,number,B2TLBMUjdoeMCe8PBCtCVQcq6wp1,html-keyboard-response,37,331570,0.0-7.0-2.2-0.2-1.7-0.7,,,,,,,58038ecf9c39b3000179ecdc,11:20:39,15/01/2024
,"<p style=""font-size:14rem;font-weight:400;"">9</p>",,fwdspan,number,B2TLBMUjdoeMCe8PBCtCVQcq6wp1,html-keyboard-response,38,332573,0.0-7.0-2.2-0.2-1.8-0.8,,,,,,,58038ecf9c39b3000179ecdc,11:20:39,15/01/2024
,"<p style=""font-size:14rem;font-weight:400;"">7</p>",,fwdspan,number,B2TLBMUjdoeMCe8PBCtCVQcq6wp1,html-keyboard-response,39,333574,0.0-7.0-2.2-0.2-1.9-0.9,,,,,,,58038ecf9c39b3000179ecdc,11:20:39,15/01/2024
,"<p style=""font-size:14rem;font-weight:400;"">4</p>",,fwdspan,number,B2TLBMUjdoeMCe8PBCtCVQcq6wp1,html-keyboard-response,40,334594,0.0-7.0-2.2-0.2-1.10-0.10,,,,,,,58038ecf9c39b3000179ecdc,11:20:39,15/01/2024
,"<p style=""font-size:14rem;font-weight:400;"">3</p>",,fwdspan,number,B2TLBMUjdoeMCe8PBCtCVQcq6wp1,html-keyboard-response,41,335595,0.0-7.0-2.2-0.2-1.11-0.11,,,,,,,58038ecf9c39b3000179ecdc,11:20:39,15/01/2024
,[],,fwdspan,delay,B2TLBMUjdoeMCe8PBCtCVQcq6wp1,html-keyboard-response,42,336145,0.0-7.0-2.2-0.2-2.2,,,,,,,58038ecf9c39b3000179ecdc,11:20:39,15/01/2024
12303.0,"<div class = numbox><p style=""font-size:2.5rem"">What were the numbers <b>in order</b>?<br>(When you are ready to lock in your answer, press <b>ENTER</b>)</p><button id = button_1 class = ""square num-button"" onclick = ""recordClick(this)""><div class = content><div class = numbers>1</div></div></button><button id = button_2 class = ""square num-button"" onclick = ""recordClick(this)""><div class = content><div class = numbers>2</div></div></button><button id = button_3 class = ""square num-button"" onclick = ""recordClick(this)""><div class = content><div class = numbers>3</div></div></button><button id = button_4 class = ""square num-button"" onclick = ""recordClick(this)""><div class = content><div class = numbers>4</div></div></button><button id = button_5 class = ""square num-button"" onclick = ""recordClick(this)""><div class = content><div class = numbers>5</div></div></button><button id = button_6 class = ""square num-button"" onclick = ""recordClick(this)""><div class = content><div class = numbers>6</div></div></button><button id = button_7 class = ""square num-button"" onclick = ""recordClick(this)""><div class = content><div class = numbers>7</div></div></button><button id = button_8 class = ""square num-button"" onclick = ""recordClick(this)""><div class = content><div class = numbers>8</div></div></button><button id = button_9 class = ""square num-button"" onclick = ""recordClick(this)""><div class = content><div class = numbers>9</div></div></button><button class = clear_button id = ""ClearButton"" onclick = ""clearResponse()"">Clear</button><p><u><b>Current Answer:</b></u></p><div id=echoed_txt style=""font-size: 6rem; color:blue;""><b></b></div></div><br><br><br><br><br><br><br>",enter,fwdspan,response,B2TLBMUjdoeMCe8PBCtCVQcq6wp1,html-keyboard-response,43,348449,0.0-7.0-2.2-0.2-3.2,5.0,"[6,9,7,4,3]","[6,9,7,4,3]",1.0,"[3, 4, 5, 6, 7, 8, 9, 9, 8, 8, 9, 10]",,58038ecf9c39b3000179ecdc,11:20:39,15/01/2024
,,,fwdspan,update_span,B2TLBMUjdoeMCe8PBCtCVQcq6wp1,call-function,44,348700,0.0-7.0-2.2-0.2-4.2,,,,,,,58038ecf9c39b3000179ecdc,11:20:39,15/01/2024
3842.0,"<p style=""font-size:3rem"">Trial 4 of 12</p><br><br><br>",0,fwdspan,start_trial,B2TLBMUjdoeMCe8PBCtCVQcq6wp1,html-button-response,45,352543,0.0-7.0-2.3-0.3-0.3,,,,,,,58038ecf9c39b3000179ecdc,11:20:39,15/01/2024
,"<p style=""font-size:14rem;font-weight:400;"">7</p>",,fwdspan,number,B2TLBMUjdoeMCe8PBCtCVQcq6wp1,html-keyboard-response,46,353545,0.0-7.0-2.3-0.3-1.12-0.12,,,,,,,58038ecf9c39b3000179ecdc,11:20:39,15/01/2024
,"<p style=""font-size:14rem;font-weight:400;"">6</p>",,fwdspan,number,B2TLBMUjdoeMCe8PBCtCVQcq6wp1,html-keyboard-response,47,354546,0.0-7.0-2.3-0.3-1.13-0.13,,,,,,,58038ecf9c39b3000179ecdc,11:20:39,15/01/2024
,"<p style=""font-size:14rem;font-weight:400;"">4</p>",,fwdspan,number,B2TLBMUjdoeMCe8PBCtCVQcq6wp1,html-keyboard-response,48,355547,0.0-7.0-2.3-0.3-1.14-0.14,,,,,,,58038ecf9c39b3000179ecdc,11:20:39,15/01/2024
,"<p style=""font-size:14rem;font-weight:400;"">1</p>",,fwdspan,number,B2TLBMUjdoeMCe8PBCtCVQcq6wp1,html-keyboard-response,49,356549,0.0-7.0-2.3-0.3-1.15-0.15,,,,,,,58038ecf9c39b3000179ecdc,11:20:39,15/01/2024
,"<p style=""font-size:14rem;font-weight:400;"">8</p>",,fwdspan,number,B2TLBMUjdoeMCe8PBCtCVQcq6wp1,html-keyboard-response,50,357550,0.0-7.0-2.3-0.3-1.16-0.16,,,,,,,58038ecf9c39b3000179ecdc,11:20:39,15/01/2024
,"<p style=""font-size:14rem;font-weight:400;"">2</p>",,fwdspan,number,B2TLBMUjdoeMCe8PBCtCVQcq6wp1,html-keyboard-response,51,358580,0.0-7.0-2.3-0.3-1.17-0.17,,,,,,,58038ecf9c39b3000179ecdc,11:20:39,15/01/2024
,[],,fwdspan,delay,B2TLBMUjdoeMCe8PBCtCVQcq6wp1,html-keyboard-response,52,359131,0.0-7.0-2.3-0.3-2.3,,,,,,,58038ecf9c39b3000179ecdc,11:20:39,15/01/2024
6894.0,"<div class = numbox><p style=""font-size:2.5rem"">What were the numbers <b>in order</b>?<br>(When you are ready to lock in your answer, press <b>ENTER</b>)</p><button id = button_1 class = ""square num-button"" onclick = ""recordClick(this)""><div class = content><div class = numbers>1</div></div></button><button id = button_2 class = ""square num-button"" onclick = ""recordClick(this)""><div class = content><div class = numbers>2</div></div></button><button id = button_3 class = ""square num-button"" onclick = ""recordClick(this)""><div class = content><div class = numbers>3</div></div></button><button id = button_4 class = ""square num-button"" onclick = ""recordClick(this)""><div class = content><div class = numbers>4</div></div></button><button id = button_5 class = ""square num-button"" onclick = ""recordClick(this)""><div class = content><div class = numbers>5</div></div></button><button id = button_6 class = ""square num-button"" onclick = ""recordClick(this)""><div class = content><div class = numbers>6</div></div></button><button id = button_7 class = ""square num-button"" onclick = ""recordClick(this)""><div class = content><div class = numbers>7</div></div></button><button id = button_8 class = ""square num-button"" onclick = ""recordClick(this)""><div class = content><div class = numbers>8</div></div></button><button id = button_9 class = ""square num-button"" onclick = ""recordClick(this)""><div class = content><div class = numbers>9</div></div></button><button class = clear_button id = ""ClearButton"" onclick = ""clearResponse()"">Clear</button><p><u><b>Current Answer:</b></u></p><div id=echoed_txt style=""font-size: 6rem; color:blue;""><b></b></div></div><br><br><br><br><br><br><br>",enter,fwdspan,response,B2TLBMUjdoeMCe8PBCtCVQcq6wp1,html-keyboard-response,53,366025,0.0-7.0-2.3-0.3-3.3,6.0,"[7,6,4,1,8,2]","[7,6,4,1,8,2]",1.0,"[3, 4, 5, 6, 7, 8, 9, 9, 8, 8, 9, 10]",,58038ecf9c39b3000179ecdc,11:20:39,15/01/2024
,,,fwdspan,update_span,B2TLBMUjdoeMCe8PBCtCVQcq6wp1,call-function,54,366277,0.0-7.0-2.3-0.3-4.3,,,,,,,58038ecf9c39b3000179ecdc,11:20:39,15/01/2024
5518.0,"<p style=""font-size:3rem"">Trial 5 of 12</p><br><br><br>",0,fwdspan,start_trial,B2TLBMUjdoeMCe8PBCtCVQcq6wp1,html-button-response,55,371796,0.0-7.0-2.4-0.4-0.4,,,,,,,58038ecf9c39b3000179ecdc,11:20:39,15/01/2024
,"<p style=""font-size:14rem;font-weight:400;"">3</p>",,fwdspan,number,B2TLBMUjdoeMCe8PBCtCVQcq6wp1,html-keyboard-response,56,372797,0.0-7.0-2.4-0.4-1.18-0.18,,,,,,,58038ecf9c39b3000179ecdc,11:20:39,15/01/2024
,"<p style=""font-size:14rem;font-weight:400;"">7</p>",,fwdspan,number,B2TLBMUjdoeMCe8PBCtCVQcq6wp1,html-keyboard-response,57,373799,0.0-7.0-2.4-0.4-1.19-0.19,,,,,,,58038ecf9c39b3000179ecdc,11:20:39,15/01/2024
,"<p style=""font-size:14rem;font-weight:400;"">1</p>",,fwdspan,number,B2TLBMUjdoeMCe8PBCtCVQcq6wp1,html-keyboard-response,58,374800,0.0-7.0-2.4-0.4-1.20-0.20,,,,,,,58038ecf9c39b3000179ecdc,11:20:39,15/01/2024
,"<p style=""font-size:14rem;font-weight:400;"">5</p>",,fwdspan,number,B2TLBMUjdoeMCe8PBCtCVQcq6wp1,html-keyboard-response,59,375801,0.0-7.0-2.4-0.4-1.21-0.21,,,,,,,58038ecf9c39b3000179ecdc,11:20:39,15/01/2024
,"<p style=""font-size:14rem;font-weight:400;"">4</p>",,fwdspan,number,B2TLBMUjdoeMCe8PBCtCVQcq6wp1,html-keyboard-response,60,376802,0.0-7.0-2.4-0.4-1.22-0.22,,,,,,,58038ecf9c39b3000179ecdc,11:20:39,15/01/2024
,"<p style=""font-size:14rem;font-weight:400;"">2</p>",,fwdspan,number,B2TLBMUjdoeMCe8PBCtCVQcq6wp1,html-keyboard-response,61,377804,0.0-7.0-2.4-0.4-1.23-0.23,,,,,,,58038ecf9c39b3000179ecdc,11:20:39,15/01/2024
,"<p style=""font-size:14rem;font-weight:400;"">8</p>",,fwdspan,number,B2TLBMUjdoeMCe8PBCtCVQcq6wp1,html-keyboard-response,62,378805,0.0-7.0-2.4-0.4-1.24-0.24,,,,,,,58038ecf9c39b3000179ecdc,11:20:39,15/01/2024
,[],,fwdspan,delay,B2TLBMUjdoeMCe8PBCtCVQcq6wp1,html-keyboard-response,63,379356,0.0-7.0-2.4-0.4-2.4,,,,,,,58038ecf9c39b3000179ecdc,11:20:39,15/01/2024
13036.0,"<div class = numbox><p style=""font-size:2.5rem"">What were the numbers <b>in order</b>?<br>(When you are ready to lock in your answer, press <b>ENTER</b>)</p><button id = button_1 class = ""square num-button"" onclick = ""recordClick(this)""><div class = content><div class = numbers>1</div></div></button><button id = button_2 class = ""square num-button"" onclick = ""recordClick(this)""><div class = content><div class = numbers>2</div></div></button><button id = button_3 class = ""square num-button"" onclick = ""recordClick(this)""><div class = content><div class = numbers>3</div></div></button><button id = button_4 class = ""square num-button"" onclick = ""recordClick(this)""><div class = content><div class = numbers>4</div></div></button><button id = button_5 class = ""square num-button"" onclick = ""recordClick(this)""><div class = content><div class = numbers>5</div></div></button><button id = button_6 class = ""square num-button"" onclick = ""recordClick(this)""><div class = content><div class = numbers>6</div></div></button><button id = button_7 class = ""square num-button"" onclick = ""recordClick(this)""><div class = content><div class = numbers>7</div></div></button><button id = button_8 class = ""square num-button"" onclick = ""recordClick(this)""><div class = content><div class = numbers>8</div></div></button><button id = button_9 class = ""square num-button"" onclick = ""recordClick(this)""><div class = content><div class = numbers>9</div></div></button><button class = clear_button id = ""ClearButton"" onclick = ""clearResponse()"">Clear</button><p><u><b>Current Answer:</b></u></p><div id=echoed_txt style=""font-size: 6rem; color:blue;""><b></b></div></div><br><br><br><br><br><br><br>",enter,fwdspan,response,B2TLBMUjdoeMCe8PBCtCVQcq6wp1,html-keyboard-response,64,392393,0.0-7.0-2.4-0.4-3.4,7.0,"[3,7,1,5,4,2,8]","[3,7,1,5,4,2,8]",1.0,"[3, 4, 5, 6, 7, 8, 9, 9, 8, 8, 9, 10]",,58038ecf9c39b3000179ecdc,11:20:39,15/01/2024
,,,fwdspan,update_span,B2TLBMUjdoeMCe8PBCtCVQcq6wp1,call-function,65,392644,0.0-7.0-2.4-0.4-4.4,,,,,,,58038ecf9c39b3000179ecdc,11:20:39,15/01/2024
2403.0,"<p style=""font-size:3rem"">Trial 6 of 12</p><br><br><br>",0,fwdspan,start_trial,B2TLBMUjdoeMCe8PBCtCVQcq6wp1,html-button-response,66,395047,0.0-7.0-2.5-0.5-0.5,,,,,,,58038ecf9c39b3000179ecdc,11:20:39,15/01/2024
,"<p style=""font-size:14rem;font-weight:400;"">9</p>",,fwdspan,number,B2TLBMUjdoeMCe8PBCtCVQcq6wp1,html-keyboard-response,67,396048,0.0-7.0-2.5-0.5-1.25-0.25,,,,,,,58038ecf9c39b3000179ecdc,11:20:39,15/01/2024
,"<p style=""font-size:14rem;font-weight:400;"">3</p>",,fwdspan,number,B2TLBMUjdoeMCe8PBCtCVQcq6wp1,html-keyboard-response,68,397050,0.0-7.0-2.5-0.5-1.26-0.26,,,,,,,58038ecf9c39b3000179ecdc,11:20:39,15/01/2024
,"<p style=""font-size:14rem;font-weight:400;"">7</p>",,fwdspan,number,B2TLBMUjdoeMCe8PBCtCVQcq6wp1,html-keyboard-response,69,398051,0.0-7.0-2.5-0.5-1.27-0.27,,,,,,,58038ecf9c39b3000179ecdc,11:20:39,15/01/2024
,"<p style=""font-size:14rem;font-weight:400;"">2</p>",,fwdspan,number,B2TLBMUjdoeMCe8PBCtCVQcq6wp1,html-keyboard-response,70,399053,0.0-7.0-2.5-0.5-1.28-0.28,,,,,,,58038ecf9c39b3000179ecdc,11:20:39,15/01/2024
,"<p style=""font-size:14rem;font-weight:400;"">1</p>",,fwdspan,number,B2TLBMUjdoeMCe8PBCtCVQcq6wp1,html-keyboard-response,71,400053,0.0-7.0-2.5-0.5-1.29-0.29,,,,,,,58038ecf9c39b3000179ecdc,11:20:39,15/01/2024
,"<p style=""font-size:14rem;font-weight:400;"">4</p>",,fwdspan,number,B2TLBMUjdoeMCe8PBCtCVQcq6wp1,html-keyboard-response,72,401055,0.0-7.0-2.5-0.5-1.30-0.30,,,,,,,58038ecf9c39b3000179ecdc,11:20:39,15/01/2024
,"<p style=""font-size:14rem;font-weight:400;"">6</p>",,fwdspan,number,B2TLBMUjdoeMCe8PBCtCVQcq6wp1,html-keyboard-response,73,402056,0.0-7.0-2.5-0.5-1.31-0.31,,,,,,,58038ecf9c39b3000179ecdc,11:20:39,15/01/2024
,"<p style=""font-size:14rem;font-weight:400;"">5</p>",,fwdspan,number,B2TLBMUjdoeMCe8PBCtCVQcq6wp1,html-keyboard-response,74,403057,0.0-7.0-2.5-0.5-1.32-0.32,,,,,,,58038ecf9c39b3000179ecdc,11:20:39,15/01/2024
,[],,fwdspan,delay,B2TLBMUjdoeMCe8PBCtCVQcq6wp1,html-keyboard-response,75,403608,0.0-7.0-2.5-0.5-2.5,,,,,,,58038ecf9c39b3000179ecdc,11:20:39,15/01/2024
17289.0,"<div class = numbox><p style=""font-size:2.5rem"">What were the numbers <b>in order</b>?<br>(When you are ready to lock in your answer, press <b>ENTER</b>)</p><button id = button_1 class = ""square num-button"" onclick = ""recordClick(this)""><div class = content><div class = numbers>1</div></div></button><button id = button_2 class = ""square num-button"" onclick = ""recordClick(this)""><div class = content><div class = numbers>2</div></div></button><button id = button_3 class = ""square num-button"" onclick = ""recordClick(this)""><div class = content><div class = numbers>3</div></div></button><button id = button_4 class = ""square num-button"" onclick = ""recordClick(this)""><div class = content><div class = numbers>4</div></div></button><button id = button_5 class = ""square num-button"" onclick = ""recordClick(this)""><div class = content><div class = numbers>5</div></div></button><button id = button_6 class = ""square num-button"" onclick = ""recordClick(this)""><div class = content><div class = numbers>6</div></div></button><button id = button_7 class = ""square num-button"" onclick = ""recordClick(this)""><div class = content><div class = numbers>7</div></div></button><button id = button_8 class = ""square num-button"" onclick = ""recordClick(this)""><div class = content><div class = numbers>8</div></div></button><button id = button_9 class = ""square num-button"" onclick = ""recordClick(this)""><div class = content><div class = numbers>9</div></div></button><button class = clear_button id = ""ClearButton"" onclick = ""clearResponse()"">Clear</button><p><u><b>Current Answer:</b></u></p><div id=echoed_txt style=""font-size: 6rem; color:blue;""><b></b></div></div><br><br><br><br><br><br><br>",enter,fwdspan,response,B2TLBMUjdoeMCe8PBCtCVQcq6wp1,html-keyboard-response,76,420897,0.0-7.0-2.5-0.5-3.5,8.0,"[9,3,7,2,1,4,6,5]","[9,3,7,2,1,4,6,5]",1.0,"[3, 4, 5, 6, 7, 8, 9, 9, 8, 8, 9, 10]",,58038ecf9c39b3000179ecdc,11:20:39,15/01/2024
,,,fwdspan,update_span,B2TLBMUjdoeMCe8PBCtCVQcq6wp1,call-function,77,421150,0.0-7.0-2.5-0.5-4.5,,,,,,,58038ecf9c39b3000179ecdc,11:20:39,15/01/2024
5509.0,"<p style=""font-size:3rem"">Trial 7 of 12</p><br><br><br>",0,fwdspan,start_trial,B2TLBMUjdoeMCe8PBCtCVQcq6wp1,html-button-response,78,426660,0.0-7.0-2.6-0.6-0.6,,,,,,,58038ecf9c39b3000179ecdc,11:20:39,15/01/2024
,"<p style=""font-size:14rem;font-weight:400;"">2</p>",,fwdspan,number,B2TLBMUjdoeMCe8PBCtCVQcq6wp1,html-keyboard-response,79,427693,0.0-7.0-2.6-0.6-1.33-0.33,,,,,,,58038ecf9c39b3000179ecdc,11:20:39,15/01/2024
,"<p style=""font-size:14rem;font-weight:400;"">9</p>",,fwdspan,number,B2TLBMUjdoeMCe8PBCtCVQcq6wp1,html-keyboard-response,80,428694,0.0-7.0-2.6-0.6-1.34-0.34,,,,,,,58038ecf9c39b3000179ecdc,11:20:39,15/01/2024
,"<p style=""font-size:14rem;font-weight:400;"">6</p>",,fwdspan,number,B2TLBMUjdoeMCe8PBCtCVQcq6wp1,html-keyboard-response,81,429695,0.0-7.0-2.6-0.6-1.35-0.35,,,,,,,58038ecf9c39b3000179ecdc,11:20:39,15/01/2024
,"<p style=""font-size:14rem;font-weight:400;"">7</p>",,fwdspan,number,B2TLBMUjdoeMCe8PBCtCVQcq6wp1,html-keyboard-response,82,430696,0.0-7.0-2.6-0.6-1.36-0.36,,,,,,,58038ecf9c39b3000179ecdc,11:20:39,15/01/2024
,"<p style=""font-size:14rem;font-weight:400;"">1</p>",,fwdspan,number,B2TLBMUjdoeMCe8PBCtCVQcq6wp1,html-keyboard-response,83,431730,0.0-7.0-2.6-0.6-1.37-0.37,,,,,,,58038ecf9c39b3000179ecdc,11:20:39,15/01/2024
,"<p style=""font-size:14rem;font-weight:400;"">8</p>",,fwdspan,number,B2TLBMUjdoeMCe8PBCtCVQcq6wp1,html-keyboard-response,84,432755,0.0-7.0-2.6-0.6-1.38-0.38,,,,,,,58038ecf9c39b3000179ecdc,11:20:39,15/01/2024
,"<p style=""font-size:14rem;font-weight:400;"">4</p>",,fwdspan,number,B2TLBMUjdoeMCe8PBCtCVQcq6wp1,html-keyboard-response,85,433756,0.0-7.0-2.6-0.6-1.39-0.39,,,,,,,58038ecf9c39b3000179ecdc,11:20:39,15/01/2024
,"<p style=""font-size:14rem;font-weight:400;"">3</p>",,fwdspan,number,B2TLBMUjdoeMCe8PBCtCVQcq6wp1,html-keyboard-response,86,434757,0.0-7.0-2.6-0.6-1.40-0.40,,,,,,,58038ecf9c39b3000179ecdc,11:20:39,15/01/2024
,"<p style=""font-size:14rem;font-weight:400;"">5</p>",,fwdspan,number,B2TLBMUjdoeMCe8PBCtCVQcq6wp1,html-keyboard-response,87,435758,0.0-7.0-2.6-0.6-1.41-0.41,,,,,,,58038ecf9c39b3000179ecdc,11:20:39,15/01/2024
,[],,fwdspan,delay,B2TLBMUjdoeMCe8PBCtCVQcq6wp1,html-keyboard-response,88,436309,0.0-7.0-2.6-0.6-2.6,,,,,,,58038ecf9c39b3000179ecdc,11:20:39,15/01/2024
11395.0,"<div class = numbox><p style=""font-size:2.5rem"">What were the numbers <b>in order</b>?<br>(When you are ready to lock in your answer, press <b>ENTER</b>)</p><button id = button_1 class = ""square num-button"" onclick = ""recordClick(this)""><div class = content><div class = numbers>1</div></div></button><button id = button_2 class = ""square num-button"" onclick = ""recordClick(this)""><div class = content><div class = numbers>2</div></div></button><button id = button_3 class = ""square num-button"" onclick = ""recordClick(this)""><div class = content><div class = numbers>3</div></div></button><button id = button_4 class = ""square num-button"" onclick = ""recordClick(this)""><div class = content><div class = numbers>4</div></div></button><button id = button_5 class = ""square num-button"" onclick = ""recordClick(this)""><div class = content><div class = numbers>5</div></div></button><button id = button_6 class = ""square num-button"" onclick = ""recordClick(this)""><div class = content><div class = numbers>6</div></div></button><button id = button_7 class = ""square num-button"" onclick = ""recordClick(this)""><div class = content><div class = numbers>7</div></div></button><button id = button_8 class = ""square num-button"" onclick = ""recordClick(this)""><div class = content><div class = numbers>8</div></div></button><button id = button_9 class = ""square num-button"" onclick = ""recordClick(this)""><div class = content><div class = numbers>9</div></div></button><button class = clear_button id = ""ClearButton"" onclick = ""clearResponse()"">Clear</button><p><u><b>Current Answer:</b></u></p><div id=echoed_txt style=""font-size: 6rem; color:blue;""><b></b></div></div><br><br><br><br><br><br><br>",enter,fwdspan,response,B2TLBMUjdoeMCe8PBCtCVQcq6wp1,html-keyboard-response,89,447705,0.0-7.0-2.6-0.6-3.6,9.0,"[2,9,6,7,4,8,4,3,1]","[2,9,6,7,1,8,4,3,5]",0.0,"[3, 4, 5, 6, 7, 8, 9, 9, 8, 8, 9, 10]",,58038ecf9c39b3000179ecdc,11:20:39,15/01/2024
,,,fwdspan,update_span,B2TLBMUjdoeMCe8PBCtCVQcq6wp1,call-function,90,447956,0.0-7.0-2.6-0.6-4.6,,,,,,,58038ecf9c39b3000179ecdc,11:20:39,15/01/2024
6468.0,"<p style=""font-size:3rem"">Trial 8 of 12</p><br><br><br>",0,fwdspan,start_trial,B2TLBMUjdoeMCe8PBCtCVQcq6wp1,html-button-response,91,454426,0.0-7.0-2.7-0.7-0.7,,,,,,,58038ecf9c39b3000179ecdc,11:20:39,15/01/2024
,"<p style=""font-size:14rem;font-weight:400;"">9</p>",,fwdspan,number,B2TLBMUjdoeMCe8PBCtCVQcq6wp1,html-keyboard-response,92,455428,0.0-7.0-2.7-0.7-1.42-0.42,,,,,,,58038ecf9c39b3000179ecdc,11:20:39,15/01/2024
,"<p style=""font-size:14rem;font-weight:400;"">7</p>",,fwdspan,number,B2TLBMUjdoeMCe8PBCtCVQcq6wp1,html-keyboard-response,93,456429,0.0-7.0-2.7-0.7-1.43-0.43,,,,,,,58038ecf9c39b3000179ecdc,11:20:39,15/01/2024
,"<p style=""font-size:14rem;font-weight:400;"">3</p>",,fwdspan,number,B2TLBMUjdoeMCe8PBCtCVQcq6wp1,html-keyboard-response,94,457430,0.0-7.0-2.7-0.7-1.44-0.44,,,,,,,58038ecf9c39b3000179ecdc,11:20:39,15/01/2024
,"<p style=""font-size:14rem;font-weight:400;"">2</p>",,fwdspan,number,B2TLBMUjdoeMCe8PBCtCVQcq6wp1,html-keyboard-response,95,458431,0.0-7.0-2.7-0.7-1.45-0.45,,,,,,,58038ecf9c39b3000179ecdc,11:20:39,15/01/2024
,"<p style=""font-size:14rem;font-weight:400;"">4</p>",,fwdspan,number,B2TLBMUjdoeMCe8PBCtCVQcq6wp1,html-keyboard-response,96,459432,0.0-7.0-2.7-0.7-1.46-0.46,,,,,,,58038ecf9c39b3000179ecdc,11:20:39,15/01/2024
,"<p style=""font-size:14rem;font-weight:400;"">6</p>",,fwdspan,number,B2TLBMUjdoeMCe8PBCtCVQcq6wp1,html-keyboard-response,97,460433,0.0-7.0-2.7-0.7-1.47-0.47,,,,,,,58038ecf9c39b3000179ecdc,11:20:39,15/01/2024
,"<p style=""font-size:14rem;font-weight:400;"">1</p>",,fwdspan,number,B2TLBMUjdoeMCe8PBCtCVQcq6wp1,html-keyboard-response,98,461435,0.0-7.0-2.7-0.7-1.48-0.48,,,,,,,58038ecf9c39b3000179ecdc,11:20:39,15/01/2024
,"<p style=""font-size:14rem;font-weight:400;"">8</p>",,fwdspan,number,B2TLBMUjdoeMCe8PBCtCVQcq6wp1,html-keyboard-response,99,462435,0.0-7.0-2.7-0.7-1.49-0.49,,,,,,,58038ecf9c39b3000179ecdc,11:20:39,15/01/2024
,"<p style=""font-size:14rem;font-weight:400;"">5</p>",,fwdspan,number,B2TLBMUjdoeMCe8PBCtCVQcq6wp1,html-keyboard-response,100,463437,0.0-7.0-2.7-0.7-1.50-0.50,,,,,,,58038ecf9c39b3000179ecdc,11:20:39,15/01/2024
,[],,fwdspan,delay,B2TLBMUjdoeMCe8PBCtCVQcq6wp1,html-keyboard-response,101,463988,0.0-7.0-2.7-0.7-2.7,,,,,,,58038ecf9c39b3000179ecdc,11:20:39,15/01/2024
17765.0,"<div class = numbox><p style=""font-size:2.5rem"">What were the numbers <b>in order</b>?<br>(When you are ready to lock in your answer, press <b>ENTER</b>)</p><button id = button_1 class = ""square num-button"" onclick = ""recordClick(this)""><div class = content><div class = numbers>1</div></div></button><button id = button_2 class = ""square num-button"" onclick = ""recordClick(this)""><div class = content><div class = numbers>2</div></div></button><button id = button_3 class = ""square num-button"" onclick = ""recordClick(this)""><div class = content><div class = numbers>3</div></div></button><button id = button_4 class = ""square num-button"" onclick = ""recordClick(this)""><div class = content><div class = numbers>4</div></div></button><button id = button_5 class = ""square num-button"" onclick = ""recordClick(this)""><div class = content><div class = numbers>5</div></div></button><button id = button_6 class = ""square num-button"" onclick = ""recordClick(this)""><div class = content><div class = numbers>6</div></div></button><button id = button_7 class = ""square num-button"" onclick = ""recordClick(this)""><div class = content><div class = numbers>7</div></div></button><button id = button_8 class = ""square num-button"" onclick = ""recordClick(this)""><div class = content><div class = numbers>8</div></div></button><button id = button_9 class = ""square num-button"" onclick = ""recordClick(this)""><div class = content><div class = numbers>9</div></div></button><button class = clear_button id = ""ClearButton"" onclick = ""clearResponse()"">Clear</button><p><u><b>Current Answer:</b></u></p><div id=echoed_txt style=""font-size: 6rem; color:blue;""><b></b></div></div><br><br><br><br><br><br><br>",enter,fwdspan,response,B2TLBMUjdoeMCe8PBCtCVQcq6wp1,html-keyboard-response,102,481753,0.0-7.0-2.7-0.7-3.7,9.0,"[9,7,3,2,7,6,1,4,5]","[9,7,3,2,4,6,1,8,5]",0.0,"[3, 4, 5, 6, 7, 8, 9, 9, 8, 8, 9, 10]",,58038ecf9c39b3000179ecdc,11:20:39,15/01/2024
,,,fwdspan,update_span,B2TLBMUjdoeMCe8PBCtCVQcq6wp1,call-function,103,482005,0.0-7.0-2.7-0.7-4.7,,,,,,,58038ecf9c39b3000179ecdc,11:20:39,15/01/2024
11217.0,"<p style=""font-size:3rem"">Trial 9 of 12</p><br><br><br>",0,fwdspan,start_trial,B2TLBMUjdoeMCe8PBCtCVQcq6wp1,html-button-response,104,493223,0.0-7.0-2.8-0.8-0.8,,,,,,,58038ecf9c39b3000179ecdc,11:20:39,15/01/2024
,"<p style=""font-size:14rem;font-weight:400;"">5</p>",,fwdspan,number,B2TLBMUjdoeMCe8PBCtCVQcq6wp1,html-keyboard-response,105,494226,0.0-7.0-2.8-0.8-1.51-0.51,,,,,,,58038ecf9c39b3000179ecdc,11:20:39,15/01/2024
,"<p style=""font-size:14rem;font-weight:400;"">3</p>",,fwdspan,number,B2TLBMUjdoeMCe8PBCtCVQcq6wp1,html-keyboard-response,106,495227,0.0-7.0-2.8-0.8-1.52-0.52,,,,,,,58038ecf9c39b3000179ecdc,11:20:39,15/01/2024
,"<p style=""font-size:14rem;font-weight:400;"">9</p>",,fwdspan,number,B2TLBMUjdoeMCe8PBCtCVQcq6wp1,html-keyboard-response,107,496228,0.0-7.0-2.8-0.8-1.53-0.53,,,,,,,58038ecf9c39b3000179ecdc,11:20:39,15/01/2024
,"<p style=""font-size:14rem;font-weight:400;"">2</p>",,fwdspan,number,B2TLBMUjdoeMCe8PBCtCVQcq6wp1,html-keyboard-response,108,497229,0.0-7.0-2.8-0.8-1.54-0.54,,,,,,,58038ecf9c39b3000179ecdc,11:20:39,15/01/2024
,"<p style=""font-size:14rem;font-weight:400;"">1</p>",,fwdspan,number,B2TLBMUjdoeMCe8PBCtCVQcq6wp1,html-keyboard-response,109,498230,0.0-7.0-2.8-0.8-1.55-0.55,,,,,,,58038ecf9c39b3000179ecdc,11:20:39,15/01/2024
,"<p style=""font-size:14rem;font-weight:400;"">8</p>",,fwdspan,number,B2TLBMUjdoeMCe8PBCtCVQcq6wp1,html-keyboard-response,110,499232,0.0-7.0-2.8-0.8-1.56-0.56,,,,,,,58038ecf9c39b3000179ecdc,11:20:39,15/01/2024
,"<p style=""font-size:14rem;font-weight:400;"">4</p>",,fwdspan,number,B2TLBMUjdoeMCe8PBCtCVQcq6wp1,html-keyboard-response,111,500233,0.0-7.0-2.8-0.8-1.57-0.57,,,,,,,58038ecf9c39b3000179ecdc,11:20:39,15/01/2024
,"<p style=""font-size:14rem;font-weight:400;"">7</p>",,fwdspan,number,B2TLBMUjdoeMCe8PBCtCVQcq6wp1,html-keyboard-response,112,501234,0.0-7.0-2.8-0.8-1.58-0.58,,,,,,,58038ecf9c39b3000179ecdc,11:20:39,15/01/2024
,[],,fwdspan,delay,B2TLBMUjdoeMCe8PBCtCVQcq6wp1,html-keyboard-response,113,501785,0.0-7.0-2.8-0.8-2.8,,,,,,,58038ecf9c39b3000179ecdc,11:20:39,15/01/2024
7696.0,"<div class = numbox><p style=""font-size:2.5rem"">What were the numbers <b>in order</b>?<br>(When you are ready to lock in your answer, press <b>ENTER</b>)</p><button id = button_1 class = ""square num-button"" onclick = ""recordClick(this)""><div class = content><div class = numbers>1</div></div></button><button id = button_2 class = ""square num-button"" onclick = ""recordClick(this)""><div class = content><div class = numbers>2</div></div></button><button id = button_3 class = ""square num-button"" onclick = ""recordClick(this)""><div class = content><div class = numbers>3</div></div></button><button id = button_4 class = ""square num-button"" onclick = ""recordClick(this)""><div class = content><div class = numbers>4</div></div></button><button id = button_5 class = ""square num-button"" onclick = ""recordClick(this)""><div class = content><div class = numbers>5</div></div></button><button id = button_6 class = ""square num-button"" onclick = ""recordClick(this)""><div class = content><div class = numbers>6</div></div></button><button id = button_7 class = ""square num-button"" onclick = ""recordClick(this)""><div class = content><div class = numbers>7</div></div></button><button id = button_8 class = ""square num-button"" onclick = ""recordClick(this)""><div class = content><div class = numbers>8</div></div></button><button id = button_9 class = ""square num-button"" onclick = ""recordClick(this)""><div class = content><div class = numbers>9</div></div></button><button class = clear_button id = ""ClearButton"" onclick = ""clearResponse()"">Clear</button><p><u><b>Current Answer:</b></u></p><div id=echoed_txt style=""font-size: 6rem; color:blue;""><b></b></div></div><br><br><br><br><br><br><br>",enter,fwdspan,response,B2TLBMUjdoeMCe8PBCtCVQcq6wp1,html-keyboard-response,114,509480,0.0-7.0-2.8-0.8-3.8,8.0,"[5,1,8,2,1,8,7,4]","[5,3,9,2,1,8,4,7]",0.0,"[3, 4, 5, 6, 7, 8, 9, 9, 8, 8, 9, 10]",,58038ecf9c39b3000179ecdc,11:20:39,15/01/2024
,,,fwdspan,update_span,B2TLBMUjdoeMCe8PBCtCVQcq6wp1,call-function,115,509731,0.0-7.0-2.8-0.8-4.8,,,,,,,58038ecf9c39b3000179ecdc,11:20:39,15/01/2024
2077.0,"<p style=""font-size:3rem"">Trial 10 of 12</p><br><br><br>",0,fwdspan,start_trial,B2TLBMUjdoeMCe8PBCtCVQcq6wp1,html-button-response,116,511809,0.0-7.0-2.9-0.9-0.9,,,,,,,58038ecf9c39b3000179ecdc,11:20:39,15/01/2024
,"<p style=""font-size:14rem;font-weight:400;"">5</p>",,fwdspan,number,B2TLBMUjdoeMCe8PBCtCVQcq6wp1,html-keyboard-response,117,512842,0.0-7.0-2.9-0.9-1.59-0.59,,,,,,,58038ecf9c39b3000179ecdc,11:20:39,15/01/2024
,"<p style=""font-size:14rem;font-weight:400;"">4</p>",,fwdspan,number,B2TLBMUjdoeMCe8PBCtCVQcq6wp1,html-keyboard-response,118,513844,0.0-7.0-2.9-0.9-1.60-0.60,,,,,,,58038ecf9c39b3000179ecdc,11:20:39,15/01/2024
,"<p style=""font-size:14rem;font-weight:400;"">3</p>",,fwdspan,number,B2TLBMUjdoeMCe8PBCtCVQcq6wp1,html-keyboard-response,119,514844,0.0-7.0-2.9-0.9-1.61-0.61,,,,,,,58038ecf9c39b3000179ecdc,11:20:39,15/01/2024
,"<p style=""font-size:14rem;font-weight:400;"">1</p>",,fwdspan,number,B2TLBMUjdoeMCe8PBCtCVQcq6wp1,html-keyboard-response,120,515845,0.0-7.0-2.9-0.9-1.62-0.62,,,,,,,58038ecf9c39b3000179ecdc,11:20:39,15/01/2024
,"<p style=""font-size:14rem;font-weight:400;"">8</p>",,fwdspan,number,B2TLBMUjdoeMCe8PBCtCVQcq6wp1,html-keyboard-response,121,516847,0.0-7.0-2.9-0.9-1.63-0.63,,,,,,,58038ecf9c39b3000179ecdc,11:20:39,15/01/2024
,"<p style=""font-size:14rem;font-weight:400;"">7</p>",,fwdspan,number,B2TLBMUjdoeMCe8PBCtCVQcq6wp1,html-keyboard-response,122,517847,0.0-7.0-2.9-0.9-1.64-0.64,,,,,,,58038ecf9c39b3000179ecdc,11:20:39,15/01/2024
,"<p style=""font-size:14rem;font-weight:400;"">9</p>",,fwdspan,number,B2TLBMUjdoeMCe8PBCtCVQcq6wp1,html-keyboard-response,123,518849,0.0-7.0-2.9-0.9-1.65-0.65,,,,,,,58038ecf9c39b3000179ecdc,11:20:39,15/01/2024
,"<p style=""font-size:14rem;font-weight:400;"">2</p>",,fwdspan,number,B2TLBMUjdoeMCe8PBCtCVQcq6wp1,html-keyboard-response,124,519850,0.0-7.0-2.9-0.9-1.66-0.66,,,,,,,58038ecf9c39b3000179ecdc,11:20:39,15/01/2024
,[],,fwdspan,delay,B2TLBMUjdoeMCe8PBCtCVQcq6wp1,html-keyboard-response,125,520402,0.0-7.0-2.9-0.9-2.9,,,,,,,58038ecf9c39b3000179ecdc,11:20:39,15/01/2024
10269.0,"<div class = numbox><p style=""font-size:2.5rem"">What were the numbers <b>in order</b>?<br>(When you are ready to lock in your answer, press <b>ENTER</b>)</p><button id = button_1 class = ""square num-button"" onclick = ""recordClick(this)""><div class = content><div class = numbers>1</div></div></button><button id = button_2 class = ""square num-button"" onclick = ""recordClick(this)""><div class = content><div class = numbers>2</div></div></button><button id = button_3 class = ""square num-button"" onclick = ""recordClick(this)""><div class = content><div class = numbers>3</div></div></button><button id = button_4 class = ""square num-button"" onclick = ""recordClick(this)""><div class = content><div class = numbers>4</div></div></button><button id = button_5 class = ""square num-button"" onclick = ""recordClick(this)""><div class = content><div class = numbers>5</div></div></button><button id = button_6 class = ""square num-button"" onclick = ""recordClick(this)""><div class = content><div class = numbers>6</div></div></button><button id = button_7 class = ""square num-button"" onclick = ""recordClick(this)""><div class = content><div class = numbers>7</div></div></button><button id = button_8 class = ""square num-button"" onclick = ""recordClick(this)""><div class = content><div class = numbers>8</div></div></button><button id = button_9 class = ""square num-button"" onclick = ""recordClick(this)""><div class = content><div class = numbers>9</div></div></button><button class = clear_button id = ""ClearButton"" onclick = ""clearResponse()"">Clear</button><p><u><b>Current Answer:</b></u></p><div id=echoed_txt style=""font-size: 6rem; color:blue;""><b></b></div></div><br><br><br><br><br><br><br>",enter,fwdspan,response,B2TLBMUjdoeMCe8PBCtCVQcq6wp1,html-keyboard-response,126,530672,0.0-7.0-2.9-0.9-3.9,8.0,"[5,4,3,1,8,7,9,2]","[5,4,3,1,8,7,9,2]",1.0,"[3, 4, 5, 6, 7, 8, 9, 9, 8, 8, 9, 10]",,58038ecf9c39b3000179ecdc,11:20:39,15/01/2024
,,,fwdspan,update_span,B2TLBMUjdoeMCe8PBCtCVQcq6wp1,call-function,127,530924,0.0-7.0-2.9-0.9-4.9,,,,,,,58038ecf9c39b3000179ecdc,11:20:39,15/01/2024
12940.0,"<p style=""font-size:3rem"">Trial 11 of 12</p><br><br><br>",0,fwdspan,start_trial,B2TLBMUjdoeMCe8PBCtCVQcq6wp1,html-button-response,128,543866,0.0-7.0-2.10-0.10-0.10,,,,,,,58038ecf9c39b3000179ecdc,11:20:39,15/01/2024
,"<p style=""font-size:14rem;font-weight:400;"">1</p>",,fwdspan,number,B2TLBMUjdoeMCe8PBCtCVQcq6wp1,html-keyboard-response,129,544869,0.0-7.0-2.10-0.10-1.67-0.67,,,,,,,58038ecf9c39b3000179ecdc,11:20:39,15/01/2024
,"<p style=""font-size:14rem;font-weight:400;"">2</p>",,fwdspan,number,B2TLBMUjdoeMCe8PBCtCVQcq6wp1,html-keyboard-response,130,545870,0.0-7.0-2.10-0.10-1.68-0.68,,,,,,,58038ecf9c39b3000179ecdc,11:20:39,15/01/2024
,"<p style=""font-size:14rem;font-weight:400;"">9</p>",,fwdspan,number,B2TLBMUjdoeMCe8PBCtCVQcq6wp1,html-keyboard-response,131,546871,0.0-7.0-2.10-0.10-1.69-0.69,,,,,,,58038ecf9c39b3000179ecdc,11:20:39,15/01/2024
,"<p style=""font-size:14rem;font-weight:400;"">5</p>",,fwdspan,number,B2TLBMUjdoeMCe8PBCtCVQcq6wp1,html-keyboard-response,132,547872,0.0-7.0-2.10-0.10-1.70-0.70,,,,,,,58038ecf9c39b3000179ecdc,11:20:39,15/01/2024
,"<p style=""font-size:14rem;font-weight:400;"">4</p>",,fwdspan,number,B2TLBMUjdoeMCe8PBCtCVQcq6wp1,html-keyboard-response,133,548874,0.0-7.0-2.10-0.10-1.71-0.71,,,,,,,58038ecf9c39b3000179ecdc,11:20:39,15/01/2024
,"<p style=""font-size:14rem;font-weight:400;"">8</p>",,fwdspan,number,B2TLBMUjdoeMCe8PBCtCVQcq6wp1,html-keyboard-response,134,549874,0.0-7.0-2.10-0.10-1.72-0.72,,,,,,,58038ecf9c39b3000179ecdc,11:20:39,15/01/2024
,"<p style=""font-size:14rem;font-weight:400;"">7</p>",,fwdspan,number,B2TLBMUjdoeMCe8PBCtCVQcq6wp1,html-keyboard-response,135,550876,0.0-7.0-2.10-0.10-1.73-0.73,,,,,,,58038ecf9c39b3000179ecdc,11:20:39,15/01/2024
,"<p style=""font-size:14rem;font-weight:400;"">6</p>",,fwdspan,number,B2TLBMUjdoeMCe8PBCtCVQcq6wp1,html-keyboard-response,136,551876,0.0-7.0-2.10-0.10-1.74-0.74,,,,,,,58038ecf9c39b3000179ecdc,11:20:39,15/01/2024
,"<p style=""font-size:14rem;font-weight:400;"">3</p>",,fwdspan,number,B2TLBMUjdoeMCe8PBCtCVQcq6wp1,html-keyboard-response,137,552877,0.0-7.0-2.10-0.10-1.75-0.75,,,,,,,58038ecf9c39b3000179ecdc,11:20:39,15/01/2024
,[],,fwdspan,delay,B2TLBMUjdoeMCe8PBCtCVQcq6wp1,html-keyboard-response,138,553428,0.0-7.0-2.10-0.10-2.10,,,,,,,58038ecf9c39b3000179ecdc,11:20:39,15/01/2024
8395.0,"<div class = numbox><p style=""font-size:2.5rem"">What were the numbers <b>in order</b>?<br>(When you are ready to lock in your answer, press <b>ENTER</b>)</p><button id = button_1 class = ""square num-button"" onclick = ""recordClick(this)""><div class = content><div class = numbers>1</div></div></button><button id = button_2 class = ""square num-button"" onclick = ""recordClick(this)""><div class = content><div class = numbers>2</div></div></button><button id = button_3 class = ""square num-button"" onclick = ""recordClick(this)""><div class = content><div class = numbers>3</div></div></button><button id = button_4 class = ""square num-button"" onclick = ""recordClick(this)""><div class = content><div class = numbers>4</div></div></button><button id = button_5 class = ""square num-button"" onclick = ""recordClick(this)""><div class = content><div class = numbers>5</div></div></button><button id = button_6 class = ""square num-button"" onclick = ""recordClick(this)""><div class = content><div class = numbers>6</div></div></button><button id = button_7 class = ""square num-button"" onclick = ""recordClick(this)""><div class = content><div class = numbers>7</div></div></button><button id = button_8 class = ""square num-button"" onclick = ""recordClick(this)""><div class = content><div class = numbers>8</div></div></button><button id = button_9 class = ""square num-button"" onclick = ""recordClick(this)""><div class = content><div class = numbers>9</div></div></button><button class = clear_button id = ""ClearButton"" onclick = ""clearResponse()"">Clear</button><p><u><b>Current Answer:</b></u></p><div id=echoed_txt style=""font-size: 6rem; color:blue;""><b></b></div></div><br><br><br><br><br><br><br>",enter,fwdspan,response,B2TLBMUjdoeMCe8PBCtCVQcq6wp1,html-keyboard-response,139,561824,0.0-7.0-2.10-0.10-3.10,9.0,"[1,2,9,5,4,8,7,6,3]","[1,2,9,5,4,8,7,6,3]",1.0,"[3, 4, 5, 6, 7, 8, 9, 9, 8, 8, 9, 10]",,58038ecf9c39b3000179ecdc,11:20:39,15/01/2024
,,,fwdspan,update_span,B2TLBMUjdoeMCe8PBCtCVQcq6wp1,call-function,140,562075,0.0-7.0-2.10-0.10-4.10,,,,,,,58038ecf9c39b3000179ecdc,11:20:39,15/01/2024
2165.0,"<p style=""font-size:3rem"">Trial 12 of 12</p><br><br><br>",0,fwdspan,start_trial,B2TLBMUjdoeMCe8PBCtCVQcq6wp1,html-button-response,141,564242,0.0-7.0-2.11-0.11-0.11,,,,,,,58038ecf9c39b3000179ecdc,11:20:39,15/01/2024
,"<p style=""font-size:14rem;font-weight:400;"">5</p>",,fwdspan,number,B2TLBMUjdoeMCe8PBCtCVQcq6wp1,html-keyboard-response,142,565244,0.0-7.0-2.11-0.11-1.76-0.76,,,,,,,58038ecf9c39b3000179ecdc,11:20:39,15/01/2024
,"<p style=""font-size:14rem;font-weight:400;"">9</p>",,fwdspan,number,B2TLBMUjdoeMCe8PBCtCVQcq6wp1,html-keyboard-response,143,566245,0.0-7.0-2.11-0.11-1.77-0.77,,,,,,,58038ecf9c39b3000179ecdc,11:20:39,15/01/2024
,"<p style=""font-size:14rem;font-weight:400;"">6</p>",,fwdspan,number,B2TLBMUjdoeMCe8PBCtCVQcq6wp1,html-keyboard-response,144,567246,0.0-7.0-2.11-0.11-1.78-0.78,,,,,,,58038ecf9c39b3000179ecdc,11:20:39,15/01/2024
,"<p style=""font-size:14rem;font-weight:400;"">4</p>",,fwdspan,number,B2TLBMUjdoeMCe8PBCtCVQcq6wp1,html-keyboard-response,145,568246,0.0-7.0-2.11-0.11-1.79-0.79,,,,,,,58038ecf9c39b3000179ecdc,11:20:39,15/01/2024
,"<p style=""font-size:14rem;font-weight:400;"">2</p>",,fwdspan,number,B2TLBMUjdoeMCe8PBCtCVQcq6wp1,html-keyboard-response,146,569248,0.0-7.0-2.11-0.11-1.80-0.80,,,,,,,58038ecf9c39b3000179ecdc,11:20:39,15/01/2024
,"<p style=""font-size:14rem;font-weight:400;"">1</p>",,fwdspan,number,B2TLBMUjdoeMCe8PBCtCVQcq6wp1,html-keyboard-response,147,570249,0.0-7.0-2.11-0.11-1.81-0.81,,,,,,,58038ecf9c39b3000179ecdc,11:20:39,15/01/2024
,"<p style=""font-size:14rem;font-weight:400;"">8</p>",,fwdspan,number,B2TLBMUjdoeMCe8PBCtCVQcq6wp1,html-keyboard-response,148,571250,0.0-7.0-2.11-0.11-1.82-0.82,,,,,,,58038ecf9c39b3000179ecdc,11:20:39,15/01/2024
,"<p style=""font-size:14rem;font-weight:400;"">3</p>",,fwdspan,number,B2TLBMUjdoeMCe8PBCtCVQcq6wp1,html-keyboard-response,149,572252,0.0-7.0-2.11-0.11-1.83-0.83,,,,,,,58038ecf9c39b3000179ecdc,11:20:39,15/01/2024
,"<p style=""font-size:14rem;font-weight:400;"">7</p>",,fwdspan,number,B2TLBMUjdoeMCe8PBCtCVQcq6wp1,html-keyboard-response,150,573252,0.0-7.0-2.11-0.11-1.84-0.84,,,,,,,58038ecf9c39b3000179ecdc,11:20:39,15/01/2024
,"<p style=""font-size:14rem;font-weight:400;"">6</p>",,fwdspan,number,B2TLBMUjdoeMCe8PBCtCVQcq6wp1,html-keyboard-response,151,574254,0.0-7.0-2.11-0.11-1.85-0.85,,,,,,,58038ecf9c39b3000179ecdc,11:20:39,15/01/2024
,[],,fwdspan,delay,B2TLBMUjdoeMCe8PBCtCVQcq6wp1,html-keyboard-response,152,574804,0.0-7.0-2.11-0.11-2.11,,,,,,,58038ecf9c39b3000179ecdc,11:20:39,15/01/2024
28587.0,"<div class = numbox><p style=""font-size:2.5rem"">What were the numbers <b>in order</b>?<br>(When you are ready to lock in your answer, press <b>ENTER</b>)</p><button id = button_1 class = ""square num-button"" onclick = ""recordClick(this)""><div class = content><div class = numbers>1</div></div></button><button id = button_2 class = ""square num-button"" onclick = ""recordClick(this)""><div class = content><div class = numbers>2</div></div></button><button id = button_3 class = ""square num-button"" onclick = ""recordClick(this)""><div class = content><div class = numbers>3</div></div></button><button id = button_4 class = ""square num-button"" onclick = ""recordClick(this)""><div class = content><div class = numbers>4</div></div></button><button id = button_5 class = ""square num-button"" onclick = ""recordClick(this)""><div class = content><div class = numbers>5</div></div></button><button id = button_6 class = ""square num-button"" onclick = ""recordClick(this)""><div class = content><div class = numbers>6</div></div></button><button id = button_7 class = ""square num-button"" onclick = ""recordClick(this)""><div class = content><div class = numbers>7</div></div></button><button id = button_8 class = ""square num-button"" onclick = ""recordClick(this)""><div class = content><div class = numbers>8</div></div></button><button id = button_9 class = ""square num-button"" onclick = ""recordClick(this)""><div class = content><div class = numbers>9</div></div></button><button class = clear_button id = ""ClearButton"" onclick = ""clearResponse()"">Clear</button><p><u><b>Current Answer:</b></u></p><div id=echoed_txt style=""font-size: 6rem; color:blue;""><b></b></div></div><br><br><br><br><br><br><br>",enter,fwdspan,response,B2TLBMUjdoeMCe8PBCtCVQcq6wp1,html-keyboard-response,153,603391,0.0-7.0-2.11-0.11-3.11,10.0,"[5,9,6,4,2,1,8,4,1,7]","[5,9,6,4,2,1,8,3,7,6]",0.0,"[3, 4, 5, 6, 7, 8, 9, 9, 8, 8, 9, 10]",,58038ecf9c39b3000179ecdc,11:20:39,15/01/2024
,,,fwdspan,update_span,B2TLBMUjdoeMCe8PBCtCVQcq6wp1,call-function,154,603644,0.0-7.0-2.11-0.11-4.11,,,,,,,58038ecf9c39b3000179ecdc,11:20:39,15/01/2024
18919.0,,{'Q0': 'Too long at the end'},fwdspan,survey,B2TLBMUjdoeMCe8PBCtCVQcq6wp1,lmdlab-survey-text,155,623314,0.0-7.0-3.0,,,,,,B2TLBMUjdoeMCe8PBCtCVQcq6wp1,58038ecf9c39b3000179ecdc,11:20:39,15/01/2024
1144.0,<p><p style='font-size: 3rem'>Great work!<br><br>This completes the digit span task.</p><br><br><br>,0,fwdspan,finish,B2TLBMUjdoeMCe8PBCtCVQcq6wp1,html-button-response,156,624460,0.0-7.0-4.0,,,,,,,58038ecf9c39b3000179ecdc,11:20:39,15/01/2024
