rt,stimulus,response,exp_name,exp_stage,subjectID,trial_type,trial_index,time_elapsed,internal_node_id,span,answer,correct,correct_full,span_history,databaseID,prolificID,start_time,date
2882.0,"<p style=""font-size:4rem""><br><br>In the next part today, we have a completely different short task.<br><br><br>This part involves keeping numbers in you mind. Participation takes around 5 minutes.<br><br><br></p>",0,fwdspan,instruct,KqplUTYUXfM7senoGiAWctAc1hg2,html-button-response,19,575034,0.0-7.0-0.0,,,,,,,5efb14b20602b4024585eec6,11:26:45,15/01/2024
18660.599999997765,"<p style=""font-size:5rem"">Welcome to the <b>digit span task</b>!<br><br></p><p style=""font-size:3.4rem""><br>On each trial, you will see a sequence of digits, followed by a delay.</p><p style=""font-size:3.4rem""><br>Then you will be asked to type them back in the same order in which they were seen.</p><p style=""font-size:3.4rem""><br><br><br>For example, if you saw the digits <b style=""color:blue;"">1</b>, <b style=""color:blue;"">2</b>, <b style=""color:blue;"">3</b>, you would respond with <b style=""color:blue;"">1</b>, <b style=""color:blue;"">2</b>, <b style=""color:blue;"">3</b></p><p style=""font-size:3.4rem""><br><br><br>To ensure the best measure of true performance for our study,<br><br>it is very important that you do not use any memory aid (e.g., pen and paper).<br><br>Please do the task solely in your head.</p><p style=""font-size:3.4rem""><br><br><br>There will be 12 total trials. Participation takes around 5 minutes.</p><br><br><br>",0,fwdspan,instruct,KqplUTYUXfM7senoGiAWctAc1hg2,html-button-response,20,593696,0.0-7.0-1.0,,,,,,,5efb14b20602b4024585eec6,11:26:45,15/01/2024
1513.0999999977648,"<p style=""font-size:3rem"">Trial 1 of 12</p><br><br><br>",0,fwdspan,start_trial,KqplUTYUXfM7senoGiAWctAc1hg2,html-button-response,21,595211,0.0-7.0-2.0-0.0-0.0,,,,,,,5efb14b20602b4024585eec6,11:26:45,15/01/2024
,"<p style=""font-size:14rem;font-weight:400;"">2</p>",,fwdspan,number,KqplUTYUXfM7senoGiAWctAc1hg2,html-keyboard-response,22,596236,0.0-7.0-2.0-0.0-1.0-0.0,,,,,,,5efb14b20602b4024585eec6,11:26:45,15/01/2024
,"<p style=""font-size:14rem;font-weight:400;"">6</p>",,fwdspan,number,KqplUTYUXfM7senoGiAWctAc1hg2,html-keyboard-response,23,597243,0.0-7.0-2.0-0.0-1.1-0.1,,,,,,,5efb14b20602b4024585eec6,11:26:45,15/01/2024
,"<p style=""font-size:14rem;font-weight:400;"">7</p>",,fwdspan,number,KqplUTYUXfM7senoGiAWctAc1hg2,html-keyboard-response,24,598259,0.0-7.0-2.0-0.0-1.2-0.2,,,,,,,5efb14b20602b4024585eec6,11:26:45,15/01/2024
,[],,fwdspan,delay,KqplUTYUXfM7senoGiAWctAc1hg2,html-keyboard-response,25,598834,0.0-7.0-2.0-0.0-2.0,,,,,,,5efb14b20602b4024585eec6,11:26:45,15/01/2024
7146.0,"<div class = numbox><p style=""font-size:2.5rem"">What were the numbers <b>in order</b>?<br>(When you are ready to lock in your answer, press <b>ENTER</b>)</p><button id = button_1 class = ""square num-button"" onclick = ""recordClick(this)""><div class = content><div class = numbers>1</div></div></button><button id = button_2 class = ""square num-button"" onclick = ""recordClick(this)""><div class = content><div class = numbers>2</div></div></button><button id = button_3 class = ""square num-button"" onclick = ""recordClick(this)""><div class = content><div class = numbers>3</div></div></button><button id = button_4 class = ""square num-button"" onclick = ""recordClick(this)""><div class = content><div class = numbers>4</div></div></button><button id = button_5 class = ""square num-button"" onclick = ""recordClick(this)""><div class = content><div class = numbers>5</div></div></button><button id = button_6 class = ""square num-button"" onclick = ""recordClick(this)""><div class = content><div class = numbers>6</div></div></button><button id = button_7 class = ""square num-button"" onclick = ""recordClick(this)""><div class = content><div class = numbers>7</div></div></button><button id = button_8 class = ""square num-button"" onclick = ""recordClick(this)""><div class = content><div class = numbers>8</div></div></button><button id = button_9 class = ""square num-button"" onclick = ""recordClick(this)""><div class = content><div class = numbers>9</div></div></button><button class = clear_button id = ""ClearButton"" onclick = ""clearResponse()"">Clear</button><p><u><b>Current Answer:</b></u></p><div id=echoed_txt style=""font-size: 6rem; color:blue;""><b></b></div></div><br><br><br><br><br><br><br>",enter,fwdspan,response,KqplUTYUXfM7senoGiAWctAc1hg2,html-keyboard-response,26,605981,0.0-7.0-2.0-0.0-3.0,3.0,"[2,6,7]","[2,6,7]",1.0,"[3, 4, 5, 6, 6, 7, 8, 9, 10, 10, 9, 9]",,5efb14b20602b4024585eec6,11:26:45,15/01/2024
,,,fwdspan,update_span,KqplUTYUXfM7senoGiAWctAc1hg2,call-function,27,606239,0.0-7.0-2.0-0.0-4.0,,,,,,,5efb14b20602b4024585eec6,11:26:45,15/01/2024
1351.0,"<p style=""font-size:3rem"">Trial 2 of 12</p><br><br><br>",0,fwdspan,start_trial,KqplUTYUXfM7senoGiAWctAc1hg2,html-button-response,28,607591,0.0-7.0-2.1-0.1-0.1,,,,,,,5efb14b20602b4024585eec6,11:26:45,15/01/2024
,"<p style=""font-size:14rem;font-weight:400;"">2</p>",,fwdspan,number,KqplUTYUXfM7senoGiAWctAc1hg2,html-keyboard-response,29,608615,0.0-7.0-2.1-0.1-1.3-0.3,,,,,,,5efb14b20602b4024585eec6,11:26:45,15/01/2024
,"<p style=""font-size:14rem;font-weight:400;"">8</p>",,fwdspan,number,KqplUTYUXfM7senoGiAWctAc1hg2,html-keyboard-response,30,609637,0.0-7.0-2.1-0.1-1.4-0.4,,,,,,,5efb14b20602b4024585eec6,11:26:45,15/01/2024
,"<p style=""font-size:14rem;font-weight:400;"">5</p>",,fwdspan,number,KqplUTYUXfM7senoGiAWctAc1hg2,html-keyboard-response,31,610653,0.0-7.0-2.1-0.1-1.5-0.5,,,,,,,5efb14b20602b4024585eec6,11:26:45,15/01/2024
,"<p style=""font-size:14rem;font-weight:400;"">4</p>",,fwdspan,number,KqplUTYUXfM7senoGiAWctAc1hg2,html-keyboard-response,32,611670,0.0-7.0-2.1-0.1-1.6-0.6,,,,,,,5efb14b20602b4024585eec6,11:26:45,15/01/2024
,[],,fwdspan,delay,KqplUTYUXfM7senoGiAWctAc1hg2,html-keyboard-response,33,612229,0.0-7.0-2.1-0.1-2.1,,,,,,,5efb14b20602b4024585eec6,11:26:45,15/01/2024
5292.400000002235,"<div class = numbox><p style=""font-size:2.5rem"">What were the numbers <b>in order</b>?<br>(When you are ready to lock in your answer, press <b>ENTER</b>)</p><button id = button_1 class = ""square num-button"" onclick = ""recordClick(this)""><div class = content><div class = numbers>1</div></div></button><button id = button_2 class = ""square num-button"" onclick = ""recordClick(this)""><div class = content><div class = numbers>2</div></div></button><button id = button_3 class = ""square num-button"" onclick = ""recordClick(this)""><div class = content><div class = numbers>3</div></div></button><button id = button_4 class = ""square num-button"" onclick = ""recordClick(this)""><div class = content><div class = numbers>4</div></div></button><button id = button_5 class = ""square num-button"" onclick = ""recordClick(this)""><div class = content><div class = numbers>5</div></div></button><button id = button_6 class = ""square num-button"" onclick = ""recordClick(this)""><div class = content><div class = numbers>6</div></div></button><button id = button_7 class = ""square num-button"" onclick = ""recordClick(this)""><div class = content><div class = numbers>7</div></div></button><button id = button_8 class = ""square num-button"" onclick = ""recordClick(this)""><div class = content><div class = numbers>8</div></div></button><button id = button_9 class = ""square num-button"" onclick = ""recordClick(this)""><div class = content><div class = numbers>9</div></div></button><button class = clear_button id = ""ClearButton"" onclick = ""clearResponse()"">Clear</button><p><u><b>Current Answer:</b></u></p><div id=echoed_txt style=""font-size: 6rem; color:blue;""><b></b></div></div><br><br><br><br><br><br><br>",enter,fwdspan,response,KqplUTYUXfM7senoGiAWctAc1hg2,html-keyboard-response,34,617523,0.0-7.0-2.1-0.1-3.1,4.0,"[2,8,5,4]","[2,8,5,4]",1.0,"[3, 4, 5, 6, 6, 7, 8, 9, 10, 10, 9, 9]",,5efb14b20602b4024585eec6,11:26:45,15/01/2024
,,,fwdspan,update_span,KqplUTYUXfM7senoGiAWctAc1hg2,call-function,35,617785,0.0-7.0-2.1-0.1-4.1,,,,,,,5efb14b20602b4024585eec6,11:26:45,15/01/2024
1401.300000000745,"<p style=""font-size:3rem"">Trial 3 of 12</p><br><br><br>",0,fwdspan,start_trial,KqplUTYUXfM7senoGiAWctAc1hg2,html-button-response,36,619187,0.0-7.0-2.2-0.2-0.2,,,,,,,5efb14b20602b4024585eec6,11:26:45,15/01/2024
,"<p style=""font-size:14rem;font-weight:400;"">8</p>",,fwdspan,number,KqplUTYUXfM7senoGiAWctAc1hg2,html-keyboard-response,37,620201,0.0-7.0-2.2-0.2-1.7-0.7,,,,,,,5efb14b20602b4024585eec6,11:26:45,15/01/2024
,"<p style=""font-size:14rem;font-weight:400;"">2</p>",,fwdspan,number,KqplUTYUXfM7senoGiAWctAc1hg2,html-keyboard-response,38,621217,0.0-7.0-2.2-0.2-1.8-0.8,,,,,,,5efb14b20602b4024585eec6,11:26:45,15/01/2024
,"<p style=""font-size:14rem;font-weight:400;"">1</p>",,fwdspan,number,KqplUTYUXfM7senoGiAWctAc1hg2,html-keyboard-response,39,622234,0.0-7.0-2.2-0.2-1.9-0.9,,,,,,,5efb14b20602b4024585eec6,11:26:45,15/01/2024
,"<p style=""font-size:14rem;font-weight:400;"">5</p>",,fwdspan,number,KqplUTYUXfM7senoGiAWctAc1hg2,html-keyboard-response,40,623252,0.0-7.0-2.2-0.2-1.10-0.10,,,,,,,5efb14b20602b4024585eec6,11:26:45,15/01/2024
,"<p style=""font-size:14rem;font-weight:400;"">4</p>",,fwdspan,number,KqplUTYUXfM7senoGiAWctAc1hg2,html-keyboard-response,41,624282,0.0-7.0-2.2-0.2-1.11-0.11,,,,,,,5efb14b20602b4024585eec6,11:26:45,15/01/2024
,[],,fwdspan,delay,KqplUTYUXfM7senoGiAWctAc1hg2,html-keyboard-response,42,624842,0.0-7.0-2.2-0.2-2.2,,,,,,,5efb14b20602b4024585eec6,11:26:45,15/01/2024
5626.199999999255,"<div class = numbox><p style=""font-size:2.5rem"">What were the numbers <b>in order</b>?<br>(When you are ready to lock in your answer, press <b>ENTER</b>)</p><button id = button_1 class = ""square num-button"" onclick = ""recordClick(this)""><div class = content><div class = numbers>1</div></div></button><button id = button_2 class = ""square num-button"" onclick = ""recordClick(this)""><div class = content><div class = numbers>2</div></div></button><button id = button_3 class = ""square num-button"" onclick = ""recordClick(this)""><div class = content><div class = numbers>3</div></div></button><button id = button_4 class = ""square num-button"" onclick = ""recordClick(this)""><div class = content><div class = numbers>4</div></div></button><button id = button_5 class = ""square num-button"" onclick = ""recordClick(this)""><div class = content><div class = numbers>5</div></div></button><button id = button_6 class = ""square num-button"" onclick = ""recordClick(this)""><div class = content><div class = numbers>6</div></div></button><button id = button_7 class = ""square num-button"" onclick = ""recordClick(this)""><div class = content><div class = numbers>7</div></div></button><button id = button_8 class = ""square num-button"" onclick = ""recordClick(this)""><div class = content><div class = numbers>8</div></div></button><button id = button_9 class = ""square num-button"" onclick = ""recordClick(this)""><div class = content><div class = numbers>9</div></div></button><button class = clear_button id = ""ClearButton"" onclick = ""clearResponse()"">Clear</button><p><u><b>Current Answer:</b></u></p><div id=echoed_txt style=""font-size: 6rem; color:blue;""><b></b></div></div><br><br><br><br><br><br><br>",enter,fwdspan,response,KqplUTYUXfM7senoGiAWctAc1hg2,html-keyboard-response,43,630470,0.0-7.0-2.2-0.2-3.2,5.0,"[8,2,1,5,4]","[8,2,1,5,4]",1.0,"[3, 4, 5, 6, 6, 7, 8, 9, 10, 10, 9, 9]",,5efb14b20602b4024585eec6,11:26:45,15/01/2024
,,,fwdspan,update_span,KqplUTYUXfM7senoGiAWctAc1hg2,call-function,44,630729,0.0-7.0-2.2-0.2-4.2,,,,,,,5efb14b20602b4024585eec6,11:26:45,15/01/2024
1119.1000000014901,"<p style=""font-size:3rem"">Trial 4 of 12</p><br><br><br>",0,fwdspan,start_trial,KqplUTYUXfM7senoGiAWctAc1hg2,html-button-response,45,631849,0.0-7.0-2.3-0.3-0.3,,,,,,,5efb14b20602b4024585eec6,11:26:45,15/01/2024
,"<p style=""font-size:14rem;font-weight:400;"">5</p>",,fwdspan,number,KqplUTYUXfM7senoGiAWctAc1hg2,html-keyboard-response,46,632854,0.0-7.0-2.3-0.3-1.12-0.12,,,,,,,5efb14b20602b4024585eec6,11:26:45,15/01/2024
,"<p style=""font-size:14rem;font-weight:400;"">4</p>",,fwdspan,number,KqplUTYUXfM7senoGiAWctAc1hg2,html-keyboard-response,47,633865,0.0-7.0-2.3-0.3-1.13-0.13,,,,,,,5efb14b20602b4024585eec6,11:26:45,15/01/2024
,"<p style=""font-size:14rem;font-weight:400;"">3</p>",,fwdspan,number,KqplUTYUXfM7senoGiAWctAc1hg2,html-keyboard-response,48,634882,0.0-7.0-2.3-0.3-1.14-0.14,,,,,,,5efb14b20602b4024585eec6,11:26:45,15/01/2024
,"<p style=""font-size:14rem;font-weight:400;"">9</p>",,fwdspan,number,KqplUTYUXfM7senoGiAWctAc1hg2,html-keyboard-response,49,635898,0.0-7.0-2.3-0.3-1.15-0.15,,,,,,,5efb14b20602b4024585eec6,11:26:45,15/01/2024
,"<p style=""font-size:14rem;font-weight:400;"">6</p>",,fwdspan,number,KqplUTYUXfM7senoGiAWctAc1hg2,html-keyboard-response,50,636929,0.0-7.0-2.3-0.3-1.16-0.16,,,,,,,5efb14b20602b4024585eec6,11:26:45,15/01/2024
,"<p style=""font-size:14rem;font-weight:400;"">2</p>",,fwdspan,number,KqplUTYUXfM7senoGiAWctAc1hg2,html-keyboard-response,51,637946,0.0-7.0-2.3-0.3-1.17-0.17,,,,,,,5efb14b20602b4024585eec6,11:26:45,15/01/2024
,[],,fwdspan,delay,KqplUTYUXfM7senoGiAWctAc1hg2,html-keyboard-response,52,638504,0.0-7.0-2.3-0.3-2.3,,,,,,,5efb14b20602b4024585eec6,11:26:45,15/01/2024
6297.39999999851,"<div class = numbox><p style=""font-size:2.5rem"">What were the numbers <b>in order</b>?<br>(When you are ready to lock in your answer, press <b>ENTER</b>)</p><button id = button_1 class = ""square num-button"" onclick = ""recordClick(this)""><div class = content><div class = numbers>1</div></div></button><button id = button_2 class = ""square num-button"" onclick = ""recordClick(this)""><div class = content><div class = numbers>2</div></div></button><button id = button_3 class = ""square num-button"" onclick = ""recordClick(this)""><div class = content><div class = numbers>3</div></div></button><button id = button_4 class = ""square num-button"" onclick = ""recordClick(this)""><div class = content><div class = numbers>4</div></div></button><button id = button_5 class = ""square num-button"" onclick = ""recordClick(this)""><div class = content><div class = numbers>5</div></div></button><button id = button_6 class = ""square num-button"" onclick = ""recordClick(this)""><div class = content><div class = numbers>6</div></div></button><button id = button_7 class = ""square num-button"" onclick = ""recordClick(this)""><div class = content><div class = numbers>7</div></div></button><button id = button_8 class = ""square num-button"" onclick = ""recordClick(this)""><div class = content><div class = numbers>8</div></div></button><button id = button_9 class = ""square num-button"" onclick = ""recordClick(this)""><div class = content><div class = numbers>9</div></div></button><button class = clear_button id = ""ClearButton"" onclick = ""clearResponse()"">Clear</button><p><u><b>Current Answer:</b></u></p><div id=echoed_txt style=""font-size: 6rem; color:blue;""><b></b></div></div><br><br><br><br><br><br><br>",enter,fwdspan,response,KqplUTYUXfM7senoGiAWctAc1hg2,html-keyboard-response,53,644802,0.0-7.0-2.3-0.3-3.3,6.0,"[4,3,9,6,2]","[5,4,3,9,6,2]",0.0,"[3, 4, 5, 6, 6, 7, 8, 9, 10, 10, 9, 9]",,5efb14b20602b4024585eec6,11:26:45,15/01/2024
,,,fwdspan,update_span,KqplUTYUXfM7senoGiAWctAc1hg2,call-function,54,645058,0.0-7.0-2.3-0.3-4.3,,,,,,,5efb14b20602b4024585eec6,11:26:45,15/01/2024
1037.6000000014901,"<p style=""font-size:3rem"">Trial 5 of 12</p><br><br><br>",0,fwdspan,start_trial,KqplUTYUXfM7senoGiAWctAc1hg2,html-button-response,55,646096,0.0-7.0-2.4-0.4-0.4,,,,,,,5efb14b20602b4024585eec6,11:26:45,15/01/2024
,"<p style=""font-size:14rem;font-weight:400;"">2</p>",,fwdspan,number,KqplUTYUXfM7senoGiAWctAc1hg2,html-keyboard-response,56,647119,0.0-7.0-2.4-0.4-1.18-0.18,,,,,,,5efb14b20602b4024585eec6,11:26:45,15/01/2024
,"<p style=""font-size:14rem;font-weight:400;"">1</p>",,fwdspan,number,KqplUTYUXfM7senoGiAWctAc1hg2,html-keyboard-response,57,648127,0.0-7.0-2.4-0.4-1.19-0.19,,,,,,,5efb14b20602b4024585eec6,11:26:45,15/01/2024
,"<p style=""font-size:14rem;font-weight:400;"">4</p>",,fwdspan,number,KqplUTYUXfM7senoGiAWctAc1hg2,html-keyboard-response,58,649158,0.0-7.0-2.4-0.4-1.20-0.20,,,,,,,5efb14b20602b4024585eec6,11:26:45,15/01/2024
,"<p style=""font-size:14rem;font-weight:400;"">3</p>",,fwdspan,number,KqplUTYUXfM7senoGiAWctAc1hg2,html-keyboard-response,59,650175,0.0-7.0-2.4-0.4-1.21-0.21,,,,,,,5efb14b20602b4024585eec6,11:26:45,15/01/2024
,"<p style=""font-size:14rem;font-weight:400;"">6</p>",,fwdspan,number,KqplUTYUXfM7senoGiAWctAc1hg2,html-keyboard-response,60,651190,0.0-7.0-2.4-0.4-1.22-0.22,,,,,,,5efb14b20602b4024585eec6,11:26:45,15/01/2024
,"<p style=""font-size:14rem;font-weight:400;"">5</p>",,fwdspan,number,KqplUTYUXfM7senoGiAWctAc1hg2,html-keyboard-response,61,652192,0.0-7.0-2.4-0.4-1.23-0.23,,,,,,,5efb14b20602b4024585eec6,11:26:45,15/01/2024
,[],,fwdspan,delay,KqplUTYUXfM7senoGiAWctAc1hg2,html-keyboard-response,62,652765,0.0-7.0-2.4-0.4-2.4,,,,,,,5efb14b20602b4024585eec6,11:26:45,15/01/2024
13067.800000000745,"<div class = numbox><p style=""font-size:2.5rem"">What were the numbers <b>in order</b>?<br>(When you are ready to lock in your answer, press <b>ENTER</b>)</p><button id = button_1 class = ""square num-button"" onclick = ""recordClick(this)""><div class = content><div class = numbers>1</div></div></button><button id = button_2 class = ""square num-button"" onclick = ""recordClick(this)""><div class = content><div class = numbers>2</div></div></button><button id = button_3 class = ""square num-button"" onclick = ""recordClick(this)""><div class = content><div class = numbers>3</div></div></button><button id = button_4 class = ""square num-button"" onclick = ""recordClick(this)""><div class = content><div class = numbers>4</div></div></button><button id = button_5 class = ""square num-button"" onclick = ""recordClick(this)""><div class = content><div class = numbers>5</div></div></button><button id = button_6 class = ""square num-button"" onclick = ""recordClick(this)""><div class = content><div class = numbers>6</div></div></button><button id = button_7 class = ""square num-button"" onclick = ""recordClick(this)""><div class = content><div class = numbers>7</div></div></button><button id = button_8 class = ""square num-button"" onclick = ""recordClick(this)""><div class = content><div class = numbers>8</div></div></button><button id = button_9 class = ""square num-button"" onclick = ""recordClick(this)""><div class = content><div class = numbers>9</div></div></button><button class = clear_button id = ""ClearButton"" onclick = ""clearResponse()"">Clear</button><p><u><b>Current Answer:</b></u></p><div id=echoed_txt style=""font-size: 6rem; color:blue;""><b></b></div></div><br><br><br><br><br><br><br>",enter,fwdspan,response,KqplUTYUXfM7senoGiAWctAc1hg2,html-keyboard-response,63,665834,0.0-7.0-2.4-0.4-3.4,6.0,"[2,1,4,3,6,5]","[2,1,4,3,6,5]",1.0,"[3, 4, 5, 6, 6, 7, 8, 9, 10, 10, 9, 9]",,5efb14b20602b4024585eec6,11:26:45,15/01/2024
,,,fwdspan,update_span,KqplUTYUXfM7senoGiAWctAc1hg2,call-function,64,666086,0.0-7.0-2.4-0.4-4.4,,,,,,,5efb14b20602b4024585eec6,11:26:45,15/01/2024
1149.5999999977648,"<p style=""font-size:3rem"">Trial 6 of 12</p><br><br><br>",0,fwdspan,start_trial,KqplUTYUXfM7senoGiAWctAc1hg2,html-button-response,65,667237,0.0-7.0-2.5-0.5-0.5,,,,,,,5efb14b20602b4024585eec6,11:26:45,15/01/2024
,"<p style=""font-size:14rem;font-weight:400;"">5</p>",,fwdspan,number,KqplUTYUXfM7senoGiAWctAc1hg2,html-keyboard-response,66,668268,0.0-7.0-2.5-0.5-1.24-0.24,,,,,,,5efb14b20602b4024585eec6,11:26:45,15/01/2024
,"<p style=""font-size:14rem;font-weight:400;"">4</p>",,fwdspan,number,KqplUTYUXfM7senoGiAWctAc1hg2,html-keyboard-response,67,669283,0.0-7.0-2.5-0.5-1.25-0.25,,,,,,,5efb14b20602b4024585eec6,11:26:45,15/01/2024
,"<p style=""font-size:14rem;font-weight:400;"">3</p>",,fwdspan,number,KqplUTYUXfM7senoGiAWctAc1hg2,html-keyboard-response,68,670286,0.0-7.0-2.5-0.5-1.26-0.26,,,,,,,5efb14b20602b4024585eec6,11:26:45,15/01/2024
,"<p style=""font-size:14rem;font-weight:400;"">8</p>",,fwdspan,number,KqplUTYUXfM7senoGiAWctAc1hg2,html-keyboard-response,69,671317,0.0-7.0-2.5-0.5-1.27-0.27,,,,,,,5efb14b20602b4024585eec6,11:26:45,15/01/2024
,"<p style=""font-size:14rem;font-weight:400;"">1</p>",,fwdspan,number,KqplUTYUXfM7senoGiAWctAc1hg2,html-keyboard-response,70,672333,0.0-7.0-2.5-0.5-1.28-0.28,,,,,,,5efb14b20602b4024585eec6,11:26:45,15/01/2024
,"<p style=""font-size:14rem;font-weight:400;"">6</p>",,fwdspan,number,KqplUTYUXfM7senoGiAWctAc1hg2,html-keyboard-response,71,673335,0.0-7.0-2.5-0.5-1.29-0.29,,,,,,,5efb14b20602b4024585eec6,11:26:45,15/01/2024
,"<p style=""font-size:14rem;font-weight:400;"">9</p>",,fwdspan,number,KqplUTYUXfM7senoGiAWctAc1hg2,html-keyboard-response,72,674350,0.0-7.0-2.5-0.5-1.30-0.30,,,,,,,5efb14b20602b4024585eec6,11:26:45,15/01/2024
,[],,fwdspan,delay,KqplUTYUXfM7senoGiAWctAc1hg2,html-keyboard-response,73,674925,0.0-7.0-2.5-0.5-2.5,,,,,,,5efb14b20602b4024585eec6,11:26:45,15/01/2024
15921.400000002235,"<div class = numbox><p style=""font-size:2.5rem"">What were the numbers <b>in order</b>?<br>(When you are ready to lock in your answer, press <b>ENTER</b>)</p><button id = button_1 class = ""square num-button"" onclick = ""recordClick(this)""><div class = content><div class = numbers>1</div></div></button><button id = button_2 class = ""square num-button"" onclick = ""recordClick(this)""><div class = content><div class = numbers>2</div></div></button><button id = button_3 class = ""square num-button"" onclick = ""recordClick(this)""><div class = content><div class = numbers>3</div></div></button><button id = button_4 class = ""square num-button"" onclick = ""recordClick(this)""><div class = content><div class = numbers>4</div></div></button><button id = button_5 class = ""square num-button"" onclick = ""recordClick(this)""><div class = content><div class = numbers>5</div></div></button><button id = button_6 class = ""square num-button"" onclick = ""recordClick(this)""><div class = content><div class = numbers>6</div></div></button><button id = button_7 class = ""square num-button"" onclick = ""recordClick(this)""><div class = content><div class = numbers>7</div></div></button><button id = button_8 class = ""square num-button"" onclick = ""recordClick(this)""><div class = content><div class = numbers>8</div></div></button><button id = button_9 class = ""square num-button"" onclick = ""recordClick(this)""><div class = content><div class = numbers>9</div></div></button><button class = clear_button id = ""ClearButton"" onclick = ""clearResponse()"">Clear</button><p><u><b>Current Answer:</b></u></p><div id=echoed_txt style=""font-size: 6rem; color:blue;""><b></b></div></div><br><br><br><br><br><br><br>",enter,fwdspan,response,KqplUTYUXfM7senoGiAWctAc1hg2,html-keyboard-response,74,690848,0.0-7.0-2.5-0.5-3.5,7.0,"[5,4,3,8,1,6,9]","[5,4,3,8,1,6,9]",1.0,"[3, 4, 5, 6, 6, 7, 8, 9, 10, 10, 9, 9]",,5efb14b20602b4024585eec6,11:26:45,15/01/2024
,,,fwdspan,update_span,KqplUTYUXfM7senoGiAWctAc1hg2,call-function,75,691109,0.0-7.0-2.5-0.5-4.5,,,,,,,5efb14b20602b4024585eec6,11:26:45,15/01/2024
2567.0,"<p style=""font-size:3rem"">Trial 7 of 12</p><br><br><br>",0,fwdspan,start_trial,KqplUTYUXfM7senoGiAWctAc1hg2,html-button-response,76,693677,0.0-7.0-2.6-0.6-0.6,,,,,,,5efb14b20602b4024585eec6,11:26:45,15/01/2024
,"<p style=""font-size:14rem;font-weight:400;"">4</p>",,fwdspan,number,KqplUTYUXfM7senoGiAWctAc1hg2,html-keyboard-response,77,694697,0.0-7.0-2.6-0.6-1.31-0.31,,,,,,,5efb14b20602b4024585eec6,11:26:45,15/01/2024
,"<p style=""font-size:14rem;font-weight:400;"">3</p>",,fwdspan,number,KqplUTYUXfM7senoGiAWctAc1hg2,html-keyboard-response,78,695709,0.0-7.0-2.6-0.6-1.32-0.32,,,,,,,5efb14b20602b4024585eec6,11:26:45,15/01/2024
,"<p style=""font-size:14rem;font-weight:400;"">8</p>",,fwdspan,number,KqplUTYUXfM7senoGiAWctAc1hg2,html-keyboard-response,79,696727,0.0-7.0-2.6-0.6-1.33-0.33,,,,,,,5efb14b20602b4024585eec6,11:26:45,15/01/2024
,"<p style=""font-size:14rem;font-weight:400;"">9</p>",,fwdspan,number,KqplUTYUXfM7senoGiAWctAc1hg2,html-keyboard-response,80,697759,0.0-7.0-2.6-0.6-1.34-0.34,,,,,,,5efb14b20602b4024585eec6,11:26:45,15/01/2024
,"<p style=""font-size:14rem;font-weight:400;"">7</p>",,fwdspan,number,KqplUTYUXfM7senoGiAWctAc1hg2,html-keyboard-response,81,698774,0.0-7.0-2.6-0.6-1.35-0.35,,,,,,,5efb14b20602b4024585eec6,11:26:45,15/01/2024
,"<p style=""font-size:14rem;font-weight:400;"">5</p>",,fwdspan,number,KqplUTYUXfM7senoGiAWctAc1hg2,html-keyboard-response,82,699776,0.0-7.0-2.6-0.6-1.36-0.36,,,,,,,5efb14b20602b4024585eec6,11:26:45,15/01/2024
,"<p style=""font-size:14rem;font-weight:400;"">2</p>",,fwdspan,number,KqplUTYUXfM7senoGiAWctAc1hg2,html-keyboard-response,83,700792,0.0-7.0-2.6-0.6-1.37-0.37,,,,,,,5efb14b20602b4024585eec6,11:26:45,15/01/2024
,"<p style=""font-size:14rem;font-weight:400;"">6</p>",,fwdspan,number,KqplUTYUXfM7senoGiAWctAc1hg2,html-keyboard-response,84,701809,0.0-7.0-2.6-0.6-1.38-0.38,,,,,,,5efb14b20602b4024585eec6,11:26:45,15/01/2024
,[],,fwdspan,delay,KqplUTYUXfM7senoGiAWctAc1hg2,html-keyboard-response,85,702382,0.0-7.0-2.6-0.6-2.6,,,,,,,5efb14b20602b4024585eec6,11:26:45,15/01/2024
9912.79999999702,"<div class = numbox><p style=""font-size:2.5rem"">What were the numbers <b>in order</b>?<br>(When you are ready to lock in your answer, press <b>ENTER</b>)</p><button id = button_1 class = ""square num-button"" onclick = ""recordClick(this)""><div class = content><div class = numbers>1</div></div></button><button id = button_2 class = ""square num-button"" onclick = ""recordClick(this)""><div class = content><div class = numbers>2</div></div></button><button id = button_3 class = ""square num-button"" onclick = ""recordClick(this)""><div class = content><div class = numbers>3</div></div></button><button id = button_4 class = ""square num-button"" onclick = ""recordClick(this)""><div class = content><div class = numbers>4</div></div></button><button id = button_5 class = ""square num-button"" onclick = ""recordClick(this)""><div class = content><div class = numbers>5</div></div></button><button id = button_6 class = ""square num-button"" onclick = ""recordClick(this)""><div class = content><div class = numbers>6</div></div></button><button id = button_7 class = ""square num-button"" onclick = ""recordClick(this)""><div class = content><div class = numbers>7</div></div></button><button id = button_8 class = ""square num-button"" onclick = ""recordClick(this)""><div class = content><div class = numbers>8</div></div></button><button id = button_9 class = ""square num-button"" onclick = ""recordClick(this)""><div class = content><div class = numbers>9</div></div></button><button class = clear_button id = ""ClearButton"" onclick = ""clearResponse()"">Clear</button><p><u><b>Current Answer:</b></u></p><div id=echoed_txt style=""font-size: 6rem; color:blue;""><b></b></div></div><br><br><br><br><br><br><br>",enter,fwdspan,response,KqplUTYUXfM7senoGiAWctAc1hg2,html-keyboard-response,86,712296,0.0-7.0-2.6-0.6-3.6,8.0,"[4,3,8,9,7,5,2,6]","[4,3,8,9,7,5,2,6]",1.0,"[3, 4, 5, 6, 6, 7, 8, 9, 10, 10, 9, 9]",,5efb14b20602b4024585eec6,11:26:45,15/01/2024
,,,fwdspan,update_span,KqplUTYUXfM7senoGiAWctAc1hg2,call-function,87,712553,0.0-7.0-2.6-0.6-4.6,,,,,,,5efb14b20602b4024585eec6,11:26:45,15/01/2024
1351.2999999970198,"<p style=""font-size:3rem"">Trial 8 of 12</p><br><br><br>",0,fwdspan,start_trial,KqplUTYUXfM7senoGiAWctAc1hg2,html-button-response,88,713906,0.0-7.0-2.7-0.7-0.7,,,,,,,5efb14b20602b4024585eec6,11:26:45,15/01/2024
,"<p style=""font-size:14rem;font-weight:400;"">3</p>",,fwdspan,number,KqplUTYUXfM7senoGiAWctAc1hg2,html-keyboard-response,89,714928,0.0-7.0-2.7-0.7-1.39-0.39,,,,,,,5efb14b20602b4024585eec6,11:26:45,15/01/2024
,"<p style=""font-size:14rem;font-weight:400;"">2</p>",,fwdspan,number,KqplUTYUXfM7senoGiAWctAc1hg2,html-keyboard-response,90,715936,0.0-7.0-2.7-0.7-1.40-0.40,,,,,,,5efb14b20602b4024585eec6,11:26:45,15/01/2024
,"<p style=""font-size:14rem;font-weight:400;"">8</p>",,fwdspan,number,KqplUTYUXfM7senoGiAWctAc1hg2,html-keyboard-response,91,716952,0.0-7.0-2.7-0.7-1.41-0.41,,,,,,,5efb14b20602b4024585eec6,11:26:45,15/01/2024
,"<p style=""font-size:14rem;font-weight:400;"">4</p>",,fwdspan,number,KqplUTYUXfM7senoGiAWctAc1hg2,html-keyboard-response,92,717984,0.0-7.0-2.7-0.7-1.42-0.42,,,,,,,5efb14b20602b4024585eec6,11:26:45,15/01/2024
,"<p style=""font-size:14rem;font-weight:400;"">1</p>",,fwdspan,number,KqplUTYUXfM7senoGiAWctAc1hg2,html-keyboard-response,93,718986,0.0-7.0-2.7-0.7-1.43-0.43,,,,,,,5efb14b20602b4024585eec6,11:26:45,15/01/2024
,"<p style=""font-size:14rem;font-weight:400;"">5</p>",,fwdspan,number,KqplUTYUXfM7senoGiAWctAc1hg2,html-keyboard-response,94,720002,0.0-7.0-2.7-0.7-1.44-0.44,,,,,,,5efb14b20602b4024585eec6,11:26:45,15/01/2024
,"<p style=""font-size:14rem;font-weight:400;"">7</p>",,fwdspan,number,KqplUTYUXfM7senoGiAWctAc1hg2,html-keyboard-response,95,721018,0.0-7.0-2.7-0.7-1.45-0.45,,,,,,,5efb14b20602b4024585eec6,11:26:45,15/01/2024
,"<p style=""font-size:14rem;font-weight:400;"">6</p>",,fwdspan,number,KqplUTYUXfM7senoGiAWctAc1hg2,html-keyboard-response,96,722034,0.0-7.0-2.7-0.7-1.46-0.46,,,,,,,5efb14b20602b4024585eec6,11:26:45,15/01/2024
,"<p style=""font-size:14rem;font-weight:400;"">9</p>",,fwdspan,number,KqplUTYUXfM7senoGiAWctAc1hg2,html-keyboard-response,97,723053,0.0-7.0-2.7-0.7-1.47-0.47,,,,,,,5efb14b20602b4024585eec6,11:26:45,15/01/2024
,[],,fwdspan,delay,KqplUTYUXfM7senoGiAWctAc1hg2,html-keyboard-response,98,723607,0.0-7.0-2.7-0.7-2.7,,,,,,,5efb14b20602b4024585eec6,11:26:45,15/01/2024
15846.800000000745,"<div class = numbox><p style=""font-size:2.5rem"">What were the numbers <b>in order</b>?<br>(When you are ready to lock in your answer, press <b>ENTER</b>)</p><button id = button_1 class = ""square num-button"" onclick = ""recordClick(this)""><div class = content><div class = numbers>1</div></div></button><button id = button_2 class = ""square num-button"" onclick = ""recordClick(this)""><div class = content><div class = numbers>2</div></div></button><button id = button_3 class = ""square num-button"" onclick = ""recordClick(this)""><div class = content><div class = numbers>3</div></div></button><button id = button_4 class = ""square num-button"" onclick = ""recordClick(this)""><div class = content><div class = numbers>4</div></div></button><button id = button_5 class = ""square num-button"" onclick = ""recordClick(this)""><div class = content><div class = numbers>5</div></div></button><button id = button_6 class = ""square num-button"" onclick = ""recordClick(this)""><div class = content><div class = numbers>6</div></div></button><button id = button_7 class = ""square num-button"" onclick = ""recordClick(this)""><div class = content><div class = numbers>7</div></div></button><button id = button_8 class = ""square num-button"" onclick = ""recordClick(this)""><div class = content><div class = numbers>8</div></div></button><button id = button_9 class = ""square num-button"" onclick = ""recordClick(this)""><div class = content><div class = numbers>9</div></div></button><button class = clear_button id = ""ClearButton"" onclick = ""clearResponse()"">Clear</button><p><u><b>Current Answer:</b></u></p><div id=echoed_txt style=""font-size: 6rem; color:blue;""><b></b></div></div><br><br><br><br><br><br><br>",enter,fwdspan,response,KqplUTYUXfM7senoGiAWctAc1hg2,html-keyboard-response,99,739455,0.0-7.0-2.7-0.7-3.7,9.0,"[3,2,8,4,1,5,7,6,9]","[3,2,8,4,1,5,7,6,9]",1.0,"[3, 4, 5, 6, 6, 7, 8, 9, 10, 10, 9, 9]",,5efb14b20602b4024585eec6,11:26:45,15/01/2024
,,,fwdspan,update_span,KqplUTYUXfM7senoGiAWctAc1hg2,call-function,100,739711,0.0-7.0-2.7-0.7-4.7,,,,,,,5efb14b20602b4024585eec6,11:26:45,15/01/2024
1531.5,"<p style=""font-size:3rem"">Trial 9 of 12</p><br><br><br>",0,fwdspan,start_trial,KqplUTYUXfM7senoGiAWctAc1hg2,html-button-response,101,741244,0.0-7.0-2.8-0.8-0.8,,,,,,,5efb14b20602b4024585eec6,11:26:45,15/01/2024
,"<p style=""font-size:14rem;font-weight:400;"">6</p>",,fwdspan,number,KqplUTYUXfM7senoGiAWctAc1hg2,html-keyboard-response,102,742257,0.0-7.0-2.8-0.8-1.48-0.48,,,,,,,5efb14b20602b4024585eec6,11:26:45,15/01/2024
,"<p style=""font-size:14rem;font-weight:400;"">3</p>",,fwdspan,number,KqplUTYUXfM7senoGiAWctAc1hg2,html-keyboard-response,103,743276,0.0-7.0-2.8-0.8-1.49-0.49,,,,,,,5efb14b20602b4024585eec6,11:26:45,15/01/2024
,"<p style=""font-size:14rem;font-weight:400;"">2</p>",,fwdspan,number,KqplUTYUXfM7senoGiAWctAc1hg2,html-keyboard-response,104,744291,0.0-7.0-2.8-0.8-1.50-0.50,,,,,,,5efb14b20602b4024585eec6,11:26:45,15/01/2024
,"<p style=""font-size:14rem;font-weight:400;"">5</p>",,fwdspan,number,KqplUTYUXfM7senoGiAWctAc1hg2,html-keyboard-response,105,745293,0.0-7.0-2.8-0.8-1.51-0.51,,,,,,,5efb14b20602b4024585eec6,11:26:45,15/01/2024
,"<p style=""font-size:14rem;font-weight:400;"">7</p>",,fwdspan,number,KqplUTYUXfM7senoGiAWctAc1hg2,html-keyboard-response,106,746309,0.0-7.0-2.8-0.8-1.52-0.52,,,,,,,5efb14b20602b4024585eec6,11:26:45,15/01/2024
,"<p style=""font-size:14rem;font-weight:400;"">8</p>",,fwdspan,number,KqplUTYUXfM7senoGiAWctAc1hg2,html-keyboard-response,107,747323,0.0-7.0-2.8-0.8-1.53-0.53,,,,,,,5efb14b20602b4024585eec6,11:26:45,15/01/2024
,"<p style=""font-size:14rem;font-weight:400;"">9</p>",,fwdspan,number,KqplUTYUXfM7senoGiAWctAc1hg2,html-keyboard-response,108,748340,0.0-7.0-2.8-0.8-1.54-0.54,,,,,,,5efb14b20602b4024585eec6,11:26:45,15/01/2024
,"<p style=""font-size:14rem;font-weight:400;"">4</p>",,fwdspan,number,KqplUTYUXfM7senoGiAWctAc1hg2,html-keyboard-response,109,749357,0.0-7.0-2.8-0.8-1.55-0.55,,,,,,,5efb14b20602b4024585eec6,11:26:45,15/01/2024
,"<p style=""font-size:14rem;font-weight:400;"">1</p>",,fwdspan,number,KqplUTYUXfM7senoGiAWctAc1hg2,html-keyboard-response,110,750372,0.0-7.0-2.8-0.8-1.56-0.56,,,,,,,5efb14b20602b4024585eec6,11:26:45,15/01/2024
,"<p style=""font-size:14rem;font-weight:400;"">4</p>",,fwdspan,number,KqplUTYUXfM7senoGiAWctAc1hg2,html-keyboard-response,111,751376,0.0-7.0-2.8-0.8-1.57-0.57,,,,,,,5efb14b20602b4024585eec6,11:26:45,15/01/2024
,[],,fwdspan,delay,KqplUTYUXfM7senoGiAWctAc1hg2,html-keyboard-response,112,751930,0.0-7.0-2.8-0.8-2.8,,,,,,,5efb14b20602b4024585eec6,11:26:45,15/01/2024
15317.199999999255,"<div class = numbox><p style=""font-size:2.5rem"">What were the numbers <b>in order</b>?<br>(When you are ready to lock in your answer, press <b>ENTER</b>)</p><button id = button_1 class = ""square num-button"" onclick = ""recordClick(this)""><div class = content><div class = numbers>1</div></div></button><button id = button_2 class = ""square num-button"" onclick = ""recordClick(this)""><div class = content><div class = numbers>2</div></div></button><button id = button_3 class = ""square num-button"" onclick = ""recordClick(this)""><div class = content><div class = numbers>3</div></div></button><button id = button_4 class = ""square num-button"" onclick = ""recordClick(this)""><div class = content><div class = numbers>4</div></div></button><button id = button_5 class = ""square num-button"" onclick = ""recordClick(this)""><div class = content><div class = numbers>5</div></div></button><button id = button_6 class = ""square num-button"" onclick = ""recordClick(this)""><div class = content><div class = numbers>6</div></div></button><button id = button_7 class = ""square num-button"" onclick = ""recordClick(this)""><div class = content><div class = numbers>7</div></div></button><button id = button_8 class = ""square num-button"" onclick = ""recordClick(this)""><div class = content><div class = numbers>8</div></div></button><button id = button_9 class = ""square num-button"" onclick = ""recordClick(this)""><div class = content><div class = numbers>9</div></div></button><button class = clear_button id = ""ClearButton"" onclick = ""clearResponse()"">Clear</button><p><u><b>Current Answer:</b></u></p><div id=echoed_txt style=""font-size: 6rem; color:blue;""><b></b></div></div><br><br><br><br><br><br><br>",enter,fwdspan,response,KqplUTYUXfM7senoGiAWctAc1hg2,html-keyboard-response,113,767247,0.0-7.0-2.8-0.8-3.8,10.0,"[6,3,2,5,7,8,4,1,9]","[6,3,2,5,7,8,9,4,1,4]",0.0,"[3, 4, 5, 6, 6, 7, 8, 9, 10, 10, 9, 9]",,5efb14b20602b4024585eec6,11:26:45,15/01/2024
,,,fwdspan,update_span,KqplUTYUXfM7senoGiAWctAc1hg2,call-function,114,767502,0.0-7.0-2.8-0.8-4.8,,,,,,,5efb14b20602b4024585eec6,11:26:45,15/01/2024
1550.5,"<p style=""font-size:3rem"">Trial 10 of 12</p><br><br><br>",0,fwdspan,start_trial,KqplUTYUXfM7senoGiAWctAc1hg2,html-button-response,115,769054,0.0-7.0-2.9-0.9-0.9,,,,,,,5efb14b20602b4024585eec6,11:26:45,15/01/2024
,"<p style=""font-size:14rem;font-weight:400;"">5</p>",,fwdspan,number,KqplUTYUXfM7senoGiAWctAc1hg2,html-keyboard-response,116,770081,0.0-7.0-2.9-0.9-1.58-0.58,,,,,,,5efb14b20602b4024585eec6,11:26:45,15/01/2024
,"<p style=""font-size:14rem;font-weight:400;"">8</p>",,fwdspan,number,KqplUTYUXfM7senoGiAWctAc1hg2,html-keyboard-response,117,771100,0.0-7.0-2.9-0.9-1.59-0.59,,,,,,,5efb14b20602b4024585eec6,11:26:45,15/01/2024
,"<p style=""font-size:14rem;font-weight:400;"">4</p>",,fwdspan,number,KqplUTYUXfM7senoGiAWctAc1hg2,html-keyboard-response,118,772117,0.0-7.0-2.9-0.9-1.60-0.60,,,,,,,5efb14b20602b4024585eec6,11:26:45,15/01/2024
,"<p style=""font-size:14rem;font-weight:400;"">1</p>",,fwdspan,number,KqplUTYUXfM7senoGiAWctAc1hg2,html-keyboard-response,119,773134,0.0-7.0-2.9-0.9-1.61-0.61,,,,,,,5efb14b20602b4024585eec6,11:26:45,15/01/2024
,"<p style=""font-size:14rem;font-weight:400;"">7</p>",,fwdspan,number,KqplUTYUXfM7senoGiAWctAc1hg2,html-keyboard-response,120,774150,0.0-7.0-2.9-0.9-1.62-0.62,,,,,,,5efb14b20602b4024585eec6,11:26:45,15/01/2024
,"<p style=""font-size:14rem;font-weight:400;"">3</p>",,fwdspan,number,KqplUTYUXfM7senoGiAWctAc1hg2,html-keyboard-response,121,775166,0.0-7.0-2.9-0.9-1.63-0.63,,,,,,,5efb14b20602b4024585eec6,11:26:45,15/01/2024
,"<p style=""font-size:14rem;font-weight:400;"">9</p>",,fwdspan,number,KqplUTYUXfM7senoGiAWctAc1hg2,html-keyboard-response,122,776184,0.0-7.0-2.9-0.9-1.64-0.64,,,,,,,5efb14b20602b4024585eec6,11:26:45,15/01/2024
,"<p style=""font-size:14rem;font-weight:400;"">6</p>",,fwdspan,number,KqplUTYUXfM7senoGiAWctAc1hg2,html-keyboard-response,123,777200,0.0-7.0-2.9-0.9-1.65-0.65,,,,,,,5efb14b20602b4024585eec6,11:26:45,15/01/2024
,"<p style=""font-size:14rem;font-weight:400;"">2</p>",,fwdspan,number,KqplUTYUXfM7senoGiAWctAc1hg2,html-keyboard-response,124,778214,0.0-7.0-2.9-0.9-1.66-0.66,,,,,,,5efb14b20602b4024585eec6,11:26:45,15/01/2024
,"<p style=""font-size:14rem;font-weight:400;"">9</p>",,fwdspan,number,KqplUTYUXfM7senoGiAWctAc1hg2,html-keyboard-response,125,779231,0.0-7.0-2.9-0.9-1.67-0.67,,,,,,,5efb14b20602b4024585eec6,11:26:45,15/01/2024
,[],,fwdspan,delay,KqplUTYUXfM7senoGiAWctAc1hg2,html-keyboard-response,126,779791,0.0-7.0-2.9-0.9-2.9,,,,,,,5efb14b20602b4024585eec6,11:26:45,15/01/2024
9205.900000002235,"<div class = numbox><p style=""font-size:2.5rem"">What were the numbers <b>in order</b>?<br>(When you are ready to lock in your answer, press <b>ENTER</b>)</p><button id = button_1 class = ""square num-button"" onclick = ""recordClick(this)""><div class = content><div class = numbers>1</div></div></button><button id = button_2 class = ""square num-button"" onclick = ""recordClick(this)""><div class = content><div class = numbers>2</div></div></button><button id = button_3 class = ""square num-button"" onclick = ""recordClick(this)""><div class = content><div class = numbers>3</div></div></button><button id = button_4 class = ""square num-button"" onclick = ""recordClick(this)""><div class = content><div class = numbers>4</div></div></button><button id = button_5 class = ""square num-button"" onclick = ""recordClick(this)""><div class = content><div class = numbers>5</div></div></button><button id = button_6 class = ""square num-button"" onclick = ""recordClick(this)""><div class = content><div class = numbers>6</div></div></button><button id = button_7 class = ""square num-button"" onclick = ""recordClick(this)""><div class = content><div class = numbers>7</div></div></button><button id = button_8 class = ""square num-button"" onclick = ""recordClick(this)""><div class = content><div class = numbers>8</div></div></button><button id = button_9 class = ""square num-button"" onclick = ""recordClick(this)""><div class = content><div class = numbers>9</div></div></button><button class = clear_button id = ""ClearButton"" onclick = ""clearResponse()"">Clear</button><p><u><b>Current Answer:</b></u></p><div id=echoed_txt style=""font-size: 6rem; color:blue;""><b></b></div></div><br><br><br><br><br><br><br>",enter,fwdspan,response,KqplUTYUXfM7senoGiAWctAc1hg2,html-keyboard-response,127,788998,0.0-7.0-2.9-0.9-3.9,10.0,"[5,8,4,1,7,6,3,1]","[5,8,4,1,7,3,9,6,2,9]",0.0,"[3, 4, 5, 6, 6, 7, 8, 9, 10, 10, 9, 9]",,5efb14b20602b4024585eec6,11:26:45,15/01/2024
,,,fwdspan,update_span,KqplUTYUXfM7senoGiAWctAc1hg2,call-function,128,789261,0.0-7.0-2.9-0.9-4.9,,,,,,,5efb14b20602b4024585eec6,11:26:45,15/01/2024
1534.0,"<p style=""font-size:3rem"">Trial 11 of 12</p><br><br><br>",0,fwdspan,start_trial,KqplUTYUXfM7senoGiAWctAc1hg2,html-button-response,129,790796,0.0-7.0-2.10-0.10-0.10,,,,,,,5efb14b20602b4024585eec6,11:26:45,15/01/2024
,"<p style=""font-size:14rem;font-weight:400;"">5</p>",,fwdspan,number,KqplUTYUXfM7senoGiAWctAc1hg2,html-keyboard-response,130,791827,0.0-7.0-2.10-0.10-1.68-0.68,,,,,,,5efb14b20602b4024585eec6,11:26:45,15/01/2024
,"<p style=""font-size:14rem;font-weight:400;"">9</p>",,fwdspan,number,KqplUTYUXfM7senoGiAWctAc1hg2,html-keyboard-response,131,792844,0.0-7.0-2.10-0.10-1.69-0.69,,,,,,,5efb14b20602b4024585eec6,11:26:45,15/01/2024
,"<p style=""font-size:14rem;font-weight:400;"">6</p>",,fwdspan,number,KqplUTYUXfM7senoGiAWctAc1hg2,html-keyboard-response,132,793875,0.0-7.0-2.10-0.10-1.70-0.70,,,,,,,5efb14b20602b4024585eec6,11:26:45,15/01/2024
,"<p style=""font-size:14rem;font-weight:400;"">3</p>",,fwdspan,number,KqplUTYUXfM7senoGiAWctAc1hg2,html-keyboard-response,133,794892,0.0-7.0-2.10-0.10-1.71-0.71,,,,,,,5efb14b20602b4024585eec6,11:26:45,15/01/2024
,"<p style=""font-size:14rem;font-weight:400;"">7</p>",,fwdspan,number,KqplUTYUXfM7senoGiAWctAc1hg2,html-keyboard-response,134,795909,0.0-7.0-2.10-0.10-1.72-0.72,,,,,,,5efb14b20602b4024585eec6,11:26:45,15/01/2024
,"<p style=""font-size:14rem;font-weight:400;"">4</p>",,fwdspan,number,KqplUTYUXfM7senoGiAWctAc1hg2,html-keyboard-response,135,796926,0.0-7.0-2.10-0.10-1.73-0.73,,,,,,,5efb14b20602b4024585eec6,11:26:45,15/01/2024
,"<p style=""font-size:14rem;font-weight:400;"">1</p>",,fwdspan,number,KqplUTYUXfM7senoGiAWctAc1hg2,html-keyboard-response,136,797958,0.0-7.0-2.10-0.10-1.74-0.74,,,,,,,5efb14b20602b4024585eec6,11:26:45,15/01/2024
,"<p style=""font-size:14rem;font-weight:400;"">8</p>",,fwdspan,number,KqplUTYUXfM7senoGiAWctAc1hg2,html-keyboard-response,137,798974,0.0-7.0-2.10-0.10-1.75-0.75,,,,,,,5efb14b20602b4024585eec6,11:26:45,15/01/2024
,"<p style=""font-size:14rem;font-weight:400;"">2</p>",,fwdspan,number,KqplUTYUXfM7senoGiAWctAc1hg2,html-keyboard-response,138,799990,0.0-7.0-2.10-0.10-1.76-0.76,,,,,,,5efb14b20602b4024585eec6,11:26:45,15/01/2024
,[],,fwdspan,delay,KqplUTYUXfM7senoGiAWctAc1hg2,html-keyboard-response,139,800549,0.0-7.0-2.10-0.10-2.10,,,,,,,5efb14b20602b4024585eec6,11:26:45,15/01/2024
9246.5,"<div class = numbox><p style=""font-size:2.5rem"">What were the numbers <b>in order</b>?<br>(When you are ready to lock in your answer, press <b>ENTER</b>)</p><button id = button_1 class = ""square num-button"" onclick = ""recordClick(this)""><div class = content><div class = numbers>1</div></div></button><button id = button_2 class = ""square num-button"" onclick = ""recordClick(this)""><div class = content><div class = numbers>2</div></div></button><button id = button_3 class = ""square num-button"" onclick = ""recordClick(this)""><div class = content><div class = numbers>3</div></div></button><button id = button_4 class = ""square num-button"" onclick = ""recordClick(this)""><div class = content><div class = numbers>4</div></div></button><button id = button_5 class = ""square num-button"" onclick = ""recordClick(this)""><div class = content><div class = numbers>5</div></div></button><button id = button_6 class = ""square num-button"" onclick = ""recordClick(this)""><div class = content><div class = numbers>6</div></div></button><button id = button_7 class = ""square num-button"" onclick = ""recordClick(this)""><div class = content><div class = numbers>7</div></div></button><button id = button_8 class = ""square num-button"" onclick = ""recordClick(this)""><div class = content><div class = numbers>8</div></div></button><button id = button_9 class = ""square num-button"" onclick = ""recordClick(this)""><div class = content><div class = numbers>9</div></div></button><button class = clear_button id = ""ClearButton"" onclick = ""clearResponse()"">Clear</button><p><u><b>Current Answer:</b></u></p><div id=echoed_txt style=""font-size: 6rem; color:blue;""><b></b></div></div><br><br><br><br><br><br><br>",enter,fwdspan,response,KqplUTYUXfM7senoGiAWctAc1hg2,html-keyboard-response,140,809796,0.0-7.0-2.10-0.10-3.10,9.0,"[5,1,7,3,6,4,8,1,5]","[5,9,6,3,7,4,1,8,2]",0.0,"[3, 4, 5, 6, 6, 7, 8, 9, 10, 10, 9, 9]",,5efb14b20602b4024585eec6,11:26:45,15/01/2024
,,,fwdspan,update_span,KqplUTYUXfM7senoGiAWctAc1hg2,call-function,141,810054,0.0-7.0-2.10-0.10-4.10,,,,,,,5efb14b20602b4024585eec6,11:26:45,15/01/2024
1466.0999999977648,"<p style=""font-size:3rem"">Trial 12 of 12</p><br><br><br>",0,fwdspan,start_trial,KqplUTYUXfM7senoGiAWctAc1hg2,html-button-response,142,811521,0.0-7.0-2.11-0.11-0.11,,,,,,,5efb14b20602b4024585eec6,11:26:45,15/01/2024
,"<p style=""font-size:14rem;font-weight:400;"">2</p>",,fwdspan,number,KqplUTYUXfM7senoGiAWctAc1hg2,html-keyboard-response,143,812538,0.0-7.0-2.11-0.11-1.77-0.77,,,,,,,5efb14b20602b4024585eec6,11:26:45,15/01/2024
,"<p style=""font-size:14rem;font-weight:400;"">4</p>",,fwdspan,number,KqplUTYUXfM7senoGiAWctAc1hg2,html-keyboard-response,144,813553,0.0-7.0-2.11-0.11-1.78-0.78,,,,,,,5efb14b20602b4024585eec6,11:26:45,15/01/2024
,"<p style=""font-size:14rem;font-weight:400;"">5</p>",,fwdspan,number,KqplUTYUXfM7senoGiAWctAc1hg2,html-keyboard-response,145,814569,0.0-7.0-2.11-0.11-1.79-0.79,,,,,,,5efb14b20602b4024585eec6,11:26:45,15/01/2024
,"<p style=""font-size:14rem;font-weight:400;"">9</p>",,fwdspan,number,KqplUTYUXfM7senoGiAWctAc1hg2,html-keyboard-response,146,815585,0.0-7.0-2.11-0.11-1.80-0.80,,,,,,,5efb14b20602b4024585eec6,11:26:45,15/01/2024
,"<p style=""font-size:14rem;font-weight:400;"">8</p>",,fwdspan,number,KqplUTYUXfM7senoGiAWctAc1hg2,html-keyboard-response,147,816600,0.0-7.0-2.11-0.11-1.81-0.81,,,,,,,5efb14b20602b4024585eec6,11:26:45,15/01/2024
,"<p style=""font-size:14rem;font-weight:400;"">7</p>",,fwdspan,number,KqplUTYUXfM7senoGiAWctAc1hg2,html-keyboard-response,148,817618,0.0-7.0-2.11-0.11-1.82-0.82,,,,,,,5efb14b20602b4024585eec6,11:26:45,15/01/2024
,"<p style=""font-size:14rem;font-weight:400;"">1</p>",,fwdspan,number,KqplUTYUXfM7senoGiAWctAc1hg2,html-keyboard-response,149,818636,0.0-7.0-2.11-0.11-1.83-0.83,,,,,,,5efb14b20602b4024585eec6,11:26:45,15/01/2024
,"<p style=""font-size:14rem;font-weight:400;"">6</p>",,fwdspan,number,KqplUTYUXfM7senoGiAWctAc1hg2,html-keyboard-response,150,819651,0.0-7.0-2.11-0.11-1.84-0.84,,,,,,,5efb14b20602b4024585eec6,11:26:45,15/01/2024
,"<p style=""font-size:14rem;font-weight:400;"">3</p>",,fwdspan,number,KqplUTYUXfM7senoGiAWctAc1hg2,html-keyboard-response,151,820666,0.0-7.0-2.11-0.11-1.85-0.85,,,,,,,5efb14b20602b4024585eec6,11:26:45,15/01/2024
,[],,fwdspan,delay,KqplUTYUXfM7senoGiAWctAc1hg2,html-keyboard-response,152,821225,0.0-7.0-2.11-0.11-2.11,,,,,,,5efb14b20602b4024585eec6,11:26:45,15/01/2024
9018.300000000745,"<div class = numbox><p style=""font-size:2.5rem"">What were the numbers <b>in order</b>?<br>(When you are ready to lock in your answer, press <b>ENTER</b>)</p><button id = button_1 class = ""square num-button"" onclick = ""recordClick(this)""><div class = content><div class = numbers>1</div></div></button><button id = button_2 class = ""square num-button"" onclick = ""recordClick(this)""><div class = content><div class = numbers>2</div></div></button><button id = button_3 class = ""square num-button"" onclick = ""recordClick(this)""><div class = content><div class = numbers>3</div></div></button><button id = button_4 class = ""square num-button"" onclick = ""recordClick(this)""><div class = content><div class = numbers>4</div></div></button><button id = button_5 class = ""square num-button"" onclick = ""recordClick(this)""><div class = content><div class = numbers>5</div></div></button><button id = button_6 class = ""square num-button"" onclick = ""recordClick(this)""><div class = content><div class = numbers>6</div></div></button><button id = button_7 class = ""square num-button"" onclick = ""recordClick(this)""><div class = content><div class = numbers>7</div></div></button><button id = button_8 class = ""square num-button"" onclick = ""recordClick(this)""><div class = content><div class = numbers>8</div></div></button><button id = button_9 class = ""square num-button"" onclick = ""recordClick(this)""><div class = content><div class = numbers>9</div></div></button><button class = clear_button id = ""ClearButton"" onclick = ""clearResponse()"">Clear</button><p><u><b>Current Answer:</b></u></p><div id=echoed_txt style=""font-size: 6rem; color:blue;""><b></b></div></div><br><br><br><br><br><br><br>",enter,fwdspan,response,KqplUTYUXfM7senoGiAWctAc1hg2,html-keyboard-response,153,830245,0.0-7.0-2.11-0.11-3.11,9.0,"[2,5,4,9,8,7,1,4,3]","[2,4,5,9,8,7,1,6,3]",0.0,"[3, 4, 5, 6, 6, 7, 8, 9, 10, 10, 9, 9]",,5efb14b20602b4024585eec6,11:26:45,15/01/2024
,,,fwdspan,update_span,KqplUTYUXfM7senoGiAWctAc1hg2,call-function,154,830511,0.0-7.0-2.11-0.11-4.11,,,,,,,5efb14b20602b4024585eec6,11:26:45,15/01/2024
20613.199999999255,,"{'Q0': 'simple clear instructions, thank you'}",fwdspan,survey,KqplUTYUXfM7senoGiAWctAc1hg2,lmdlab-survey-text,155,851877,0.0-7.0-3.0,,,,,,KqplUTYUXfM7senoGiAWctAc1hg2,5efb14b20602b4024585eec6,11:26:45,15/01/2024
1179.699999999255,<p><p style='font-size: 3rem'>Great work!<br><br>This completes the digit span task.</p><br><br><br>,0,fwdspan,finish,KqplUTYUXfM7senoGiAWctAc1hg2,html-button-response,156,853059,0.0-7.0-4.0,,,,,,,5efb14b20602b4024585eec6,11:26:45,15/01/2024
