rt,stimulus,response,exp_name,exp_stage,subjectID,trial_type,trial_index,time_elapsed,internal_node_id,span,answer,correct,correct_full,span_history,databaseID,prolificID,start_time,date
3270.400000002235,"<p style=""font-size:4rem""><br><br>In the next part today, we have a completely different short task.<br><br><br>This part involves keeping numbers in you mind. Participation takes around 5 minutes.<br><br><br></p>",0,fwdspan,instruct,tC3ZvnqBY5XV1zUiy4vW4FYzmqy1,html-button-response,19,306581,0.0-7.0-0.0,,,,,,,6171cdca47e809ea3422e5bf,11:21:20,15/01/2024
7508.89999999851,"<p style=""font-size:5rem"">Welcome to the <b>digit span task</b>!<br><br></p><p style=""font-size:3.4rem""><br>On each trial, you will see a sequence of digits, followed by a delay.</p><p style=""font-size:3.4rem""><br>Then you will be asked to type them back in the same order in which they were seen.</p><p style=""font-size:3.4rem""><br><br><br>For example, if you saw the digits <b style=""color:blue;"">1</b>, <b style=""color:blue;"">2</b>, <b style=""color:blue;"">3</b>, you would respond with <b style=""color:blue;"">1</b>, <b style=""color:blue;"">2</b>, <b style=""color:blue;"">3</b></p><p style=""font-size:3.4rem""><br><br><br>To ensure the best measure of true performance for our study,<br><br>it is very important that you do not use any memory aid (e.g., pen and paper).<br><br>Please do the task solely in your head.</p><p style=""font-size:3.4rem""><br><br><br>There will be 12 total trials. Participation takes around 5 minutes.</p><br><br><br>",0,fwdspan,instruct,tC3ZvnqBY5XV1zUiy4vW4FYzmqy1,html-button-response,20,314093,0.0-7.0-1.0,,,,,,,6171cdca47e809ea3422e5bf,11:21:20,15/01/2024
1523.5,"<p style=""font-size:3rem"">Trial 1 of 12</p><br><br><br>",0,fwdspan,start_trial,tC3ZvnqBY5XV1zUiy4vW4FYzmqy1,html-button-response,21,315620,0.0-7.0-2.0-0.0-0.0,,,,,,,6171cdca47e809ea3422e5bf,11:21:20,15/01/2024
,"<p style=""font-size:14rem;font-weight:400;"">3</p>",,fwdspan,number,tC3ZvnqBY5XV1zUiy4vW4FYzmqy1,html-keyboard-response,22,316625,0.0-7.0-2.0-0.0-1.0-0.0,,,,,,,6171cdca47e809ea3422e5bf,11:21:20,15/01/2024
,"<p style=""font-size:14rem;font-weight:400;"">7</p>",,fwdspan,number,tC3ZvnqBY5XV1zUiy4vW4FYzmqy1,html-keyboard-response,23,317630,0.0-7.0-2.0-0.0-1.1-0.1,,,,,,,6171cdca47e809ea3422e5bf,11:21:20,15/01/2024
,"<p style=""font-size:14rem;font-weight:400;"">4</p>",,fwdspan,number,tC3ZvnqBY5XV1zUiy4vW4FYzmqy1,html-keyboard-response,24,318633,0.0-7.0-2.0-0.0-1.2-0.2,,,,,,,6171cdca47e809ea3422e5bf,11:21:20,15/01/2024
,[],,fwdspan,delay,tC3ZvnqBY5XV1zUiy4vW4FYzmqy1,html-keyboard-response,25,319187,0.0-7.0-2.0-0.0-2.0,,,,,,,6171cdca47e809ea3422e5bf,11:21:20,15/01/2024
5410.300000000745,"<div class = numbox><p style=""font-size:2.5rem"">What were the numbers <b>in order</b>?<br>(When you are ready to lock in your answer, press <b>ENTER</b>)</p><button id = button_1 class = ""square num-button"" onclick = ""recordClick(this)""><div class = content><div class = numbers>1</div></div></button><button id = button_2 class = ""square num-button"" onclick = ""recordClick(this)""><div class = content><div class = numbers>2</div></div></button><button id = button_3 class = ""square num-button"" onclick = ""recordClick(this)""><div class = content><div class = numbers>3</div></div></button><button id = button_4 class = ""square num-button"" onclick = ""recordClick(this)""><div class = content><div class = numbers>4</div></div></button><button id = button_5 class = ""square num-button"" onclick = ""recordClick(this)""><div class = content><div class = numbers>5</div></div></button><button id = button_6 class = ""square num-button"" onclick = ""recordClick(this)""><div class = content><div class = numbers>6</div></div></button><button id = button_7 class = ""square num-button"" onclick = ""recordClick(this)""><div class = content><div class = numbers>7</div></div></button><button id = button_8 class = ""square num-button"" onclick = ""recordClick(this)""><div class = content><div class = numbers>8</div></div></button><button id = button_9 class = ""square num-button"" onclick = ""recordClick(this)""><div class = content><div class = numbers>9</div></div></button><button class = clear_button id = ""ClearButton"" onclick = ""clearResponse()"">Clear</button><p><u><b>Current Answer:</b></u></p><div id=echoed_txt style=""font-size: 6rem; color:blue;""><b></b></div></div><br><br><br><br><br><br><br>",enter,fwdspan,response,tC3ZvnqBY5XV1zUiy4vW4FYzmqy1,html-keyboard-response,26,324600,0.0-7.0-2.0-0.0-3.0,3.0,"[3,7,4]","[3,7,4]",1.0,"[3, 4, 5, 6, 6, 7, 8, 8, 7, 7, 6, 6]",,6171cdca47e809ea3422e5bf,11:21:20,15/01/2024
,,,fwdspan,update_span,tC3ZvnqBY5XV1zUiy4vW4FYzmqy1,call-function,27,324855,0.0-7.0-2.0-0.0-4.0,,,,,,,6171cdca47e809ea3422e5bf,11:21:20,15/01/2024
2550.0,"<p style=""font-size:3rem"">Trial 2 of 12</p><br><br><br>",0,fwdspan,start_trial,tC3ZvnqBY5XV1zUiy4vW4FYzmqy1,html-button-response,28,327406,0.0-7.0-2.1-0.1-0.1,,,,,,,6171cdca47e809ea3422e5bf,11:21:20,15/01/2024
,"<p style=""font-size:14rem;font-weight:400;"">8</p>",,fwdspan,number,tC3ZvnqBY5XV1zUiy4vW4FYzmqy1,html-keyboard-response,29,328409,0.0-7.0-2.1-0.1-1.3-0.3,,,,,,,6171cdca47e809ea3422e5bf,11:21:20,15/01/2024
,"<p style=""font-size:14rem;font-weight:400;"">5</p>",,fwdspan,number,tC3ZvnqBY5XV1zUiy4vW4FYzmqy1,html-keyboard-response,30,329414,0.0-7.0-2.1-0.1-1.4-0.4,,,,,,,6171cdca47e809ea3422e5bf,11:21:20,15/01/2024
,"<p style=""font-size:14rem;font-weight:400;"">9</p>",,fwdspan,number,tC3ZvnqBY5XV1zUiy4vW4FYzmqy1,html-keyboard-response,31,330418,0.0-7.0-2.1-0.1-1.5-0.5,,,,,,,6171cdca47e809ea3422e5bf,11:21:20,15/01/2024
,"<p style=""font-size:14rem;font-weight:400;"">1</p>",,fwdspan,number,tC3ZvnqBY5XV1zUiy4vW4FYzmqy1,html-keyboard-response,32,331422,0.0-7.0-2.1-0.1-1.6-0.6,,,,,,,6171cdca47e809ea3422e5bf,11:21:20,15/01/2024
,[],,fwdspan,delay,tC3ZvnqBY5XV1zUiy4vW4FYzmqy1,html-keyboard-response,33,331976,0.0-7.0-2.1-0.1-2.1,,,,,,,6171cdca47e809ea3422e5bf,11:21:20,15/01/2024
5314.400000002235,"<div class = numbox><p style=""font-size:2.5rem"">What were the numbers <b>in order</b>?<br>(When you are ready to lock in your answer, press <b>ENTER</b>)</p><button id = button_1 class = ""square num-button"" onclick = ""recordClick(this)""><div class = content><div class = numbers>1</div></div></button><button id = button_2 class = ""square num-button"" onclick = ""recordClick(this)""><div class = content><div class = numbers>2</div></div></button><button id = button_3 class = ""square num-button"" onclick = ""recordClick(this)""><div class = content><div class = numbers>3</div></div></button><button id = button_4 class = ""square num-button"" onclick = ""recordClick(this)""><div class = content><div class = numbers>4</div></div></button><button id = button_5 class = ""square num-button"" onclick = ""recordClick(this)""><div class = content><div class = numbers>5</div></div></button><button id = button_6 class = ""square num-button"" onclick = ""recordClick(this)""><div class = content><div class = numbers>6</div></div></button><button id = button_7 class = ""square num-button"" onclick = ""recordClick(this)""><div class = content><div class = numbers>7</div></div></button><button id = button_8 class = ""square num-button"" onclick = ""recordClick(this)""><div class = content><div class = numbers>8</div></div></button><button id = button_9 class = ""square num-button"" onclick = ""recordClick(this)""><div class = content><div class = numbers>9</div></div></button><button class = clear_button id = ""ClearButton"" onclick = ""clearResponse()"">Clear</button><p><u><b>Current Answer:</b></u></p><div id=echoed_txt style=""font-size: 6rem; color:blue;""><b></b></div></div><br><br><br><br><br><br><br>",enter,fwdspan,response,tC3ZvnqBY5XV1zUiy4vW4FYzmqy1,html-keyboard-response,34,337292,0.0-7.0-2.1-0.1-3.1,4.0,"[8,5,9,1]","[8,5,9,1]",1.0,"[3, 4, 5, 6, 6, 7, 8, 8, 7, 7, 6, 6]",,6171cdca47e809ea3422e5bf,11:21:20,15/01/2024
,,,fwdspan,update_span,tC3ZvnqBY5XV1zUiy4vW4FYzmqy1,call-function,35,337546,0.0-7.0-2.1-0.1-4.1,,,,,,,6171cdca47e809ea3422e5bf,11:21:20,15/01/2024
925.4000000022352,"<p style=""font-size:3rem"">Trial 3 of 12</p><br><br><br>",0,fwdspan,start_trial,tC3ZvnqBY5XV1zUiy4vW4FYzmqy1,html-button-response,36,338473,0.0-7.0-2.2-0.2-0.2,,,,,,,6171cdca47e809ea3422e5bf,11:21:20,15/01/2024
,"<p style=""font-size:14rem;font-weight:400;"">5</p>",,fwdspan,number,tC3ZvnqBY5XV1zUiy4vW4FYzmqy1,html-keyboard-response,37,339475,0.0-7.0-2.2-0.2-1.7-0.7,,,,,,,6171cdca47e809ea3422e5bf,11:21:20,15/01/2024
,"<p style=""font-size:14rem;font-weight:400;"">4</p>",,fwdspan,number,tC3ZvnqBY5XV1zUiy4vW4FYzmqy1,html-keyboard-response,38,340479,0.0-7.0-2.2-0.2-1.8-0.8,,,,,,,6171cdca47e809ea3422e5bf,11:21:20,15/01/2024
,"<p style=""font-size:14rem;font-weight:400;"">6</p>",,fwdspan,number,tC3ZvnqBY5XV1zUiy4vW4FYzmqy1,html-keyboard-response,39,341482,0.0-7.0-2.2-0.2-1.9-0.9,,,,,,,6171cdca47e809ea3422e5bf,11:21:20,15/01/2024
,"<p style=""font-size:14rem;font-weight:400;"">3</p>",,fwdspan,number,tC3ZvnqBY5XV1zUiy4vW4FYzmqy1,html-keyboard-response,40,342487,0.0-7.0-2.2-0.2-1.10-0.10,,,,,,,6171cdca47e809ea3422e5bf,11:21:20,15/01/2024
,"<p style=""font-size:14rem;font-weight:400;"">8</p>",,fwdspan,number,tC3ZvnqBY5XV1zUiy4vW4FYzmqy1,html-keyboard-response,41,343489,0.0-7.0-2.2-0.2-1.11-0.11,,,,,,,6171cdca47e809ea3422e5bf,11:21:20,15/01/2024
,[],,fwdspan,delay,tC3ZvnqBY5XV1zUiy4vW4FYzmqy1,html-keyboard-response,42,344044,0.0-7.0-2.2-0.2-2.2,,,,,,,6171cdca47e809ea3422e5bf,11:21:20,15/01/2024
4399.39999999851,"<div class = numbox><p style=""font-size:2.5rem"">What were the numbers <b>in order</b>?<br>(When you are ready to lock in your answer, press <b>ENTER</b>)</p><button id = button_1 class = ""square num-button"" onclick = ""recordClick(this)""><div class = content><div class = numbers>1</div></div></button><button id = button_2 class = ""square num-button"" onclick = ""recordClick(this)""><div class = content><div class = numbers>2</div></div></button><button id = button_3 class = ""square num-button"" onclick = ""recordClick(this)""><div class = content><div class = numbers>3</div></div></button><button id = button_4 class = ""square num-button"" onclick = ""recordClick(this)""><div class = content><div class = numbers>4</div></div></button><button id = button_5 class = ""square num-button"" onclick = ""recordClick(this)""><div class = content><div class = numbers>5</div></div></button><button id = button_6 class = ""square num-button"" onclick = ""recordClick(this)""><div class = content><div class = numbers>6</div></div></button><button id = button_7 class = ""square num-button"" onclick = ""recordClick(this)""><div class = content><div class = numbers>7</div></div></button><button id = button_8 class = ""square num-button"" onclick = ""recordClick(this)""><div class = content><div class = numbers>8</div></div></button><button id = button_9 class = ""square num-button"" onclick = ""recordClick(this)""><div class = content><div class = numbers>9</div></div></button><button class = clear_button id = ""ClearButton"" onclick = ""clearResponse()"">Clear</button><p><u><b>Current Answer:</b></u></p><div id=echoed_txt style=""font-size: 6rem; color:blue;""><b></b></div></div><br><br><br><br><br><br><br>",enter,fwdspan,response,tC3ZvnqBY5XV1zUiy4vW4FYzmqy1,html-keyboard-response,43,348445,0.0-7.0-2.2-0.2-3.2,5.0,"[5,4,6,3,8]","[5,4,6,3,8]",1.0,"[3, 4, 5, 6, 6, 7, 8, 8, 7, 7, 6, 6]",,6171cdca47e809ea3422e5bf,11:21:20,15/01/2024
,,,fwdspan,update_span,tC3ZvnqBY5XV1zUiy4vW4FYzmqy1,call-function,44,348697,0.0-7.0-2.2-0.2-4.2,,,,,,,6171cdca47e809ea3422e5bf,11:21:20,15/01/2024
1641.699999999255,"<p style=""font-size:3rem"">Trial 4 of 12</p><br><br><br>",0,fwdspan,start_trial,tC3ZvnqBY5XV1zUiy4vW4FYzmqy1,html-button-response,45,350340,0.0-7.0-2.3-0.3-0.3,,,,,,,6171cdca47e809ea3422e5bf,11:21:20,15/01/2024
,"<p style=""font-size:14rem;font-weight:400;"">3</p>",,fwdspan,number,tC3ZvnqBY5XV1zUiy4vW4FYzmqy1,html-keyboard-response,46,351343,0.0-7.0-2.3-0.3-1.12-0.12,,,,,,,6171cdca47e809ea3422e5bf,11:21:20,15/01/2024
,"<p style=""font-size:14rem;font-weight:400;"">5</p>",,fwdspan,number,tC3ZvnqBY5XV1zUiy4vW4FYzmqy1,html-keyboard-response,47,352347,0.0-7.0-2.3-0.3-1.13-0.13,,,,,,,6171cdca47e809ea3422e5bf,11:21:20,15/01/2024
,"<p style=""font-size:14rem;font-weight:400;"">7</p>",,fwdspan,number,tC3ZvnqBY5XV1zUiy4vW4FYzmqy1,html-keyboard-response,48,353349,0.0-7.0-2.3-0.3-1.14-0.14,,,,,,,6171cdca47e809ea3422e5bf,11:21:20,15/01/2024
,"<p style=""font-size:14rem;font-weight:400;"">6</p>",,fwdspan,number,tC3ZvnqBY5XV1zUiy4vW4FYzmqy1,html-keyboard-response,49,354352,0.0-7.0-2.3-0.3-1.15-0.15,,,,,,,6171cdca47e809ea3422e5bf,11:21:20,15/01/2024
,"<p style=""font-size:14rem;font-weight:400;"">9</p>",,fwdspan,number,tC3ZvnqBY5XV1zUiy4vW4FYzmqy1,html-keyboard-response,50,355355,0.0-7.0-2.3-0.3-1.16-0.16,,,,,,,6171cdca47e809ea3422e5bf,11:21:20,15/01/2024
,"<p style=""font-size:14rem;font-weight:400;"">1</p>",,fwdspan,number,tC3ZvnqBY5XV1zUiy4vW4FYzmqy1,html-keyboard-response,51,356358,0.0-7.0-2.3-0.3-1.17-0.17,,,,,,,6171cdca47e809ea3422e5bf,11:21:20,15/01/2024
,[],,fwdspan,delay,tC3ZvnqBY5XV1zUiy4vW4FYzmqy1,html-keyboard-response,52,356911,0.0-7.0-2.3-0.3-2.3,,,,,,,6171cdca47e809ea3422e5bf,11:21:20,15/01/2024
6117.5,"<div class = numbox><p style=""font-size:2.5rem"">What were the numbers <b>in order</b>?<br>(When you are ready to lock in your answer, press <b>ENTER</b>)</p><button id = button_1 class = ""square num-button"" onclick = ""recordClick(this)""><div class = content><div class = numbers>1</div></div></button><button id = button_2 class = ""square num-button"" onclick = ""recordClick(this)""><div class = content><div class = numbers>2</div></div></button><button id = button_3 class = ""square num-button"" onclick = ""recordClick(this)""><div class = content><div class = numbers>3</div></div></button><button id = button_4 class = ""square num-button"" onclick = ""recordClick(this)""><div class = content><div class = numbers>4</div></div></button><button id = button_5 class = ""square num-button"" onclick = ""recordClick(this)""><div class = content><div class = numbers>5</div></div></button><button id = button_6 class = ""square num-button"" onclick = ""recordClick(this)""><div class = content><div class = numbers>6</div></div></button><button id = button_7 class = ""square num-button"" onclick = ""recordClick(this)""><div class = content><div class = numbers>7</div></div></button><button id = button_8 class = ""square num-button"" onclick = ""recordClick(this)""><div class = content><div class = numbers>8</div></div></button><button id = button_9 class = ""square num-button"" onclick = ""recordClick(this)""><div class = content><div class = numbers>9</div></div></button><button class = clear_button id = ""ClearButton"" onclick = ""clearResponse()"">Clear</button><p><u><b>Current Answer:</b></u></p><div id=echoed_txt style=""font-size: 6rem; color:blue;""><b></b></div></div><br><br><br><br><br><br><br>",enter,fwdspan,response,tC3ZvnqBY5XV1zUiy4vW4FYzmqy1,html-keyboard-response,53,363030,0.0-7.0-2.3-0.3-3.3,6.0,"[3,5,9,7,6,1]","[3,5,7,6,9,1]",0.0,"[3, 4, 5, 6, 6, 7, 8, 8, 7, 7, 6, 6]",,6171cdca47e809ea3422e5bf,11:21:20,15/01/2024
,,,fwdspan,update_span,tC3ZvnqBY5XV1zUiy4vW4FYzmqy1,call-function,54,363283,0.0-7.0-2.3-0.3-4.3,,,,,,,6171cdca47e809ea3422e5bf,11:21:20,15/01/2024
1521.300000000745,"<p style=""font-size:3rem"">Trial 5 of 12</p><br><br><br>",0,fwdspan,start_trial,tC3ZvnqBY5XV1zUiy4vW4FYzmqy1,html-button-response,55,364806,0.0-7.0-2.4-0.4-0.4,,,,,,,6171cdca47e809ea3422e5bf,11:21:20,15/01/2024
,"<p style=""font-size:14rem;font-weight:400;"">9</p>",,fwdspan,number,tC3ZvnqBY5XV1zUiy4vW4FYzmqy1,html-keyboard-response,56,365808,0.0-7.0-2.4-0.4-1.18-0.18,,,,,,,6171cdca47e809ea3422e5bf,11:21:20,15/01/2024
,"<p style=""font-size:14rem;font-weight:400;"">2</p>",,fwdspan,number,tC3ZvnqBY5XV1zUiy4vW4FYzmqy1,html-keyboard-response,57,366812,0.0-7.0-2.4-0.4-1.19-0.19,,,,,,,6171cdca47e809ea3422e5bf,11:21:20,15/01/2024
,"<p style=""font-size:14rem;font-weight:400;"">7</p>",,fwdspan,number,tC3ZvnqBY5XV1zUiy4vW4FYzmqy1,html-keyboard-response,58,367815,0.0-7.0-2.4-0.4-1.20-0.20,,,,,,,6171cdca47e809ea3422e5bf,11:21:20,15/01/2024
,"<p style=""font-size:14rem;font-weight:400;"">6</p>",,fwdspan,number,tC3ZvnqBY5XV1zUiy4vW4FYzmqy1,html-keyboard-response,59,368819,0.0-7.0-2.4-0.4-1.21-0.21,,,,,,,6171cdca47e809ea3422e5bf,11:21:20,15/01/2024
,"<p style=""font-size:14rem;font-weight:400;"">1</p>",,fwdspan,number,tC3ZvnqBY5XV1zUiy4vW4FYzmqy1,html-keyboard-response,60,369824,0.0-7.0-2.4-0.4-1.22-0.22,,,,,,,6171cdca47e809ea3422e5bf,11:21:20,15/01/2024
,"<p style=""font-size:14rem;font-weight:400;"">8</p>",,fwdspan,number,tC3ZvnqBY5XV1zUiy4vW4FYzmqy1,html-keyboard-response,61,370829,0.0-7.0-2.4-0.4-1.23-0.23,,,,,,,6171cdca47e809ea3422e5bf,11:21:20,15/01/2024
,[],,fwdspan,delay,tC3ZvnqBY5XV1zUiy4vW4FYzmqy1,html-keyboard-response,62,371382,0.0-7.0-2.4-0.4-2.4,,,,,,,6171cdca47e809ea3422e5bf,11:21:20,15/01/2024
4978.5,"<div class = numbox><p style=""font-size:2.5rem"">What were the numbers <b>in order</b>?<br>(When you are ready to lock in your answer, press <b>ENTER</b>)</p><button id = button_1 class = ""square num-button"" onclick = ""recordClick(this)""><div class = content><div class = numbers>1</div></div></button><button id = button_2 class = ""square num-button"" onclick = ""recordClick(this)""><div class = content><div class = numbers>2</div></div></button><button id = button_3 class = ""square num-button"" onclick = ""recordClick(this)""><div class = content><div class = numbers>3</div></div></button><button id = button_4 class = ""square num-button"" onclick = ""recordClick(this)""><div class = content><div class = numbers>4</div></div></button><button id = button_5 class = ""square num-button"" onclick = ""recordClick(this)""><div class = content><div class = numbers>5</div></div></button><button id = button_6 class = ""square num-button"" onclick = ""recordClick(this)""><div class = content><div class = numbers>6</div></div></button><button id = button_7 class = ""square num-button"" onclick = ""recordClick(this)""><div class = content><div class = numbers>7</div></div></button><button id = button_8 class = ""square num-button"" onclick = ""recordClick(this)""><div class = content><div class = numbers>8</div></div></button><button id = button_9 class = ""square num-button"" onclick = ""recordClick(this)""><div class = content><div class = numbers>9</div></div></button><button class = clear_button id = ""ClearButton"" onclick = ""clearResponse()"">Clear</button><p><u><b>Current Answer:</b></u></p><div id=echoed_txt style=""font-size: 6rem; color:blue;""><b></b></div></div><br><br><br><br><br><br><br>",enter,fwdspan,response,tC3ZvnqBY5XV1zUiy4vW4FYzmqy1,html-keyboard-response,63,376363,0.0-7.0-2.4-0.4-3.4,6.0,"[9,2,7,6,1,8]","[9,2,7,6,1,8]",1.0,"[3, 4, 5, 6, 6, 7, 8, 8, 7, 7, 6, 6]",,6171cdca47e809ea3422e5bf,11:21:20,15/01/2024
,,,fwdspan,update_span,tC3ZvnqBY5XV1zUiy4vW4FYzmqy1,call-function,64,376615,0.0-7.0-2.4-0.4-4.4,,,,,,,6171cdca47e809ea3422e5bf,11:21:20,15/01/2024
892.0999999977648,"<p style=""font-size:3rem"">Trial 6 of 12</p><br><br><br>",0,fwdspan,start_trial,tC3ZvnqBY5XV1zUiy4vW4FYzmqy1,html-button-response,65,377509,0.0-7.0-2.5-0.5-0.5,,,,,,,6171cdca47e809ea3422e5bf,11:21:20,15/01/2024
,"<p style=""font-size:14rem;font-weight:400;"">9</p>",,fwdspan,number,tC3ZvnqBY5XV1zUiy4vW4FYzmqy1,html-keyboard-response,66,378511,0.0-7.0-2.5-0.5-1.24-0.24,,,,,,,6171cdca47e809ea3422e5bf,11:21:20,15/01/2024
,"<p style=""font-size:14rem;font-weight:400;"">8</p>",,fwdspan,number,tC3ZvnqBY5XV1zUiy4vW4FYzmqy1,html-keyboard-response,67,379516,0.0-7.0-2.5-0.5-1.25-0.25,,,,,,,6171cdca47e809ea3422e5bf,11:21:20,15/01/2024
,"<p style=""font-size:14rem;font-weight:400;"">7</p>",,fwdspan,number,tC3ZvnqBY5XV1zUiy4vW4FYzmqy1,html-keyboard-response,68,380520,0.0-7.0-2.5-0.5-1.26-0.26,,,,,,,6171cdca47e809ea3422e5bf,11:21:20,15/01/2024
,"<p style=""font-size:14rem;font-weight:400;"">1</p>",,fwdspan,number,tC3ZvnqBY5XV1zUiy4vW4FYzmqy1,html-keyboard-response,69,381525,0.0-7.0-2.5-0.5-1.27-0.27,,,,,,,6171cdca47e809ea3422e5bf,11:21:20,15/01/2024
,"<p style=""font-size:14rem;font-weight:400;"">2</p>",,fwdspan,number,tC3ZvnqBY5XV1zUiy4vW4FYzmqy1,html-keyboard-response,70,382530,0.0-7.0-2.5-0.5-1.28-0.28,,,,,,,6171cdca47e809ea3422e5bf,11:21:20,15/01/2024
,"<p style=""font-size:14rem;font-weight:400;"">5</p>",,fwdspan,number,tC3ZvnqBY5XV1zUiy4vW4FYzmqy1,html-keyboard-response,71,383533,0.0-7.0-2.5-0.5-1.29-0.29,,,,,,,6171cdca47e809ea3422e5bf,11:21:20,15/01/2024
,"<p style=""font-size:14rem;font-weight:400;"">6</p>",,fwdspan,number,tC3ZvnqBY5XV1zUiy4vW4FYzmqy1,html-keyboard-response,72,384536,0.0-7.0-2.5-0.5-1.30-0.30,,,,,,,6171cdca47e809ea3422e5bf,11:21:20,15/01/2024
,[],,fwdspan,delay,tC3ZvnqBY5XV1zUiy4vW4FYzmqy1,html-keyboard-response,73,385089,0.0-7.0-2.5-0.5-2.5,,,,,,,6171cdca47e809ea3422e5bf,11:21:20,15/01/2024
5885.39999999851,"<div class = numbox><p style=""font-size:2.5rem"">What were the numbers <b>in order</b>?<br>(When you are ready to lock in your answer, press <b>ENTER</b>)</p><button id = button_1 class = ""square num-button"" onclick = ""recordClick(this)""><div class = content><div class = numbers>1</div></div></button><button id = button_2 class = ""square num-button"" onclick = ""recordClick(this)""><div class = content><div class = numbers>2</div></div></button><button id = button_3 class = ""square num-button"" onclick = ""recordClick(this)""><div class = content><div class = numbers>3</div></div></button><button id = button_4 class = ""square num-button"" onclick = ""recordClick(this)""><div class = content><div class = numbers>4</div></div></button><button id = button_5 class = ""square num-button"" onclick = ""recordClick(this)""><div class = content><div class = numbers>5</div></div></button><button id = button_6 class = ""square num-button"" onclick = ""recordClick(this)""><div class = content><div class = numbers>6</div></div></button><button id = button_7 class = ""square num-button"" onclick = ""recordClick(this)""><div class = content><div class = numbers>7</div></div></button><button id = button_8 class = ""square num-button"" onclick = ""recordClick(this)""><div class = content><div class = numbers>8</div></div></button><button id = button_9 class = ""square num-button"" onclick = ""recordClick(this)""><div class = content><div class = numbers>9</div></div></button><button class = clear_button id = ""ClearButton"" onclick = ""clearResponse()"">Clear</button><p><u><b>Current Answer:</b></u></p><div id=echoed_txt style=""font-size: 6rem; color:blue;""><b></b></div></div><br><br><br><br><br><br><br>",enter,fwdspan,response,tC3ZvnqBY5XV1zUiy4vW4FYzmqy1,html-keyboard-response,74,390976,0.0-7.0-2.5-0.5-3.5,7.0,"[9,8,7,1,2,5,6]","[9,8,7,1,2,5,6]",1.0,"[3, 4, 5, 6, 6, 7, 8, 8, 7, 7, 6, 6]",,6171cdca47e809ea3422e5bf,11:21:20,15/01/2024
,,,fwdspan,update_span,tC3ZvnqBY5XV1zUiy4vW4FYzmqy1,call-function,75,391229,0.0-7.0-2.5-0.5-4.5,,,,,,,6171cdca47e809ea3422e5bf,11:21:20,15/01/2024
1232.300000000745,"<p style=""font-size:3rem"">Trial 7 of 12</p><br><br><br>",0,fwdspan,start_trial,tC3ZvnqBY5XV1zUiy4vW4FYzmqy1,html-button-response,76,392463,0.0-7.0-2.6-0.6-0.6,,,,,,,6171cdca47e809ea3422e5bf,11:21:20,15/01/2024
,"<p style=""font-size:14rem;font-weight:400;"">4</p>",,fwdspan,number,tC3ZvnqBY5XV1zUiy4vW4FYzmqy1,html-keyboard-response,77,393467,0.0-7.0-2.6-0.6-1.31-0.31,,,,,,,6171cdca47e809ea3422e5bf,11:21:20,15/01/2024
,"<p style=""font-size:14rem;font-weight:400;"">6</p>",,fwdspan,number,tC3ZvnqBY5XV1zUiy4vW4FYzmqy1,html-keyboard-response,78,394470,0.0-7.0-2.6-0.6-1.32-0.32,,,,,,,6171cdca47e809ea3422e5bf,11:21:20,15/01/2024
,"<p style=""font-size:14rem;font-weight:400;"">8</p>",,fwdspan,number,tC3ZvnqBY5XV1zUiy4vW4FYzmqy1,html-keyboard-response,79,395474,0.0-7.0-2.6-0.6-1.33-0.33,,,,,,,6171cdca47e809ea3422e5bf,11:21:20,15/01/2024
,"<p style=""font-size:14rem;font-weight:400;"">2</p>",,fwdspan,number,tC3ZvnqBY5XV1zUiy4vW4FYzmqy1,html-keyboard-response,80,396477,0.0-7.0-2.6-0.6-1.34-0.34,,,,,,,6171cdca47e809ea3422e5bf,11:21:20,15/01/2024
,"<p style=""font-size:14rem;font-weight:400;"">3</p>",,fwdspan,number,tC3ZvnqBY5XV1zUiy4vW4FYzmqy1,html-keyboard-response,81,397480,0.0-7.0-2.6-0.6-1.35-0.35,,,,,,,6171cdca47e809ea3422e5bf,11:21:20,15/01/2024
,"<p style=""font-size:14rem;font-weight:400;"">5</p>",,fwdspan,number,tC3ZvnqBY5XV1zUiy4vW4FYzmqy1,html-keyboard-response,82,398484,0.0-7.0-2.6-0.6-1.36-0.36,,,,,,,6171cdca47e809ea3422e5bf,11:21:20,15/01/2024
,"<p style=""font-size:14rem;font-weight:400;"">9</p>",,fwdspan,number,tC3ZvnqBY5XV1zUiy4vW4FYzmqy1,html-keyboard-response,83,399487,0.0-7.0-2.6-0.6-1.37-0.37,,,,,,,6171cdca47e809ea3422e5bf,11:21:20,15/01/2024
,"<p style=""font-size:14rem;font-weight:400;"">7</p>",,fwdspan,number,tC3ZvnqBY5XV1zUiy4vW4FYzmqy1,html-keyboard-response,84,400492,0.0-7.0-2.6-0.6-1.38-0.38,,,,,,,6171cdca47e809ea3422e5bf,11:21:20,15/01/2024
,[],,fwdspan,delay,tC3ZvnqBY5XV1zUiy4vW4FYzmqy1,html-keyboard-response,85,401046,0.0-7.0-2.6-0.6-2.6,,,,,,,6171cdca47e809ea3422e5bf,11:21:20,15/01/2024
8480.800000000745,"<div class = numbox><p style=""font-size:2.5rem"">What were the numbers <b>in order</b>?<br>(When you are ready to lock in your answer, press <b>ENTER</b>)</p><button id = button_1 class = ""square num-button"" onclick = ""recordClick(this)""><div class = content><div class = numbers>1</div></div></button><button id = button_2 class = ""square num-button"" onclick = ""recordClick(this)""><div class = content><div class = numbers>2</div></div></button><button id = button_3 class = ""square num-button"" onclick = ""recordClick(this)""><div class = content><div class = numbers>3</div></div></button><button id = button_4 class = ""square num-button"" onclick = ""recordClick(this)""><div class = content><div class = numbers>4</div></div></button><button id = button_5 class = ""square num-button"" onclick = ""recordClick(this)""><div class = content><div class = numbers>5</div></div></button><button id = button_6 class = ""square num-button"" onclick = ""recordClick(this)""><div class = content><div class = numbers>6</div></div></button><button id = button_7 class = ""square num-button"" onclick = ""recordClick(this)""><div class = content><div class = numbers>7</div></div></button><button id = button_8 class = ""square num-button"" onclick = ""recordClick(this)""><div class = content><div class = numbers>8</div></div></button><button id = button_9 class = ""square num-button"" onclick = ""recordClick(this)""><div class = content><div class = numbers>9</div></div></button><button class = clear_button id = ""ClearButton"" onclick = ""clearResponse()"">Clear</button><p><u><b>Current Answer:</b></u></p><div id=echoed_txt style=""font-size: 6rem; color:blue;""><b></b></div></div><br><br><br><br><br><br><br>",enter,fwdspan,response,tC3ZvnqBY5XV1zUiy4vW4FYzmqy1,html-keyboard-response,86,409529,0.0-7.0-2.6-0.6-3.6,8.0,"[4,5,6,3,8,2,7]","[4,6,8,2,3,5,9,7]",0.0,"[3, 4, 5, 6, 6, 7, 8, 8, 7, 7, 6, 6]",,6171cdca47e809ea3422e5bf,11:21:20,15/01/2024
,,,fwdspan,update_span,tC3ZvnqBY5XV1zUiy4vW4FYzmqy1,call-function,87,409783,0.0-7.0-2.6-0.6-4.6,,,,,,,6171cdca47e809ea3422e5bf,11:21:20,15/01/2024
2535.5,"<p style=""font-size:3rem"">Trial 8 of 12</p><br><br><br>",0,fwdspan,start_trial,tC3ZvnqBY5XV1zUiy4vW4FYzmqy1,html-button-response,88,412319,0.0-7.0-2.7-0.7-0.7,,,,,,,6171cdca47e809ea3422e5bf,11:21:20,15/01/2024
,"<p style=""font-size:14rem;font-weight:400;"">3</p>",,fwdspan,number,tC3ZvnqBY5XV1zUiy4vW4FYzmqy1,html-keyboard-response,89,413321,0.0-7.0-2.7-0.7-1.39-0.39,,,,,,,6171cdca47e809ea3422e5bf,11:21:20,15/01/2024
,"<p style=""font-size:14rem;font-weight:400;"">4</p>",,fwdspan,number,tC3ZvnqBY5XV1zUiy4vW4FYzmqy1,html-keyboard-response,90,414326,0.0-7.0-2.7-0.7-1.40-0.40,,,,,,,6171cdca47e809ea3422e5bf,11:21:20,15/01/2024
,"<p style=""font-size:14rem;font-weight:400;"">2</p>",,fwdspan,number,tC3ZvnqBY5XV1zUiy4vW4FYzmqy1,html-keyboard-response,91,415329,0.0-7.0-2.7-0.7-1.41-0.41,,,,,,,6171cdca47e809ea3422e5bf,11:21:20,15/01/2024
,"<p style=""font-size:14rem;font-weight:400;"">8</p>",,fwdspan,number,tC3ZvnqBY5XV1zUiy4vW4FYzmqy1,html-keyboard-response,92,416332,0.0-7.0-2.7-0.7-1.42-0.42,,,,,,,6171cdca47e809ea3422e5bf,11:21:20,15/01/2024
,"<p style=""font-size:14rem;font-weight:400;"">7</p>",,fwdspan,number,tC3ZvnqBY5XV1zUiy4vW4FYzmqy1,html-keyboard-response,93,417334,0.0-7.0-2.7-0.7-1.43-0.43,,,,,,,6171cdca47e809ea3422e5bf,11:21:20,15/01/2024
,"<p style=""font-size:14rem;font-weight:400;"">9</p>",,fwdspan,number,tC3ZvnqBY5XV1zUiy4vW4FYzmqy1,html-keyboard-response,94,418336,0.0-7.0-2.7-0.7-1.44-0.44,,,,,,,6171cdca47e809ea3422e5bf,11:21:20,15/01/2024
,"<p style=""font-size:14rem;font-weight:400;"">6</p>",,fwdspan,number,tC3ZvnqBY5XV1zUiy4vW4FYzmqy1,html-keyboard-response,95,419339,0.0-7.0-2.7-0.7-1.45-0.45,,,,,,,6171cdca47e809ea3422e5bf,11:21:20,15/01/2024
,"<p style=""font-size:14rem;font-weight:400;"">5</p>",,fwdspan,number,tC3ZvnqBY5XV1zUiy4vW4FYzmqy1,html-keyboard-response,96,420343,0.0-7.0-2.7-0.7-1.46-0.46,,,,,,,6171cdca47e809ea3422e5bf,11:21:20,15/01/2024
,[],,fwdspan,delay,tC3ZvnqBY5XV1zUiy4vW4FYzmqy1,html-keyboard-response,97,420897,0.0-7.0-2.7-0.7-2.7,,,,,,,6171cdca47e809ea3422e5bf,11:21:20,15/01/2024
11142.099999997765,"<div class = numbox><p style=""font-size:2.5rem"">What were the numbers <b>in order</b>?<br>(When you are ready to lock in your answer, press <b>ENTER</b>)</p><button id = button_1 class = ""square num-button"" onclick = ""recordClick(this)""><div class = content><div class = numbers>1</div></div></button><button id = button_2 class = ""square num-button"" onclick = ""recordClick(this)""><div class = content><div class = numbers>2</div></div></button><button id = button_3 class = ""square num-button"" onclick = ""recordClick(this)""><div class = content><div class = numbers>3</div></div></button><button id = button_4 class = ""square num-button"" onclick = ""recordClick(this)""><div class = content><div class = numbers>4</div></div></button><button id = button_5 class = ""square num-button"" onclick = ""recordClick(this)""><div class = content><div class = numbers>5</div></div></button><button id = button_6 class = ""square num-button"" onclick = ""recordClick(this)""><div class = content><div class = numbers>6</div></div></button><button id = button_7 class = ""square num-button"" onclick = ""recordClick(this)""><div class = content><div class = numbers>7</div></div></button><button id = button_8 class = ""square num-button"" onclick = ""recordClick(this)""><div class = content><div class = numbers>8</div></div></button><button id = button_9 class = ""square num-button"" onclick = ""recordClick(this)""><div class = content><div class = numbers>9</div></div></button><button class = clear_button id = ""ClearButton"" onclick = ""clearResponse()"">Clear</button><p><u><b>Current Answer:</b></u></p><div id=echoed_txt style=""font-size: 6rem; color:blue;""><b></b></div></div><br><br><br><br><br><br><br>",enter,fwdspan,response,tC3ZvnqBY5XV1zUiy4vW4FYzmqy1,html-keyboard-response,98,432041,0.0-7.0-2.7-0.7-3.7,8.0,"[3,4,2,7,8,6,9]","[3,4,2,8,7,9,6,5]",0.0,"[3, 4, 5, 6, 6, 7, 8, 8, 7, 7, 6, 6]",,6171cdca47e809ea3422e5bf,11:21:20,15/01/2024
,,,fwdspan,update_span,tC3ZvnqBY5XV1zUiy4vW4FYzmqy1,call-function,99,432295,0.0-7.0-2.7-0.7-4.7,,,,,,,6171cdca47e809ea3422e5bf,11:21:20,15/01/2024
975.3999999985099,"<p style=""font-size:3rem"">Trial 9 of 12</p><br><br><br>",0,fwdspan,start_trial,tC3ZvnqBY5XV1zUiy4vW4FYzmqy1,html-button-response,100,433272,0.0-7.0-2.8-0.8-0.8,,,,,,,6171cdca47e809ea3422e5bf,11:21:20,15/01/2024
,"<p style=""font-size:14rem;font-weight:400;"">7</p>",,fwdspan,number,tC3ZvnqBY5XV1zUiy4vW4FYzmqy1,html-keyboard-response,101,434275,0.0-7.0-2.8-0.8-1.47-0.47,,,,,,,6171cdca47e809ea3422e5bf,11:21:20,15/01/2024
,"<p style=""font-size:14rem;font-weight:400;"">3</p>",,fwdspan,number,tC3ZvnqBY5XV1zUiy4vW4FYzmqy1,html-keyboard-response,102,435280,0.0-7.0-2.8-0.8-1.48-0.48,,,,,,,6171cdca47e809ea3422e5bf,11:21:20,15/01/2024
,"<p style=""font-size:14rem;font-weight:400;"">9</p>",,fwdspan,number,tC3ZvnqBY5XV1zUiy4vW4FYzmqy1,html-keyboard-response,103,436281,0.0-7.0-2.8-0.8-1.49-0.49,,,,,,,6171cdca47e809ea3422e5bf,11:21:20,15/01/2024
,"<p style=""font-size:14rem;font-weight:400;"">5</p>",,fwdspan,number,tC3ZvnqBY5XV1zUiy4vW4FYzmqy1,html-keyboard-response,104,437285,0.0-7.0-2.8-0.8-1.50-0.50,,,,,,,6171cdca47e809ea3422e5bf,11:21:20,15/01/2024
,"<p style=""font-size:14rem;font-weight:400;"">8</p>",,fwdspan,number,tC3ZvnqBY5XV1zUiy4vW4FYzmqy1,html-keyboard-response,105,438288,0.0-7.0-2.8-0.8-1.51-0.51,,,,,,,6171cdca47e809ea3422e5bf,11:21:20,15/01/2024
,"<p style=""font-size:14rem;font-weight:400;"">2</p>",,fwdspan,number,tC3ZvnqBY5XV1zUiy4vW4FYzmqy1,html-keyboard-response,106,439291,0.0-7.0-2.8-0.8-1.52-0.52,,,,,,,6171cdca47e809ea3422e5bf,11:21:20,15/01/2024
,"<p style=""font-size:14rem;font-weight:400;"">1</p>",,fwdspan,number,tC3ZvnqBY5XV1zUiy4vW4FYzmqy1,html-keyboard-response,107,440294,0.0-7.0-2.8-0.8-1.53-0.53,,,,,,,6171cdca47e809ea3422e5bf,11:21:20,15/01/2024
,[],,fwdspan,delay,tC3ZvnqBY5XV1zUiy4vW4FYzmqy1,html-keyboard-response,108,440847,0.0-7.0-2.8-0.8-2.8,,,,,,,6171cdca47e809ea3422e5bf,11:21:20,15/01/2024
7202.800000000745,"<div class = numbox><p style=""font-size:2.5rem"">What were the numbers <b>in order</b>?<br>(When you are ready to lock in your answer, press <b>ENTER</b>)</p><button id = button_1 class = ""square num-button"" onclick = ""recordClick(this)""><div class = content><div class = numbers>1</div></div></button><button id = button_2 class = ""square num-button"" onclick = ""recordClick(this)""><div class = content><div class = numbers>2</div></div></button><button id = button_3 class = ""square num-button"" onclick = ""recordClick(this)""><div class = content><div class = numbers>3</div></div></button><button id = button_4 class = ""square num-button"" onclick = ""recordClick(this)""><div class = content><div class = numbers>4</div></div></button><button id = button_5 class = ""square num-button"" onclick = ""recordClick(this)""><div class = content><div class = numbers>5</div></div></button><button id = button_6 class = ""square num-button"" onclick = ""recordClick(this)""><div class = content><div class = numbers>6</div></div></button><button id = button_7 class = ""square num-button"" onclick = ""recordClick(this)""><div class = content><div class = numbers>7</div></div></button><button id = button_8 class = ""square num-button"" onclick = ""recordClick(this)""><div class = content><div class = numbers>8</div></div></button><button id = button_9 class = ""square num-button"" onclick = ""recordClick(this)""><div class = content><div class = numbers>9</div></div></button><button class = clear_button id = ""ClearButton"" onclick = ""clearResponse()"">Clear</button><p><u><b>Current Answer:</b></u></p><div id=echoed_txt style=""font-size: 6rem; color:blue;""><b></b></div></div><br><br><br><br><br><br><br>",enter,fwdspan,response,tC3ZvnqBY5XV1zUiy4vW4FYzmqy1,html-keyboard-response,109,448052,0.0-7.0-2.8-0.8-3.8,7.0,"[7,3,8,5,9,2,1]","[7,3,9,5,8,2,1]",0.0,"[3, 4, 5, 6, 6, 7, 8, 8, 7, 7, 6, 6]",,6171cdca47e809ea3422e5bf,11:21:20,15/01/2024
,,,fwdspan,update_span,tC3ZvnqBY5XV1zUiy4vW4FYzmqy1,call-function,110,448305,0.0-7.0-2.8-0.8-4.8,,,,,,,6171cdca47e809ea3422e5bf,11:21:20,15/01/2024
1958.7000000029802,"<p style=""font-size:3rem"">Trial 10 of 12</p><br><br><br>",0,fwdspan,start_trial,tC3ZvnqBY5XV1zUiy4vW4FYzmqy1,html-button-response,111,450265,0.0-7.0-2.9-0.9-0.9,,,,,,,6171cdca47e809ea3422e5bf,11:21:20,15/01/2024
,"<p style=""font-size:14rem;font-weight:400;"">6</p>",,fwdspan,number,tC3ZvnqBY5XV1zUiy4vW4FYzmqy1,html-keyboard-response,112,451268,0.0-7.0-2.9-0.9-1.54-0.54,,,,,,,6171cdca47e809ea3422e5bf,11:21:20,15/01/2024
,"<p style=""font-size:14rem;font-weight:400;"">5</p>",,fwdspan,number,tC3ZvnqBY5XV1zUiy4vW4FYzmqy1,html-keyboard-response,113,452272,0.0-7.0-2.9-0.9-1.55-0.55,,,,,,,6171cdca47e809ea3422e5bf,11:21:20,15/01/2024
,"<p style=""font-size:14rem;font-weight:400;"">1</p>",,fwdspan,number,tC3ZvnqBY5XV1zUiy4vW4FYzmqy1,html-keyboard-response,114,453276,0.0-7.0-2.9-0.9-1.56-0.56,,,,,,,6171cdca47e809ea3422e5bf,11:21:20,15/01/2024
,"<p style=""font-size:14rem;font-weight:400;"">8</p>",,fwdspan,number,tC3ZvnqBY5XV1zUiy4vW4FYzmqy1,html-keyboard-response,115,454279,0.0-7.0-2.9-0.9-1.57-0.57,,,,,,,6171cdca47e809ea3422e5bf,11:21:20,15/01/2024
,"<p style=""font-size:14rem;font-weight:400;"">4</p>",,fwdspan,number,tC3ZvnqBY5XV1zUiy4vW4FYzmqy1,html-keyboard-response,116,455283,0.0-7.0-2.9-0.9-1.58-0.58,,,,,,,6171cdca47e809ea3422e5bf,11:21:20,15/01/2024
,"<p style=""font-size:14rem;font-weight:400;"">7</p>",,fwdspan,number,tC3ZvnqBY5XV1zUiy4vW4FYzmqy1,html-keyboard-response,117,456286,0.0-7.0-2.9-0.9-1.59-0.59,,,,,,,6171cdca47e809ea3422e5bf,11:21:20,15/01/2024
,"<p style=""font-size:14rem;font-weight:400;"">2</p>",,fwdspan,number,tC3ZvnqBY5XV1zUiy4vW4FYzmqy1,html-keyboard-response,118,457288,0.0-7.0-2.9-0.9-1.60-0.60,,,,,,,6171cdca47e809ea3422e5bf,11:21:20,15/01/2024
,[],,fwdspan,delay,tC3ZvnqBY5XV1zUiy4vW4FYzmqy1,html-keyboard-response,119,457843,0.0-7.0-2.9-0.9-2.9,,,,,,,6171cdca47e809ea3422e5bf,11:21:20,15/01/2024
6649.89999999851,"<div class = numbox><p style=""font-size:2.5rem"">What were the numbers <b>in order</b>?<br>(When you are ready to lock in your answer, press <b>ENTER</b>)</p><button id = button_1 class = ""square num-button"" onclick = ""recordClick(this)""><div class = content><div class = numbers>1</div></div></button><button id = button_2 class = ""square num-button"" onclick = ""recordClick(this)""><div class = content><div class = numbers>2</div></div></button><button id = button_3 class = ""square num-button"" onclick = ""recordClick(this)""><div class = content><div class = numbers>3</div></div></button><button id = button_4 class = ""square num-button"" onclick = ""recordClick(this)""><div class = content><div class = numbers>4</div></div></button><button id = button_5 class = ""square num-button"" onclick = ""recordClick(this)""><div class = content><div class = numbers>5</div></div></button><button id = button_6 class = ""square num-button"" onclick = ""recordClick(this)""><div class = content><div class = numbers>6</div></div></button><button id = button_7 class = ""square num-button"" onclick = ""recordClick(this)""><div class = content><div class = numbers>7</div></div></button><button id = button_8 class = ""square num-button"" onclick = ""recordClick(this)""><div class = content><div class = numbers>8</div></div></button><button id = button_9 class = ""square num-button"" onclick = ""recordClick(this)""><div class = content><div class = numbers>9</div></div></button><button class = clear_button id = ""ClearButton"" onclick = ""clearResponse()"">Clear</button><p><u><b>Current Answer:</b></u></p><div id=echoed_txt style=""font-size: 6rem; color:blue;""><b></b></div></div><br><br><br><br><br><br><br>",enter,fwdspan,response,tC3ZvnqBY5XV1zUiy4vW4FYzmqy1,html-keyboard-response,120,464495,0.0-7.0-2.9-0.9-3.9,7.0,"[6,5,4,8,1,4,7]","[6,5,1,8,4,7,2]",0.0,"[3, 4, 5, 6, 6, 7, 8, 8, 7, 7, 6, 6]",,6171cdca47e809ea3422e5bf,11:21:20,15/01/2024
,,,fwdspan,update_span,tC3ZvnqBY5XV1zUiy4vW4FYzmqy1,call-function,121,464750,0.0-7.0-2.9-0.9-4.9,,,,,,,6171cdca47e809ea3422e5bf,11:21:20,15/01/2024
1268.6000000014901,"<p style=""font-size:3rem"">Trial 11 of 12</p><br><br><br>",0,fwdspan,start_trial,tC3ZvnqBY5XV1zUiy4vW4FYzmqy1,html-button-response,122,466020,0.0-7.0-2.10-0.10-0.10,,,,,,,6171cdca47e809ea3422e5bf,11:21:20,15/01/2024
,"<p style=""font-size:14rem;font-weight:400;"">8</p>",,fwdspan,number,tC3ZvnqBY5XV1zUiy4vW4FYzmqy1,html-keyboard-response,123,467023,0.0-7.0-2.10-0.10-1.61-0.61,,,,,,,6171cdca47e809ea3422e5bf,11:21:20,15/01/2024
,"<p style=""font-size:14rem;font-weight:400;"">3</p>",,fwdspan,number,tC3ZvnqBY5XV1zUiy4vW4FYzmqy1,html-keyboard-response,124,468028,0.0-7.0-2.10-0.10-1.62-0.62,,,,,,,6171cdca47e809ea3422e5bf,11:21:20,15/01/2024
,"<p style=""font-size:14rem;font-weight:400;"">9</p>",,fwdspan,number,tC3ZvnqBY5XV1zUiy4vW4FYzmqy1,html-keyboard-response,125,469030,0.0-7.0-2.10-0.10-1.63-0.63,,,,,,,6171cdca47e809ea3422e5bf,11:21:20,15/01/2024
,"<p style=""font-size:14rem;font-weight:400;"">7</p>",,fwdspan,number,tC3ZvnqBY5XV1zUiy4vW4FYzmqy1,html-keyboard-response,126,470033,0.0-7.0-2.10-0.10-1.64-0.64,,,,,,,6171cdca47e809ea3422e5bf,11:21:20,15/01/2024
,"<p style=""font-size:14rem;font-weight:400;"">4</p>",,fwdspan,number,tC3ZvnqBY5XV1zUiy4vW4FYzmqy1,html-keyboard-response,127,471035,0.0-7.0-2.10-0.10-1.65-0.65,,,,,,,6171cdca47e809ea3422e5bf,11:21:20,15/01/2024
,"<p style=""font-size:14rem;font-weight:400;"">2</p>",,fwdspan,number,tC3ZvnqBY5XV1zUiy4vW4FYzmqy1,html-keyboard-response,128,472038,0.0-7.0-2.10-0.10-1.66-0.66,,,,,,,6171cdca47e809ea3422e5bf,11:21:20,15/01/2024
,[],,fwdspan,delay,tC3ZvnqBY5XV1zUiy4vW4FYzmqy1,html-keyboard-response,129,472592,0.0-7.0-2.10-0.10-2.10,,,,,,,6171cdca47e809ea3422e5bf,11:21:20,15/01/2024
7934.0,"<div class = numbox><p style=""font-size:2.5rem"">What were the numbers <b>in order</b>?<br>(When you are ready to lock in your answer, press <b>ENTER</b>)</p><button id = button_1 class = ""square num-button"" onclick = ""recordClick(this)""><div class = content><div class = numbers>1</div></div></button><button id = button_2 class = ""square num-button"" onclick = ""recordClick(this)""><div class = content><div class = numbers>2</div></div></button><button id = button_3 class = ""square num-button"" onclick = ""recordClick(this)""><div class = content><div class = numbers>3</div></div></button><button id = button_4 class = ""square num-button"" onclick = ""recordClick(this)""><div class = content><div class = numbers>4</div></div></button><button id = button_5 class = ""square num-button"" onclick = ""recordClick(this)""><div class = content><div class = numbers>5</div></div></button><button id = button_6 class = ""square num-button"" onclick = ""recordClick(this)""><div class = content><div class = numbers>6</div></div></button><button id = button_7 class = ""square num-button"" onclick = ""recordClick(this)""><div class = content><div class = numbers>7</div></div></button><button id = button_8 class = ""square num-button"" onclick = ""recordClick(this)""><div class = content><div class = numbers>8</div></div></button><button id = button_9 class = ""square num-button"" onclick = ""recordClick(this)""><div class = content><div class = numbers>9</div></div></button><button class = clear_button id = ""ClearButton"" onclick = ""clearResponse()"">Clear</button><p><u><b>Current Answer:</b></u></p><div id=echoed_txt style=""font-size: 6rem; color:blue;""><b></b></div></div><br><br><br><br><br><br><br>",enter,fwdspan,response,tC3ZvnqBY5XV1zUiy4vW4FYzmqy1,html-keyboard-response,130,480528,0.0-7.0-2.10-0.10-3.10,6.0,"[8,3,4,9,7,2]","[8,3,9,7,4,2]",0.0,"[3, 4, 5, 6, 6, 7, 8, 8, 7, 7, 6, 6]",,6171cdca47e809ea3422e5bf,11:21:20,15/01/2024
,,,fwdspan,update_span,tC3ZvnqBY5XV1zUiy4vW4FYzmqy1,call-function,131,480782,0.0-7.0-2.10-0.10-4.10,,,,,,,6171cdca47e809ea3422e5bf,11:21:20,15/01/2024
940.1999999992549,"<p style=""font-size:3rem"">Trial 12 of 12</p><br><br><br>",0,fwdspan,start_trial,tC3ZvnqBY5XV1zUiy4vW4FYzmqy1,html-button-response,132,481724,0.0-7.0-2.11-0.11-0.11,,,,,,,6171cdca47e809ea3422e5bf,11:21:20,15/01/2024
,"<p style=""font-size:14rem;font-weight:400;"">5</p>",,fwdspan,number,tC3ZvnqBY5XV1zUiy4vW4FYzmqy1,html-keyboard-response,133,482727,0.0-7.0-2.11-0.11-1.67-0.67,,,,,,,6171cdca47e809ea3422e5bf,11:21:20,15/01/2024
,"<p style=""font-size:14rem;font-weight:400;"">1</p>",,fwdspan,number,tC3ZvnqBY5XV1zUiy4vW4FYzmqy1,html-keyboard-response,134,483732,0.0-7.0-2.11-0.11-1.68-0.68,,,,,,,6171cdca47e809ea3422e5bf,11:21:20,15/01/2024
,"<p style=""font-size:14rem;font-weight:400;"">4</p>",,fwdspan,number,tC3ZvnqBY5XV1zUiy4vW4FYzmqy1,html-keyboard-response,135,484736,0.0-7.0-2.11-0.11-1.69-0.69,,,,,,,6171cdca47e809ea3422e5bf,11:21:20,15/01/2024
,"<p style=""font-size:14rem;font-weight:400;"">7</p>",,fwdspan,number,tC3ZvnqBY5XV1zUiy4vW4FYzmqy1,html-keyboard-response,136,485738,0.0-7.0-2.11-0.11-1.70-0.70,,,,,,,6171cdca47e809ea3422e5bf,11:21:20,15/01/2024
,"<p style=""font-size:14rem;font-weight:400;"">3</p>",,fwdspan,number,tC3ZvnqBY5XV1zUiy4vW4FYzmqy1,html-keyboard-response,137,486741,0.0-7.0-2.11-0.11-1.71-0.71,,,,,,,6171cdca47e809ea3422e5bf,11:21:20,15/01/2024
,"<p style=""font-size:14rem;font-weight:400;"">2</p>",,fwdspan,number,tC3ZvnqBY5XV1zUiy4vW4FYzmqy1,html-keyboard-response,138,487745,0.0-7.0-2.11-0.11-1.72-0.72,,,,,,,6171cdca47e809ea3422e5bf,11:21:20,15/01/2024
,[],,fwdspan,delay,tC3ZvnqBY5XV1zUiy4vW4FYzmqy1,html-keyboard-response,139,488299,0.0-7.0-2.11-0.11-2.11,,,,,,,6171cdca47e809ea3422e5bf,11:21:20,15/01/2024
4703.599999997765,"<div class = numbox><p style=""font-size:2.5rem"">What were the numbers <b>in order</b>?<br>(When you are ready to lock in your answer, press <b>ENTER</b>)</p><button id = button_1 class = ""square num-button"" onclick = ""recordClick(this)""><div class = content><div class = numbers>1</div></div></button><button id = button_2 class = ""square num-button"" onclick = ""recordClick(this)""><div class = content><div class = numbers>2</div></div></button><button id = button_3 class = ""square num-button"" onclick = ""recordClick(this)""><div class = content><div class = numbers>3</div></div></button><button id = button_4 class = ""square num-button"" onclick = ""recordClick(this)""><div class = content><div class = numbers>4</div></div></button><button id = button_5 class = ""square num-button"" onclick = ""recordClick(this)""><div class = content><div class = numbers>5</div></div></button><button id = button_6 class = ""square num-button"" onclick = ""recordClick(this)""><div class = content><div class = numbers>6</div></div></button><button id = button_7 class = ""square num-button"" onclick = ""recordClick(this)""><div class = content><div class = numbers>7</div></div></button><button id = button_8 class = ""square num-button"" onclick = ""recordClick(this)""><div class = content><div class = numbers>8</div></div></button><button id = button_9 class = ""square num-button"" onclick = ""recordClick(this)""><div class = content><div class = numbers>9</div></div></button><button class = clear_button id = ""ClearButton"" onclick = ""clearResponse()"">Clear</button><p><u><b>Current Answer:</b></u></p><div id=echoed_txt style=""font-size: 6rem; color:blue;""><b></b></div></div><br><br><br><br><br><br><br>",enter,fwdspan,response,tC3ZvnqBY5XV1zUiy4vW4FYzmqy1,html-keyboard-response,140,493005,0.0-7.0-2.11-0.11-3.11,6.0,"[5,1,4,3,7,2]","[5,1,4,7,3,2]",0.0,"[3, 4, 5, 6, 6, 7, 8, 8, 7, 7, 6, 6]",,6171cdca47e809ea3422e5bf,11:21:20,15/01/2024
,,,fwdspan,update_span,tC3ZvnqBY5XV1zUiy4vW4FYzmqy1,call-function,141,493258,0.0-7.0-2.11-0.11-4.11,,,,,,,6171cdca47e809ea3422e5bf,11:21:20,15/01/2024
10783.199999999255,,"{'Q0': 'nothing, it all works fine'}",fwdspan,survey,tC3ZvnqBY5XV1zUiy4vW4FYzmqy1,lmdlab-survey-text,142,504793,0.0-7.0-3.0,,,,,,tC3ZvnqBY5XV1zUiy4vW4FYzmqy1,6171cdca47e809ea3422e5bf,11:21:20,15/01/2024
1470.300000000745,<p><p style='font-size: 3rem'>Great work!<br><br>This completes the digit span task.</p><br><br><br>,0,fwdspan,finish,tC3ZvnqBY5XV1zUiy4vW4FYzmqy1,html-button-response,143,506268,0.0-7.0-4.0,,,,,,,6171cdca47e809ea3422e5bf,11:21:20,15/01/2024
