rt,stimulus,response,exp_name,exp_stage,subjectID,trial_type,trial_index,time_elapsed,internal_node_id,span,answer,correct,correct_full,span_history,databaseID,prolificID,start_time,date
3948.0,"<p style=""font-size:4rem""><br><br>In the next part today, we have a completely different short task.<br><br><br>This part involves keeping numbers in you mind. Participation takes around 5 minutes.<br><br><br></p>",0,fwdspan,instruct,MaQzEgoW5DSHKm4FhWmdnsucl4w1,html-button-response,19,254522,0.0-7.0-0.0,,,,,,,599352ad5f49420001caf919,11:25:09 AM,1/15/2024
7981.0,"<p style=""font-size:5rem"">Welcome to the <b>digit span task</b>!<br><br></p><p style=""font-size:3.4rem""><br>On each trial, you will see a sequence of digits, followed by a delay.</p><p style=""font-size:3.4rem""><br>Then you will be asked to type them back in the same order in which they were seen.</p><p style=""font-size:3.4rem""><br><br><br>For example, if you saw the digits <b style=""color:blue;"">1</b>, <b style=""color:blue;"">2</b>, <b style=""color:blue;"">3</b>, you would respond with <b style=""color:blue;"">1</b>, <b style=""color:blue;"">2</b>, <b style=""color:blue;"">3</b></p><p style=""font-size:3.4rem""><br><br><br>To ensure the best measure of true performance for our study,<br><br>it is very important that you do not use any memory aid (e.g., pen and paper).<br><br>Please do the task solely in your head.</p><p style=""font-size:3.4rem""><br><br><br>There will be 12 total trials. Participation takes around 5 minutes.</p><br><br><br>",0,fwdspan,instruct,MaQzEgoW5DSHKm4FhWmdnsucl4w1,html-button-response,20,262504,0.0-7.0-1.0,,,,,,,599352ad5f49420001caf919,11:25:09 AM,1/15/2024
1248.0,"<p style=""font-size:3rem"">Trial 1 of 12</p><br><br><br>",0,fwdspan,start_trial,MaQzEgoW5DSHKm4FhWmdnsucl4w1,html-button-response,21,263754,0.0-7.0-2.0-0.0-0.0,,,,,,,599352ad5f49420001caf919,11:25:09 AM,1/15/2024
,"<p style=""font-size:14rem;font-weight:400;"">8</p>",,fwdspan,number,MaQzEgoW5DSHKm4FhWmdnsucl4w1,html-keyboard-response,22,264759,0.0-7.0-2.0-0.0-1.0-0.0,,,,,,,599352ad5f49420001caf919,11:25:09 AM,1/15/2024
,"<p style=""font-size:14rem;font-weight:400;"">7</p>",,fwdspan,number,MaQzEgoW5DSHKm4FhWmdnsucl4w1,html-keyboard-response,23,265761,0.0-7.0-2.0-0.0-1.1-0.1,,,,,,,599352ad5f49420001caf919,11:25:09 AM,1/15/2024
,"<p style=""font-size:14rem;font-weight:400;"">2</p>",,fwdspan,number,MaQzEgoW5DSHKm4FhWmdnsucl4w1,html-keyboard-response,24,266763,0.0-7.0-2.0-0.0-1.2-0.2,,,,,,,599352ad5f49420001caf919,11:25:09 AM,1/15/2024
,[],,fwdspan,delay,MaQzEgoW5DSHKm4FhWmdnsucl4w1,html-keyboard-response,25,267315,0.0-7.0-2.0-0.0-2.0,,,,,,,599352ad5f49420001caf919,11:25:09 AM,1/15/2024
5305.0,"<div class = numbox><p style=""font-size:2.5rem"">What were the numbers <b>in order</b>?<br>(When you are ready to lock in your answer, press <b>ENTER</b>)</p><button id = button_1 class = ""square num-button"" onclick = ""recordClick(this)""><div class = content><div class = numbers>1</div></div></button><button id = button_2 class = ""square num-button"" onclick = ""recordClick(this)""><div class = content><div class = numbers>2</div></div></button><button id = button_3 class = ""square num-button"" onclick = ""recordClick(this)""><div class = content><div class = numbers>3</div></div></button><button id = button_4 class = ""square num-button"" onclick = ""recordClick(this)""><div class = content><div class = numbers>4</div></div></button><button id = button_5 class = ""square num-button"" onclick = ""recordClick(this)""><div class = content><div class = numbers>5</div></div></button><button id = button_6 class = ""square num-button"" onclick = ""recordClick(this)""><div class = content><div class = numbers>6</div></div></button><button id = button_7 class = ""square num-button"" onclick = ""recordClick(this)""><div class = content><div class = numbers>7</div></div></button><button id = button_8 class = ""square num-button"" onclick = ""recordClick(this)""><div class = content><div class = numbers>8</div></div></button><button id = button_9 class = ""square num-button"" onclick = ""recordClick(this)""><div class = content><div class = numbers>9</div></div></button><button class = clear_button id = ""ClearButton"" onclick = ""clearResponse()"">Clear</button><p><u><b>Current Answer:</b></u></p><div id=echoed_txt style=""font-size: 6rem; color:blue;""><b></b></div></div><br><br><br><br><br><br><br>",enter,fwdspan,response,MaQzEgoW5DSHKm4FhWmdnsucl4w1,html-keyboard-response,26,272622,0.0-7.0-2.0-0.0-3.0,3.0,"[8,7,2]","[8,7,2]",1.0,"[3, 4, 5, 6, 6, 7, 7, 8, 8, 7, 7, 6]",,599352ad5f49420001caf919,11:25:09 AM,1/15/2024
,,,fwdspan,update_span,MaQzEgoW5DSHKm4FhWmdnsucl4w1,call-function,27,272874,0.0-7.0-2.0-0.0-4.0,,,,,,,599352ad5f49420001caf919,11:25:09 AM,1/15/2024
4714.0,"<p style=""font-size:3rem"">Trial 2 of 12</p><br><br><br>",0,fwdspan,start_trial,MaQzEgoW5DSHKm4FhWmdnsucl4w1,html-button-response,28,277589,0.0-7.0-2.1-0.1-0.1,,,,,,,599352ad5f49420001caf919,11:25:09 AM,1/15/2024
,"<p style=""font-size:14rem;font-weight:400;"">7</p>",,fwdspan,number,MaQzEgoW5DSHKm4FhWmdnsucl4w1,html-keyboard-response,29,278591,0.0-7.0-2.1-0.1-1.3-0.3,,,,,,,599352ad5f49420001caf919,11:25:09 AM,1/15/2024
,"<p style=""font-size:14rem;font-weight:400;"">8</p>",,fwdspan,number,MaQzEgoW5DSHKm4FhWmdnsucl4w1,html-keyboard-response,30,279594,0.0-7.0-2.1-0.1-1.4-0.4,,,,,,,599352ad5f49420001caf919,11:25:09 AM,1/15/2024
,"<p style=""font-size:14rem;font-weight:400;"">1</p>",,fwdspan,number,MaQzEgoW5DSHKm4FhWmdnsucl4w1,html-keyboard-response,31,280596,0.0-7.0-2.1-0.1-1.5-0.5,,,,,,,599352ad5f49420001caf919,11:25:09 AM,1/15/2024
,"<p style=""font-size:14rem;font-weight:400;"">2</p>",,fwdspan,number,MaQzEgoW5DSHKm4FhWmdnsucl4w1,html-keyboard-response,32,281598,0.0-7.0-2.1-0.1-1.6-0.6,,,,,,,599352ad5f49420001caf919,11:25:09 AM,1/15/2024
,[],,fwdspan,delay,MaQzEgoW5DSHKm4FhWmdnsucl4w1,html-keyboard-response,33,282151,0.0-7.0-2.1-0.1-2.1,,,,,,,599352ad5f49420001caf919,11:25:09 AM,1/15/2024
3397.000000000058,"<div class = numbox><p style=""font-size:2.5rem"">What were the numbers <b>in order</b>?<br>(When you are ready to lock in your answer, press <b>ENTER</b>)</p><button id = button_1 class = ""square num-button"" onclick = ""recordClick(this)""><div class = content><div class = numbers>1</div></div></button><button id = button_2 class = ""square num-button"" onclick = ""recordClick(this)""><div class = content><div class = numbers>2</div></div></button><button id = button_3 class = ""square num-button"" onclick = ""recordClick(this)""><div class = content><div class = numbers>3</div></div></button><button id = button_4 class = ""square num-button"" onclick = ""recordClick(this)""><div class = content><div class = numbers>4</div></div></button><button id = button_5 class = ""square num-button"" onclick = ""recordClick(this)""><div class = content><div class = numbers>5</div></div></button><button id = button_6 class = ""square num-button"" onclick = ""recordClick(this)""><div class = content><div class = numbers>6</div></div></button><button id = button_7 class = ""square num-button"" onclick = ""recordClick(this)""><div class = content><div class = numbers>7</div></div></button><button id = button_8 class = ""square num-button"" onclick = ""recordClick(this)""><div class = content><div class = numbers>8</div></div></button><button id = button_9 class = ""square num-button"" onclick = ""recordClick(this)""><div class = content><div class = numbers>9</div></div></button><button class = clear_button id = ""ClearButton"" onclick = ""clearResponse()"">Clear</button><p><u><b>Current Answer:</b></u></p><div id=echoed_txt style=""font-size: 6rem; color:blue;""><b></b></div></div><br><br><br><br><br><br><br>",enter,fwdspan,response,MaQzEgoW5DSHKm4FhWmdnsucl4w1,html-keyboard-response,34,285550,0.0-7.0-2.1-0.1-3.1,4.0,"[7,8,1,2]","[7,8,1,2]",1.0,"[3, 4, 5, 6, 6, 7, 7, 8, 8, 7, 7, 6]",,599352ad5f49420001caf919,11:25:09 AM,1/15/2024
,,,fwdspan,update_span,MaQzEgoW5DSHKm4FhWmdnsucl4w1,call-function,35,285801,0.0-7.0-2.1-0.1-4.1,,,,,,,599352ad5f49420001caf919,11:25:09 AM,1/15/2024
1270.0,"<p style=""font-size:3rem"">Trial 3 of 12</p><br><br><br>",0,fwdspan,start_trial,MaQzEgoW5DSHKm4FhWmdnsucl4w1,html-button-response,36,287071,0.0-7.0-2.2-0.2-0.2,,,,,,,599352ad5f49420001caf919,11:25:09 AM,1/15/2024
,"<p style=""font-size:14rem;font-weight:400;"">9</p>",,fwdspan,number,MaQzEgoW5DSHKm4FhWmdnsucl4w1,html-keyboard-response,37,288074,0.0-7.0-2.2-0.2-1.7-0.7,,,,,,,599352ad5f49420001caf919,11:25:09 AM,1/15/2024
,"<p style=""font-size:14rem;font-weight:400;"">2</p>",,fwdspan,number,MaQzEgoW5DSHKm4FhWmdnsucl4w1,html-keyboard-response,38,289076,0.0-7.0-2.2-0.2-1.8-0.8,,,,,,,599352ad5f49420001caf919,11:25:09 AM,1/15/2024
,"<p style=""font-size:14rem;font-weight:400;"">6</p>",,fwdspan,number,MaQzEgoW5DSHKm4FhWmdnsucl4w1,html-keyboard-response,39,290079,0.0-7.0-2.2-0.2-1.9-0.9,,,,,,,599352ad5f49420001caf919,11:25:09 AM,1/15/2024
,"<p style=""font-size:14rem;font-weight:400;"">1</p>",,fwdspan,number,MaQzEgoW5DSHKm4FhWmdnsucl4w1,html-keyboard-response,40,291082,0.0-7.0-2.2-0.2-1.10-0.10,,,,,,,599352ad5f49420001caf919,11:25:09 AM,1/15/2024
,"<p style=""font-size:14rem;font-weight:400;"">8</p>",,fwdspan,number,MaQzEgoW5DSHKm4FhWmdnsucl4w1,html-keyboard-response,41,292085,0.0-7.0-2.2-0.2-1.11-0.11,,,,,,,599352ad5f49420001caf919,11:25:09 AM,1/15/2024
,[],,fwdspan,delay,MaQzEgoW5DSHKm4FhWmdnsucl4w1,html-keyboard-response,42,292637,0.0-7.0-2.2-0.2-2.2,,,,,,,599352ad5f49420001caf919,11:25:09 AM,1/15/2024
3852.999999999942,"<div class = numbox><p style=""font-size:2.5rem"">What were the numbers <b>in order</b>?<br>(When you are ready to lock in your answer, press <b>ENTER</b>)</p><button id = button_1 class = ""square num-button"" onclick = ""recordClick(this)""><div class = content><div class = numbers>1</div></div></button><button id = button_2 class = ""square num-button"" onclick = ""recordClick(this)""><div class = content><div class = numbers>2</div></div></button><button id = button_3 class = ""square num-button"" onclick = ""recordClick(this)""><div class = content><div class = numbers>3</div></div></button><button id = button_4 class = ""square num-button"" onclick = ""recordClick(this)""><div class = content><div class = numbers>4</div></div></button><button id = button_5 class = ""square num-button"" onclick = ""recordClick(this)""><div class = content><div class = numbers>5</div></div></button><button id = button_6 class = ""square num-button"" onclick = ""recordClick(this)""><div class = content><div class = numbers>6</div></div></button><button id = button_7 class = ""square num-button"" onclick = ""recordClick(this)""><div class = content><div class = numbers>7</div></div></button><button id = button_8 class = ""square num-button"" onclick = ""recordClick(this)""><div class = content><div class = numbers>8</div></div></button><button id = button_9 class = ""square num-button"" onclick = ""recordClick(this)""><div class = content><div class = numbers>9</div></div></button><button class = clear_button id = ""ClearButton"" onclick = ""clearResponse()"">Clear</button><p><u><b>Current Answer:</b></u></p><div id=echoed_txt style=""font-size: 6rem; color:blue;""><b></b></div></div><br><br><br><br><br><br><br>",enter,fwdspan,response,MaQzEgoW5DSHKm4FhWmdnsucl4w1,html-keyboard-response,43,296491,0.0-7.0-2.2-0.2-3.2,5.0,"[9,2,6,1,8]","[9,2,6,1,8]",1.0,"[3, 4, 5, 6, 6, 7, 7, 8, 8, 7, 7, 6]",,599352ad5f49420001caf919,11:25:09 AM,1/15/2024
,,,fwdspan,update_span,MaQzEgoW5DSHKm4FhWmdnsucl4w1,call-function,44,296743,0.0-7.0-2.2-0.2-4.2,,,,,,,599352ad5f49420001caf919,11:25:09 AM,1/15/2024
1778.0,"<p style=""font-size:3rem"">Trial 4 of 12</p><br><br><br>",0,fwdspan,start_trial,MaQzEgoW5DSHKm4FhWmdnsucl4w1,html-button-response,45,298521,0.0-7.0-2.3-0.3-0.3,,,,,,,599352ad5f49420001caf919,11:25:09 AM,1/15/2024
,"<p style=""font-size:14rem;font-weight:400;"">6</p>",,fwdspan,number,MaQzEgoW5DSHKm4FhWmdnsucl4w1,html-keyboard-response,46,299524,0.0-7.0-2.3-0.3-1.12-0.12,,,,,,,599352ad5f49420001caf919,11:25:09 AM,1/15/2024
,"<p style=""font-size:14rem;font-weight:400;"">7</p>",,fwdspan,number,MaQzEgoW5DSHKm4FhWmdnsucl4w1,html-keyboard-response,47,300526,0.0-7.0-2.3-0.3-1.13-0.13,,,,,,,599352ad5f49420001caf919,11:25:09 AM,1/15/2024
,"<p style=""font-size:14rem;font-weight:400;"">3</p>",,fwdspan,number,MaQzEgoW5DSHKm4FhWmdnsucl4w1,html-keyboard-response,48,301529,0.0-7.0-2.3-0.3-1.14-0.14,,,,,,,599352ad5f49420001caf919,11:25:09 AM,1/15/2024
,"<p style=""font-size:14rem;font-weight:400;"">9</p>",,fwdspan,number,MaQzEgoW5DSHKm4FhWmdnsucl4w1,html-keyboard-response,49,302532,0.0-7.0-2.3-0.3-1.15-0.15,,,,,,,599352ad5f49420001caf919,11:25:09 AM,1/15/2024
,"<p style=""font-size:14rem;font-weight:400;"">8</p>",,fwdspan,number,MaQzEgoW5DSHKm4FhWmdnsucl4w1,html-keyboard-response,50,303533,0.0-7.0-2.3-0.3-1.16-0.16,,,,,,,599352ad5f49420001caf919,11:25:09 AM,1/15/2024
,"<p style=""font-size:14rem;font-weight:400;"">2</p>",,fwdspan,number,MaQzEgoW5DSHKm4FhWmdnsucl4w1,html-keyboard-response,51,304535,0.0-7.0-2.3-0.3-1.17-0.17,,,,,,,599352ad5f49420001caf919,11:25:09 AM,1/15/2024
,[],,fwdspan,delay,MaQzEgoW5DSHKm4FhWmdnsucl4w1,html-keyboard-response,52,305087,0.0-7.0-2.3-0.3-2.3,,,,,,,599352ad5f49420001caf919,11:25:09 AM,1/15/2024
4620.0,"<div class = numbox><p style=""font-size:2.5rem"">What were the numbers <b>in order</b>?<br>(When you are ready to lock in your answer, press <b>ENTER</b>)</p><button id = button_1 class = ""square num-button"" onclick = ""recordClick(this)""><div class = content><div class = numbers>1</div></div></button><button id = button_2 class = ""square num-button"" onclick = ""recordClick(this)""><div class = content><div class = numbers>2</div></div></button><button id = button_3 class = ""square num-button"" onclick = ""recordClick(this)""><div class = content><div class = numbers>3</div></div></button><button id = button_4 class = ""square num-button"" onclick = ""recordClick(this)""><div class = content><div class = numbers>4</div></div></button><button id = button_5 class = ""square num-button"" onclick = ""recordClick(this)""><div class = content><div class = numbers>5</div></div></button><button id = button_6 class = ""square num-button"" onclick = ""recordClick(this)""><div class = content><div class = numbers>6</div></div></button><button id = button_7 class = ""square num-button"" onclick = ""recordClick(this)""><div class = content><div class = numbers>7</div></div></button><button id = button_8 class = ""square num-button"" onclick = ""recordClick(this)""><div class = content><div class = numbers>8</div></div></button><button id = button_9 class = ""square num-button"" onclick = ""recordClick(this)""><div class = content><div class = numbers>9</div></div></button><button class = clear_button id = ""ClearButton"" onclick = ""clearResponse()"">Clear</button><p><u><b>Current Answer:</b></u></p><div id=echoed_txt style=""font-size: 6rem; color:blue;""><b></b></div></div><br><br><br><br><br><br><br>",enter,fwdspan,response,MaQzEgoW5DSHKm4FhWmdnsucl4w1,html-keyboard-response,53,309709,0.0-7.0-2.3-0.3-3.3,6.0,"[6,7,8,3,9,2]","[6,7,3,9,8,2]",0.0,"[3, 4, 5, 6, 6, 7, 7, 8, 8, 7, 7, 6]",,599352ad5f49420001caf919,11:25:09 AM,1/15/2024
,,,fwdspan,update_span,MaQzEgoW5DSHKm4FhWmdnsucl4w1,call-function,54,309960,0.0-7.0-2.3-0.3-4.3,,,,,,,599352ad5f49420001caf919,11:25:09 AM,1/15/2024
1061.9999999999418,"<p style=""font-size:3rem"">Trial 5 of 12</p><br><br><br>",0,fwdspan,start_trial,MaQzEgoW5DSHKm4FhWmdnsucl4w1,html-button-response,55,311022,0.0-7.0-2.4-0.4-0.4,,,,,,,599352ad5f49420001caf919,11:25:09 AM,1/15/2024
,"<p style=""font-size:14rem;font-weight:400;"">3</p>",,fwdspan,number,MaQzEgoW5DSHKm4FhWmdnsucl4w1,html-keyboard-response,56,312024,0.0-7.0-2.4-0.4-1.18-0.18,,,,,,,599352ad5f49420001caf919,11:25:09 AM,1/15/2024
,"<p style=""font-size:14rem;font-weight:400;"">8</p>",,fwdspan,number,MaQzEgoW5DSHKm4FhWmdnsucl4w1,html-keyboard-response,57,313025,0.0-7.0-2.4-0.4-1.19-0.19,,,,,,,599352ad5f49420001caf919,11:25:09 AM,1/15/2024
,"<p style=""font-size:14rem;font-weight:400;"">1</p>",,fwdspan,number,MaQzEgoW5DSHKm4FhWmdnsucl4w1,html-keyboard-response,58,314026,0.0-7.0-2.4-0.4-1.20-0.20,,,,,,,599352ad5f49420001caf919,11:25:09 AM,1/15/2024
,"<p style=""font-size:14rem;font-weight:400;"">4</p>",,fwdspan,number,MaQzEgoW5DSHKm4FhWmdnsucl4w1,html-keyboard-response,59,315027,0.0-7.0-2.4-0.4-1.21-0.21,,,,,,,599352ad5f49420001caf919,11:25:09 AM,1/15/2024
,"<p style=""font-size:14rem;font-weight:400;"">5</p>",,fwdspan,number,MaQzEgoW5DSHKm4FhWmdnsucl4w1,html-keyboard-response,60,316030,0.0-7.0-2.4-0.4-1.22-0.22,,,,,,,599352ad5f49420001caf919,11:25:09 AM,1/15/2024
,"<p style=""font-size:14rem;font-weight:400;"">6</p>",,fwdspan,number,MaQzEgoW5DSHKm4FhWmdnsucl4w1,html-keyboard-response,61,317032,0.0-7.0-2.4-0.4-1.23-0.23,,,,,,,599352ad5f49420001caf919,11:25:09 AM,1/15/2024
,[],,fwdspan,delay,MaQzEgoW5DSHKm4FhWmdnsucl4w1,html-keyboard-response,62,317583,0.0-7.0-2.4-0.4-2.4,,,,,,,599352ad5f49420001caf919,11:25:09 AM,1/15/2024
6346.0,"<div class = numbox><p style=""font-size:2.5rem"">What were the numbers <b>in order</b>?<br>(When you are ready to lock in your answer, press <b>ENTER</b>)</p><button id = button_1 class = ""square num-button"" onclick = ""recordClick(this)""><div class = content><div class = numbers>1</div></div></button><button id = button_2 class = ""square num-button"" onclick = ""recordClick(this)""><div class = content><div class = numbers>2</div></div></button><button id = button_3 class = ""square num-button"" onclick = ""recordClick(this)""><div class = content><div class = numbers>3</div></div></button><button id = button_4 class = ""square num-button"" onclick = ""recordClick(this)""><div class = content><div class = numbers>4</div></div></button><button id = button_5 class = ""square num-button"" onclick = ""recordClick(this)""><div class = content><div class = numbers>5</div></div></button><button id = button_6 class = ""square num-button"" onclick = ""recordClick(this)""><div class = content><div class = numbers>6</div></div></button><button id = button_7 class = ""square num-button"" onclick = ""recordClick(this)""><div class = content><div class = numbers>7</div></div></button><button id = button_8 class = ""square num-button"" onclick = ""recordClick(this)""><div class = content><div class = numbers>8</div></div></button><button id = button_9 class = ""square num-button"" onclick = ""recordClick(this)""><div class = content><div class = numbers>9</div></div></button><button class = clear_button id = ""ClearButton"" onclick = ""clearResponse()"">Clear</button><p><u><b>Current Answer:</b></u></p><div id=echoed_txt style=""font-size: 6rem; color:blue;""><b></b></div></div><br><br><br><br><br><br><br>",enter,fwdspan,response,MaQzEgoW5DSHKm4FhWmdnsucl4w1,html-keyboard-response,63,323929,0.0-7.0-2.4-0.4-3.4,6.0,"[3,8,1,4,5,6]","[3,8,1,4,5,6]",1.0,"[3, 4, 5, 6, 6, 7, 7, 8, 8, 7, 7, 6]",,599352ad5f49420001caf919,11:25:09 AM,1/15/2024
,,,fwdspan,update_span,MaQzEgoW5DSHKm4FhWmdnsucl4w1,call-function,64,324180,0.0-7.0-2.4-0.4-4.4,,,,,,,599352ad5f49420001caf919,11:25:09 AM,1/15/2024
1373.0,"<p style=""font-size:3rem"">Trial 6 of 12</p><br><br><br>",0,fwdspan,start_trial,MaQzEgoW5DSHKm4FhWmdnsucl4w1,html-button-response,65,325555,0.0-7.0-2.5-0.5-0.5,,,,,,,599352ad5f49420001caf919,11:25:09 AM,1/15/2024
,"<p style=""font-size:14rem;font-weight:400;"">2</p>",,fwdspan,number,MaQzEgoW5DSHKm4FhWmdnsucl4w1,html-keyboard-response,66,326557,0.0-7.0-2.5-0.5-1.24-0.24,,,,,,,599352ad5f49420001caf919,11:25:09 AM,1/15/2024
,"<p style=""font-size:14rem;font-weight:400;"">5</p>",,fwdspan,number,MaQzEgoW5DSHKm4FhWmdnsucl4w1,html-keyboard-response,67,327559,0.0-7.0-2.5-0.5-1.25-0.25,,,,,,,599352ad5f49420001caf919,11:25:09 AM,1/15/2024
,"<p style=""font-size:14rem;font-weight:400;"">1</p>",,fwdspan,number,MaQzEgoW5DSHKm4FhWmdnsucl4w1,html-keyboard-response,68,328562,0.0-7.0-2.5-0.5-1.26-0.26,,,,,,,599352ad5f49420001caf919,11:25:09 AM,1/15/2024
,"<p style=""font-size:14rem;font-weight:400;"">8</p>",,fwdspan,number,MaQzEgoW5DSHKm4FhWmdnsucl4w1,html-keyboard-response,69,329564,0.0-7.0-2.5-0.5-1.27-0.27,,,,,,,599352ad5f49420001caf919,11:25:09 AM,1/15/2024
,"<p style=""font-size:14rem;font-weight:400;"">3</p>",,fwdspan,number,MaQzEgoW5DSHKm4FhWmdnsucl4w1,html-keyboard-response,70,330567,0.0-7.0-2.5-0.5-1.28-0.28,,,,,,,599352ad5f49420001caf919,11:25:09 AM,1/15/2024
,"<p style=""font-size:14rem;font-weight:400;"">9</p>",,fwdspan,number,MaQzEgoW5DSHKm4FhWmdnsucl4w1,html-keyboard-response,71,331568,0.0-7.0-2.5-0.5-1.29-0.29,,,,,,,599352ad5f49420001caf919,11:25:09 AM,1/15/2024
,"<p style=""font-size:14rem;font-weight:400;"">7</p>",,fwdspan,number,MaQzEgoW5DSHKm4FhWmdnsucl4w1,html-keyboard-response,72,332571,0.0-7.0-2.5-0.5-1.30-0.30,,,,,,,599352ad5f49420001caf919,11:25:09 AM,1/15/2024
,[],,fwdspan,delay,MaQzEgoW5DSHKm4FhWmdnsucl4w1,html-keyboard-response,73,333124,0.0-7.0-2.5-0.5-2.5,,,,,,,599352ad5f49420001caf919,11:25:09 AM,1/15/2024
4546.0,"<div class = numbox><p style=""font-size:2.5rem"">What were the numbers <b>in order</b>?<br>(When you are ready to lock in your answer, press <b>ENTER</b>)</p><button id = button_1 class = ""square num-button"" onclick = ""recordClick(this)""><div class = content><div class = numbers>1</div></div></button><button id = button_2 class = ""square num-button"" onclick = ""recordClick(this)""><div class = content><div class = numbers>2</div></div></button><button id = button_3 class = ""square num-button"" onclick = ""recordClick(this)""><div class = content><div class = numbers>3</div></div></button><button id = button_4 class = ""square num-button"" onclick = ""recordClick(this)""><div class = content><div class = numbers>4</div></div></button><button id = button_5 class = ""square num-button"" onclick = ""recordClick(this)""><div class = content><div class = numbers>5</div></div></button><button id = button_6 class = ""square num-button"" onclick = ""recordClick(this)""><div class = content><div class = numbers>6</div></div></button><button id = button_7 class = ""square num-button"" onclick = ""recordClick(this)""><div class = content><div class = numbers>7</div></div></button><button id = button_8 class = ""square num-button"" onclick = ""recordClick(this)""><div class = content><div class = numbers>8</div></div></button><button id = button_9 class = ""square num-button"" onclick = ""recordClick(this)""><div class = content><div class = numbers>9</div></div></button><button class = clear_button id = ""ClearButton"" onclick = ""clearResponse()"">Clear</button><p><u><b>Current Answer:</b></u></p><div id=echoed_txt style=""font-size: 6rem; color:blue;""><b></b></div></div><br><br><br><br><br><br><br>",enter,fwdspan,response,MaQzEgoW5DSHKm4FhWmdnsucl4w1,html-keyboard-response,74,337671,0.0-7.0-2.5-0.5-3.5,7.0,"[2,5,1,8,9,7]","[2,5,1,8,3,9,7]",0.0,"[3, 4, 5, 6, 6, 7, 7, 8, 8, 7, 7, 6]",,599352ad5f49420001caf919,11:25:09 AM,1/15/2024
,,,fwdspan,update_span,MaQzEgoW5DSHKm4FhWmdnsucl4w1,call-function,75,337922,0.0-7.0-2.5-0.5-4.5,,,,,,,599352ad5f49420001caf919,11:25:09 AM,1/15/2024
1432.0,"<p style=""font-size:3rem"">Trial 7 of 12</p><br><br><br>",0,fwdspan,start_trial,MaQzEgoW5DSHKm4FhWmdnsucl4w1,html-button-response,76,339354,0.0-7.0-2.6-0.6-0.6,,,,,,,599352ad5f49420001caf919,11:25:09 AM,1/15/2024
,"<p style=""font-size:14rem;font-weight:400;"">9</p>",,fwdspan,number,MaQzEgoW5DSHKm4FhWmdnsucl4w1,html-keyboard-response,77,340356,0.0-7.0-2.6-0.6-1.31-0.31,,,,,,,599352ad5f49420001caf919,11:25:09 AM,1/15/2024
,"<p style=""font-size:14rem;font-weight:400;"">8</p>",,fwdspan,number,MaQzEgoW5DSHKm4FhWmdnsucl4w1,html-keyboard-response,78,341359,0.0-7.0-2.6-0.6-1.32-0.32,,,,,,,599352ad5f49420001caf919,11:25:09 AM,1/15/2024
,"<p style=""font-size:14rem;font-weight:400;"">1</p>",,fwdspan,number,MaQzEgoW5DSHKm4FhWmdnsucl4w1,html-keyboard-response,79,342360,0.0-7.0-2.6-0.6-1.33-0.33,,,,,,,599352ad5f49420001caf919,11:25:09 AM,1/15/2024
,"<p style=""font-size:14rem;font-weight:400;"">2</p>",,fwdspan,number,MaQzEgoW5DSHKm4FhWmdnsucl4w1,html-keyboard-response,80,343363,0.0-7.0-2.6-0.6-1.34-0.34,,,,,,,599352ad5f49420001caf919,11:25:09 AM,1/15/2024
,"<p style=""font-size:14rem;font-weight:400;"">4</p>",,fwdspan,number,MaQzEgoW5DSHKm4FhWmdnsucl4w1,html-keyboard-response,81,344365,0.0-7.0-2.6-0.6-1.35-0.35,,,,,,,599352ad5f49420001caf919,11:25:09 AM,1/15/2024
,"<p style=""font-size:14rem;font-weight:400;"">3</p>",,fwdspan,number,MaQzEgoW5DSHKm4FhWmdnsucl4w1,html-keyboard-response,82,345367,0.0-7.0-2.6-0.6-1.36-0.36,,,,,,,599352ad5f49420001caf919,11:25:09 AM,1/15/2024
,"<p style=""font-size:14rem;font-weight:400;"">6</p>",,fwdspan,number,MaQzEgoW5DSHKm4FhWmdnsucl4w1,html-keyboard-response,83,346370,0.0-7.0-2.6-0.6-1.37-0.37,,,,,,,599352ad5f49420001caf919,11:25:09 AM,1/15/2024
,[],,fwdspan,delay,MaQzEgoW5DSHKm4FhWmdnsucl4w1,html-keyboard-response,84,346922,0.0-7.0-2.6-0.6-2.6,,,,,,,599352ad5f49420001caf919,11:25:09 AM,1/15/2024
3870.0,"<div class = numbox><p style=""font-size:2.5rem"">What were the numbers <b>in order</b>?<br>(When you are ready to lock in your answer, press <b>ENTER</b>)</p><button id = button_1 class = ""square num-button"" onclick = ""recordClick(this)""><div class = content><div class = numbers>1</div></div></button><button id = button_2 class = ""square num-button"" onclick = ""recordClick(this)""><div class = content><div class = numbers>2</div></div></button><button id = button_3 class = ""square num-button"" onclick = ""recordClick(this)""><div class = content><div class = numbers>3</div></div></button><button id = button_4 class = ""square num-button"" onclick = ""recordClick(this)""><div class = content><div class = numbers>4</div></div></button><button id = button_5 class = ""square num-button"" onclick = ""recordClick(this)""><div class = content><div class = numbers>5</div></div></button><button id = button_6 class = ""square num-button"" onclick = ""recordClick(this)""><div class = content><div class = numbers>6</div></div></button><button id = button_7 class = ""square num-button"" onclick = ""recordClick(this)""><div class = content><div class = numbers>7</div></div></button><button id = button_8 class = ""square num-button"" onclick = ""recordClick(this)""><div class = content><div class = numbers>8</div></div></button><button id = button_9 class = ""square num-button"" onclick = ""recordClick(this)""><div class = content><div class = numbers>9</div></div></button><button class = clear_button id = ""ClearButton"" onclick = ""clearResponse()"">Clear</button><p><u><b>Current Answer:</b></u></p><div id=echoed_txt style=""font-size: 6rem; color:blue;""><b></b></div></div><br><br><br><br><br><br><br>",enter,fwdspan,response,MaQzEgoW5DSHKm4FhWmdnsucl4w1,html-keyboard-response,85,350793,0.0-7.0-2.6-0.6-3.6,7.0,"[9,8,1,2,4,3,6]","[9,8,1,2,4,3,6]",1.0,"[3, 4, 5, 6, 6, 7, 7, 8, 8, 7, 7, 6]",,599352ad5f49420001caf919,11:25:09 AM,1/15/2024
,,,fwdspan,update_span,MaQzEgoW5DSHKm4FhWmdnsucl4w1,call-function,86,351046,0.0-7.0-2.6-0.6-4.6,,,,,,,599352ad5f49420001caf919,11:25:09 AM,1/15/2024
1408.0,"<p style=""font-size:3rem"">Trial 8 of 12</p><br><br><br>",0,fwdspan,start_trial,MaQzEgoW5DSHKm4FhWmdnsucl4w1,html-button-response,87,352454,0.0-7.0-2.7-0.7-0.7,,,,,,,599352ad5f49420001caf919,11:25:09 AM,1/15/2024
,"<p style=""font-size:14rem;font-weight:400;"">4</p>",,fwdspan,number,MaQzEgoW5DSHKm4FhWmdnsucl4w1,html-keyboard-response,88,353456,0.0-7.0-2.7-0.7-1.38-0.38,,,,,,,599352ad5f49420001caf919,11:25:09 AM,1/15/2024
,"<p style=""font-size:14rem;font-weight:400;"">8</p>",,fwdspan,number,MaQzEgoW5DSHKm4FhWmdnsucl4w1,html-keyboard-response,89,354459,0.0-7.0-2.7-0.7-1.39-0.39,,,,,,,599352ad5f49420001caf919,11:25:09 AM,1/15/2024
,"<p style=""font-size:14rem;font-weight:400;"">9</p>",,fwdspan,number,MaQzEgoW5DSHKm4FhWmdnsucl4w1,html-keyboard-response,90,355461,0.0-7.0-2.7-0.7-1.40-0.40,,,,,,,599352ad5f49420001caf919,11:25:09 AM,1/15/2024
,"<p style=""font-size:14rem;font-weight:400;"">3</p>",,fwdspan,number,MaQzEgoW5DSHKm4FhWmdnsucl4w1,html-keyboard-response,91,356463,0.0-7.0-2.7-0.7-1.41-0.41,,,,,,,599352ad5f49420001caf919,11:25:09 AM,1/15/2024
,"<p style=""font-size:14rem;font-weight:400;"">5</p>",,fwdspan,number,MaQzEgoW5DSHKm4FhWmdnsucl4w1,html-keyboard-response,92,357466,0.0-7.0-2.7-0.7-1.42-0.42,,,,,,,599352ad5f49420001caf919,11:25:09 AM,1/15/2024
,"<p style=""font-size:14rem;font-weight:400;"">6</p>",,fwdspan,number,MaQzEgoW5DSHKm4FhWmdnsucl4w1,html-keyboard-response,93,358468,0.0-7.0-2.7-0.7-1.43-0.43,,,,,,,599352ad5f49420001caf919,11:25:09 AM,1/15/2024
,"<p style=""font-size:14rem;font-weight:400;"">1</p>",,fwdspan,number,MaQzEgoW5DSHKm4FhWmdnsucl4w1,html-keyboard-response,94,359470,0.0-7.0-2.7-0.7-1.44-0.44,,,,,,,599352ad5f49420001caf919,11:25:09 AM,1/15/2024
,"<p style=""font-size:14rem;font-weight:400;"">2</p>",,fwdspan,number,MaQzEgoW5DSHKm4FhWmdnsucl4w1,html-keyboard-response,95,360473,0.0-7.0-2.7-0.7-1.45-0.45,,,,,,,599352ad5f49420001caf919,11:25:09 AM,1/15/2024
,[],,fwdspan,delay,MaQzEgoW5DSHKm4FhWmdnsucl4w1,html-keyboard-response,96,361024,0.0-7.0-2.7-0.7-2.7,,,,,,,599352ad5f49420001caf919,11:25:09 AM,1/15/2024
7604.999999999942,"<div class = numbox><p style=""font-size:2.5rem"">What were the numbers <b>in order</b>?<br>(When you are ready to lock in your answer, press <b>ENTER</b>)</p><button id = button_1 class = ""square num-button"" onclick = ""recordClick(this)""><div class = content><div class = numbers>1</div></div></button><button id = button_2 class = ""square num-button"" onclick = ""recordClick(this)""><div class = content><div class = numbers>2</div></div></button><button id = button_3 class = ""square num-button"" onclick = ""recordClick(this)""><div class = content><div class = numbers>3</div></div></button><button id = button_4 class = ""square num-button"" onclick = ""recordClick(this)""><div class = content><div class = numbers>4</div></div></button><button id = button_5 class = ""square num-button"" onclick = ""recordClick(this)""><div class = content><div class = numbers>5</div></div></button><button id = button_6 class = ""square num-button"" onclick = ""recordClick(this)""><div class = content><div class = numbers>6</div></div></button><button id = button_7 class = ""square num-button"" onclick = ""recordClick(this)""><div class = content><div class = numbers>7</div></div></button><button id = button_8 class = ""square num-button"" onclick = ""recordClick(this)""><div class = content><div class = numbers>8</div></div></button><button id = button_9 class = ""square num-button"" onclick = ""recordClick(this)""><div class = content><div class = numbers>9</div></div></button><button class = clear_button id = ""ClearButton"" onclick = ""clearResponse()"">Clear</button><p><u><b>Current Answer:</b></u></p><div id=echoed_txt style=""font-size: 6rem; color:blue;""><b></b></div></div><br><br><br><br><br><br><br>",enter,fwdspan,response,MaQzEgoW5DSHKm4FhWmdnsucl4w1,html-keyboard-response,97,368630,0.0-7.0-2.7-0.7-3.7,8.0,"[3,8,9,4,5,1,2]","[4,8,9,3,5,6,1,2]",0.0,"[3, 4, 5, 6, 6, 7, 7, 8, 8, 7, 7, 6]",,599352ad5f49420001caf919,11:25:09 AM,1/15/2024
,,,fwdspan,update_span,MaQzEgoW5DSHKm4FhWmdnsucl4w1,call-function,98,368882,0.0-7.0-2.7-0.7-4.7,,,,,,,599352ad5f49420001caf919,11:25:09 AM,1/15/2024
169503.0,"<p style=""font-size:3rem"">Trial 9 of 12</p><br><br><br>",0,fwdspan,start_trial,MaQzEgoW5DSHKm4FhWmdnsucl4w1,html-button-response,99,538386,0.0-7.0-2.8-0.8-0.8,,,,,,,599352ad5f49420001caf919,11:25:09 AM,1/15/2024
,"<p style=""font-size:14rem;font-weight:400;"">1</p>",,fwdspan,number,MaQzEgoW5DSHKm4FhWmdnsucl4w1,html-keyboard-response,100,539389,0.0-7.0-2.8-0.8-1.46-0.46,,,,,,,599352ad5f49420001caf919,11:25:09 AM,1/15/2024
,"<p style=""font-size:14rem;font-weight:400;"">3</p>",,fwdspan,number,MaQzEgoW5DSHKm4FhWmdnsucl4w1,html-keyboard-response,101,540392,0.0-7.0-2.8-0.8-1.47-0.47,,,,,,,599352ad5f49420001caf919,11:25:09 AM,1/15/2024
,"<p style=""font-size:14rem;font-weight:400;"">4</p>",,fwdspan,number,MaQzEgoW5DSHKm4FhWmdnsucl4w1,html-keyboard-response,102,541394,0.0-7.0-2.8-0.8-1.48-0.48,,,,,,,599352ad5f49420001caf919,11:25:09 AM,1/15/2024
,"<p style=""font-size:14rem;font-weight:400;"">8</p>",,fwdspan,number,MaQzEgoW5DSHKm4FhWmdnsucl4w1,html-keyboard-response,103,542397,0.0-7.0-2.8-0.8-1.49-0.49,,,,,,,599352ad5f49420001caf919,11:25:09 AM,1/15/2024
,"<p style=""font-size:14rem;font-weight:400;"">9</p>",,fwdspan,number,MaQzEgoW5DSHKm4FhWmdnsucl4w1,html-keyboard-response,104,543400,0.0-7.0-2.8-0.8-1.50-0.50,,,,,,,599352ad5f49420001caf919,11:25:09 AM,1/15/2024
,"<p style=""font-size:14rem;font-weight:400;"">7</p>",,fwdspan,number,MaQzEgoW5DSHKm4FhWmdnsucl4w1,html-keyboard-response,105,544402,0.0-7.0-2.8-0.8-1.51-0.51,,,,,,,599352ad5f49420001caf919,11:25:09 AM,1/15/2024
,"<p style=""font-size:14rem;font-weight:400;"">2</p>",,fwdspan,number,MaQzEgoW5DSHKm4FhWmdnsucl4w1,html-keyboard-response,106,545404,0.0-7.0-2.8-0.8-1.52-0.52,,,,,,,599352ad5f49420001caf919,11:25:09 AM,1/15/2024
,"<p style=""font-size:14rem;font-weight:400;"">6</p>",,fwdspan,number,MaQzEgoW5DSHKm4FhWmdnsucl4w1,html-keyboard-response,107,546405,0.0-7.0-2.8-0.8-1.53-0.53,,,,,,,599352ad5f49420001caf919,11:25:09 AM,1/15/2024
,[],,fwdspan,delay,MaQzEgoW5DSHKm4FhWmdnsucl4w1,html-keyboard-response,108,546958,0.0-7.0-2.8-0.8-2.8,,,,,,,599352ad5f49420001caf919,11:25:09 AM,1/15/2024
8114.0,"<div class = numbox><p style=""font-size:2.5rem"">What were the numbers <b>in order</b>?<br>(When you are ready to lock in your answer, press <b>ENTER</b>)</p><button id = button_1 class = ""square num-button"" onclick = ""recordClick(this)""><div class = content><div class = numbers>1</div></div></button><button id = button_2 class = ""square num-button"" onclick = ""recordClick(this)""><div class = content><div class = numbers>2</div></div></button><button id = button_3 class = ""square num-button"" onclick = ""recordClick(this)""><div class = content><div class = numbers>3</div></div></button><button id = button_4 class = ""square num-button"" onclick = ""recordClick(this)""><div class = content><div class = numbers>4</div></div></button><button id = button_5 class = ""square num-button"" onclick = ""recordClick(this)""><div class = content><div class = numbers>5</div></div></button><button id = button_6 class = ""square num-button"" onclick = ""recordClick(this)""><div class = content><div class = numbers>6</div></div></button><button id = button_7 class = ""square num-button"" onclick = ""recordClick(this)""><div class = content><div class = numbers>7</div></div></button><button id = button_8 class = ""square num-button"" onclick = ""recordClick(this)""><div class = content><div class = numbers>8</div></div></button><button id = button_9 class = ""square num-button"" onclick = ""recordClick(this)""><div class = content><div class = numbers>9</div></div></button><button class = clear_button id = ""ClearButton"" onclick = ""clearResponse()"">Clear</button><p><u><b>Current Answer:</b></u></p><div id=echoed_txt style=""font-size: 6rem; color:blue;""><b></b></div></div><br><br><br><br><br><br><br>",enter,fwdspan,response,MaQzEgoW5DSHKm4FhWmdnsucl4w1,html-keyboard-response,109,555073,0.0-7.0-2.8-0.8-3.8,8.0,"[1,2,3,5,7,2,1,4]","[1,3,4,8,9,7,2,6]",0.0,"[3, 4, 5, 6, 6, 7, 7, 8, 8, 7, 7, 6]",,599352ad5f49420001caf919,11:25:09 AM,1/15/2024
,,,fwdspan,update_span,MaQzEgoW5DSHKm4FhWmdnsucl4w1,call-function,110,555325,0.0-7.0-2.8-0.8-4.8,,,,,,,599352ad5f49420001caf919,11:25:09 AM,1/15/2024
4075.0,"<p style=""font-size:3rem"">Trial 10 of 12</p><br><br><br>",0,fwdspan,start_trial,MaQzEgoW5DSHKm4FhWmdnsucl4w1,html-button-response,111,559401,0.0-7.0-2.9-0.9-0.9,,,,,,,599352ad5f49420001caf919,11:25:09 AM,1/15/2024
,"<p style=""font-size:14rem;font-weight:400;"">2</p>",,fwdspan,number,MaQzEgoW5DSHKm4FhWmdnsucl4w1,html-keyboard-response,112,560403,0.0-7.0-2.9-0.9-1.54-0.54,,,,,,,599352ad5f49420001caf919,11:25:09 AM,1/15/2024
,"<p style=""font-size:14rem;font-weight:400;"">1</p>",,fwdspan,number,MaQzEgoW5DSHKm4FhWmdnsucl4w1,html-keyboard-response,113,561406,0.0-7.0-2.9-0.9-1.55-0.55,,,,,,,599352ad5f49420001caf919,11:25:09 AM,1/15/2024
,"<p style=""font-size:14rem;font-weight:400;"">3</p>",,fwdspan,number,MaQzEgoW5DSHKm4FhWmdnsucl4w1,html-keyboard-response,114,562407,0.0-7.0-2.9-0.9-1.56-0.56,,,,,,,599352ad5f49420001caf919,11:25:09 AM,1/15/2024
,"<p style=""font-size:14rem;font-weight:400;"">7</p>",,fwdspan,number,MaQzEgoW5DSHKm4FhWmdnsucl4w1,html-keyboard-response,115,563409,0.0-7.0-2.9-0.9-1.57-0.57,,,,,,,599352ad5f49420001caf919,11:25:09 AM,1/15/2024
,"<p style=""font-size:14rem;font-weight:400;"">4</p>",,fwdspan,number,MaQzEgoW5DSHKm4FhWmdnsucl4w1,html-keyboard-response,116,564410,0.0-7.0-2.9-0.9-1.58-0.58,,,,,,,599352ad5f49420001caf919,11:25:09 AM,1/15/2024
,"<p style=""font-size:14rem;font-weight:400;"">5</p>",,fwdspan,number,MaQzEgoW5DSHKm4FhWmdnsucl4w1,html-keyboard-response,117,565412,0.0-7.0-2.9-0.9-1.59-0.59,,,,,,,599352ad5f49420001caf919,11:25:09 AM,1/15/2024
,"<p style=""font-size:14rem;font-weight:400;"">9</p>",,fwdspan,number,MaQzEgoW5DSHKm4FhWmdnsucl4w1,html-keyboard-response,118,566415,0.0-7.0-2.9-0.9-1.60-0.60,,,,,,,599352ad5f49420001caf919,11:25:09 AM,1/15/2024
,[],,fwdspan,delay,MaQzEgoW5DSHKm4FhWmdnsucl4w1,html-keyboard-response,119,566967,0.0-7.0-2.9-0.9-2.9,,,,,,,599352ad5f49420001caf919,11:25:09 AM,1/15/2024
3968.0,"<div class = numbox><p style=""font-size:2.5rem"">What were the numbers <b>in order</b>?<br>(When you are ready to lock in your answer, press <b>ENTER</b>)</p><button id = button_1 class = ""square num-button"" onclick = ""recordClick(this)""><div class = content><div class = numbers>1</div></div></button><button id = button_2 class = ""square num-button"" onclick = ""recordClick(this)""><div class = content><div class = numbers>2</div></div></button><button id = button_3 class = ""square num-button"" onclick = ""recordClick(this)""><div class = content><div class = numbers>3</div></div></button><button id = button_4 class = ""square num-button"" onclick = ""recordClick(this)""><div class = content><div class = numbers>4</div></div></button><button id = button_5 class = ""square num-button"" onclick = ""recordClick(this)""><div class = content><div class = numbers>5</div></div></button><button id = button_6 class = ""square num-button"" onclick = ""recordClick(this)""><div class = content><div class = numbers>6</div></div></button><button id = button_7 class = ""square num-button"" onclick = ""recordClick(this)""><div class = content><div class = numbers>7</div></div></button><button id = button_8 class = ""square num-button"" onclick = ""recordClick(this)""><div class = content><div class = numbers>8</div></div></button><button id = button_9 class = ""square num-button"" onclick = ""recordClick(this)""><div class = content><div class = numbers>9</div></div></button><button class = clear_button id = ""ClearButton"" onclick = ""clearResponse()"">Clear</button><p><u><b>Current Answer:</b></u></p><div id=echoed_txt style=""font-size: 6rem; color:blue;""><b></b></div></div><br><br><br><br><br><br><br>",enter,fwdspan,response,MaQzEgoW5DSHKm4FhWmdnsucl4w1,html-keyboard-response,120,570936,0.0-7.0-2.9-0.9-3.9,7.0,"[2,1,3,7,4,5,2]","[2,1,3,7,4,5,9]",0.0,"[3, 4, 5, 6, 6, 7, 7, 8, 8, 7, 7, 6]",,599352ad5f49420001caf919,11:25:09 AM,1/15/2024
,,,fwdspan,update_span,MaQzEgoW5DSHKm4FhWmdnsucl4w1,call-function,121,571187,0.0-7.0-2.9-0.9-4.9,,,,,,,599352ad5f49420001caf919,11:25:09 AM,1/15/2024
1730.0,"<p style=""font-size:3rem"">Trial 11 of 12</p><br><br><br>",0,fwdspan,start_trial,MaQzEgoW5DSHKm4FhWmdnsucl4w1,html-button-response,122,572918,0.0-7.0-2.10-0.10-0.10,,,,,,,599352ad5f49420001caf919,11:25:09 AM,1/15/2024
,"<p style=""font-size:14rem;font-weight:400;"">2</p>",,fwdspan,number,MaQzEgoW5DSHKm4FhWmdnsucl4w1,html-keyboard-response,123,573921,0.0-7.0-2.10-0.10-1.61-0.61,,,,,,,599352ad5f49420001caf919,11:25:09 AM,1/15/2024
,"<p style=""font-size:14rem;font-weight:400;"">6</p>",,fwdspan,number,MaQzEgoW5DSHKm4FhWmdnsucl4w1,html-keyboard-response,124,574922,0.0-7.0-2.10-0.10-1.62-0.62,,,,,,,599352ad5f49420001caf919,11:25:09 AM,1/15/2024
,"<p style=""font-size:14rem;font-weight:400;"">4</p>",,fwdspan,number,MaQzEgoW5DSHKm4FhWmdnsucl4w1,html-keyboard-response,125,575924,0.0-7.0-2.10-0.10-1.63-0.63,,,,,,,599352ad5f49420001caf919,11:25:09 AM,1/15/2024
,"<p style=""font-size:14rem;font-weight:400;"">5</p>",,fwdspan,number,MaQzEgoW5DSHKm4FhWmdnsucl4w1,html-keyboard-response,126,576926,0.0-7.0-2.10-0.10-1.64-0.64,,,,,,,599352ad5f49420001caf919,11:25:09 AM,1/15/2024
,"<p style=""font-size:14rem;font-weight:400;"">1</p>",,fwdspan,number,MaQzEgoW5DSHKm4FhWmdnsucl4w1,html-keyboard-response,127,577928,0.0-7.0-2.10-0.10-1.65-0.65,,,,,,,599352ad5f49420001caf919,11:25:09 AM,1/15/2024
,"<p style=""font-size:14rem;font-weight:400;"">8</p>",,fwdspan,number,MaQzEgoW5DSHKm4FhWmdnsucl4w1,html-keyboard-response,128,578930,0.0-7.0-2.10-0.10-1.66-0.66,,,,,,,599352ad5f49420001caf919,11:25:09 AM,1/15/2024
,"<p style=""font-size:14rem;font-weight:400;"">9</p>",,fwdspan,number,MaQzEgoW5DSHKm4FhWmdnsucl4w1,html-keyboard-response,129,579932,0.0-7.0-2.10-0.10-1.67-0.67,,,,,,,599352ad5f49420001caf919,11:25:09 AM,1/15/2024
,[],,fwdspan,delay,MaQzEgoW5DSHKm4FhWmdnsucl4w1,html-keyboard-response,130,580485,0.0-7.0-2.10-0.10-2.10,,,,,,,599352ad5f49420001caf919,11:25:09 AM,1/15/2024
8383.0,"<div class = numbox><p style=""font-size:2.5rem"">What were the numbers <b>in order</b>?<br>(When you are ready to lock in your answer, press <b>ENTER</b>)</p><button id = button_1 class = ""square num-button"" onclick = ""recordClick(this)""><div class = content><div class = numbers>1</div></div></button><button id = button_2 class = ""square num-button"" onclick = ""recordClick(this)""><div class = content><div class = numbers>2</div></div></button><button id = button_3 class = ""square num-button"" onclick = ""recordClick(this)""><div class = content><div class = numbers>3</div></div></button><button id = button_4 class = ""square num-button"" onclick = ""recordClick(this)""><div class = content><div class = numbers>4</div></div></button><button id = button_5 class = ""square num-button"" onclick = ""recordClick(this)""><div class = content><div class = numbers>5</div></div></button><button id = button_6 class = ""square num-button"" onclick = ""recordClick(this)""><div class = content><div class = numbers>6</div></div></button><button id = button_7 class = ""square num-button"" onclick = ""recordClick(this)""><div class = content><div class = numbers>7</div></div></button><button id = button_8 class = ""square num-button"" onclick = ""recordClick(this)""><div class = content><div class = numbers>8</div></div></button><button id = button_9 class = ""square num-button"" onclick = ""recordClick(this)""><div class = content><div class = numbers>9</div></div></button><button class = clear_button id = ""ClearButton"" onclick = ""clearResponse()"">Clear</button><p><u><b>Current Answer:</b></u></p><div id=echoed_txt style=""font-size: 6rem; color:blue;""><b></b></div></div><br><br><br><br><br><br><br>",enter,fwdspan,response,MaQzEgoW5DSHKm4FhWmdnsucl4w1,html-keyboard-response,131,588869,0.0-7.0-2.10-0.10-3.10,7.0,"[2,6,4,5]","[2,6,4,5,1,8,9]",0.0,"[3, 4, 5, 6, 6, 7, 7, 8, 8, 7, 7, 6]",,599352ad5f49420001caf919,11:25:09 AM,1/15/2024
,,,fwdspan,update_span,MaQzEgoW5DSHKm4FhWmdnsucl4w1,call-function,132,589120,0.0-7.0-2.10-0.10-4.10,,,,,,,599352ad5f49420001caf919,11:25:09 AM,1/15/2024
1179.0,"<p style=""font-size:3rem"">Trial 12 of 12</p><br><br><br>",0,fwdspan,start_trial,MaQzEgoW5DSHKm4FhWmdnsucl4w1,html-button-response,133,590300,0.0-7.0-2.11-0.11-0.11,,,,,,,599352ad5f49420001caf919,11:25:09 AM,1/15/2024
,"<p style=""font-size:14rem;font-weight:400;"">9</p>",,fwdspan,number,MaQzEgoW5DSHKm4FhWmdnsucl4w1,html-keyboard-response,134,591303,0.0-7.0-2.11-0.11-1.68-0.68,,,,,,,599352ad5f49420001caf919,11:25:09 AM,1/15/2024
,"<p style=""font-size:14rem;font-weight:400;"">1</p>",,fwdspan,number,MaQzEgoW5DSHKm4FhWmdnsucl4w1,html-keyboard-response,135,592305,0.0-7.0-2.11-0.11-1.69-0.69,,,,,,,599352ad5f49420001caf919,11:25:09 AM,1/15/2024
,"<p style=""font-size:14rem;font-weight:400;"">4</p>",,fwdspan,number,MaQzEgoW5DSHKm4FhWmdnsucl4w1,html-keyboard-response,136,593308,0.0-7.0-2.11-0.11-1.70-0.70,,,,,,,599352ad5f49420001caf919,11:25:09 AM,1/15/2024
,"<p style=""font-size:14rem;font-weight:400;"">2</p>",,fwdspan,number,MaQzEgoW5DSHKm4FhWmdnsucl4w1,html-keyboard-response,137,594310,0.0-7.0-2.11-0.11-1.71-0.71,,,,,,,599352ad5f49420001caf919,11:25:09 AM,1/15/2024
,"<p style=""font-size:14rem;font-weight:400;"">3</p>",,fwdspan,number,MaQzEgoW5DSHKm4FhWmdnsucl4w1,html-keyboard-response,138,595313,0.0-7.0-2.11-0.11-1.72-0.72,,,,,,,599352ad5f49420001caf919,11:25:09 AM,1/15/2024
,"<p style=""font-size:14rem;font-weight:400;"">8</p>",,fwdspan,number,MaQzEgoW5DSHKm4FhWmdnsucl4w1,html-keyboard-response,139,596315,0.0-7.0-2.11-0.11-1.73-0.73,,,,,,,599352ad5f49420001caf919,11:25:09 AM,1/15/2024
,[],,fwdspan,delay,MaQzEgoW5DSHKm4FhWmdnsucl4w1,html-keyboard-response,140,596866,0.0-7.0-2.11-0.11-2.11,,,,,,,599352ad5f49420001caf919,11:25:09 AM,1/15/2024
3185.0,"<div class = numbox><p style=""font-size:2.5rem"">What were the numbers <b>in order</b>?<br>(When you are ready to lock in your answer, press <b>ENTER</b>)</p><button id = button_1 class = ""square num-button"" onclick = ""recordClick(this)""><div class = content><div class = numbers>1</div></div></button><button id = button_2 class = ""square num-button"" onclick = ""recordClick(this)""><div class = content><div class = numbers>2</div></div></button><button id = button_3 class = ""square num-button"" onclick = ""recordClick(this)""><div class = content><div class = numbers>3</div></div></button><button id = button_4 class = ""square num-button"" onclick = ""recordClick(this)""><div class = content><div class = numbers>4</div></div></button><button id = button_5 class = ""square num-button"" onclick = ""recordClick(this)""><div class = content><div class = numbers>5</div></div></button><button id = button_6 class = ""square num-button"" onclick = ""recordClick(this)""><div class = content><div class = numbers>6</div></div></button><button id = button_7 class = ""square num-button"" onclick = ""recordClick(this)""><div class = content><div class = numbers>7</div></div></button><button id = button_8 class = ""square num-button"" onclick = ""recordClick(this)""><div class = content><div class = numbers>8</div></div></button><button id = button_9 class = ""square num-button"" onclick = ""recordClick(this)""><div class = content><div class = numbers>9</div></div></button><button class = clear_button id = ""ClearButton"" onclick = ""clearResponse()"">Clear</button><p><u><b>Current Answer:</b></u></p><div id=echoed_txt style=""font-size: 6rem; color:blue;""><b></b></div></div><br><br><br><br><br><br><br>",enter,fwdspan,response,MaQzEgoW5DSHKm4FhWmdnsucl4w1,html-keyboard-response,141,600053,0.0-7.0-2.11-0.11-3.11,6.0,"[1,2,4,3,8]","[9,1,4,2,3,8]",0.0,"[3, 4, 5, 6, 6, 7, 7, 8, 8, 7, 7, 6]",,599352ad5f49420001caf919,11:25:09 AM,1/15/2024
,,,fwdspan,update_span,MaQzEgoW5DSHKm4FhWmdnsucl4w1,call-function,142,600304,0.0-7.0-2.11-0.11-4.11,,,,,,,599352ad5f49420001caf919,11:25:09 AM,1/15/2024
18414.0,,"{'Q0': 'I enjoyed the tasks, kept my mind active'}",fwdspan,survey,MaQzEgoW5DSHKm4FhWmdnsucl4w1,lmdlab-survey-text,143,619469,0.0-7.0-3.0,,,,,,MaQzEgoW5DSHKm4FhWmdnsucl4w1,599352ad5f49420001caf919,11:25:09 AM,1/15/2024
2347.0,<p><p style='font-size: 3rem'>Great work!<br><br>This completes the digit span task.</p><br><br><br>,0,fwdspan,finish,MaQzEgoW5DSHKm4FhWmdnsucl4w1,html-button-response,144,621817,0.0-7.0-4.0,,,,,,,599352ad5f49420001caf919,11:25:09 AM,1/15/2024
