rt,stimulus,response,exp_name,exp_stage,subjectID,trial_type,trial_index,time_elapsed,internal_node_id,span,answer,correct,correct_full,span_history,databaseID,prolificID,start_time,date
2336.7000000029802,"<p style=""font-size:4rem""><br><br>In the next part today, we have a completely different short task.<br><br><br>This part involves keeping numbers in you mind. Participation takes around 5 minutes.<br><br><br></p>",0,fwdspan,instruct,DVm4M911XkhetZSSYvoPm5tD8az2,html-button-response,19,458539,0.0-7.0-0.0,,,,,,,6536baae5339076dc9aed683,5:54:08 AM,1/15/2024
2454.2000000029802,"<p style=""font-size:5rem"">Welcome to the <b>digit span task</b>!<br><br></p><p style=""font-size:3.4rem""><br>On each trial, you will see a sequence of digits, followed by a delay.</p><p style=""font-size:3.4rem""><br>Then you will be asked to type them back in the same order in which they were seen.</p><p style=""font-size:3.4rem""><br><br><br>For example, if you saw the digits <b style=""color:blue;"">1</b>, <b style=""color:blue;"">2</b>, <b style=""color:blue;"">3</b>, you would respond with <b style=""color:blue;"">1</b>, <b style=""color:blue;"">2</b>, <b style=""color:blue;"">3</b></p><p style=""font-size:3.4rem""><br><br><br>To ensure the best measure of true performance for our study,<br><br>it is very important that you do not use any memory aid (e.g., pen and paper).<br><br>Please do the task solely in your head.</p><p style=""font-size:3.4rem""><br><br><br>There will be 12 total trials. Participation takes around 5 minutes.</p><br><br><br>",0,fwdspan,instruct,DVm4M911XkhetZSSYvoPm5tD8az2,html-button-response,20,460995,0.0-7.0-1.0,,,,,,,6536baae5339076dc9aed683,5:54:08 AM,1/15/2024
2093.699999988079,"<p style=""font-size:3rem"">Trial 1 of 12</p><br><br><br>",0,fwdspan,start_trial,DVm4M911XkhetZSSYvoPm5tD8az2,html-button-response,21,463092,0.0-7.0-2.0-0.0-0.0,,,,,,,6536baae5339076dc9aed683,5:54:08 AM,1/15/2024
,"<p style=""font-size:14rem;font-weight:400;"">5</p>",,fwdspan,number,DVm4M911XkhetZSSYvoPm5tD8az2,html-keyboard-response,22,464098,0.0-7.0-2.0-0.0-1.0-0.0,,,,,,,6536baae5339076dc9aed683,5:54:08 AM,1/15/2024
,"<p style=""font-size:14rem;font-weight:400;"">2</p>",,fwdspan,number,DVm4M911XkhetZSSYvoPm5tD8az2,html-keyboard-response,23,465124,0.0-7.0-2.0-0.0-1.1-0.1,,,,,,,6536baae5339076dc9aed683,5:54:08 AM,1/15/2024
,"<p style=""font-size:14rem;font-weight:400;"">6</p>",,fwdspan,number,DVm4M911XkhetZSSYvoPm5tD8az2,html-keyboard-response,24,466137,0.0-7.0-2.0-0.0-1.2-0.2,,,,,,,6536baae5339076dc9aed683,5:54:08 AM,1/15/2024
,[],,fwdspan,delay,DVm4M911XkhetZSSYvoPm5tD8az2,html-keyboard-response,25,466703,0.0-7.0-2.0-0.0-2.0,,,,,,,6536baae5339076dc9aed683,5:54:08 AM,1/15/2024
3088.5999999940395,"<div class = numbox><p style=""font-size:2.5rem"">What were the numbers <b>in order</b>?<br>(When you are ready to lock in your answer, press <b>ENTER</b>)</p><button id = button_1 class = ""square num-button"" onclick = ""recordClick(this)""><div class = content><div class = numbers>1</div></div></button><button id = button_2 class = ""square num-button"" onclick = ""recordClick(this)""><div class = content><div class = numbers>2</div></div></button><button id = button_3 class = ""square num-button"" onclick = ""recordClick(this)""><div class = content><div class = numbers>3</div></div></button><button id = button_4 class = ""square num-button"" onclick = ""recordClick(this)""><div class = content><div class = numbers>4</div></div></button><button id = button_5 class = ""square num-button"" onclick = ""recordClick(this)""><div class = content><div class = numbers>5</div></div></button><button id = button_6 class = ""square num-button"" onclick = ""recordClick(this)""><div class = content><div class = numbers>6</div></div></button><button id = button_7 class = ""square num-button"" onclick = ""recordClick(this)""><div class = content><div class = numbers>7</div></div></button><button id = button_8 class = ""square num-button"" onclick = ""recordClick(this)""><div class = content><div class = numbers>8</div></div></button><button id = button_9 class = ""square num-button"" onclick = ""recordClick(this)""><div class = content><div class = numbers>9</div></div></button><button class = clear_button id = ""ClearButton"" onclick = ""clearResponse()"">Clear</button><p><u><b>Current Answer:</b></u></p><div id=echoed_txt style=""font-size: 6rem; color:blue;""><b></b></div></div><br><br><br><br><br><br><br>",enter,fwdspan,response,DVm4M911XkhetZSSYvoPm5tD8az2,html-keyboard-response,26,469793,0.0-7.0-2.0-0.0-3.0,3.0,"[5,2,6]","[5,2,6]",1.0,"[3, 4, 5, 6, 7, 8, 8, 7, 8, 9, 10, 11]",,6536baae5339076dc9aed683,5:54:08 AM,1/15/2024
,,,fwdspan,update_span,DVm4M911XkhetZSSYvoPm5tD8az2,call-function,27,470052,0.0-7.0-2.0-0.0-4.0,,,,,,,6536baae5339076dc9aed683,5:54:08 AM,1/15/2024
1989.0999999940395,"<p style=""font-size:3rem"">Trial 2 of 12</p><br><br><br>",0,fwdspan,start_trial,DVm4M911XkhetZSSYvoPm5tD8az2,html-button-response,28,472043,0.0-7.0-2.1-0.1-0.1,,,,,,,6536baae5339076dc9aed683,5:54:08 AM,1/15/2024
,"<p style=""font-size:14rem;font-weight:400;"">9</p>",,fwdspan,number,DVm4M911XkhetZSSYvoPm5tD8az2,html-keyboard-response,29,473071,0.0-7.0-2.1-0.1-1.3-0.3,,,,,,,6536baae5339076dc9aed683,5:54:08 AM,1/15/2024
,"<p style=""font-size:14rem;font-weight:400;"">4</p>",,fwdspan,number,DVm4M911XkhetZSSYvoPm5tD8az2,html-keyboard-response,30,474095,0.0-7.0-2.1-0.1-1.4-0.4,,,,,,,6536baae5339076dc9aed683,5:54:08 AM,1/15/2024
,"<p style=""font-size:14rem;font-weight:400;"">2</p>",,fwdspan,number,DVm4M911XkhetZSSYvoPm5tD8az2,html-keyboard-response,31,475120,0.0-7.0-2.1-0.1-1.5-0.5,,,,,,,6536baae5339076dc9aed683,5:54:08 AM,1/15/2024
,"<p style=""font-size:14rem;font-weight:400;"">5</p>",,fwdspan,number,DVm4M911XkhetZSSYvoPm5tD8az2,html-keyboard-response,32,476127,0.0-7.0-2.1-0.1-1.6-0.6,,,,,,,6536baae5339076dc9aed683,5:54:08 AM,1/15/2024
,[],,fwdspan,delay,DVm4M911XkhetZSSYvoPm5tD8az2,html-keyboard-response,33,476685,0.0-7.0-2.1-0.1-2.1,,,,,,,6536baae5339076dc9aed683,5:54:08 AM,1/15/2024
4628.20000000298,"<div class = numbox><p style=""font-size:2.5rem"">What were the numbers <b>in order</b>?<br>(When you are ready to lock in your answer, press <b>ENTER</b>)</p><button id = button_1 class = ""square num-button"" onclick = ""recordClick(this)""><div class = content><div class = numbers>1</div></div></button><button id = button_2 class = ""square num-button"" onclick = ""recordClick(this)""><div class = content><div class = numbers>2</div></div></button><button id = button_3 class = ""square num-button"" onclick = ""recordClick(this)""><div class = content><div class = numbers>3</div></div></button><button id = button_4 class = ""square num-button"" onclick = ""recordClick(this)""><div class = content><div class = numbers>4</div></div></button><button id = button_5 class = ""square num-button"" onclick = ""recordClick(this)""><div class = content><div class = numbers>5</div></div></button><button id = button_6 class = ""square num-button"" onclick = ""recordClick(this)""><div class = content><div class = numbers>6</div></div></button><button id = button_7 class = ""square num-button"" onclick = ""recordClick(this)""><div class = content><div class = numbers>7</div></div></button><button id = button_8 class = ""square num-button"" onclick = ""recordClick(this)""><div class = content><div class = numbers>8</div></div></button><button id = button_9 class = ""square num-button"" onclick = ""recordClick(this)""><div class = content><div class = numbers>9</div></div></button><button class = clear_button id = ""ClearButton"" onclick = ""clearResponse()"">Clear</button><p><u><b>Current Answer:</b></u></p><div id=echoed_txt style=""font-size: 6rem; color:blue;""><b></b></div></div><br><br><br><br><br><br><br>",enter,fwdspan,response,DVm4M911XkhetZSSYvoPm5tD8az2,html-keyboard-response,34,481315,0.0-7.0-2.1-0.1-3.1,4.0,"[9,4,2,5]","[9,4,2,5]",1.0,"[3, 4, 5, 6, 7, 8, 8, 7, 8, 9, 10, 11]",,6536baae5339076dc9aed683,5:54:08 AM,1/15/2024
,,,fwdspan,update_span,DVm4M911XkhetZSSYvoPm5tD8az2,call-function,35,481584,0.0-7.0-2.1-0.1-4.1,,,,,,,6536baae5339076dc9aed683,5:54:08 AM,1/15/2024
2793.2999999970198,"<p style=""font-size:3rem"">Trial 3 of 12</p><br><br><br>",0,fwdspan,start_trial,DVm4M911XkhetZSSYvoPm5tD8az2,html-button-response,36,484379,0.0-7.0-2.2-0.2-0.2,,,,,,,6536baae5339076dc9aed683,5:54:08 AM,1/15/2024
,"<p style=""font-size:14rem;font-weight:400;"">6</p>",,fwdspan,number,DVm4M911XkhetZSSYvoPm5tD8az2,html-keyboard-response,37,485398,0.0-7.0-2.2-0.2-1.7-0.7,,,,,,,6536baae5339076dc9aed683,5:54:08 AM,1/15/2024
,"<p style=""font-size:14rem;font-weight:400;"">7</p>",,fwdspan,number,DVm4M911XkhetZSSYvoPm5tD8az2,html-keyboard-response,38,486413,0.0-7.0-2.2-0.2-1.8-0.8,,,,,,,6536baae5339076dc9aed683,5:54:08 AM,1/15/2024
,"<p style=""font-size:14rem;font-weight:400;"">8</p>",,fwdspan,number,DVm4M911XkhetZSSYvoPm5tD8az2,html-keyboard-response,39,487428,0.0-7.0-2.2-0.2-1.9-0.9,,,,,,,6536baae5339076dc9aed683,5:54:08 AM,1/15/2024
,"<p style=""font-size:14rem;font-weight:400;"">5</p>",,fwdspan,number,DVm4M911XkhetZSSYvoPm5tD8az2,html-keyboard-response,40,488434,0.0-7.0-2.2-0.2-1.10-0.10,,,,,,,6536baae5339076dc9aed683,5:54:08 AM,1/15/2024
,"<p style=""font-size:14rem;font-weight:400;"">1</p>",,fwdspan,number,DVm4M911XkhetZSSYvoPm5tD8az2,html-keyboard-response,41,489450,0.0-7.0-2.2-0.2-1.11-0.11,,,,,,,6536baae5339076dc9aed683,5:54:08 AM,1/15/2024
,[],,fwdspan,delay,DVm4M911XkhetZSSYvoPm5tD8az2,html-keyboard-response,42,490019,0.0-7.0-2.2-0.2-2.2,,,,,,,6536baae5339076dc9aed683,5:54:08 AM,1/15/2024
4650.5,"<div class = numbox><p style=""font-size:2.5rem"">What were the numbers <b>in order</b>?<br>(When you are ready to lock in your answer, press <b>ENTER</b>)</p><button id = button_1 class = ""square num-button"" onclick = ""recordClick(this)""><div class = content><div class = numbers>1</div></div></button><button id = button_2 class = ""square num-button"" onclick = ""recordClick(this)""><div class = content><div class = numbers>2</div></div></button><button id = button_3 class = ""square num-button"" onclick = ""recordClick(this)""><div class = content><div class = numbers>3</div></div></button><button id = button_4 class = ""square num-button"" onclick = ""recordClick(this)""><div class = content><div class = numbers>4</div></div></button><button id = button_5 class = ""square num-button"" onclick = ""recordClick(this)""><div class = content><div class = numbers>5</div></div></button><button id = button_6 class = ""square num-button"" onclick = ""recordClick(this)""><div class = content><div class = numbers>6</div></div></button><button id = button_7 class = ""square num-button"" onclick = ""recordClick(this)""><div class = content><div class = numbers>7</div></div></button><button id = button_8 class = ""square num-button"" onclick = ""recordClick(this)""><div class = content><div class = numbers>8</div></div></button><button id = button_9 class = ""square num-button"" onclick = ""recordClick(this)""><div class = content><div class = numbers>9</div></div></button><button class = clear_button id = ""ClearButton"" onclick = ""clearResponse()"">Clear</button><p><u><b>Current Answer:</b></u></p><div id=echoed_txt style=""font-size: 6rem; color:blue;""><b></b></div></div><br><br><br><br><br><br><br>",enter,fwdspan,response,DVm4M911XkhetZSSYvoPm5tD8az2,html-keyboard-response,43,494671,0.0-7.0-2.2-0.2-3.2,5.0,"[6,7,8,5,1]","[6,7,8,5,1]",1.0,"[3, 4, 5, 6, 7, 8, 8, 7, 8, 9, 10, 11]",,6536baae5339076dc9aed683,5:54:08 AM,1/15/2024
,,,fwdspan,update_span,DVm4M911XkhetZSSYvoPm5tD8az2,call-function,44,494933,0.0-7.0-2.2-0.2-4.2,,,,,,,6536baae5339076dc9aed683,5:54:08 AM,1/15/2024
2132.5999999940395,"<p style=""font-size:3rem"">Trial 4 of 12</p><br><br><br>",0,fwdspan,start_trial,DVm4M911XkhetZSSYvoPm5tD8az2,html-button-response,45,497067,0.0-7.0-2.3-0.3-0.3,,,,,,,6536baae5339076dc9aed683,5:54:08 AM,1/15/2024
,"<p style=""font-size:14rem;font-weight:400;"">7</p>",,fwdspan,number,DVm4M911XkhetZSSYvoPm5tD8az2,html-keyboard-response,46,498079,0.0-7.0-2.3-0.3-1.12-0.12,,,,,,,6536baae5339076dc9aed683,5:54:08 AM,1/15/2024
,"<p style=""font-size:14rem;font-weight:400;"">3</p>",,fwdspan,number,DVm4M911XkhetZSSYvoPm5tD8az2,html-keyboard-response,47,499095,0.0-7.0-2.3-0.3-1.13-0.13,,,,,,,6536baae5339076dc9aed683,5:54:08 AM,1/15/2024
,"<p style=""font-size:14rem;font-weight:400;"">9</p>",,fwdspan,number,DVm4M911XkhetZSSYvoPm5tD8az2,html-keyboard-response,48,500111,0.0-7.0-2.3-0.3-1.14-0.14,,,,,,,6536baae5339076dc9aed683,5:54:08 AM,1/15/2024
,"<p style=""font-size:14rem;font-weight:400;"">6</p>",,fwdspan,number,DVm4M911XkhetZSSYvoPm5tD8az2,html-keyboard-response,49,501129,0.0-7.0-2.3-0.3-1.15-0.15,,,,,,,6536baae5339076dc9aed683,5:54:08 AM,1/15/2024
,"<p style=""font-size:14rem;font-weight:400;"">4</p>",,fwdspan,number,DVm4M911XkhetZSSYvoPm5tD8az2,html-keyboard-response,50,502142,0.0-7.0-2.3-0.3-1.16-0.16,,,,,,,6536baae5339076dc9aed683,5:54:08 AM,1/15/2024
,"<p style=""font-size:14rem;font-weight:400;"">8</p>",,fwdspan,number,DVm4M911XkhetZSSYvoPm5tD8az2,html-keyboard-response,51,503149,0.0-7.0-2.3-0.3-1.17-0.17,,,,,,,6536baae5339076dc9aed683,5:54:08 AM,1/15/2024
,[],,fwdspan,delay,DVm4M911XkhetZSSYvoPm5tD8az2,html-keyboard-response,52,503725,0.0-7.0-2.3-0.3-2.3,,,,,,,6536baae5339076dc9aed683,5:54:08 AM,1/15/2024
6078.800000011921,"<div class = numbox><p style=""font-size:2.5rem"">What were the numbers <b>in order</b>?<br>(When you are ready to lock in your answer, press <b>ENTER</b>)</p><button id = button_1 class = ""square num-button"" onclick = ""recordClick(this)""><div class = content><div class = numbers>1</div></div></button><button id = button_2 class = ""square num-button"" onclick = ""recordClick(this)""><div class = content><div class = numbers>2</div></div></button><button id = button_3 class = ""square num-button"" onclick = ""recordClick(this)""><div class = content><div class = numbers>3</div></div></button><button id = button_4 class = ""square num-button"" onclick = ""recordClick(this)""><div class = content><div class = numbers>4</div></div></button><button id = button_5 class = ""square num-button"" onclick = ""recordClick(this)""><div class = content><div class = numbers>5</div></div></button><button id = button_6 class = ""square num-button"" onclick = ""recordClick(this)""><div class = content><div class = numbers>6</div></div></button><button id = button_7 class = ""square num-button"" onclick = ""recordClick(this)""><div class = content><div class = numbers>7</div></div></button><button id = button_8 class = ""square num-button"" onclick = ""recordClick(this)""><div class = content><div class = numbers>8</div></div></button><button id = button_9 class = ""square num-button"" onclick = ""recordClick(this)""><div class = content><div class = numbers>9</div></div></button><button class = clear_button id = ""ClearButton"" onclick = ""clearResponse()"">Clear</button><p><u><b>Current Answer:</b></u></p><div id=echoed_txt style=""font-size: 6rem; color:blue;""><b></b></div></div><br><br><br><br><br><br><br>",enter,fwdspan,response,DVm4M911XkhetZSSYvoPm5tD8az2,html-keyboard-response,53,509805,0.0-7.0-2.3-0.3-3.3,6.0,"[7,3,9,6,4,8]","[7,3,9,6,4,8]",1.0,"[3, 4, 5, 6, 7, 8, 8, 7, 8, 9, 10, 11]",,6536baae5339076dc9aed683,5:54:08 AM,1/15/2024
,,,fwdspan,update_span,DVm4M911XkhetZSSYvoPm5tD8az2,call-function,54,510063,0.0-7.0-2.3-0.3-4.3,,,,,,,6536baae5339076dc9aed683,5:54:08 AM,1/15/2024
1915.7000000029802,"<p style=""font-size:3rem"">Trial 5 of 12</p><br><br><br>",0,fwdspan,start_trial,DVm4M911XkhetZSSYvoPm5tD8az2,html-button-response,55,511980,0.0-7.0-2.4-0.4-0.4,,,,,,,6536baae5339076dc9aed683,5:54:08 AM,1/15/2024
,"<p style=""font-size:14rem;font-weight:400;"">9</p>",,fwdspan,number,DVm4M911XkhetZSSYvoPm5tD8az2,html-keyboard-response,56,512985,0.0-7.0-2.4-0.4-1.18-0.18,,,,,,,6536baae5339076dc9aed683,5:54:08 AM,1/15/2024
,"<p style=""font-size:14rem;font-weight:400;"">6</p>",,fwdspan,number,DVm4M911XkhetZSSYvoPm5tD8az2,html-keyboard-response,57,513994,0.0-7.0-2.4-0.4-1.19-0.19,,,,,,,6536baae5339076dc9aed683,5:54:08 AM,1/15/2024
,"<p style=""font-size:14rem;font-weight:400;"">4</p>",,fwdspan,number,DVm4M911XkhetZSSYvoPm5tD8az2,html-keyboard-response,58,515020,0.0-7.0-2.4-0.4-1.20-0.20,,,,,,,6536baae5339076dc9aed683,5:54:08 AM,1/15/2024
,"<p style=""font-size:14rem;font-weight:400;"">5</p>",,fwdspan,number,DVm4M911XkhetZSSYvoPm5tD8az2,html-keyboard-response,59,516031,0.0-7.0-2.4-0.4-1.21-0.21,,,,,,,6536baae5339076dc9aed683,5:54:08 AM,1/15/2024
,"<p style=""font-size:14rem;font-weight:400;"">3</p>",,fwdspan,number,DVm4M911XkhetZSSYvoPm5tD8az2,html-keyboard-response,60,517062,0.0-7.0-2.4-0.4-1.22-0.22,,,,,,,6536baae5339076dc9aed683,5:54:08 AM,1/15/2024
,"<p style=""font-size:14rem;font-weight:400;"">7</p>",,fwdspan,number,DVm4M911XkhetZSSYvoPm5tD8az2,html-keyboard-response,61,518090,0.0-7.0-2.4-0.4-1.23-0.23,,,,,,,6536baae5339076dc9aed683,5:54:08 AM,1/15/2024
,"<p style=""font-size:14rem;font-weight:400;"">2</p>",,fwdspan,number,DVm4M911XkhetZSSYvoPm5tD8az2,html-keyboard-response,62,519111,0.0-7.0-2.4-0.4-1.24-0.24,,,,,,,6536baae5339076dc9aed683,5:54:08 AM,1/15/2024
,[],,fwdspan,delay,DVm4M911XkhetZSSYvoPm5tD8az2,html-keyboard-response,63,519673,0.0-7.0-2.4-0.4-2.4,,,,,,,6536baae5339076dc9aed683,5:54:08 AM,1/15/2024
9966.70000000298,"<div class = numbox><p style=""font-size:2.5rem"">What were the numbers <b>in order</b>?<br>(When you are ready to lock in your answer, press <b>ENTER</b>)</p><button id = button_1 class = ""square num-button"" onclick = ""recordClick(this)""><div class = content><div class = numbers>1</div></div></button><button id = button_2 class = ""square num-button"" onclick = ""recordClick(this)""><div class = content><div class = numbers>2</div></div></button><button id = button_3 class = ""square num-button"" onclick = ""recordClick(this)""><div class = content><div class = numbers>3</div></div></button><button id = button_4 class = ""square num-button"" onclick = ""recordClick(this)""><div class = content><div class = numbers>4</div></div></button><button id = button_5 class = ""square num-button"" onclick = ""recordClick(this)""><div class = content><div class = numbers>5</div></div></button><button id = button_6 class = ""square num-button"" onclick = ""recordClick(this)""><div class = content><div class = numbers>6</div></div></button><button id = button_7 class = ""square num-button"" onclick = ""recordClick(this)""><div class = content><div class = numbers>7</div></div></button><button id = button_8 class = ""square num-button"" onclick = ""recordClick(this)""><div class = content><div class = numbers>8</div></div></button><button id = button_9 class = ""square num-button"" onclick = ""recordClick(this)""><div class = content><div class = numbers>9</div></div></button><button class = clear_button id = ""ClearButton"" onclick = ""clearResponse()"">Clear</button><p><u><b>Current Answer:</b></u></p><div id=echoed_txt style=""font-size: 6rem; color:blue;""><b></b></div></div><br><br><br><br><br><br><br>",enter,fwdspan,response,DVm4M911XkhetZSSYvoPm5tD8az2,html-keyboard-response,64,529641,0.0-7.0-2.4-0.4-3.4,7.0,"[9,6,4,5,3,7,2]","[9,6,4,5,3,7,2]",1.0,"[3, 4, 5, 6, 7, 8, 8, 7, 8, 9, 10, 11]",,6536baae5339076dc9aed683,5:54:08 AM,1/15/2024
,,,fwdspan,update_span,DVm4M911XkhetZSSYvoPm5tD8az2,call-function,65,529894,0.0-7.0-2.4-0.4-4.4,,,,,,,6536baae5339076dc9aed683,5:54:08 AM,1/15/2024
1691.699999988079,"<p style=""font-size:3rem"">Trial 6 of 12</p><br><br><br>",0,fwdspan,start_trial,DVm4M911XkhetZSSYvoPm5tD8az2,html-button-response,66,531587,0.0-7.0-2.5-0.5-0.5,,,,,,,6536baae5339076dc9aed683,5:54:08 AM,1/15/2024
,"<p style=""font-size:14rem;font-weight:400;"">8</p>",,fwdspan,number,DVm4M911XkhetZSSYvoPm5tD8az2,html-keyboard-response,67,532610,0.0-7.0-2.5-0.5-1.25-0.25,,,,,,,6536baae5339076dc9aed683,5:54:08 AM,1/15/2024
,"<p style=""font-size:14rem;font-weight:400;"">2</p>",,fwdspan,number,DVm4M911XkhetZSSYvoPm5tD8az2,html-keyboard-response,68,533632,0.0-7.0-2.5-0.5-1.26-0.26,,,,,,,6536baae5339076dc9aed683,5:54:08 AM,1/15/2024
,"<p style=""font-size:14rem;font-weight:400;"">3</p>",,fwdspan,number,DVm4M911XkhetZSSYvoPm5tD8az2,html-keyboard-response,69,534660,0.0-7.0-2.5-0.5-1.27-0.27,,,,,,,6536baae5339076dc9aed683,5:54:08 AM,1/15/2024
,"<p style=""font-size:14rem;font-weight:400;"">1</p>",,fwdspan,number,DVm4M911XkhetZSSYvoPm5tD8az2,html-keyboard-response,70,535690,0.0-7.0-2.5-0.5-1.28-0.28,,,,,,,6536baae5339076dc9aed683,5:54:08 AM,1/15/2024
,"<p style=""font-size:14rem;font-weight:400;"">5</p>",,fwdspan,number,DVm4M911XkhetZSSYvoPm5tD8az2,html-keyboard-response,71,536694,0.0-7.0-2.5-0.5-1.29-0.29,,,,,,,6536baae5339076dc9aed683,5:54:08 AM,1/15/2024
,"<p style=""font-size:14rem;font-weight:400;"">7</p>",,fwdspan,number,DVm4M911XkhetZSSYvoPm5tD8az2,html-keyboard-response,72,537703,0.0-7.0-2.5-0.5-1.30-0.30,,,,,,,6536baae5339076dc9aed683,5:54:08 AM,1/15/2024
,"<p style=""font-size:14rem;font-weight:400;"">4</p>",,fwdspan,number,DVm4M911XkhetZSSYvoPm5tD8az2,html-keyboard-response,73,538751,0.0-7.0-2.5-0.5-1.31-0.31,,,,,,,6536baae5339076dc9aed683,5:54:08 AM,1/15/2024
,"<p style=""font-size:14rem;font-weight:400;"">6</p>",,fwdspan,number,DVm4M911XkhetZSSYvoPm5tD8az2,html-keyboard-response,74,539776,0.0-7.0-2.5-0.5-1.32-0.32,,,,,,,6536baae5339076dc9aed683,5:54:08 AM,1/15/2024
,[],,fwdspan,delay,DVm4M911XkhetZSSYvoPm5tD8az2,html-keyboard-response,75,540343,0.0-7.0-2.5-0.5-2.5,,,,,,,6536baae5339076dc9aed683,5:54:08 AM,1/15/2024
9080.90000000596,"<div class = numbox><p style=""font-size:2.5rem"">What were the numbers <b>in order</b>?<br>(When you are ready to lock in your answer, press <b>ENTER</b>)</p><button id = button_1 class = ""square num-button"" onclick = ""recordClick(this)""><div class = content><div class = numbers>1</div></div></button><button id = button_2 class = ""square num-button"" onclick = ""recordClick(this)""><div class = content><div class = numbers>2</div></div></button><button id = button_3 class = ""square num-button"" onclick = ""recordClick(this)""><div class = content><div class = numbers>3</div></div></button><button id = button_4 class = ""square num-button"" onclick = ""recordClick(this)""><div class = content><div class = numbers>4</div></div></button><button id = button_5 class = ""square num-button"" onclick = ""recordClick(this)""><div class = content><div class = numbers>5</div></div></button><button id = button_6 class = ""square num-button"" onclick = ""recordClick(this)""><div class = content><div class = numbers>6</div></div></button><button id = button_7 class = ""square num-button"" onclick = ""recordClick(this)""><div class = content><div class = numbers>7</div></div></button><button id = button_8 class = ""square num-button"" onclick = ""recordClick(this)""><div class = content><div class = numbers>8</div></div></button><button id = button_9 class = ""square num-button"" onclick = ""recordClick(this)""><div class = content><div class = numbers>9</div></div></button><button class = clear_button id = ""ClearButton"" onclick = ""clearResponse()"">Clear</button><p><u><b>Current Answer:</b></u></p><div id=echoed_txt style=""font-size: 6rem; color:blue;""><b></b></div></div><br><br><br><br><br><br><br>",enter,fwdspan,response,DVm4M911XkhetZSSYvoPm5tD8az2,html-keyboard-response,76,549425,0.0-7.0-2.5-0.5-3.5,8.0,"[8,2,3,5,7,4,6]","[8,2,3,1,5,7,4,6]",0.0,"[3, 4, 5, 6, 7, 8, 8, 7, 8, 9, 10, 11]",,6536baae5339076dc9aed683,5:54:08 AM,1/15/2024
,,,fwdspan,update_span,DVm4M911XkhetZSSYvoPm5tD8az2,call-function,77,549689,0.0-7.0-2.5-0.5-4.5,,,,,,,6536baae5339076dc9aed683,5:54:08 AM,1/15/2024
2680.0999999940395,"<p style=""font-size:3rem"">Trial 7 of 12</p><br><br><br>",0,fwdspan,start_trial,DVm4M911XkhetZSSYvoPm5tD8az2,html-button-response,78,552371,0.0-7.0-2.6-0.6-0.6,,,,,,,6536baae5339076dc9aed683,5:54:08 AM,1/15/2024
,"<p style=""font-size:14rem;font-weight:400;"">7</p>",,fwdspan,number,DVm4M911XkhetZSSYvoPm5tD8az2,html-keyboard-response,79,553388,0.0-7.0-2.6-0.6-1.33-0.33,,,,,,,6536baae5339076dc9aed683,5:54:08 AM,1/15/2024
,"<p style=""font-size:14rem;font-weight:400;"">6</p>",,fwdspan,number,DVm4M911XkhetZSSYvoPm5tD8az2,html-keyboard-response,80,554415,0.0-7.0-2.6-0.6-1.34-0.34,,,,,,,6536baae5339076dc9aed683,5:54:08 AM,1/15/2024
,"<p style=""font-size:14rem;font-weight:400;"">5</p>",,fwdspan,number,DVm4M911XkhetZSSYvoPm5tD8az2,html-keyboard-response,81,555437,0.0-7.0-2.6-0.6-1.35-0.35,,,,,,,6536baae5339076dc9aed683,5:54:08 AM,1/15/2024
,"<p style=""font-size:14rem;font-weight:400;"">8</p>",,fwdspan,number,DVm4M911XkhetZSSYvoPm5tD8az2,html-keyboard-response,82,556442,0.0-7.0-2.6-0.6-1.36-0.36,,,,,,,6536baae5339076dc9aed683,5:54:08 AM,1/15/2024
,"<p style=""font-size:14rem;font-weight:400;"">4</p>",,fwdspan,number,DVm4M911XkhetZSSYvoPm5tD8az2,html-keyboard-response,83,557459,0.0-7.0-2.6-0.6-1.37-0.37,,,,,,,6536baae5339076dc9aed683,5:54:08 AM,1/15/2024
,"<p style=""font-size:14rem;font-weight:400;"">9</p>",,fwdspan,number,DVm4M911XkhetZSSYvoPm5tD8az2,html-keyboard-response,84,558480,0.0-7.0-2.6-0.6-1.38-0.38,,,,,,,6536baae5339076dc9aed683,5:54:08 AM,1/15/2024
,"<p style=""font-size:14rem;font-weight:400;"">1</p>",,fwdspan,number,DVm4M911XkhetZSSYvoPm5tD8az2,html-keyboard-response,85,559498,0.0-7.0-2.6-0.6-1.39-0.39,,,,,,,6536baae5339076dc9aed683,5:54:08 AM,1/15/2024
,"<p style=""font-size:14rem;font-weight:400;"">2</p>",,fwdspan,number,DVm4M911XkhetZSSYvoPm5tD8az2,html-keyboard-response,86,560506,0.0-7.0-2.6-0.6-1.40-0.40,,,,,,,6536baae5339076dc9aed683,5:54:08 AM,1/15/2024
,[],,fwdspan,delay,DVm4M911XkhetZSSYvoPm5tD8az2,html-keyboard-response,87,561072,0.0-7.0-2.6-0.6-2.6,,,,,,,6536baae5339076dc9aed683,5:54:08 AM,1/15/2024
40249.59999999404,"<div class = numbox><p style=""font-size:2.5rem"">What were the numbers <b>in order</b>?<br>(When you are ready to lock in your answer, press <b>ENTER</b>)</p><button id = button_1 class = ""square num-button"" onclick = ""recordClick(this)""><div class = content><div class = numbers>1</div></div></button><button id = button_2 class = ""square num-button"" onclick = ""recordClick(this)""><div class = content><div class = numbers>2</div></div></button><button id = button_3 class = ""square num-button"" onclick = ""recordClick(this)""><div class = content><div class = numbers>3</div></div></button><button id = button_4 class = ""square num-button"" onclick = ""recordClick(this)""><div class = content><div class = numbers>4</div></div></button><button id = button_5 class = ""square num-button"" onclick = ""recordClick(this)""><div class = content><div class = numbers>5</div></div></button><button id = button_6 class = ""square num-button"" onclick = ""recordClick(this)""><div class = content><div class = numbers>6</div></div></button><button id = button_7 class = ""square num-button"" onclick = ""recordClick(this)""><div class = content><div class = numbers>7</div></div></button><button id = button_8 class = ""square num-button"" onclick = ""recordClick(this)""><div class = content><div class = numbers>8</div></div></button><button id = button_9 class = ""square num-button"" onclick = ""recordClick(this)""><div class = content><div class = numbers>9</div></div></button><button class = clear_button id = ""ClearButton"" onclick = ""clearResponse()"">Clear</button><p><u><b>Current Answer:</b></u></p><div id=echoed_txt style=""font-size: 6rem; color:blue;""><b></b></div></div><br><br><br><br><br><br><br>",enter,fwdspan,response,DVm4M911XkhetZSSYvoPm5tD8az2,html-keyboard-response,88,601323,0.0-7.0-2.6-0.6-3.6,8.0,"[7,6,5,4,9,1,2]","[7,6,5,8,4,9,1,2]",0.0,"[3, 4, 5, 6, 7, 8, 8, 7, 8, 9, 10, 11]",,6536baae5339076dc9aed683,5:54:08 AM,1/15/2024
,,,fwdspan,update_span,DVm4M911XkhetZSSYvoPm5tD8az2,call-function,89,601579,0.0-7.0-2.6-0.6-4.6,,,,,,,6536baae5339076dc9aed683,5:54:08 AM,1/15/2024
12207.09999999404,"<p style=""font-size:3rem"">Trial 8 of 12</p><br><br><br>",0,fwdspan,start_trial,DVm4M911XkhetZSSYvoPm5tD8az2,html-button-response,90,613787,0.0-7.0-2.7-0.7-0.7,,,,,,,6536baae5339076dc9aed683,5:54:08 AM,1/15/2024
,"<p style=""font-size:14rem;font-weight:400;"">4</p>",,fwdspan,number,DVm4M911XkhetZSSYvoPm5tD8az2,html-keyboard-response,91,614811,0.0-7.0-2.7-0.7-1.41-0.41,,,,,,,6536baae5339076dc9aed683,5:54:08 AM,1/15/2024
,"<p style=""font-size:14rem;font-weight:400;"">8</p>",,fwdspan,number,DVm4M911XkhetZSSYvoPm5tD8az2,html-keyboard-response,92,615835,0.0-7.0-2.7-0.7-1.42-0.42,,,,,,,6536baae5339076dc9aed683,5:54:08 AM,1/15/2024
,"<p style=""font-size:14rem;font-weight:400;"">2</p>",,fwdspan,number,DVm4M911XkhetZSSYvoPm5tD8az2,html-keyboard-response,93,616861,0.0-7.0-2.7-0.7-1.43-0.43,,,,,,,6536baae5339076dc9aed683,5:54:08 AM,1/15/2024
,"<p style=""font-size:14rem;font-weight:400;"">9</p>",,fwdspan,number,DVm4M911XkhetZSSYvoPm5tD8az2,html-keyboard-response,94,617880,0.0-7.0-2.7-0.7-1.44-0.44,,,,,,,6536baae5339076dc9aed683,5:54:08 AM,1/15/2024
,"<p style=""font-size:14rem;font-weight:400;"">7</p>",,fwdspan,number,DVm4M911XkhetZSSYvoPm5tD8az2,html-keyboard-response,95,618895,0.0-7.0-2.7-0.7-1.45-0.45,,,,,,,6536baae5339076dc9aed683,5:54:08 AM,1/15/2024
,"<p style=""font-size:14rem;font-weight:400;"">1</p>",,fwdspan,number,DVm4M911XkhetZSSYvoPm5tD8az2,html-keyboard-response,96,619902,0.0-7.0-2.7-0.7-1.46-0.46,,,,,,,6536baae5339076dc9aed683,5:54:08 AM,1/15/2024
,"<p style=""font-size:14rem;font-weight:400;"">6</p>",,fwdspan,number,DVm4M911XkhetZSSYvoPm5tD8az2,html-keyboard-response,97,620909,0.0-7.0-2.7-0.7-1.47-0.47,,,,,,,6536baae5339076dc9aed683,5:54:08 AM,1/15/2024
,[],,fwdspan,delay,DVm4M911XkhetZSSYvoPm5tD8az2,html-keyboard-response,98,621474,0.0-7.0-2.7-0.7-2.7,,,,,,,6536baae5339076dc9aed683,5:54:08 AM,1/15/2024
29201.09999999404,"<div class = numbox><p style=""font-size:2.5rem"">What were the numbers <b>in order</b>?<br>(When you are ready to lock in your answer, press <b>ENTER</b>)</p><button id = button_1 class = ""square num-button"" onclick = ""recordClick(this)""><div class = content><div class = numbers>1</div></div></button><button id = button_2 class = ""square num-button"" onclick = ""recordClick(this)""><div class = content><div class = numbers>2</div></div></button><button id = button_3 class = ""square num-button"" onclick = ""recordClick(this)""><div class = content><div class = numbers>3</div></div></button><button id = button_4 class = ""square num-button"" onclick = ""recordClick(this)""><div class = content><div class = numbers>4</div></div></button><button id = button_5 class = ""square num-button"" onclick = ""recordClick(this)""><div class = content><div class = numbers>5</div></div></button><button id = button_6 class = ""square num-button"" onclick = ""recordClick(this)""><div class = content><div class = numbers>6</div></div></button><button id = button_7 class = ""square num-button"" onclick = ""recordClick(this)""><div class = content><div class = numbers>7</div></div></button><button id = button_8 class = ""square num-button"" onclick = ""recordClick(this)""><div class = content><div class = numbers>8</div></div></button><button id = button_9 class = ""square num-button"" onclick = ""recordClick(this)""><div class = content><div class = numbers>9</div></div></button><button class = clear_button id = ""ClearButton"" onclick = ""clearResponse()"">Clear</button><p><u><b>Current Answer:</b></u></p><div id=echoed_txt style=""font-size: 6rem; color:blue;""><b></b></div></div><br><br><br><br><br><br><br>",enter,fwdspan,response,DVm4M911XkhetZSSYvoPm5tD8az2,html-keyboard-response,99,650676,0.0-7.0-2.7-0.7-3.7,7.0,"[4,8,2,9,7,1,6]","[4,8,2,9,7,1,6]",1.0,"[3, 4, 5, 6, 7, 8, 8, 7, 8, 9, 10, 11]",,6536baae5339076dc9aed683,5:54:08 AM,1/15/2024
,,,fwdspan,update_span,DVm4M911XkhetZSSYvoPm5tD8az2,call-function,100,650939,0.0-7.0-2.7-0.7-4.7,,,,,,,6536baae5339076dc9aed683,5:54:08 AM,1/15/2024
6174.4000000059605,"<p style=""font-size:3rem"">Trial 9 of 12</p><br><br><br>",0,fwdspan,start_trial,DVm4M911XkhetZSSYvoPm5tD8az2,html-button-response,101,657115,0.0-7.0-2.8-0.8-0.8,,,,,,,6536baae5339076dc9aed683,5:54:08 AM,1/15/2024
,"<p style=""font-size:14rem;font-weight:400;"">7</p>",,fwdspan,number,DVm4M911XkhetZSSYvoPm5tD8az2,html-keyboard-response,102,658134,0.0-7.0-2.8-0.8-1.48-0.48,,,,,,,6536baae5339076dc9aed683,5:54:08 AM,1/15/2024
,"<p style=""font-size:14rem;font-weight:400;"">5</p>",,fwdspan,number,DVm4M911XkhetZSSYvoPm5tD8az2,html-keyboard-response,103,659140,0.0-7.0-2.8-0.8-1.49-0.49,,,,,,,6536baae5339076dc9aed683,5:54:08 AM,1/15/2024
,"<p style=""font-size:14rem;font-weight:400;"">1</p>",,fwdspan,number,DVm4M911XkhetZSSYvoPm5tD8az2,html-keyboard-response,104,660157,0.0-7.0-2.8-0.8-1.50-0.50,,,,,,,6536baae5339076dc9aed683,5:54:08 AM,1/15/2024
,"<p style=""font-size:14rem;font-weight:400;"">9</p>",,fwdspan,number,DVm4M911XkhetZSSYvoPm5tD8az2,html-keyboard-response,105,661183,0.0-7.0-2.8-0.8-1.51-0.51,,,,,,,6536baae5339076dc9aed683,5:54:08 AM,1/15/2024
,"<p style=""font-size:14rem;font-weight:400;"">2</p>",,fwdspan,number,DVm4M911XkhetZSSYvoPm5tD8az2,html-keyboard-response,106,662202,0.0-7.0-2.8-0.8-1.52-0.52,,,,,,,6536baae5339076dc9aed683,5:54:08 AM,1/15/2024
,"<p style=""font-size:14rem;font-weight:400;"">4</p>",,fwdspan,number,DVm4M911XkhetZSSYvoPm5tD8az2,html-keyboard-response,107,663216,0.0-7.0-2.8-0.8-1.53-0.53,,,,,,,6536baae5339076dc9aed683,5:54:08 AM,1/15/2024
,"<p style=""font-size:14rem;font-weight:400;"">8</p>",,fwdspan,number,DVm4M911XkhetZSSYvoPm5tD8az2,html-keyboard-response,108,664218,0.0-7.0-2.8-0.8-1.54-0.54,,,,,,,6536baae5339076dc9aed683,5:54:08 AM,1/15/2024
,"<p style=""font-size:14rem;font-weight:400;"">3</p>",,fwdspan,number,DVm4M911XkhetZSSYvoPm5tD8az2,html-keyboard-response,109,665245,0.0-7.0-2.8-0.8-1.55-0.55,,,,,,,6536baae5339076dc9aed683,5:54:08 AM,1/15/2024
,[],,fwdspan,delay,DVm4M911XkhetZSSYvoPm5tD8az2,html-keyboard-response,110,665805,0.0-7.0-2.8-0.8-2.8,,,,,,,6536baae5339076dc9aed683,5:54:08 AM,1/15/2024
12056.09999999404,"<div class = numbox><p style=""font-size:2.5rem"">What were the numbers <b>in order</b>?<br>(When you are ready to lock in your answer, press <b>ENTER</b>)</p><button id = button_1 class = ""square num-button"" onclick = ""recordClick(this)""><div class = content><div class = numbers>1</div></div></button><button id = button_2 class = ""square num-button"" onclick = ""recordClick(this)""><div class = content><div class = numbers>2</div></div></button><button id = button_3 class = ""square num-button"" onclick = ""recordClick(this)""><div class = content><div class = numbers>3</div></div></button><button id = button_4 class = ""square num-button"" onclick = ""recordClick(this)""><div class = content><div class = numbers>4</div></div></button><button id = button_5 class = ""square num-button"" onclick = ""recordClick(this)""><div class = content><div class = numbers>5</div></div></button><button id = button_6 class = ""square num-button"" onclick = ""recordClick(this)""><div class = content><div class = numbers>6</div></div></button><button id = button_7 class = ""square num-button"" onclick = ""recordClick(this)""><div class = content><div class = numbers>7</div></div></button><button id = button_8 class = ""square num-button"" onclick = ""recordClick(this)""><div class = content><div class = numbers>8</div></div></button><button id = button_9 class = ""square num-button"" onclick = ""recordClick(this)""><div class = content><div class = numbers>9</div></div></button><button class = clear_button id = ""ClearButton"" onclick = ""clearResponse()"">Clear</button><p><u><b>Current Answer:</b></u></p><div id=echoed_txt style=""font-size: 6rem; color:blue;""><b></b></div></div><br><br><br><br><br><br><br>",enter,fwdspan,response,DVm4M911XkhetZSSYvoPm5tD8az2,html-keyboard-response,111,677863,0.0-7.0-2.8-0.8-3.8,8.0,"[7,5,1,9,2,4,8,3]","[7,5,1,9,2,4,8,3]",1.0,"[3, 4, 5, 6, 7, 8, 8, 7, 8, 9, 10, 11]",,6536baae5339076dc9aed683,5:54:08 AM,1/15/2024
,,,fwdspan,update_span,DVm4M911XkhetZSSYvoPm5tD8az2,call-function,112,678119,0.0-7.0-2.8-0.8-4.8,,,,,,,6536baae5339076dc9aed683,5:54:08 AM,1/15/2024
2466.5,"<p style=""font-size:3rem"">Trial 10 of 12</p><br><br><br>",0,fwdspan,start_trial,DVm4M911XkhetZSSYvoPm5tD8az2,html-button-response,113,680588,0.0-7.0-2.9-0.9-0.9,,,,,,,6536baae5339076dc9aed683,5:54:08 AM,1/15/2024
,"<p style=""font-size:14rem;font-weight:400;"">3</p>",,fwdspan,number,DVm4M911XkhetZSSYvoPm5tD8az2,html-keyboard-response,114,681596,0.0-7.0-2.9-0.9-1.56-0.56,,,,,,,6536baae5339076dc9aed683,5:54:08 AM,1/15/2024
,"<p style=""font-size:14rem;font-weight:400;"">7</p>",,fwdspan,number,DVm4M911XkhetZSSYvoPm5tD8az2,html-keyboard-response,115,682624,0.0-7.0-2.9-0.9-1.57-0.57,,,,,,,6536baae5339076dc9aed683,5:54:08 AM,1/15/2024
,"<p style=""font-size:14rem;font-weight:400;"">1</p>",,fwdspan,number,DVm4M911XkhetZSSYvoPm5tD8az2,html-keyboard-response,116,683634,0.0-7.0-2.9-0.9-1.58-0.58,,,,,,,6536baae5339076dc9aed683,5:54:08 AM,1/15/2024
,"<p style=""font-size:14rem;font-weight:400;"">2</p>",,fwdspan,number,DVm4M911XkhetZSSYvoPm5tD8az2,html-keyboard-response,117,684651,0.0-7.0-2.9-0.9-1.59-0.59,,,,,,,6536baae5339076dc9aed683,5:54:08 AM,1/15/2024
,"<p style=""font-size:14rem;font-weight:400;"">5</p>",,fwdspan,number,DVm4M911XkhetZSSYvoPm5tD8az2,html-keyboard-response,118,685661,0.0-7.0-2.9-0.9-1.60-0.60,,,,,,,6536baae5339076dc9aed683,5:54:08 AM,1/15/2024
,"<p style=""font-size:14rem;font-weight:400;"">6</p>",,fwdspan,number,DVm4M911XkhetZSSYvoPm5tD8az2,html-keyboard-response,119,686670,0.0-7.0-2.9-0.9-1.61-0.61,,,,,,,6536baae5339076dc9aed683,5:54:08 AM,1/15/2024
,"<p style=""font-size:14rem;font-weight:400;"">9</p>",,fwdspan,number,DVm4M911XkhetZSSYvoPm5tD8az2,html-keyboard-response,120,687688,0.0-7.0-2.9-0.9-1.62-0.62,,,,,,,6536baae5339076dc9aed683,5:54:08 AM,1/15/2024
,"<p style=""font-size:14rem;font-weight:400;"">8</p>",,fwdspan,number,DVm4M911XkhetZSSYvoPm5tD8az2,html-keyboard-response,121,688704,0.0-7.0-2.9-0.9-1.63-0.63,,,,,,,6536baae5339076dc9aed683,5:54:08 AM,1/15/2024
,"<p style=""font-size:14rem;font-weight:400;"">4</p>",,fwdspan,number,DVm4M911XkhetZSSYvoPm5tD8az2,html-keyboard-response,122,689733,0.0-7.0-2.9-0.9-1.64-0.64,,,,,,,6536baae5339076dc9aed683,5:54:08 AM,1/15/2024
,[],,fwdspan,delay,DVm4M911XkhetZSSYvoPm5tD8az2,html-keyboard-response,123,690300,0.0-7.0-2.9-0.9-2.9,,,,,,,6536baae5339076dc9aed683,5:54:08 AM,1/15/2024
20598.69999998808,"<div class = numbox><p style=""font-size:2.5rem"">What were the numbers <b>in order</b>?<br>(When you are ready to lock in your answer, press <b>ENTER</b>)</p><button id = button_1 class = ""square num-button"" onclick = ""recordClick(this)""><div class = content><div class = numbers>1</div></div></button><button id = button_2 class = ""square num-button"" onclick = ""recordClick(this)""><div class = content><div class = numbers>2</div></div></button><button id = button_3 class = ""square num-button"" onclick = ""recordClick(this)""><div class = content><div class = numbers>3</div></div></button><button id = button_4 class = ""square num-button"" onclick = ""recordClick(this)""><div class = content><div class = numbers>4</div></div></button><button id = button_5 class = ""square num-button"" onclick = ""recordClick(this)""><div class = content><div class = numbers>5</div></div></button><button id = button_6 class = ""square num-button"" onclick = ""recordClick(this)""><div class = content><div class = numbers>6</div></div></button><button id = button_7 class = ""square num-button"" onclick = ""recordClick(this)""><div class = content><div class = numbers>7</div></div></button><button id = button_8 class = ""square num-button"" onclick = ""recordClick(this)""><div class = content><div class = numbers>8</div></div></button><button id = button_9 class = ""square num-button"" onclick = ""recordClick(this)""><div class = content><div class = numbers>9</div></div></button><button class = clear_button id = ""ClearButton"" onclick = ""clearResponse()"">Clear</button><p><u><b>Current Answer:</b></u></p><div id=echoed_txt style=""font-size: 6rem; color:blue;""><b></b></div></div><br><br><br><br><br><br><br>",enter,fwdspan,response,DVm4M911XkhetZSSYvoPm5tD8az2,html-keyboard-response,124,710901,0.0-7.0-2.9-0.9-3.9,9.0,"[3,7,1,2,5,6,9,8,4]","[3,7,1,2,5,6,9,8,4]",1.0,"[3, 4, 5, 6, 7, 8, 8, 7, 8, 9, 10, 11]",,6536baae5339076dc9aed683,5:54:08 AM,1/15/2024
,,,fwdspan,update_span,DVm4M911XkhetZSSYvoPm5tD8az2,call-function,125,711168,0.0-7.0-2.9-0.9-4.9,,,,,,,6536baae5339076dc9aed683,5:54:08 AM,1/15/2024
3265.1000000089407,"<p style=""font-size:3rem"">Trial 11 of 12</p><br><br><br>",0,fwdspan,start_trial,DVm4M911XkhetZSSYvoPm5tD8az2,html-button-response,126,714435,0.0-7.0-2.10-0.10-0.10,,,,,,,6536baae5339076dc9aed683,5:54:08 AM,1/15/2024
,"<p style=""font-size:14rem;font-weight:400;"">4</p>",,fwdspan,number,DVm4M911XkhetZSSYvoPm5tD8az2,html-keyboard-response,127,715465,0.0-7.0-2.10-0.10-1.65-0.65,,,,,,,6536baae5339076dc9aed683,5:54:08 AM,1/15/2024
,"<p style=""font-size:14rem;font-weight:400;"">9</p>",,fwdspan,number,DVm4M911XkhetZSSYvoPm5tD8az2,html-keyboard-response,128,716483,0.0-7.0-2.10-0.10-1.66-0.66,,,,,,,6536baae5339076dc9aed683,5:54:08 AM,1/15/2024
,"<p style=""font-size:14rem;font-weight:400;"">5</p>",,fwdspan,number,DVm4M911XkhetZSSYvoPm5tD8az2,html-keyboard-response,129,717494,0.0-7.0-2.10-0.10-1.67-0.67,,,,,,,6536baae5339076dc9aed683,5:54:08 AM,1/15/2024
,"<p style=""font-size:14rem;font-weight:400;"">7</p>",,fwdspan,number,DVm4M911XkhetZSSYvoPm5tD8az2,html-keyboard-response,130,718507,0.0-7.0-2.10-0.10-1.68-0.68,,,,,,,6536baae5339076dc9aed683,5:54:08 AM,1/15/2024
,"<p style=""font-size:14rem;font-weight:400;"">2</p>",,fwdspan,number,DVm4M911XkhetZSSYvoPm5tD8az2,html-keyboard-response,131,719511,0.0-7.0-2.10-0.10-1.69-0.69,,,,,,,6536baae5339076dc9aed683,5:54:08 AM,1/15/2024
,"<p style=""font-size:14rem;font-weight:400;"">8</p>",,fwdspan,number,DVm4M911XkhetZSSYvoPm5tD8az2,html-keyboard-response,132,720518,0.0-7.0-2.10-0.10-1.70-0.70,,,,,,,6536baae5339076dc9aed683,5:54:08 AM,1/15/2024
,"<p style=""font-size:14rem;font-weight:400;"">3</p>",,fwdspan,number,DVm4M911XkhetZSSYvoPm5tD8az2,html-keyboard-response,133,721531,0.0-7.0-2.10-0.10-1.71-0.71,,,,,,,6536baae5339076dc9aed683,5:54:08 AM,1/15/2024
,"<p style=""font-size:14rem;font-weight:400;"">1</p>",,fwdspan,number,DVm4M911XkhetZSSYvoPm5tD8az2,html-keyboard-response,134,722562,0.0-7.0-2.10-0.10-1.72-0.72,,,,,,,6536baae5339076dc9aed683,5:54:08 AM,1/15/2024
,"<p style=""font-size:14rem;font-weight:400;"">6</p>",,fwdspan,number,DVm4M911XkhetZSSYvoPm5tD8az2,html-keyboard-response,135,723567,0.0-7.0-2.10-0.10-1.73-0.73,,,,,,,6536baae5339076dc9aed683,5:54:08 AM,1/15/2024
,"<p style=""font-size:14rem;font-weight:400;"">2</p>",,fwdspan,number,DVm4M911XkhetZSSYvoPm5tD8az2,html-keyboard-response,136,724581,0.0-7.0-2.10-0.10-1.74-0.74,,,,,,,6536baae5339076dc9aed683,5:54:08 AM,1/15/2024
,[],,fwdspan,delay,DVm4M911XkhetZSSYvoPm5tD8az2,html-keyboard-response,137,725147,0.0-7.0-2.10-0.10-2.10,,,,,,,6536baae5339076dc9aed683,5:54:08 AM,1/15/2024
12337.5,"<div class = numbox><p style=""font-size:2.5rem"">What were the numbers <b>in order</b>?<br>(When you are ready to lock in your answer, press <b>ENTER</b>)</p><button id = button_1 class = ""square num-button"" onclick = ""recordClick(this)""><div class = content><div class = numbers>1</div></div></button><button id = button_2 class = ""square num-button"" onclick = ""recordClick(this)""><div class = content><div class = numbers>2</div></div></button><button id = button_3 class = ""square num-button"" onclick = ""recordClick(this)""><div class = content><div class = numbers>3</div></div></button><button id = button_4 class = ""square num-button"" onclick = ""recordClick(this)""><div class = content><div class = numbers>4</div></div></button><button id = button_5 class = ""square num-button"" onclick = ""recordClick(this)""><div class = content><div class = numbers>5</div></div></button><button id = button_6 class = ""square num-button"" onclick = ""recordClick(this)""><div class = content><div class = numbers>6</div></div></button><button id = button_7 class = ""square num-button"" onclick = ""recordClick(this)""><div class = content><div class = numbers>7</div></div></button><button id = button_8 class = ""square num-button"" onclick = ""recordClick(this)""><div class = content><div class = numbers>8</div></div></button><button id = button_9 class = ""square num-button"" onclick = ""recordClick(this)""><div class = content><div class = numbers>9</div></div></button><button class = clear_button id = ""ClearButton"" onclick = ""clearResponse()"">Clear</button><p><u><b>Current Answer:</b></u></p><div id=echoed_txt style=""font-size: 6rem; color:blue;""><b></b></div></div><br><br><br><br><br><br><br>",enter,fwdspan,response,DVm4M911XkhetZSSYvoPm5tD8az2,html-keyboard-response,138,737487,0.0-7.0-2.10-0.10-3.10,10.0,"[4,9,5,7,2,8,3,1,6,2]","[4,9,5,7,2,8,3,1,6,2]",1.0,"[3, 4, 5, 6, 7, 8, 8, 7, 8, 9, 10, 11]",,6536baae5339076dc9aed683,5:54:08 AM,1/15/2024
,,,fwdspan,update_span,DVm4M911XkhetZSSYvoPm5tD8az2,call-function,139,737746,0.0-7.0-2.10-0.10-4.10,,,,,,,6536baae5339076dc9aed683,5:54:08 AM,1/15/2024
1385.5,"<p style=""font-size:3rem"">Trial 12 of 12</p><br><br><br>",0,fwdspan,start_trial,DVm4M911XkhetZSSYvoPm5tD8az2,html-button-response,140,739132,0.0-7.0-2.11-0.11-0.11,,,,,,,6536baae5339076dc9aed683,5:54:08 AM,1/15/2024
,"<p style=""font-size:14rem;font-weight:400;"">8</p>",,fwdspan,number,DVm4M911XkhetZSSYvoPm5tD8az2,html-keyboard-response,141,740154,0.0-7.0-2.11-0.11-1.75-0.75,,,,,,,6536baae5339076dc9aed683,5:54:08 AM,1/15/2024
,"<p style=""font-size:14rem;font-weight:400;"">7</p>",,fwdspan,number,DVm4M911XkhetZSSYvoPm5tD8az2,html-keyboard-response,142,741169,0.0-7.0-2.11-0.11-1.76-0.76,,,,,,,6536baae5339076dc9aed683,5:54:08 AM,1/15/2024
,"<p style=""font-size:14rem;font-weight:400;"">6</p>",,fwdspan,number,DVm4M911XkhetZSSYvoPm5tD8az2,html-keyboard-response,143,742198,0.0-7.0-2.11-0.11-1.77-0.77,,,,,,,6536baae5339076dc9aed683,5:54:08 AM,1/15/2024
,"<p style=""font-size:14rem;font-weight:400;"">2</p>",,fwdspan,number,DVm4M911XkhetZSSYvoPm5tD8az2,html-keyboard-response,144,743207,0.0-7.0-2.11-0.11-1.78-0.78,,,,,,,6536baae5339076dc9aed683,5:54:08 AM,1/15/2024
,"<p style=""font-size:14rem;font-weight:400;"">1</p>",,fwdspan,number,DVm4M911XkhetZSSYvoPm5tD8az2,html-keyboard-response,145,744223,0.0-7.0-2.11-0.11-1.79-0.79,,,,,,,6536baae5339076dc9aed683,5:54:08 AM,1/15/2024
,"<p style=""font-size:14rem;font-weight:400;"">4</p>",,fwdspan,number,DVm4M911XkhetZSSYvoPm5tD8az2,html-keyboard-response,146,745247,0.0-7.0-2.11-0.11-1.80-0.80,,,,,,,6536baae5339076dc9aed683,5:54:08 AM,1/15/2024
,"<p style=""font-size:14rem;font-weight:400;"">5</p>",,fwdspan,number,DVm4M911XkhetZSSYvoPm5tD8az2,html-keyboard-response,147,746267,0.0-7.0-2.11-0.11-1.81-0.81,,,,,,,6536baae5339076dc9aed683,5:54:08 AM,1/15/2024
,"<p style=""font-size:14rem;font-weight:400;"">3</p>",,fwdspan,number,DVm4M911XkhetZSSYvoPm5tD8az2,html-keyboard-response,148,747309,0.0-7.0-2.11-0.11-1.82-0.82,,,,,,,6536baae5339076dc9aed683,5:54:08 AM,1/15/2024
,"<p style=""font-size:14rem;font-weight:400;"">9</p>",,fwdspan,number,DVm4M911XkhetZSSYvoPm5tD8az2,html-keyboard-response,149,748324,0.0-7.0-2.11-0.11-1.83-0.83,,,,,,,6536baae5339076dc9aed683,5:54:08 AM,1/15/2024
,"<p style=""font-size:14rem;font-weight:400;"">2</p>",,fwdspan,number,DVm4M911XkhetZSSYvoPm5tD8az2,html-keyboard-response,150,749342,0.0-7.0-2.11-0.11-1.84-0.84,,,,,,,6536baae5339076dc9aed683,5:54:08 AM,1/15/2024
,"<p style=""font-size:14rem;font-weight:400;"">5</p>",,fwdspan,number,DVm4M911XkhetZSSYvoPm5tD8az2,html-keyboard-response,151,750359,0.0-7.0-2.11-0.11-1.85-0.85,,,,,,,6536baae5339076dc9aed683,5:54:08 AM,1/15/2024
,[],,fwdspan,delay,DVm4M911XkhetZSSYvoPm5tD8az2,html-keyboard-response,152,750933,0.0-7.0-2.11-0.11-2.11,,,,,,,6536baae5339076dc9aed683,5:54:08 AM,1/15/2024
12913.29999999702,"<div class = numbox><p style=""font-size:2.5rem"">What were the numbers <b>in order</b>?<br>(When you are ready to lock in your answer, press <b>ENTER</b>)</p><button id = button_1 class = ""square num-button"" onclick = ""recordClick(this)""><div class = content><div class = numbers>1</div></div></button><button id = button_2 class = ""square num-button"" onclick = ""recordClick(this)""><div class = content><div class = numbers>2</div></div></button><button id = button_3 class = ""square num-button"" onclick = ""recordClick(this)""><div class = content><div class = numbers>3</div></div></button><button id = button_4 class = ""square num-button"" onclick = ""recordClick(this)""><div class = content><div class = numbers>4</div></div></button><button id = button_5 class = ""square num-button"" onclick = ""recordClick(this)""><div class = content><div class = numbers>5</div></div></button><button id = button_6 class = ""square num-button"" onclick = ""recordClick(this)""><div class = content><div class = numbers>6</div></div></button><button id = button_7 class = ""square num-button"" onclick = ""recordClick(this)""><div class = content><div class = numbers>7</div></div></button><button id = button_8 class = ""square num-button"" onclick = ""recordClick(this)""><div class = content><div class = numbers>8</div></div></button><button id = button_9 class = ""square num-button"" onclick = ""recordClick(this)""><div class = content><div class = numbers>9</div></div></button><button class = clear_button id = ""ClearButton"" onclick = ""clearResponse()"">Clear</button><p><u><b>Current Answer:</b></u></p><div id=echoed_txt style=""font-size: 6rem; color:blue;""><b></b></div></div><br><br><br><br><br><br><br>",enter,fwdspan,response,DVm4M911XkhetZSSYvoPm5tD8az2,html-keyboard-response,153,763848,0.0-7.0-2.11-0.11-3.11,11.0,"[8,7,6,2,1,4,5,3,9,2,5]","[8,7,6,2,1,4,5,3,9,2,5]",1.0,"[3, 4, 5, 6, 7, 8, 8, 7, 8, 9, 10, 11]",,6536baae5339076dc9aed683,5:54:08 AM,1/15/2024
,,,fwdspan,update_span,DVm4M911XkhetZSSYvoPm5tD8az2,call-function,154,764111,0.0-7.0-2.11-0.11-4.11,,,,,,,6536baae5339076dc9aed683,5:54:08 AM,1/15/2024
5413.9000000059605,,{'Q0': 'None'},fwdspan,survey,DVm4M911XkhetZSSYvoPm5tD8az2,lmdlab-survey-text,155,770286,0.0-7.0-3.0,,,,,,DVm4M911XkhetZSSYvoPm5tD8az2,6536baae5339076dc9aed683,5:54:08 AM,1/15/2024
804.2000000029802,<p><p style='font-size: 3rem'>Great work!<br><br>This completes the digit span task.</p><br><br><br>,0,fwdspan,finish,DVm4M911XkhetZSSYvoPm5tD8az2,html-button-response,156,771092,0.0-7.0-4.0,,,,,,,6536baae5339076dc9aed683,5:54:08 AM,1/15/2024
