rt,stimulus,response,exp_name,exp_stage,subjectID,trial_type,trial_index,time_elapsed,internal_node_id,span,answer,correct,correct_full,span_history,databaseID,prolificID,start_time,date
5267.599999964237,"<p style=""font-size:4rem""><br><br>In the next part today, we have a completely different short task.<br><br><br>This part involves keeping numbers in you mind. Participation takes around 5 minutes.<br><br><br></p>",0,fwdspan,instruct,awfAWVpPVhM8vSB83vWjyQIJoZu1,html-button-response,19,1069461,0.0-7.0-0.0,,,,,,,5ae5a3ff3ab2fb0001ef2b91,11:43:03,15/01/2024
27291.0,"<p style=""font-size:5rem"">Welcome to the <b>digit span task</b>!<br><br></p><p style=""font-size:3.4rem""><br>On each trial, you will see a sequence of digits, followed by a delay.</p><p style=""font-size:3.4rem""><br>Then you will be asked to type them back in the same order in which they were seen.</p><p style=""font-size:3.4rem""><br><br><br>For example, if you saw the digits <b style=""color:blue;"">1</b>, <b style=""color:blue;"">2</b>, <b style=""color:blue;"">3</b>, you would respond with <b style=""color:blue;"">1</b>, <b style=""color:blue;"">2</b>, <b style=""color:blue;"">3</b></p><p style=""font-size:3.4rem""><br><br><br>To ensure the best measure of true performance for our study,<br><br>it is very important that you do not use any memory aid (e.g., pen and paper).<br><br>Please do the task solely in your head.</p><p style=""font-size:3.4rem""><br><br><br>There will be 12 total trials. Participation takes around 5 minutes.</p><br><br><br>",0,fwdspan,instruct,awfAWVpPVhM8vSB83vWjyQIJoZu1,html-button-response,20,1096753,0.0-7.0-1.0,,,,,,,5ae5a3ff3ab2fb0001ef2b91,11:43:03,15/01/2024
2009.3999999761581,"<p style=""font-size:3rem"">Trial 1 of 12</p><br><br><br>",0,fwdspan,start_trial,awfAWVpPVhM8vSB83vWjyQIJoZu1,html-button-response,21,1098766,0.0-7.0-2.0-0.0-0.0,,,,,,,5ae5a3ff3ab2fb0001ef2b91,11:43:03,15/01/2024
,"<p style=""font-size:14rem;font-weight:400;"">9</p>",,fwdspan,number,awfAWVpPVhM8vSB83vWjyQIJoZu1,html-keyboard-response,22,1099790,0.0-7.0-2.0-0.0-1.0-0.0,,,,,,,5ae5a3ff3ab2fb0001ef2b91,11:43:03,15/01/2024
,"<p style=""font-size:14rem;font-weight:400;"">5</p>",,fwdspan,number,awfAWVpPVhM8vSB83vWjyQIJoZu1,html-keyboard-response,23,1100807,0.0-7.0-2.0-0.0-1.1-0.1,,,,,,,5ae5a3ff3ab2fb0001ef2b91,11:43:03,15/01/2024
,"<p style=""font-size:14rem;font-weight:400;"">6</p>",,fwdspan,number,awfAWVpPVhM8vSB83vWjyQIJoZu1,html-keyboard-response,24,1101825,0.0-7.0-2.0-0.0-1.2-0.2,,,,,,,5ae5a3ff3ab2fb0001ef2b91,11:43:03,15/01/2024
,[],,fwdspan,delay,awfAWVpPVhM8vSB83vWjyQIJoZu1,html-keyboard-response,25,1102387,0.0-7.0-2.0-0.0-2.0,,,,,,,5ae5a3ff3ab2fb0001ef2b91,11:43:03,15/01/2024
5697.699999988079,"<div class = numbox><p style=""font-size:2.5rem"">What were the numbers <b>in order</b>?<br>(When you are ready to lock in your answer, press <b>ENTER</b>)</p><button id = button_1 class = ""square num-button"" onclick = ""recordClick(this)""><div class = content><div class = numbers>1</div></div></button><button id = button_2 class = ""square num-button"" onclick = ""recordClick(this)""><div class = content><div class = numbers>2</div></div></button><button id = button_3 class = ""square num-button"" onclick = ""recordClick(this)""><div class = content><div class = numbers>3</div></div></button><button id = button_4 class = ""square num-button"" onclick = ""recordClick(this)""><div class = content><div class = numbers>4</div></div></button><button id = button_5 class = ""square num-button"" onclick = ""recordClick(this)""><div class = content><div class = numbers>5</div></div></button><button id = button_6 class = ""square num-button"" onclick = ""recordClick(this)""><div class = content><div class = numbers>6</div></div></button><button id = button_7 class = ""square num-button"" onclick = ""recordClick(this)""><div class = content><div class = numbers>7</div></div></button><button id = button_8 class = ""square num-button"" onclick = ""recordClick(this)""><div class = content><div class = numbers>8</div></div></button><button id = button_9 class = ""square num-button"" onclick = ""recordClick(this)""><div class = content><div class = numbers>9</div></div></button><button class = clear_button id = ""ClearButton"" onclick = ""clearResponse()"">Clear</button><p><u><b>Current Answer:</b></u></p><div id=echoed_txt style=""font-size: 6rem; color:blue;""><b></b></div></div><br><br><br><br><br><br><br>",enter,fwdspan,response,awfAWVpPVhM8vSB83vWjyQIJoZu1,html-keyboard-response,26,1108088,0.0-7.0-2.0-0.0-3.0,3.0,"[9,5,6]","[9,5,6]",1.0,"[3, 4, 5, 6, 6, 7, 8, 9, 9, 8, 8, 7]",,5ae5a3ff3ab2fb0001ef2b91,11:43:03,15/01/2024
,,,fwdspan,update_span,awfAWVpPVhM8vSB83vWjyQIJoZu1,call-function,27,1108348,0.0-7.0-2.0-0.0-4.0,,,,,,,5ae5a3ff3ab2fb0001ef2b91,11:43:03,15/01/2024
1707.8999999761581,"<p style=""font-size:3rem"">Trial 2 of 12</p><br><br><br>",0,fwdspan,start_trial,awfAWVpPVhM8vSB83vWjyQIJoZu1,html-button-response,28,1110057,0.0-7.0-2.1-0.1-0.1,,,,,,,5ae5a3ff3ab2fb0001ef2b91,11:43:03,15/01/2024
,"<p style=""font-size:14rem;font-weight:400;"">1</p>",,fwdspan,number,awfAWVpPVhM8vSB83vWjyQIJoZu1,html-keyboard-response,29,1111073,0.0-7.0-2.1-0.1-1.3-0.3,,,,,,,5ae5a3ff3ab2fb0001ef2b91,11:43:03,15/01/2024
,"<p style=""font-size:14rem;font-weight:400;"">4</p>",,fwdspan,number,awfAWVpPVhM8vSB83vWjyQIJoZu1,html-keyboard-response,30,1112095,0.0-7.0-2.1-0.1-1.4-0.4,,,,,,,5ae5a3ff3ab2fb0001ef2b91,11:43:03,15/01/2024
,"<p style=""font-size:14rem;font-weight:400;"">7</p>",,fwdspan,number,awfAWVpPVhM8vSB83vWjyQIJoZu1,html-keyboard-response,31,1113118,0.0-7.0-2.1-0.1-1.5-0.5,,,,,,,5ae5a3ff3ab2fb0001ef2b91,11:43:03,15/01/2024
,"<p style=""font-size:14rem;font-weight:400;"">8</p>",,fwdspan,number,awfAWVpPVhM8vSB83vWjyQIJoZu1,html-keyboard-response,32,1114141,0.0-7.0-2.1-0.1-1.6-0.6,,,,,,,5ae5a3ff3ab2fb0001ef2b91,11:43:03,15/01/2024
,[],,fwdspan,delay,awfAWVpPVhM8vSB83vWjyQIJoZu1,html-keyboard-response,33,1114713,0.0-7.0-2.1-0.1-2.1,,,,,,,5ae5a3ff3ab2fb0001ef2b91,11:43:03,15/01/2024
3561.199999988079,"<div class = numbox><p style=""font-size:2.5rem"">What were the numbers <b>in order</b>?<br>(When you are ready to lock in your answer, press <b>ENTER</b>)</p><button id = button_1 class = ""square num-button"" onclick = ""recordClick(this)""><div class = content><div class = numbers>1</div></div></button><button id = button_2 class = ""square num-button"" onclick = ""recordClick(this)""><div class = content><div class = numbers>2</div></div></button><button id = button_3 class = ""square num-button"" onclick = ""recordClick(this)""><div class = content><div class = numbers>3</div></div></button><button id = button_4 class = ""square num-button"" onclick = ""recordClick(this)""><div class = content><div class = numbers>4</div></div></button><button id = button_5 class = ""square num-button"" onclick = ""recordClick(this)""><div class = content><div class = numbers>5</div></div></button><button id = button_6 class = ""square num-button"" onclick = ""recordClick(this)""><div class = content><div class = numbers>6</div></div></button><button id = button_7 class = ""square num-button"" onclick = ""recordClick(this)""><div class = content><div class = numbers>7</div></div></button><button id = button_8 class = ""square num-button"" onclick = ""recordClick(this)""><div class = content><div class = numbers>8</div></div></button><button id = button_9 class = ""square num-button"" onclick = ""recordClick(this)""><div class = content><div class = numbers>9</div></div></button><button class = clear_button id = ""ClearButton"" onclick = ""clearResponse()"">Clear</button><p><u><b>Current Answer:</b></u></p><div id=echoed_txt style=""font-size: 6rem; color:blue;""><b></b></div></div><br><br><br><br><br><br><br>",enter,fwdspan,response,awfAWVpPVhM8vSB83vWjyQIJoZu1,html-keyboard-response,34,1118276,0.0-7.0-2.1-0.1-3.1,4.0,"[1,4,7,8]","[1,4,7,8]",1.0,"[3, 4, 5, 6, 6, 7, 8, 9, 9, 8, 8, 7]",,5ae5a3ff3ab2fb0001ef2b91,11:43:03,15/01/2024
,,,fwdspan,update_span,awfAWVpPVhM8vSB83vWjyQIJoZu1,call-function,35,1118534,0.0-7.0-2.1-0.1-4.1,,,,,,,5ae5a3ff3ab2fb0001ef2b91,11:43:03,15/01/2024
1703.0999999642372,"<p style=""font-size:3rem"">Trial 3 of 12</p><br><br><br>",0,fwdspan,start_trial,awfAWVpPVhM8vSB83vWjyQIJoZu1,html-button-response,36,1120238,0.0-7.0-2.2-0.2-0.2,,,,,,,5ae5a3ff3ab2fb0001ef2b91,11:43:03,15/01/2024
,"<p style=""font-size:14rem;font-weight:400;"">8</p>",,fwdspan,number,awfAWVpPVhM8vSB83vWjyQIJoZu1,html-keyboard-response,37,1121256,0.0-7.0-2.2-0.2-1.7-0.7,,,,,,,5ae5a3ff3ab2fb0001ef2b91,11:43:03,15/01/2024
,"<p style=""font-size:14rem;font-weight:400;"">3</p>",,fwdspan,number,awfAWVpPVhM8vSB83vWjyQIJoZu1,html-keyboard-response,38,1122274,0.0-7.0-2.2-0.2-1.8-0.8,,,,,,,5ae5a3ff3ab2fb0001ef2b91,11:43:03,15/01/2024
,"<p style=""font-size:14rem;font-weight:400;"">5</p>",,fwdspan,number,awfAWVpPVhM8vSB83vWjyQIJoZu1,html-keyboard-response,39,1123294,0.0-7.0-2.2-0.2-1.9-0.9,,,,,,,5ae5a3ff3ab2fb0001ef2b91,11:43:03,15/01/2024
,"<p style=""font-size:14rem;font-weight:400;"">6</p>",,fwdspan,number,awfAWVpPVhM8vSB83vWjyQIJoZu1,html-keyboard-response,40,1124302,0.0-7.0-2.2-0.2-1.10-0.10,,,,,,,5ae5a3ff3ab2fb0001ef2b91,11:43:03,15/01/2024
,"<p style=""font-size:14rem;font-weight:400;"">2</p>",,fwdspan,number,awfAWVpPVhM8vSB83vWjyQIJoZu1,html-keyboard-response,41,1125322,0.0-7.0-2.2-0.2-1.11-0.11,,,,,,,5ae5a3ff3ab2fb0001ef2b91,11:43:03,15/01/2024
,[],,fwdspan,delay,awfAWVpPVhM8vSB83vWjyQIJoZu1,html-keyboard-response,42,1125896,0.0-7.0-2.2-0.2-2.2,,,,,,,5ae5a3ff3ab2fb0001ef2b91,11:43:03,15/01/2024
5507.199999988079,"<div class = numbox><p style=""font-size:2.5rem"">What were the numbers <b>in order</b>?<br>(When you are ready to lock in your answer, press <b>ENTER</b>)</p><button id = button_1 class = ""square num-button"" onclick = ""recordClick(this)""><div class = content><div class = numbers>1</div></div></button><button id = button_2 class = ""square num-button"" onclick = ""recordClick(this)""><div class = content><div class = numbers>2</div></div></button><button id = button_3 class = ""square num-button"" onclick = ""recordClick(this)""><div class = content><div class = numbers>3</div></div></button><button id = button_4 class = ""square num-button"" onclick = ""recordClick(this)""><div class = content><div class = numbers>4</div></div></button><button id = button_5 class = ""square num-button"" onclick = ""recordClick(this)""><div class = content><div class = numbers>5</div></div></button><button id = button_6 class = ""square num-button"" onclick = ""recordClick(this)""><div class = content><div class = numbers>6</div></div></button><button id = button_7 class = ""square num-button"" onclick = ""recordClick(this)""><div class = content><div class = numbers>7</div></div></button><button id = button_8 class = ""square num-button"" onclick = ""recordClick(this)""><div class = content><div class = numbers>8</div></div></button><button id = button_9 class = ""square num-button"" onclick = ""recordClick(this)""><div class = content><div class = numbers>9</div></div></button><button class = clear_button id = ""ClearButton"" onclick = ""clearResponse()"">Clear</button><p><u><b>Current Answer:</b></u></p><div id=echoed_txt style=""font-size: 6rem; color:blue;""><b></b></div></div><br><br><br><br><br><br><br>",enter,fwdspan,response,awfAWVpPVhM8vSB83vWjyQIJoZu1,html-keyboard-response,43,1131406,0.0-7.0-2.2-0.2-3.2,5.0,"[8,3,5,6,2]","[8,3,5,6,2]",1.0,"[3, 4, 5, 6, 6, 7, 8, 9, 9, 8, 8, 7]",,5ae5a3ff3ab2fb0001ef2b91,11:43:03,15/01/2024
,,,fwdspan,update_span,awfAWVpPVhM8vSB83vWjyQIJoZu1,call-function,44,1131671,0.0-7.0-2.2-0.2-4.2,,,,,,,5ae5a3ff3ab2fb0001ef2b91,11:43:03,15/01/2024
4229.400000035763,"<p style=""font-size:3rem"">Trial 4 of 12</p><br><br><br>",0,fwdspan,start_trial,awfAWVpPVhM8vSB83vWjyQIJoZu1,html-button-response,45,1135904,0.0-7.0-2.3-0.3-0.3,,,,,,,5ae5a3ff3ab2fb0001ef2b91,11:43:03,15/01/2024
,"<p style=""font-size:14rem;font-weight:400;"">6</p>",,fwdspan,number,awfAWVpPVhM8vSB83vWjyQIJoZu1,html-keyboard-response,46,1136930,0.0-7.0-2.3-0.3-1.12-0.12,,,,,,,5ae5a3ff3ab2fb0001ef2b91,11:43:03,15/01/2024
,"<p style=""font-size:14rem;font-weight:400;"">2</p>",,fwdspan,number,awfAWVpPVhM8vSB83vWjyQIJoZu1,html-keyboard-response,47,1137948,0.0-7.0-2.3-0.3-1.13-0.13,,,,,,,5ae5a3ff3ab2fb0001ef2b91,11:43:03,15/01/2024
,"<p style=""font-size:14rem;font-weight:400;"">3</p>",,fwdspan,number,awfAWVpPVhM8vSB83vWjyQIJoZu1,html-keyboard-response,48,1138966,0.0-7.0-2.3-0.3-1.14-0.14,,,,,,,5ae5a3ff3ab2fb0001ef2b91,11:43:03,15/01/2024
,"<p style=""font-size:14rem;font-weight:400;"">4</p>",,fwdspan,number,awfAWVpPVhM8vSB83vWjyQIJoZu1,html-keyboard-response,49,1139984,0.0-7.0-2.3-0.3-1.15-0.15,,,,,,,5ae5a3ff3ab2fb0001ef2b91,11:43:03,15/01/2024
,"<p style=""font-size:14rem;font-weight:400;"">1</p>",,fwdspan,number,awfAWVpPVhM8vSB83vWjyQIJoZu1,html-keyboard-response,50,1140992,0.0-7.0-2.3-0.3-1.16-0.16,,,,,,,5ae5a3ff3ab2fb0001ef2b91,11:43:03,15/01/2024
,"<p style=""font-size:14rem;font-weight:400;"">5</p>",,fwdspan,number,awfAWVpPVhM8vSB83vWjyQIJoZu1,html-keyboard-response,51,1142014,0.0-7.0-2.3-0.3-1.17-0.17,,,,,,,5ae5a3ff3ab2fb0001ef2b91,11:43:03,15/01/2024
,[],,fwdspan,delay,awfAWVpPVhM8vSB83vWjyQIJoZu1,html-keyboard-response,52,1142579,0.0-7.0-2.3-0.3-2.3,,,,,,,5ae5a3ff3ab2fb0001ef2b91,11:43:03,15/01/2024
7164.400000035763,"<div class = numbox><p style=""font-size:2.5rem"">What were the numbers <b>in order</b>?<br>(When you are ready to lock in your answer, press <b>ENTER</b>)</p><button id = button_1 class = ""square num-button"" onclick = ""recordClick(this)""><div class = content><div class = numbers>1</div></div></button><button id = button_2 class = ""square num-button"" onclick = ""recordClick(this)""><div class = content><div class = numbers>2</div></div></button><button id = button_3 class = ""square num-button"" onclick = ""recordClick(this)""><div class = content><div class = numbers>3</div></div></button><button id = button_4 class = ""square num-button"" onclick = ""recordClick(this)""><div class = content><div class = numbers>4</div></div></button><button id = button_5 class = ""square num-button"" onclick = ""recordClick(this)""><div class = content><div class = numbers>5</div></div></button><button id = button_6 class = ""square num-button"" onclick = ""recordClick(this)""><div class = content><div class = numbers>6</div></div></button><button id = button_7 class = ""square num-button"" onclick = ""recordClick(this)""><div class = content><div class = numbers>7</div></div></button><button id = button_8 class = ""square num-button"" onclick = ""recordClick(this)""><div class = content><div class = numbers>8</div></div></button><button id = button_9 class = ""square num-button"" onclick = ""recordClick(this)""><div class = content><div class = numbers>9</div></div></button><button class = clear_button id = ""ClearButton"" onclick = ""clearResponse()"">Clear</button><p><u><b>Current Answer:</b></u></p><div id=echoed_txt style=""font-size: 6rem; color:blue;""><b></b></div></div><br><br><br><br><br><br><br>",enter,fwdspan,response,awfAWVpPVhM8vSB83vWjyQIJoZu1,html-keyboard-response,53,1149746,0.0-7.0-2.3-0.3-3.3,6.0,"[6,2,3,1,4,5]","[6,2,3,4,1,5]",0.0,"[3, 4, 5, 6, 6, 7, 8, 9, 9, 8, 8, 7]",,5ae5a3ff3ab2fb0001ef2b91,11:43:03,15/01/2024
,,,fwdspan,update_span,awfAWVpPVhM8vSB83vWjyQIJoZu1,call-function,54,1150011,0.0-7.0-2.3-0.3-4.3,,,,,,,5ae5a3ff3ab2fb0001ef2b91,11:43:03,15/01/2024
1640.3999999761581,"<p style=""font-size:3rem"">Trial 5 of 12</p><br><br><br>",0,fwdspan,start_trial,awfAWVpPVhM8vSB83vWjyQIJoZu1,html-button-response,55,1151653,0.0-7.0-2.4-0.4-0.4,,,,,,,5ae5a3ff3ab2fb0001ef2b91,11:43:03,15/01/2024
,"<p style=""font-size:14rem;font-weight:400;"">5</p>",,fwdspan,number,awfAWVpPVhM8vSB83vWjyQIJoZu1,html-keyboard-response,56,1152665,0.0-7.0-2.4-0.4-1.18-0.18,,,,,,,5ae5a3ff3ab2fb0001ef2b91,11:43:03,15/01/2024
,"<p style=""font-size:14rem;font-weight:400;"">4</p>",,fwdspan,number,awfAWVpPVhM8vSB83vWjyQIJoZu1,html-keyboard-response,57,1153669,0.0-7.0-2.4-0.4-1.19-0.19,,,,,,,5ae5a3ff3ab2fb0001ef2b91,11:43:03,15/01/2024
,"<p style=""font-size:14rem;font-weight:400;"">8</p>",,fwdspan,number,awfAWVpPVhM8vSB83vWjyQIJoZu1,html-keyboard-response,58,1154678,0.0-7.0-2.4-0.4-1.20-0.20,,,,,,,5ae5a3ff3ab2fb0001ef2b91,11:43:03,15/01/2024
,"<p style=""font-size:14rem;font-weight:400;"">9</p>",,fwdspan,number,awfAWVpPVhM8vSB83vWjyQIJoZu1,html-keyboard-response,59,1155696,0.0-7.0-2.4-0.4-1.21-0.21,,,,,,,5ae5a3ff3ab2fb0001ef2b91,11:43:03,15/01/2024
,"<p style=""font-size:14rem;font-weight:400;"">3</p>",,fwdspan,number,awfAWVpPVhM8vSB83vWjyQIJoZu1,html-keyboard-response,60,1156715,0.0-7.0-2.4-0.4-1.22-0.22,,,,,,,5ae5a3ff3ab2fb0001ef2b91,11:43:03,15/01/2024
,"<p style=""font-size:14rem;font-weight:400;"">2</p>",,fwdspan,number,awfAWVpPVhM8vSB83vWjyQIJoZu1,html-keyboard-response,61,1157745,0.0-7.0-2.4-0.4-1.23-0.23,,,,,,,5ae5a3ff3ab2fb0001ef2b91,11:43:03,15/01/2024
,[],,fwdspan,delay,awfAWVpPVhM8vSB83vWjyQIJoZu1,html-keyboard-response,62,1158315,0.0-7.0-2.4-0.4-2.4,,,,,,,5ae5a3ff3ab2fb0001ef2b91,11:43:03,15/01/2024
6756.900000035763,"<div class = numbox><p style=""font-size:2.5rem"">What were the numbers <b>in order</b>?<br>(When you are ready to lock in your answer, press <b>ENTER</b>)</p><button id = button_1 class = ""square num-button"" onclick = ""recordClick(this)""><div class = content><div class = numbers>1</div></div></button><button id = button_2 class = ""square num-button"" onclick = ""recordClick(this)""><div class = content><div class = numbers>2</div></div></button><button id = button_3 class = ""square num-button"" onclick = ""recordClick(this)""><div class = content><div class = numbers>3</div></div></button><button id = button_4 class = ""square num-button"" onclick = ""recordClick(this)""><div class = content><div class = numbers>4</div></div></button><button id = button_5 class = ""square num-button"" onclick = ""recordClick(this)""><div class = content><div class = numbers>5</div></div></button><button id = button_6 class = ""square num-button"" onclick = ""recordClick(this)""><div class = content><div class = numbers>6</div></div></button><button id = button_7 class = ""square num-button"" onclick = ""recordClick(this)""><div class = content><div class = numbers>7</div></div></button><button id = button_8 class = ""square num-button"" onclick = ""recordClick(this)""><div class = content><div class = numbers>8</div></div></button><button id = button_9 class = ""square num-button"" onclick = ""recordClick(this)""><div class = content><div class = numbers>9</div></div></button><button class = clear_button id = ""ClearButton"" onclick = ""clearResponse()"">Clear</button><p><u><b>Current Answer:</b></u></p><div id=echoed_txt style=""font-size: 6rem; color:blue;""><b></b></div></div><br><br><br><br><br><br><br>",enter,fwdspan,response,awfAWVpPVhM8vSB83vWjyQIJoZu1,html-keyboard-response,63,1165074,0.0-7.0-2.4-0.4-3.4,6.0,"[5,4,8,9,3,2]","[5,4,8,9,3,2]",1.0,"[3, 4, 5, 6, 6, 7, 8, 9, 9, 8, 8, 7]",,5ae5a3ff3ab2fb0001ef2b91,11:43:03,15/01/2024
,,,fwdspan,update_span,awfAWVpPVhM8vSB83vWjyQIJoZu1,call-function,64,1165329,0.0-7.0-2.4-0.4-4.4,,,,,,,5ae5a3ff3ab2fb0001ef2b91,11:43:03,15/01/2024
1662.2999999523163,"<p style=""font-size:3rem"">Trial 6 of 12</p><br><br><br>",0,fwdspan,start_trial,awfAWVpPVhM8vSB83vWjyQIJoZu1,html-button-response,65,1166993,0.0-7.0-2.5-0.5-0.5,,,,,,,5ae5a3ff3ab2fb0001ef2b91,11:43:03,15/01/2024
,"<p style=""font-size:14rem;font-weight:400;"">5</p>",,fwdspan,number,awfAWVpPVhM8vSB83vWjyQIJoZu1,html-keyboard-response,66,1168004,0.0-7.0-2.5-0.5-1.24-0.24,,,,,,,5ae5a3ff3ab2fb0001ef2b91,11:43:03,15/01/2024
,"<p style=""font-size:14rem;font-weight:400;"">6</p>",,fwdspan,number,awfAWVpPVhM8vSB83vWjyQIJoZu1,html-keyboard-response,67,1169008,0.0-7.0-2.5-0.5-1.25-0.25,,,,,,,5ae5a3ff3ab2fb0001ef2b91,11:43:03,15/01/2024
,"<p style=""font-size:14rem;font-weight:400;"">3</p>",,fwdspan,number,awfAWVpPVhM8vSB83vWjyQIJoZu1,html-keyboard-response,68,1170037,0.0-7.0-2.5-0.5-1.26-0.26,,,,,,,5ae5a3ff3ab2fb0001ef2b91,11:43:03,15/01/2024
,"<p style=""font-size:14rem;font-weight:400;"">7</p>",,fwdspan,number,awfAWVpPVhM8vSB83vWjyQIJoZu1,html-keyboard-response,69,1171045,0.0-7.0-2.5-0.5-1.27-0.27,,,,,,,5ae5a3ff3ab2fb0001ef2b91,11:43:03,15/01/2024
,"<p style=""font-size:14rem;font-weight:400;"">9</p>",,fwdspan,number,awfAWVpPVhM8vSB83vWjyQIJoZu1,html-keyboard-response,70,1172066,0.0-7.0-2.5-0.5-1.28-0.28,,,,,,,5ae5a3ff3ab2fb0001ef2b91,11:43:03,15/01/2024
,"<p style=""font-size:14rem;font-weight:400;"">2</p>",,fwdspan,number,awfAWVpPVhM8vSB83vWjyQIJoZu1,html-keyboard-response,71,1173092,0.0-7.0-2.5-0.5-1.29-0.29,,,,,,,5ae5a3ff3ab2fb0001ef2b91,11:43:03,15/01/2024
,"<p style=""font-size:14rem;font-weight:400;"">1</p>",,fwdspan,number,awfAWVpPVhM8vSB83vWjyQIJoZu1,html-keyboard-response,72,1174108,0.0-7.0-2.5-0.5-1.30-0.30,,,,,,,5ae5a3ff3ab2fb0001ef2b91,11:43:03,15/01/2024
,[],,fwdspan,delay,awfAWVpPVhM8vSB83vWjyQIJoZu1,html-keyboard-response,73,1174668,0.0-7.0-2.5-0.5-2.5,,,,,,,5ae5a3ff3ab2fb0001ef2b91,11:43:03,15/01/2024
9225.599999964237,"<div class = numbox><p style=""font-size:2.5rem"">What were the numbers <b>in order</b>?<br>(When you are ready to lock in your answer, press <b>ENTER</b>)</p><button id = button_1 class = ""square num-button"" onclick = ""recordClick(this)""><div class = content><div class = numbers>1</div></div></button><button id = button_2 class = ""square num-button"" onclick = ""recordClick(this)""><div class = content><div class = numbers>2</div></div></button><button id = button_3 class = ""square num-button"" onclick = ""recordClick(this)""><div class = content><div class = numbers>3</div></div></button><button id = button_4 class = ""square num-button"" onclick = ""recordClick(this)""><div class = content><div class = numbers>4</div></div></button><button id = button_5 class = ""square num-button"" onclick = ""recordClick(this)""><div class = content><div class = numbers>5</div></div></button><button id = button_6 class = ""square num-button"" onclick = ""recordClick(this)""><div class = content><div class = numbers>6</div></div></button><button id = button_7 class = ""square num-button"" onclick = ""recordClick(this)""><div class = content><div class = numbers>7</div></div></button><button id = button_8 class = ""square num-button"" onclick = ""recordClick(this)""><div class = content><div class = numbers>8</div></div></button><button id = button_9 class = ""square num-button"" onclick = ""recordClick(this)""><div class = content><div class = numbers>9</div></div></button><button class = clear_button id = ""ClearButton"" onclick = ""clearResponse()"">Clear</button><p><u><b>Current Answer:</b></u></p><div id=echoed_txt style=""font-size: 6rem; color:blue;""><b></b></div></div><br><br><br><br><br><br><br>",enter,fwdspan,response,awfAWVpPVhM8vSB83vWjyQIJoZu1,html-keyboard-response,74,1183896,0.0-7.0-2.5-0.5-3.5,7.0,"[5,6,3,7,9,2,1]","[5,6,3,7,9,2,1]",1.0,"[3, 4, 5, 6, 6, 7, 8, 9, 9, 8, 8, 7]",,5ae5a3ff3ab2fb0001ef2b91,11:43:03,15/01/2024
,,,fwdspan,update_span,awfAWVpPVhM8vSB83vWjyQIJoZu1,call-function,75,1184162,0.0-7.0-2.5-0.5-4.5,,,,,,,5ae5a3ff3ab2fb0001ef2b91,11:43:03,15/01/2024
1240.800000011921,"<p style=""font-size:3rem"">Trial 7 of 12</p><br><br><br>",0,fwdspan,start_trial,awfAWVpPVhM8vSB83vWjyQIJoZu1,html-button-response,76,1185404,0.0-7.0-2.6-0.6-0.6,,,,,,,5ae5a3ff3ab2fb0001ef2b91,11:43:03,15/01/2024
,"<p style=""font-size:14rem;font-weight:400;"">8</p>",,fwdspan,number,awfAWVpPVhM8vSB83vWjyQIJoZu1,html-keyboard-response,77,1186423,0.0-7.0-2.6-0.6-1.31-0.31,,,,,,,5ae5a3ff3ab2fb0001ef2b91,11:43:03,15/01/2024
,"<p style=""font-size:14rem;font-weight:400;"">1</p>",,fwdspan,number,awfAWVpPVhM8vSB83vWjyQIJoZu1,html-keyboard-response,78,1187436,0.0-7.0-2.6-0.6-1.32-0.32,,,,,,,5ae5a3ff3ab2fb0001ef2b91,11:43:03,15/01/2024
,"<p style=""font-size:14rem;font-weight:400;"">9</p>",,fwdspan,number,awfAWVpPVhM8vSB83vWjyQIJoZu1,html-keyboard-response,79,1188461,0.0-7.0-2.6-0.6-1.33-0.33,,,,,,,5ae5a3ff3ab2fb0001ef2b91,11:43:03,15/01/2024
,"<p style=""font-size:14rem;font-weight:400;"">7</p>",,fwdspan,number,awfAWVpPVhM8vSB83vWjyQIJoZu1,html-keyboard-response,80,1189472,0.0-7.0-2.6-0.6-1.34-0.34,,,,,,,5ae5a3ff3ab2fb0001ef2b91,11:43:03,15/01/2024
,"<p style=""font-size:14rem;font-weight:400;"">3</p>",,fwdspan,number,awfAWVpPVhM8vSB83vWjyQIJoZu1,html-keyboard-response,81,1190477,0.0-7.0-2.6-0.6-1.35-0.35,,,,,,,5ae5a3ff3ab2fb0001ef2b91,11:43:03,15/01/2024
,"<p style=""font-size:14rem;font-weight:400;"">6</p>",,fwdspan,number,awfAWVpPVhM8vSB83vWjyQIJoZu1,html-keyboard-response,82,1191488,0.0-7.0-2.6-0.6-1.36-0.36,,,,,,,5ae5a3ff3ab2fb0001ef2b91,11:43:03,15/01/2024
,"<p style=""font-size:14rem;font-weight:400;"">4</p>",,fwdspan,number,awfAWVpPVhM8vSB83vWjyQIJoZu1,html-keyboard-response,83,1192519,0.0-7.0-2.6-0.6-1.37-0.37,,,,,,,5ae5a3ff3ab2fb0001ef2b91,11:43:03,15/01/2024
,"<p style=""font-size:14rem;font-weight:400;"">5</p>",,fwdspan,number,awfAWVpPVhM8vSB83vWjyQIJoZu1,html-keyboard-response,84,1193526,0.0-7.0-2.6-0.6-1.38-0.38,,,,,,,5ae5a3ff3ab2fb0001ef2b91,11:43:03,15/01/2024
,[],,fwdspan,delay,awfAWVpPVhM8vSB83vWjyQIJoZu1,html-keyboard-response,85,1194102,0.0-7.0-2.6-0.6-2.6,,,,,,,5ae5a3ff3ab2fb0001ef2b91,11:43:03,15/01/2024
8932.699999988079,"<div class = numbox><p style=""font-size:2.5rem"">What were the numbers <b>in order</b>?<br>(When you are ready to lock in your answer, press <b>ENTER</b>)</p><button id = button_1 class = ""square num-button"" onclick = ""recordClick(this)""><div class = content><div class = numbers>1</div></div></button><button id = button_2 class = ""square num-button"" onclick = ""recordClick(this)""><div class = content><div class = numbers>2</div></div></button><button id = button_3 class = ""square num-button"" onclick = ""recordClick(this)""><div class = content><div class = numbers>3</div></div></button><button id = button_4 class = ""square num-button"" onclick = ""recordClick(this)""><div class = content><div class = numbers>4</div></div></button><button id = button_5 class = ""square num-button"" onclick = ""recordClick(this)""><div class = content><div class = numbers>5</div></div></button><button id = button_6 class = ""square num-button"" onclick = ""recordClick(this)""><div class = content><div class = numbers>6</div></div></button><button id = button_7 class = ""square num-button"" onclick = ""recordClick(this)""><div class = content><div class = numbers>7</div></div></button><button id = button_8 class = ""square num-button"" onclick = ""recordClick(this)""><div class = content><div class = numbers>8</div></div></button><button id = button_9 class = ""square num-button"" onclick = ""recordClick(this)""><div class = content><div class = numbers>9</div></div></button><button class = clear_button id = ""ClearButton"" onclick = ""clearResponse()"">Clear</button><p><u><b>Current Answer:</b></u></p><div id=echoed_txt style=""font-size: 6rem; color:blue;""><b></b></div></div><br><br><br><br><br><br><br>",enter,fwdspan,response,awfAWVpPVhM8vSB83vWjyQIJoZu1,html-keyboard-response,86,1203037,0.0-7.0-2.6-0.6-3.6,8.0,"[8,1,9,7,3,6,4,5]","[8,1,9,7,3,6,4,5]",1.0,"[3, 4, 5, 6, 6, 7, 8, 9, 9, 8, 8, 7]",,5ae5a3ff3ab2fb0001ef2b91,11:43:03,15/01/2024
,,,fwdspan,update_span,awfAWVpPVhM8vSB83vWjyQIJoZu1,call-function,87,1203304,0.0-7.0-2.6-0.6-4.6,,,,,,,5ae5a3ff3ab2fb0001ef2b91,11:43:03,15/01/2024
1537.199999988079,"<p style=""font-size:3rem"">Trial 8 of 12</p><br><br><br>",0,fwdspan,start_trial,awfAWVpPVhM8vSB83vWjyQIJoZu1,html-button-response,88,1204842,0.0-7.0-2.7-0.7-0.7,,,,,,,5ae5a3ff3ab2fb0001ef2b91,11:43:03,15/01/2024
,"<p style=""font-size:14rem;font-weight:400;"">8</p>",,fwdspan,number,awfAWVpPVhM8vSB83vWjyQIJoZu1,html-keyboard-response,89,1205863,0.0-7.0-2.7-0.7-1.39-0.39,,,,,,,5ae5a3ff3ab2fb0001ef2b91,11:43:03,15/01/2024
,"<p style=""font-size:14rem;font-weight:400;"">4</p>",,fwdspan,number,awfAWVpPVhM8vSB83vWjyQIJoZu1,html-keyboard-response,90,1206876,0.0-7.0-2.7-0.7-1.40-0.40,,,,,,,5ae5a3ff3ab2fb0001ef2b91,11:43:03,15/01/2024
,"<p style=""font-size:14rem;font-weight:400;"">6</p>",,fwdspan,number,awfAWVpPVhM8vSB83vWjyQIJoZu1,html-keyboard-response,91,1207897,0.0-7.0-2.7-0.7-1.41-0.41,,,,,,,5ae5a3ff3ab2fb0001ef2b91,11:43:03,15/01/2024
,"<p style=""font-size:14rem;font-weight:400;"">3</p>",,fwdspan,number,awfAWVpPVhM8vSB83vWjyQIJoZu1,html-keyboard-response,92,1208912,0.0-7.0-2.7-0.7-1.42-0.42,,,,,,,5ae5a3ff3ab2fb0001ef2b91,11:43:03,15/01/2024
,"<p style=""font-size:14rem;font-weight:400;"">1</p>",,fwdspan,number,awfAWVpPVhM8vSB83vWjyQIJoZu1,html-keyboard-response,93,1209933,0.0-7.0-2.7-0.7-1.43-0.43,,,,,,,5ae5a3ff3ab2fb0001ef2b91,11:43:03,15/01/2024
,"<p style=""font-size:14rem;font-weight:400;"">2</p>",,fwdspan,number,awfAWVpPVhM8vSB83vWjyQIJoZu1,html-keyboard-response,94,1210946,0.0-7.0-2.7-0.7-1.44-0.44,,,,,,,5ae5a3ff3ab2fb0001ef2b91,11:43:03,15/01/2024
,"<p style=""font-size:14rem;font-weight:400;"">5</p>",,fwdspan,number,awfAWVpPVhM8vSB83vWjyQIJoZu1,html-keyboard-response,95,1211952,0.0-7.0-2.7-0.7-1.45-0.45,,,,,,,5ae5a3ff3ab2fb0001ef2b91,11:43:03,15/01/2024
,"<p style=""font-size:14rem;font-weight:400;"">9</p>",,fwdspan,number,awfAWVpPVhM8vSB83vWjyQIJoZu1,html-keyboard-response,96,1212966,0.0-7.0-2.7-0.7-1.46-0.46,,,,,,,5ae5a3ff3ab2fb0001ef2b91,11:43:03,15/01/2024
,"<p style=""font-size:14rem;font-weight:400;"">7</p>",,fwdspan,number,awfAWVpPVhM8vSB83vWjyQIJoZu1,html-keyboard-response,97,1213985,0.0-7.0-2.7-0.7-1.47-0.47,,,,,,,5ae5a3ff3ab2fb0001ef2b91,11:43:03,15/01/2024
,[],,fwdspan,delay,awfAWVpPVhM8vSB83vWjyQIJoZu1,html-keyboard-response,98,1214555,0.0-7.0-2.7-0.7-2.7,,,,,,,5ae5a3ff3ab2fb0001ef2b91,11:43:03,15/01/2024
18171.700000047684,"<div class = numbox><p style=""font-size:2.5rem"">What were the numbers <b>in order</b>?<br>(When you are ready to lock in your answer, press <b>ENTER</b>)</p><button id = button_1 class = ""square num-button"" onclick = ""recordClick(this)""><div class = content><div class = numbers>1</div></div></button><button id = button_2 class = ""square num-button"" onclick = ""recordClick(this)""><div class = content><div class = numbers>2</div></div></button><button id = button_3 class = ""square num-button"" onclick = ""recordClick(this)""><div class = content><div class = numbers>3</div></div></button><button id = button_4 class = ""square num-button"" onclick = ""recordClick(this)""><div class = content><div class = numbers>4</div></div></button><button id = button_5 class = ""square num-button"" onclick = ""recordClick(this)""><div class = content><div class = numbers>5</div></div></button><button id = button_6 class = ""square num-button"" onclick = ""recordClick(this)""><div class = content><div class = numbers>6</div></div></button><button id = button_7 class = ""square num-button"" onclick = ""recordClick(this)""><div class = content><div class = numbers>7</div></div></button><button id = button_8 class = ""square num-button"" onclick = ""recordClick(this)""><div class = content><div class = numbers>8</div></div></button><button id = button_9 class = ""square num-button"" onclick = ""recordClick(this)""><div class = content><div class = numbers>9</div></div></button><button class = clear_button id = ""ClearButton"" onclick = ""clearResponse()"">Clear</button><p><u><b>Current Answer:</b></u></p><div id=echoed_txt style=""font-size: 6rem; color:blue;""><b></b></div></div><br><br><br><br><br><br><br>",enter,fwdspan,response,awfAWVpPVhM8vSB83vWjyQIJoZu1,html-keyboard-response,99,1232729,0.0-7.0-2.7-0.7-3.7,9.0,"[8,4,6,3,9,4,5,1]","[8,4,6,3,1,2,5,9,7]",0.0,"[3, 4, 5, 6, 6, 7, 8, 9, 9, 8, 8, 7]",,5ae5a3ff3ab2fb0001ef2b91,11:43:03,15/01/2024
,,,fwdspan,update_span,awfAWVpPVhM8vSB83vWjyQIJoZu1,call-function,100,1232986,0.0-7.0-2.7-0.7-4.7,,,,,,,5ae5a3ff3ab2fb0001ef2b91,11:43:03,15/01/2024
1692.2999999523163,"<p style=""font-size:3rem"">Trial 9 of 12</p><br><br><br>",0,fwdspan,start_trial,awfAWVpPVhM8vSB83vWjyQIJoZu1,html-button-response,101,1234679,0.0-7.0-2.8-0.8-0.8,,,,,,,5ae5a3ff3ab2fb0001ef2b91,11:43:03,15/01/2024
,"<p style=""font-size:14rem;font-weight:400;"">8</p>",,fwdspan,number,awfAWVpPVhM8vSB83vWjyQIJoZu1,html-keyboard-response,102,1235697,0.0-7.0-2.8-0.8-1.48-0.48,,,,,,,5ae5a3ff3ab2fb0001ef2b91,11:43:03,15/01/2024
,"<p style=""font-size:14rem;font-weight:400;"">1</p>",,fwdspan,number,awfAWVpPVhM8vSB83vWjyQIJoZu1,html-keyboard-response,103,1236701,0.0-7.0-2.8-0.8-1.49-0.49,,,,,,,5ae5a3ff3ab2fb0001ef2b91,11:43:03,15/01/2024
,"<p style=""font-size:14rem;font-weight:400;"">5</p>",,fwdspan,number,awfAWVpPVhM8vSB83vWjyQIJoZu1,html-keyboard-response,104,1237725,0.0-7.0-2.8-0.8-1.50-0.50,,,,,,,5ae5a3ff3ab2fb0001ef2b91,11:43:03,15/01/2024
,"<p style=""font-size:14rem;font-weight:400;"">2</p>",,fwdspan,number,awfAWVpPVhM8vSB83vWjyQIJoZu1,html-keyboard-response,105,1238739,0.0-7.0-2.8-0.8-1.51-0.51,,,,,,,5ae5a3ff3ab2fb0001ef2b91,11:43:03,15/01/2024
,"<p style=""font-size:14rem;font-weight:400;"">4</p>",,fwdspan,number,awfAWVpPVhM8vSB83vWjyQIJoZu1,html-keyboard-response,106,1239744,0.0-7.0-2.8-0.8-1.52-0.52,,,,,,,5ae5a3ff3ab2fb0001ef2b91,11:43:03,15/01/2024
,"<p style=""font-size:14rem;font-weight:400;"">6</p>",,fwdspan,number,awfAWVpPVhM8vSB83vWjyQIJoZu1,html-keyboard-response,107,1240758,0.0-7.0-2.8-0.8-1.53-0.53,,,,,,,5ae5a3ff3ab2fb0001ef2b91,11:43:03,15/01/2024
,"<p style=""font-size:14rem;font-weight:400;"">7</p>",,fwdspan,number,awfAWVpPVhM8vSB83vWjyQIJoZu1,html-keyboard-response,108,1241789,0.0-7.0-2.8-0.8-1.54-0.54,,,,,,,5ae5a3ff3ab2fb0001ef2b91,11:43:03,15/01/2024
,"<p style=""font-size:14rem;font-weight:400;"">9</p>",,fwdspan,number,awfAWVpPVhM8vSB83vWjyQIJoZu1,html-keyboard-response,109,1242795,0.0-7.0-2.8-0.8-1.55-0.55,,,,,,,5ae5a3ff3ab2fb0001ef2b91,11:43:03,15/01/2024
,"<p style=""font-size:14rem;font-weight:400;"">3</p>",,fwdspan,number,awfAWVpPVhM8vSB83vWjyQIJoZu1,html-keyboard-response,110,1243811,0.0-7.0-2.8-0.8-1.56-0.56,,,,,,,5ae5a3ff3ab2fb0001ef2b91,11:43:03,15/01/2024
,[],,fwdspan,delay,awfAWVpPVhM8vSB83vWjyQIJoZu1,html-keyboard-response,111,1244381,0.0-7.0-2.8-0.8-2.8,,,,,,,5ae5a3ff3ab2fb0001ef2b91,11:43:03,15/01/2024
14145.0,"<div class = numbox><p style=""font-size:2.5rem"">What were the numbers <b>in order</b>?<br>(When you are ready to lock in your answer, press <b>ENTER</b>)</p><button id = button_1 class = ""square num-button"" onclick = ""recordClick(this)""><div class = content><div class = numbers>1</div></div></button><button id = button_2 class = ""square num-button"" onclick = ""recordClick(this)""><div class = content><div class = numbers>2</div></div></button><button id = button_3 class = ""square num-button"" onclick = ""recordClick(this)""><div class = content><div class = numbers>3</div></div></button><button id = button_4 class = ""square num-button"" onclick = ""recordClick(this)""><div class = content><div class = numbers>4</div></div></button><button id = button_5 class = ""square num-button"" onclick = ""recordClick(this)""><div class = content><div class = numbers>5</div></div></button><button id = button_6 class = ""square num-button"" onclick = ""recordClick(this)""><div class = content><div class = numbers>6</div></div></button><button id = button_7 class = ""square num-button"" onclick = ""recordClick(this)""><div class = content><div class = numbers>7</div></div></button><button id = button_8 class = ""square num-button"" onclick = ""recordClick(this)""><div class = content><div class = numbers>8</div></div></button><button id = button_9 class = ""square num-button"" onclick = ""recordClick(this)""><div class = content><div class = numbers>9</div></div></button><button class = clear_button id = ""ClearButton"" onclick = ""clearResponse()"">Clear</button><p><u><b>Current Answer:</b></u></p><div id=echoed_txt style=""font-size: 6rem; color:blue;""><b></b></div></div><br><br><br><br><br><br><br>",enter,fwdspan,response,awfAWVpPVhM8vSB83vWjyQIJoZu1,html-keyboard-response,112,1258528,0.0-7.0-2.8-0.8-3.8,9.0,"[8,4,5,7,6,4,3,2,1]","[8,1,5,2,4,6,7,9,3]",0.0,"[3, 4, 5, 6, 6, 7, 8, 9, 9, 8, 8, 7]",,5ae5a3ff3ab2fb0001ef2b91,11:43:03,15/01/2024
,,,fwdspan,update_span,awfAWVpPVhM8vSB83vWjyQIJoZu1,call-function,113,1258783,0.0-7.0-2.8-0.8-4.8,,,,,,,5ae5a3ff3ab2fb0001ef2b91,11:43:03,15/01/2024
1672.8999999761581,"<p style=""font-size:3rem"">Trial 10 of 12</p><br><br><br>",0,fwdspan,start_trial,awfAWVpPVhM8vSB83vWjyQIJoZu1,html-button-response,114,1260458,0.0-7.0-2.9-0.9-0.9,,,,,,,5ae5a3ff3ab2fb0001ef2b91,11:43:03,15/01/2024
,"<p style=""font-size:14rem;font-weight:400;"">8</p>",,fwdspan,number,awfAWVpPVhM8vSB83vWjyQIJoZu1,html-keyboard-response,115,1261475,0.0-7.0-2.9-0.9-1.57-0.57,,,,,,,5ae5a3ff3ab2fb0001ef2b91,11:43:03,15/01/2024
,"<p style=""font-size:14rem;font-weight:400;"">4</p>",,fwdspan,number,awfAWVpPVhM8vSB83vWjyQIJoZu1,html-keyboard-response,116,1262496,0.0-7.0-2.9-0.9-1.58-0.58,,,,,,,5ae5a3ff3ab2fb0001ef2b91,11:43:03,15/01/2024
,"<p style=""font-size:14rem;font-weight:400;"">7</p>",,fwdspan,number,awfAWVpPVhM8vSB83vWjyQIJoZu1,html-keyboard-response,117,1263514,0.0-7.0-2.9-0.9-1.59-0.59,,,,,,,5ae5a3ff3ab2fb0001ef2b91,11:43:03,15/01/2024
,"<p style=""font-size:14rem;font-weight:400;"">9</p>",,fwdspan,number,awfAWVpPVhM8vSB83vWjyQIJoZu1,html-keyboard-response,118,1264543,0.0-7.0-2.9-0.9-1.60-0.60,,,,,,,5ae5a3ff3ab2fb0001ef2b91,11:43:03,15/01/2024
,"<p style=""font-size:14rem;font-weight:400;"">2</p>",,fwdspan,number,awfAWVpPVhM8vSB83vWjyQIJoZu1,html-keyboard-response,119,1265558,0.0-7.0-2.9-0.9-1.61-0.61,,,,,,,5ae5a3ff3ab2fb0001ef2b91,11:43:03,15/01/2024
,"<p style=""font-size:14rem;font-weight:400;"">1</p>",,fwdspan,number,awfAWVpPVhM8vSB83vWjyQIJoZu1,html-keyboard-response,120,1266577,0.0-7.0-2.9-0.9-1.62-0.62,,,,,,,5ae5a3ff3ab2fb0001ef2b91,11:43:03,15/01/2024
,"<p style=""font-size:14rem;font-weight:400;"">3</p>",,fwdspan,number,awfAWVpPVhM8vSB83vWjyQIJoZu1,html-keyboard-response,121,1267605,0.0-7.0-2.9-0.9-1.63-0.63,,,,,,,5ae5a3ff3ab2fb0001ef2b91,11:43:03,15/01/2024
,"<p style=""font-size:14rem;font-weight:400;"">6</p>",,fwdspan,number,awfAWVpPVhM8vSB83vWjyQIJoZu1,html-keyboard-response,122,1268624,0.0-7.0-2.9-0.9-1.64-0.64,,,,,,,5ae5a3ff3ab2fb0001ef2b91,11:43:03,15/01/2024
,[],,fwdspan,delay,awfAWVpPVhM8vSB83vWjyQIJoZu1,html-keyboard-response,123,1269180,0.0-7.0-2.9-0.9-2.9,,,,,,,5ae5a3ff3ab2fb0001ef2b91,11:43:03,15/01/2024
9766.199999988079,"<div class = numbox><p style=""font-size:2.5rem"">What were the numbers <b>in order</b>?<br>(When you are ready to lock in your answer, press <b>ENTER</b>)</p><button id = button_1 class = ""square num-button"" onclick = ""recordClick(this)""><div class = content><div class = numbers>1</div></div></button><button id = button_2 class = ""square num-button"" onclick = ""recordClick(this)""><div class = content><div class = numbers>2</div></div></button><button id = button_3 class = ""square num-button"" onclick = ""recordClick(this)""><div class = content><div class = numbers>3</div></div></button><button id = button_4 class = ""square num-button"" onclick = ""recordClick(this)""><div class = content><div class = numbers>4</div></div></button><button id = button_5 class = ""square num-button"" onclick = ""recordClick(this)""><div class = content><div class = numbers>5</div></div></button><button id = button_6 class = ""square num-button"" onclick = ""recordClick(this)""><div class = content><div class = numbers>6</div></div></button><button id = button_7 class = ""square num-button"" onclick = ""recordClick(this)""><div class = content><div class = numbers>7</div></div></button><button id = button_8 class = ""square num-button"" onclick = ""recordClick(this)""><div class = content><div class = numbers>8</div></div></button><button id = button_9 class = ""square num-button"" onclick = ""recordClick(this)""><div class = content><div class = numbers>9</div></div></button><button class = clear_button id = ""ClearButton"" onclick = ""clearResponse()"">Clear</button><p><u><b>Current Answer:</b></u></p><div id=echoed_txt style=""font-size: 6rem; color:blue;""><b></b></div></div><br><br><br><br><br><br><br>",enter,fwdspan,response,awfAWVpPVhM8vSB83vWjyQIJoZu1,html-keyboard-response,124,1278948,0.0-7.0-2.9-0.9-3.9,8.0,"[8,4,7,9,3,1,2]","[8,4,7,9,2,1,3,6]",0.0,"[3, 4, 5, 6, 6, 7, 8, 9, 9, 8, 8, 7]",,5ae5a3ff3ab2fb0001ef2b91,11:43:03,15/01/2024
,,,fwdspan,update_span,awfAWVpPVhM8vSB83vWjyQIJoZu1,call-function,125,1279208,0.0-7.0-2.9-0.9-4.9,,,,,,,5ae5a3ff3ab2fb0001ef2b91,11:43:03,15/01/2024
1567.4000000357628,"<p style=""font-size:3rem"">Trial 11 of 12</p><br><br><br>",0,fwdspan,start_trial,awfAWVpPVhM8vSB83vWjyQIJoZu1,html-button-response,126,1280777,0.0-7.0-2.10-0.10-0.10,,,,,,,5ae5a3ff3ab2fb0001ef2b91,11:43:03,15/01/2024
,"<p style=""font-size:14rem;font-weight:400;"">4</p>",,fwdspan,number,awfAWVpPVhM8vSB83vWjyQIJoZu1,html-keyboard-response,127,1281794,0.0-7.0-2.10-0.10-1.65-0.65,,,,,,,5ae5a3ff3ab2fb0001ef2b91,11:43:03,15/01/2024
,"<p style=""font-size:14rem;font-weight:400;"">9</p>",,fwdspan,number,awfAWVpPVhM8vSB83vWjyQIJoZu1,html-keyboard-response,128,1282814,0.0-7.0-2.10-0.10-1.66-0.66,,,,,,,5ae5a3ff3ab2fb0001ef2b91,11:43:03,15/01/2024
,"<p style=""font-size:14rem;font-weight:400;"">5</p>",,fwdspan,number,awfAWVpPVhM8vSB83vWjyQIJoZu1,html-keyboard-response,129,1283825,0.0-7.0-2.10-0.10-1.67-0.67,,,,,,,5ae5a3ff3ab2fb0001ef2b91,11:43:03,15/01/2024
,"<p style=""font-size:14rem;font-weight:400;"">6</p>",,fwdspan,number,awfAWVpPVhM8vSB83vWjyQIJoZu1,html-keyboard-response,130,1284847,0.0-7.0-2.10-0.10-1.68-0.68,,,,,,,5ae5a3ff3ab2fb0001ef2b91,11:43:03,15/01/2024
,"<p style=""font-size:14rem;font-weight:400;"">1</p>",,fwdspan,number,awfAWVpPVhM8vSB83vWjyQIJoZu1,html-keyboard-response,131,1285863,0.0-7.0-2.10-0.10-1.69-0.69,,,,,,,5ae5a3ff3ab2fb0001ef2b91,11:43:03,15/01/2024
,"<p style=""font-size:14rem;font-weight:400;"">3</p>",,fwdspan,number,awfAWVpPVhM8vSB83vWjyQIJoZu1,html-keyboard-response,132,1286884,0.0-7.0-2.10-0.10-1.70-0.70,,,,,,,5ae5a3ff3ab2fb0001ef2b91,11:43:03,15/01/2024
,"<p style=""font-size:14rem;font-weight:400;"">2</p>",,fwdspan,number,awfAWVpPVhM8vSB83vWjyQIJoZu1,html-keyboard-response,133,1287905,0.0-7.0-2.10-0.10-1.71-0.71,,,,,,,5ae5a3ff3ab2fb0001ef2b91,11:43:03,15/01/2024
,"<p style=""font-size:14rem;font-weight:400;"">7</p>",,fwdspan,number,awfAWVpPVhM8vSB83vWjyQIJoZu1,html-keyboard-response,134,1288927,0.0-7.0-2.10-0.10-1.72-0.72,,,,,,,5ae5a3ff3ab2fb0001ef2b91,11:43:03,15/01/2024
,[],,fwdspan,delay,awfAWVpPVhM8vSB83vWjyQIJoZu1,html-keyboard-response,135,1289499,0.0-7.0-2.10-0.10-2.10,,,,,,,5ae5a3ff3ab2fb0001ef2b91,11:43:03,15/01/2024
9115.100000023842,"<div class = numbox><p style=""font-size:2.5rem"">What were the numbers <b>in order</b>?<br>(When you are ready to lock in your answer, press <b>ENTER</b>)</p><button id = button_1 class = ""square num-button"" onclick = ""recordClick(this)""><div class = content><div class = numbers>1</div></div></button><button id = button_2 class = ""square num-button"" onclick = ""recordClick(this)""><div class = content><div class = numbers>2</div></div></button><button id = button_3 class = ""square num-button"" onclick = ""recordClick(this)""><div class = content><div class = numbers>3</div></div></button><button id = button_4 class = ""square num-button"" onclick = ""recordClick(this)""><div class = content><div class = numbers>4</div></div></button><button id = button_5 class = ""square num-button"" onclick = ""recordClick(this)""><div class = content><div class = numbers>5</div></div></button><button id = button_6 class = ""square num-button"" onclick = ""recordClick(this)""><div class = content><div class = numbers>6</div></div></button><button id = button_7 class = ""square num-button"" onclick = ""recordClick(this)""><div class = content><div class = numbers>7</div></div></button><button id = button_8 class = ""square num-button"" onclick = ""recordClick(this)""><div class = content><div class = numbers>8</div></div></button><button id = button_9 class = ""square num-button"" onclick = ""recordClick(this)""><div class = content><div class = numbers>9</div></div></button><button class = clear_button id = ""ClearButton"" onclick = ""clearResponse()"">Clear</button><p><u><b>Current Answer:</b></u></p><div id=echoed_txt style=""font-size: 6rem; color:blue;""><b></b></div></div><br><br><br><br><br><br><br>",enter,fwdspan,response,awfAWVpPVhM8vSB83vWjyQIJoZu1,html-keyboard-response,136,1298617,0.0-7.0-2.10-0.10-3.10,8.0,"[4,9,5,6,1,3,7]","[4,9,5,6,1,3,2,7]",0.0,"[3, 4, 5, 6, 6, 7, 8, 9, 9, 8, 8, 7]",,5ae5a3ff3ab2fb0001ef2b91,11:43:03,15/01/2024
,,,fwdspan,update_span,awfAWVpPVhM8vSB83vWjyQIJoZu1,call-function,137,1298870,0.0-7.0-2.10-0.10-4.10,,,,,,,5ae5a3ff3ab2fb0001ef2b91,11:43:03,15/01/2024
1188.0999999642372,"<p style=""font-size:3rem"">Trial 12 of 12</p><br><br><br>",0,fwdspan,start_trial,awfAWVpPVhM8vSB83vWjyQIJoZu1,html-button-response,138,1300059,0.0-7.0-2.11-0.11-0.11,,,,,,,5ae5a3ff3ab2fb0001ef2b91,11:43:03,15/01/2024
,"<p style=""font-size:14rem;font-weight:400;"">2</p>",,fwdspan,number,awfAWVpPVhM8vSB83vWjyQIJoZu1,html-keyboard-response,139,1301078,0.0-7.0-2.11-0.11-1.73-0.73,,,,,,,5ae5a3ff3ab2fb0001ef2b91,11:43:03,15/01/2024
,"<p style=""font-size:14rem;font-weight:400;"">6</p>",,fwdspan,number,awfAWVpPVhM8vSB83vWjyQIJoZu1,html-keyboard-response,140,1302086,0.0-7.0-2.11-0.11-1.74-0.74,,,,,,,5ae5a3ff3ab2fb0001ef2b91,11:43:03,15/01/2024
,"<p style=""font-size:14rem;font-weight:400;"">9</p>",,fwdspan,number,awfAWVpPVhM8vSB83vWjyQIJoZu1,html-keyboard-response,141,1303103,0.0-7.0-2.11-0.11-1.75-0.75,,,,,,,5ae5a3ff3ab2fb0001ef2b91,11:43:03,15/01/2024
,"<p style=""font-size:14rem;font-weight:400;"">5</p>",,fwdspan,number,awfAWVpPVhM8vSB83vWjyQIJoZu1,html-keyboard-response,142,1304122,0.0-7.0-2.11-0.11-1.76-0.76,,,,,,,5ae5a3ff3ab2fb0001ef2b91,11:43:03,15/01/2024
,"<p style=""font-size:14rem;font-weight:400;"">8</p>",,fwdspan,number,awfAWVpPVhM8vSB83vWjyQIJoZu1,html-keyboard-response,143,1305149,0.0-7.0-2.11-0.11-1.77-0.77,,,,,,,5ae5a3ff3ab2fb0001ef2b91,11:43:03,15/01/2024
,"<p style=""font-size:14rem;font-weight:400;"">3</p>",,fwdspan,number,awfAWVpPVhM8vSB83vWjyQIJoZu1,html-keyboard-response,144,1306170,0.0-7.0-2.11-0.11-1.78-0.78,,,,,,,5ae5a3ff3ab2fb0001ef2b91,11:43:03,15/01/2024
,"<p style=""font-size:14rem;font-weight:400;"">1</p>",,fwdspan,number,awfAWVpPVhM8vSB83vWjyQIJoZu1,html-keyboard-response,145,1307185,0.0-7.0-2.11-0.11-1.79-0.79,,,,,,,5ae5a3ff3ab2fb0001ef2b91,11:43:03,15/01/2024
,[],,fwdspan,delay,awfAWVpPVhM8vSB83vWjyQIJoZu1,html-keyboard-response,146,1307752,0.0-7.0-2.11-0.11-2.11,,,,,,,5ae5a3ff3ab2fb0001ef2b91,11:43:03,15/01/2024
6814.300000011921,"<div class = numbox><p style=""font-size:2.5rem"">What were the numbers <b>in order</b>?<br>(When you are ready to lock in your answer, press <b>ENTER</b>)</p><button id = button_1 class = ""square num-button"" onclick = ""recordClick(this)""><div class = content><div class = numbers>1</div></div></button><button id = button_2 class = ""square num-button"" onclick = ""recordClick(this)""><div class = content><div class = numbers>2</div></div></button><button id = button_3 class = ""square num-button"" onclick = ""recordClick(this)""><div class = content><div class = numbers>3</div></div></button><button id = button_4 class = ""square num-button"" onclick = ""recordClick(this)""><div class = content><div class = numbers>4</div></div></button><button id = button_5 class = ""square num-button"" onclick = ""recordClick(this)""><div class = content><div class = numbers>5</div></div></button><button id = button_6 class = ""square num-button"" onclick = ""recordClick(this)""><div class = content><div class = numbers>6</div></div></button><button id = button_7 class = ""square num-button"" onclick = ""recordClick(this)""><div class = content><div class = numbers>7</div></div></button><button id = button_8 class = ""square num-button"" onclick = ""recordClick(this)""><div class = content><div class = numbers>8</div></div></button><button id = button_9 class = ""square num-button"" onclick = ""recordClick(this)""><div class = content><div class = numbers>9</div></div></button><button class = clear_button id = ""ClearButton"" onclick = ""clearResponse()"">Clear</button><p><u><b>Current Answer:</b></u></p><div id=echoed_txt style=""font-size: 6rem; color:blue;""><b></b></div></div><br><br><br><br><br><br><br>",enter,fwdspan,response,awfAWVpPVhM8vSB83vWjyQIJoZu1,html-keyboard-response,147,1314568,0.0-7.0-2.11-0.11-3.11,7.0,"[2,6,9,5,8,3,1]","[2,6,9,5,8,3,1]",1.0,"[3, 4, 5, 6, 6, 7, 8, 9, 9, 8, 8, 7]",,5ae5a3ff3ab2fb0001ef2b91,11:43:03,15/01/2024
,,,fwdspan,update_span,awfAWVpPVhM8vSB83vWjyQIJoZu1,call-function,148,1314822,0.0-7.0-2.11-0.11-4.11,,,,,,,5ae5a3ff3ab2fb0001ef2b91,11:43:03,15/01/2024
14364.100000023842,,{'Q0': 'It was very testing in the memory game'},fwdspan,survey,awfAWVpPVhM8vSB83vWjyQIJoZu1,lmdlab-survey-text,149,1329939,0.0-7.0-3.0,,,,,,awfAWVpPVhM8vSB83vWjyQIJoZu1,5ae5a3ff3ab2fb0001ef2b91,11:43:03,15/01/2024
1507.8999999761581,<p><p style='font-size: 3rem'>Great work!<br><br>This completes the digit span task.</p><br><br><br>,0,fwdspan,finish,awfAWVpPVhM8vSB83vWjyQIJoZu1,html-button-response,150,1331452,0.0-7.0-4.0,,,,,,,5ae5a3ff3ab2fb0001ef2b91,11:43:03,15/01/2024
