rt,stimulus,response,exp_name,exp_stage,subjectID,trial_type,trial_index,time_elapsed,internal_node_id,span,answer,correct,correct_full,span_history,databaseID,prolificID,start_time,date
4548.5,"<p style=""font-size:4rem""><br><br>In the next part today, we have a completely different short task.<br><br><br>This part involves keeping numbers in you mind. Participation takes around 5 minutes.<br><br><br></p>",0,fwdspan,instruct,iB6k7RY6EDOrNURi2WYPpNCpev32,html-button-response,19,224937,0.0-7.0-0.0,,,,,,,5b6b2c3156558d0001678ffc,1:09:40 PM,1/15/2024
10138.599999964237,"<p style=""font-size:5rem"">Welcome to the <b>digit span task</b>!<br><br></p><p style=""font-size:3.4rem""><br>On each trial, you will see a sequence of digits, followed by a delay.</p><p style=""font-size:3.4rem""><br>Then you will be asked to type them back in the same order in which they were seen.</p><p style=""font-size:3.4rem""><br><br><br>For example, if you saw the digits <b style=""color:blue;"">1</b>, <b style=""color:blue;"">2</b>, <b style=""color:blue;"">3</b>, you would respond with <b style=""color:blue;"">1</b>, <b style=""color:blue;"">2</b>, <b style=""color:blue;"">3</b></p><p style=""font-size:3.4rem""><br><br><br>To ensure the best measure of true performance for our study,<br><br>it is very important that you do not use any memory aid (e.g., pen and paper).<br><br>Please do the task solely in your head.</p><p style=""font-size:3.4rem""><br><br><br>There will be 12 total trials. Participation takes around 5 minutes.</p><br><br><br>",0,fwdspan,instruct,iB6k7RY6EDOrNURi2WYPpNCpev32,html-button-response,20,235077,0.0-7.0-1.0,,,,,,,5b6b2c3156558d0001678ffc,1:09:40 PM,1/15/2024
1419.199999988079,"<p style=""font-size:3rem"">Trial 1 of 12</p><br><br><br>",0,fwdspan,start_trial,iB6k7RY6EDOrNURi2WYPpNCpev32,html-button-response,21,236498,0.0-7.0-2.0-0.0-0.0,,,,,,,5b6b2c3156558d0001678ffc,1:09:40 PM,1/15/2024
,"<p style=""font-size:14rem;font-weight:400;"">1</p>",,fwdspan,number,iB6k7RY6EDOrNURi2WYPpNCpev32,html-keyboard-response,22,237526,0.0-7.0-2.0-0.0-1.0-0.0,,,,,,,5b6b2c3156558d0001678ffc,1:09:40 PM,1/15/2024
,"<p style=""font-size:14rem;font-weight:400;"">5</p>",,fwdspan,number,iB6k7RY6EDOrNURi2WYPpNCpev32,html-keyboard-response,23,238555,0.0-7.0-2.0-0.0-1.1-0.1,,,,,,,5b6b2c3156558d0001678ffc,1:09:40 PM,1/15/2024
,"<p style=""font-size:14rem;font-weight:400;"">6</p>",,fwdspan,number,iB6k7RY6EDOrNURi2WYPpNCpev32,html-keyboard-response,24,239580,0.0-7.0-2.0-0.0-1.2-0.2,,,,,,,5b6b2c3156558d0001678ffc,1:09:40 PM,1/15/2024
,[],,fwdspan,delay,iB6k7RY6EDOrNURi2WYPpNCpev32,html-keyboard-response,25,240145,0.0-7.0-2.0-0.0-2.0,,,,,,,5b6b2c3156558d0001678ffc,1:09:40 PM,1/15/2024
6323.200000047684,"<div class = numbox><p style=""font-size:2.5rem"">What were the numbers <b>in order</b>?<br>(When you are ready to lock in your answer, press <b>ENTER</b>)</p><button id = button_1 class = ""square num-button"" onclick = ""recordClick(this)""><div class = content><div class = numbers>1</div></div></button><button id = button_2 class = ""square num-button"" onclick = ""recordClick(this)""><div class = content><div class = numbers>2</div></div></button><button id = button_3 class = ""square num-button"" onclick = ""recordClick(this)""><div class = content><div class = numbers>3</div></div></button><button id = button_4 class = ""square num-button"" onclick = ""recordClick(this)""><div class = content><div class = numbers>4</div></div></button><button id = button_5 class = ""square num-button"" onclick = ""recordClick(this)""><div class = content><div class = numbers>5</div></div></button><button id = button_6 class = ""square num-button"" onclick = ""recordClick(this)""><div class = content><div class = numbers>6</div></div></button><button id = button_7 class = ""square num-button"" onclick = ""recordClick(this)""><div class = content><div class = numbers>7</div></div></button><button id = button_8 class = ""square num-button"" onclick = ""recordClick(this)""><div class = content><div class = numbers>8</div></div></button><button id = button_9 class = ""square num-button"" onclick = ""recordClick(this)""><div class = content><div class = numbers>9</div></div></button><button class = clear_button id = ""ClearButton"" onclick = ""clearResponse()"">Clear</button><p><u><b>Current Answer:</b></u></p><div id=echoed_txt style=""font-size: 6rem; color:blue;""><b></b></div></div><br><br><br><br><br><br><br>",enter,fwdspan,response,iB6k7RY6EDOrNURi2WYPpNCpev32,html-keyboard-response,26,246470,0.0-7.0-2.0-0.0-3.0,3.0,"[1,5,6]","[1,5,6]",1.0,"[3, 4, 5, 6, 7, 7, 6, 7, 7, 6, 6, 7]",,5b6b2c3156558d0001678ffc,1:09:40 PM,1/15/2024
,,,fwdspan,update_span,iB6k7RY6EDOrNURi2WYPpNCpev32,call-function,27,246725,0.0-7.0-2.0-0.0-4.0,,,,,,,5b6b2c3156558d0001678ffc,1:09:40 PM,1/15/2024
2258.5,"<p style=""font-size:3rem"">Trial 2 of 12</p><br><br><br>",0,fwdspan,start_trial,iB6k7RY6EDOrNURi2WYPpNCpev32,html-button-response,28,248984,0.0-7.0-2.1-0.1-0.1,,,,,,,5b6b2c3156558d0001678ffc,1:09:40 PM,1/15/2024
,"<p style=""font-size:14rem;font-weight:400;"">6</p>",,fwdspan,number,iB6k7RY6EDOrNURi2WYPpNCpev32,html-keyboard-response,29,250005,0.0-7.0-2.1-0.1-1.3-0.3,,,,,,,5b6b2c3156558d0001678ffc,1:09:40 PM,1/15/2024
,"<p style=""font-size:14rem;font-weight:400;"">7</p>",,fwdspan,number,iB6k7RY6EDOrNURi2WYPpNCpev32,html-keyboard-response,30,251021,0.0-7.0-2.1-0.1-1.4-0.4,,,,,,,5b6b2c3156558d0001678ffc,1:09:40 PM,1/15/2024
,"<p style=""font-size:14rem;font-weight:400;"">9</p>",,fwdspan,number,iB6k7RY6EDOrNURi2WYPpNCpev32,html-keyboard-response,31,252051,0.0-7.0-2.1-0.1-1.5-0.5,,,,,,,5b6b2c3156558d0001678ffc,1:09:40 PM,1/15/2024
,"<p style=""font-size:14rem;font-weight:400;"">3</p>",,fwdspan,number,iB6k7RY6EDOrNURi2WYPpNCpev32,html-keyboard-response,32,253077,0.0-7.0-2.1-0.1-1.6-0.6,,,,,,,5b6b2c3156558d0001678ffc,1:09:40 PM,1/15/2024
,[],,fwdspan,delay,iB6k7RY6EDOrNURi2WYPpNCpev32,html-keyboard-response,33,253628,0.0-7.0-2.1-0.1-2.1,,,,,,,5b6b2c3156558d0001678ffc,1:09:40 PM,1/15/2024
4409.899999976158,"<div class = numbox><p style=""font-size:2.5rem"">What were the numbers <b>in order</b>?<br>(When you are ready to lock in your answer, press <b>ENTER</b>)</p><button id = button_1 class = ""square num-button"" onclick = ""recordClick(this)""><div class = content><div class = numbers>1</div></div></button><button id = button_2 class = ""square num-button"" onclick = ""recordClick(this)""><div class = content><div class = numbers>2</div></div></button><button id = button_3 class = ""square num-button"" onclick = ""recordClick(this)""><div class = content><div class = numbers>3</div></div></button><button id = button_4 class = ""square num-button"" onclick = ""recordClick(this)""><div class = content><div class = numbers>4</div></div></button><button id = button_5 class = ""square num-button"" onclick = ""recordClick(this)""><div class = content><div class = numbers>5</div></div></button><button id = button_6 class = ""square num-button"" onclick = ""recordClick(this)""><div class = content><div class = numbers>6</div></div></button><button id = button_7 class = ""square num-button"" onclick = ""recordClick(this)""><div class = content><div class = numbers>7</div></div></button><button id = button_8 class = ""square num-button"" onclick = ""recordClick(this)""><div class = content><div class = numbers>8</div></div></button><button id = button_9 class = ""square num-button"" onclick = ""recordClick(this)""><div class = content><div class = numbers>9</div></div></button><button class = clear_button id = ""ClearButton"" onclick = ""clearResponse()"">Clear</button><p><u><b>Current Answer:</b></u></p><div id=echoed_txt style=""font-size: 6rem; color:blue;""><b></b></div></div><br><br><br><br><br><br><br>",enter,fwdspan,response,iB6k7RY6EDOrNURi2WYPpNCpev32,html-keyboard-response,34,258039,0.0-7.0-2.1-0.1-3.1,4.0,"[6,7,9,3]","[6,7,9,3]",1.0,"[3, 4, 5, 6, 7, 7, 6, 7, 7, 6, 6, 7]",,5b6b2c3156558d0001678ffc,1:09:40 PM,1/15/2024
,,,fwdspan,update_span,iB6k7RY6EDOrNURi2WYPpNCpev32,call-function,35,258306,0.0-7.0-2.1-0.1-4.1,,,,,,,5b6b2c3156558d0001678ffc,1:09:40 PM,1/15/2024
1557.2000000476837,"<p style=""font-size:3rem"">Trial 3 of 12</p><br><br><br>",0,fwdspan,start_trial,iB6k7RY6EDOrNURi2WYPpNCpev32,html-button-response,36,259864,0.0-7.0-2.2-0.2-0.2,,,,,,,5b6b2c3156558d0001678ffc,1:09:40 PM,1/15/2024
,"<p style=""font-size:14rem;font-weight:400;"">8</p>",,fwdspan,number,iB6k7RY6EDOrNURi2WYPpNCpev32,html-keyboard-response,37,260878,0.0-7.0-2.2-0.2-1.7-0.7,,,,,,,5b6b2c3156558d0001678ffc,1:09:40 PM,1/15/2024
,"<p style=""font-size:14rem;font-weight:400;"">5</p>",,fwdspan,number,iB6k7RY6EDOrNURi2WYPpNCpev32,html-keyboard-response,38,261902,0.0-7.0-2.2-0.2-1.8-0.8,,,,,,,5b6b2c3156558d0001678ffc,1:09:40 PM,1/15/2024
,"<p style=""font-size:14rem;font-weight:400;"">3</p>",,fwdspan,number,iB6k7RY6EDOrNURi2WYPpNCpev32,html-keyboard-response,39,262929,0.0-7.0-2.2-0.2-1.9-0.9,,,,,,,5b6b2c3156558d0001678ffc,1:09:40 PM,1/15/2024
,"<p style=""font-size:14rem;font-weight:400;"">1</p>",,fwdspan,number,iB6k7RY6EDOrNURi2WYPpNCpev32,html-keyboard-response,40,263942,0.0-7.0-2.2-0.2-1.10-0.10,,,,,,,5b6b2c3156558d0001678ffc,1:09:40 PM,1/15/2024
,"<p style=""font-size:14rem;font-weight:400;"">6</p>",,fwdspan,number,iB6k7RY6EDOrNURi2WYPpNCpev32,html-keyboard-response,41,264969,0.0-7.0-2.2-0.2-1.11-0.11,,,,,,,5b6b2c3156558d0001678ffc,1:09:40 PM,1/15/2024
,[],,fwdspan,delay,iB6k7RY6EDOrNURi2WYPpNCpev32,html-keyboard-response,42,265521,0.0-7.0-2.2-0.2-2.2,,,,,,,5b6b2c3156558d0001678ffc,1:09:40 PM,1/15/2024
6064.5,"<div class = numbox><p style=""font-size:2.5rem"">What were the numbers <b>in order</b>?<br>(When you are ready to lock in your answer, press <b>ENTER</b>)</p><button id = button_1 class = ""square num-button"" onclick = ""recordClick(this)""><div class = content><div class = numbers>1</div></div></button><button id = button_2 class = ""square num-button"" onclick = ""recordClick(this)""><div class = content><div class = numbers>2</div></div></button><button id = button_3 class = ""square num-button"" onclick = ""recordClick(this)""><div class = content><div class = numbers>3</div></div></button><button id = button_4 class = ""square num-button"" onclick = ""recordClick(this)""><div class = content><div class = numbers>4</div></div></button><button id = button_5 class = ""square num-button"" onclick = ""recordClick(this)""><div class = content><div class = numbers>5</div></div></button><button id = button_6 class = ""square num-button"" onclick = ""recordClick(this)""><div class = content><div class = numbers>6</div></div></button><button id = button_7 class = ""square num-button"" onclick = ""recordClick(this)""><div class = content><div class = numbers>7</div></div></button><button id = button_8 class = ""square num-button"" onclick = ""recordClick(this)""><div class = content><div class = numbers>8</div></div></button><button id = button_9 class = ""square num-button"" onclick = ""recordClick(this)""><div class = content><div class = numbers>9</div></div></button><button class = clear_button id = ""ClearButton"" onclick = ""clearResponse()"">Clear</button><p><u><b>Current Answer:</b></u></p><div id=echoed_txt style=""font-size: 6rem; color:blue;""><b></b></div></div><br><br><br><br><br><br><br>",enter,fwdspan,response,iB6k7RY6EDOrNURi2WYPpNCpev32,html-keyboard-response,43,271586,0.0-7.0-2.2-0.2-3.2,5.0,"[8,5,3,1,6]","[8,5,3,1,6]",1.0,"[3, 4, 5, 6, 7, 7, 6, 7, 7, 6, 6, 7]",,5b6b2c3156558d0001678ffc,1:09:40 PM,1/15/2024
,,,fwdspan,update_span,iB6k7RY6EDOrNURi2WYPpNCpev32,call-function,44,271846,0.0-7.0-2.2-0.2-4.2,,,,,,,5b6b2c3156558d0001678ffc,1:09:40 PM,1/15/2024
1492.2999999523163,"<p style=""font-size:3rem"">Trial 4 of 12</p><br><br><br>",0,fwdspan,start_trial,iB6k7RY6EDOrNURi2WYPpNCpev32,html-button-response,45,273339,0.0-7.0-2.3-0.3-0.3,,,,,,,5b6b2c3156558d0001678ffc,1:09:40 PM,1/15/2024
,"<p style=""font-size:14rem;font-weight:400;"">5</p>",,fwdspan,number,iB6k7RY6EDOrNURi2WYPpNCpev32,html-keyboard-response,46,274362,0.0-7.0-2.3-0.3-1.12-0.12,,,,,,,5b6b2c3156558d0001678ffc,1:09:40 PM,1/15/2024
,"<p style=""font-size:14rem;font-weight:400;"">8</p>",,fwdspan,number,iB6k7RY6EDOrNURi2WYPpNCpev32,html-keyboard-response,47,275378,0.0-7.0-2.3-0.3-1.13-0.13,,,,,,,5b6b2c3156558d0001678ffc,1:09:40 PM,1/15/2024
,"<p style=""font-size:14rem;font-weight:400;"">7</p>",,fwdspan,number,iB6k7RY6EDOrNURi2WYPpNCpev32,html-keyboard-response,48,276410,0.0-7.0-2.3-0.3-1.14-0.14,,,,,,,5b6b2c3156558d0001678ffc,1:09:40 PM,1/15/2024
,"<p style=""font-size:14rem;font-weight:400;"">4</p>",,fwdspan,number,iB6k7RY6EDOrNURi2WYPpNCpev32,html-keyboard-response,49,277434,0.0-7.0-2.3-0.3-1.15-0.15,,,,,,,5b6b2c3156558d0001678ffc,1:09:40 PM,1/15/2024
,"<p style=""font-size:14rem;font-weight:400;"">6</p>",,fwdspan,number,iB6k7RY6EDOrNURi2WYPpNCpev32,html-keyboard-response,50,278462,0.0-7.0-2.3-0.3-1.16-0.16,,,,,,,5b6b2c3156558d0001678ffc,1:09:40 PM,1/15/2024
,"<p style=""font-size:14rem;font-weight:400;"">3</p>",,fwdspan,number,iB6k7RY6EDOrNURi2WYPpNCpev32,html-keyboard-response,51,279465,0.0-7.0-2.3-0.3-1.17-0.17,,,,,,,5b6b2c3156558d0001678ffc,1:09:40 PM,1/15/2024
,[],,fwdspan,delay,iB6k7RY6EDOrNURi2WYPpNCpev32,html-keyboard-response,52,280026,0.0-7.0-2.3-0.3-2.3,,,,,,,5b6b2c3156558d0001678ffc,1:09:40 PM,1/15/2024
7298.099999964237,"<div class = numbox><p style=""font-size:2.5rem"">What were the numbers <b>in order</b>?<br>(When you are ready to lock in your answer, press <b>ENTER</b>)</p><button id = button_1 class = ""square num-button"" onclick = ""recordClick(this)""><div class = content><div class = numbers>1</div></div></button><button id = button_2 class = ""square num-button"" onclick = ""recordClick(this)""><div class = content><div class = numbers>2</div></div></button><button id = button_3 class = ""square num-button"" onclick = ""recordClick(this)""><div class = content><div class = numbers>3</div></div></button><button id = button_4 class = ""square num-button"" onclick = ""recordClick(this)""><div class = content><div class = numbers>4</div></div></button><button id = button_5 class = ""square num-button"" onclick = ""recordClick(this)""><div class = content><div class = numbers>5</div></div></button><button id = button_6 class = ""square num-button"" onclick = ""recordClick(this)""><div class = content><div class = numbers>6</div></div></button><button id = button_7 class = ""square num-button"" onclick = ""recordClick(this)""><div class = content><div class = numbers>7</div></div></button><button id = button_8 class = ""square num-button"" onclick = ""recordClick(this)""><div class = content><div class = numbers>8</div></div></button><button id = button_9 class = ""square num-button"" onclick = ""recordClick(this)""><div class = content><div class = numbers>9</div></div></button><button class = clear_button id = ""ClearButton"" onclick = ""clearResponse()"">Clear</button><p><u><b>Current Answer:</b></u></p><div id=echoed_txt style=""font-size: 6rem; color:blue;""><b></b></div></div><br><br><br><br><br><br><br>",enter,fwdspan,response,iB6k7RY6EDOrNURi2WYPpNCpev32,html-keyboard-response,53,287324,0.0-7.0-2.3-0.3-3.3,6.0,"[5,8,7,4,6,3]","[5,8,7,4,6,3]",1.0,"[3, 4, 5, 6, 7, 7, 6, 7, 7, 6, 6, 7]",,5b6b2c3156558d0001678ffc,1:09:40 PM,1/15/2024
,,,fwdspan,update_span,iB6k7RY6EDOrNURi2WYPpNCpev32,call-function,54,287586,0.0-7.0-2.3-0.3-4.3,,,,,,,5b6b2c3156558d0001678ffc,1:09:40 PM,1/15/2024
1400.3999999761581,"<p style=""font-size:3rem"">Trial 5 of 12</p><br><br><br>",0,fwdspan,start_trial,iB6k7RY6EDOrNURi2WYPpNCpev32,html-button-response,55,288988,0.0-7.0-2.4-0.4-0.4,,,,,,,5b6b2c3156558d0001678ffc,1:09:40 PM,1/15/2024
,"<p style=""font-size:14rem;font-weight:400;"">9</p>",,fwdspan,number,iB6k7RY6EDOrNURi2WYPpNCpev32,html-keyboard-response,56,289995,0.0-7.0-2.4-0.4-1.18-0.18,,,,,,,5b6b2c3156558d0001678ffc,1:09:40 PM,1/15/2024
,"<p style=""font-size:14rem;font-weight:400;"">2</p>",,fwdspan,number,iB6k7RY6EDOrNURi2WYPpNCpev32,html-keyboard-response,57,291010,0.0-7.0-2.4-0.4-1.19-0.19,,,,,,,5b6b2c3156558d0001678ffc,1:09:40 PM,1/15/2024
,"<p style=""font-size:14rem;font-weight:400;"">1</p>",,fwdspan,number,iB6k7RY6EDOrNURi2WYPpNCpev32,html-keyboard-response,58,292040,0.0-7.0-2.4-0.4-1.20-0.20,,,,,,,5b6b2c3156558d0001678ffc,1:09:40 PM,1/15/2024
,"<p style=""font-size:14rem;font-weight:400;"">8</p>",,fwdspan,number,iB6k7RY6EDOrNURi2WYPpNCpev32,html-keyboard-response,59,293067,0.0-7.0-2.4-0.4-1.21-0.21,,,,,,,5b6b2c3156558d0001678ffc,1:09:40 PM,1/15/2024
,"<p style=""font-size:14rem;font-weight:400;"">3</p>",,fwdspan,number,iB6k7RY6EDOrNURi2WYPpNCpev32,html-keyboard-response,60,294094,0.0-7.0-2.4-0.4-1.22-0.22,,,,,,,5b6b2c3156558d0001678ffc,1:09:40 PM,1/15/2024
,"<p style=""font-size:14rem;font-weight:400;"">5</p>",,fwdspan,number,iB6k7RY6EDOrNURi2WYPpNCpev32,html-keyboard-response,61,295120,0.0-7.0-2.4-0.4-1.23-0.23,,,,,,,5b6b2c3156558d0001678ffc,1:09:40 PM,1/15/2024
,"<p style=""font-size:14rem;font-weight:400;"">4</p>",,fwdspan,number,iB6k7RY6EDOrNURi2WYPpNCpev32,html-keyboard-response,62,296146,0.0-7.0-2.4-0.4-1.24-0.24,,,,,,,5b6b2c3156558d0001678ffc,1:09:40 PM,1/15/2024
,[],,fwdspan,delay,iB6k7RY6EDOrNURi2WYPpNCpev32,html-keyboard-response,63,296699,0.0-7.0-2.4-0.4-2.4,,,,,,,5b6b2c3156558d0001678ffc,1:09:40 PM,1/15/2024
5699.100000023842,"<div class = numbox><p style=""font-size:2.5rem"">What were the numbers <b>in order</b>?<br>(When you are ready to lock in your answer, press <b>ENTER</b>)</p><button id = button_1 class = ""square num-button"" onclick = ""recordClick(this)""><div class = content><div class = numbers>1</div></div></button><button id = button_2 class = ""square num-button"" onclick = ""recordClick(this)""><div class = content><div class = numbers>2</div></div></button><button id = button_3 class = ""square num-button"" onclick = ""recordClick(this)""><div class = content><div class = numbers>3</div></div></button><button id = button_4 class = ""square num-button"" onclick = ""recordClick(this)""><div class = content><div class = numbers>4</div></div></button><button id = button_5 class = ""square num-button"" onclick = ""recordClick(this)""><div class = content><div class = numbers>5</div></div></button><button id = button_6 class = ""square num-button"" onclick = ""recordClick(this)""><div class = content><div class = numbers>6</div></div></button><button id = button_7 class = ""square num-button"" onclick = ""recordClick(this)""><div class = content><div class = numbers>7</div></div></button><button id = button_8 class = ""square num-button"" onclick = ""recordClick(this)""><div class = content><div class = numbers>8</div></div></button><button id = button_9 class = ""square num-button"" onclick = ""recordClick(this)""><div class = content><div class = numbers>9</div></div></button><button class = clear_button id = ""ClearButton"" onclick = ""clearResponse()"">Clear</button><p><u><b>Current Answer:</b></u></p><div id=echoed_txt style=""font-size: 6rem; color:blue;""><b></b></div></div><br><br><br><br><br><br><br>",enter,fwdspan,response,iB6k7RY6EDOrNURi2WYPpNCpev32,html-keyboard-response,64,302399,0.0-7.0-2.4-0.4-3.4,7.0,"[9,2,1,8,4,6]","[9,2,1,8,3,5,4]",0.0,"[3, 4, 5, 6, 7, 7, 6, 7, 7, 6, 6, 7]",,5b6b2c3156558d0001678ffc,1:09:40 PM,1/15/2024
,,,fwdspan,update_span,iB6k7RY6EDOrNURi2WYPpNCpev32,call-function,65,302654,0.0-7.0-2.4-0.4-4.4,,,,,,,5b6b2c3156558d0001678ffc,1:09:40 PM,1/15/2024
1118.8999999761581,"<p style=""font-size:3rem"">Trial 6 of 12</p><br><br><br>",0,fwdspan,start_trial,iB6k7RY6EDOrNURi2WYPpNCpev32,html-button-response,66,303775,0.0-7.0-2.5-0.5-0.5,,,,,,,5b6b2c3156558d0001678ffc,1:09:40 PM,1/15/2024
,"<p style=""font-size:14rem;font-weight:400;"">1</p>",,fwdspan,number,iB6k7RY6EDOrNURi2WYPpNCpev32,html-keyboard-response,67,304798,0.0-7.0-2.5-0.5-1.25-0.25,,,,,,,5b6b2c3156558d0001678ffc,1:09:40 PM,1/15/2024
,"<p style=""font-size:14rem;font-weight:400;"">4</p>",,fwdspan,number,iB6k7RY6EDOrNURi2WYPpNCpev32,html-keyboard-response,68,305825,0.0-7.0-2.5-0.5-1.26-0.26,,,,,,,5b6b2c3156558d0001678ffc,1:09:40 PM,1/15/2024
,"<p style=""font-size:14rem;font-weight:400;"">7</p>",,fwdspan,number,iB6k7RY6EDOrNURi2WYPpNCpev32,html-keyboard-response,69,306853,0.0-7.0-2.5-0.5-1.27-0.27,,,,,,,5b6b2c3156558d0001678ffc,1:09:40 PM,1/15/2024
,"<p style=""font-size:14rem;font-weight:400;"">6</p>",,fwdspan,number,iB6k7RY6EDOrNURi2WYPpNCpev32,html-keyboard-response,70,307877,0.0-7.0-2.5-0.5-1.28-0.28,,,,,,,5b6b2c3156558d0001678ffc,1:09:40 PM,1/15/2024
,"<p style=""font-size:14rem;font-weight:400;"">9</p>",,fwdspan,number,iB6k7RY6EDOrNURi2WYPpNCpev32,html-keyboard-response,71,308900,0.0-7.0-2.5-0.5-1.29-0.29,,,,,,,5b6b2c3156558d0001678ffc,1:09:40 PM,1/15/2024
,"<p style=""font-size:14rem;font-weight:400;"">5</p>",,fwdspan,number,iB6k7RY6EDOrNURi2WYPpNCpev32,html-keyboard-response,72,309927,0.0-7.0-2.5-0.5-1.30-0.30,,,,,,,5b6b2c3156558d0001678ffc,1:09:40 PM,1/15/2024
,"<p style=""font-size:14rem;font-weight:400;"">3</p>",,fwdspan,number,iB6k7RY6EDOrNURi2WYPpNCpev32,html-keyboard-response,73,310956,0.0-7.0-2.5-0.5-1.31-0.31,,,,,,,5b6b2c3156558d0001678ffc,1:09:40 PM,1/15/2024
,[],,fwdspan,delay,iB6k7RY6EDOrNURi2WYPpNCpev32,html-keyboard-response,74,311520,0.0-7.0-2.5-0.5-2.5,,,,,,,5b6b2c3156558d0001678ffc,1:09:40 PM,1/15/2024
7442.599999964237,"<div class = numbox><p style=""font-size:2.5rem"">What were the numbers <b>in order</b>?<br>(When you are ready to lock in your answer, press <b>ENTER</b>)</p><button id = button_1 class = ""square num-button"" onclick = ""recordClick(this)""><div class = content><div class = numbers>1</div></div></button><button id = button_2 class = ""square num-button"" onclick = ""recordClick(this)""><div class = content><div class = numbers>2</div></div></button><button id = button_3 class = ""square num-button"" onclick = ""recordClick(this)""><div class = content><div class = numbers>3</div></div></button><button id = button_4 class = ""square num-button"" onclick = ""recordClick(this)""><div class = content><div class = numbers>4</div></div></button><button id = button_5 class = ""square num-button"" onclick = ""recordClick(this)""><div class = content><div class = numbers>5</div></div></button><button id = button_6 class = ""square num-button"" onclick = ""recordClick(this)""><div class = content><div class = numbers>6</div></div></button><button id = button_7 class = ""square num-button"" onclick = ""recordClick(this)""><div class = content><div class = numbers>7</div></div></button><button id = button_8 class = ""square num-button"" onclick = ""recordClick(this)""><div class = content><div class = numbers>8</div></div></button><button id = button_9 class = ""square num-button"" onclick = ""recordClick(this)""><div class = content><div class = numbers>9</div></div></button><button class = clear_button id = ""ClearButton"" onclick = ""clearResponse()"">Clear</button><p><u><b>Current Answer:</b></u></p><div id=echoed_txt style=""font-size: 6rem; color:blue;""><b></b></div></div><br><br><br><br><br><br><br>",enter,fwdspan,response,iB6k7RY6EDOrNURi2WYPpNCpev32,html-keyboard-response,75,318964,0.0-7.0-2.5-0.5-3.5,7.0,"[1,4,7,6,9,5,2]","[1,4,7,6,9,5,3]",0.0,"[3, 4, 5, 6, 7, 7, 6, 7, 7, 6, 6, 7]",,5b6b2c3156558d0001678ffc,1:09:40 PM,1/15/2024
,,,fwdspan,update_span,iB6k7RY6EDOrNURi2WYPpNCpev32,call-function,76,319215,0.0-7.0-2.5-0.5-4.5,,,,,,,5b6b2c3156558d0001678ffc,1:09:40 PM,1/15/2024
1252.9000000357628,"<p style=""font-size:3rem"">Trial 7 of 12</p><br><br><br>",0,fwdspan,start_trial,iB6k7RY6EDOrNURi2WYPpNCpev32,html-button-response,77,320469,0.0-7.0-2.6-0.6-0.6,,,,,,,5b6b2c3156558d0001678ffc,1:09:40 PM,1/15/2024
,"<p style=""font-size:14rem;font-weight:400;"">8</p>",,fwdspan,number,iB6k7RY6EDOrNURi2WYPpNCpev32,html-keyboard-response,78,321485,0.0-7.0-2.6-0.6-1.32-0.32,,,,,,,5b6b2c3156558d0001678ffc,1:09:40 PM,1/15/2024
,"<p style=""font-size:14rem;font-weight:400;"">6</p>",,fwdspan,number,iB6k7RY6EDOrNURi2WYPpNCpev32,html-keyboard-response,79,322501,0.0-7.0-2.6-0.6-1.33-0.33,,,,,,,5b6b2c3156558d0001678ffc,1:09:40 PM,1/15/2024
,"<p style=""font-size:14rem;font-weight:400;"">7</p>",,fwdspan,number,iB6k7RY6EDOrNURi2WYPpNCpev32,html-keyboard-response,80,323528,0.0-7.0-2.6-0.6-1.34-0.34,,,,,,,5b6b2c3156558d0001678ffc,1:09:40 PM,1/15/2024
,"<p style=""font-size:14rem;font-weight:400;"">4</p>",,fwdspan,number,iB6k7RY6EDOrNURi2WYPpNCpev32,html-keyboard-response,81,324558,0.0-7.0-2.6-0.6-1.35-0.35,,,,,,,5b6b2c3156558d0001678ffc,1:09:40 PM,1/15/2024
,"<p style=""font-size:14rem;font-weight:400;"">5</p>",,fwdspan,number,iB6k7RY6EDOrNURi2WYPpNCpev32,html-keyboard-response,82,325583,0.0-7.0-2.6-0.6-1.36-0.36,,,,,,,5b6b2c3156558d0001678ffc,1:09:40 PM,1/15/2024
,"<p style=""font-size:14rem;font-weight:400;"">9</p>",,fwdspan,number,iB6k7RY6EDOrNURi2WYPpNCpev32,html-keyboard-response,83,326610,0.0-7.0-2.6-0.6-1.37-0.37,,,,,,,5b6b2c3156558d0001678ffc,1:09:40 PM,1/15/2024
,[],,fwdspan,delay,iB6k7RY6EDOrNURi2WYPpNCpev32,html-keyboard-response,84,327171,0.0-7.0-2.6-0.6-2.6,,,,,,,5b6b2c3156558d0001678ffc,1:09:40 PM,1/15/2024
5339.300000011921,"<div class = numbox><p style=""font-size:2.5rem"">What were the numbers <b>in order</b>?<br>(When you are ready to lock in your answer, press <b>ENTER</b>)</p><button id = button_1 class = ""square num-button"" onclick = ""recordClick(this)""><div class = content><div class = numbers>1</div></div></button><button id = button_2 class = ""square num-button"" onclick = ""recordClick(this)""><div class = content><div class = numbers>2</div></div></button><button id = button_3 class = ""square num-button"" onclick = ""recordClick(this)""><div class = content><div class = numbers>3</div></div></button><button id = button_4 class = ""square num-button"" onclick = ""recordClick(this)""><div class = content><div class = numbers>4</div></div></button><button id = button_5 class = ""square num-button"" onclick = ""recordClick(this)""><div class = content><div class = numbers>5</div></div></button><button id = button_6 class = ""square num-button"" onclick = ""recordClick(this)""><div class = content><div class = numbers>6</div></div></button><button id = button_7 class = ""square num-button"" onclick = ""recordClick(this)""><div class = content><div class = numbers>7</div></div></button><button id = button_8 class = ""square num-button"" onclick = ""recordClick(this)""><div class = content><div class = numbers>8</div></div></button><button id = button_9 class = ""square num-button"" onclick = ""recordClick(this)""><div class = content><div class = numbers>9</div></div></button><button class = clear_button id = ""ClearButton"" onclick = ""clearResponse()"">Clear</button><p><u><b>Current Answer:</b></u></p><div id=echoed_txt style=""font-size: 6rem; color:blue;""><b></b></div></div><br><br><br><br><br><br><br>",enter,fwdspan,response,iB6k7RY6EDOrNURi2WYPpNCpev32,html-keyboard-response,85,332512,0.0-7.0-2.6-0.6-3.6,6.0,"[8,6,7,4,5,9]","[8,6,7,4,5,9]",1.0,"[3, 4, 5, 6, 7, 7, 6, 7, 7, 6, 6, 7]",,5b6b2c3156558d0001678ffc,1:09:40 PM,1/15/2024
,,,fwdspan,update_span,iB6k7RY6EDOrNURi2WYPpNCpev32,call-function,86,332774,0.0-7.0-2.6-0.6-4.6,,,,,,,5b6b2c3156558d0001678ffc,1:09:40 PM,1/15/2024
1290.199999988079,"<p style=""font-size:3rem"">Trial 8 of 12</p><br><br><br>",0,fwdspan,start_trial,iB6k7RY6EDOrNURi2WYPpNCpev32,html-button-response,87,334065,0.0-7.0-2.7-0.7-0.7,,,,,,,5b6b2c3156558d0001678ffc,1:09:40 PM,1/15/2024
,"<p style=""font-size:14rem;font-weight:400;"">8</p>",,fwdspan,number,iB6k7RY6EDOrNURi2WYPpNCpev32,html-keyboard-response,88,335091,0.0-7.0-2.7-0.7-1.38-0.38,,,,,,,5b6b2c3156558d0001678ffc,1:09:40 PM,1/15/2024
,"<p style=""font-size:14rem;font-weight:400;"">1</p>",,fwdspan,number,iB6k7RY6EDOrNURi2WYPpNCpev32,html-keyboard-response,89,336118,0.0-7.0-2.7-0.7-1.39-0.39,,,,,,,5b6b2c3156558d0001678ffc,1:09:40 PM,1/15/2024
,"<p style=""font-size:14rem;font-weight:400;"">6</p>",,fwdspan,number,iB6k7RY6EDOrNURi2WYPpNCpev32,html-keyboard-response,90,337145,0.0-7.0-2.7-0.7-1.40-0.40,,,,,,,5b6b2c3156558d0001678ffc,1:09:40 PM,1/15/2024
,"<p style=""font-size:14rem;font-weight:400;"">2</p>",,fwdspan,number,iB6k7RY6EDOrNURi2WYPpNCpev32,html-keyboard-response,91,338173,0.0-7.0-2.7-0.7-1.41-0.41,,,,,,,5b6b2c3156558d0001678ffc,1:09:40 PM,1/15/2024
,"<p style=""font-size:14rem;font-weight:400;"">3</p>",,fwdspan,number,iB6k7RY6EDOrNURi2WYPpNCpev32,html-keyboard-response,92,339175,0.0-7.0-2.7-0.7-1.42-0.42,,,,,,,5b6b2c3156558d0001678ffc,1:09:40 PM,1/15/2024
,"<p style=""font-size:14rem;font-weight:400;"">9</p>",,fwdspan,number,iB6k7RY6EDOrNURi2WYPpNCpev32,html-keyboard-response,93,340201,0.0-7.0-2.7-0.7-1.43-0.43,,,,,,,5b6b2c3156558d0001678ffc,1:09:40 PM,1/15/2024
,"<p style=""font-size:14rem;font-weight:400;"">7</p>",,fwdspan,number,iB6k7RY6EDOrNURi2WYPpNCpev32,html-keyboard-response,94,341215,0.0-7.0-2.7-0.7-1.44-0.44,,,,,,,5b6b2c3156558d0001678ffc,1:09:40 PM,1/15/2024
,[],,fwdspan,delay,iB6k7RY6EDOrNURi2WYPpNCpev32,html-keyboard-response,95,341766,0.0-7.0-2.7-0.7-2.7,,,,,,,5b6b2c3156558d0001678ffc,1:09:40 PM,1/15/2024
6534.199999988079,"<div class = numbox><p style=""font-size:2.5rem"">What were the numbers <b>in order</b>?<br>(When you are ready to lock in your answer, press <b>ENTER</b>)</p><button id = button_1 class = ""square num-button"" onclick = ""recordClick(this)""><div class = content><div class = numbers>1</div></div></button><button id = button_2 class = ""square num-button"" onclick = ""recordClick(this)""><div class = content><div class = numbers>2</div></div></button><button id = button_3 class = ""square num-button"" onclick = ""recordClick(this)""><div class = content><div class = numbers>3</div></div></button><button id = button_4 class = ""square num-button"" onclick = ""recordClick(this)""><div class = content><div class = numbers>4</div></div></button><button id = button_5 class = ""square num-button"" onclick = ""recordClick(this)""><div class = content><div class = numbers>5</div></div></button><button id = button_6 class = ""square num-button"" onclick = ""recordClick(this)""><div class = content><div class = numbers>6</div></div></button><button id = button_7 class = ""square num-button"" onclick = ""recordClick(this)""><div class = content><div class = numbers>7</div></div></button><button id = button_8 class = ""square num-button"" onclick = ""recordClick(this)""><div class = content><div class = numbers>8</div></div></button><button id = button_9 class = ""square num-button"" onclick = ""recordClick(this)""><div class = content><div class = numbers>9</div></div></button><button class = clear_button id = ""ClearButton"" onclick = ""clearResponse()"">Clear</button><p><u><b>Current Answer:</b></u></p><div id=echoed_txt style=""font-size: 6rem; color:blue;""><b></b></div></div><br><br><br><br><br><br><br>",enter,fwdspan,response,iB6k7RY6EDOrNURi2WYPpNCpev32,html-keyboard-response,96,348301,0.0-7.0-2.7-0.7-3.7,7.0,"[8,1,6,2,9,7,8]","[8,1,6,2,3,9,7]",0.0,"[3, 4, 5, 6, 7, 7, 6, 7, 7, 6, 6, 7]",,5b6b2c3156558d0001678ffc,1:09:40 PM,1/15/2024
,,,fwdspan,update_span,iB6k7RY6EDOrNURi2WYPpNCpev32,call-function,97,348556,0.0-7.0-2.7-0.7-4.7,,,,,,,5b6b2c3156558d0001678ffc,1:09:40 PM,1/15/2024
1871.800000011921,"<p style=""font-size:3rem"">Trial 9 of 12</p><br><br><br>",0,fwdspan,start_trial,iB6k7RY6EDOrNURi2WYPpNCpev32,html-button-response,98,350429,0.0-7.0-2.8-0.8-0.8,,,,,,,5b6b2c3156558d0001678ffc,1:09:40 PM,1/15/2024
,"<p style=""font-size:14rem;font-weight:400;"">7</p>",,fwdspan,number,iB6k7RY6EDOrNURi2WYPpNCpev32,html-keyboard-response,99,351442,0.0-7.0-2.8-0.8-1.45-0.45,,,,,,,5b6b2c3156558d0001678ffc,1:09:40 PM,1/15/2024
,"<p style=""font-size:14rem;font-weight:400;"">8</p>",,fwdspan,number,iB6k7RY6EDOrNURi2WYPpNCpev32,html-keyboard-response,100,352462,0.0-7.0-2.8-0.8-1.46-0.46,,,,,,,5b6b2c3156558d0001678ffc,1:09:40 PM,1/15/2024
,"<p style=""font-size:14rem;font-weight:400;"">1</p>",,fwdspan,number,iB6k7RY6EDOrNURi2WYPpNCpev32,html-keyboard-response,101,353489,0.0-7.0-2.8-0.8-1.47-0.47,,,,,,,5b6b2c3156558d0001678ffc,1:09:40 PM,1/15/2024
,"<p style=""font-size:14rem;font-weight:400;"">6</p>",,fwdspan,number,iB6k7RY6EDOrNURi2WYPpNCpev32,html-keyboard-response,102,354518,0.0-7.0-2.8-0.8-1.48-0.48,,,,,,,5b6b2c3156558d0001678ffc,1:09:40 PM,1/15/2024
,"<p style=""font-size:14rem;font-weight:400;"">5</p>",,fwdspan,number,iB6k7RY6EDOrNURi2WYPpNCpev32,html-keyboard-response,103,355546,0.0-7.0-2.8-0.8-1.49-0.49,,,,,,,5b6b2c3156558d0001678ffc,1:09:40 PM,1/15/2024
,"<p style=""font-size:14rem;font-weight:400;"">3</p>",,fwdspan,number,iB6k7RY6EDOrNURi2WYPpNCpev32,html-keyboard-response,104,356574,0.0-7.0-2.8-0.8-1.50-0.50,,,,,,,5b6b2c3156558d0001678ffc,1:09:40 PM,1/15/2024
,"<p style=""font-size:14rem;font-weight:400;"">4</p>",,fwdspan,number,iB6k7RY6EDOrNURi2WYPpNCpev32,html-keyboard-response,105,357601,0.0-7.0-2.8-0.8-1.51-0.51,,,,,,,5b6b2c3156558d0001678ffc,1:09:40 PM,1/15/2024
,[],,fwdspan,delay,iB6k7RY6EDOrNURi2WYPpNCpev32,html-keyboard-response,106,358167,0.0-7.0-2.8-0.8-2.8,,,,,,,5b6b2c3156558d0001678ffc,1:09:40 PM,1/15/2024
6597.699999988079,"<div class = numbox><p style=""font-size:2.5rem"">What were the numbers <b>in order</b>?<br>(When you are ready to lock in your answer, press <b>ENTER</b>)</p><button id = button_1 class = ""square num-button"" onclick = ""recordClick(this)""><div class = content><div class = numbers>1</div></div></button><button id = button_2 class = ""square num-button"" onclick = ""recordClick(this)""><div class = content><div class = numbers>2</div></div></button><button id = button_3 class = ""square num-button"" onclick = ""recordClick(this)""><div class = content><div class = numbers>3</div></div></button><button id = button_4 class = ""square num-button"" onclick = ""recordClick(this)""><div class = content><div class = numbers>4</div></div></button><button id = button_5 class = ""square num-button"" onclick = ""recordClick(this)""><div class = content><div class = numbers>5</div></div></button><button id = button_6 class = ""square num-button"" onclick = ""recordClick(this)""><div class = content><div class = numbers>6</div></div></button><button id = button_7 class = ""square num-button"" onclick = ""recordClick(this)""><div class = content><div class = numbers>7</div></div></button><button id = button_8 class = ""square num-button"" onclick = ""recordClick(this)""><div class = content><div class = numbers>8</div></div></button><button id = button_9 class = ""square num-button"" onclick = ""recordClick(this)""><div class = content><div class = numbers>9</div></div></button><button class = clear_button id = ""ClearButton"" onclick = ""clearResponse()"">Clear</button><p><u><b>Current Answer:</b></u></p><div id=echoed_txt style=""font-size: 6rem; color:blue;""><b></b></div></div><br><br><br><br><br><br><br>",enter,fwdspan,response,iB6k7RY6EDOrNURi2WYPpNCpev32,html-keyboard-response,107,364765,0.0-7.0-2.8-0.8-3.8,7.0,"[7,8,1,6,8,2]","[7,8,1,6,5,3,4]",0.0,"[3, 4, 5, 6, 7, 7, 6, 7, 7, 6, 6, 7]",,5b6b2c3156558d0001678ffc,1:09:40 PM,1/15/2024
,,,fwdspan,update_span,iB6k7RY6EDOrNURi2WYPpNCpev32,call-function,108,365019,0.0-7.0-2.8-0.8-4.8,,,,,,,5b6b2c3156558d0001678ffc,1:09:40 PM,1/15/2024
1044.1000000238419,"<p style=""font-size:3rem"">Trial 10 of 12</p><br><br><br>",0,fwdspan,start_trial,iB6k7RY6EDOrNURi2WYPpNCpev32,html-button-response,109,366064,0.0-7.0-2.9-0.9-0.9,,,,,,,5b6b2c3156558d0001678ffc,1:09:40 PM,1/15/2024
,"<p style=""font-size:14rem;font-weight:400;"">3</p>",,fwdspan,number,iB6k7RY6EDOrNURi2WYPpNCpev32,html-keyboard-response,110,367085,0.0-7.0-2.9-0.9-1.52-0.52,,,,,,,5b6b2c3156558d0001678ffc,1:09:40 PM,1/15/2024
,"<p style=""font-size:14rem;font-weight:400;"">7</p>",,fwdspan,number,iB6k7RY6EDOrNURi2WYPpNCpev32,html-keyboard-response,111,368107,0.0-7.0-2.9-0.9-1.53-0.53,,,,,,,5b6b2c3156558d0001678ffc,1:09:40 PM,1/15/2024
,"<p style=""font-size:14rem;font-weight:400;"">6</p>",,fwdspan,number,iB6k7RY6EDOrNURi2WYPpNCpev32,html-keyboard-response,112,369131,0.0-7.0-2.9-0.9-1.54-0.54,,,,,,,5b6b2c3156558d0001678ffc,1:09:40 PM,1/15/2024
,"<p style=""font-size:14rem;font-weight:400;"">8</p>",,fwdspan,number,iB6k7RY6EDOrNURi2WYPpNCpev32,html-keyboard-response,113,370158,0.0-7.0-2.9-0.9-1.55-0.55,,,,,,,5b6b2c3156558d0001678ffc,1:09:40 PM,1/15/2024
,"<p style=""font-size:14rem;font-weight:400;"">5</p>",,fwdspan,number,iB6k7RY6EDOrNURi2WYPpNCpev32,html-keyboard-response,114,371171,0.0-7.0-2.9-0.9-1.56-0.56,,,,,,,5b6b2c3156558d0001678ffc,1:09:40 PM,1/15/2024
,"<p style=""font-size:14rem;font-weight:400;"">9</p>",,fwdspan,number,iB6k7RY6EDOrNURi2WYPpNCpev32,html-keyboard-response,115,372197,0.0-7.0-2.9-0.9-1.57-0.57,,,,,,,5b6b2c3156558d0001678ffc,1:09:40 PM,1/15/2024
,[],,fwdspan,delay,iB6k7RY6EDOrNURi2WYPpNCpev32,html-keyboard-response,116,372749,0.0-7.0-2.9-0.9-2.9,,,,,,,5b6b2c3156558d0001678ffc,1:09:40 PM,1/15/2024
6118.400000035763,"<div class = numbox><p style=""font-size:2.5rem"">What were the numbers <b>in order</b>?<br>(When you are ready to lock in your answer, press <b>ENTER</b>)</p><button id = button_1 class = ""square num-button"" onclick = ""recordClick(this)""><div class = content><div class = numbers>1</div></div></button><button id = button_2 class = ""square num-button"" onclick = ""recordClick(this)""><div class = content><div class = numbers>2</div></div></button><button id = button_3 class = ""square num-button"" onclick = ""recordClick(this)""><div class = content><div class = numbers>3</div></div></button><button id = button_4 class = ""square num-button"" onclick = ""recordClick(this)""><div class = content><div class = numbers>4</div></div></button><button id = button_5 class = ""square num-button"" onclick = ""recordClick(this)""><div class = content><div class = numbers>5</div></div></button><button id = button_6 class = ""square num-button"" onclick = ""recordClick(this)""><div class = content><div class = numbers>6</div></div></button><button id = button_7 class = ""square num-button"" onclick = ""recordClick(this)""><div class = content><div class = numbers>7</div></div></button><button id = button_8 class = ""square num-button"" onclick = ""recordClick(this)""><div class = content><div class = numbers>8</div></div></button><button id = button_9 class = ""square num-button"" onclick = ""recordClick(this)""><div class = content><div class = numbers>9</div></div></button><button class = clear_button id = ""ClearButton"" onclick = ""clearResponse()"">Clear</button><p><u><b>Current Answer:</b></u></p><div id=echoed_txt style=""font-size: 6rem; color:blue;""><b></b></div></div><br><br><br><br><br><br><br>",enter,fwdspan,response,iB6k7RY6EDOrNURi2WYPpNCpev32,html-keyboard-response,117,378868,0.0-7.0-2.9-0.9-3.9,6.0,"[3,7,6,8,8,9]","[3,7,6,8,5,9]",0.0,"[3, 4, 5, 6, 7, 7, 6, 7, 7, 6, 6, 7]",,5b6b2c3156558d0001678ffc,1:09:40 PM,1/15/2024
,,,fwdspan,update_span,iB6k7RY6EDOrNURi2WYPpNCpev32,call-function,118,379130,0.0-7.0-2.9-0.9-4.9,,,,,,,5b6b2c3156558d0001678ffc,1:09:40 PM,1/15/2024
1437.6000000238419,"<p style=""font-size:3rem"">Trial 11 of 12</p><br><br><br>",0,fwdspan,start_trial,iB6k7RY6EDOrNURi2WYPpNCpev32,html-button-response,119,380569,0.0-7.0-2.10-0.10-0.10,,,,,,,5b6b2c3156558d0001678ffc,1:09:40 PM,1/15/2024
,"<p style=""font-size:14rem;font-weight:400;"">3</p>",,fwdspan,number,iB6k7RY6EDOrNURi2WYPpNCpev32,html-keyboard-response,120,381575,0.0-7.0-2.10-0.10-1.58-0.58,,,,,,,5b6b2c3156558d0001678ffc,1:09:40 PM,1/15/2024
,"<p style=""font-size:14rem;font-weight:400;"">4</p>",,fwdspan,number,iB6k7RY6EDOrNURi2WYPpNCpev32,html-keyboard-response,121,382600,0.0-7.0-2.10-0.10-1.59-0.59,,,,,,,5b6b2c3156558d0001678ffc,1:09:40 PM,1/15/2024
,"<p style=""font-size:14rem;font-weight:400;"">5</p>",,fwdspan,number,iB6k7RY6EDOrNURi2WYPpNCpev32,html-keyboard-response,122,383627,0.0-7.0-2.10-0.10-1.60-0.60,,,,,,,5b6b2c3156558d0001678ffc,1:09:40 PM,1/15/2024
,"<p style=""font-size:14rem;font-weight:400;"">7</p>",,fwdspan,number,iB6k7RY6EDOrNURi2WYPpNCpev32,html-keyboard-response,123,384657,0.0-7.0-2.10-0.10-1.61-0.61,,,,,,,5b6b2c3156558d0001678ffc,1:09:40 PM,1/15/2024
,"<p style=""font-size:14rem;font-weight:400;"">1</p>",,fwdspan,number,iB6k7RY6EDOrNURi2WYPpNCpev32,html-keyboard-response,124,385669,0.0-7.0-2.10-0.10-1.62-0.62,,,,,,,5b6b2c3156558d0001678ffc,1:09:40 PM,1/15/2024
,"<p style=""font-size:14rem;font-weight:400;"">6</p>",,fwdspan,number,iB6k7RY6EDOrNURi2WYPpNCpev32,html-keyboard-response,125,386698,0.0-7.0-2.10-0.10-1.63-0.63,,,,,,,5b6b2c3156558d0001678ffc,1:09:40 PM,1/15/2024
,[],,fwdspan,delay,iB6k7RY6EDOrNURi2WYPpNCpev32,html-keyboard-response,126,387250,0.0-7.0-2.10-0.10-2.10,,,,,,,5b6b2c3156558d0001678ffc,1:09:40 PM,1/15/2024
6210.5,"<div class = numbox><p style=""font-size:2.5rem"">What were the numbers <b>in order</b>?<br>(When you are ready to lock in your answer, press <b>ENTER</b>)</p><button id = button_1 class = ""square num-button"" onclick = ""recordClick(this)""><div class = content><div class = numbers>1</div></div></button><button id = button_2 class = ""square num-button"" onclick = ""recordClick(this)""><div class = content><div class = numbers>2</div></div></button><button id = button_3 class = ""square num-button"" onclick = ""recordClick(this)""><div class = content><div class = numbers>3</div></div></button><button id = button_4 class = ""square num-button"" onclick = ""recordClick(this)""><div class = content><div class = numbers>4</div></div></button><button id = button_5 class = ""square num-button"" onclick = ""recordClick(this)""><div class = content><div class = numbers>5</div></div></button><button id = button_6 class = ""square num-button"" onclick = ""recordClick(this)""><div class = content><div class = numbers>6</div></div></button><button id = button_7 class = ""square num-button"" onclick = ""recordClick(this)""><div class = content><div class = numbers>7</div></div></button><button id = button_8 class = ""square num-button"" onclick = ""recordClick(this)""><div class = content><div class = numbers>8</div></div></button><button id = button_9 class = ""square num-button"" onclick = ""recordClick(this)""><div class = content><div class = numbers>9</div></div></button><button class = clear_button id = ""ClearButton"" onclick = ""clearResponse()"">Clear</button><p><u><b>Current Answer:</b></u></p><div id=echoed_txt style=""font-size: 6rem; color:blue;""><b></b></div></div><br><br><br><br><br><br><br>",enter,fwdspan,response,iB6k7RY6EDOrNURi2WYPpNCpev32,html-keyboard-response,127,393461,0.0-7.0-2.10-0.10-3.10,6.0,"[3,4,5,7,1,6]","[3,4,5,7,1,6]",1.0,"[3, 4, 5, 6, 7, 7, 6, 7, 7, 6, 6, 7]",,5b6b2c3156558d0001678ffc,1:09:40 PM,1/15/2024
,,,fwdspan,update_span,iB6k7RY6EDOrNURi2WYPpNCpev32,call-function,128,393725,0.0-7.0-2.10-0.10-4.10,,,,,,,5b6b2c3156558d0001678ffc,1:09:40 PM,1/15/2024
1478.6000000238419,"<p style=""font-size:3rem"">Trial 12 of 12</p><br><br><br>",0,fwdspan,start_trial,iB6k7RY6EDOrNURi2WYPpNCpev32,html-button-response,129,395204,0.0-7.0-2.11-0.11-0.11,,,,,,,5b6b2c3156558d0001678ffc,1:09:40 PM,1/15/2024
,"<p style=""font-size:14rem;font-weight:400;"">1</p>",,fwdspan,number,iB6k7RY6EDOrNURi2WYPpNCpev32,html-keyboard-response,130,396232,0.0-7.0-2.11-0.11-1.64-0.64,,,,,,,5b6b2c3156558d0001678ffc,1:09:40 PM,1/15/2024
,"<p style=""font-size:14rem;font-weight:400;"">8</p>",,fwdspan,number,iB6k7RY6EDOrNURi2WYPpNCpev32,html-keyboard-response,131,397257,0.0-7.0-2.11-0.11-1.65-0.65,,,,,,,5b6b2c3156558d0001678ffc,1:09:40 PM,1/15/2024
,"<p style=""font-size:14rem;font-weight:400;"">4</p>",,fwdspan,number,iB6k7RY6EDOrNURi2WYPpNCpev32,html-keyboard-response,132,398270,0.0-7.0-2.11-0.11-1.66-0.66,,,,,,,5b6b2c3156558d0001678ffc,1:09:40 PM,1/15/2024
,"<p style=""font-size:14rem;font-weight:400;"">7</p>",,fwdspan,number,iB6k7RY6EDOrNURi2WYPpNCpev32,html-keyboard-response,133,399298,0.0-7.0-2.11-0.11-1.67-0.67,,,,,,,5b6b2c3156558d0001678ffc,1:09:40 PM,1/15/2024
,"<p style=""font-size:14rem;font-weight:400;"">6</p>",,fwdspan,number,iB6k7RY6EDOrNURi2WYPpNCpev32,html-keyboard-response,134,400325,0.0-7.0-2.11-0.11-1.68-0.68,,,,,,,5b6b2c3156558d0001678ffc,1:09:40 PM,1/15/2024
,"<p style=""font-size:14rem;font-weight:400;"">3</p>",,fwdspan,number,iB6k7RY6EDOrNURi2WYPpNCpev32,html-keyboard-response,135,401350,0.0-7.0-2.11-0.11-1.69-0.69,,,,,,,5b6b2c3156558d0001678ffc,1:09:40 PM,1/15/2024
,"<p style=""font-size:14rem;font-weight:400;"">5</p>",,fwdspan,number,iB6k7RY6EDOrNURi2WYPpNCpev32,html-keyboard-response,136,402365,0.0-7.0-2.11-0.11-1.70-0.70,,,,,,,5b6b2c3156558d0001678ffc,1:09:40 PM,1/15/2024
,[],,fwdspan,delay,iB6k7RY6EDOrNURi2WYPpNCpev32,html-keyboard-response,137,402921,0.0-7.0-2.11-0.11-2.11,,,,,,,5b6b2c3156558d0001678ffc,1:09:40 PM,1/15/2024
6234.800000011921,"<div class = numbox><p style=""font-size:2.5rem"">What were the numbers <b>in order</b>?<br>(When you are ready to lock in your answer, press <b>ENTER</b>)</p><button id = button_1 class = ""square num-button"" onclick = ""recordClick(this)""><div class = content><div class = numbers>1</div></div></button><button id = button_2 class = ""square num-button"" onclick = ""recordClick(this)""><div class = content><div class = numbers>2</div></div></button><button id = button_3 class = ""square num-button"" onclick = ""recordClick(this)""><div class = content><div class = numbers>3</div></div></button><button id = button_4 class = ""square num-button"" onclick = ""recordClick(this)""><div class = content><div class = numbers>4</div></div></button><button id = button_5 class = ""square num-button"" onclick = ""recordClick(this)""><div class = content><div class = numbers>5</div></div></button><button id = button_6 class = ""square num-button"" onclick = ""recordClick(this)""><div class = content><div class = numbers>6</div></div></button><button id = button_7 class = ""square num-button"" onclick = ""recordClick(this)""><div class = content><div class = numbers>7</div></div></button><button id = button_8 class = ""square num-button"" onclick = ""recordClick(this)""><div class = content><div class = numbers>8</div></div></button><button id = button_9 class = ""square num-button"" onclick = ""recordClick(this)""><div class = content><div class = numbers>9</div></div></button><button class = clear_button id = ""ClearButton"" onclick = ""clearResponse()"">Clear</button><p><u><b>Current Answer:</b></u></p><div id=echoed_txt style=""font-size: 6rem; color:blue;""><b></b></div></div><br><br><br><br><br><br><br>",enter,fwdspan,response,iB6k7RY6EDOrNURi2WYPpNCpev32,html-keyboard-response,138,409156,0.0-7.0-2.11-0.11-3.11,7.0,"[1,8,4,7,6,3,4]","[1,8,4,7,6,3,5]",0.0,"[3, 4, 5, 6, 7, 7, 6, 7, 7, 6, 6, 7]",,5b6b2c3156558d0001678ffc,1:09:40 PM,1/15/2024
,,,fwdspan,update_span,iB6k7RY6EDOrNURi2WYPpNCpev32,call-function,139,409420,0.0-7.0-2.11-0.11-4.11,,,,,,,5b6b2c3156558d0001678ffc,1:09:40 PM,1/15/2024
29662.5,,{'Q0': 'Would prefer to type the numbers rather than use a mouse on the keypad you had if possible'},fwdspan,survey,iB6k7RY6EDOrNURi2WYPpNCpev32,lmdlab-survey-text,140,439843,0.0-7.0-3.0,,,,,,iB6k7RY6EDOrNURi2WYPpNCpev32,5b6b2c3156558d0001678ffc,1:09:40 PM,1/15/2024
1677.800000011921,<p><p style='font-size: 3rem'>Great work!<br><br>This completes the digit span task.</p><br><br><br>,0,fwdspan,finish,iB6k7RY6EDOrNURi2WYPpNCpev32,html-button-response,141,441523,0.0-7.0-4.0,,,,,,,5b6b2c3156558d0001678ffc,1:09:40 PM,1/15/2024
