rt,stimulus,response,exp_name,exp_stage,subjectID,trial_type,trial_index,time_elapsed,internal_node_id,span,answer,correct,correct_full,span_history,databaseID,prolificID,start_time,date
5854.39999999851,"<p style=""font-size:4rem""><br><br>In the next part today, we have a completely different short task.<br><br><br>This part involves keeping numbers in you mind. Participation takes around 5 minutes.<br><br><br></p>",0,fwdspan,instruct,7Gv4Tujr1FarDhgcvQcJqzGkBIF3,html-button-response,19,374670,0.0-7.0-0.0,,,,,,,598971de71fb500001aaa40c,2:40:21 PM,1/15/2024
11927.400000000373,"<p style=""font-size:5rem"">Welcome to the <b>digit span task</b>!<br><br></p><p style=""font-size:3.4rem""><br>On each trial, you will see a sequence of digits, followed by a delay.</p><p style=""font-size:3.4rem""><br>Then you will be asked to type them back in the same order in which they were seen.</p><p style=""font-size:3.4rem""><br><br><br>For example, if you saw the digits <b style=""color:blue;"">1</b>, <b style=""color:blue;"">2</b>, <b style=""color:blue;"">3</b>, you would respond with <b style=""color:blue;"">1</b>, <b style=""color:blue;"">2</b>, <b style=""color:blue;"">3</b></p><p style=""font-size:3.4rem""><br><br><br>To ensure the best measure of true performance for our study,<br><br>it is very important that you do not use any memory aid (e.g., pen and paper).<br><br>Please do the task solely in your head.</p><p style=""font-size:3.4rem""><br><br><br>There will be 12 total trials. Participation takes around 5 minutes.</p><br><br><br>",0,fwdspan,instruct,7Gv4Tujr1FarDhgcvQcJqzGkBIF3,html-button-response,20,386603,0.0-7.0-1.0,,,,,,,598971de71fb500001aaa40c,2:40:21 PM,1/15/2024
1915.699999999255,"<p style=""font-size:3rem"">Trial 1 of 12</p><br><br><br>",0,fwdspan,start_trial,7Gv4Tujr1FarDhgcvQcJqzGkBIF3,html-button-response,21,388532,0.0-7.0-2.0-0.0-0.0,,,,,,,598971de71fb500001aaa40c,2:40:21 PM,1/15/2024
,"<p style=""font-size:14rem;font-weight:400;"">8</p>",,fwdspan,number,7Gv4Tujr1FarDhgcvQcJqzGkBIF3,html-keyboard-response,22,389537,0.0-7.0-2.0-0.0-1.0-0.0,,,,,,,598971de71fb500001aaa40c,2:40:21 PM,1/15/2024
,"<p style=""font-size:14rem;font-weight:400;"">7</p>",,fwdspan,number,7Gv4Tujr1FarDhgcvQcJqzGkBIF3,html-keyboard-response,23,390543,0.0-7.0-2.0-0.0-1.1-0.1,,,,,,,598971de71fb500001aaa40c,2:40:21 PM,1/15/2024
,"<p style=""font-size:14rem;font-weight:400;"">5</p>",,fwdspan,number,7Gv4Tujr1FarDhgcvQcJqzGkBIF3,html-keyboard-response,24,391546,0.0-7.0-2.0-0.0-1.2-0.2,,,,,,,598971de71fb500001aaa40c,2:40:21 PM,1/15/2024
,[],,fwdspan,delay,7Gv4Tujr1FarDhgcvQcJqzGkBIF3,html-keyboard-response,25,392100,0.0-7.0-2.0-0.0-2.0,,,,,,,598971de71fb500001aaa40c,2:40:21 PM,1/15/2024
10911.699999999255,"<div class = numbox><p style=""font-size:2.5rem"">What were the numbers <b>in order</b>?<br>(When you are ready to lock in your answer, press <b>ENTER</b>)</p><button id = button_1 class = ""square num-button"" onclick = ""recordClick(this)""><div class = content><div class = numbers>1</div></div></button><button id = button_2 class = ""square num-button"" onclick = ""recordClick(this)""><div class = content><div class = numbers>2</div></div></button><button id = button_3 class = ""square num-button"" onclick = ""recordClick(this)""><div class = content><div class = numbers>3</div></div></button><button id = button_4 class = ""square num-button"" onclick = ""recordClick(this)""><div class = content><div class = numbers>4</div></div></button><button id = button_5 class = ""square num-button"" onclick = ""recordClick(this)""><div class = content><div class = numbers>5</div></div></button><button id = button_6 class = ""square num-button"" onclick = ""recordClick(this)""><div class = content><div class = numbers>6</div></div></button><button id = button_7 class = ""square num-button"" onclick = ""recordClick(this)""><div class = content><div class = numbers>7</div></div></button><button id = button_8 class = ""square num-button"" onclick = ""recordClick(this)""><div class = content><div class = numbers>8</div></div></button><button id = button_9 class = ""square num-button"" onclick = ""recordClick(this)""><div class = content><div class = numbers>9</div></div></button><button class = clear_button id = ""ClearButton"" onclick = ""clearResponse()"">Clear</button><p><u><b>Current Answer:</b></u></p><div id=echoed_txt style=""font-size: 6rem; color:blue;""><b></b></div></div><br><br><br><br><br><br><br>",enter,fwdspan,response,7Gv4Tujr1FarDhgcvQcJqzGkBIF3,html-keyboard-response,26,403017,0.0-7.0-2.0-0.0-3.0,3.0,"[8,7,5]","[8,7,5]",1.0,"[3, 4, 5, 6, 7, 7, 6, 7, 8, 9, 9, 8]",,598971de71fb500001aaa40c,2:40:21 PM,1/15/2024
,,,fwdspan,update_span,7Gv4Tujr1FarDhgcvQcJqzGkBIF3,call-function,27,403274,0.0-7.0-2.0-0.0-4.0,,,,,,,598971de71fb500001aaa40c,2:40:21 PM,1/15/2024
1978.5999999996275,"<p style=""font-size:3rem"">Trial 2 of 12</p><br><br><br>",0,fwdspan,start_trial,7Gv4Tujr1FarDhgcvQcJqzGkBIF3,html-button-response,28,405256,0.0-7.0-2.1-0.1-0.1,,,,,,,598971de71fb500001aaa40c,2:40:21 PM,1/15/2024
,"<p style=""font-size:14rem;font-weight:400;"">3</p>",,fwdspan,number,7Gv4Tujr1FarDhgcvQcJqzGkBIF3,html-keyboard-response,29,406260,0.0-7.0-2.1-0.1-1.3-0.3,,,,,,,598971de71fb500001aaa40c,2:40:21 PM,1/15/2024
,"<p style=""font-size:14rem;font-weight:400;"">7</p>",,fwdspan,number,7Gv4Tujr1FarDhgcvQcJqzGkBIF3,html-keyboard-response,30,407263,0.0-7.0-2.1-0.1-1.4-0.4,,,,,,,598971de71fb500001aaa40c,2:40:21 PM,1/15/2024
,"<p style=""font-size:14rem;font-weight:400;"">1</p>",,fwdspan,number,7Gv4Tujr1FarDhgcvQcJqzGkBIF3,html-keyboard-response,31,408266,0.0-7.0-2.1-0.1-1.5-0.5,,,,,,,598971de71fb500001aaa40c,2:40:21 PM,1/15/2024
,"<p style=""font-size:14rem;font-weight:400;"">8</p>",,fwdspan,number,7Gv4Tujr1FarDhgcvQcJqzGkBIF3,html-keyboard-response,32,409268,0.0-7.0-2.1-0.1-1.6-0.6,,,,,,,598971de71fb500001aaa40c,2:40:21 PM,1/15/2024
,[],,fwdspan,delay,7Gv4Tujr1FarDhgcvQcJqzGkBIF3,html-keyboard-response,33,409821,0.0-7.0-2.1-0.1-2.1,,,,,,,598971de71fb500001aaa40c,2:40:21 PM,1/15/2024
5645.299999998882,"<div class = numbox><p style=""font-size:2.5rem"">What were the numbers <b>in order</b>?<br>(When you are ready to lock in your answer, press <b>ENTER</b>)</p><button id = button_1 class = ""square num-button"" onclick = ""recordClick(this)""><div class = content><div class = numbers>1</div></div></button><button id = button_2 class = ""square num-button"" onclick = ""recordClick(this)""><div class = content><div class = numbers>2</div></div></button><button id = button_3 class = ""square num-button"" onclick = ""recordClick(this)""><div class = content><div class = numbers>3</div></div></button><button id = button_4 class = ""square num-button"" onclick = ""recordClick(this)""><div class = content><div class = numbers>4</div></div></button><button id = button_5 class = ""square num-button"" onclick = ""recordClick(this)""><div class = content><div class = numbers>5</div></div></button><button id = button_6 class = ""square num-button"" onclick = ""recordClick(this)""><div class = content><div class = numbers>6</div></div></button><button id = button_7 class = ""square num-button"" onclick = ""recordClick(this)""><div class = content><div class = numbers>7</div></div></button><button id = button_8 class = ""square num-button"" onclick = ""recordClick(this)""><div class = content><div class = numbers>8</div></div></button><button id = button_9 class = ""square num-button"" onclick = ""recordClick(this)""><div class = content><div class = numbers>9</div></div></button><button class = clear_button id = ""ClearButton"" onclick = ""clearResponse()"">Clear</button><p><u><b>Current Answer:</b></u></p><div id=echoed_txt style=""font-size: 6rem; color:blue;""><b></b></div></div><br><br><br><br><br><br><br>",enter,fwdspan,response,7Gv4Tujr1FarDhgcvQcJqzGkBIF3,html-keyboard-response,34,415473,0.0-7.0-2.1-0.1-3.1,4.0,"[3,7,1,8]","[3,7,1,8]",1.0,"[3, 4, 5, 6, 7, 7, 6, 7, 8, 9, 9, 8]",,598971de71fb500001aaa40c,2:40:21 PM,1/15/2024
,,,fwdspan,update_span,7Gv4Tujr1FarDhgcvQcJqzGkBIF3,call-function,35,415727,0.0-7.0-2.1-0.1-4.1,,,,,,,598971de71fb500001aaa40c,2:40:21 PM,1/15/2024
1710.800000000745,"<p style=""font-size:3rem"">Trial 3 of 12</p><br><br><br>",0,fwdspan,start_trial,7Gv4Tujr1FarDhgcvQcJqzGkBIF3,html-button-response,36,417442,0.0-7.0-2.2-0.2-0.2,,,,,,,598971de71fb500001aaa40c,2:40:21 PM,1/15/2024
,"<p style=""font-size:14rem;font-weight:400;"">7</p>",,fwdspan,number,7Gv4Tujr1FarDhgcvQcJqzGkBIF3,html-keyboard-response,37,418445,0.0-7.0-2.2-0.2-1.7-0.7,,,,,,,598971de71fb500001aaa40c,2:40:21 PM,1/15/2024
,"<p style=""font-size:14rem;font-weight:400;"">1</p>",,fwdspan,number,7Gv4Tujr1FarDhgcvQcJqzGkBIF3,html-keyboard-response,38,419449,0.0-7.0-2.2-0.2-1.8-0.8,,,,,,,598971de71fb500001aaa40c,2:40:21 PM,1/15/2024
,"<p style=""font-size:14rem;font-weight:400;"">5</p>",,fwdspan,number,7Gv4Tujr1FarDhgcvQcJqzGkBIF3,html-keyboard-response,39,420452,0.0-7.0-2.2-0.2-1.9-0.9,,,,,,,598971de71fb500001aaa40c,2:40:21 PM,1/15/2024
,"<p style=""font-size:14rem;font-weight:400;"">6</p>",,fwdspan,number,7Gv4Tujr1FarDhgcvQcJqzGkBIF3,html-keyboard-response,40,421455,0.0-7.0-2.2-0.2-1.10-0.10,,,,,,,598971de71fb500001aaa40c,2:40:21 PM,1/15/2024
,"<p style=""font-size:14rem;font-weight:400;"">4</p>",,fwdspan,number,7Gv4Tujr1FarDhgcvQcJqzGkBIF3,html-keyboard-response,41,422458,0.0-7.0-2.2-0.2-1.11-0.11,,,,,,,598971de71fb500001aaa40c,2:40:21 PM,1/15/2024
,[],,fwdspan,delay,7Gv4Tujr1FarDhgcvQcJqzGkBIF3,html-keyboard-response,42,423011,0.0-7.0-2.2-0.2-2.2,,,,,,,598971de71fb500001aaa40c,2:40:21 PM,1/15/2024
5962.0999999996275,"<div class = numbox><p style=""font-size:2.5rem"">What were the numbers <b>in order</b>?<br>(When you are ready to lock in your answer, press <b>ENTER</b>)</p><button id = button_1 class = ""square num-button"" onclick = ""recordClick(this)""><div class = content><div class = numbers>1</div></div></button><button id = button_2 class = ""square num-button"" onclick = ""recordClick(this)""><div class = content><div class = numbers>2</div></div></button><button id = button_3 class = ""square num-button"" onclick = ""recordClick(this)""><div class = content><div class = numbers>3</div></div></button><button id = button_4 class = ""square num-button"" onclick = ""recordClick(this)""><div class = content><div class = numbers>4</div></div></button><button id = button_5 class = ""square num-button"" onclick = ""recordClick(this)""><div class = content><div class = numbers>5</div></div></button><button id = button_6 class = ""square num-button"" onclick = ""recordClick(this)""><div class = content><div class = numbers>6</div></div></button><button id = button_7 class = ""square num-button"" onclick = ""recordClick(this)""><div class = content><div class = numbers>7</div></div></button><button id = button_8 class = ""square num-button"" onclick = ""recordClick(this)""><div class = content><div class = numbers>8</div></div></button><button id = button_9 class = ""square num-button"" onclick = ""recordClick(this)""><div class = content><div class = numbers>9</div></div></button><button class = clear_button id = ""ClearButton"" onclick = ""clearResponse()"">Clear</button><p><u><b>Current Answer:</b></u></p><div id=echoed_txt style=""font-size: 6rem; color:blue;""><b></b></div></div><br><br><br><br><br><br><br>",enter,fwdspan,response,7Gv4Tujr1FarDhgcvQcJqzGkBIF3,html-keyboard-response,43,428978,0.0-7.0-2.2-0.2-3.2,5.0,"[7,1,5,6,4]","[7,1,5,6,4]",1.0,"[3, 4, 5, 6, 7, 7, 6, 7, 8, 9, 9, 8]",,598971de71fb500001aaa40c,2:40:21 PM,1/15/2024
,,,fwdspan,update_span,7Gv4Tujr1FarDhgcvQcJqzGkBIF3,call-function,44,429241,0.0-7.0-2.2-0.2-4.2,,,,,,,598971de71fb500001aaa40c,2:40:21 PM,1/15/2024
1552.4000000003725,"<p style=""font-size:3rem"">Trial 4 of 12</p><br><br><br>",0,fwdspan,start_trial,7Gv4Tujr1FarDhgcvQcJqzGkBIF3,html-button-response,45,430796,0.0-7.0-2.3-0.3-0.3,,,,,,,598971de71fb500001aaa40c,2:40:21 PM,1/15/2024
,"<p style=""font-size:14rem;font-weight:400;"">1</p>",,fwdspan,number,7Gv4Tujr1FarDhgcvQcJqzGkBIF3,html-keyboard-response,46,431799,0.0-7.0-2.3-0.3-1.12-0.12,,,,,,,598971de71fb500001aaa40c,2:40:21 PM,1/15/2024
,"<p style=""font-size:14rem;font-weight:400;"">9</p>",,fwdspan,number,7Gv4Tujr1FarDhgcvQcJqzGkBIF3,html-keyboard-response,47,432802,0.0-7.0-2.3-0.3-1.13-0.13,,,,,,,598971de71fb500001aaa40c,2:40:21 PM,1/15/2024
,"<p style=""font-size:14rem;font-weight:400;"">8</p>",,fwdspan,number,7Gv4Tujr1FarDhgcvQcJqzGkBIF3,html-keyboard-response,48,433805,0.0-7.0-2.3-0.3-1.14-0.14,,,,,,,598971de71fb500001aaa40c,2:40:21 PM,1/15/2024
,"<p style=""font-size:14rem;font-weight:400;"">4</p>",,fwdspan,number,7Gv4Tujr1FarDhgcvQcJqzGkBIF3,html-keyboard-response,49,434809,0.0-7.0-2.3-0.3-1.15-0.15,,,,,,,598971de71fb500001aaa40c,2:40:21 PM,1/15/2024
,"<p style=""font-size:14rem;font-weight:400;"">7</p>",,fwdspan,number,7Gv4Tujr1FarDhgcvQcJqzGkBIF3,html-keyboard-response,50,435812,0.0-7.0-2.3-0.3-1.16-0.16,,,,,,,598971de71fb500001aaa40c,2:40:21 PM,1/15/2024
,"<p style=""font-size:14rem;font-weight:400;"">6</p>",,fwdspan,number,7Gv4Tujr1FarDhgcvQcJqzGkBIF3,html-keyboard-response,51,436815,0.0-7.0-2.3-0.3-1.17-0.17,,,,,,,598971de71fb500001aaa40c,2:40:21 PM,1/15/2024
,[],,fwdspan,delay,7Gv4Tujr1FarDhgcvQcJqzGkBIF3,html-keyboard-response,52,437367,0.0-7.0-2.3-0.3-2.3,,,,,,,598971de71fb500001aaa40c,2:40:21 PM,1/15/2024
7520.299999998882,"<div class = numbox><p style=""font-size:2.5rem"">What were the numbers <b>in order</b>?<br>(When you are ready to lock in your answer, press <b>ENTER</b>)</p><button id = button_1 class = ""square num-button"" onclick = ""recordClick(this)""><div class = content><div class = numbers>1</div></div></button><button id = button_2 class = ""square num-button"" onclick = ""recordClick(this)""><div class = content><div class = numbers>2</div></div></button><button id = button_3 class = ""square num-button"" onclick = ""recordClick(this)""><div class = content><div class = numbers>3</div></div></button><button id = button_4 class = ""square num-button"" onclick = ""recordClick(this)""><div class = content><div class = numbers>4</div></div></button><button id = button_5 class = ""square num-button"" onclick = ""recordClick(this)""><div class = content><div class = numbers>5</div></div></button><button id = button_6 class = ""square num-button"" onclick = ""recordClick(this)""><div class = content><div class = numbers>6</div></div></button><button id = button_7 class = ""square num-button"" onclick = ""recordClick(this)""><div class = content><div class = numbers>7</div></div></button><button id = button_8 class = ""square num-button"" onclick = ""recordClick(this)""><div class = content><div class = numbers>8</div></div></button><button id = button_9 class = ""square num-button"" onclick = ""recordClick(this)""><div class = content><div class = numbers>9</div></div></button><button class = clear_button id = ""ClearButton"" onclick = ""clearResponse()"">Clear</button><p><u><b>Current Answer:</b></u></p><div id=echoed_txt style=""font-size: 6rem; color:blue;""><b></b></div></div><br><br><br><br><br><br><br>",enter,fwdspan,response,7Gv4Tujr1FarDhgcvQcJqzGkBIF3,html-keyboard-response,53,444891,0.0-7.0-2.3-0.3-3.3,6.0,"[1,9,8,4,7,6]","[1,9,8,4,7,6]",1.0,"[3, 4, 5, 6, 7, 7, 6, 7, 8, 9, 9, 8]",,598971de71fb500001aaa40c,2:40:21 PM,1/15/2024
,,,fwdspan,update_span,7Gv4Tujr1FarDhgcvQcJqzGkBIF3,call-function,54,445146,0.0-7.0-2.3-0.3-4.3,,,,,,,598971de71fb500001aaa40c,2:40:21 PM,1/15/2024
2132.5,"<p style=""font-size:3rem"">Trial 5 of 12</p><br><br><br>",0,fwdspan,start_trial,7Gv4Tujr1FarDhgcvQcJqzGkBIF3,html-button-response,55,447281,0.0-7.0-2.4-0.4-0.4,,,,,,,598971de71fb500001aaa40c,2:40:21 PM,1/15/2024
,"<p style=""font-size:14rem;font-weight:400;"">7</p>",,fwdspan,number,7Gv4Tujr1FarDhgcvQcJqzGkBIF3,html-keyboard-response,56,448285,0.0-7.0-2.4-0.4-1.18-0.18,,,,,,,598971de71fb500001aaa40c,2:40:21 PM,1/15/2024
,"<p style=""font-size:14rem;font-weight:400;"">6</p>",,fwdspan,number,7Gv4Tujr1FarDhgcvQcJqzGkBIF3,html-keyboard-response,57,449288,0.0-7.0-2.4-0.4-1.19-0.19,,,,,,,598971de71fb500001aaa40c,2:40:21 PM,1/15/2024
,"<p style=""font-size:14rem;font-weight:400;"">3</p>",,fwdspan,number,7Gv4Tujr1FarDhgcvQcJqzGkBIF3,html-keyboard-response,58,450292,0.0-7.0-2.4-0.4-1.20-0.20,,,,,,,598971de71fb500001aaa40c,2:40:21 PM,1/15/2024
,"<p style=""font-size:14rem;font-weight:400;"">1</p>",,fwdspan,number,7Gv4Tujr1FarDhgcvQcJqzGkBIF3,html-keyboard-response,59,451294,0.0-7.0-2.4-0.4-1.21-0.21,,,,,,,598971de71fb500001aaa40c,2:40:21 PM,1/15/2024
,"<p style=""font-size:14rem;font-weight:400;"">8</p>",,fwdspan,number,7Gv4Tujr1FarDhgcvQcJqzGkBIF3,html-keyboard-response,60,452297,0.0-7.0-2.4-0.4-1.22-0.22,,,,,,,598971de71fb500001aaa40c,2:40:21 PM,1/15/2024
,"<p style=""font-size:14rem;font-weight:400;"">2</p>",,fwdspan,number,7Gv4Tujr1FarDhgcvQcJqzGkBIF3,html-keyboard-response,61,453300,0.0-7.0-2.4-0.4-1.23-0.23,,,,,,,598971de71fb500001aaa40c,2:40:21 PM,1/15/2024
,"<p style=""font-size:14rem;font-weight:400;"">5</p>",,fwdspan,number,7Gv4Tujr1FarDhgcvQcJqzGkBIF3,html-keyboard-response,62,454303,0.0-7.0-2.4-0.4-1.24-0.24,,,,,,,598971de71fb500001aaa40c,2:40:21 PM,1/15/2024
,[],,fwdspan,delay,7Gv4Tujr1FarDhgcvQcJqzGkBIF3,html-keyboard-response,63,454856,0.0-7.0-2.4-0.4-2.4,,,,,,,598971de71fb500001aaa40c,2:40:21 PM,1/15/2024
10200.300000000745,"<div class = numbox><p style=""font-size:2.5rem"">What were the numbers <b>in order</b>?<br>(When you are ready to lock in your answer, press <b>ENTER</b>)</p><button id = button_1 class = ""square num-button"" onclick = ""recordClick(this)""><div class = content><div class = numbers>1</div></div></button><button id = button_2 class = ""square num-button"" onclick = ""recordClick(this)""><div class = content><div class = numbers>2</div></div></button><button id = button_3 class = ""square num-button"" onclick = ""recordClick(this)""><div class = content><div class = numbers>3</div></div></button><button id = button_4 class = ""square num-button"" onclick = ""recordClick(this)""><div class = content><div class = numbers>4</div></div></button><button id = button_5 class = ""square num-button"" onclick = ""recordClick(this)""><div class = content><div class = numbers>5</div></div></button><button id = button_6 class = ""square num-button"" onclick = ""recordClick(this)""><div class = content><div class = numbers>6</div></div></button><button id = button_7 class = ""square num-button"" onclick = ""recordClick(this)""><div class = content><div class = numbers>7</div></div></button><button id = button_8 class = ""square num-button"" onclick = ""recordClick(this)""><div class = content><div class = numbers>8</div></div></button><button id = button_9 class = ""square num-button"" onclick = ""recordClick(this)""><div class = content><div class = numbers>9</div></div></button><button class = clear_button id = ""ClearButton"" onclick = ""clearResponse()"">Clear</button><p><u><b>Current Answer:</b></u></p><div id=echoed_txt style=""font-size: 6rem; color:blue;""><b></b></div></div><br><br><br><br><br><br><br>",enter,fwdspan,response,7Gv4Tujr1FarDhgcvQcJqzGkBIF3,html-keyboard-response,64,465061,0.0-7.0-2.4-0.4-3.4,7.0,"[7,6,3,4,8,2,2]","[7,6,3,1,8,2,5]",0.0,"[3, 4, 5, 6, 7, 7, 6, 7, 8, 9, 9, 8]",,598971de71fb500001aaa40c,2:40:21 PM,1/15/2024
,,,fwdspan,update_span,7Gv4Tujr1FarDhgcvQcJqzGkBIF3,call-function,65,465316,0.0-7.0-2.4-0.4-4.4,,,,,,,598971de71fb500001aaa40c,2:40:21 PM,1/15/2024
1566.9000000003725,"<p style=""font-size:3rem"">Trial 6 of 12</p><br><br><br>",0,fwdspan,start_trial,7Gv4Tujr1FarDhgcvQcJqzGkBIF3,html-button-response,66,466885,0.0-7.0-2.5-0.5-0.5,,,,,,,598971de71fb500001aaa40c,2:40:21 PM,1/15/2024
,"<p style=""font-size:14rem;font-weight:400;"">6</p>",,fwdspan,number,7Gv4Tujr1FarDhgcvQcJqzGkBIF3,html-keyboard-response,67,467889,0.0-7.0-2.5-0.5-1.25-0.25,,,,,,,598971de71fb500001aaa40c,2:40:21 PM,1/15/2024
,"<p style=""font-size:14rem;font-weight:400;"">1</p>",,fwdspan,number,7Gv4Tujr1FarDhgcvQcJqzGkBIF3,html-keyboard-response,68,468892,0.0-7.0-2.5-0.5-1.26-0.26,,,,,,,598971de71fb500001aaa40c,2:40:21 PM,1/15/2024
,"<p style=""font-size:14rem;font-weight:400;"">2</p>",,fwdspan,number,7Gv4Tujr1FarDhgcvQcJqzGkBIF3,html-keyboard-response,69,469895,0.0-7.0-2.5-0.5-1.27-0.27,,,,,,,598971de71fb500001aaa40c,2:40:21 PM,1/15/2024
,"<p style=""font-size:14rem;font-weight:400;"">3</p>",,fwdspan,number,7Gv4Tujr1FarDhgcvQcJqzGkBIF3,html-keyboard-response,70,470898,0.0-7.0-2.5-0.5-1.28-0.28,,,,,,,598971de71fb500001aaa40c,2:40:21 PM,1/15/2024
,"<p style=""font-size:14rem;font-weight:400;"">4</p>",,fwdspan,number,7Gv4Tujr1FarDhgcvQcJqzGkBIF3,html-keyboard-response,71,471901,0.0-7.0-2.5-0.5-1.29-0.29,,,,,,,598971de71fb500001aaa40c,2:40:21 PM,1/15/2024
,"<p style=""font-size:14rem;font-weight:400;"">5</p>",,fwdspan,number,7Gv4Tujr1FarDhgcvQcJqzGkBIF3,html-keyboard-response,72,472904,0.0-7.0-2.5-0.5-1.30-0.30,,,,,,,598971de71fb500001aaa40c,2:40:21 PM,1/15/2024
,"<p style=""font-size:14rem;font-weight:400;"">9</p>",,fwdspan,number,7Gv4Tujr1FarDhgcvQcJqzGkBIF3,html-keyboard-response,73,473907,0.0-7.0-2.5-0.5-1.31-0.31,,,,,,,598971de71fb500001aaa40c,2:40:21 PM,1/15/2024
,[],,fwdspan,delay,7Gv4Tujr1FarDhgcvQcJqzGkBIF3,html-keyboard-response,74,474460,0.0-7.0-2.5-0.5-2.5,,,,,,,598971de71fb500001aaa40c,2:40:21 PM,1/15/2024
13228.0,"<div class = numbox><p style=""font-size:2.5rem"">What were the numbers <b>in order</b>?<br>(When you are ready to lock in your answer, press <b>ENTER</b>)</p><button id = button_1 class = ""square num-button"" onclick = ""recordClick(this)""><div class = content><div class = numbers>1</div></div></button><button id = button_2 class = ""square num-button"" onclick = ""recordClick(this)""><div class = content><div class = numbers>2</div></div></button><button id = button_3 class = ""square num-button"" onclick = ""recordClick(this)""><div class = content><div class = numbers>3</div></div></button><button id = button_4 class = ""square num-button"" onclick = ""recordClick(this)""><div class = content><div class = numbers>4</div></div></button><button id = button_5 class = ""square num-button"" onclick = ""recordClick(this)""><div class = content><div class = numbers>5</div></div></button><button id = button_6 class = ""square num-button"" onclick = ""recordClick(this)""><div class = content><div class = numbers>6</div></div></button><button id = button_7 class = ""square num-button"" onclick = ""recordClick(this)""><div class = content><div class = numbers>7</div></div></button><button id = button_8 class = ""square num-button"" onclick = ""recordClick(this)""><div class = content><div class = numbers>8</div></div></button><button id = button_9 class = ""square num-button"" onclick = ""recordClick(this)""><div class = content><div class = numbers>9</div></div></button><button class = clear_button id = ""ClearButton"" onclick = ""clearResponse()"">Clear</button><p><u><b>Current Answer:</b></u></p><div id=echoed_txt style=""font-size: 6rem; color:blue;""><b></b></div></div><br><br><br><br><br><br><br>",enter,fwdspan,response,7Gv4Tujr1FarDhgcvQcJqzGkBIF3,html-keyboard-response,75,487693,0.0-7.0-2.5-0.5-3.5,7.0,"[6,1,2,3,4,5,7,7]","[6,1,2,3,4,5,9]",0.0,"[3, 4, 5, 6, 7, 7, 6, 7, 8, 9, 9, 8]",,598971de71fb500001aaa40c,2:40:21 PM,1/15/2024
,,,fwdspan,update_span,7Gv4Tujr1FarDhgcvQcJqzGkBIF3,call-function,76,487952,0.0-7.0-2.5-0.5-4.5,,,,,,,598971de71fb500001aaa40c,2:40:21 PM,1/15/2024
1851.0,"<p style=""font-size:3rem"">Trial 7 of 12</p><br><br><br>",0,fwdspan,start_trial,7Gv4Tujr1FarDhgcvQcJqzGkBIF3,html-button-response,77,489805,0.0-7.0-2.6-0.6-0.6,,,,,,,598971de71fb500001aaa40c,2:40:21 PM,1/15/2024
,"<p style=""font-size:14rem;font-weight:400;"">5</p>",,fwdspan,number,7Gv4Tujr1FarDhgcvQcJqzGkBIF3,html-keyboard-response,78,490809,0.0-7.0-2.6-0.6-1.32-0.32,,,,,,,598971de71fb500001aaa40c,2:40:21 PM,1/15/2024
,"<p style=""font-size:14rem;font-weight:400;"">9</p>",,fwdspan,number,7Gv4Tujr1FarDhgcvQcJqzGkBIF3,html-keyboard-response,79,491813,0.0-7.0-2.6-0.6-1.33-0.33,,,,,,,598971de71fb500001aaa40c,2:40:21 PM,1/15/2024
,"<p style=""font-size:14rem;font-weight:400;"">4</p>",,fwdspan,number,7Gv4Tujr1FarDhgcvQcJqzGkBIF3,html-keyboard-response,80,492816,0.0-7.0-2.6-0.6-1.34-0.34,,,,,,,598971de71fb500001aaa40c,2:40:21 PM,1/15/2024
,"<p style=""font-size:14rem;font-weight:400;"">2</p>",,fwdspan,number,7Gv4Tujr1FarDhgcvQcJqzGkBIF3,html-keyboard-response,81,493819,0.0-7.0-2.6-0.6-1.35-0.35,,,,,,,598971de71fb500001aaa40c,2:40:21 PM,1/15/2024
,"<p style=""font-size:14rem;font-weight:400;"">1</p>",,fwdspan,number,7Gv4Tujr1FarDhgcvQcJqzGkBIF3,html-keyboard-response,82,494827,0.0-7.0-2.6-0.6-1.36-0.36,,,,,,,598971de71fb500001aaa40c,2:40:21 PM,1/15/2024
,"<p style=""font-size:14rem;font-weight:400;"">6</p>",,fwdspan,number,7Gv4Tujr1FarDhgcvQcJqzGkBIF3,html-keyboard-response,83,495830,0.0-7.0-2.6-0.6-1.37-0.37,,,,,,,598971de71fb500001aaa40c,2:40:21 PM,1/15/2024
,[],,fwdspan,delay,7Gv4Tujr1FarDhgcvQcJqzGkBIF3,html-keyboard-response,84,496382,0.0-7.0-2.6-0.6-2.6,,,,,,,598971de71fb500001aaa40c,2:40:21 PM,1/15/2024
7894.200000001118,"<div class = numbox><p style=""font-size:2.5rem"">What were the numbers <b>in order</b>?<br>(When you are ready to lock in your answer, press <b>ENTER</b>)</p><button id = button_1 class = ""square num-button"" onclick = ""recordClick(this)""><div class = content><div class = numbers>1</div></div></button><button id = button_2 class = ""square num-button"" onclick = ""recordClick(this)""><div class = content><div class = numbers>2</div></div></button><button id = button_3 class = ""square num-button"" onclick = ""recordClick(this)""><div class = content><div class = numbers>3</div></div></button><button id = button_4 class = ""square num-button"" onclick = ""recordClick(this)""><div class = content><div class = numbers>4</div></div></button><button id = button_5 class = ""square num-button"" onclick = ""recordClick(this)""><div class = content><div class = numbers>5</div></div></button><button id = button_6 class = ""square num-button"" onclick = ""recordClick(this)""><div class = content><div class = numbers>6</div></div></button><button id = button_7 class = ""square num-button"" onclick = ""recordClick(this)""><div class = content><div class = numbers>7</div></div></button><button id = button_8 class = ""square num-button"" onclick = ""recordClick(this)""><div class = content><div class = numbers>8</div></div></button><button id = button_9 class = ""square num-button"" onclick = ""recordClick(this)""><div class = content><div class = numbers>9</div></div></button><button class = clear_button id = ""ClearButton"" onclick = ""clearResponse()"">Clear</button><p><u><b>Current Answer:</b></u></p><div id=echoed_txt style=""font-size: 6rem; color:blue;""><b></b></div></div><br><br><br><br><br><br><br>",enter,fwdspan,response,7Gv4Tujr1FarDhgcvQcJqzGkBIF3,html-keyboard-response,85,504280,0.0-7.0-2.6-0.6-3.6,6.0,"[5,9,4,2,1,6]","[5,9,4,2,1,6]",1.0,"[3, 4, 5, 6, 7, 7, 6, 7, 8, 9, 9, 8]",,598971de71fb500001aaa40c,2:40:21 PM,1/15/2024
,,,fwdspan,update_span,7Gv4Tujr1FarDhgcvQcJqzGkBIF3,call-function,86,504538,0.0-7.0-2.6-0.6-4.6,,,,,,,598971de71fb500001aaa40c,2:40:21 PM,1/15/2024
1579.7999999988824,"<p style=""font-size:3rem"">Trial 8 of 12</p><br><br><br>",0,fwdspan,start_trial,7Gv4Tujr1FarDhgcvQcJqzGkBIF3,html-button-response,87,506120,0.0-7.0-2.7-0.7-0.7,,,,,,,598971de71fb500001aaa40c,2:40:21 PM,1/15/2024
,"<p style=""font-size:14rem;font-weight:400;"">8</p>",,fwdspan,number,7Gv4Tujr1FarDhgcvQcJqzGkBIF3,html-keyboard-response,88,507126,0.0-7.0-2.7-0.7-1.38-0.38,,,,,,,598971de71fb500001aaa40c,2:40:21 PM,1/15/2024
,"<p style=""font-size:14rem;font-weight:400;"">6</p>",,fwdspan,number,7Gv4Tujr1FarDhgcvQcJqzGkBIF3,html-keyboard-response,89,508129,0.0-7.0-2.7-0.7-1.39-0.39,,,,,,,598971de71fb500001aaa40c,2:40:21 PM,1/15/2024
,"<p style=""font-size:14rem;font-weight:400;"">3</p>",,fwdspan,number,7Gv4Tujr1FarDhgcvQcJqzGkBIF3,html-keyboard-response,90,509132,0.0-7.0-2.7-0.7-1.40-0.40,,,,,,,598971de71fb500001aaa40c,2:40:21 PM,1/15/2024
,"<p style=""font-size:14rem;font-weight:400;"">5</p>",,fwdspan,number,7Gv4Tujr1FarDhgcvQcJqzGkBIF3,html-keyboard-response,91,510134,0.0-7.0-2.7-0.7-1.41-0.41,,,,,,,598971de71fb500001aaa40c,2:40:21 PM,1/15/2024
,"<p style=""font-size:14rem;font-weight:400;"">1</p>",,fwdspan,number,7Gv4Tujr1FarDhgcvQcJqzGkBIF3,html-keyboard-response,92,511136,0.0-7.0-2.7-0.7-1.42-0.42,,,,,,,598971de71fb500001aaa40c,2:40:21 PM,1/15/2024
,"<p style=""font-size:14rem;font-weight:400;"">4</p>",,fwdspan,number,7Gv4Tujr1FarDhgcvQcJqzGkBIF3,html-keyboard-response,93,512139,0.0-7.0-2.7-0.7-1.43-0.43,,,,,,,598971de71fb500001aaa40c,2:40:21 PM,1/15/2024
,"<p style=""font-size:14rem;font-weight:400;"">9</p>",,fwdspan,number,7Gv4Tujr1FarDhgcvQcJqzGkBIF3,html-keyboard-response,94,513142,0.0-7.0-2.7-0.7-1.44-0.44,,,,,,,598971de71fb500001aaa40c,2:40:21 PM,1/15/2024
,[],,fwdspan,delay,7Gv4Tujr1FarDhgcvQcJqzGkBIF3,html-keyboard-response,95,513695,0.0-7.0-2.7-0.7-2.7,,,,,,,598971de71fb500001aaa40c,2:40:21 PM,1/15/2024
8480.199999999255,"<div class = numbox><p style=""font-size:2.5rem"">What were the numbers <b>in order</b>?<br>(When you are ready to lock in your answer, press <b>ENTER</b>)</p><button id = button_1 class = ""square num-button"" onclick = ""recordClick(this)""><div class = content><div class = numbers>1</div></div></button><button id = button_2 class = ""square num-button"" onclick = ""recordClick(this)""><div class = content><div class = numbers>2</div></div></button><button id = button_3 class = ""square num-button"" onclick = ""recordClick(this)""><div class = content><div class = numbers>3</div></div></button><button id = button_4 class = ""square num-button"" onclick = ""recordClick(this)""><div class = content><div class = numbers>4</div></div></button><button id = button_5 class = ""square num-button"" onclick = ""recordClick(this)""><div class = content><div class = numbers>5</div></div></button><button id = button_6 class = ""square num-button"" onclick = ""recordClick(this)""><div class = content><div class = numbers>6</div></div></button><button id = button_7 class = ""square num-button"" onclick = ""recordClick(this)""><div class = content><div class = numbers>7</div></div></button><button id = button_8 class = ""square num-button"" onclick = ""recordClick(this)""><div class = content><div class = numbers>8</div></div></button><button id = button_9 class = ""square num-button"" onclick = ""recordClick(this)""><div class = content><div class = numbers>9</div></div></button><button class = clear_button id = ""ClearButton"" onclick = ""clearResponse()"">Clear</button><p><u><b>Current Answer:</b></u></p><div id=echoed_txt style=""font-size: 6rem; color:blue;""><b></b></div></div><br><br><br><br><br><br><br>",enter,fwdspan,response,7Gv4Tujr1FarDhgcvQcJqzGkBIF3,html-keyboard-response,96,522179,0.0-7.0-2.7-0.7-3.7,7.0,"[8,6,3,5,1,4,9]","[8,6,3,5,1,4,9]",1.0,"[3, 4, 5, 6, 7, 7, 6, 7, 8, 9, 9, 8]",,598971de71fb500001aaa40c,2:40:21 PM,1/15/2024
,,,fwdspan,update_span,7Gv4Tujr1FarDhgcvQcJqzGkBIF3,call-function,97,522436,0.0-7.0-2.7-0.7-4.7,,,,,,,598971de71fb500001aaa40c,2:40:21 PM,1/15/2024
1411.5,"<p style=""font-size:3rem"">Trial 9 of 12</p><br><br><br>",0,fwdspan,start_trial,7Gv4Tujr1FarDhgcvQcJqzGkBIF3,html-button-response,98,523851,0.0-7.0-2.8-0.8-0.8,,,,,,,598971de71fb500001aaa40c,2:40:21 PM,1/15/2024
,"<p style=""font-size:14rem;font-weight:400;"">2</p>",,fwdspan,number,7Gv4Tujr1FarDhgcvQcJqzGkBIF3,html-keyboard-response,99,524857,0.0-7.0-2.8-0.8-1.45-0.45,,,,,,,598971de71fb500001aaa40c,2:40:21 PM,1/15/2024
,"<p style=""font-size:14rem;font-weight:400;"">3</p>",,fwdspan,number,7Gv4Tujr1FarDhgcvQcJqzGkBIF3,html-keyboard-response,100,525860,0.0-7.0-2.8-0.8-1.46-0.46,,,,,,,598971de71fb500001aaa40c,2:40:21 PM,1/15/2024
,"<p style=""font-size:14rem;font-weight:400;"">8</p>",,fwdspan,number,7Gv4Tujr1FarDhgcvQcJqzGkBIF3,html-keyboard-response,101,526863,0.0-7.0-2.8-0.8-1.47-0.47,,,,,,,598971de71fb500001aaa40c,2:40:21 PM,1/15/2024
,"<p style=""font-size:14rem;font-weight:400;"">9</p>",,fwdspan,number,7Gv4Tujr1FarDhgcvQcJqzGkBIF3,html-keyboard-response,102,527866,0.0-7.0-2.8-0.8-1.48-0.48,,,,,,,598971de71fb500001aaa40c,2:40:21 PM,1/15/2024
,"<p style=""font-size:14rem;font-weight:400;"">4</p>",,fwdspan,number,7Gv4Tujr1FarDhgcvQcJqzGkBIF3,html-keyboard-response,103,528868,0.0-7.0-2.8-0.8-1.49-0.49,,,,,,,598971de71fb500001aaa40c,2:40:21 PM,1/15/2024
,"<p style=""font-size:14rem;font-weight:400;"">7</p>",,fwdspan,number,7Gv4Tujr1FarDhgcvQcJqzGkBIF3,html-keyboard-response,104,529871,0.0-7.0-2.8-0.8-1.50-0.50,,,,,,,598971de71fb500001aaa40c,2:40:21 PM,1/15/2024
,"<p style=""font-size:14rem;font-weight:400;"">1</p>",,fwdspan,number,7Gv4Tujr1FarDhgcvQcJqzGkBIF3,html-keyboard-response,105,530874,0.0-7.0-2.8-0.8-1.51-0.51,,,,,,,598971de71fb500001aaa40c,2:40:21 PM,1/15/2024
,"<p style=""font-size:14rem;font-weight:400;"">6</p>",,fwdspan,number,7Gv4Tujr1FarDhgcvQcJqzGkBIF3,html-keyboard-response,106,531877,0.0-7.0-2.8-0.8-1.52-0.52,,,,,,,598971de71fb500001aaa40c,2:40:21 PM,1/15/2024
,[],,fwdspan,delay,7Gv4Tujr1FarDhgcvQcJqzGkBIF3,html-keyboard-response,107,532430,0.0-7.0-2.8-0.8-2.8,,,,,,,598971de71fb500001aaa40c,2:40:21 PM,1/15/2024
9315.599999999627,"<div class = numbox><p style=""font-size:2.5rem"">What were the numbers <b>in order</b>?<br>(When you are ready to lock in your answer, press <b>ENTER</b>)</p><button id = button_1 class = ""square num-button"" onclick = ""recordClick(this)""><div class = content><div class = numbers>1</div></div></button><button id = button_2 class = ""square num-button"" onclick = ""recordClick(this)""><div class = content><div class = numbers>2</div></div></button><button id = button_3 class = ""square num-button"" onclick = ""recordClick(this)""><div class = content><div class = numbers>3</div></div></button><button id = button_4 class = ""square num-button"" onclick = ""recordClick(this)""><div class = content><div class = numbers>4</div></div></button><button id = button_5 class = ""square num-button"" onclick = ""recordClick(this)""><div class = content><div class = numbers>5</div></div></button><button id = button_6 class = ""square num-button"" onclick = ""recordClick(this)""><div class = content><div class = numbers>6</div></div></button><button id = button_7 class = ""square num-button"" onclick = ""recordClick(this)""><div class = content><div class = numbers>7</div></div></button><button id = button_8 class = ""square num-button"" onclick = ""recordClick(this)""><div class = content><div class = numbers>8</div></div></button><button id = button_9 class = ""square num-button"" onclick = ""recordClick(this)""><div class = content><div class = numbers>9</div></div></button><button class = clear_button id = ""ClearButton"" onclick = ""clearResponse()"">Clear</button><p><u><b>Current Answer:</b></u></p><div id=echoed_txt style=""font-size: 6rem; color:blue;""><b></b></div></div><br><br><br><br><br><br><br>",enter,fwdspan,response,7Gv4Tujr1FarDhgcvQcJqzGkBIF3,html-keyboard-response,108,541750,0.0-7.0-2.8-0.8-3.8,8.0,"[2,3,8,9,4,7,1,6]","[2,3,8,9,4,7,1,6]",1.0,"[3, 4, 5, 6, 7, 7, 6, 7, 8, 9, 9, 8]",,598971de71fb500001aaa40c,2:40:21 PM,1/15/2024
,,,fwdspan,update_span,7Gv4Tujr1FarDhgcvQcJqzGkBIF3,call-function,109,542006,0.0-7.0-2.8-0.8-4.8,,,,,,,598971de71fb500001aaa40c,2:40:21 PM,1/15/2024
1512.0999999996275,"<p style=""font-size:3rem"">Trial 10 of 12</p><br><br><br>",0,fwdspan,start_trial,7Gv4Tujr1FarDhgcvQcJqzGkBIF3,html-button-response,110,543521,0.0-7.0-2.9-0.9-0.9,,,,,,,598971de71fb500001aaa40c,2:40:21 PM,1/15/2024
,"<p style=""font-size:14rem;font-weight:400;"">8</p>",,fwdspan,number,7Gv4Tujr1FarDhgcvQcJqzGkBIF3,html-keyboard-response,111,544525,0.0-7.0-2.9-0.9-1.53-0.53,,,,,,,598971de71fb500001aaa40c,2:40:21 PM,1/15/2024
,"<p style=""font-size:14rem;font-weight:400;"">4</p>",,fwdspan,number,7Gv4Tujr1FarDhgcvQcJqzGkBIF3,html-keyboard-response,112,545529,0.0-7.0-2.9-0.9-1.54-0.54,,,,,,,598971de71fb500001aaa40c,2:40:21 PM,1/15/2024
,"<p style=""font-size:14rem;font-weight:400;"">7</p>",,fwdspan,number,7Gv4Tujr1FarDhgcvQcJqzGkBIF3,html-keyboard-response,113,546531,0.0-7.0-2.9-0.9-1.55-0.55,,,,,,,598971de71fb500001aaa40c,2:40:21 PM,1/15/2024
,"<p style=""font-size:14rem;font-weight:400;"">2</p>",,fwdspan,number,7Gv4Tujr1FarDhgcvQcJqzGkBIF3,html-keyboard-response,114,547535,0.0-7.0-2.9-0.9-1.56-0.56,,,,,,,598971de71fb500001aaa40c,2:40:21 PM,1/15/2024
,"<p style=""font-size:14rem;font-weight:400;"">6</p>",,fwdspan,number,7Gv4Tujr1FarDhgcvQcJqzGkBIF3,html-keyboard-response,115,548539,0.0-7.0-2.9-0.9-1.57-0.57,,,,,,,598971de71fb500001aaa40c,2:40:21 PM,1/15/2024
,"<p style=""font-size:14rem;font-weight:400;"">5</p>",,fwdspan,number,7Gv4Tujr1FarDhgcvQcJqzGkBIF3,html-keyboard-response,116,549541,0.0-7.0-2.9-0.9-1.58-0.58,,,,,,,598971de71fb500001aaa40c,2:40:21 PM,1/15/2024
,"<p style=""font-size:14rem;font-weight:400;"">1</p>",,fwdspan,number,7Gv4Tujr1FarDhgcvQcJqzGkBIF3,html-keyboard-response,117,550543,0.0-7.0-2.9-0.9-1.59-0.59,,,,,,,598971de71fb500001aaa40c,2:40:21 PM,1/15/2024
,"<p style=""font-size:14rem;font-weight:400;"">3</p>",,fwdspan,number,7Gv4Tujr1FarDhgcvQcJqzGkBIF3,html-keyboard-response,118,551546,0.0-7.0-2.9-0.9-1.60-0.60,,,,,,,598971de71fb500001aaa40c,2:40:21 PM,1/15/2024
,"<p style=""font-size:14rem;font-weight:400;"">9</p>",,fwdspan,number,7Gv4Tujr1FarDhgcvQcJqzGkBIF3,html-keyboard-response,119,552549,0.0-7.0-2.9-0.9-1.61-0.61,,,,,,,598971de71fb500001aaa40c,2:40:21 PM,1/15/2024
,[],,fwdspan,delay,7Gv4Tujr1FarDhgcvQcJqzGkBIF3,html-keyboard-response,120,553101,0.0-7.0-2.9-0.9-2.9,,,,,,,598971de71fb500001aaa40c,2:40:21 PM,1/15/2024
19696.099999999627,"<div class = numbox><p style=""font-size:2.5rem"">What were the numbers <b>in order</b>?<br>(When you are ready to lock in your answer, press <b>ENTER</b>)</p><button id = button_1 class = ""square num-button"" onclick = ""recordClick(this)""><div class = content><div class = numbers>1</div></div></button><button id = button_2 class = ""square num-button"" onclick = ""recordClick(this)""><div class = content><div class = numbers>2</div></div></button><button id = button_3 class = ""square num-button"" onclick = ""recordClick(this)""><div class = content><div class = numbers>3</div></div></button><button id = button_4 class = ""square num-button"" onclick = ""recordClick(this)""><div class = content><div class = numbers>4</div></div></button><button id = button_5 class = ""square num-button"" onclick = ""recordClick(this)""><div class = content><div class = numbers>5</div></div></button><button id = button_6 class = ""square num-button"" onclick = ""recordClick(this)""><div class = content><div class = numbers>6</div></div></button><button id = button_7 class = ""square num-button"" onclick = ""recordClick(this)""><div class = content><div class = numbers>7</div></div></button><button id = button_8 class = ""square num-button"" onclick = ""recordClick(this)""><div class = content><div class = numbers>8</div></div></button><button id = button_9 class = ""square num-button"" onclick = ""recordClick(this)""><div class = content><div class = numbers>9</div></div></button><button class = clear_button id = ""ClearButton"" onclick = ""clearResponse()"">Clear</button><p><u><b>Current Answer:</b></u></p><div id=echoed_txt style=""font-size: 6rem; color:blue;""><b></b></div></div><br><br><br><br><br><br><br>",enter,fwdspan,response,7Gv4Tujr1FarDhgcvQcJqzGkBIF3,html-keyboard-response,121,572801,0.0-7.0-2.9-0.9-3.9,9.0,"[8,2,7,4,6,5,1,8]","[8,4,7,2,6,5,1,3,9]",0.0,"[3, 4, 5, 6, 7, 7, 6, 7, 8, 9, 9, 8]",,598971de71fb500001aaa40c,2:40:21 PM,1/15/2024
,,,fwdspan,update_span,7Gv4Tujr1FarDhgcvQcJqzGkBIF3,call-function,122,573058,0.0-7.0-2.9-0.9-4.9,,,,,,,598971de71fb500001aaa40c,2:40:21 PM,1/15/2024
1695.0999999996275,"<p style=""font-size:3rem"">Trial 11 of 12</p><br><br><br>",0,fwdspan,start_trial,7Gv4Tujr1FarDhgcvQcJqzGkBIF3,html-button-response,123,574756,0.0-7.0-2.10-0.10-0.10,,,,,,,598971de71fb500001aaa40c,2:40:21 PM,1/15/2024
,"<p style=""font-size:14rem;font-weight:400;"">6</p>",,fwdspan,number,7Gv4Tujr1FarDhgcvQcJqzGkBIF3,html-keyboard-response,124,575761,0.0-7.0-2.10-0.10-1.62-0.62,,,,,,,598971de71fb500001aaa40c,2:40:21 PM,1/15/2024
,"<p style=""font-size:14rem;font-weight:400;"">9</p>",,fwdspan,number,7Gv4Tujr1FarDhgcvQcJqzGkBIF3,html-keyboard-response,125,576764,0.0-7.0-2.10-0.10-1.63-0.63,,,,,,,598971de71fb500001aaa40c,2:40:21 PM,1/15/2024
,"<p style=""font-size:14rem;font-weight:400;"">7</p>",,fwdspan,number,7Gv4Tujr1FarDhgcvQcJqzGkBIF3,html-keyboard-response,126,577766,0.0-7.0-2.10-0.10-1.64-0.64,,,,,,,598971de71fb500001aaa40c,2:40:21 PM,1/15/2024
,"<p style=""font-size:14rem;font-weight:400;"">4</p>",,fwdspan,number,7Gv4Tujr1FarDhgcvQcJqzGkBIF3,html-keyboard-response,127,578772,0.0-7.0-2.10-0.10-1.65-0.65,,,,,,,598971de71fb500001aaa40c,2:40:21 PM,1/15/2024
,"<p style=""font-size:14rem;font-weight:400;"">2</p>",,fwdspan,number,7Gv4Tujr1FarDhgcvQcJqzGkBIF3,html-keyboard-response,128,579775,0.0-7.0-2.10-0.10-1.66-0.66,,,,,,,598971de71fb500001aaa40c,2:40:21 PM,1/15/2024
,"<p style=""font-size:14rem;font-weight:400;"">8</p>",,fwdspan,number,7Gv4Tujr1FarDhgcvQcJqzGkBIF3,html-keyboard-response,129,580777,0.0-7.0-2.10-0.10-1.67-0.67,,,,,,,598971de71fb500001aaa40c,2:40:21 PM,1/15/2024
,"<p style=""font-size:14rem;font-weight:400;"">3</p>",,fwdspan,number,7Gv4Tujr1FarDhgcvQcJqzGkBIF3,html-keyboard-response,130,581780,0.0-7.0-2.10-0.10-1.68-0.68,,,,,,,598971de71fb500001aaa40c,2:40:21 PM,1/15/2024
,"<p style=""font-size:14rem;font-weight:400;"">5</p>",,fwdspan,number,7Gv4Tujr1FarDhgcvQcJqzGkBIF3,html-keyboard-response,131,582783,0.0-7.0-2.10-0.10-1.69-0.69,,,,,,,598971de71fb500001aaa40c,2:40:21 PM,1/15/2024
,"<p style=""font-size:14rem;font-weight:400;"">1</p>",,fwdspan,number,7Gv4Tujr1FarDhgcvQcJqzGkBIF3,html-keyboard-response,132,583785,0.0-7.0-2.10-0.10-1.70-0.70,,,,,,,598971de71fb500001aaa40c,2:40:21 PM,1/15/2024
,[],,fwdspan,delay,7Gv4Tujr1FarDhgcvQcJqzGkBIF3,html-keyboard-response,133,584339,0.0-7.0-2.10-0.10-2.10,,,,,,,598971de71fb500001aaa40c,2:40:21 PM,1/15/2024
10136.700000001118,"<div class = numbox><p style=""font-size:2.5rem"">What were the numbers <b>in order</b>?<br>(When you are ready to lock in your answer, press <b>ENTER</b>)</p><button id = button_1 class = ""square num-button"" onclick = ""recordClick(this)""><div class = content><div class = numbers>1</div></div></button><button id = button_2 class = ""square num-button"" onclick = ""recordClick(this)""><div class = content><div class = numbers>2</div></div></button><button id = button_3 class = ""square num-button"" onclick = ""recordClick(this)""><div class = content><div class = numbers>3</div></div></button><button id = button_4 class = ""square num-button"" onclick = ""recordClick(this)""><div class = content><div class = numbers>4</div></div></button><button id = button_5 class = ""square num-button"" onclick = ""recordClick(this)""><div class = content><div class = numbers>5</div></div></button><button id = button_6 class = ""square num-button"" onclick = ""recordClick(this)""><div class = content><div class = numbers>6</div></div></button><button id = button_7 class = ""square num-button"" onclick = ""recordClick(this)""><div class = content><div class = numbers>7</div></div></button><button id = button_8 class = ""square num-button"" onclick = ""recordClick(this)""><div class = content><div class = numbers>8</div></div></button><button id = button_9 class = ""square num-button"" onclick = ""recordClick(this)""><div class = content><div class = numbers>9</div></div></button><button class = clear_button id = ""ClearButton"" onclick = ""clearResponse()"">Clear</button><p><u><b>Current Answer:</b></u></p><div id=echoed_txt style=""font-size: 6rem; color:blue;""><b></b></div></div><br><br><br><br><br><br><br>",enter,fwdspan,response,7Gv4Tujr1FarDhgcvQcJqzGkBIF3,html-keyboard-response,134,594480,0.0-7.0-2.10-0.10-3.10,9.0,"[6,4,7,8,3,5]","[6,9,7,4,2,8,3,5,1]",0.0,"[3, 4, 5, 6, 7, 7, 6, 7, 8, 9, 9, 8]",,598971de71fb500001aaa40c,2:40:21 PM,1/15/2024
,,,fwdspan,update_span,7Gv4Tujr1FarDhgcvQcJqzGkBIF3,call-function,135,594735,0.0-7.0-2.10-0.10-4.10,,,,,,,598971de71fb500001aaa40c,2:40:21 PM,1/15/2024
1891.0,"<p style=""font-size:3rem"">Trial 12 of 12</p><br><br><br>",0,fwdspan,start_trial,7Gv4Tujr1FarDhgcvQcJqzGkBIF3,html-button-response,136,596628,0.0-7.0-2.11-0.11-0.11,,,,,,,598971de71fb500001aaa40c,2:40:21 PM,1/15/2024
,"<p style=""font-size:14rem;font-weight:400;"">5</p>",,fwdspan,number,7Gv4Tujr1FarDhgcvQcJqzGkBIF3,html-keyboard-response,137,597630,0.0-7.0-2.11-0.11-1.71-0.71,,,,,,,598971de71fb500001aaa40c,2:40:21 PM,1/15/2024
,"<p style=""font-size:14rem;font-weight:400;"">7</p>",,fwdspan,number,7Gv4Tujr1FarDhgcvQcJqzGkBIF3,html-keyboard-response,138,598633,0.0-7.0-2.11-0.11-1.72-0.72,,,,,,,598971de71fb500001aaa40c,2:40:21 PM,1/15/2024
,"<p style=""font-size:14rem;font-weight:400;"">9</p>",,fwdspan,number,7Gv4Tujr1FarDhgcvQcJqzGkBIF3,html-keyboard-response,139,599636,0.0-7.0-2.11-0.11-1.73-0.73,,,,,,,598971de71fb500001aaa40c,2:40:21 PM,1/15/2024
,"<p style=""font-size:14rem;font-weight:400;"">8</p>",,fwdspan,number,7Gv4Tujr1FarDhgcvQcJqzGkBIF3,html-keyboard-response,140,600639,0.0-7.0-2.11-0.11-1.74-0.74,,,,,,,598971de71fb500001aaa40c,2:40:21 PM,1/15/2024
,"<p style=""font-size:14rem;font-weight:400;"">1</p>",,fwdspan,number,7Gv4Tujr1FarDhgcvQcJqzGkBIF3,html-keyboard-response,141,601642,0.0-7.0-2.11-0.11-1.75-0.75,,,,,,,598971de71fb500001aaa40c,2:40:21 PM,1/15/2024
,"<p style=""font-size:14rem;font-weight:400;"">4</p>",,fwdspan,number,7Gv4Tujr1FarDhgcvQcJqzGkBIF3,html-keyboard-response,142,602647,0.0-7.0-2.11-0.11-1.76-0.76,,,,,,,598971de71fb500001aaa40c,2:40:21 PM,1/15/2024
,"<p style=""font-size:14rem;font-weight:400;"">2</p>",,fwdspan,number,7Gv4Tujr1FarDhgcvQcJqzGkBIF3,html-keyboard-response,143,603649,0.0-7.0-2.11-0.11-1.77-0.77,,,,,,,598971de71fb500001aaa40c,2:40:21 PM,1/15/2024
,"<p style=""font-size:14rem;font-weight:400;"">6</p>",,fwdspan,number,7Gv4Tujr1FarDhgcvQcJqzGkBIF3,html-keyboard-response,144,604652,0.0-7.0-2.11-0.11-1.78-0.78,,,,,,,598971de71fb500001aaa40c,2:40:21 PM,1/15/2024
,[],,fwdspan,delay,7Gv4Tujr1FarDhgcvQcJqzGkBIF3,html-keyboard-response,145,605205,0.0-7.0-2.11-0.11-2.11,,,,,,,598971de71fb500001aaa40c,2:40:21 PM,1/15/2024
11950.799999998882,"<div class = numbox><p style=""font-size:2.5rem"">What were the numbers <b>in order</b>?<br>(When you are ready to lock in your answer, press <b>ENTER</b>)</p><button id = button_1 class = ""square num-button"" onclick = ""recordClick(this)""><div class = content><div class = numbers>1</div></div></button><button id = button_2 class = ""square num-button"" onclick = ""recordClick(this)""><div class = content><div class = numbers>2</div></div></button><button id = button_3 class = ""square num-button"" onclick = ""recordClick(this)""><div class = content><div class = numbers>3</div></div></button><button id = button_4 class = ""square num-button"" onclick = ""recordClick(this)""><div class = content><div class = numbers>4</div></div></button><button id = button_5 class = ""square num-button"" onclick = ""recordClick(this)""><div class = content><div class = numbers>5</div></div></button><button id = button_6 class = ""square num-button"" onclick = ""recordClick(this)""><div class = content><div class = numbers>6</div></div></button><button id = button_7 class = ""square num-button"" onclick = ""recordClick(this)""><div class = content><div class = numbers>7</div></div></button><button id = button_8 class = ""square num-button"" onclick = ""recordClick(this)""><div class = content><div class = numbers>8</div></div></button><button id = button_9 class = ""square num-button"" onclick = ""recordClick(this)""><div class = content><div class = numbers>9</div></div></button><button class = clear_button id = ""ClearButton"" onclick = ""clearResponse()"">Clear</button><p><u><b>Current Answer:</b></u></p><div id=echoed_txt style=""font-size: 6rem; color:blue;""><b></b></div></div><br><br><br><br><br><br><br>",enter,fwdspan,response,7Gv4Tujr1FarDhgcvQcJqzGkBIF3,html-keyboard-response,146,617159,0.0-7.0-2.11-0.11-3.11,8.0,"[5,7,9,8,3,2,1,5]","[5,7,9,8,1,4,2,6]",0.0,"[3, 4, 5, 6, 7, 7, 6, 7, 8, 9, 9, 8]",,598971de71fb500001aaa40c,2:40:21 PM,1/15/2024
,,,fwdspan,update_span,7Gv4Tujr1FarDhgcvQcJqzGkBIF3,call-function,147,617412,0.0-7.0-2.11-0.11-4.11,,,,,,,598971de71fb500001aaa40c,2:40:21 PM,1/15/2024
20841.300000000745,,{'Q0': 'every was clear'},fwdspan,survey,7Gv4Tujr1FarDhgcvQcJqzGkBIF3,lmdlab-survey-text,148,639007,0.0-7.0-3.0,,,,,,7Gv4Tujr1FarDhgcvQcJqzGkBIF3,598971de71fb500001aaa40c,2:40:21 PM,1/15/2024
1520.5,<p><p style='font-size: 3rem'>Great work!<br><br>This completes the digit span task.</p><br><br><br>,0,fwdspan,finish,7Gv4Tujr1FarDhgcvQcJqzGkBIF3,html-button-response,149,640537,0.0-7.0-4.0,,,,,,,598971de71fb500001aaa40c,2:40:21 PM,1/15/2024
