rt,stimulus,response,exp_name,exp_stage,subjectID,trial_type,trial_index,time_elapsed,internal_node_id,span,answer,correct,correct_full,span_history,databaseID,prolificID,start_time,date
5329.899999999907,"<p style=""font-size:4rem""><br><br>In the next part today, we have a completely different short task.<br><br><br>This part involves keeping numbers in you mind. Participation takes around 5 minutes.<br><br><br></p>",0,fwdspan,instruct,CZQkZD6MOiaopjuwuPhgEaLGPz93,html-button-response,19,379000,0.0-7.0-0.0,,,,,,,57144a4cc9fbf700124c0ed5,11:20:14 AM,1/15/2024
10039.899999999907,"<p style=""font-size:5rem"">Welcome to the <b>digit span task</b>!<br><br></p><p style=""font-size:3.4rem""><br>On each trial, you will see a sequence of digits, followed by a delay.</p><p style=""font-size:3.4rem""><br>Then you will be asked to type them back in the same order in which they were seen.</p><p style=""font-size:3.4rem""><br><br><br>For example, if you saw the digits <b style=""color:blue;"">1</b>, <b style=""color:blue;"">2</b>, <b style=""color:blue;"">3</b>, you would respond with <b style=""color:blue;"">1</b>, <b style=""color:blue;"">2</b>, <b style=""color:blue;"">3</b></p><p style=""font-size:3.4rem""><br><br><br>To ensure the best measure of true performance for our study,<br><br>it is very important that you do not use any memory aid (e.g., pen and paper).<br><br>Please do the task solely in your head.</p><p style=""font-size:3.4rem""><br><br><br>There will be 12 total trials. Participation takes around 5 minutes.</p><br><br><br>",0,fwdspan,instruct,CZQkZD6MOiaopjuwuPhgEaLGPz93,html-button-response,20,389041,0.0-7.0-1.0,,,,,,,57144a4cc9fbf700124c0ed5,11:20:14 AM,1/15/2024
1582.8000000002794,"<p style=""font-size:3rem"">Trial 1 of 12</p><br><br><br>",0,fwdspan,start_trial,CZQkZD6MOiaopjuwuPhgEaLGPz93,html-button-response,21,390625,0.0-7.0-2.0-0.0-0.0,,,,,,,57144a4cc9fbf700124c0ed5,11:20:14 AM,1/15/2024
,"<p style=""font-size:14rem;font-weight:400;"">5</p>",,fwdspan,number,CZQkZD6MOiaopjuwuPhgEaLGPz93,html-keyboard-response,22,391633,0.0-7.0-2.0-0.0-1.0-0.0,,,,,,,57144a4cc9fbf700124c0ed5,11:20:14 AM,1/15/2024
,"<p style=""font-size:14rem;font-weight:400;"">7</p>",,fwdspan,number,CZQkZD6MOiaopjuwuPhgEaLGPz93,html-keyboard-response,23,392647,0.0-7.0-2.0-0.0-1.1-0.1,,,,,,,57144a4cc9fbf700124c0ed5,11:20:14 AM,1/15/2024
,"<p style=""font-size:14rem;font-weight:400;"">9</p>",,fwdspan,number,CZQkZD6MOiaopjuwuPhgEaLGPz93,html-keyboard-response,24,393665,0.0-7.0-2.0-0.0-1.2-0.2,,,,,,,57144a4cc9fbf700124c0ed5,11:20:14 AM,1/15/2024
,[],,fwdspan,delay,CZQkZD6MOiaopjuwuPhgEaLGPz93,html-keyboard-response,25,394233,0.0-7.0-2.0-0.0-2.0,,,,,,,57144a4cc9fbf700124c0ed5,11:20:14 AM,1/15/2024
3972.600000000093,"<div class = numbox><p style=""font-size:2.5rem"">What were the numbers <b>in order</b>?<br>(When you are ready to lock in your answer, press <b>ENTER</b>)</p><button id = button_1 class = ""square num-button"" onclick = ""recordClick(this)""><div class = content><div class = numbers>1</div></div></button><button id = button_2 class = ""square num-button"" onclick = ""recordClick(this)""><div class = content><div class = numbers>2</div></div></button><button id = button_3 class = ""square num-button"" onclick = ""recordClick(this)""><div class = content><div class = numbers>3</div></div></button><button id = button_4 class = ""square num-button"" onclick = ""recordClick(this)""><div class = content><div class = numbers>4</div></div></button><button id = button_5 class = ""square num-button"" onclick = ""recordClick(this)""><div class = content><div class = numbers>5</div></div></button><button id = button_6 class = ""square num-button"" onclick = ""recordClick(this)""><div class = content><div class = numbers>6</div></div></button><button id = button_7 class = ""square num-button"" onclick = ""recordClick(this)""><div class = content><div class = numbers>7</div></div></button><button id = button_8 class = ""square num-button"" onclick = ""recordClick(this)""><div class = content><div class = numbers>8</div></div></button><button id = button_9 class = ""square num-button"" onclick = ""recordClick(this)""><div class = content><div class = numbers>9</div></div></button><button class = clear_button id = ""ClearButton"" onclick = ""clearResponse()"">Clear</button><p><u><b>Current Answer:</b></u></p><div id=echoed_txt style=""font-size: 6rem; color:blue;""><b></b></div></div><br><br><br><br><br><br><br>",enter,fwdspan,response,CZQkZD6MOiaopjuwuPhgEaLGPz93,html-keyboard-response,26,398208,0.0-7.0-2.0-0.0-3.0,3.0,"[5,7,9]","[5,7,9]",1.0,"[3, 4, 5, 6, 7, 7, 6, 7, 8, 8, 7, 8]",,57144a4cc9fbf700124c0ed5,11:20:14 AM,1/15/2024
,,,fwdspan,update_span,CZQkZD6MOiaopjuwuPhgEaLGPz93,call-function,27,398467,0.0-7.0-2.0-0.0-4.0,,,,,,,57144a4cc9fbf700124c0ed5,11:20:14 AM,1/15/2024
1301.6999999997206,"<p style=""font-size:3rem"">Trial 2 of 12</p><br><br><br>",0,fwdspan,start_trial,CZQkZD6MOiaopjuwuPhgEaLGPz93,html-button-response,28,399770,0.0-7.0-2.1-0.1-0.1,,,,,,,57144a4cc9fbf700124c0ed5,11:20:14 AM,1/15/2024
,"<p style=""font-size:14rem;font-weight:400;"">3</p>",,fwdspan,number,CZQkZD6MOiaopjuwuPhgEaLGPz93,html-keyboard-response,29,400773,0.0-7.0-2.1-0.1-1.3-0.3,,,,,,,57144a4cc9fbf700124c0ed5,11:20:14 AM,1/15/2024
,"<p style=""font-size:14rem;font-weight:400;"">5</p>",,fwdspan,number,CZQkZD6MOiaopjuwuPhgEaLGPz93,html-keyboard-response,30,401788,0.0-7.0-2.1-0.1-1.4-0.4,,,,,,,57144a4cc9fbf700124c0ed5,11:20:14 AM,1/15/2024
,"<p style=""font-size:14rem;font-weight:400;"">6</p>",,fwdspan,number,CZQkZD6MOiaopjuwuPhgEaLGPz93,html-keyboard-response,31,402802,0.0-7.0-2.1-0.1-1.5-0.5,,,,,,,57144a4cc9fbf700124c0ed5,11:20:14 AM,1/15/2024
,"<p style=""font-size:14rem;font-weight:400;"">8</p>",,fwdspan,number,CZQkZD6MOiaopjuwuPhgEaLGPz93,html-keyboard-response,32,403817,0.0-7.0-2.1-0.1-1.6-0.6,,,,,,,57144a4cc9fbf700124c0ed5,11:20:14 AM,1/15/2024
,[],,fwdspan,delay,CZQkZD6MOiaopjuwuPhgEaLGPz93,html-keyboard-response,33,404377,0.0-7.0-2.1-0.1-2.1,,,,,,,57144a4cc9fbf700124c0ed5,11:20:14 AM,1/15/2024
4597.300000000279,"<div class = numbox><p style=""font-size:2.5rem"">What were the numbers <b>in order</b>?<br>(When you are ready to lock in your answer, press <b>ENTER</b>)</p><button id = button_1 class = ""square num-button"" onclick = ""recordClick(this)""><div class = content><div class = numbers>1</div></div></button><button id = button_2 class = ""square num-button"" onclick = ""recordClick(this)""><div class = content><div class = numbers>2</div></div></button><button id = button_3 class = ""square num-button"" onclick = ""recordClick(this)""><div class = content><div class = numbers>3</div></div></button><button id = button_4 class = ""square num-button"" onclick = ""recordClick(this)""><div class = content><div class = numbers>4</div></div></button><button id = button_5 class = ""square num-button"" onclick = ""recordClick(this)""><div class = content><div class = numbers>5</div></div></button><button id = button_6 class = ""square num-button"" onclick = ""recordClick(this)""><div class = content><div class = numbers>6</div></div></button><button id = button_7 class = ""square num-button"" onclick = ""recordClick(this)""><div class = content><div class = numbers>7</div></div></button><button id = button_8 class = ""square num-button"" onclick = ""recordClick(this)""><div class = content><div class = numbers>8</div></div></button><button id = button_9 class = ""square num-button"" onclick = ""recordClick(this)""><div class = content><div class = numbers>9</div></div></button><button class = clear_button id = ""ClearButton"" onclick = ""clearResponse()"">Clear</button><p><u><b>Current Answer:</b></u></p><div id=echoed_txt style=""font-size: 6rem; color:blue;""><b></b></div></div><br><br><br><br><br><br><br>",enter,fwdspan,response,CZQkZD6MOiaopjuwuPhgEaLGPz93,html-keyboard-response,34,408975,0.0-7.0-2.1-0.1-3.1,4.0,"[3,5,6,8]","[3,5,6,8]",1.0,"[3, 4, 5, 6, 7, 7, 6, 7, 8, 8, 7, 8]",,57144a4cc9fbf700124c0ed5,11:20:14 AM,1/15/2024
,,,fwdspan,update_span,CZQkZD6MOiaopjuwuPhgEaLGPz93,call-function,35,409235,0.0-7.0-2.1-0.1-4.1,,,,,,,57144a4cc9fbf700124c0ed5,11:20:14 AM,1/15/2024
1325.2000000001863,"<p style=""font-size:3rem"">Trial 3 of 12</p><br><br><br>",0,fwdspan,start_trial,CZQkZD6MOiaopjuwuPhgEaLGPz93,html-button-response,36,410561,0.0-7.0-2.2-0.2-0.2,,,,,,,57144a4cc9fbf700124c0ed5,11:20:14 AM,1/15/2024
,"<p style=""font-size:14rem;font-weight:400;"">4</p>",,fwdspan,number,CZQkZD6MOiaopjuwuPhgEaLGPz93,html-keyboard-response,37,411564,0.0-7.0-2.2-0.2-1.7-0.7,,,,,,,57144a4cc9fbf700124c0ed5,11:20:14 AM,1/15/2024
,"<p style=""font-size:14rem;font-weight:400;"">6</p>",,fwdspan,number,CZQkZD6MOiaopjuwuPhgEaLGPz93,html-keyboard-response,38,412588,0.0-7.0-2.2-0.2-1.8-0.8,,,,,,,57144a4cc9fbf700124c0ed5,11:20:14 AM,1/15/2024
,"<p style=""font-size:14rem;font-weight:400;"">9</p>",,fwdspan,number,CZQkZD6MOiaopjuwuPhgEaLGPz93,html-keyboard-response,39,413606,0.0-7.0-2.2-0.2-1.9-0.9,,,,,,,57144a4cc9fbf700124c0ed5,11:20:14 AM,1/15/2024
,"<p style=""font-size:14rem;font-weight:400;"">2</p>",,fwdspan,number,CZQkZD6MOiaopjuwuPhgEaLGPz93,html-keyboard-response,40,414620,0.0-7.0-2.2-0.2-1.10-0.10,,,,,,,57144a4cc9fbf700124c0ed5,11:20:14 AM,1/15/2024
,"<p style=""font-size:14rem;font-weight:400;"">7</p>",,fwdspan,number,CZQkZD6MOiaopjuwuPhgEaLGPz93,html-keyboard-response,41,415635,0.0-7.0-2.2-0.2-1.11-0.11,,,,,,,57144a4cc9fbf700124c0ed5,11:20:14 AM,1/15/2024
,[],,fwdspan,delay,CZQkZD6MOiaopjuwuPhgEaLGPz93,html-keyboard-response,42,416205,0.0-7.0-2.2-0.2-2.2,,,,,,,57144a4cc9fbf700124c0ed5,11:20:14 AM,1/15/2024
7064.299999999814,"<div class = numbox><p style=""font-size:2.5rem"">What were the numbers <b>in order</b>?<br>(When you are ready to lock in your answer, press <b>ENTER</b>)</p><button id = button_1 class = ""square num-button"" onclick = ""recordClick(this)""><div class = content><div class = numbers>1</div></div></button><button id = button_2 class = ""square num-button"" onclick = ""recordClick(this)""><div class = content><div class = numbers>2</div></div></button><button id = button_3 class = ""square num-button"" onclick = ""recordClick(this)""><div class = content><div class = numbers>3</div></div></button><button id = button_4 class = ""square num-button"" onclick = ""recordClick(this)""><div class = content><div class = numbers>4</div></div></button><button id = button_5 class = ""square num-button"" onclick = ""recordClick(this)""><div class = content><div class = numbers>5</div></div></button><button id = button_6 class = ""square num-button"" onclick = ""recordClick(this)""><div class = content><div class = numbers>6</div></div></button><button id = button_7 class = ""square num-button"" onclick = ""recordClick(this)""><div class = content><div class = numbers>7</div></div></button><button id = button_8 class = ""square num-button"" onclick = ""recordClick(this)""><div class = content><div class = numbers>8</div></div></button><button id = button_9 class = ""square num-button"" onclick = ""recordClick(this)""><div class = content><div class = numbers>9</div></div></button><button class = clear_button id = ""ClearButton"" onclick = ""clearResponse()"">Clear</button><p><u><b>Current Answer:</b></u></p><div id=echoed_txt style=""font-size: 6rem; color:blue;""><b></b></div></div><br><br><br><br><br><br><br>",enter,fwdspan,response,CZQkZD6MOiaopjuwuPhgEaLGPz93,html-keyboard-response,43,423271,0.0-7.0-2.2-0.2-3.2,5.0,"[4,6,9,2,7]","[4,6,9,2,7]",1.0,"[3, 4, 5, 6, 7, 7, 6, 7, 8, 8, 7, 8]",,57144a4cc9fbf700124c0ed5,11:20:14 AM,1/15/2024
,,,fwdspan,update_span,CZQkZD6MOiaopjuwuPhgEaLGPz93,call-function,44,423531,0.0-7.0-2.2-0.2-4.2,,,,,,,57144a4cc9fbf700124c0ed5,11:20:14 AM,1/15/2024
1149.7000000001863,"<p style=""font-size:3rem"">Trial 4 of 12</p><br><br><br>",0,fwdspan,start_trial,CZQkZD6MOiaopjuwuPhgEaLGPz93,html-button-response,45,424681,0.0-7.0-2.3-0.3-0.3,,,,,,,57144a4cc9fbf700124c0ed5,11:20:14 AM,1/15/2024
,"<p style=""font-size:14rem;font-weight:400;"">1</p>",,fwdspan,number,CZQkZD6MOiaopjuwuPhgEaLGPz93,html-keyboard-response,46,425698,0.0-7.0-2.3-0.3-1.12-0.12,,,,,,,57144a4cc9fbf700124c0ed5,11:20:14 AM,1/15/2024
,"<p style=""font-size:14rem;font-weight:400;"">4</p>",,fwdspan,number,CZQkZD6MOiaopjuwuPhgEaLGPz93,html-keyboard-response,47,426715,0.0-7.0-2.3-0.3-1.13-0.13,,,,,,,57144a4cc9fbf700124c0ed5,11:20:14 AM,1/15/2024
,"<p style=""font-size:14rem;font-weight:400;"">6</p>",,fwdspan,number,CZQkZD6MOiaopjuwuPhgEaLGPz93,html-keyboard-response,48,427729,0.0-7.0-2.3-0.3-1.14-0.14,,,,,,,57144a4cc9fbf700124c0ed5,11:20:14 AM,1/15/2024
,"<p style=""font-size:14rem;font-weight:400;"">8</p>",,fwdspan,number,CZQkZD6MOiaopjuwuPhgEaLGPz93,html-keyboard-response,49,428745,0.0-7.0-2.3-0.3-1.15-0.15,,,,,,,57144a4cc9fbf700124c0ed5,11:20:14 AM,1/15/2024
,"<p style=""font-size:14rem;font-weight:400;"">7</p>",,fwdspan,number,CZQkZD6MOiaopjuwuPhgEaLGPz93,html-keyboard-response,50,429760,0.0-7.0-2.3-0.3-1.16-0.16,,,,,,,57144a4cc9fbf700124c0ed5,11:20:14 AM,1/15/2024
,"<p style=""font-size:14rem;font-weight:400;"">5</p>",,fwdspan,number,CZQkZD6MOiaopjuwuPhgEaLGPz93,html-keyboard-response,51,430778,0.0-7.0-2.3-0.3-1.17-0.17,,,,,,,57144a4cc9fbf700124c0ed5,11:20:14 AM,1/15/2024
,[],,fwdspan,delay,CZQkZD6MOiaopjuwuPhgEaLGPz93,html-keyboard-response,52,431348,0.0-7.0-2.3-0.3-2.3,,,,,,,57144a4cc9fbf700124c0ed5,11:20:14 AM,1/15/2024
5969.799999999814,"<div class = numbox><p style=""font-size:2.5rem"">What were the numbers <b>in order</b>?<br>(When you are ready to lock in your answer, press <b>ENTER</b>)</p><button id = button_1 class = ""square num-button"" onclick = ""recordClick(this)""><div class = content><div class = numbers>1</div></div></button><button id = button_2 class = ""square num-button"" onclick = ""recordClick(this)""><div class = content><div class = numbers>2</div></div></button><button id = button_3 class = ""square num-button"" onclick = ""recordClick(this)""><div class = content><div class = numbers>3</div></div></button><button id = button_4 class = ""square num-button"" onclick = ""recordClick(this)""><div class = content><div class = numbers>4</div></div></button><button id = button_5 class = ""square num-button"" onclick = ""recordClick(this)""><div class = content><div class = numbers>5</div></div></button><button id = button_6 class = ""square num-button"" onclick = ""recordClick(this)""><div class = content><div class = numbers>6</div></div></button><button id = button_7 class = ""square num-button"" onclick = ""recordClick(this)""><div class = content><div class = numbers>7</div></div></button><button id = button_8 class = ""square num-button"" onclick = ""recordClick(this)""><div class = content><div class = numbers>8</div></div></button><button id = button_9 class = ""square num-button"" onclick = ""recordClick(this)""><div class = content><div class = numbers>9</div></div></button><button class = clear_button id = ""ClearButton"" onclick = ""clearResponse()"">Clear</button><p><u><b>Current Answer:</b></u></p><div id=echoed_txt style=""font-size: 6rem; color:blue;""><b></b></div></div><br><br><br><br><br><br><br>",enter,fwdspan,response,CZQkZD6MOiaopjuwuPhgEaLGPz93,html-keyboard-response,53,437319,0.0-7.0-2.3-0.3-3.3,6.0,"[1,4,6,8,7,5]","[1,4,6,8,7,5]",1.0,"[3, 4, 5, 6, 7, 7, 6, 7, 8, 8, 7, 8]",,57144a4cc9fbf700124c0ed5,11:20:14 AM,1/15/2024
,,,fwdspan,update_span,CZQkZD6MOiaopjuwuPhgEaLGPz93,call-function,54,437578,0.0-7.0-2.3-0.3-4.3,,,,,,,57144a4cc9fbf700124c0ed5,11:20:14 AM,1/15/2024
1484.7999999998137,"<p style=""font-size:3rem"">Trial 5 of 12</p><br><br><br>",0,fwdspan,start_trial,CZQkZD6MOiaopjuwuPhgEaLGPz93,html-button-response,55,439064,0.0-7.0-2.4-0.4-0.4,,,,,,,57144a4cc9fbf700124c0ed5,11:20:14 AM,1/15/2024
,"<p style=""font-size:14rem;font-weight:400;"">6</p>",,fwdspan,number,CZQkZD6MOiaopjuwuPhgEaLGPz93,html-keyboard-response,56,440071,0.0-7.0-2.4-0.4-1.18-0.18,,,,,,,57144a4cc9fbf700124c0ed5,11:20:14 AM,1/15/2024
,"<p style=""font-size:14rem;font-weight:400;"">3</p>",,fwdspan,number,CZQkZD6MOiaopjuwuPhgEaLGPz93,html-keyboard-response,57,441093,0.0-7.0-2.4-0.4-1.19-0.19,,,,,,,57144a4cc9fbf700124c0ed5,11:20:14 AM,1/15/2024
,"<p style=""font-size:14rem;font-weight:400;"">5</p>",,fwdspan,number,CZQkZD6MOiaopjuwuPhgEaLGPz93,html-keyboard-response,58,442102,0.0-7.0-2.4-0.4-1.20-0.20,,,,,,,57144a4cc9fbf700124c0ed5,11:20:14 AM,1/15/2024
,"<p style=""font-size:14rem;font-weight:400;"">4</p>",,fwdspan,number,CZQkZD6MOiaopjuwuPhgEaLGPz93,html-keyboard-response,59,443123,0.0-7.0-2.4-0.4-1.21-0.21,,,,,,,57144a4cc9fbf700124c0ed5,11:20:14 AM,1/15/2024
,"<p style=""font-size:14rem;font-weight:400;"">8</p>",,fwdspan,number,CZQkZD6MOiaopjuwuPhgEaLGPz93,html-keyboard-response,60,444141,0.0-7.0-2.4-0.4-1.22-0.22,,,,,,,57144a4cc9fbf700124c0ed5,11:20:14 AM,1/15/2024
,"<p style=""font-size:14rem;font-weight:400;"">7</p>",,fwdspan,number,CZQkZD6MOiaopjuwuPhgEaLGPz93,html-keyboard-response,61,445159,0.0-7.0-2.4-0.4-1.23-0.23,,,,,,,57144a4cc9fbf700124c0ed5,11:20:14 AM,1/15/2024
,"<p style=""font-size:14rem;font-weight:400;"">9</p>",,fwdspan,number,CZQkZD6MOiaopjuwuPhgEaLGPz93,html-keyboard-response,62,446175,0.0-7.0-2.4-0.4-1.24-0.24,,,,,,,57144a4cc9fbf700124c0ed5,11:20:14 AM,1/15/2024
,[],,fwdspan,delay,CZQkZD6MOiaopjuwuPhgEaLGPz93,html-keyboard-response,63,446746,0.0-7.0-2.4-0.4-2.4,,,,,,,57144a4cc9fbf700124c0ed5,11:20:14 AM,1/15/2024
12981.299999999814,"<div class = numbox><p style=""font-size:2.5rem"">What were the numbers <b>in order</b>?<br>(When you are ready to lock in your answer, press <b>ENTER</b>)</p><button id = button_1 class = ""square num-button"" onclick = ""recordClick(this)""><div class = content><div class = numbers>1</div></div></button><button id = button_2 class = ""square num-button"" onclick = ""recordClick(this)""><div class = content><div class = numbers>2</div></div></button><button id = button_3 class = ""square num-button"" onclick = ""recordClick(this)""><div class = content><div class = numbers>3</div></div></button><button id = button_4 class = ""square num-button"" onclick = ""recordClick(this)""><div class = content><div class = numbers>4</div></div></button><button id = button_5 class = ""square num-button"" onclick = ""recordClick(this)""><div class = content><div class = numbers>5</div></div></button><button id = button_6 class = ""square num-button"" onclick = ""recordClick(this)""><div class = content><div class = numbers>6</div></div></button><button id = button_7 class = ""square num-button"" onclick = ""recordClick(this)""><div class = content><div class = numbers>7</div></div></button><button id = button_8 class = ""square num-button"" onclick = ""recordClick(this)""><div class = content><div class = numbers>8</div></div></button><button id = button_9 class = ""square num-button"" onclick = ""recordClick(this)""><div class = content><div class = numbers>9</div></div></button><button class = clear_button id = ""ClearButton"" onclick = ""clearResponse()"">Clear</button><p><u><b>Current Answer:</b></u></p><div id=echoed_txt style=""font-size: 6rem; color:blue;""><b></b></div></div><br><br><br><br><br><br><br>",enter,fwdspan,response,CZQkZD6MOiaopjuwuPhgEaLGPz93,html-keyboard-response,64,459728,0.0-7.0-2.4-0.4-3.4,7.0,"[6,4,5,7,8,9]","[6,3,5,4,8,7,9]",0.0,"[3, 4, 5, 6, 7, 7, 6, 7, 8, 8, 7, 8]",,57144a4cc9fbf700124c0ed5,11:20:14 AM,1/15/2024
,,,fwdspan,update_span,CZQkZD6MOiaopjuwuPhgEaLGPz93,call-function,65,459993,0.0-7.0-2.4-0.4-4.4,,,,,,,57144a4cc9fbf700124c0ed5,11:20:14 AM,1/15/2024
1126.8000000002794,"<p style=""font-size:3rem"">Trial 6 of 12</p><br><br><br>",0,fwdspan,start_trial,CZQkZD6MOiaopjuwuPhgEaLGPz93,html-button-response,66,461120,0.0-7.0-2.5-0.5-0.5,,,,,,,57144a4cc9fbf700124c0ed5,11:20:14 AM,1/15/2024
,"<p style=""font-size:14rem;font-weight:400;"">9</p>",,fwdspan,number,CZQkZD6MOiaopjuwuPhgEaLGPz93,html-keyboard-response,67,462133,0.0-7.0-2.5-0.5-1.25-0.25,,,,,,,57144a4cc9fbf700124c0ed5,11:20:14 AM,1/15/2024
,"<p style=""font-size:14rem;font-weight:400;"">8</p>",,fwdspan,number,CZQkZD6MOiaopjuwuPhgEaLGPz93,html-keyboard-response,68,463148,0.0-7.0-2.5-0.5-1.26-0.26,,,,,,,57144a4cc9fbf700124c0ed5,11:20:14 AM,1/15/2024
,"<p style=""font-size:14rem;font-weight:400;"">3</p>",,fwdspan,number,CZQkZD6MOiaopjuwuPhgEaLGPz93,html-keyboard-response,69,464166,0.0-7.0-2.5-0.5-1.27-0.27,,,,,,,57144a4cc9fbf700124c0ed5,11:20:14 AM,1/15/2024
,"<p style=""font-size:14rem;font-weight:400;"">6</p>",,fwdspan,number,CZQkZD6MOiaopjuwuPhgEaLGPz93,html-keyboard-response,70,465179,0.0-7.0-2.5-0.5-1.28-0.28,,,,,,,57144a4cc9fbf700124c0ed5,11:20:14 AM,1/15/2024
,"<p style=""font-size:14rem;font-weight:400;"">7</p>",,fwdspan,number,CZQkZD6MOiaopjuwuPhgEaLGPz93,html-keyboard-response,71,466194,0.0-7.0-2.5-0.5-1.29-0.29,,,,,,,57144a4cc9fbf700124c0ed5,11:20:14 AM,1/15/2024
,"<p style=""font-size:14rem;font-weight:400;"">1</p>",,fwdspan,number,CZQkZD6MOiaopjuwuPhgEaLGPz93,html-keyboard-response,72,467211,0.0-7.0-2.5-0.5-1.30-0.30,,,,,,,57144a4cc9fbf700124c0ed5,11:20:14 AM,1/15/2024
,"<p style=""font-size:14rem;font-weight:400;"">4</p>",,fwdspan,number,CZQkZD6MOiaopjuwuPhgEaLGPz93,html-keyboard-response,73,468226,0.0-7.0-2.5-0.5-1.31-0.31,,,,,,,57144a4cc9fbf700124c0ed5,11:20:14 AM,1/15/2024
,[],,fwdspan,delay,CZQkZD6MOiaopjuwuPhgEaLGPz93,html-keyboard-response,74,468795,0.0-7.0-2.5-0.5-2.5,,,,,,,57144a4cc9fbf700124c0ed5,11:20:14 AM,1/15/2024
9940.80000000028,"<div class = numbox><p style=""font-size:2.5rem"">What were the numbers <b>in order</b>?<br>(When you are ready to lock in your answer, press <b>ENTER</b>)</p><button id = button_1 class = ""square num-button"" onclick = ""recordClick(this)""><div class = content><div class = numbers>1</div></div></button><button id = button_2 class = ""square num-button"" onclick = ""recordClick(this)""><div class = content><div class = numbers>2</div></div></button><button id = button_3 class = ""square num-button"" onclick = ""recordClick(this)""><div class = content><div class = numbers>3</div></div></button><button id = button_4 class = ""square num-button"" onclick = ""recordClick(this)""><div class = content><div class = numbers>4</div></div></button><button id = button_5 class = ""square num-button"" onclick = ""recordClick(this)""><div class = content><div class = numbers>5</div></div></button><button id = button_6 class = ""square num-button"" onclick = ""recordClick(this)""><div class = content><div class = numbers>6</div></div></button><button id = button_7 class = ""square num-button"" onclick = ""recordClick(this)""><div class = content><div class = numbers>7</div></div></button><button id = button_8 class = ""square num-button"" onclick = ""recordClick(this)""><div class = content><div class = numbers>8</div></div></button><button id = button_9 class = ""square num-button"" onclick = ""recordClick(this)""><div class = content><div class = numbers>9</div></div></button><button class = clear_button id = ""ClearButton"" onclick = ""clearResponse()"">Clear</button><p><u><b>Current Answer:</b></u></p><div id=echoed_txt style=""font-size: 6rem; color:blue;""><b></b></div></div><br><br><br><br><br><br><br>",enter,fwdspan,response,CZQkZD6MOiaopjuwuPhgEaLGPz93,html-keyboard-response,75,478737,0.0-7.0-2.5-0.5-3.5,7.0,"[9,8,3,6,7,8,4]","[9,8,3,6,7,1,4]",0.0,"[3, 4, 5, 6, 7, 7, 6, 7, 8, 8, 7, 8]",,57144a4cc9fbf700124c0ed5,11:20:14 AM,1/15/2024
,,,fwdspan,update_span,CZQkZD6MOiaopjuwuPhgEaLGPz93,call-function,76,478997,0.0-7.0-2.5-0.5-4.5,,,,,,,57144a4cc9fbf700124c0ed5,11:20:14 AM,1/15/2024
2690.7000000001863,"<p style=""font-size:3rem"">Trial 7 of 12</p><br><br><br>",0,fwdspan,start_trial,CZQkZD6MOiaopjuwuPhgEaLGPz93,html-button-response,77,481689,0.0-7.0-2.6-0.6-0.6,,,,,,,57144a4cc9fbf700124c0ed5,11:20:14 AM,1/15/2024
,"<p style=""font-size:14rem;font-weight:400;"">6</p>",,fwdspan,number,CZQkZD6MOiaopjuwuPhgEaLGPz93,html-keyboard-response,78,482703,0.0-7.0-2.6-0.6-1.32-0.32,,,,,,,57144a4cc9fbf700124c0ed5,11:20:14 AM,1/15/2024
,"<p style=""font-size:14rem;font-weight:400;"">5</p>",,fwdspan,number,CZQkZD6MOiaopjuwuPhgEaLGPz93,html-keyboard-response,79,483722,0.0-7.0-2.6-0.6-1.33-0.33,,,,,,,57144a4cc9fbf700124c0ed5,11:20:14 AM,1/15/2024
,"<p style=""font-size:14rem;font-weight:400;"">4</p>",,fwdspan,number,CZQkZD6MOiaopjuwuPhgEaLGPz93,html-keyboard-response,80,484738,0.0-7.0-2.6-0.6-1.34-0.34,,,,,,,57144a4cc9fbf700124c0ed5,11:20:14 AM,1/15/2024
,"<p style=""font-size:14rem;font-weight:400;"">1</p>",,fwdspan,number,CZQkZD6MOiaopjuwuPhgEaLGPz93,html-keyboard-response,81,485757,0.0-7.0-2.6-0.6-1.35-0.35,,,,,,,57144a4cc9fbf700124c0ed5,11:20:14 AM,1/15/2024
,"<p style=""font-size:14rem;font-weight:400;"">8</p>",,fwdspan,number,CZQkZD6MOiaopjuwuPhgEaLGPz93,html-keyboard-response,82,486773,0.0-7.0-2.6-0.6-1.36-0.36,,,,,,,57144a4cc9fbf700124c0ed5,11:20:14 AM,1/15/2024
,"<p style=""font-size:14rem;font-weight:400;"">2</p>",,fwdspan,number,CZQkZD6MOiaopjuwuPhgEaLGPz93,html-keyboard-response,83,487790,0.0-7.0-2.6-0.6-1.37-0.37,,,,,,,57144a4cc9fbf700124c0ed5,11:20:14 AM,1/15/2024
,[],,fwdspan,delay,CZQkZD6MOiaopjuwuPhgEaLGPz93,html-keyboard-response,84,488359,0.0-7.0-2.6-0.6-2.6,,,,,,,57144a4cc9fbf700124c0ed5,11:20:14 AM,1/15/2024
6517.399999999907,"<div class = numbox><p style=""font-size:2.5rem"">What were the numbers <b>in order</b>?<br>(When you are ready to lock in your answer, press <b>ENTER</b>)</p><button id = button_1 class = ""square num-button"" onclick = ""recordClick(this)""><div class = content><div class = numbers>1</div></div></button><button id = button_2 class = ""square num-button"" onclick = ""recordClick(this)""><div class = content><div class = numbers>2</div></div></button><button id = button_3 class = ""square num-button"" onclick = ""recordClick(this)""><div class = content><div class = numbers>3</div></div></button><button id = button_4 class = ""square num-button"" onclick = ""recordClick(this)""><div class = content><div class = numbers>4</div></div></button><button id = button_5 class = ""square num-button"" onclick = ""recordClick(this)""><div class = content><div class = numbers>5</div></div></button><button id = button_6 class = ""square num-button"" onclick = ""recordClick(this)""><div class = content><div class = numbers>6</div></div></button><button id = button_7 class = ""square num-button"" onclick = ""recordClick(this)""><div class = content><div class = numbers>7</div></div></button><button id = button_8 class = ""square num-button"" onclick = ""recordClick(this)""><div class = content><div class = numbers>8</div></div></button><button id = button_9 class = ""square num-button"" onclick = ""recordClick(this)""><div class = content><div class = numbers>9</div></div></button><button class = clear_button id = ""ClearButton"" onclick = ""clearResponse()"">Clear</button><p><u><b>Current Answer:</b></u></p><div id=echoed_txt style=""font-size: 6rem; color:blue;""><b></b></div></div><br><br><br><br><br><br><br>",enter,fwdspan,response,CZQkZD6MOiaopjuwuPhgEaLGPz93,html-keyboard-response,85,494878,0.0-7.0-2.6-0.6-3.6,6.0,"[6,5,4,1,8,2]","[6,5,4,1,8,2]",1.0,"[3, 4, 5, 6, 7, 7, 6, 7, 8, 8, 7, 8]",,57144a4cc9fbf700124c0ed5,11:20:14 AM,1/15/2024
,,,fwdspan,update_span,CZQkZD6MOiaopjuwuPhgEaLGPz93,call-function,86,495141,0.0-7.0-2.6-0.6-4.6,,,,,,,57144a4cc9fbf700124c0ed5,11:20:14 AM,1/15/2024
1874.6000000000931,"<p style=""font-size:3rem"">Trial 8 of 12</p><br><br><br>",0,fwdspan,start_trial,CZQkZD6MOiaopjuwuPhgEaLGPz93,html-button-response,87,497017,0.0-7.0-2.7-0.7-0.7,,,,,,,57144a4cc9fbf700124c0ed5,11:20:14 AM,1/15/2024
,"<p style=""font-size:14rem;font-weight:400;"">6</p>",,fwdspan,number,CZQkZD6MOiaopjuwuPhgEaLGPz93,html-keyboard-response,88,498033,0.0-7.0-2.7-0.7-1.38-0.38,,,,,,,57144a4cc9fbf700124c0ed5,11:20:14 AM,1/15/2024
,"<p style=""font-size:14rem;font-weight:400;"">4</p>",,fwdspan,number,CZQkZD6MOiaopjuwuPhgEaLGPz93,html-keyboard-response,89,499048,0.0-7.0-2.7-0.7-1.39-0.39,,,,,,,57144a4cc9fbf700124c0ed5,11:20:14 AM,1/15/2024
,"<p style=""font-size:14rem;font-weight:400;"">9</p>",,fwdspan,number,CZQkZD6MOiaopjuwuPhgEaLGPz93,html-keyboard-response,90,500063,0.0-7.0-2.7-0.7-1.40-0.40,,,,,,,57144a4cc9fbf700124c0ed5,11:20:14 AM,1/15/2024
,"<p style=""font-size:14rem;font-weight:400;"">8</p>",,fwdspan,number,CZQkZD6MOiaopjuwuPhgEaLGPz93,html-keyboard-response,91,501081,0.0-7.0-2.7-0.7-1.41-0.41,,,,,,,57144a4cc9fbf700124c0ed5,11:20:14 AM,1/15/2024
,"<p style=""font-size:14rem;font-weight:400;"">7</p>",,fwdspan,number,CZQkZD6MOiaopjuwuPhgEaLGPz93,html-keyboard-response,92,502098,0.0-7.0-2.7-0.7-1.42-0.42,,,,,,,57144a4cc9fbf700124c0ed5,11:20:14 AM,1/15/2024
,"<p style=""font-size:14rem;font-weight:400;"">5</p>",,fwdspan,number,CZQkZD6MOiaopjuwuPhgEaLGPz93,html-keyboard-response,93,503115,0.0-7.0-2.7-0.7-1.43-0.43,,,,,,,57144a4cc9fbf700124c0ed5,11:20:14 AM,1/15/2024
,"<p style=""font-size:14rem;font-weight:400;"">3</p>",,fwdspan,number,CZQkZD6MOiaopjuwuPhgEaLGPz93,html-keyboard-response,94,504129,0.0-7.0-2.7-0.7-1.44-0.44,,,,,,,57144a4cc9fbf700124c0ed5,11:20:14 AM,1/15/2024
,[],,fwdspan,delay,CZQkZD6MOiaopjuwuPhgEaLGPz93,html-keyboard-response,95,504689,0.0-7.0-2.7-0.7-2.7,,,,,,,57144a4cc9fbf700124c0ed5,11:20:14 AM,1/15/2024
8701.200000000186,"<div class = numbox><p style=""font-size:2.5rem"">What were the numbers <b>in order</b>?<br>(When you are ready to lock in your answer, press <b>ENTER</b>)</p><button id = button_1 class = ""square num-button"" onclick = ""recordClick(this)""><div class = content><div class = numbers>1</div></div></button><button id = button_2 class = ""square num-button"" onclick = ""recordClick(this)""><div class = content><div class = numbers>2</div></div></button><button id = button_3 class = ""square num-button"" onclick = ""recordClick(this)""><div class = content><div class = numbers>3</div></div></button><button id = button_4 class = ""square num-button"" onclick = ""recordClick(this)""><div class = content><div class = numbers>4</div></div></button><button id = button_5 class = ""square num-button"" onclick = ""recordClick(this)""><div class = content><div class = numbers>5</div></div></button><button id = button_6 class = ""square num-button"" onclick = ""recordClick(this)""><div class = content><div class = numbers>6</div></div></button><button id = button_7 class = ""square num-button"" onclick = ""recordClick(this)""><div class = content><div class = numbers>7</div></div></button><button id = button_8 class = ""square num-button"" onclick = ""recordClick(this)""><div class = content><div class = numbers>8</div></div></button><button id = button_9 class = ""square num-button"" onclick = ""recordClick(this)""><div class = content><div class = numbers>9</div></div></button><button class = clear_button id = ""ClearButton"" onclick = ""clearResponse()"">Clear</button><p><u><b>Current Answer:</b></u></p><div id=echoed_txt style=""font-size: 6rem; color:blue;""><b></b></div></div><br><br><br><br><br><br><br>",enter,fwdspan,response,CZQkZD6MOiaopjuwuPhgEaLGPz93,html-keyboard-response,96,513392,0.0-7.0-2.7-0.7-3.7,7.0,"[6,4,9,8,7,5,3]","[6,4,9,8,7,5,3]",1.0,"[3, 4, 5, 6, 7, 7, 6, 7, 8, 8, 7, 8]",,57144a4cc9fbf700124c0ed5,11:20:14 AM,1/15/2024
,,,fwdspan,update_span,CZQkZD6MOiaopjuwuPhgEaLGPz93,call-function,97,513653,0.0-7.0-2.7-0.7-4.7,,,,,,,57144a4cc9fbf700124c0ed5,11:20:14 AM,1/15/2024
1979.7000000001863,"<p style=""font-size:3rem"">Trial 9 of 12</p><br><br><br>",0,fwdspan,start_trial,CZQkZD6MOiaopjuwuPhgEaLGPz93,html-button-response,98,515633,0.0-7.0-2.8-0.8-0.8,,,,,,,57144a4cc9fbf700124c0ed5,11:20:14 AM,1/15/2024
,"<p style=""font-size:14rem;font-weight:400;"">4</p>",,fwdspan,number,CZQkZD6MOiaopjuwuPhgEaLGPz93,html-keyboard-response,99,516659,0.0-7.0-2.8-0.8-1.45-0.45,,,,,,,57144a4cc9fbf700124c0ed5,11:20:14 AM,1/15/2024
,"<p style=""font-size:14rem;font-weight:400;"">1</p>",,fwdspan,number,CZQkZD6MOiaopjuwuPhgEaLGPz93,html-keyboard-response,100,517675,0.0-7.0-2.8-0.8-1.46-0.46,,,,,,,57144a4cc9fbf700124c0ed5,11:20:14 AM,1/15/2024
,"<p style=""font-size:14rem;font-weight:400;"">3</p>",,fwdspan,number,CZQkZD6MOiaopjuwuPhgEaLGPz93,html-keyboard-response,101,518691,0.0-7.0-2.8-0.8-1.47-0.47,,,,,,,57144a4cc9fbf700124c0ed5,11:20:14 AM,1/15/2024
,"<p style=""font-size:14rem;font-weight:400;"">7</p>",,fwdspan,number,CZQkZD6MOiaopjuwuPhgEaLGPz93,html-keyboard-response,102,519708,0.0-7.0-2.8-0.8-1.48-0.48,,,,,,,57144a4cc9fbf700124c0ed5,11:20:14 AM,1/15/2024
,"<p style=""font-size:14rem;font-weight:400;"">8</p>",,fwdspan,number,CZQkZD6MOiaopjuwuPhgEaLGPz93,html-keyboard-response,103,520724,0.0-7.0-2.8-0.8-1.49-0.49,,,,,,,57144a4cc9fbf700124c0ed5,11:20:14 AM,1/15/2024
,"<p style=""font-size:14rem;font-weight:400;"">9</p>",,fwdspan,number,CZQkZD6MOiaopjuwuPhgEaLGPz93,html-keyboard-response,104,521741,0.0-7.0-2.8-0.8-1.50-0.50,,,,,,,57144a4cc9fbf700124c0ed5,11:20:14 AM,1/15/2024
,"<p style=""font-size:14rem;font-weight:400;"">2</p>",,fwdspan,number,CZQkZD6MOiaopjuwuPhgEaLGPz93,html-keyboard-response,105,522754,0.0-7.0-2.8-0.8-1.51-0.51,,,,,,,57144a4cc9fbf700124c0ed5,11:20:14 AM,1/15/2024
,"<p style=""font-size:14rem;font-weight:400;"">6</p>",,fwdspan,number,CZQkZD6MOiaopjuwuPhgEaLGPz93,html-keyboard-response,106,523769,0.0-7.0-2.8-0.8-1.52-0.52,,,,,,,57144a4cc9fbf700124c0ed5,11:20:14 AM,1/15/2024
,[],,fwdspan,delay,CZQkZD6MOiaopjuwuPhgEaLGPz93,html-keyboard-response,107,524337,0.0-7.0-2.8-0.8-2.8,,,,,,,57144a4cc9fbf700124c0ed5,11:20:14 AM,1/15/2024
8506.399999999907,"<div class = numbox><p style=""font-size:2.5rem"">What were the numbers <b>in order</b>?<br>(When you are ready to lock in your answer, press <b>ENTER</b>)</p><button id = button_1 class = ""square num-button"" onclick = ""recordClick(this)""><div class = content><div class = numbers>1</div></div></button><button id = button_2 class = ""square num-button"" onclick = ""recordClick(this)""><div class = content><div class = numbers>2</div></div></button><button id = button_3 class = ""square num-button"" onclick = ""recordClick(this)""><div class = content><div class = numbers>3</div></div></button><button id = button_4 class = ""square num-button"" onclick = ""recordClick(this)""><div class = content><div class = numbers>4</div></div></button><button id = button_5 class = ""square num-button"" onclick = ""recordClick(this)""><div class = content><div class = numbers>5</div></div></button><button id = button_6 class = ""square num-button"" onclick = ""recordClick(this)""><div class = content><div class = numbers>6</div></div></button><button id = button_7 class = ""square num-button"" onclick = ""recordClick(this)""><div class = content><div class = numbers>7</div></div></button><button id = button_8 class = ""square num-button"" onclick = ""recordClick(this)""><div class = content><div class = numbers>8</div></div></button><button id = button_9 class = ""square num-button"" onclick = ""recordClick(this)""><div class = content><div class = numbers>9</div></div></button><button class = clear_button id = ""ClearButton"" onclick = ""clearResponse()"">Clear</button><p><u><b>Current Answer:</b></u></p><div id=echoed_txt style=""font-size: 6rem; color:blue;""><b></b></div></div><br><br><br><br><br><br><br>",enter,fwdspan,response,CZQkZD6MOiaopjuwuPhgEaLGPz93,html-keyboard-response,108,532845,0.0-7.0-2.8-0.8-3.8,8.0,"[4,1,7,8,9,3,2,6]","[4,1,3,7,8,9,2,6]",0.0,"[3, 4, 5, 6, 7, 7, 6, 7, 8, 8, 7, 8]",,57144a4cc9fbf700124c0ed5,11:20:14 AM,1/15/2024
,,,fwdspan,update_span,CZQkZD6MOiaopjuwuPhgEaLGPz93,call-function,109,533108,0.0-7.0-2.8-0.8-4.8,,,,,,,57144a4cc9fbf700124c0ed5,11:20:14 AM,1/15/2024
1411.7000000001863,"<p style=""font-size:3rem"">Trial 10 of 12</p><br><br><br>",0,fwdspan,start_trial,CZQkZD6MOiaopjuwuPhgEaLGPz93,html-button-response,110,534521,0.0-7.0-2.9-0.9-0.9,,,,,,,57144a4cc9fbf700124c0ed5,11:20:14 AM,1/15/2024
,"<p style=""font-size:14rem;font-weight:400;"">4</p>",,fwdspan,number,CZQkZD6MOiaopjuwuPhgEaLGPz93,html-keyboard-response,111,535538,0.0-7.0-2.9-0.9-1.53-0.53,,,,,,,57144a4cc9fbf700124c0ed5,11:20:14 AM,1/15/2024
,"<p style=""font-size:14rem;font-weight:400;"">9</p>",,fwdspan,number,CZQkZD6MOiaopjuwuPhgEaLGPz93,html-keyboard-response,112,536556,0.0-7.0-2.9-0.9-1.54-0.54,,,,,,,57144a4cc9fbf700124c0ed5,11:20:14 AM,1/15/2024
,"<p style=""font-size:14rem;font-weight:400;"">8</p>",,fwdspan,number,CZQkZD6MOiaopjuwuPhgEaLGPz93,html-keyboard-response,113,537572,0.0-7.0-2.9-0.9-1.55-0.55,,,,,,,57144a4cc9fbf700124c0ed5,11:20:14 AM,1/15/2024
,"<p style=""font-size:14rem;font-weight:400;"">6</p>",,fwdspan,number,CZQkZD6MOiaopjuwuPhgEaLGPz93,html-keyboard-response,114,538589,0.0-7.0-2.9-0.9-1.56-0.56,,,,,,,57144a4cc9fbf700124c0ed5,11:20:14 AM,1/15/2024
,"<p style=""font-size:14rem;font-weight:400;"">2</p>",,fwdspan,number,CZQkZD6MOiaopjuwuPhgEaLGPz93,html-keyboard-response,115,539606,0.0-7.0-2.9-0.9-1.57-0.57,,,,,,,57144a4cc9fbf700124c0ed5,11:20:14 AM,1/15/2024
,"<p style=""font-size:14rem;font-weight:400;"">1</p>",,fwdspan,number,CZQkZD6MOiaopjuwuPhgEaLGPz93,html-keyboard-response,116,540623,0.0-7.0-2.9-0.9-1.58-0.58,,,,,,,57144a4cc9fbf700124c0ed5,11:20:14 AM,1/15/2024
,"<p style=""font-size:14rem;font-weight:400;"">5</p>",,fwdspan,number,CZQkZD6MOiaopjuwuPhgEaLGPz93,html-keyboard-response,117,541639,0.0-7.0-2.9-0.9-1.59-0.59,,,,,,,57144a4cc9fbf700124c0ed5,11:20:14 AM,1/15/2024
,"<p style=""font-size:14rem;font-weight:400;"">3</p>",,fwdspan,number,CZQkZD6MOiaopjuwuPhgEaLGPz93,html-keyboard-response,118,542655,0.0-7.0-2.9-0.9-1.60-0.60,,,,,,,57144a4cc9fbf700124c0ed5,11:20:14 AM,1/15/2024
,[],,fwdspan,delay,CZQkZD6MOiaopjuwuPhgEaLGPz93,html-keyboard-response,119,543213,0.0-7.0-2.9-0.9-2.9,,,,,,,57144a4cc9fbf700124c0ed5,11:20:14 AM,1/15/2024
15161.80000000028,"<div class = numbox><p style=""font-size:2.5rem"">What were the numbers <b>in order</b>?<br>(When you are ready to lock in your answer, press <b>ENTER</b>)</p><button id = button_1 class = ""square num-button"" onclick = ""recordClick(this)""><div class = content><div class = numbers>1</div></div></button><button id = button_2 class = ""square num-button"" onclick = ""recordClick(this)""><div class = content><div class = numbers>2</div></div></button><button id = button_3 class = ""square num-button"" onclick = ""recordClick(this)""><div class = content><div class = numbers>3</div></div></button><button id = button_4 class = ""square num-button"" onclick = ""recordClick(this)""><div class = content><div class = numbers>4</div></div></button><button id = button_5 class = ""square num-button"" onclick = ""recordClick(this)""><div class = content><div class = numbers>5</div></div></button><button id = button_6 class = ""square num-button"" onclick = ""recordClick(this)""><div class = content><div class = numbers>6</div></div></button><button id = button_7 class = ""square num-button"" onclick = ""recordClick(this)""><div class = content><div class = numbers>7</div></div></button><button id = button_8 class = ""square num-button"" onclick = ""recordClick(this)""><div class = content><div class = numbers>8</div></div></button><button id = button_9 class = ""square num-button"" onclick = ""recordClick(this)""><div class = content><div class = numbers>9</div></div></button><button class = clear_button id = ""ClearButton"" onclick = ""clearResponse()"">Clear</button><p><u><b>Current Answer:</b></u></p><div id=echoed_txt style=""font-size: 6rem; color:blue;""><b></b></div></div><br><br><br><br><br><br><br>",enter,fwdspan,response,CZQkZD6MOiaopjuwuPhgEaLGPz93,html-keyboard-response,120,558375,0.0-7.0-2.9-0.9-3.9,8.0,"[4,8,9,1,2,6,7,3]","[4,9,8,6,2,1,5,3]",0.0,"[3, 4, 5, 6, 7, 7, 6, 7, 8, 8, 7, 8]",,57144a4cc9fbf700124c0ed5,11:20:14 AM,1/15/2024
,,,fwdspan,update_span,CZQkZD6MOiaopjuwuPhgEaLGPz93,call-function,121,558638,0.0-7.0-2.9-0.9-4.9,,,,,,,57144a4cc9fbf700124c0ed5,11:20:14 AM,1/15/2024
1752.9000000003725,"<p style=""font-size:3rem"">Trial 11 of 12</p><br><br><br>",0,fwdspan,start_trial,CZQkZD6MOiaopjuwuPhgEaLGPz93,html-button-response,122,560392,0.0-7.0-2.10-0.10-0.10,,,,,,,57144a4cc9fbf700124c0ed5,11:20:14 AM,1/15/2024
,"<p style=""font-size:14rem;font-weight:400;"">1</p>",,fwdspan,number,CZQkZD6MOiaopjuwuPhgEaLGPz93,html-keyboard-response,123,561404,0.0-7.0-2.10-0.10-1.61-0.61,,,,,,,57144a4cc9fbf700124c0ed5,11:20:14 AM,1/15/2024
,"<p style=""font-size:14rem;font-weight:400;"">2</p>",,fwdspan,number,CZQkZD6MOiaopjuwuPhgEaLGPz93,html-keyboard-response,124,562420,0.0-7.0-2.10-0.10-1.62-0.62,,,,,,,57144a4cc9fbf700124c0ed5,11:20:14 AM,1/15/2024
,"<p style=""font-size:14rem;font-weight:400;"">3</p>",,fwdspan,number,CZQkZD6MOiaopjuwuPhgEaLGPz93,html-keyboard-response,125,563437,0.0-7.0-2.10-0.10-1.63-0.63,,,,,,,57144a4cc9fbf700124c0ed5,11:20:14 AM,1/15/2024
,"<p style=""font-size:14rem;font-weight:400;"">5</p>",,fwdspan,number,CZQkZD6MOiaopjuwuPhgEaLGPz93,html-keyboard-response,126,564454,0.0-7.0-2.10-0.10-1.64-0.64,,,,,,,57144a4cc9fbf700124c0ed5,11:20:14 AM,1/15/2024
,"<p style=""font-size:14rem;font-weight:400;"">9</p>",,fwdspan,number,CZQkZD6MOiaopjuwuPhgEaLGPz93,html-keyboard-response,127,565473,0.0-7.0-2.10-0.10-1.65-0.65,,,,,,,57144a4cc9fbf700124c0ed5,11:20:14 AM,1/15/2024
,"<p style=""font-size:14rem;font-weight:400;"">7</p>",,fwdspan,number,CZQkZD6MOiaopjuwuPhgEaLGPz93,html-keyboard-response,128,566491,0.0-7.0-2.10-0.10-1.66-0.66,,,,,,,57144a4cc9fbf700124c0ed5,11:20:14 AM,1/15/2024
,"<p style=""font-size:14rem;font-weight:400;"">8</p>",,fwdspan,number,CZQkZD6MOiaopjuwuPhgEaLGPz93,html-keyboard-response,129,567507,0.0-7.0-2.10-0.10-1.67-0.67,,,,,,,57144a4cc9fbf700124c0ed5,11:20:14 AM,1/15/2024
,[],,fwdspan,delay,CZQkZD6MOiaopjuwuPhgEaLGPz93,html-keyboard-response,130,568066,0.0-7.0-2.10-0.10-2.10,,,,,,,57144a4cc9fbf700124c0ed5,11:20:14 AM,1/15/2024
6061.600000000093,"<div class = numbox><p style=""font-size:2.5rem"">What were the numbers <b>in order</b>?<br>(When you are ready to lock in your answer, press <b>ENTER</b>)</p><button id = button_1 class = ""square num-button"" onclick = ""recordClick(this)""><div class = content><div class = numbers>1</div></div></button><button id = button_2 class = ""square num-button"" onclick = ""recordClick(this)""><div class = content><div class = numbers>2</div></div></button><button id = button_3 class = ""square num-button"" onclick = ""recordClick(this)""><div class = content><div class = numbers>3</div></div></button><button id = button_4 class = ""square num-button"" onclick = ""recordClick(this)""><div class = content><div class = numbers>4</div></div></button><button id = button_5 class = ""square num-button"" onclick = ""recordClick(this)""><div class = content><div class = numbers>5</div></div></button><button id = button_6 class = ""square num-button"" onclick = ""recordClick(this)""><div class = content><div class = numbers>6</div></div></button><button id = button_7 class = ""square num-button"" onclick = ""recordClick(this)""><div class = content><div class = numbers>7</div></div></button><button id = button_8 class = ""square num-button"" onclick = ""recordClick(this)""><div class = content><div class = numbers>8</div></div></button><button id = button_9 class = ""square num-button"" onclick = ""recordClick(this)""><div class = content><div class = numbers>9</div></div></button><button class = clear_button id = ""ClearButton"" onclick = ""clearResponse()"">Clear</button><p><u><b>Current Answer:</b></u></p><div id=echoed_txt style=""font-size: 6rem; color:blue;""><b></b></div></div><br><br><br><br><br><br><br>",enter,fwdspan,response,CZQkZD6MOiaopjuwuPhgEaLGPz93,html-keyboard-response,131,574128,0.0-7.0-2.10-0.10-3.10,7.0,"[1,2,3,5,9,7,8]","[1,2,3,5,9,7,8]",1.0,"[3, 4, 5, 6, 7, 7, 6, 7, 8, 8, 7, 8]",,57144a4cc9fbf700124c0ed5,11:20:14 AM,1/15/2024
,,,fwdspan,update_span,CZQkZD6MOiaopjuwuPhgEaLGPz93,call-function,132,574390,0.0-7.0-2.10-0.10-4.10,,,,,,,57144a4cc9fbf700124c0ed5,11:20:14 AM,1/15/2024
1690.7000000001863,"<p style=""font-size:3rem"">Trial 12 of 12</p><br><br><br>",0,fwdspan,start_trial,CZQkZD6MOiaopjuwuPhgEaLGPz93,html-button-response,133,576081,0.0-7.0-2.11-0.11-0.11,,,,,,,57144a4cc9fbf700124c0ed5,11:20:14 AM,1/15/2024
,"<p style=""font-size:14rem;font-weight:400;"">5</p>",,fwdspan,number,CZQkZD6MOiaopjuwuPhgEaLGPz93,html-keyboard-response,134,577096,0.0-7.0-2.11-0.11-1.68-0.68,,,,,,,57144a4cc9fbf700124c0ed5,11:20:14 AM,1/15/2024
,"<p style=""font-size:14rem;font-weight:400;"">4</p>",,fwdspan,number,CZQkZD6MOiaopjuwuPhgEaLGPz93,html-keyboard-response,135,578113,0.0-7.0-2.11-0.11-1.69-0.69,,,,,,,57144a4cc9fbf700124c0ed5,11:20:14 AM,1/15/2024
,"<p style=""font-size:14rem;font-weight:400;"">2</p>",,fwdspan,number,CZQkZD6MOiaopjuwuPhgEaLGPz93,html-keyboard-response,136,579131,0.0-7.0-2.11-0.11-1.70-0.70,,,,,,,57144a4cc9fbf700124c0ed5,11:20:14 AM,1/15/2024
,"<p style=""font-size:14rem;font-weight:400;"">6</p>",,fwdspan,number,CZQkZD6MOiaopjuwuPhgEaLGPz93,html-keyboard-response,137,580150,0.0-7.0-2.11-0.11-1.71-0.71,,,,,,,57144a4cc9fbf700124c0ed5,11:20:14 AM,1/15/2024
,"<p style=""font-size:14rem;font-weight:400;"">3</p>",,fwdspan,number,CZQkZD6MOiaopjuwuPhgEaLGPz93,html-keyboard-response,138,581167,0.0-7.0-2.11-0.11-1.72-0.72,,,,,,,57144a4cc9fbf700124c0ed5,11:20:14 AM,1/15/2024
,"<p style=""font-size:14rem;font-weight:400;"">9</p>",,fwdspan,number,CZQkZD6MOiaopjuwuPhgEaLGPz93,html-keyboard-response,139,582184,0.0-7.0-2.11-0.11-1.73-0.73,,,,,,,57144a4cc9fbf700124c0ed5,11:20:14 AM,1/15/2024
,"<p style=""font-size:14rem;font-weight:400;"">1</p>",,fwdspan,number,CZQkZD6MOiaopjuwuPhgEaLGPz93,html-keyboard-response,140,583199,0.0-7.0-2.11-0.11-1.74-0.74,,,,,,,57144a4cc9fbf700124c0ed5,11:20:14 AM,1/15/2024
,"<p style=""font-size:14rem;font-weight:400;"">8</p>",,fwdspan,number,CZQkZD6MOiaopjuwuPhgEaLGPz93,html-keyboard-response,141,584213,0.0-7.0-2.11-0.11-1.75-0.75,,,,,,,57144a4cc9fbf700124c0ed5,11:20:14 AM,1/15/2024
,[],,fwdspan,delay,CZQkZD6MOiaopjuwuPhgEaLGPz93,html-keyboard-response,142,584770,0.0-7.0-2.11-0.11-2.11,,,,,,,57144a4cc9fbf700124c0ed5,11:20:14 AM,1/15/2024
7968.899999999907,"<div class = numbox><p style=""font-size:2.5rem"">What were the numbers <b>in order</b>?<br>(When you are ready to lock in your answer, press <b>ENTER</b>)</p><button id = button_1 class = ""square num-button"" onclick = ""recordClick(this)""><div class = content><div class = numbers>1</div></div></button><button id = button_2 class = ""square num-button"" onclick = ""recordClick(this)""><div class = content><div class = numbers>2</div></div></button><button id = button_3 class = ""square num-button"" onclick = ""recordClick(this)""><div class = content><div class = numbers>3</div></div></button><button id = button_4 class = ""square num-button"" onclick = ""recordClick(this)""><div class = content><div class = numbers>4</div></div></button><button id = button_5 class = ""square num-button"" onclick = ""recordClick(this)""><div class = content><div class = numbers>5</div></div></button><button id = button_6 class = ""square num-button"" onclick = ""recordClick(this)""><div class = content><div class = numbers>6</div></div></button><button id = button_7 class = ""square num-button"" onclick = ""recordClick(this)""><div class = content><div class = numbers>7</div></div></button><button id = button_8 class = ""square num-button"" onclick = ""recordClick(this)""><div class = content><div class = numbers>8</div></div></button><button id = button_9 class = ""square num-button"" onclick = ""recordClick(this)""><div class = content><div class = numbers>9</div></div></button><button class = clear_button id = ""ClearButton"" onclick = ""clearResponse()"">Clear</button><p><u><b>Current Answer:</b></u></p><div id=echoed_txt style=""font-size: 6rem; color:blue;""><b></b></div></div><br><br><br><br><br><br><br>",enter,fwdspan,response,CZQkZD6MOiaopjuwuPhgEaLGPz93,html-keyboard-response,143,592740,0.0-7.0-2.11-0.11-3.11,8.0,"[5,4,6,3,7,2,9,8]","[5,4,2,6,3,9,1,8]",0.0,"[3, 4, 5, 6, 7, 7, 6, 7, 8, 8, 7, 8]",,57144a4cc9fbf700124c0ed5,11:20:14 AM,1/15/2024
,,,fwdspan,update_span,CZQkZD6MOiaopjuwuPhgEaLGPz93,call-function,144,592999,0.0-7.0-2.11-0.11-4.11,,,,,,,57144a4cc9fbf700124c0ed5,11:20:14 AM,1/15/2024
32296.700000000186,,{'Q0': 'It was perfectly clear and I have no improvements to suggest. '},fwdspan,survey,CZQkZD6MOiaopjuwuPhgEaLGPz93,lmdlab-survey-text,145,626047,0.0-7.0-3.0,,,,,,CZQkZD6MOiaopjuwuPhgEaLGPz93,57144a4cc9fbf700124c0ed5,11:20:14 AM,1/15/2024
2072.7000000001863,<p><p style='font-size: 3rem'>Great work!<br><br>This completes the digit span task.</p><br><br><br>,0,fwdspan,finish,CZQkZD6MOiaopjuwuPhgEaLGPz93,html-button-response,146,628121,0.0-7.0-4.0,,,,,,,57144a4cc9fbf700124c0ed5,11:20:14 AM,1/15/2024
