rt,stimulus,response,exp_name,exp_stage,subjectID,trial_type,trial_index,time_elapsed,internal_node_id,span,answer,correct,correct_full,span_history,databaseID,prolificID,start_time,date
12546.199999999953,"<p style=""font-size:4rem""><br><br>In the next part today, we have a completely different short task.<br><br><br>This part involves keeping numbers in you mind. Participation takes around 5 minutes.<br><br><br></p>",0,fwdspan,instruct,qmRyHL1bXwaTUZSwuUu1cycHB5y2,html-button-response,19,427916,0.0-7.0-0.0,,,,,,,57c74977b23f0e000182dc3f,11:23:41,15/01/2024
17066.900000000023,"<p style=""font-size:5rem"">Welcome to the <b>digit span task</b>!<br><br></p><p style=""font-size:3.4rem""><br>On each trial, you will see a sequence of digits, followed by a delay.</p><p style=""font-size:3.4rem""><br>Then you will be asked to type them back in the same order in which they were seen.</p><p style=""font-size:3.4rem""><br><br><br>For example, if you saw the digits <b style=""color:blue;"">1</b>, <b style=""color:blue;"">2</b>, <b style=""color:blue;"">3</b>, you would respond with <b style=""color:blue;"">1</b>, <b style=""color:blue;"">2</b>, <b style=""color:blue;"">3</b></p><p style=""font-size:3.4rem""><br><br><br>To ensure the best measure of true performance for our study,<br><br>it is very important that you do not use any memory aid (e.g., pen and paper).<br><br>Please do the task solely in your head.</p><p style=""font-size:3.4rem""><br><br><br>There will be 12 total trials. Participation takes around 5 minutes.</p><br><br><br>",0,fwdspan,instruct,qmRyHL1bXwaTUZSwuUu1cycHB5y2,html-button-response,20,444986,0.0-7.0-1.0,,,,,,,57c74977b23f0e000182dc3f,11:23:41,15/01/2024
2564.6999999999534,"<p style=""font-size:3rem"">Trial 1 of 12</p><br><br><br>",0,fwdspan,start_trial,qmRyHL1bXwaTUZSwuUu1cycHB5y2,html-button-response,21,447558,0.0-7.0-2.0-0.0-0.0,,,,,,,57c74977b23f0e000182dc3f,11:23:41,15/01/2024
,"<p style=""font-size:14rem;font-weight:400;"">2</p>",,fwdspan,number,qmRyHL1bXwaTUZSwuUu1cycHB5y2,html-keyboard-response,22,448562,0.0-7.0-2.0-0.0-1.0-0.0,,,,,,,57c74977b23f0e000182dc3f,11:23:41,15/01/2024
,"<p style=""font-size:14rem;font-weight:400;"">3</p>",,fwdspan,number,qmRyHL1bXwaTUZSwuUu1cycHB5y2,html-keyboard-response,23,449566,0.0-7.0-2.0-0.0-1.1-0.1,,,,,,,57c74977b23f0e000182dc3f,11:23:41,15/01/2024
,"<p style=""font-size:14rem;font-weight:400;"">7</p>",,fwdspan,number,qmRyHL1bXwaTUZSwuUu1cycHB5y2,html-keyboard-response,24,450567,0.0-7.0-2.0-0.0-1.2-0.2,,,,,,,57c74977b23f0e000182dc3f,11:23:41,15/01/2024
,[],,fwdspan,delay,qmRyHL1bXwaTUZSwuUu1cycHB5y2,html-keyboard-response,25,451119,0.0-7.0-2.0-0.0-2.0,,,,,,,57c74977b23f0e000182dc3f,11:23:41,15/01/2024
7765.300000000047,"<div class = numbox><p style=""font-size:2.5rem"">What were the numbers <b>in order</b>?<br>(When you are ready to lock in your answer, press <b>ENTER</b>)</p><button id = button_1 class = ""square num-button"" onclick = ""recordClick(this)""><div class = content><div class = numbers>1</div></div></button><button id = button_2 class = ""square num-button"" onclick = ""recordClick(this)""><div class = content><div class = numbers>2</div></div></button><button id = button_3 class = ""square num-button"" onclick = ""recordClick(this)""><div class = content><div class = numbers>3</div></div></button><button id = button_4 class = ""square num-button"" onclick = ""recordClick(this)""><div class = content><div class = numbers>4</div></div></button><button id = button_5 class = ""square num-button"" onclick = ""recordClick(this)""><div class = content><div class = numbers>5</div></div></button><button id = button_6 class = ""square num-button"" onclick = ""recordClick(this)""><div class = content><div class = numbers>6</div></div></button><button id = button_7 class = ""square num-button"" onclick = ""recordClick(this)""><div class = content><div class = numbers>7</div></div></button><button id = button_8 class = ""square num-button"" onclick = ""recordClick(this)""><div class = content><div class = numbers>8</div></div></button><button id = button_9 class = ""square num-button"" onclick = ""recordClick(this)""><div class = content><div class = numbers>9</div></div></button><button class = clear_button id = ""ClearButton"" onclick = ""clearResponse()"">Clear</button><p><u><b>Current Answer:</b></u></p><div id=echoed_txt style=""font-size: 6rem; color:blue;""><b></b></div></div><br><br><br><br><br><br><br>",enter,fwdspan,response,qmRyHL1bXwaTUZSwuUu1cycHB5y2,html-keyboard-response,26,458888,0.0-7.0-2.0-0.0-3.0,3.0,"[2,3,7]","[2,3,7]",1.0,"[3, 4, 5, 6, 7, 8, 8, 9, 9, 8, 8, 9]",,57c74977b23f0e000182dc3f,11:23:41,15/01/2024
,,,fwdspan,update_span,qmRyHL1bXwaTUZSwuUu1cycHB5y2,call-function,27,459142,0.0-7.0-2.0-0.0-4.0,,,,,,,57c74977b23f0e000182dc3f,11:23:41,15/01/2024
4188.0,"<p style=""font-size:3rem"">Trial 2 of 12</p><br><br><br>",0,fwdspan,start_trial,qmRyHL1bXwaTUZSwuUu1cycHB5y2,html-button-response,28,463333,0.0-7.0-2.1-0.1-0.1,,,,,,,57c74977b23f0e000182dc3f,11:23:41,15/01/2024
,"<p style=""font-size:14rem;font-weight:400;"">9</p>",,fwdspan,number,qmRyHL1bXwaTUZSwuUu1cycHB5y2,html-keyboard-response,29,464335,0.0-7.0-2.1-0.1-1.3-0.3,,,,,,,57c74977b23f0e000182dc3f,11:23:41,15/01/2024
,"<p style=""font-size:14rem;font-weight:400;"">2</p>",,fwdspan,number,qmRyHL1bXwaTUZSwuUu1cycHB5y2,html-keyboard-response,30,465337,0.0-7.0-2.1-0.1-1.4-0.4,,,,,,,57c74977b23f0e000182dc3f,11:23:41,15/01/2024
,"<p style=""font-size:14rem;font-weight:400;"">5</p>",,fwdspan,number,qmRyHL1bXwaTUZSwuUu1cycHB5y2,html-keyboard-response,31,466340,0.0-7.0-2.1-0.1-1.5-0.5,,,,,,,57c74977b23f0e000182dc3f,11:23:41,15/01/2024
,"<p style=""font-size:14rem;font-weight:400;"">3</p>",,fwdspan,number,qmRyHL1bXwaTUZSwuUu1cycHB5y2,html-keyboard-response,32,467341,0.0-7.0-2.1-0.1-1.6-0.6,,,,,,,57c74977b23f0e000182dc3f,11:23:41,15/01/2024
,[],,fwdspan,delay,qmRyHL1bXwaTUZSwuUu1cycHB5y2,html-keyboard-response,33,467893,0.0-7.0-2.1-0.1-2.1,,,,,,,57c74977b23f0e000182dc3f,11:23:41,15/01/2024
4099.400000000023,"<div class = numbox><p style=""font-size:2.5rem"">What were the numbers <b>in order</b>?<br>(When you are ready to lock in your answer, press <b>ENTER</b>)</p><button id = button_1 class = ""square num-button"" onclick = ""recordClick(this)""><div class = content><div class = numbers>1</div></div></button><button id = button_2 class = ""square num-button"" onclick = ""recordClick(this)""><div class = content><div class = numbers>2</div></div></button><button id = button_3 class = ""square num-button"" onclick = ""recordClick(this)""><div class = content><div class = numbers>3</div></div></button><button id = button_4 class = ""square num-button"" onclick = ""recordClick(this)""><div class = content><div class = numbers>4</div></div></button><button id = button_5 class = ""square num-button"" onclick = ""recordClick(this)""><div class = content><div class = numbers>5</div></div></button><button id = button_6 class = ""square num-button"" onclick = ""recordClick(this)""><div class = content><div class = numbers>6</div></div></button><button id = button_7 class = ""square num-button"" onclick = ""recordClick(this)""><div class = content><div class = numbers>7</div></div></button><button id = button_8 class = ""square num-button"" onclick = ""recordClick(this)""><div class = content><div class = numbers>8</div></div></button><button id = button_9 class = ""square num-button"" onclick = ""recordClick(this)""><div class = content><div class = numbers>9</div></div></button><button class = clear_button id = ""ClearButton"" onclick = ""clearResponse()"">Clear</button><p><u><b>Current Answer:</b></u></p><div id=echoed_txt style=""font-size: 6rem; color:blue;""><b></b></div></div><br><br><br><br><br><br><br>",enter,fwdspan,response,qmRyHL1bXwaTUZSwuUu1cycHB5y2,html-keyboard-response,34,471995,0.0-7.0-2.1-0.1-3.1,4.0,"[9,2,5,3]","[9,2,5,3]",1.0,"[3, 4, 5, 6, 7, 8, 8, 9, 9, 8, 8, 9]",,57c74977b23f0e000182dc3f,11:23:41,15/01/2024
,,,fwdspan,update_span,qmRyHL1bXwaTUZSwuUu1cycHB5y2,call-function,35,472249,0.0-7.0-2.1-0.1-4.1,,,,,,,57c74977b23f0e000182dc3f,11:23:41,15/01/2024
1419.8000000000466,"<p style=""font-size:3rem"">Trial 3 of 12</p><br><br><br>",0,fwdspan,start_trial,qmRyHL1bXwaTUZSwuUu1cycHB5y2,html-button-response,36,473671,0.0-7.0-2.2-0.2-0.2,,,,,,,57c74977b23f0e000182dc3f,11:23:41,15/01/2024
,"<p style=""font-size:14rem;font-weight:400;"">1</p>",,fwdspan,number,qmRyHL1bXwaTUZSwuUu1cycHB5y2,html-keyboard-response,37,474673,0.0-7.0-2.2-0.2-1.7-0.7,,,,,,,57c74977b23f0e000182dc3f,11:23:41,15/01/2024
,"<p style=""font-size:14rem;font-weight:400;"">8</p>",,fwdspan,number,qmRyHL1bXwaTUZSwuUu1cycHB5y2,html-keyboard-response,38,475675,0.0-7.0-2.2-0.2-1.8-0.8,,,,,,,57c74977b23f0e000182dc3f,11:23:41,15/01/2024
,"<p style=""font-size:14rem;font-weight:400;"">4</p>",,fwdspan,number,qmRyHL1bXwaTUZSwuUu1cycHB5y2,html-keyboard-response,39,476677,0.0-7.0-2.2-0.2-1.9-0.9,,,,,,,57c74977b23f0e000182dc3f,11:23:41,15/01/2024
,"<p style=""font-size:14rem;font-weight:400;"">5</p>",,fwdspan,number,qmRyHL1bXwaTUZSwuUu1cycHB5y2,html-keyboard-response,40,477679,0.0-7.0-2.2-0.2-1.10-0.10,,,,,,,57c74977b23f0e000182dc3f,11:23:41,15/01/2024
,"<p style=""font-size:14rem;font-weight:400;"">7</p>",,fwdspan,number,qmRyHL1bXwaTUZSwuUu1cycHB5y2,html-keyboard-response,41,478681,0.0-7.0-2.2-0.2-1.11-0.11,,,,,,,57c74977b23f0e000182dc3f,11:23:41,15/01/2024
,[],,fwdspan,delay,qmRyHL1bXwaTUZSwuUu1cycHB5y2,html-keyboard-response,42,479232,0.0-7.0-2.2-0.2-2.2,,,,,,,57c74977b23f0e000182dc3f,11:23:41,15/01/2024
5152.79999999993,"<div class = numbox><p style=""font-size:2.5rem"">What were the numbers <b>in order</b>?<br>(When you are ready to lock in your answer, press <b>ENTER</b>)</p><button id = button_1 class = ""square num-button"" onclick = ""recordClick(this)""><div class = content><div class = numbers>1</div></div></button><button id = button_2 class = ""square num-button"" onclick = ""recordClick(this)""><div class = content><div class = numbers>2</div></div></button><button id = button_3 class = ""square num-button"" onclick = ""recordClick(this)""><div class = content><div class = numbers>3</div></div></button><button id = button_4 class = ""square num-button"" onclick = ""recordClick(this)""><div class = content><div class = numbers>4</div></div></button><button id = button_5 class = ""square num-button"" onclick = ""recordClick(this)""><div class = content><div class = numbers>5</div></div></button><button id = button_6 class = ""square num-button"" onclick = ""recordClick(this)""><div class = content><div class = numbers>6</div></div></button><button id = button_7 class = ""square num-button"" onclick = ""recordClick(this)""><div class = content><div class = numbers>7</div></div></button><button id = button_8 class = ""square num-button"" onclick = ""recordClick(this)""><div class = content><div class = numbers>8</div></div></button><button id = button_9 class = ""square num-button"" onclick = ""recordClick(this)""><div class = content><div class = numbers>9</div></div></button><button class = clear_button id = ""ClearButton"" onclick = ""clearResponse()"">Clear</button><p><u><b>Current Answer:</b></u></p><div id=echoed_txt style=""font-size: 6rem; color:blue;""><b></b></div></div><br><br><br><br><br><br><br>",enter,fwdspan,response,qmRyHL1bXwaTUZSwuUu1cycHB5y2,html-keyboard-response,43,484388,0.0-7.0-2.2-0.2-3.2,5.0,"[1,8,4,5,7]","[1,8,4,5,7]",1.0,"[3, 4, 5, 6, 7, 8, 8, 9, 9, 8, 8, 9]",,57c74977b23f0e000182dc3f,11:23:41,15/01/2024
,,,fwdspan,update_span,qmRyHL1bXwaTUZSwuUu1cycHB5y2,call-function,44,484641,0.0-7.0-2.2-0.2-4.2,,,,,,,57c74977b23f0e000182dc3f,11:23:41,15/01/2024
1716.9000000000233,"<p style=""font-size:3rem"">Trial 4 of 12</p><br><br><br>",0,fwdspan,start_trial,qmRyHL1bXwaTUZSwuUu1cycHB5y2,html-button-response,45,486360,0.0-7.0-2.3-0.3-0.3,,,,,,,57c74977b23f0e000182dc3f,11:23:41,15/01/2024
,"<p style=""font-size:14rem;font-weight:400;"">4</p>",,fwdspan,number,qmRyHL1bXwaTUZSwuUu1cycHB5y2,html-keyboard-response,46,487362,0.0-7.0-2.3-0.3-1.12-0.12,,,,,,,57c74977b23f0e000182dc3f,11:23:41,15/01/2024
,"<p style=""font-size:14rem;font-weight:400;"">8</p>",,fwdspan,number,qmRyHL1bXwaTUZSwuUu1cycHB5y2,html-keyboard-response,47,488363,0.0-7.0-2.3-0.3-1.13-0.13,,,,,,,57c74977b23f0e000182dc3f,11:23:41,15/01/2024
,"<p style=""font-size:14rem;font-weight:400;"">1</p>",,fwdspan,number,qmRyHL1bXwaTUZSwuUu1cycHB5y2,html-keyboard-response,48,489365,0.0-7.0-2.3-0.3-1.14-0.14,,,,,,,57c74977b23f0e000182dc3f,11:23:41,15/01/2024
,"<p style=""font-size:14rem;font-weight:400;"">9</p>",,fwdspan,number,qmRyHL1bXwaTUZSwuUu1cycHB5y2,html-keyboard-response,49,490367,0.0-7.0-2.3-0.3-1.15-0.15,,,,,,,57c74977b23f0e000182dc3f,11:23:41,15/01/2024
,"<p style=""font-size:14rem;font-weight:400;"">5</p>",,fwdspan,number,qmRyHL1bXwaTUZSwuUu1cycHB5y2,html-keyboard-response,50,491369,0.0-7.0-2.3-0.3-1.16-0.16,,,,,,,57c74977b23f0e000182dc3f,11:23:41,15/01/2024
,"<p style=""font-size:14rem;font-weight:400;"">3</p>",,fwdspan,number,qmRyHL1bXwaTUZSwuUu1cycHB5y2,html-keyboard-response,51,492370,0.0-7.0-2.3-0.3-1.17-0.17,,,,,,,57c74977b23f0e000182dc3f,11:23:41,15/01/2024
,[],,fwdspan,delay,qmRyHL1bXwaTUZSwuUu1cycHB5y2,html-keyboard-response,52,492922,0.0-7.0-2.3-0.3-2.3,,,,,,,57c74977b23f0e000182dc3f,11:23:41,15/01/2024
6016.5,"<div class = numbox><p style=""font-size:2.5rem"">What were the numbers <b>in order</b>?<br>(When you are ready to lock in your answer, press <b>ENTER</b>)</p><button id = button_1 class = ""square num-button"" onclick = ""recordClick(this)""><div class = content><div class = numbers>1</div></div></button><button id = button_2 class = ""square num-button"" onclick = ""recordClick(this)""><div class = content><div class = numbers>2</div></div></button><button id = button_3 class = ""square num-button"" onclick = ""recordClick(this)""><div class = content><div class = numbers>3</div></div></button><button id = button_4 class = ""square num-button"" onclick = ""recordClick(this)""><div class = content><div class = numbers>4</div></div></button><button id = button_5 class = ""square num-button"" onclick = ""recordClick(this)""><div class = content><div class = numbers>5</div></div></button><button id = button_6 class = ""square num-button"" onclick = ""recordClick(this)""><div class = content><div class = numbers>6</div></div></button><button id = button_7 class = ""square num-button"" onclick = ""recordClick(this)""><div class = content><div class = numbers>7</div></div></button><button id = button_8 class = ""square num-button"" onclick = ""recordClick(this)""><div class = content><div class = numbers>8</div></div></button><button id = button_9 class = ""square num-button"" onclick = ""recordClick(this)""><div class = content><div class = numbers>9</div></div></button><button class = clear_button id = ""ClearButton"" onclick = ""clearResponse()"">Clear</button><p><u><b>Current Answer:</b></u></p><div id=echoed_txt style=""font-size: 6rem; color:blue;""><b></b></div></div><br><br><br><br><br><br><br>",enter,fwdspan,response,qmRyHL1bXwaTUZSwuUu1cycHB5y2,html-keyboard-response,53,498941,0.0-7.0-2.3-0.3-3.3,6.0,"[4,8,1,9,5,3]","[4,8,1,9,5,3]",1.0,"[3, 4, 5, 6, 7, 8, 8, 9, 9, 8, 8, 9]",,57c74977b23f0e000182dc3f,11:23:41,15/01/2024
,,,fwdspan,update_span,qmRyHL1bXwaTUZSwuUu1cycHB5y2,call-function,54,499195,0.0-7.0-2.3-0.3-4.3,,,,,,,57c74977b23f0e000182dc3f,11:23:41,15/01/2024
1107.9000000000233,"<p style=""font-size:3rem"">Trial 5 of 12</p><br><br><br>",0,fwdspan,start_trial,qmRyHL1bXwaTUZSwuUu1cycHB5y2,html-button-response,55,500305,0.0-7.0-2.4-0.4-0.4,,,,,,,57c74977b23f0e000182dc3f,11:23:41,15/01/2024
,"<p style=""font-size:14rem;font-weight:400;"">5</p>",,fwdspan,number,qmRyHL1bXwaTUZSwuUu1cycHB5y2,html-keyboard-response,56,501307,0.0-7.0-2.4-0.4-1.18-0.18,,,,,,,57c74977b23f0e000182dc3f,11:23:41,15/01/2024
,"<p style=""font-size:14rem;font-weight:400;"">7</p>",,fwdspan,number,qmRyHL1bXwaTUZSwuUu1cycHB5y2,html-keyboard-response,57,502308,0.0-7.0-2.4-0.4-1.19-0.19,,,,,,,57c74977b23f0e000182dc3f,11:23:41,15/01/2024
,"<p style=""font-size:14rem;font-weight:400;"">8</p>",,fwdspan,number,qmRyHL1bXwaTUZSwuUu1cycHB5y2,html-keyboard-response,58,503310,0.0-7.0-2.4-0.4-1.20-0.20,,,,,,,57c74977b23f0e000182dc3f,11:23:41,15/01/2024
,"<p style=""font-size:14rem;font-weight:400;"">9</p>",,fwdspan,number,qmRyHL1bXwaTUZSwuUu1cycHB5y2,html-keyboard-response,59,504312,0.0-7.0-2.4-0.4-1.21-0.21,,,,,,,57c74977b23f0e000182dc3f,11:23:41,15/01/2024
,"<p style=""font-size:14rem;font-weight:400;"">2</p>",,fwdspan,number,qmRyHL1bXwaTUZSwuUu1cycHB5y2,html-keyboard-response,60,505313,0.0-7.0-2.4-0.4-1.22-0.22,,,,,,,57c74977b23f0e000182dc3f,11:23:41,15/01/2024
,"<p style=""font-size:14rem;font-weight:400;"">3</p>",,fwdspan,number,qmRyHL1bXwaTUZSwuUu1cycHB5y2,html-keyboard-response,61,506315,0.0-7.0-2.4-0.4-1.23-0.23,,,,,,,57c74977b23f0e000182dc3f,11:23:41,15/01/2024
,"<p style=""font-size:14rem;font-weight:400;"">6</p>",,fwdspan,number,qmRyHL1bXwaTUZSwuUu1cycHB5y2,html-keyboard-response,62,507317,0.0-7.0-2.4-0.4-1.24-0.24,,,,,,,57c74977b23f0e000182dc3f,11:23:41,15/01/2024
,[],,fwdspan,delay,qmRyHL1bXwaTUZSwuUu1cycHB5y2,html-keyboard-response,63,507869,0.0-7.0-2.4-0.4-2.4,,,,,,,57c74977b23f0e000182dc3f,11:23:41,15/01/2024
5032.79999999993,"<div class = numbox><p style=""font-size:2.5rem"">What were the numbers <b>in order</b>?<br>(When you are ready to lock in your answer, press <b>ENTER</b>)</p><button id = button_1 class = ""square num-button"" onclick = ""recordClick(this)""><div class = content><div class = numbers>1</div></div></button><button id = button_2 class = ""square num-button"" onclick = ""recordClick(this)""><div class = content><div class = numbers>2</div></div></button><button id = button_3 class = ""square num-button"" onclick = ""recordClick(this)""><div class = content><div class = numbers>3</div></div></button><button id = button_4 class = ""square num-button"" onclick = ""recordClick(this)""><div class = content><div class = numbers>4</div></div></button><button id = button_5 class = ""square num-button"" onclick = ""recordClick(this)""><div class = content><div class = numbers>5</div></div></button><button id = button_6 class = ""square num-button"" onclick = ""recordClick(this)""><div class = content><div class = numbers>6</div></div></button><button id = button_7 class = ""square num-button"" onclick = ""recordClick(this)""><div class = content><div class = numbers>7</div></div></button><button id = button_8 class = ""square num-button"" onclick = ""recordClick(this)""><div class = content><div class = numbers>8</div></div></button><button id = button_9 class = ""square num-button"" onclick = ""recordClick(this)""><div class = content><div class = numbers>9</div></div></button><button class = clear_button id = ""ClearButton"" onclick = ""clearResponse()"">Clear</button><p><u><b>Current Answer:</b></u></p><div id=echoed_txt style=""font-size: 6rem; color:blue;""><b></b></div></div><br><br><br><br><br><br><br>",enter,fwdspan,response,qmRyHL1bXwaTUZSwuUu1cycHB5y2,html-keyboard-response,64,512904,0.0-7.0-2.4-0.4-3.4,7.0,"[5,7,8,9,2,3,6]","[5,7,8,9,2,3,6]",1.0,"[3, 4, 5, 6, 7, 8, 8, 9, 9, 8, 8, 9]",,57c74977b23f0e000182dc3f,11:23:41,15/01/2024
,,,fwdspan,update_span,qmRyHL1bXwaTUZSwuUu1cycHB5y2,call-function,65,513158,0.0-7.0-2.4-0.4-4.4,,,,,,,57c74977b23f0e000182dc3f,11:23:41,15/01/2024
1161.0999999999767,"<p style=""font-size:3rem"">Trial 6 of 12</p><br><br><br>",0,fwdspan,start_trial,qmRyHL1bXwaTUZSwuUu1cycHB5y2,html-button-response,66,514320,0.0-7.0-2.5-0.5-0.5,,,,,,,57c74977b23f0e000182dc3f,11:23:41,15/01/2024
,"<p style=""font-size:14rem;font-weight:400;"">3</p>",,fwdspan,number,qmRyHL1bXwaTUZSwuUu1cycHB5y2,html-keyboard-response,67,515322,0.0-7.0-2.5-0.5-1.25-0.25,,,,,,,57c74977b23f0e000182dc3f,11:23:41,15/01/2024
,"<p style=""font-size:14rem;font-weight:400;"">5</p>",,fwdspan,number,qmRyHL1bXwaTUZSwuUu1cycHB5y2,html-keyboard-response,68,516324,0.0-7.0-2.5-0.5-1.26-0.26,,,,,,,57c74977b23f0e000182dc3f,11:23:41,15/01/2024
,"<p style=""font-size:14rem;font-weight:400;"">8</p>",,fwdspan,number,qmRyHL1bXwaTUZSwuUu1cycHB5y2,html-keyboard-response,69,517326,0.0-7.0-2.5-0.5-1.27-0.27,,,,,,,57c74977b23f0e000182dc3f,11:23:41,15/01/2024
,"<p style=""font-size:14rem;font-weight:400;"">7</p>",,fwdspan,number,qmRyHL1bXwaTUZSwuUu1cycHB5y2,html-keyboard-response,70,518328,0.0-7.0-2.5-0.5-1.28-0.28,,,,,,,57c74977b23f0e000182dc3f,11:23:41,15/01/2024
,"<p style=""font-size:14rem;font-weight:400;"">9</p>",,fwdspan,number,qmRyHL1bXwaTUZSwuUu1cycHB5y2,html-keyboard-response,71,519331,0.0-7.0-2.5-0.5-1.29-0.29,,,,,,,57c74977b23f0e000182dc3f,11:23:41,15/01/2024
,"<p style=""font-size:14rem;font-weight:400;"">2</p>",,fwdspan,number,qmRyHL1bXwaTUZSwuUu1cycHB5y2,html-keyboard-response,72,520333,0.0-7.0-2.5-0.5-1.30-0.30,,,,,,,57c74977b23f0e000182dc3f,11:23:41,15/01/2024
,"<p style=""font-size:14rem;font-weight:400;"">4</p>",,fwdspan,number,qmRyHL1bXwaTUZSwuUu1cycHB5y2,html-keyboard-response,73,521335,0.0-7.0-2.5-0.5-1.31-0.31,,,,,,,57c74977b23f0e000182dc3f,11:23:41,15/01/2024
,"<p style=""font-size:14rem;font-weight:400;"">1</p>",,fwdspan,number,qmRyHL1bXwaTUZSwuUu1cycHB5y2,html-keyboard-response,74,522337,0.0-7.0-2.5-0.5-1.32-0.32,,,,,,,57c74977b23f0e000182dc3f,11:23:41,15/01/2024
,[],,fwdspan,delay,qmRyHL1bXwaTUZSwuUu1cycHB5y2,html-keyboard-response,75,522888,0.0-7.0-2.5-0.5-2.5,,,,,,,57c74977b23f0e000182dc3f,11:23:41,15/01/2024
5562.199999999953,"<div class = numbox><p style=""font-size:2.5rem"">What were the numbers <b>in order</b>?<br>(When you are ready to lock in your answer, press <b>ENTER</b>)</p><button id = button_1 class = ""square num-button"" onclick = ""recordClick(this)""><div class = content><div class = numbers>1</div></div></button><button id = button_2 class = ""square num-button"" onclick = ""recordClick(this)""><div class = content><div class = numbers>2</div></div></button><button id = button_3 class = ""square num-button"" onclick = ""recordClick(this)""><div class = content><div class = numbers>3</div></div></button><button id = button_4 class = ""square num-button"" onclick = ""recordClick(this)""><div class = content><div class = numbers>4</div></div></button><button id = button_5 class = ""square num-button"" onclick = ""recordClick(this)""><div class = content><div class = numbers>5</div></div></button><button id = button_6 class = ""square num-button"" onclick = ""recordClick(this)""><div class = content><div class = numbers>6</div></div></button><button id = button_7 class = ""square num-button"" onclick = ""recordClick(this)""><div class = content><div class = numbers>7</div></div></button><button id = button_8 class = ""square num-button"" onclick = ""recordClick(this)""><div class = content><div class = numbers>8</div></div></button><button id = button_9 class = ""square num-button"" onclick = ""recordClick(this)""><div class = content><div class = numbers>9</div></div></button><button class = clear_button id = ""ClearButton"" onclick = ""clearResponse()"">Clear</button><p><u><b>Current Answer:</b></u></p><div id=echoed_txt style=""font-size: 6rem; color:blue;""><b></b></div></div><br><br><br><br><br><br><br>",enter,fwdspan,response,qmRyHL1bXwaTUZSwuUu1cycHB5y2,html-keyboard-response,76,528452,0.0-7.0-2.5-0.5-3.5,8.0,"[3,9,8,7,5,4,2,1]","[3,5,8,7,9,2,4,1]",0.0,"[3, 4, 5, 6, 7, 8, 8, 9, 9, 8, 8, 9]",,57c74977b23f0e000182dc3f,11:23:41,15/01/2024
,,,fwdspan,update_span,qmRyHL1bXwaTUZSwuUu1cycHB5y2,call-function,77,528706,0.0-7.0-2.5-0.5-4.5,,,,,,,57c74977b23f0e000182dc3f,11:23:41,15/01/2024
1093.3000000000466,"<p style=""font-size:3rem"">Trial 7 of 12</p><br><br><br>",0,fwdspan,start_trial,qmRyHL1bXwaTUZSwuUu1cycHB5y2,html-button-response,78,529801,0.0-7.0-2.6-0.6-0.6,,,,,,,57c74977b23f0e000182dc3f,11:23:41,15/01/2024
,"<p style=""font-size:14rem;font-weight:400;"">1</p>",,fwdspan,number,qmRyHL1bXwaTUZSwuUu1cycHB5y2,html-keyboard-response,79,530803,0.0-7.0-2.6-0.6-1.33-0.33,,,,,,,57c74977b23f0e000182dc3f,11:23:41,15/01/2024
,"<p style=""font-size:14rem;font-weight:400;"">8</p>",,fwdspan,number,qmRyHL1bXwaTUZSwuUu1cycHB5y2,html-keyboard-response,80,531805,0.0-7.0-2.6-0.6-1.34-0.34,,,,,,,57c74977b23f0e000182dc3f,11:23:41,15/01/2024
,"<p style=""font-size:14rem;font-weight:400;"">3</p>",,fwdspan,number,qmRyHL1bXwaTUZSwuUu1cycHB5y2,html-keyboard-response,81,532807,0.0-7.0-2.6-0.6-1.35-0.35,,,,,,,57c74977b23f0e000182dc3f,11:23:41,15/01/2024
,"<p style=""font-size:14rem;font-weight:400;"">2</p>",,fwdspan,number,qmRyHL1bXwaTUZSwuUu1cycHB5y2,html-keyboard-response,82,533809,0.0-7.0-2.6-0.6-1.36-0.36,,,,,,,57c74977b23f0e000182dc3f,11:23:41,15/01/2024
,"<p style=""font-size:14rem;font-weight:400;"">6</p>",,fwdspan,number,qmRyHL1bXwaTUZSwuUu1cycHB5y2,html-keyboard-response,83,534811,0.0-7.0-2.6-0.6-1.37-0.37,,,,,,,57c74977b23f0e000182dc3f,11:23:41,15/01/2024
,"<p style=""font-size:14rem;font-weight:400;"">7</p>",,fwdspan,number,qmRyHL1bXwaTUZSwuUu1cycHB5y2,html-keyboard-response,84,535813,0.0-7.0-2.6-0.6-1.38-0.38,,,,,,,57c74977b23f0e000182dc3f,11:23:41,15/01/2024
,"<p style=""font-size:14rem;font-weight:400;"">9</p>",,fwdspan,number,qmRyHL1bXwaTUZSwuUu1cycHB5y2,html-keyboard-response,85,536814,0.0-7.0-2.6-0.6-1.39-0.39,,,,,,,57c74977b23f0e000182dc3f,11:23:41,15/01/2024
,"<p style=""font-size:14rem;font-weight:400;"">4</p>",,fwdspan,number,qmRyHL1bXwaTUZSwuUu1cycHB5y2,html-keyboard-response,86,537816,0.0-7.0-2.6-0.6-1.40-0.40,,,,,,,57c74977b23f0e000182dc3f,11:23:41,15/01/2024
,[],,fwdspan,delay,qmRyHL1bXwaTUZSwuUu1cycHB5y2,html-keyboard-response,87,538368,0.0-7.0-2.6-0.6-2.6,,,,,,,57c74977b23f0e000182dc3f,11:23:41,15/01/2024
9595.20000000007,"<div class = numbox><p style=""font-size:2.5rem"">What were the numbers <b>in order</b>?<br>(When you are ready to lock in your answer, press <b>ENTER</b>)</p><button id = button_1 class = ""square num-button"" onclick = ""recordClick(this)""><div class = content><div class = numbers>1</div></div></button><button id = button_2 class = ""square num-button"" onclick = ""recordClick(this)""><div class = content><div class = numbers>2</div></div></button><button id = button_3 class = ""square num-button"" onclick = ""recordClick(this)""><div class = content><div class = numbers>3</div></div></button><button id = button_4 class = ""square num-button"" onclick = ""recordClick(this)""><div class = content><div class = numbers>4</div></div></button><button id = button_5 class = ""square num-button"" onclick = ""recordClick(this)""><div class = content><div class = numbers>5</div></div></button><button id = button_6 class = ""square num-button"" onclick = ""recordClick(this)""><div class = content><div class = numbers>6</div></div></button><button id = button_7 class = ""square num-button"" onclick = ""recordClick(this)""><div class = content><div class = numbers>7</div></div></button><button id = button_8 class = ""square num-button"" onclick = ""recordClick(this)""><div class = content><div class = numbers>8</div></div></button><button id = button_9 class = ""square num-button"" onclick = ""recordClick(this)""><div class = content><div class = numbers>9</div></div></button><button class = clear_button id = ""ClearButton"" onclick = ""clearResponse()"">Clear</button><p><u><b>Current Answer:</b></u></p><div id=echoed_txt style=""font-size: 6rem; color:blue;""><b></b></div></div><br><br><br><br><br><br><br>",enter,fwdspan,response,qmRyHL1bXwaTUZSwuUu1cycHB5y2,html-keyboard-response,88,547966,0.0-7.0-2.6-0.6-3.6,8.0,"[1,8,3,2,6,7,9,4]","[1,8,3,2,6,7,9,4]",1.0,"[3, 4, 5, 6, 7, 8, 8, 9, 9, 8, 8, 9]",,57c74977b23f0e000182dc3f,11:23:41,15/01/2024
,,,fwdspan,update_span,qmRyHL1bXwaTUZSwuUu1cycHB5y2,call-function,89,548219,0.0-7.0-2.6-0.6-4.6,,,,,,,57c74977b23f0e000182dc3f,11:23:41,15/01/2024
869.3000000000466,"<p style=""font-size:3rem"">Trial 8 of 12</p><br><br><br>",0,fwdspan,start_trial,qmRyHL1bXwaTUZSwuUu1cycHB5y2,html-button-response,90,549090,0.0-7.0-2.7-0.7-0.7,,,,,,,57c74977b23f0e000182dc3f,11:23:41,15/01/2024
,"<p style=""font-size:14rem;font-weight:400;"">6</p>",,fwdspan,number,qmRyHL1bXwaTUZSwuUu1cycHB5y2,html-keyboard-response,91,550093,0.0-7.0-2.7-0.7-1.41-0.41,,,,,,,57c74977b23f0e000182dc3f,11:23:41,15/01/2024
,"<p style=""font-size:14rem;font-weight:400;"">3</p>",,fwdspan,number,qmRyHL1bXwaTUZSwuUu1cycHB5y2,html-keyboard-response,92,551095,0.0-7.0-2.7-0.7-1.42-0.42,,,,,,,57c74977b23f0e000182dc3f,11:23:41,15/01/2024
,"<p style=""font-size:14rem;font-weight:400;"">7</p>",,fwdspan,number,qmRyHL1bXwaTUZSwuUu1cycHB5y2,html-keyboard-response,93,552097,0.0-7.0-2.7-0.7-1.43-0.43,,,,,,,57c74977b23f0e000182dc3f,11:23:41,15/01/2024
,"<p style=""font-size:14rem;font-weight:400;"">5</p>",,fwdspan,number,qmRyHL1bXwaTUZSwuUu1cycHB5y2,html-keyboard-response,94,553099,0.0-7.0-2.7-0.7-1.44-0.44,,,,,,,57c74977b23f0e000182dc3f,11:23:41,15/01/2024
,"<p style=""font-size:14rem;font-weight:400;"">2</p>",,fwdspan,number,qmRyHL1bXwaTUZSwuUu1cycHB5y2,html-keyboard-response,95,554101,0.0-7.0-2.7-0.7-1.45-0.45,,,,,,,57c74977b23f0e000182dc3f,11:23:41,15/01/2024
,"<p style=""font-size:14rem;font-weight:400;"">1</p>",,fwdspan,number,qmRyHL1bXwaTUZSwuUu1cycHB5y2,html-keyboard-response,96,555102,0.0-7.0-2.7-0.7-1.46-0.46,,,,,,,57c74977b23f0e000182dc3f,11:23:41,15/01/2024
,"<p style=""font-size:14rem;font-weight:400;"">4</p>",,fwdspan,number,qmRyHL1bXwaTUZSwuUu1cycHB5y2,html-keyboard-response,97,556104,0.0-7.0-2.7-0.7-1.47-0.47,,,,,,,57c74977b23f0e000182dc3f,11:23:41,15/01/2024
,"<p style=""font-size:14rem;font-weight:400;"">9</p>",,fwdspan,number,qmRyHL1bXwaTUZSwuUu1cycHB5y2,html-keyboard-response,98,557106,0.0-7.0-2.7-0.7-1.48-0.48,,,,,,,57c74977b23f0e000182dc3f,11:23:41,15/01/2024
,"<p style=""font-size:14rem;font-weight:400;"">8</p>",,fwdspan,number,qmRyHL1bXwaTUZSwuUu1cycHB5y2,html-keyboard-response,99,558107,0.0-7.0-2.7-0.7-1.49-0.49,,,,,,,57c74977b23f0e000182dc3f,11:23:41,15/01/2024
,[],,fwdspan,delay,qmRyHL1bXwaTUZSwuUu1cycHB5y2,html-keyboard-response,100,558659,0.0-7.0-2.7-0.7-2.7,,,,,,,57c74977b23f0e000182dc3f,11:23:41,15/01/2024
7063.299999999814,"<div class = numbox><p style=""font-size:2.5rem"">What were the numbers <b>in order</b>?<br>(When you are ready to lock in your answer, press <b>ENTER</b>)</p><button id = button_1 class = ""square num-button"" onclick = ""recordClick(this)""><div class = content><div class = numbers>1</div></div></button><button id = button_2 class = ""square num-button"" onclick = ""recordClick(this)""><div class = content><div class = numbers>2</div></div></button><button id = button_3 class = ""square num-button"" onclick = ""recordClick(this)""><div class = content><div class = numbers>3</div></div></button><button id = button_4 class = ""square num-button"" onclick = ""recordClick(this)""><div class = content><div class = numbers>4</div></div></button><button id = button_5 class = ""square num-button"" onclick = ""recordClick(this)""><div class = content><div class = numbers>5</div></div></button><button id = button_6 class = ""square num-button"" onclick = ""recordClick(this)""><div class = content><div class = numbers>6</div></div></button><button id = button_7 class = ""square num-button"" onclick = ""recordClick(this)""><div class = content><div class = numbers>7</div></div></button><button id = button_8 class = ""square num-button"" onclick = ""recordClick(this)""><div class = content><div class = numbers>8</div></div></button><button id = button_9 class = ""square num-button"" onclick = ""recordClick(this)""><div class = content><div class = numbers>9</div></div></button><button class = clear_button id = ""ClearButton"" onclick = ""clearResponse()"">Clear</button><p><u><b>Current Answer:</b></u></p><div id=echoed_txt style=""font-size: 6rem; color:blue;""><b></b></div></div><br><br><br><br><br><br><br>",enter,fwdspan,response,qmRyHL1bXwaTUZSwuUu1cycHB5y2,html-keyboard-response,101,565725,0.0-7.0-2.7-0.7-3.7,9.0,"[6,3,7,5,2,1,4,8,9]","[6,3,7,5,2,1,4,9,8]",0.0,"[3, 4, 5, 6, 7, 8, 8, 9, 9, 8, 8, 9]",,57c74977b23f0e000182dc3f,11:23:41,15/01/2024
,,,fwdspan,update_span,qmRyHL1bXwaTUZSwuUu1cycHB5y2,call-function,102,565979,0.0-7.0-2.7-0.7-4.7,,,,,,,57c74977b23f0e000182dc3f,11:23:41,15/01/2024
1225.5,"<p style=""font-size:3rem"">Trial 9 of 12</p><br><br><br>",0,fwdspan,start_trial,qmRyHL1bXwaTUZSwuUu1cycHB5y2,html-button-response,103,567207,0.0-7.0-2.8-0.8-0.8,,,,,,,57c74977b23f0e000182dc3f,11:23:41,15/01/2024
,"<p style=""font-size:14rem;font-weight:400;"">4</p>",,fwdspan,number,qmRyHL1bXwaTUZSwuUu1cycHB5y2,html-keyboard-response,104,568209,0.0-7.0-2.8-0.8-1.50-0.50,,,,,,,57c74977b23f0e000182dc3f,11:23:41,15/01/2024
,"<p style=""font-size:14rem;font-weight:400;"">1</p>",,fwdspan,number,qmRyHL1bXwaTUZSwuUu1cycHB5y2,html-keyboard-response,105,569211,0.0-7.0-2.8-0.8-1.51-0.51,,,,,,,57c74977b23f0e000182dc3f,11:23:41,15/01/2024
,"<p style=""font-size:14rem;font-weight:400;"">2</p>",,fwdspan,number,qmRyHL1bXwaTUZSwuUu1cycHB5y2,html-keyboard-response,106,570213,0.0-7.0-2.8-0.8-1.52-0.52,,,,,,,57c74977b23f0e000182dc3f,11:23:41,15/01/2024
,"<p style=""font-size:14rem;font-weight:400;"">7</p>",,fwdspan,number,qmRyHL1bXwaTUZSwuUu1cycHB5y2,html-keyboard-response,107,571215,0.0-7.0-2.8-0.8-1.53-0.53,,,,,,,57c74977b23f0e000182dc3f,11:23:41,15/01/2024
,"<p style=""font-size:14rem;font-weight:400;"">8</p>",,fwdspan,number,qmRyHL1bXwaTUZSwuUu1cycHB5y2,html-keyboard-response,108,572216,0.0-7.0-2.8-0.8-1.54-0.54,,,,,,,57c74977b23f0e000182dc3f,11:23:41,15/01/2024
,"<p style=""font-size:14rem;font-weight:400;"">3</p>",,fwdspan,number,qmRyHL1bXwaTUZSwuUu1cycHB5y2,html-keyboard-response,109,573218,0.0-7.0-2.8-0.8-1.55-0.55,,,,,,,57c74977b23f0e000182dc3f,11:23:41,15/01/2024
,"<p style=""font-size:14rem;font-weight:400;"">5</p>",,fwdspan,number,qmRyHL1bXwaTUZSwuUu1cycHB5y2,html-keyboard-response,110,574220,0.0-7.0-2.8-0.8-1.56-0.56,,,,,,,57c74977b23f0e000182dc3f,11:23:41,15/01/2024
,"<p style=""font-size:14rem;font-weight:400;"">6</p>",,fwdspan,number,qmRyHL1bXwaTUZSwuUu1cycHB5y2,html-keyboard-response,111,575223,0.0-7.0-2.8-0.8-1.57-0.57,,,,,,,57c74977b23f0e000182dc3f,11:23:41,15/01/2024
,"<p style=""font-size:14rem;font-weight:400;"">9</p>",,fwdspan,number,qmRyHL1bXwaTUZSwuUu1cycHB5y2,html-keyboard-response,112,576224,0.0-7.0-2.8-0.8-1.58-0.58,,,,,,,57c74977b23f0e000182dc3f,11:23:41,15/01/2024
,[],,fwdspan,delay,qmRyHL1bXwaTUZSwuUu1cycHB5y2,html-keyboard-response,113,576776,0.0-7.0-2.8-0.8-2.8,,,,,,,57c74977b23f0e000182dc3f,11:23:41,15/01/2024
9478.09999999986,"<div class = numbox><p style=""font-size:2.5rem"">What were the numbers <b>in order</b>?<br>(When you are ready to lock in your answer, press <b>ENTER</b>)</p><button id = button_1 class = ""square num-button"" onclick = ""recordClick(this)""><div class = content><div class = numbers>1</div></div></button><button id = button_2 class = ""square num-button"" onclick = ""recordClick(this)""><div class = content><div class = numbers>2</div></div></button><button id = button_3 class = ""square num-button"" onclick = ""recordClick(this)""><div class = content><div class = numbers>3</div></div></button><button id = button_4 class = ""square num-button"" onclick = ""recordClick(this)""><div class = content><div class = numbers>4</div></div></button><button id = button_5 class = ""square num-button"" onclick = ""recordClick(this)""><div class = content><div class = numbers>5</div></div></button><button id = button_6 class = ""square num-button"" onclick = ""recordClick(this)""><div class = content><div class = numbers>6</div></div></button><button id = button_7 class = ""square num-button"" onclick = ""recordClick(this)""><div class = content><div class = numbers>7</div></div></button><button id = button_8 class = ""square num-button"" onclick = ""recordClick(this)""><div class = content><div class = numbers>8</div></div></button><button id = button_9 class = ""square num-button"" onclick = ""recordClick(this)""><div class = content><div class = numbers>9</div></div></button><button class = clear_button id = ""ClearButton"" onclick = ""clearResponse()"">Clear</button><p><u><b>Current Answer:</b></u></p><div id=echoed_txt style=""font-size: 6rem; color:blue;""><b></b></div></div><br><br><br><br><br><br><br>",enter,fwdspan,response,qmRyHL1bXwaTUZSwuUu1cycHB5y2,html-keyboard-response,114,586256,0.0-7.0-2.8-0.8-3.8,9.0,"[4,2,1,7,8,3,9,6]","[4,1,2,7,8,3,5,6,9]",0.0,"[3, 4, 5, 6, 7, 8, 8, 9, 9, 8, 8, 9]",,57c74977b23f0e000182dc3f,11:23:41,15/01/2024
,,,fwdspan,update_span,qmRyHL1bXwaTUZSwuUu1cycHB5y2,call-function,115,586512,0.0-7.0-2.8-0.8-4.8,,,,,,,57c74977b23f0e000182dc3f,11:23:41,15/01/2024
5393.0,"<p style=""font-size:3rem"">Trial 10 of 12</p><br><br><br>",0,fwdspan,start_trial,qmRyHL1bXwaTUZSwuUu1cycHB5y2,html-button-response,116,591907,0.0-7.0-2.9-0.9-0.9,,,,,,,57c74977b23f0e000182dc3f,11:23:41,15/01/2024
,"<p style=""font-size:14rem;font-weight:400;"">8</p>",,fwdspan,number,qmRyHL1bXwaTUZSwuUu1cycHB5y2,html-keyboard-response,117,592909,0.0-7.0-2.9-0.9-1.59-0.59,,,,,,,57c74977b23f0e000182dc3f,11:23:41,15/01/2024
,"<p style=""font-size:14rem;font-weight:400;"">6</p>",,fwdspan,number,qmRyHL1bXwaTUZSwuUu1cycHB5y2,html-keyboard-response,118,593911,0.0-7.0-2.9-0.9-1.60-0.60,,,,,,,57c74977b23f0e000182dc3f,11:23:41,15/01/2024
,"<p style=""font-size:14rem;font-weight:400;"">9</p>",,fwdspan,number,qmRyHL1bXwaTUZSwuUu1cycHB5y2,html-keyboard-response,119,594913,0.0-7.0-2.9-0.9-1.61-0.61,,,,,,,57c74977b23f0e000182dc3f,11:23:41,15/01/2024
,"<p style=""font-size:14rem;font-weight:400;"">7</p>",,fwdspan,number,qmRyHL1bXwaTUZSwuUu1cycHB5y2,html-keyboard-response,120,595915,0.0-7.0-2.9-0.9-1.62-0.62,,,,,,,57c74977b23f0e000182dc3f,11:23:41,15/01/2024
,"<p style=""font-size:14rem;font-weight:400;"">1</p>",,fwdspan,number,qmRyHL1bXwaTUZSwuUu1cycHB5y2,html-keyboard-response,121,596916,0.0-7.0-2.9-0.9-1.63-0.63,,,,,,,57c74977b23f0e000182dc3f,11:23:41,15/01/2024
,"<p style=""font-size:14rem;font-weight:400;"">3</p>",,fwdspan,number,qmRyHL1bXwaTUZSwuUu1cycHB5y2,html-keyboard-response,122,597918,0.0-7.0-2.9-0.9-1.64-0.64,,,,,,,57c74977b23f0e000182dc3f,11:23:41,15/01/2024
,"<p style=""font-size:14rem;font-weight:400;"">2</p>",,fwdspan,number,qmRyHL1bXwaTUZSwuUu1cycHB5y2,html-keyboard-response,123,598920,0.0-7.0-2.9-0.9-1.65-0.65,,,,,,,57c74977b23f0e000182dc3f,11:23:41,15/01/2024
,"<p style=""font-size:14rem;font-weight:400;"">4</p>",,fwdspan,number,qmRyHL1bXwaTUZSwuUu1cycHB5y2,html-keyboard-response,124,599922,0.0-7.0-2.9-0.9-1.66-0.66,,,,,,,57c74977b23f0e000182dc3f,11:23:41,15/01/2024
,[],,fwdspan,delay,qmRyHL1bXwaTUZSwuUu1cycHB5y2,html-keyboard-response,125,600474,0.0-7.0-2.9-0.9-2.9,,,,,,,57c74977b23f0e000182dc3f,11:23:41,15/01/2024
7388.100000000093,"<div class = numbox><p style=""font-size:2.5rem"">What were the numbers <b>in order</b>?<br>(When you are ready to lock in your answer, press <b>ENTER</b>)</p><button id = button_1 class = ""square num-button"" onclick = ""recordClick(this)""><div class = content><div class = numbers>1</div></div></button><button id = button_2 class = ""square num-button"" onclick = ""recordClick(this)""><div class = content><div class = numbers>2</div></div></button><button id = button_3 class = ""square num-button"" onclick = ""recordClick(this)""><div class = content><div class = numbers>3</div></div></button><button id = button_4 class = ""square num-button"" onclick = ""recordClick(this)""><div class = content><div class = numbers>4</div></div></button><button id = button_5 class = ""square num-button"" onclick = ""recordClick(this)""><div class = content><div class = numbers>5</div></div></button><button id = button_6 class = ""square num-button"" onclick = ""recordClick(this)""><div class = content><div class = numbers>6</div></div></button><button id = button_7 class = ""square num-button"" onclick = ""recordClick(this)""><div class = content><div class = numbers>7</div></div></button><button id = button_8 class = ""square num-button"" onclick = ""recordClick(this)""><div class = content><div class = numbers>8</div></div></button><button id = button_9 class = ""square num-button"" onclick = ""recordClick(this)""><div class = content><div class = numbers>9</div></div></button><button class = clear_button id = ""ClearButton"" onclick = ""clearResponse()"">Clear</button><p><u><b>Current Answer:</b></u></p><div id=echoed_txt style=""font-size: 6rem; color:blue;""><b></b></div></div><br><br><br><br><br><br><br>",enter,fwdspan,response,qmRyHL1bXwaTUZSwuUu1cycHB5y2,html-keyboard-response,126,607864,0.0-7.0-2.9-0.9-3.9,8.0,"[8,6,9,7,1,2,3,4]","[8,6,9,7,1,3,2,4]",0.0,"[3, 4, 5, 6, 7, 8, 8, 9, 9, 8, 8, 9]",,57c74977b23f0e000182dc3f,11:23:41,15/01/2024
,,,fwdspan,update_span,qmRyHL1bXwaTUZSwuUu1cycHB5y2,call-function,127,608118,0.0-7.0-2.9-0.9-4.9,,,,,,,57c74977b23f0e000182dc3f,11:23:41,15/01/2024
1220.3000000000466,"<p style=""font-size:3rem"">Trial 11 of 12</p><br><br><br>",0,fwdspan,start_trial,qmRyHL1bXwaTUZSwuUu1cycHB5y2,html-button-response,128,609340,0.0-7.0-2.10-0.10-0.10,,,,,,,57c74977b23f0e000182dc3f,11:23:41,15/01/2024
,"<p style=""font-size:14rem;font-weight:400;"">3</p>",,fwdspan,number,qmRyHL1bXwaTUZSwuUu1cycHB5y2,html-keyboard-response,129,610343,0.0-7.0-2.10-0.10-1.67-0.67,,,,,,,57c74977b23f0e000182dc3f,11:23:41,15/01/2024
,"<p style=""font-size:14rem;font-weight:400;"">1</p>",,fwdspan,number,qmRyHL1bXwaTUZSwuUu1cycHB5y2,html-keyboard-response,130,611344,0.0-7.0-2.10-0.10-1.68-0.68,,,,,,,57c74977b23f0e000182dc3f,11:23:41,15/01/2024
,"<p style=""font-size:14rem;font-weight:400;"">8</p>",,fwdspan,number,qmRyHL1bXwaTUZSwuUu1cycHB5y2,html-keyboard-response,131,612346,0.0-7.0-2.10-0.10-1.69-0.69,,,,,,,57c74977b23f0e000182dc3f,11:23:41,15/01/2024
,"<p style=""font-size:14rem;font-weight:400;"">5</p>",,fwdspan,number,qmRyHL1bXwaTUZSwuUu1cycHB5y2,html-keyboard-response,132,613348,0.0-7.0-2.10-0.10-1.70-0.70,,,,,,,57c74977b23f0e000182dc3f,11:23:41,15/01/2024
,"<p style=""font-size:14rem;font-weight:400;"">4</p>",,fwdspan,number,qmRyHL1bXwaTUZSwuUu1cycHB5y2,html-keyboard-response,133,614349,0.0-7.0-2.10-0.10-1.71-0.71,,,,,,,57c74977b23f0e000182dc3f,11:23:41,15/01/2024
,"<p style=""font-size:14rem;font-weight:400;"">7</p>",,fwdspan,number,qmRyHL1bXwaTUZSwuUu1cycHB5y2,html-keyboard-response,134,615351,0.0-7.0-2.10-0.10-1.72-0.72,,,,,,,57c74977b23f0e000182dc3f,11:23:41,15/01/2024
,"<p style=""font-size:14rem;font-weight:400;"">2</p>",,fwdspan,number,qmRyHL1bXwaTUZSwuUu1cycHB5y2,html-keyboard-response,135,616353,0.0-7.0-2.10-0.10-1.73-0.73,,,,,,,57c74977b23f0e000182dc3f,11:23:41,15/01/2024
,"<p style=""font-size:14rem;font-weight:400;"">9</p>",,fwdspan,number,qmRyHL1bXwaTUZSwuUu1cycHB5y2,html-keyboard-response,136,617355,0.0-7.0-2.10-0.10-1.74-0.74,,,,,,,57c74977b23f0e000182dc3f,11:23:41,15/01/2024
,[],,fwdspan,delay,qmRyHL1bXwaTUZSwuUu1cycHB5y2,html-keyboard-response,137,617907,0.0-7.0-2.10-0.10-2.10,,,,,,,57c74977b23f0e000182dc3f,11:23:41,15/01/2024
6310.0,"<div class = numbox><p style=""font-size:2.5rem"">What were the numbers <b>in order</b>?<br>(When you are ready to lock in your answer, press <b>ENTER</b>)</p><button id = button_1 class = ""square num-button"" onclick = ""recordClick(this)""><div class = content><div class = numbers>1</div></div></button><button id = button_2 class = ""square num-button"" onclick = ""recordClick(this)""><div class = content><div class = numbers>2</div></div></button><button id = button_3 class = ""square num-button"" onclick = ""recordClick(this)""><div class = content><div class = numbers>3</div></div></button><button id = button_4 class = ""square num-button"" onclick = ""recordClick(this)""><div class = content><div class = numbers>4</div></div></button><button id = button_5 class = ""square num-button"" onclick = ""recordClick(this)""><div class = content><div class = numbers>5</div></div></button><button id = button_6 class = ""square num-button"" onclick = ""recordClick(this)""><div class = content><div class = numbers>6</div></div></button><button id = button_7 class = ""square num-button"" onclick = ""recordClick(this)""><div class = content><div class = numbers>7</div></div></button><button id = button_8 class = ""square num-button"" onclick = ""recordClick(this)""><div class = content><div class = numbers>8</div></div></button><button id = button_9 class = ""square num-button"" onclick = ""recordClick(this)""><div class = content><div class = numbers>9</div></div></button><button class = clear_button id = ""ClearButton"" onclick = ""clearResponse()"">Clear</button><p><u><b>Current Answer:</b></u></p><div id=echoed_txt style=""font-size: 6rem; color:blue;""><b></b></div></div><br><br><br><br><br><br><br>",enter,fwdspan,response,qmRyHL1bXwaTUZSwuUu1cycHB5y2,html-keyboard-response,138,624219,0.0-7.0-2.10-0.10-3.10,8.0,"[3,1,8,5,4,7,2,9]","[3,1,8,5,4,7,2,9]",1.0,"[3, 4, 5, 6, 7, 8, 8, 9, 9, 8, 8, 9]",,57c74977b23f0e000182dc3f,11:23:41,15/01/2024
,,,fwdspan,update_span,qmRyHL1bXwaTUZSwuUu1cycHB5y2,call-function,139,624474,0.0-7.0-2.10-0.10-4.10,,,,,,,57c74977b23f0e000182dc3f,11:23:41,15/01/2024
1162.3999999999069,"<p style=""font-size:3rem"">Trial 12 of 12</p><br><br><br>",0,fwdspan,start_trial,qmRyHL1bXwaTUZSwuUu1cycHB5y2,html-button-response,140,625638,0.0-7.0-2.11-0.11-0.11,,,,,,,57c74977b23f0e000182dc3f,11:23:41,15/01/2024
,"<p style=""font-size:14rem;font-weight:400;"">7</p>",,fwdspan,number,qmRyHL1bXwaTUZSwuUu1cycHB5y2,html-keyboard-response,141,626640,0.0-7.0-2.11-0.11-1.75-0.75,,,,,,,57c74977b23f0e000182dc3f,11:23:41,15/01/2024
,"<p style=""font-size:14rem;font-weight:400;"">5</p>",,fwdspan,number,qmRyHL1bXwaTUZSwuUu1cycHB5y2,html-keyboard-response,142,627642,0.0-7.0-2.11-0.11-1.76-0.76,,,,,,,57c74977b23f0e000182dc3f,11:23:41,15/01/2024
,"<p style=""font-size:14rem;font-weight:400;"">9</p>",,fwdspan,number,qmRyHL1bXwaTUZSwuUu1cycHB5y2,html-keyboard-response,143,628644,0.0-7.0-2.11-0.11-1.77-0.77,,,,,,,57c74977b23f0e000182dc3f,11:23:41,15/01/2024
,"<p style=""font-size:14rem;font-weight:400;"">1</p>",,fwdspan,number,qmRyHL1bXwaTUZSwuUu1cycHB5y2,html-keyboard-response,144,629646,0.0-7.0-2.11-0.11-1.78-0.78,,,,,,,57c74977b23f0e000182dc3f,11:23:41,15/01/2024
,"<p style=""font-size:14rem;font-weight:400;"">3</p>",,fwdspan,number,qmRyHL1bXwaTUZSwuUu1cycHB5y2,html-keyboard-response,145,630647,0.0-7.0-2.11-0.11-1.79-0.79,,,,,,,57c74977b23f0e000182dc3f,11:23:41,15/01/2024
,"<p style=""font-size:14rem;font-weight:400;"">4</p>",,fwdspan,number,qmRyHL1bXwaTUZSwuUu1cycHB5y2,html-keyboard-response,146,631649,0.0-7.0-2.11-0.11-1.80-0.80,,,,,,,57c74977b23f0e000182dc3f,11:23:41,15/01/2024
,"<p style=""font-size:14rem;font-weight:400;"">8</p>",,fwdspan,number,qmRyHL1bXwaTUZSwuUu1cycHB5y2,html-keyboard-response,147,632650,0.0-7.0-2.11-0.11-1.81-0.81,,,,,,,57c74977b23f0e000182dc3f,11:23:41,15/01/2024
,"<p style=""font-size:14rem;font-weight:400;"">6</p>",,fwdspan,number,qmRyHL1bXwaTUZSwuUu1cycHB5y2,html-keyboard-response,148,633652,0.0-7.0-2.11-0.11-1.82-0.82,,,,,,,57c74977b23f0e000182dc3f,11:23:41,15/01/2024
,"<p style=""font-size:14rem;font-weight:400;"">2</p>",,fwdspan,number,qmRyHL1bXwaTUZSwuUu1cycHB5y2,html-keyboard-response,149,634654,0.0-7.0-2.11-0.11-1.83-0.83,,,,,,,57c74977b23f0e000182dc3f,11:23:41,15/01/2024
,[],,fwdspan,delay,qmRyHL1bXwaTUZSwuUu1cycHB5y2,html-keyboard-response,150,635206,0.0-7.0-2.11-0.11-2.11,,,,,,,57c74977b23f0e000182dc3f,11:23:41,15/01/2024
8959.90000000014,"<div class = numbox><p style=""font-size:2.5rem"">What were the numbers <b>in order</b>?<br>(When you are ready to lock in your answer, press <b>ENTER</b>)</p><button id = button_1 class = ""square num-button"" onclick = ""recordClick(this)""><div class = content><div class = numbers>1</div></div></button><button id = button_2 class = ""square num-button"" onclick = ""recordClick(this)""><div class = content><div class = numbers>2</div></div></button><button id = button_3 class = ""square num-button"" onclick = ""recordClick(this)""><div class = content><div class = numbers>3</div></div></button><button id = button_4 class = ""square num-button"" onclick = ""recordClick(this)""><div class = content><div class = numbers>4</div></div></button><button id = button_5 class = ""square num-button"" onclick = ""recordClick(this)""><div class = content><div class = numbers>5</div></div></button><button id = button_6 class = ""square num-button"" onclick = ""recordClick(this)""><div class = content><div class = numbers>6</div></div></button><button id = button_7 class = ""square num-button"" onclick = ""recordClick(this)""><div class = content><div class = numbers>7</div></div></button><button id = button_8 class = ""square num-button"" onclick = ""recordClick(this)""><div class = content><div class = numbers>8</div></div></button><button id = button_9 class = ""square num-button"" onclick = ""recordClick(this)""><div class = content><div class = numbers>9</div></div></button><button class = clear_button id = ""ClearButton"" onclick = ""clearResponse()"">Clear</button><p><u><b>Current Answer:</b></u></p><div id=echoed_txt style=""font-size: 6rem; color:blue;""><b></b></div></div><br><br><br><br><br><br><br>",enter,fwdspan,response,qmRyHL1bXwaTUZSwuUu1cycHB5y2,html-keyboard-response,151,644168,0.0-7.0-2.11-0.11-3.11,9.0,"[7,5,9,1,3,4,8,6,9,2]","[7,5,9,1,3,4,8,6,2]",0.0,"[3, 4, 5, 6, 7, 8, 8, 9, 9, 8, 8, 9]",,57c74977b23f0e000182dc3f,11:23:41,15/01/2024
,,,fwdspan,update_span,qmRyHL1bXwaTUZSwuUu1cycHB5y2,call-function,152,644422,0.0-7.0-2.11-0.11-4.11,,,,,,,57c74977b23f0e000182dc3f,11:23:41,15/01/2024
39904.10000000009,,{'Q0': 'The memory part was fun! Would have been good to see how many were correct otherwise it was fine.'},fwdspan,survey,qmRyHL1bXwaTUZSwuUu1cycHB5y2,lmdlab-survey-text,153,685078,0.0-7.0-3.0,,,,,,qmRyHL1bXwaTUZSwuUu1cycHB5y2,57c74977b23f0e000182dc3f,11:23:41,15/01/2024
3424.399999999907,<p><p style='font-size: 3rem'>Great work!<br><br>This completes the digit span task.</p><br><br><br>,0,fwdspan,finish,qmRyHL1bXwaTUZSwuUu1cycHB5y2,html-button-response,154,688508,0.0-7.0-4.0,,,,,,,57c74977b23f0e000182dc3f,11:23:41,15/01/2024
