rt,stimulus,response,exp_name,exp_stage,subjectID,trial_type,trial_index,time_elapsed,internal_node_id,span,answer,correct,correct_full,span_history,databaseID,prolificID,start_time,date
7763.0,"<p style=""font-size:4rem""><br><br>In the next part today, we have a completely different short task.<br><br><br>This part involves keeping numbers in you mind. Participation takes around 5 minutes.<br><br><br></p>",0,fwdspan,instruct,zHSpiqhdP4XJ1GLPYJFqIgMOMK13,html-button-response,19,368771,0.0-7.0-0.0,,,,,,,65312f9c58a9134cb73ccda1,12:23:06 PM,1/15/2024
75233.1000000001,"<p style=""font-size:5rem"">Welcome to the <b>digit span task</b>!<br><br></p><p style=""font-size:3.4rem""><br>On each trial, you will see a sequence of digits, followed by a delay.</p><p style=""font-size:3.4rem""><br>Then you will be asked to type them back in the same order in which they were seen.</p><p style=""font-size:3.4rem""><br><br><br>For example, if you saw the digits <b style=""color:blue;"">1</b>, <b style=""color:blue;"">2</b>, <b style=""color:blue;"">3</b>, you would respond with <b style=""color:blue;"">1</b>, <b style=""color:blue;"">2</b>, <b style=""color:blue;"">3</b></p><p style=""font-size:3.4rem""><br><br><br>To ensure the best measure of true performance for our study,<br><br>it is very important that you do not use any memory aid (e.g., pen and paper).<br><br>Please do the task solely in your head.</p><p style=""font-size:3.4rem""><br><br><br>There will be 12 total trials. Participation takes around 5 minutes.</p><br><br><br>",0,fwdspan,instruct,zHSpiqhdP4XJ1GLPYJFqIgMOMK13,html-button-response,20,444005,0.0-7.0-1.0,,,,,,,65312f9c58a9134cb73ccda1,12:23:06 PM,1/15/2024
2692.600000000093,"<p style=""font-size:3rem"">Trial 1 of 12</p><br><br><br>",0,fwdspan,start_trial,zHSpiqhdP4XJ1GLPYJFqIgMOMK13,html-button-response,21,446699,0.0-7.0-2.0-0.0-0.0,,,,,,,65312f9c58a9134cb73ccda1,12:23:06 PM,1/15/2024
,"<p style=""font-size:14rem;font-weight:400;"">9</p>",,fwdspan,number,zHSpiqhdP4XJ1GLPYJFqIgMOMK13,html-keyboard-response,22,447729,0.0-7.0-2.0-0.0-1.0-0.0,,,,,,,65312f9c58a9134cb73ccda1,12:23:06 PM,1/15/2024
,"<p style=""font-size:14rem;font-weight:400;"">1</p>",,fwdspan,number,zHSpiqhdP4XJ1GLPYJFqIgMOMK13,html-keyboard-response,23,448745,0.0-7.0-2.0-0.0-1.1-0.1,,,,,,,65312f9c58a9134cb73ccda1,12:23:06 PM,1/15/2024
,"<p style=""font-size:14rem;font-weight:400;"">4</p>",,fwdspan,number,zHSpiqhdP4XJ1GLPYJFqIgMOMK13,html-keyboard-response,24,449762,0.0-7.0-2.0-0.0-1.2-0.2,,,,,,,65312f9c58a9134cb73ccda1,12:23:06 PM,1/15/2024
,[],,fwdspan,delay,zHSpiqhdP4XJ1GLPYJFqIgMOMK13,html-keyboard-response,25,450317,0.0-7.0-2.0-0.0-2.0,,,,,,,65312f9c58a9134cb73ccda1,12:23:06 PM,1/15/2024
14007.5,"<div class = numbox><p style=""font-size:2.5rem"">What were the numbers <b>in order</b>?<br>(When you are ready to lock in your answer, press <b>ENTER</b>)</p><button id = button_1 class = ""square num-button"" onclick = ""recordClick(this)""><div class = content><div class = numbers>1</div></div></button><button id = button_2 class = ""square num-button"" onclick = ""recordClick(this)""><div class = content><div class = numbers>2</div></div></button><button id = button_3 class = ""square num-button"" onclick = ""recordClick(this)""><div class = content><div class = numbers>3</div></div></button><button id = button_4 class = ""square num-button"" onclick = ""recordClick(this)""><div class = content><div class = numbers>4</div></div></button><button id = button_5 class = ""square num-button"" onclick = ""recordClick(this)""><div class = content><div class = numbers>5</div></div></button><button id = button_6 class = ""square num-button"" onclick = ""recordClick(this)""><div class = content><div class = numbers>6</div></div></button><button id = button_7 class = ""square num-button"" onclick = ""recordClick(this)""><div class = content><div class = numbers>7</div></div></button><button id = button_8 class = ""square num-button"" onclick = ""recordClick(this)""><div class = content><div class = numbers>8</div></div></button><button id = button_9 class = ""square num-button"" onclick = ""recordClick(this)""><div class = content><div class = numbers>9</div></div></button><button class = clear_button id = ""ClearButton"" onclick = ""clearResponse()"">Clear</button><p><u><b>Current Answer:</b></u></p><div id=echoed_txt style=""font-size: 6rem; color:blue;""><b></b></div></div><br><br><br><br><br><br><br>",enter,fwdspan,response,zHSpiqhdP4XJ1GLPYJFqIgMOMK13,html-keyboard-response,26,464326,0.0-7.0-2.0-0.0-3.0,3.0,"[9,1,4]","[9,1,4]",1.0,"[3, 4, 5, 6, 7, 8, 9, 10, 11, 11, 12, 13]",,65312f9c58a9134cb73ccda1,12:23:06 PM,1/15/2024
,,,fwdspan,update_span,zHSpiqhdP4XJ1GLPYJFqIgMOMK13,call-function,27,464578,0.0-7.0-2.0-0.0-4.0,,,,,,,65312f9c58a9134cb73ccda1,12:23:06 PM,1/15/2024
1129.7000000001863,"<p style=""font-size:3rem"">Trial 2 of 12</p><br><br><br>",0,fwdspan,start_trial,zHSpiqhdP4XJ1GLPYJFqIgMOMK13,html-button-response,28,465709,0.0-7.0-2.1-0.1-0.1,,,,,,,65312f9c58a9134cb73ccda1,12:23:06 PM,1/15/2024
,"<p style=""font-size:14rem;font-weight:400;"">7</p>",,fwdspan,number,zHSpiqhdP4XJ1GLPYJFqIgMOMK13,html-keyboard-response,29,466726,0.0-7.0-2.1-0.1-1.3-0.3,,,,,,,65312f9c58a9134cb73ccda1,12:23:06 PM,1/15/2024
,"<p style=""font-size:14rem;font-weight:400;"">9</p>",,fwdspan,number,zHSpiqhdP4XJ1GLPYJFqIgMOMK13,html-keyboard-response,30,467740,0.0-7.0-2.1-0.1-1.4-0.4,,,,,,,65312f9c58a9134cb73ccda1,12:23:06 PM,1/15/2024
,"<p style=""font-size:14rem;font-weight:400;"">6</p>",,fwdspan,number,zHSpiqhdP4XJ1GLPYJFqIgMOMK13,html-keyboard-response,31,468755,0.0-7.0-2.1-0.1-1.5-0.5,,,,,,,65312f9c58a9134cb73ccda1,12:23:06 PM,1/15/2024
,"<p style=""font-size:14rem;font-weight:400;"">4</p>",,fwdspan,number,zHSpiqhdP4XJ1GLPYJFqIgMOMK13,html-keyboard-response,32,469776,0.0-7.0-2.1-0.1-1.6-0.6,,,,,,,65312f9c58a9134cb73ccda1,12:23:06 PM,1/15/2024
,[],,fwdspan,delay,zHSpiqhdP4XJ1GLPYJFqIgMOMK13,html-keyboard-response,33,470347,0.0-7.0-2.1-0.1-2.1,,,,,,,65312f9c58a9134cb73ccda1,12:23:06 PM,1/15/2024
5821.799999999814,"<div class = numbox><p style=""font-size:2.5rem"">What were the numbers <b>in order</b>?<br>(When you are ready to lock in your answer, press <b>ENTER</b>)</p><button id = button_1 class = ""square num-button"" onclick = ""recordClick(this)""><div class = content><div class = numbers>1</div></div></button><button id = button_2 class = ""square num-button"" onclick = ""recordClick(this)""><div class = content><div class = numbers>2</div></div></button><button id = button_3 class = ""square num-button"" onclick = ""recordClick(this)""><div class = content><div class = numbers>3</div></div></button><button id = button_4 class = ""square num-button"" onclick = ""recordClick(this)""><div class = content><div class = numbers>4</div></div></button><button id = button_5 class = ""square num-button"" onclick = ""recordClick(this)""><div class = content><div class = numbers>5</div></div></button><button id = button_6 class = ""square num-button"" onclick = ""recordClick(this)""><div class = content><div class = numbers>6</div></div></button><button id = button_7 class = ""square num-button"" onclick = ""recordClick(this)""><div class = content><div class = numbers>7</div></div></button><button id = button_8 class = ""square num-button"" onclick = ""recordClick(this)""><div class = content><div class = numbers>8</div></div></button><button id = button_9 class = ""square num-button"" onclick = ""recordClick(this)""><div class = content><div class = numbers>9</div></div></button><button class = clear_button id = ""ClearButton"" onclick = ""clearResponse()"">Clear</button><p><u><b>Current Answer:</b></u></p><div id=echoed_txt style=""font-size: 6rem; color:blue;""><b></b></div></div><br><br><br><br><br><br><br>",enter,fwdspan,response,zHSpiqhdP4XJ1GLPYJFqIgMOMK13,html-keyboard-response,34,476170,0.0-7.0-2.1-0.1-3.1,4.0,"[7,9,6,4]","[7,9,6,4]",1.0,"[3, 4, 5, 6, 7, 8, 9, 10, 11, 11, 12, 13]",,65312f9c58a9134cb73ccda1,12:23:06 PM,1/15/2024
,,,fwdspan,update_span,zHSpiqhdP4XJ1GLPYJFqIgMOMK13,call-function,35,476432,0.0-7.0-2.1-0.1-4.1,,,,,,,65312f9c58a9134cb73ccda1,12:23:06 PM,1/15/2024
1942.2000000001863,"<p style=""font-size:3rem"">Trial 3 of 12</p><br><br><br>",0,fwdspan,start_trial,zHSpiqhdP4XJ1GLPYJFqIgMOMK13,html-button-response,36,478375,0.0-7.0-2.2-0.2-0.2,,,,,,,65312f9c58a9134cb73ccda1,12:23:06 PM,1/15/2024
,"<p style=""font-size:14rem;font-weight:400;"">6</p>",,fwdspan,number,zHSpiqhdP4XJ1GLPYJFqIgMOMK13,html-keyboard-response,37,479389,0.0-7.0-2.2-0.2-1.7-0.7,,,,,,,65312f9c58a9134cb73ccda1,12:23:06 PM,1/15/2024
,"<p style=""font-size:14rem;font-weight:400;"">5</p>",,fwdspan,number,zHSpiqhdP4XJ1GLPYJFqIgMOMK13,html-keyboard-response,38,480411,0.0-7.0-2.2-0.2-1.8-0.8,,,,,,,65312f9c58a9134cb73ccda1,12:23:06 PM,1/15/2024
,"<p style=""font-size:14rem;font-weight:400;"">8</p>",,fwdspan,number,zHSpiqhdP4XJ1GLPYJFqIgMOMK13,html-keyboard-response,39,481430,0.0-7.0-2.2-0.2-1.9-0.9,,,,,,,65312f9c58a9134cb73ccda1,12:23:06 PM,1/15/2024
,"<p style=""font-size:14rem;font-weight:400;"">4</p>",,fwdspan,number,zHSpiqhdP4XJ1GLPYJFqIgMOMK13,html-keyboard-response,40,482446,0.0-7.0-2.2-0.2-1.10-0.10,,,,,,,65312f9c58a9134cb73ccda1,12:23:06 PM,1/15/2024
,"<p style=""font-size:14rem;font-weight:400;"">1</p>",,fwdspan,number,zHSpiqhdP4XJ1GLPYJFqIgMOMK13,html-keyboard-response,41,483461,0.0-7.0-2.2-0.2-1.11-0.11,,,,,,,65312f9c58a9134cb73ccda1,12:23:06 PM,1/15/2024
,[],,fwdspan,delay,zHSpiqhdP4XJ1GLPYJFqIgMOMK13,html-keyboard-response,42,484028,0.0-7.0-2.2-0.2-2.2,,,,,,,65312f9c58a9134cb73ccda1,12:23:06 PM,1/15/2024
5919.5,"<div class = numbox><p style=""font-size:2.5rem"">What were the numbers <b>in order</b>?<br>(When you are ready to lock in your answer, press <b>ENTER</b>)</p><button id = button_1 class = ""square num-button"" onclick = ""recordClick(this)""><div class = content><div class = numbers>1</div></div></button><button id = button_2 class = ""square num-button"" onclick = ""recordClick(this)""><div class = content><div class = numbers>2</div></div></button><button id = button_3 class = ""square num-button"" onclick = ""recordClick(this)""><div class = content><div class = numbers>3</div></div></button><button id = button_4 class = ""square num-button"" onclick = ""recordClick(this)""><div class = content><div class = numbers>4</div></div></button><button id = button_5 class = ""square num-button"" onclick = ""recordClick(this)""><div class = content><div class = numbers>5</div></div></button><button id = button_6 class = ""square num-button"" onclick = ""recordClick(this)""><div class = content><div class = numbers>6</div></div></button><button id = button_7 class = ""square num-button"" onclick = ""recordClick(this)""><div class = content><div class = numbers>7</div></div></button><button id = button_8 class = ""square num-button"" onclick = ""recordClick(this)""><div class = content><div class = numbers>8</div></div></button><button id = button_9 class = ""square num-button"" onclick = ""recordClick(this)""><div class = content><div class = numbers>9</div></div></button><button class = clear_button id = ""ClearButton"" onclick = ""clearResponse()"">Clear</button><p><u><b>Current Answer:</b></u></p><div id=echoed_txt style=""font-size: 6rem; color:blue;""><b></b></div></div><br><br><br><br><br><br><br>",enter,fwdspan,response,zHSpiqhdP4XJ1GLPYJFqIgMOMK13,html-keyboard-response,43,489949,0.0-7.0-2.2-0.2-3.2,5.0,"[6,5,8,4,1]","[6,5,8,4,1]",1.0,"[3, 4, 5, 6, 7, 8, 9, 10, 11, 11, 12, 13]",,65312f9c58a9134cb73ccda1,12:23:06 PM,1/15/2024
,,,fwdspan,update_span,zHSpiqhdP4XJ1GLPYJFqIgMOMK13,call-function,44,490209,0.0-7.0-2.2-0.2-4.2,,,,,,,65312f9c58a9134cb73ccda1,12:23:06 PM,1/15/2024
1457.8999999999069,"<p style=""font-size:3rem"">Trial 4 of 12</p><br><br><br>",0,fwdspan,start_trial,zHSpiqhdP4XJ1GLPYJFqIgMOMK13,html-button-response,45,491668,0.0-7.0-2.3-0.3-0.3,,,,,,,65312f9c58a9134cb73ccda1,12:23:06 PM,1/15/2024
,"<p style=""font-size:14rem;font-weight:400;"">5</p>",,fwdspan,number,zHSpiqhdP4XJ1GLPYJFqIgMOMK13,html-keyboard-response,46,492674,0.0-7.0-2.3-0.3-1.12-0.12,,,,,,,65312f9c58a9134cb73ccda1,12:23:06 PM,1/15/2024
,"<p style=""font-size:14rem;font-weight:400;"">3</p>",,fwdspan,number,zHSpiqhdP4XJ1GLPYJFqIgMOMK13,html-keyboard-response,47,493693,0.0-7.0-2.3-0.3-1.13-0.13,,,,,,,65312f9c58a9134cb73ccda1,12:23:06 PM,1/15/2024
,"<p style=""font-size:14rem;font-weight:400;"">7</p>",,fwdspan,number,zHSpiqhdP4XJ1GLPYJFqIgMOMK13,html-keyboard-response,48,494724,0.0-7.0-2.3-0.3-1.14-0.14,,,,,,,65312f9c58a9134cb73ccda1,12:23:06 PM,1/15/2024
,"<p style=""font-size:14rem;font-weight:400;"">9</p>",,fwdspan,number,zHSpiqhdP4XJ1GLPYJFqIgMOMK13,html-keyboard-response,49,495749,0.0-7.0-2.3-0.3-1.15-0.15,,,,,,,65312f9c58a9134cb73ccda1,12:23:06 PM,1/15/2024
,"<p style=""font-size:14rem;font-weight:400;"">8</p>",,fwdspan,number,zHSpiqhdP4XJ1GLPYJFqIgMOMK13,html-keyboard-response,50,496766,0.0-7.0-2.3-0.3-1.16-0.16,,,,,,,65312f9c58a9134cb73ccda1,12:23:06 PM,1/15/2024
,"<p style=""font-size:14rem;font-weight:400;"">6</p>",,fwdspan,number,zHSpiqhdP4XJ1GLPYJFqIgMOMK13,html-keyboard-response,51,497785,0.0-7.0-2.3-0.3-1.17-0.17,,,,,,,65312f9c58a9134cb73ccda1,12:23:06 PM,1/15/2024
,[],,fwdspan,delay,zHSpiqhdP4XJ1GLPYJFqIgMOMK13,html-keyboard-response,52,498345,0.0-7.0-2.3-0.3-2.3,,,,,,,65312f9c58a9134cb73ccda1,12:23:06 PM,1/15/2024
20929.69999999972,"<div class = numbox><p style=""font-size:2.5rem"">What were the numbers <b>in order</b>?<br>(When you are ready to lock in your answer, press <b>ENTER</b>)</p><button id = button_1 class = ""square num-button"" onclick = ""recordClick(this)""><div class = content><div class = numbers>1</div></div></button><button id = button_2 class = ""square num-button"" onclick = ""recordClick(this)""><div class = content><div class = numbers>2</div></div></button><button id = button_3 class = ""square num-button"" onclick = ""recordClick(this)""><div class = content><div class = numbers>3</div></div></button><button id = button_4 class = ""square num-button"" onclick = ""recordClick(this)""><div class = content><div class = numbers>4</div></div></button><button id = button_5 class = ""square num-button"" onclick = ""recordClick(this)""><div class = content><div class = numbers>5</div></div></button><button id = button_6 class = ""square num-button"" onclick = ""recordClick(this)""><div class = content><div class = numbers>6</div></div></button><button id = button_7 class = ""square num-button"" onclick = ""recordClick(this)""><div class = content><div class = numbers>7</div></div></button><button id = button_8 class = ""square num-button"" onclick = ""recordClick(this)""><div class = content><div class = numbers>8</div></div></button><button id = button_9 class = ""square num-button"" onclick = ""recordClick(this)""><div class = content><div class = numbers>9</div></div></button><button class = clear_button id = ""ClearButton"" onclick = ""clearResponse()"">Clear</button><p><u><b>Current Answer:</b></u></p><div id=echoed_txt style=""font-size: 6rem; color:blue;""><b></b></div></div><br><br><br><br><br><br><br>",enter,fwdspan,response,zHSpiqhdP4XJ1GLPYJFqIgMOMK13,html-keyboard-response,53,519276,0.0-7.0-2.3-0.3-3.3,6.0,"[5,3,7,9,8,6]","[5,3,7,9,8,6]",1.0,"[3, 4, 5, 6, 7, 8, 9, 10, 11, 11, 12, 13]",,65312f9c58a9134cb73ccda1,12:23:06 PM,1/15/2024
,,,fwdspan,update_span,zHSpiqhdP4XJ1GLPYJFqIgMOMK13,call-function,54,519535,0.0-7.0-2.3-0.3-4.3,,,,,,,65312f9c58a9134cb73ccda1,12:23:06 PM,1/15/2024
4467.0,"<p style=""font-size:3rem"">Trial 5 of 12</p><br><br><br>",0,fwdspan,start_trial,zHSpiqhdP4XJ1GLPYJFqIgMOMK13,html-button-response,55,524003,0.0-7.0-2.4-0.4-0.4,,,,,,,65312f9c58a9134cb73ccda1,12:23:06 PM,1/15/2024
,"<p style=""font-size:14rem;font-weight:400;"">1</p>",,fwdspan,number,zHSpiqhdP4XJ1GLPYJFqIgMOMK13,html-keyboard-response,56,525027,0.0-7.0-2.4-0.4-1.18-0.18,,,,,,,65312f9c58a9134cb73ccda1,12:23:06 PM,1/15/2024
,"<p style=""font-size:14rem;font-weight:400;"">2</p>",,fwdspan,number,zHSpiqhdP4XJ1GLPYJFqIgMOMK13,html-keyboard-response,57,526035,0.0-7.0-2.4-0.4-1.19-0.19,,,,,,,65312f9c58a9134cb73ccda1,12:23:06 PM,1/15/2024
,"<p style=""font-size:14rem;font-weight:400;"">9</p>",,fwdspan,number,zHSpiqhdP4XJ1GLPYJFqIgMOMK13,html-keyboard-response,58,527050,0.0-7.0-2.4-0.4-1.20-0.20,,,,,,,65312f9c58a9134cb73ccda1,12:23:06 PM,1/15/2024
,"<p style=""font-size:14rem;font-weight:400;"">7</p>",,fwdspan,number,zHSpiqhdP4XJ1GLPYJFqIgMOMK13,html-keyboard-response,59,528079,0.0-7.0-2.4-0.4-1.21-0.21,,,,,,,65312f9c58a9134cb73ccda1,12:23:06 PM,1/15/2024
,"<p style=""font-size:14rem;font-weight:400;"">5</p>",,fwdspan,number,zHSpiqhdP4XJ1GLPYJFqIgMOMK13,html-keyboard-response,60,529093,0.0-7.0-2.4-0.4-1.22-0.22,,,,,,,65312f9c58a9134cb73ccda1,12:23:06 PM,1/15/2024
,"<p style=""font-size:14rem;font-weight:400;"">4</p>",,fwdspan,number,zHSpiqhdP4XJ1GLPYJFqIgMOMK13,html-keyboard-response,61,530115,0.0-7.0-2.4-0.4-1.23-0.23,,,,,,,65312f9c58a9134cb73ccda1,12:23:06 PM,1/15/2024
,"<p style=""font-size:14rem;font-weight:400;"">8</p>",,fwdspan,number,zHSpiqhdP4XJ1GLPYJFqIgMOMK13,html-keyboard-response,62,531132,0.0-7.0-2.4-0.4-1.24-0.24,,,,,,,65312f9c58a9134cb73ccda1,12:23:06 PM,1/15/2024
,[],,fwdspan,delay,zHSpiqhdP4XJ1GLPYJFqIgMOMK13,html-keyboard-response,63,531699,0.0-7.0-2.4-0.4-2.4,,,,,,,65312f9c58a9134cb73ccda1,12:23:06 PM,1/15/2024
16742.799999999814,"<div class = numbox><p style=""font-size:2.5rem"">What were the numbers <b>in order</b>?<br>(When you are ready to lock in your answer, press <b>ENTER</b>)</p><button id = button_1 class = ""square num-button"" onclick = ""recordClick(this)""><div class = content><div class = numbers>1</div></div></button><button id = button_2 class = ""square num-button"" onclick = ""recordClick(this)""><div class = content><div class = numbers>2</div></div></button><button id = button_3 class = ""square num-button"" onclick = ""recordClick(this)""><div class = content><div class = numbers>3</div></div></button><button id = button_4 class = ""square num-button"" onclick = ""recordClick(this)""><div class = content><div class = numbers>4</div></div></button><button id = button_5 class = ""square num-button"" onclick = ""recordClick(this)""><div class = content><div class = numbers>5</div></div></button><button id = button_6 class = ""square num-button"" onclick = ""recordClick(this)""><div class = content><div class = numbers>6</div></div></button><button id = button_7 class = ""square num-button"" onclick = ""recordClick(this)""><div class = content><div class = numbers>7</div></div></button><button id = button_8 class = ""square num-button"" onclick = ""recordClick(this)""><div class = content><div class = numbers>8</div></div></button><button id = button_9 class = ""square num-button"" onclick = ""recordClick(this)""><div class = content><div class = numbers>9</div></div></button><button class = clear_button id = ""ClearButton"" onclick = ""clearResponse()"">Clear</button><p><u><b>Current Answer:</b></u></p><div id=echoed_txt style=""font-size: 6rem; color:blue;""><b></b></div></div><br><br><br><br><br><br><br>",enter,fwdspan,response,zHSpiqhdP4XJ1GLPYJFqIgMOMK13,html-keyboard-response,64,548443,0.0-7.0-2.4-0.4-3.4,7.0,"[1,2,9,7,5,4,8]","[1,2,9,7,5,4,8]",1.0,"[3, 4, 5, 6, 7, 8, 9, 10, 11, 11, 12, 13]",,65312f9c58a9134cb73ccda1,12:23:06 PM,1/15/2024
,,,fwdspan,update_span,zHSpiqhdP4XJ1GLPYJFqIgMOMK13,call-function,65,548705,0.0-7.0-2.4-0.4-4.4,,,,,,,65312f9c58a9134cb73ccda1,12:23:06 PM,1/15/2024
1742.3999999999069,"<p style=""font-size:3rem"">Trial 6 of 12</p><br><br><br>",0,fwdspan,start_trial,zHSpiqhdP4XJ1GLPYJFqIgMOMK13,html-button-response,66,550448,0.0-7.0-2.5-0.5-0.5,,,,,,,65312f9c58a9134cb73ccda1,12:23:06 PM,1/15/2024
,"<p style=""font-size:14rem;font-weight:400;"">4</p>",,fwdspan,number,zHSpiqhdP4XJ1GLPYJFqIgMOMK13,html-keyboard-response,67,551461,0.0-7.0-2.5-0.5-1.25-0.25,,,,,,,65312f9c58a9134cb73ccda1,12:23:06 PM,1/15/2024
,"<p style=""font-size:14rem;font-weight:400;"">1</p>",,fwdspan,number,zHSpiqhdP4XJ1GLPYJFqIgMOMK13,html-keyboard-response,68,552481,0.0-7.0-2.5-0.5-1.26-0.26,,,,,,,65312f9c58a9134cb73ccda1,12:23:06 PM,1/15/2024
,"<p style=""font-size:14rem;font-weight:400;"">6</p>",,fwdspan,number,zHSpiqhdP4XJ1GLPYJFqIgMOMK13,html-keyboard-response,69,553508,0.0-7.0-2.5-0.5-1.27-0.27,,,,,,,65312f9c58a9134cb73ccda1,12:23:06 PM,1/15/2024
,"<p style=""font-size:14rem;font-weight:400;"">7</p>",,fwdspan,number,zHSpiqhdP4XJ1GLPYJFqIgMOMK13,html-keyboard-response,70,554517,0.0-7.0-2.5-0.5-1.28-0.28,,,,,,,65312f9c58a9134cb73ccda1,12:23:06 PM,1/15/2024
,"<p style=""font-size:14rem;font-weight:400;"">9</p>",,fwdspan,number,zHSpiqhdP4XJ1GLPYJFqIgMOMK13,html-keyboard-response,71,555530,0.0-7.0-2.5-0.5-1.29-0.29,,,,,,,65312f9c58a9134cb73ccda1,12:23:06 PM,1/15/2024
,"<p style=""font-size:14rem;font-weight:400;"">5</p>",,fwdspan,number,zHSpiqhdP4XJ1GLPYJFqIgMOMK13,html-keyboard-response,72,556550,0.0-7.0-2.5-0.5-1.30-0.30,,,,,,,65312f9c58a9134cb73ccda1,12:23:06 PM,1/15/2024
,"<p style=""font-size:14rem;font-weight:400;"">3</p>",,fwdspan,number,zHSpiqhdP4XJ1GLPYJFqIgMOMK13,html-keyboard-response,73,557560,0.0-7.0-2.5-0.5-1.31-0.31,,,,,,,65312f9c58a9134cb73ccda1,12:23:06 PM,1/15/2024
,"<p style=""font-size:14rem;font-weight:400;"">8</p>",,fwdspan,number,zHSpiqhdP4XJ1GLPYJFqIgMOMK13,html-keyboard-response,74,558578,0.0-7.0-2.5-0.5-1.32-0.32,,,,,,,65312f9c58a9134cb73ccda1,12:23:06 PM,1/15/2024
,[],,fwdspan,delay,zHSpiqhdP4XJ1GLPYJFqIgMOMK13,html-keyboard-response,75,559144,0.0-7.0-2.5-0.5-2.5,,,,,,,65312f9c58a9134cb73ccda1,12:23:06 PM,1/15/2024
10525.399999999907,"<div class = numbox><p style=""font-size:2.5rem"">What were the numbers <b>in order</b>?<br>(When you are ready to lock in your answer, press <b>ENTER</b>)</p><button id = button_1 class = ""square num-button"" onclick = ""recordClick(this)""><div class = content><div class = numbers>1</div></div></button><button id = button_2 class = ""square num-button"" onclick = ""recordClick(this)""><div class = content><div class = numbers>2</div></div></button><button id = button_3 class = ""square num-button"" onclick = ""recordClick(this)""><div class = content><div class = numbers>3</div></div></button><button id = button_4 class = ""square num-button"" onclick = ""recordClick(this)""><div class = content><div class = numbers>4</div></div></button><button id = button_5 class = ""square num-button"" onclick = ""recordClick(this)""><div class = content><div class = numbers>5</div></div></button><button id = button_6 class = ""square num-button"" onclick = ""recordClick(this)""><div class = content><div class = numbers>6</div></div></button><button id = button_7 class = ""square num-button"" onclick = ""recordClick(this)""><div class = content><div class = numbers>7</div></div></button><button id = button_8 class = ""square num-button"" onclick = ""recordClick(this)""><div class = content><div class = numbers>8</div></div></button><button id = button_9 class = ""square num-button"" onclick = ""recordClick(this)""><div class = content><div class = numbers>9</div></div></button><button class = clear_button id = ""ClearButton"" onclick = ""clearResponse()"">Clear</button><p><u><b>Current Answer:</b></u></p><div id=echoed_txt style=""font-size: 6rem; color:blue;""><b></b></div></div><br><br><br><br><br><br><br>",enter,fwdspan,response,zHSpiqhdP4XJ1GLPYJFqIgMOMK13,html-keyboard-response,76,569670,0.0-7.0-2.5-0.5-3.5,8.0,"[4,1,6,7,9,5,3,8]","[4,1,6,7,9,5,3,8]",1.0,"[3, 4, 5, 6, 7, 8, 9, 10, 11, 11, 12, 13]",,65312f9c58a9134cb73ccda1,12:23:06 PM,1/15/2024
,,,fwdspan,update_span,zHSpiqhdP4XJ1GLPYJFqIgMOMK13,call-function,77,569924,0.0-7.0-2.5-0.5-4.5,,,,,,,65312f9c58a9134cb73ccda1,12:23:06 PM,1/15/2024
4706.100000000093,"<p style=""font-size:3rem"">Trial 7 of 12</p><br><br><br>",0,fwdspan,start_trial,zHSpiqhdP4XJ1GLPYJFqIgMOMK13,html-button-response,78,574631,0.0-7.0-2.6-0.6-0.6,,,,,,,65312f9c58a9134cb73ccda1,12:23:06 PM,1/15/2024
,"<p style=""font-size:14rem;font-weight:400;"">8</p>",,fwdspan,number,zHSpiqhdP4XJ1GLPYJFqIgMOMK13,html-keyboard-response,79,575647,0.0-7.0-2.6-0.6-1.33-0.33,,,,,,,65312f9c58a9134cb73ccda1,12:23:06 PM,1/15/2024
,"<p style=""font-size:14rem;font-weight:400;"">3</p>",,fwdspan,number,zHSpiqhdP4XJ1GLPYJFqIgMOMK13,html-keyboard-response,80,576656,0.0-7.0-2.6-0.6-1.34-0.34,,,,,,,65312f9c58a9134cb73ccda1,12:23:06 PM,1/15/2024
,"<p style=""font-size:14rem;font-weight:400;"">7</p>",,fwdspan,number,zHSpiqhdP4XJ1GLPYJFqIgMOMK13,html-keyboard-response,81,577687,0.0-7.0-2.6-0.6-1.35-0.35,,,,,,,65312f9c58a9134cb73ccda1,12:23:06 PM,1/15/2024
,"<p style=""font-size:14rem;font-weight:400;"">5</p>",,fwdspan,number,zHSpiqhdP4XJ1GLPYJFqIgMOMK13,html-keyboard-response,82,578703,0.0-7.0-2.6-0.6-1.36-0.36,,,,,,,65312f9c58a9134cb73ccda1,12:23:06 PM,1/15/2024
,"<p style=""font-size:14rem;font-weight:400;"">2</p>",,fwdspan,number,zHSpiqhdP4XJ1GLPYJFqIgMOMK13,html-keyboard-response,83,579716,0.0-7.0-2.6-0.6-1.37-0.37,,,,,,,65312f9c58a9134cb73ccda1,12:23:06 PM,1/15/2024
,"<p style=""font-size:14rem;font-weight:400;"">9</p>",,fwdspan,number,zHSpiqhdP4XJ1GLPYJFqIgMOMK13,html-keyboard-response,84,580745,0.0-7.0-2.6-0.6-1.38-0.38,,,,,,,65312f9c58a9134cb73ccda1,12:23:06 PM,1/15/2024
,"<p style=""font-size:14rem;font-weight:400;"">4</p>",,fwdspan,number,zHSpiqhdP4XJ1GLPYJFqIgMOMK13,html-keyboard-response,85,581766,0.0-7.0-2.6-0.6-1.39-0.39,,,,,,,65312f9c58a9134cb73ccda1,12:23:06 PM,1/15/2024
,"<p style=""font-size:14rem;font-weight:400;"">6</p>",,fwdspan,number,zHSpiqhdP4XJ1GLPYJFqIgMOMK13,html-keyboard-response,86,582786,0.0-7.0-2.6-0.6-1.40-0.40,,,,,,,65312f9c58a9134cb73ccda1,12:23:06 PM,1/15/2024
,"<p style=""font-size:14rem;font-weight:400;"">1</p>",,fwdspan,number,zHSpiqhdP4XJ1GLPYJFqIgMOMK13,html-keyboard-response,87,583798,0.0-7.0-2.6-0.6-1.41-0.41,,,,,,,65312f9c58a9134cb73ccda1,12:23:06 PM,1/15/2024
,[],,fwdspan,delay,zHSpiqhdP4XJ1GLPYJFqIgMOMK13,html-keyboard-response,88,584368,0.0-7.0-2.6-0.6-2.6,,,,,,,65312f9c58a9134cb73ccda1,12:23:06 PM,1/15/2024
11458.700000000186,"<div class = numbox><p style=""font-size:2.5rem"">What were the numbers <b>in order</b>?<br>(When you are ready to lock in your answer, press <b>ENTER</b>)</p><button id = button_1 class = ""square num-button"" onclick = ""recordClick(this)""><div class = content><div class = numbers>1</div></div></button><button id = button_2 class = ""square num-button"" onclick = ""recordClick(this)""><div class = content><div class = numbers>2</div></div></button><button id = button_3 class = ""square num-button"" onclick = ""recordClick(this)""><div class = content><div class = numbers>3</div></div></button><button id = button_4 class = ""square num-button"" onclick = ""recordClick(this)""><div class = content><div class = numbers>4</div></div></button><button id = button_5 class = ""square num-button"" onclick = ""recordClick(this)""><div class = content><div class = numbers>5</div></div></button><button id = button_6 class = ""square num-button"" onclick = ""recordClick(this)""><div class = content><div class = numbers>6</div></div></button><button id = button_7 class = ""square num-button"" onclick = ""recordClick(this)""><div class = content><div class = numbers>7</div></div></button><button id = button_8 class = ""square num-button"" onclick = ""recordClick(this)""><div class = content><div class = numbers>8</div></div></button><button id = button_9 class = ""square num-button"" onclick = ""recordClick(this)""><div class = content><div class = numbers>9</div></div></button><button class = clear_button id = ""ClearButton"" onclick = ""clearResponse()"">Clear</button><p><u><b>Current Answer:</b></u></p><div id=echoed_txt style=""font-size: 6rem; color:blue;""><b></b></div></div><br><br><br><br><br><br><br>",enter,fwdspan,response,zHSpiqhdP4XJ1GLPYJFqIgMOMK13,html-keyboard-response,89,595827,0.0-7.0-2.6-0.6-3.6,9.0,"[8,3,7,5,2,9,4,6,1]","[8,3,7,5,2,9,4,6,1]",1.0,"[3, 4, 5, 6, 7, 8, 9, 10, 11, 11, 12, 13]",,65312f9c58a9134cb73ccda1,12:23:06 PM,1/15/2024
,,,fwdspan,update_span,zHSpiqhdP4XJ1GLPYJFqIgMOMK13,call-function,90,596091,0.0-7.0-2.6-0.6-4.6,,,,,,,65312f9c58a9134cb73ccda1,12:23:06 PM,1/15/2024
2953.0,"<p style=""font-size:3rem"">Trial 8 of 12</p><br><br><br>",0,fwdspan,start_trial,zHSpiqhdP4XJ1GLPYJFqIgMOMK13,html-button-response,91,599045,0.0-7.0-2.7-0.7-0.7,,,,,,,65312f9c58a9134cb73ccda1,12:23:06 PM,1/15/2024
,"<p style=""font-size:14rem;font-weight:400;"">4</p>",,fwdspan,number,zHSpiqhdP4XJ1GLPYJFqIgMOMK13,html-keyboard-response,92,600063,0.0-7.0-2.7-0.7-1.42-0.42,,,,,,,65312f9c58a9134cb73ccda1,12:23:06 PM,1/15/2024
,"<p style=""font-size:14rem;font-weight:400;"">7</p>",,fwdspan,number,zHSpiqhdP4XJ1GLPYJFqIgMOMK13,html-keyboard-response,93,601077,0.0-7.0-2.7-0.7-1.43-0.43,,,,,,,65312f9c58a9134cb73ccda1,12:23:06 PM,1/15/2024
,"<p style=""font-size:14rem;font-weight:400;"">3</p>",,fwdspan,number,zHSpiqhdP4XJ1GLPYJFqIgMOMK13,html-keyboard-response,94,602088,0.0-7.0-2.7-0.7-1.44-0.44,,,,,,,65312f9c58a9134cb73ccda1,12:23:06 PM,1/15/2024
,"<p style=""font-size:14rem;font-weight:400;"">2</p>",,fwdspan,number,zHSpiqhdP4XJ1GLPYJFqIgMOMK13,html-keyboard-response,95,603108,0.0-7.0-2.7-0.7-1.45-0.45,,,,,,,65312f9c58a9134cb73ccda1,12:23:06 PM,1/15/2024
,"<p style=""font-size:14rem;font-weight:400;"">1</p>",,fwdspan,number,zHSpiqhdP4XJ1GLPYJFqIgMOMK13,html-keyboard-response,96,604129,0.0-7.0-2.7-0.7-1.46-0.46,,,,,,,65312f9c58a9134cb73ccda1,12:23:06 PM,1/15/2024
,"<p style=""font-size:14rem;font-weight:400;"">9</p>",,fwdspan,number,zHSpiqhdP4XJ1GLPYJFqIgMOMK13,html-keyboard-response,97,605147,0.0-7.0-2.7-0.7-1.47-0.47,,,,,,,65312f9c58a9134cb73ccda1,12:23:06 PM,1/15/2024
,"<p style=""font-size:14rem;font-weight:400;"">5</p>",,fwdspan,number,zHSpiqhdP4XJ1GLPYJFqIgMOMK13,html-keyboard-response,98,606159,0.0-7.0-2.7-0.7-1.48-0.48,,,,,,,65312f9c58a9134cb73ccda1,12:23:06 PM,1/15/2024
,"<p style=""font-size:14rem;font-weight:400;"">6</p>",,fwdspan,number,zHSpiqhdP4XJ1GLPYJFqIgMOMK13,html-keyboard-response,99,607182,0.0-7.0-2.7-0.7-1.49-0.49,,,,,,,65312f9c58a9134cb73ccda1,12:23:06 PM,1/15/2024
,"<p style=""font-size:14rem;font-weight:400;"">8</p>",,fwdspan,number,zHSpiqhdP4XJ1GLPYJFqIgMOMK13,html-keyboard-response,100,608199,0.0-7.0-2.7-0.7-1.50-0.50,,,,,,,65312f9c58a9134cb73ccda1,12:23:06 PM,1/15/2024
,"<p style=""font-size:14rem;font-weight:400;"">4</p>",,fwdspan,number,zHSpiqhdP4XJ1GLPYJFqIgMOMK13,html-keyboard-response,101,609217,0.0-7.0-2.7-0.7-1.51-0.51,,,,,,,65312f9c58a9134cb73ccda1,12:23:06 PM,1/15/2024
,[],,fwdspan,delay,zHSpiqhdP4XJ1GLPYJFqIgMOMK13,html-keyboard-response,102,609781,0.0-7.0-2.7-0.7-2.7,,,,,,,65312f9c58a9134cb73ccda1,12:23:06 PM,1/15/2024
16656.80000000028,"<div class = numbox><p style=""font-size:2.5rem"">What were the numbers <b>in order</b>?<br>(When you are ready to lock in your answer, press <b>ENTER</b>)</p><button id = button_1 class = ""square num-button"" onclick = ""recordClick(this)""><div class = content><div class = numbers>1</div></div></button><button id = button_2 class = ""square num-button"" onclick = ""recordClick(this)""><div class = content><div class = numbers>2</div></div></button><button id = button_3 class = ""square num-button"" onclick = ""recordClick(this)""><div class = content><div class = numbers>3</div></div></button><button id = button_4 class = ""square num-button"" onclick = ""recordClick(this)""><div class = content><div class = numbers>4</div></div></button><button id = button_5 class = ""square num-button"" onclick = ""recordClick(this)""><div class = content><div class = numbers>5</div></div></button><button id = button_6 class = ""square num-button"" onclick = ""recordClick(this)""><div class = content><div class = numbers>6</div></div></button><button id = button_7 class = ""square num-button"" onclick = ""recordClick(this)""><div class = content><div class = numbers>7</div></div></button><button id = button_8 class = ""square num-button"" onclick = ""recordClick(this)""><div class = content><div class = numbers>8</div></div></button><button id = button_9 class = ""square num-button"" onclick = ""recordClick(this)""><div class = content><div class = numbers>9</div></div></button><button class = clear_button id = ""ClearButton"" onclick = ""clearResponse()"">Clear</button><p><u><b>Current Answer:</b></u></p><div id=echoed_txt style=""font-size: 6rem; color:blue;""><b></b></div></div><br><br><br><br><br><br><br>",enter,fwdspan,response,zHSpiqhdP4XJ1GLPYJFqIgMOMK13,html-keyboard-response,103,626439,0.0-7.0-2.7-0.7-3.7,10.0,"[4,7,3,2,1,9,5,6,8,4]","[4,7,3,2,1,9,5,6,8,4]",1.0,"[3, 4, 5, 6, 7, 8, 9, 10, 11, 11, 12, 13]",,65312f9c58a9134cb73ccda1,12:23:06 PM,1/15/2024
,,,fwdspan,update_span,zHSpiqhdP4XJ1GLPYJFqIgMOMK13,call-function,104,626694,0.0-7.0-2.7-0.7-4.7,,,,,,,65312f9c58a9134cb73ccda1,12:23:06 PM,1/15/2024
3886.2000000001863,"<p style=""font-size:3rem"">Trial 9 of 12</p><br><br><br>",0,fwdspan,start_trial,zHSpiqhdP4XJ1GLPYJFqIgMOMK13,html-button-response,105,630581,0.0-7.0-2.8-0.8-0.8,,,,,,,65312f9c58a9134cb73ccda1,12:23:06 PM,1/15/2024
,"<p style=""font-size:14rem;font-weight:400;"">8</p>",,fwdspan,number,zHSpiqhdP4XJ1GLPYJFqIgMOMK13,html-keyboard-response,106,631600,0.0-7.0-2.8-0.8-1.52-0.52,,,,,,,65312f9c58a9134cb73ccda1,12:23:06 PM,1/15/2024
,"<p style=""font-size:14rem;font-weight:400;"">7</p>",,fwdspan,number,zHSpiqhdP4XJ1GLPYJFqIgMOMK13,html-keyboard-response,107,632620,0.0-7.0-2.8-0.8-1.53-0.53,,,,,,,65312f9c58a9134cb73ccda1,12:23:06 PM,1/15/2024
,"<p style=""font-size:14rem;font-weight:400;"">3</p>",,fwdspan,number,zHSpiqhdP4XJ1GLPYJFqIgMOMK13,html-keyboard-response,108,633638,0.0-7.0-2.8-0.8-1.54-0.54,,,,,,,65312f9c58a9134cb73ccda1,12:23:06 PM,1/15/2024
,"<p style=""font-size:14rem;font-weight:400;"">4</p>",,fwdspan,number,zHSpiqhdP4XJ1GLPYJFqIgMOMK13,html-keyboard-response,109,634648,0.0-7.0-2.8-0.8-1.55-0.55,,,,,,,65312f9c58a9134cb73ccda1,12:23:06 PM,1/15/2024
,"<p style=""font-size:14rem;font-weight:400;"">2</p>",,fwdspan,number,zHSpiqhdP4XJ1GLPYJFqIgMOMK13,html-keyboard-response,110,635662,0.0-7.0-2.8-0.8-1.56-0.56,,,,,,,65312f9c58a9134cb73ccda1,12:23:06 PM,1/15/2024
,"<p style=""font-size:14rem;font-weight:400;"">9</p>",,fwdspan,number,zHSpiqhdP4XJ1GLPYJFqIgMOMK13,html-keyboard-response,111,636680,0.0-7.0-2.8-0.8-1.57-0.57,,,,,,,65312f9c58a9134cb73ccda1,12:23:06 PM,1/15/2024
,"<p style=""font-size:14rem;font-weight:400;"">1</p>",,fwdspan,number,zHSpiqhdP4XJ1GLPYJFqIgMOMK13,html-keyboard-response,112,637707,0.0-7.0-2.8-0.8-1.58-0.58,,,,,,,65312f9c58a9134cb73ccda1,12:23:06 PM,1/15/2024
,"<p style=""font-size:14rem;font-weight:400;"">5</p>",,fwdspan,number,zHSpiqhdP4XJ1GLPYJFqIgMOMK13,html-keyboard-response,113,638728,0.0-7.0-2.8-0.8-1.59-0.59,,,,,,,65312f9c58a9134cb73ccda1,12:23:06 PM,1/15/2024
,"<p style=""font-size:14rem;font-weight:400;"">6</p>",,fwdspan,number,zHSpiqhdP4XJ1GLPYJFqIgMOMK13,html-keyboard-response,114,639744,0.0-7.0-2.8-0.8-1.60-0.60,,,,,,,65312f9c58a9134cb73ccda1,12:23:06 PM,1/15/2024
,"<p style=""font-size:14rem;font-weight:400;"">3</p>",,fwdspan,number,zHSpiqhdP4XJ1GLPYJFqIgMOMK13,html-keyboard-response,115,640764,0.0-7.0-2.8-0.8-1.61-0.61,,,,,,,65312f9c58a9134cb73ccda1,12:23:06 PM,1/15/2024
,"<p style=""font-size:14rem;font-weight:400;"">8</p>",,fwdspan,number,zHSpiqhdP4XJ1GLPYJFqIgMOMK13,html-keyboard-response,116,641775,0.0-7.0-2.8-0.8-1.62-0.62,,,,,,,65312f9c58a9134cb73ccda1,12:23:06 PM,1/15/2024
,[],,fwdspan,delay,zHSpiqhdP4XJ1GLPYJFqIgMOMK13,html-keyboard-response,117,642358,0.0-7.0-2.8-0.8-2.8,,,,,,,65312f9c58a9134cb73ccda1,12:23:06 PM,1/15/2024
18417.5,"<div class = numbox><p style=""font-size:2.5rem"">What were the numbers <b>in order</b>?<br>(When you are ready to lock in your answer, press <b>ENTER</b>)</p><button id = button_1 class = ""square num-button"" onclick = ""recordClick(this)""><div class = content><div class = numbers>1</div></div></button><button id = button_2 class = ""square num-button"" onclick = ""recordClick(this)""><div class = content><div class = numbers>2</div></div></button><button id = button_3 class = ""square num-button"" onclick = ""recordClick(this)""><div class = content><div class = numbers>3</div></div></button><button id = button_4 class = ""square num-button"" onclick = ""recordClick(this)""><div class = content><div class = numbers>4</div></div></button><button id = button_5 class = ""square num-button"" onclick = ""recordClick(this)""><div class = content><div class = numbers>5</div></div></button><button id = button_6 class = ""square num-button"" onclick = ""recordClick(this)""><div class = content><div class = numbers>6</div></div></button><button id = button_7 class = ""square num-button"" onclick = ""recordClick(this)""><div class = content><div class = numbers>7</div></div></button><button id = button_8 class = ""square num-button"" onclick = ""recordClick(this)""><div class = content><div class = numbers>8</div></div></button><button id = button_9 class = ""square num-button"" onclick = ""recordClick(this)""><div class = content><div class = numbers>9</div></div></button><button class = clear_button id = ""ClearButton"" onclick = ""clearResponse()"">Clear</button><p><u><b>Current Answer:</b></u></p><div id=echoed_txt style=""font-size: 6rem; color:blue;""><b></b></div></div><br><br><br><br><br><br><br>",enter,fwdspan,response,zHSpiqhdP4XJ1GLPYJFqIgMOMK13,html-keyboard-response,118,660777,0.0-7.0-2.8-0.8-3.8,11.0,"[8,7,3,4,2,9,1,3,6,3,8]","[8,7,3,4,2,9,1,5,6,3,8]",0.0,"[3, 4, 5, 6, 7, 8, 9, 10, 11, 11, 12, 13]",,65312f9c58a9134cb73ccda1,12:23:06 PM,1/15/2024
,,,fwdspan,update_span,zHSpiqhdP4XJ1GLPYJFqIgMOMK13,call-function,119,661030,0.0-7.0-2.8-0.8-4.8,,,,,,,65312f9c58a9134cb73ccda1,12:23:06 PM,1/15/2024
2861.5,"<p style=""font-size:3rem"">Trial 10 of 12</p><br><br><br>",0,fwdspan,start_trial,zHSpiqhdP4XJ1GLPYJFqIgMOMK13,html-button-response,120,663892,0.0-7.0-2.9-0.9-0.9,,,,,,,65312f9c58a9134cb73ccda1,12:23:06 PM,1/15/2024
,"<p style=""font-size:14rem;font-weight:400;"">6</p>",,fwdspan,number,zHSpiqhdP4XJ1GLPYJFqIgMOMK13,html-keyboard-response,121,664902,0.0-7.0-2.9-0.9-1.63-0.63,,,,,,,65312f9c58a9134cb73ccda1,12:23:06 PM,1/15/2024
,"<p style=""font-size:14rem;font-weight:400;"">8</p>",,fwdspan,number,zHSpiqhdP4XJ1GLPYJFqIgMOMK13,html-keyboard-response,122,665923,0.0-7.0-2.9-0.9-1.64-0.64,,,,,,,65312f9c58a9134cb73ccda1,12:23:06 PM,1/15/2024
,"<p style=""font-size:14rem;font-weight:400;"">5</p>",,fwdspan,number,zHSpiqhdP4XJ1GLPYJFqIgMOMK13,html-keyboard-response,123,666943,0.0-7.0-2.9-0.9-1.65-0.65,,,,,,,65312f9c58a9134cb73ccda1,12:23:06 PM,1/15/2024
,"<p style=""font-size:14rem;font-weight:400;"">1</p>",,fwdspan,number,zHSpiqhdP4XJ1GLPYJFqIgMOMK13,html-keyboard-response,124,667959,0.0-7.0-2.9-0.9-1.66-0.66,,,,,,,65312f9c58a9134cb73ccda1,12:23:06 PM,1/15/2024
,"<p style=""font-size:14rem;font-weight:400;"">7</p>",,fwdspan,number,zHSpiqhdP4XJ1GLPYJFqIgMOMK13,html-keyboard-response,125,668980,0.0-7.0-2.9-0.9-1.67-0.67,,,,,,,65312f9c58a9134cb73ccda1,12:23:06 PM,1/15/2024
,"<p style=""font-size:14rem;font-weight:400;"">2</p>",,fwdspan,number,zHSpiqhdP4XJ1GLPYJFqIgMOMK13,html-keyboard-response,126,669995,0.0-7.0-2.9-0.9-1.68-0.68,,,,,,,65312f9c58a9134cb73ccda1,12:23:06 PM,1/15/2024
,"<p style=""font-size:14rem;font-weight:400;"">4</p>",,fwdspan,number,zHSpiqhdP4XJ1GLPYJFqIgMOMK13,html-keyboard-response,127,671004,0.0-7.0-2.9-0.9-1.69-0.69,,,,,,,65312f9c58a9134cb73ccda1,12:23:06 PM,1/15/2024
,"<p style=""font-size:14rem;font-weight:400;"">9</p>",,fwdspan,number,zHSpiqhdP4XJ1GLPYJFqIgMOMK13,html-keyboard-response,128,672021,0.0-7.0-2.9-0.9-1.70-0.70,,,,,,,65312f9c58a9134cb73ccda1,12:23:06 PM,1/15/2024
,"<p style=""font-size:14rem;font-weight:400;"">3</p>",,fwdspan,number,zHSpiqhdP4XJ1GLPYJFqIgMOMK13,html-keyboard-response,129,673024,0.0-7.0-2.9-0.9-1.71-0.71,,,,,,,65312f9c58a9134cb73ccda1,12:23:06 PM,1/15/2024
,"<p style=""font-size:14rem;font-weight:400;"">9</p>",,fwdspan,number,zHSpiqhdP4XJ1GLPYJFqIgMOMK13,html-keyboard-response,130,674043,0.0-7.0-2.9-0.9-1.72-0.72,,,,,,,65312f9c58a9134cb73ccda1,12:23:06 PM,1/15/2024
,"<p style=""font-size:14rem;font-weight:400;"">6</p>",,fwdspan,number,zHSpiqhdP4XJ1GLPYJFqIgMOMK13,html-keyboard-response,131,675063,0.0-7.0-2.9-0.9-1.73-0.73,,,,,,,65312f9c58a9134cb73ccda1,12:23:06 PM,1/15/2024
,[],,fwdspan,delay,zHSpiqhdP4XJ1GLPYJFqIgMOMK13,html-keyboard-response,132,675638,0.0-7.0-2.9-0.9-2.9,,,,,,,65312f9c58a9134cb73ccda1,12:23:06 PM,1/15/2024
14504.899999999907,"<div class = numbox><p style=""font-size:2.5rem"">What were the numbers <b>in order</b>?<br>(When you are ready to lock in your answer, press <b>ENTER</b>)</p><button id = button_1 class = ""square num-button"" onclick = ""recordClick(this)""><div class = content><div class = numbers>1</div></div></button><button id = button_2 class = ""square num-button"" onclick = ""recordClick(this)""><div class = content><div class = numbers>2</div></div></button><button id = button_3 class = ""square num-button"" onclick = ""recordClick(this)""><div class = content><div class = numbers>3</div></div></button><button id = button_4 class = ""square num-button"" onclick = ""recordClick(this)""><div class = content><div class = numbers>4</div></div></button><button id = button_5 class = ""square num-button"" onclick = ""recordClick(this)""><div class = content><div class = numbers>5</div></div></button><button id = button_6 class = ""square num-button"" onclick = ""recordClick(this)""><div class = content><div class = numbers>6</div></div></button><button id = button_7 class = ""square num-button"" onclick = ""recordClick(this)""><div class = content><div class = numbers>7</div></div></button><button id = button_8 class = ""square num-button"" onclick = ""recordClick(this)""><div class = content><div class = numbers>8</div></div></button><button id = button_9 class = ""square num-button"" onclick = ""recordClick(this)""><div class = content><div class = numbers>9</div></div></button><button class = clear_button id = ""ClearButton"" onclick = ""clearResponse()"">Clear</button><p><u><b>Current Answer:</b></u></p><div id=echoed_txt style=""font-size: 6rem; color:blue;""><b></b></div></div><br><br><br><br><br><br><br>",enter,fwdspan,response,zHSpiqhdP4XJ1GLPYJFqIgMOMK13,html-keyboard-response,133,690144,0.0-7.0-2.9-0.9-3.9,11.0,"[6,8,5,1,7,2,4,9,3,9,6]","[6,8,5,1,7,2,4,9,3,9,6]",1.0,"[3, 4, 5, 6, 7, 8, 9, 10, 11, 11, 12, 13]",,65312f9c58a9134cb73ccda1,12:23:06 PM,1/15/2024
,,,fwdspan,update_span,zHSpiqhdP4XJ1GLPYJFqIgMOMK13,call-function,134,690399,0.0-7.0-2.9-0.9-4.9,,,,,,,65312f9c58a9134cb73ccda1,12:23:06 PM,1/15/2024
9341.700000000186,"<p style=""font-size:3rem"">Trial 11 of 12</p><br><br><br>",0,fwdspan,start_trial,zHSpiqhdP4XJ1GLPYJFqIgMOMK13,html-button-response,135,699742,0.0-7.0-2.10-0.10-0.10,,,,,,,65312f9c58a9134cb73ccda1,12:23:06 PM,1/15/2024
,"<p style=""font-size:14rem;font-weight:400;"">5</p>",,fwdspan,number,zHSpiqhdP4XJ1GLPYJFqIgMOMK13,html-keyboard-response,136,700772,0.0-7.0-2.10-0.10-1.74-0.74,,,,,,,65312f9c58a9134cb73ccda1,12:23:06 PM,1/15/2024
,"<p style=""font-size:14rem;font-weight:400;"">8</p>",,fwdspan,number,zHSpiqhdP4XJ1GLPYJFqIgMOMK13,html-keyboard-response,137,701800,0.0-7.0-2.10-0.10-1.75-0.75,,,,,,,65312f9c58a9134cb73ccda1,12:23:06 PM,1/15/2024
,"<p style=""font-size:14rem;font-weight:400;"">6</p>",,fwdspan,number,zHSpiqhdP4XJ1GLPYJFqIgMOMK13,html-keyboard-response,138,702820,0.0-7.0-2.10-0.10-1.76-0.76,,,,,,,65312f9c58a9134cb73ccda1,12:23:06 PM,1/15/2024
,"<p style=""font-size:14rem;font-weight:400;"">1</p>",,fwdspan,number,zHSpiqhdP4XJ1GLPYJFqIgMOMK13,html-keyboard-response,139,703826,0.0-7.0-2.10-0.10-1.77-0.77,,,,,,,65312f9c58a9134cb73ccda1,12:23:06 PM,1/15/2024
,"<p style=""font-size:14rem;font-weight:400;"">7</p>",,fwdspan,number,zHSpiqhdP4XJ1GLPYJFqIgMOMK13,html-keyboard-response,140,704831,0.0-7.0-2.10-0.10-1.78-0.78,,,,,,,65312f9c58a9134cb73ccda1,12:23:06 PM,1/15/2024
,"<p style=""font-size:14rem;font-weight:400;"">4</p>",,fwdspan,number,zHSpiqhdP4XJ1GLPYJFqIgMOMK13,html-keyboard-response,141,705835,0.0-7.0-2.10-0.10-1.79-0.79,,,,,,,65312f9c58a9134cb73ccda1,12:23:06 PM,1/15/2024
,"<p style=""font-size:14rem;font-weight:400;"">9</p>",,fwdspan,number,zHSpiqhdP4XJ1GLPYJFqIgMOMK13,html-keyboard-response,142,706843,0.0-7.0-2.10-0.10-1.80-0.80,,,,,,,65312f9c58a9134cb73ccda1,12:23:06 PM,1/15/2024
,"<p style=""font-size:14rem;font-weight:400;"">2</p>",,fwdspan,number,zHSpiqhdP4XJ1GLPYJFqIgMOMK13,html-keyboard-response,143,707848,0.0-7.0-2.10-0.10-1.81-0.81,,,,,,,65312f9c58a9134cb73ccda1,12:23:06 PM,1/15/2024
,"<p style=""font-size:14rem;font-weight:400;"">3</p>",,fwdspan,number,zHSpiqhdP4XJ1GLPYJFqIgMOMK13,html-keyboard-response,144,708854,0.0-7.0-2.10-0.10-1.82-0.82,,,,,,,65312f9c58a9134cb73ccda1,12:23:06 PM,1/15/2024
,"<p style=""font-size:14rem;font-weight:400;"">9</p>",,fwdspan,number,zHSpiqhdP4XJ1GLPYJFqIgMOMK13,html-keyboard-response,145,709859,0.0-7.0-2.10-0.10-1.83-0.83,,,,,,,65312f9c58a9134cb73ccda1,12:23:06 PM,1/15/2024
,"<p style=""font-size:14rem;font-weight:400;"">2</p>",,fwdspan,number,zHSpiqhdP4XJ1GLPYJFqIgMOMK13,html-keyboard-response,146,710865,0.0-7.0-2.10-0.10-1.84-0.84,,,,,,,65312f9c58a9134cb73ccda1,12:23:06 PM,1/15/2024
,"<p style=""font-size:14rem;font-weight:400;"">8</p>",,fwdspan,number,zHSpiqhdP4XJ1GLPYJFqIgMOMK13,html-keyboard-response,147,711879,0.0-7.0-2.10-0.10-1.85-0.85,,,,,,,65312f9c58a9134cb73ccda1,12:23:06 PM,1/15/2024
,[],,fwdspan,delay,zHSpiqhdP4XJ1GLPYJFqIgMOMK13,html-keyboard-response,148,712446,0.0-7.0-2.10-0.10-2.10,,,,,,,65312f9c58a9134cb73ccda1,12:23:06 PM,1/15/2024
14957.700000000186,"<div class = numbox><p style=""font-size:2.5rem"">What were the numbers <b>in order</b>?<br>(When you are ready to lock in your answer, press <b>ENTER</b>)</p><button id = button_1 class = ""square num-button"" onclick = ""recordClick(this)""><div class = content><div class = numbers>1</div></div></button><button id = button_2 class = ""square num-button"" onclick = ""recordClick(this)""><div class = content><div class = numbers>2</div></div></button><button id = button_3 class = ""square num-button"" onclick = ""recordClick(this)""><div class = content><div class = numbers>3</div></div></button><button id = button_4 class = ""square num-button"" onclick = ""recordClick(this)""><div class = content><div class = numbers>4</div></div></button><button id = button_5 class = ""square num-button"" onclick = ""recordClick(this)""><div class = content><div class = numbers>5</div></div></button><button id = button_6 class = ""square num-button"" onclick = ""recordClick(this)""><div class = content><div class = numbers>6</div></div></button><button id = button_7 class = ""square num-button"" onclick = ""recordClick(this)""><div class = content><div class = numbers>7</div></div></button><button id = button_8 class = ""square num-button"" onclick = ""recordClick(this)""><div class = content><div class = numbers>8</div></div></button><button id = button_9 class = ""square num-button"" onclick = ""recordClick(this)""><div class = content><div class = numbers>9</div></div></button><button class = clear_button id = ""ClearButton"" onclick = ""clearResponse()"">Clear</button><p><u><b>Current Answer:</b></u></p><div id=echoed_txt style=""font-size: 6rem; color:blue;""><b></b></div></div><br><br><br><br><br><br><br>",enter,fwdspan,response,zHSpiqhdP4XJ1GLPYJFqIgMOMK13,html-keyboard-response,149,727405,0.0-7.0-2.10-0.10-3.10,12.0,"[5,8,6,1,7,4,9,2,3,9,2,8]","[5,8,6,1,7,4,9,2,3,9,2,8]",1.0,"[3, 4, 5, 6, 7, 8, 9, 10, 11, 11, 12, 13]",,65312f9c58a9134cb73ccda1,12:23:06 PM,1/15/2024
,,,fwdspan,update_span,zHSpiqhdP4XJ1GLPYJFqIgMOMK13,call-function,150,727660,0.0-7.0-2.10-0.10-4.10,,,,,,,65312f9c58a9134cb73ccda1,12:23:06 PM,1/15/2024
1574.6000000000931,"<p style=""font-size:3rem"">Trial 12 of 12</p><br><br><br>",0,fwdspan,start_trial,zHSpiqhdP4XJ1GLPYJFqIgMOMK13,html-button-response,151,729236,0.0-7.0-2.11-0.11-0.11,,,,,,,65312f9c58a9134cb73ccda1,12:23:06 PM,1/15/2024
,"<p style=""font-size:14rem;font-weight:400;"">3</p>",,fwdspan,number,zHSpiqhdP4XJ1GLPYJFqIgMOMK13,html-keyboard-response,152,730255,0.0-7.0-2.11-0.11-1.86-0.86,,,,,,,65312f9c58a9134cb73ccda1,12:23:06 PM,1/15/2024
,"<p style=""font-size:14rem;font-weight:400;"">1</p>",,fwdspan,number,zHSpiqhdP4XJ1GLPYJFqIgMOMK13,html-keyboard-response,153,731277,0.0-7.0-2.11-0.11-1.87-0.87,,,,,,,65312f9c58a9134cb73ccda1,12:23:06 PM,1/15/2024
,"<p style=""font-size:14rem;font-weight:400;"">5</p>",,fwdspan,number,zHSpiqhdP4XJ1GLPYJFqIgMOMK13,html-keyboard-response,154,732287,0.0-7.0-2.11-0.11-1.88-0.88,,,,,,,65312f9c58a9134cb73ccda1,12:23:06 PM,1/15/2024
,"<p style=""font-size:14rem;font-weight:400;"">4</p>",,fwdspan,number,zHSpiqhdP4XJ1GLPYJFqIgMOMK13,html-keyboard-response,155,733292,0.0-7.0-2.11-0.11-1.89-0.89,,,,,,,65312f9c58a9134cb73ccda1,12:23:06 PM,1/15/2024
,"<p style=""font-size:14rem;font-weight:400;"">2</p>",,fwdspan,number,zHSpiqhdP4XJ1GLPYJFqIgMOMK13,html-keyboard-response,156,734310,0.0-7.0-2.11-0.11-1.90-0.90,,,,,,,65312f9c58a9134cb73ccda1,12:23:06 PM,1/15/2024
,"<p style=""font-size:14rem;font-weight:400;"">9</p>",,fwdspan,number,zHSpiqhdP4XJ1GLPYJFqIgMOMK13,html-keyboard-response,157,735320,0.0-7.0-2.11-0.11-1.91-0.91,,,,,,,65312f9c58a9134cb73ccda1,12:23:06 PM,1/15/2024
,"<p style=""font-size:14rem;font-weight:400;"">6</p>",,fwdspan,number,zHSpiqhdP4XJ1GLPYJFqIgMOMK13,html-keyboard-response,158,736328,0.0-7.0-2.11-0.11-1.92-0.92,,,,,,,65312f9c58a9134cb73ccda1,12:23:06 PM,1/15/2024
,"<p style=""font-size:14rem;font-weight:400;"">7</p>",,fwdspan,number,zHSpiqhdP4XJ1GLPYJFqIgMOMK13,html-keyboard-response,159,737336,0.0-7.0-2.11-0.11-1.93-0.93,,,,,,,65312f9c58a9134cb73ccda1,12:23:06 PM,1/15/2024
,"<p style=""font-size:14rem;font-weight:400;"">8</p>",,fwdspan,number,zHSpiqhdP4XJ1GLPYJFqIgMOMK13,html-keyboard-response,160,738345,0.0-7.0-2.11-0.11-1.94-0.94,,,,,,,65312f9c58a9134cb73ccda1,12:23:06 PM,1/15/2024
,"<p style=""font-size:14rem;font-weight:400;"">5</p>",,fwdspan,number,zHSpiqhdP4XJ1GLPYJFqIgMOMK13,html-keyboard-response,161,739364,0.0-7.0-2.11-0.11-1.95-0.95,,,,,,,65312f9c58a9134cb73ccda1,12:23:06 PM,1/15/2024
,"<p style=""font-size:14rem;font-weight:400;"">2</p>",,fwdspan,number,zHSpiqhdP4XJ1GLPYJFqIgMOMK13,html-keyboard-response,162,740372,0.0-7.0-2.11-0.11-1.96-0.96,,,,,,,65312f9c58a9134cb73ccda1,12:23:06 PM,1/15/2024
,"<p style=""font-size:14rem;font-weight:400;"">1</p>",,fwdspan,number,zHSpiqhdP4XJ1GLPYJFqIgMOMK13,html-keyboard-response,163,741392,0.0-7.0-2.11-0.11-1.97-0.97,,,,,,,65312f9c58a9134cb73ccda1,12:23:06 PM,1/15/2024
,"<p style=""font-size:14rem;font-weight:400;"">8</p>",,fwdspan,number,zHSpiqhdP4XJ1GLPYJFqIgMOMK13,html-keyboard-response,164,742408,0.0-7.0-2.11-0.11-1.98-0.98,,,,,,,65312f9c58a9134cb73ccda1,12:23:06 PM,1/15/2024
,[],,fwdspan,delay,zHSpiqhdP4XJ1GLPYJFqIgMOMK13,html-keyboard-response,165,742985,0.0-7.0-2.11-0.11-2.11,,,,,,,65312f9c58a9134cb73ccda1,12:23:06 PM,1/15/2024
19017.799999999814,"<div class = numbox><p style=""font-size:2.5rem"">What were the numbers <b>in order</b>?<br>(When you are ready to lock in your answer, press <b>ENTER</b>)</p><button id = button_1 class = ""square num-button"" onclick = ""recordClick(this)""><div class = content><div class = numbers>1</div></div></button><button id = button_2 class = ""square num-button"" onclick = ""recordClick(this)""><div class = content><div class = numbers>2</div></div></button><button id = button_3 class = ""square num-button"" onclick = ""recordClick(this)""><div class = content><div class = numbers>3</div></div></button><button id = button_4 class = ""square num-button"" onclick = ""recordClick(this)""><div class = content><div class = numbers>4</div></div></button><button id = button_5 class = ""square num-button"" onclick = ""recordClick(this)""><div class = content><div class = numbers>5</div></div></button><button id = button_6 class = ""square num-button"" onclick = ""recordClick(this)""><div class = content><div class = numbers>6</div></div></button><button id = button_7 class = ""square num-button"" onclick = ""recordClick(this)""><div class = content><div class = numbers>7</div></div></button><button id = button_8 class = ""square num-button"" onclick = ""recordClick(this)""><div class = content><div class = numbers>8</div></div></button><button id = button_9 class = ""square num-button"" onclick = ""recordClick(this)""><div class = content><div class = numbers>9</div></div></button><button class = clear_button id = ""ClearButton"" onclick = ""clearResponse()"">Clear</button><p><u><b>Current Answer:</b></u></p><div id=echoed_txt style=""font-size: 6rem; color:blue;""><b></b></div></div><br><br><br><br><br><br><br>",enter,fwdspan,response,zHSpiqhdP4XJ1GLPYJFqIgMOMK13,html-keyboard-response,166,762004,0.0-7.0-2.11-0.11-3.11,13.0,"[3,1,2,4,2,9,6,7,8,5,2,1,8]","[3,1,5,4,2,9,6,7,8,5,2,1,8]",0.0,"[3, 4, 5, 6, 7, 8, 9, 10, 11, 11, 12, 13]",,65312f9c58a9134cb73ccda1,12:23:06 PM,1/15/2024
,,,fwdspan,update_span,zHSpiqhdP4XJ1GLPYJFqIgMOMK13,call-function,167,762259,0.0-7.0-2.11-0.11-4.11,,,,,,,65312f9c58a9134cb73ccda1,12:23:06 PM,1/15/2024
71255.5,,{'Q0': 'It can be improved by inserting colour and picture the study'},fwdspan,survey,zHSpiqhdP4XJ1GLPYJFqIgMOMK13,lmdlab-survey-text,168,834279,0.0-7.0-3.0,,,,,,zHSpiqhdP4XJ1GLPYJFqIgMOMK13,65312f9c58a9134cb73ccda1,12:23:06 PM,1/15/2024
2291.0,<p><p style='font-size: 3rem'>Great work!<br><br>This completes the digit span task.</p><br><br><br>,0,fwdspan,finish,zHSpiqhdP4XJ1GLPYJFqIgMOMK13,html-button-response,169,836572,0.0-7.0-4.0,,,,,,,65312f9c58a9134cb73ccda1,12:23:06 PM,1/15/2024
