rt,stimulus,response,exp_name,exp_stage,subjectID,trial_type,trial_index,time_elapsed,internal_node_id,span,answer,correct,correct_full,span_history,databaseID,prolificID,start_time,date
3505.1999999997206,"<p style=""font-size:4rem""><br><br>In the next part today, we have a completely different short task.<br><br><br>This part involves keeping numbers in you mind. Participation takes around 5 minutes.<br><br><br></p>",0,fwdspan,instruct,n2LEi91EfpZqy3MfJxMmJvV34sk1,html-button-response,19,497452,0.0-7.0-0.0,,,,,,,576809123b99f40001734d90,11:23:33,15/01/2024
10251.5,"<p style=""font-size:5rem"">Welcome to the <b>digit span task</b>!<br><br></p><p style=""font-size:3.4rem""><br>On each trial, you will see a sequence of digits, followed by a delay.</p><p style=""font-size:3.4rem""><br>Then you will be asked to type them back in the same order in which they were seen.</p><p style=""font-size:3.4rem""><br><br><br>For example, if you saw the digits <b style=""color:blue;"">1</b>, <b style=""color:blue;"">2</b>, <b style=""color:blue;"">3</b>, you would respond with <b style=""color:blue;"">1</b>, <b style=""color:blue;"">2</b>, <b style=""color:blue;"">3</b></p><p style=""font-size:3.4rem""><br><br><br>To ensure the best measure of true performance for our study,<br><br>it is very important that you do not use any memory aid (e.g., pen and paper).<br><br>Please do the task solely in your head.</p><p style=""font-size:3.4rem""><br><br><br>There will be 12 total trials. Participation takes around 5 minutes.</p><br><br><br>",0,fwdspan,instruct,n2LEi91EfpZqy3MfJxMmJvV34sk1,html-button-response,20,507706,0.0-7.0-1.0,,,,,,,576809123b99f40001734d90,11:23:33,15/01/2024
1104.6000000000931,"<p style=""font-size:3rem"">Trial 1 of 12</p><br><br><br>",0,fwdspan,start_trial,n2LEi91EfpZqy3MfJxMmJvV34sk1,html-button-response,21,508816,0.0-7.0-2.0-0.0-0.0,,,,,,,576809123b99f40001734d90,11:23:33,15/01/2024
,"<p style=""font-size:14rem;font-weight:400;"">9</p>",,fwdspan,number,n2LEi91EfpZqy3MfJxMmJvV34sk1,html-keyboard-response,22,509839,0.0-7.0-2.0-0.0-1.0-0.0,,,,,,,576809123b99f40001734d90,11:23:33,15/01/2024
,"<p style=""font-size:14rem;font-weight:400;"">2</p>",,fwdspan,number,n2LEi91EfpZqy3MfJxMmJvV34sk1,html-keyboard-response,23,510864,0.0-7.0-2.0-0.0-1.1-0.1,,,,,,,576809123b99f40001734d90,11:23:33,15/01/2024
,"<p style=""font-size:14rem;font-weight:400;"">8</p>",,fwdspan,number,n2LEi91EfpZqy3MfJxMmJvV34sk1,html-keyboard-response,24,511885,0.0-7.0-2.0-0.0-1.2-0.2,,,,,,,576809123b99f40001734d90,11:23:33,15/01/2024
,[],,fwdspan,delay,n2LEi91EfpZqy3MfJxMmJvV34sk1,html-keyboard-response,25,512451,0.0-7.0-2.0-0.0-2.0,,,,,,,576809123b99f40001734d90,11:23:33,15/01/2024
8329.30000000028,"<div class = numbox><p style=""font-size:2.5rem"">What were the numbers <b>in order</b>?<br>(When you are ready to lock in your answer, press <b>ENTER</b>)</p><button id = button_1 class = ""square num-button"" onclick = ""recordClick(this)""><div class = content><div class = numbers>1</div></div></button><button id = button_2 class = ""square num-button"" onclick = ""recordClick(this)""><div class = content><div class = numbers>2</div></div></button><button id = button_3 class = ""square num-button"" onclick = ""recordClick(this)""><div class = content><div class = numbers>3</div></div></button><button id = button_4 class = ""square num-button"" onclick = ""recordClick(this)""><div class = content><div class = numbers>4</div></div></button><button id = button_5 class = ""square num-button"" onclick = ""recordClick(this)""><div class = content><div class = numbers>5</div></div></button><button id = button_6 class = ""square num-button"" onclick = ""recordClick(this)""><div class = content><div class = numbers>6</div></div></button><button id = button_7 class = ""square num-button"" onclick = ""recordClick(this)""><div class = content><div class = numbers>7</div></div></button><button id = button_8 class = ""square num-button"" onclick = ""recordClick(this)""><div class = content><div class = numbers>8</div></div></button><button id = button_9 class = ""square num-button"" onclick = ""recordClick(this)""><div class = content><div class = numbers>9</div></div></button><button class = clear_button id = ""ClearButton"" onclick = ""clearResponse()"">Clear</button><p><u><b>Current Answer:</b></u></p><div id=echoed_txt style=""font-size: 6rem; color:blue;""><b></b></div></div><br><br><br><br><br><br><br>",enter,fwdspan,response,n2LEi91EfpZqy3MfJxMmJvV34sk1,html-keyboard-response,26,520782,0.0-7.0-2.0-0.0-3.0,3.0,"[9,2,8]","[9,2,8]",1.0,"[3, 4, 5, 5, 6, 7, 8, 8, 7, 7, 8, 9]",,576809123b99f40001734d90,11:23:33,15/01/2024
,,,fwdspan,update_span,n2LEi91EfpZqy3MfJxMmJvV34sk1,call-function,27,521048,0.0-7.0-2.0-0.0-4.0,,,,,,,576809123b99f40001734d90,11:23:33,15/01/2024
1081.0,"<p style=""font-size:3rem"">Trial 2 of 12</p><br><br><br>",0,fwdspan,start_trial,n2LEi91EfpZqy3MfJxMmJvV34sk1,html-button-response,28,522131,0.0-7.0-2.1-0.1-0.1,,,,,,,576809123b99f40001734d90,11:23:33,15/01/2024
,"<p style=""font-size:14rem;font-weight:400;"">2</p>",,fwdspan,number,n2LEi91EfpZqy3MfJxMmJvV34sk1,html-keyboard-response,29,523147,0.0-7.0-2.1-0.1-1.3-0.3,,,,,,,576809123b99f40001734d90,11:23:33,15/01/2024
,"<p style=""font-size:14rem;font-weight:400;"">3</p>",,fwdspan,number,n2LEi91EfpZqy3MfJxMmJvV34sk1,html-keyboard-response,30,524165,0.0-7.0-2.1-0.1-1.4-0.4,,,,,,,576809123b99f40001734d90,11:23:33,15/01/2024
,"<p style=""font-size:14rem;font-weight:400;"">1</p>",,fwdspan,number,n2LEi91EfpZqy3MfJxMmJvV34sk1,html-keyboard-response,31,525180,0.0-7.0-2.1-0.1-1.5-0.5,,,,,,,576809123b99f40001734d90,11:23:33,15/01/2024
,"<p style=""font-size:14rem;font-weight:400;"">4</p>",,fwdspan,number,n2LEi91EfpZqy3MfJxMmJvV34sk1,html-keyboard-response,32,526200,0.0-7.0-2.1-0.1-1.6-0.6,,,,,,,576809123b99f40001734d90,11:23:33,15/01/2024
,[],,fwdspan,delay,n2LEi91EfpZqy3MfJxMmJvV34sk1,html-keyboard-response,33,526832,0.0-7.0-2.1-0.1-2.1,,,,,,,576809123b99f40001734d90,11:23:33,15/01/2024
6386.799999999814,"<div class = numbox><p style=""font-size:2.5rem"">What were the numbers <b>in order</b>?<br>(When you are ready to lock in your answer, press <b>ENTER</b>)</p><button id = button_1 class = ""square num-button"" onclick = ""recordClick(this)""><div class = content><div class = numbers>1</div></div></button><button id = button_2 class = ""square num-button"" onclick = ""recordClick(this)""><div class = content><div class = numbers>2</div></div></button><button id = button_3 class = ""square num-button"" onclick = ""recordClick(this)""><div class = content><div class = numbers>3</div></div></button><button id = button_4 class = ""square num-button"" onclick = ""recordClick(this)""><div class = content><div class = numbers>4</div></div></button><button id = button_5 class = ""square num-button"" onclick = ""recordClick(this)""><div class = content><div class = numbers>5</div></div></button><button id = button_6 class = ""square num-button"" onclick = ""recordClick(this)""><div class = content><div class = numbers>6</div></div></button><button id = button_7 class = ""square num-button"" onclick = ""recordClick(this)""><div class = content><div class = numbers>7</div></div></button><button id = button_8 class = ""square num-button"" onclick = ""recordClick(this)""><div class = content><div class = numbers>8</div></div></button><button id = button_9 class = ""square num-button"" onclick = ""recordClick(this)""><div class = content><div class = numbers>9</div></div></button><button class = clear_button id = ""ClearButton"" onclick = ""clearResponse()"">Clear</button><p><u><b>Current Answer:</b></u></p><div id=echoed_txt style=""font-size: 6rem; color:blue;""><b></b></div></div><br><br><br><br><br><br><br>",enter,fwdspan,response,n2LEi91EfpZqy3MfJxMmJvV34sk1,html-keyboard-response,34,533221,0.0-7.0-2.1-0.1-3.1,4.0,"[2,3,1,4]","[2,3,1,4]",1.0,"[3, 4, 5, 5, 6, 7, 8, 8, 7, 7, 8, 9]",,576809123b99f40001734d90,11:23:33,15/01/2024
,,,fwdspan,update_span,n2LEi91EfpZqy3MfJxMmJvV34sk1,call-function,35,533485,0.0-7.0-2.1-0.1-4.1,,,,,,,576809123b99f40001734d90,11:23:33,15/01/2024
13235.200000000186,"<p style=""font-size:3rem"">Trial 3 of 12</p><br><br><br>",0,fwdspan,start_trial,n2LEi91EfpZqy3MfJxMmJvV34sk1,html-button-response,36,546722,0.0-7.0-2.2-0.2-0.2,,,,,,,576809123b99f40001734d90,11:23:33,15/01/2024
,"<p style=""font-size:14rem;font-weight:400;"">7</p>",,fwdspan,number,n2LEi91EfpZqy3MfJxMmJvV34sk1,html-keyboard-response,37,547740,0.0-7.0-2.2-0.2-1.7-0.7,,,,,,,576809123b99f40001734d90,11:23:33,15/01/2024
,"<p style=""font-size:14rem;font-weight:400;"">5</p>",,fwdspan,number,n2LEi91EfpZqy3MfJxMmJvV34sk1,html-keyboard-response,38,548748,0.0-7.0-2.2-0.2-1.8-0.8,,,,,,,576809123b99f40001734d90,11:23:33,15/01/2024
,"<p style=""font-size:14rem;font-weight:400;"">3</p>",,fwdspan,number,n2LEi91EfpZqy3MfJxMmJvV34sk1,html-keyboard-response,39,549763,0.0-7.0-2.2-0.2-1.9-0.9,,,,,,,576809123b99f40001734d90,11:23:33,15/01/2024
,"<p style=""font-size:14rem;font-weight:400;"">4</p>",,fwdspan,number,n2LEi91EfpZqy3MfJxMmJvV34sk1,html-keyboard-response,40,550781,0.0-7.0-2.2-0.2-1.10-0.10,,,,,,,576809123b99f40001734d90,11:23:33,15/01/2024
,"<p style=""font-size:14rem;font-weight:400;"">1</p>",,fwdspan,number,n2LEi91EfpZqy3MfJxMmJvV34sk1,html-keyboard-response,41,551812,0.0-7.0-2.2-0.2-1.11-0.11,,,,,,,576809123b99f40001734d90,11:23:33,15/01/2024
,[],,fwdspan,delay,n2LEi91EfpZqy3MfJxMmJvV34sk1,html-keyboard-response,42,552384,0.0-7.0-2.2-0.2-2.2,,,,,,,576809123b99f40001734d90,11:23:33,15/01/2024
6180.799999999814,"<div class = numbox><p style=""font-size:2.5rem"">What were the numbers <b>in order</b>?<br>(When you are ready to lock in your answer, press <b>ENTER</b>)</p><button id = button_1 class = ""square num-button"" onclick = ""recordClick(this)""><div class = content><div class = numbers>1</div></div></button><button id = button_2 class = ""square num-button"" onclick = ""recordClick(this)""><div class = content><div class = numbers>2</div></div></button><button id = button_3 class = ""square num-button"" onclick = ""recordClick(this)""><div class = content><div class = numbers>3</div></div></button><button id = button_4 class = ""square num-button"" onclick = ""recordClick(this)""><div class = content><div class = numbers>4</div></div></button><button id = button_5 class = ""square num-button"" onclick = ""recordClick(this)""><div class = content><div class = numbers>5</div></div></button><button id = button_6 class = ""square num-button"" onclick = ""recordClick(this)""><div class = content><div class = numbers>6</div></div></button><button id = button_7 class = ""square num-button"" onclick = ""recordClick(this)""><div class = content><div class = numbers>7</div></div></button><button id = button_8 class = ""square num-button"" onclick = ""recordClick(this)""><div class = content><div class = numbers>8</div></div></button><button id = button_9 class = ""square num-button"" onclick = ""recordClick(this)""><div class = content><div class = numbers>9</div></div></button><button class = clear_button id = ""ClearButton"" onclick = ""clearResponse()"">Clear</button><p><u><b>Current Answer:</b></u></p><div id=echoed_txt style=""font-size: 6rem; color:blue;""><b></b></div></div><br><br><br><br><br><br><br>",enter,fwdspan,response,n2LEi91EfpZqy3MfJxMmJvV34sk1,html-keyboard-response,43,558567,0.0-7.0-2.2-0.2-3.2,5.0,"[5,3,4,1]","[7,5,3,4,1]",0.0,"[3, 4, 5, 5, 6, 7, 8, 8, 7, 7, 8, 9]",,576809123b99f40001734d90,11:23:33,15/01/2024
,,,fwdspan,update_span,n2LEi91EfpZqy3MfJxMmJvV34sk1,call-function,44,558830,0.0-7.0-2.2-0.2-4.2,,,,,,,576809123b99f40001734d90,11:23:33,15/01/2024
1934.1999999997206,"<p style=""font-size:3rem"">Trial 4 of 12</p><br><br><br>",0,fwdspan,start_trial,n2LEi91EfpZqy3MfJxMmJvV34sk1,html-button-response,45,560766,0.0-7.0-2.3-0.3-0.3,,,,,,,576809123b99f40001734d90,11:23:33,15/01/2024
,"<p style=""font-size:14rem;font-weight:400;"">5</p>",,fwdspan,number,n2LEi91EfpZqy3MfJxMmJvV34sk1,html-keyboard-response,46,561798,0.0-7.0-2.3-0.3-1.12-0.12,,,,,,,576809123b99f40001734d90,11:23:33,15/01/2024
,"<p style=""font-size:14rem;font-weight:400;"">4</p>",,fwdspan,number,n2LEi91EfpZqy3MfJxMmJvV34sk1,html-keyboard-response,47,562814,0.0-7.0-2.3-0.3-1.13-0.13,,,,,,,576809123b99f40001734d90,11:23:33,15/01/2024
,"<p style=""font-size:14rem;font-weight:400;"">8</p>",,fwdspan,number,n2LEi91EfpZqy3MfJxMmJvV34sk1,html-keyboard-response,48,563830,0.0-7.0-2.3-0.3-1.14-0.14,,,,,,,576809123b99f40001734d90,11:23:33,15/01/2024
,"<p style=""font-size:14rem;font-weight:400;"">7</p>",,fwdspan,number,n2LEi91EfpZqy3MfJxMmJvV34sk1,html-keyboard-response,49,564848,0.0-7.0-2.3-0.3-1.15-0.15,,,,,,,576809123b99f40001734d90,11:23:33,15/01/2024
,"<p style=""font-size:14rem;font-weight:400;"">6</p>",,fwdspan,number,n2LEi91EfpZqy3MfJxMmJvV34sk1,html-keyboard-response,50,565897,0.0-7.0-2.3-0.3-1.16-0.16,,,,,,,576809123b99f40001734d90,11:23:33,15/01/2024
,[],,fwdspan,delay,n2LEi91EfpZqy3MfJxMmJvV34sk1,html-keyboard-response,51,566487,0.0-7.0-2.3-0.3-2.3,,,,,,,576809123b99f40001734d90,11:23:33,15/01/2024
6096.5,"<div class = numbox><p style=""font-size:2.5rem"">What were the numbers <b>in order</b>?<br>(When you are ready to lock in your answer, press <b>ENTER</b>)</p><button id = button_1 class = ""square num-button"" onclick = ""recordClick(this)""><div class = content><div class = numbers>1</div></div></button><button id = button_2 class = ""square num-button"" onclick = ""recordClick(this)""><div class = content><div class = numbers>2</div></div></button><button id = button_3 class = ""square num-button"" onclick = ""recordClick(this)""><div class = content><div class = numbers>3</div></div></button><button id = button_4 class = ""square num-button"" onclick = ""recordClick(this)""><div class = content><div class = numbers>4</div></div></button><button id = button_5 class = ""square num-button"" onclick = ""recordClick(this)""><div class = content><div class = numbers>5</div></div></button><button id = button_6 class = ""square num-button"" onclick = ""recordClick(this)""><div class = content><div class = numbers>6</div></div></button><button id = button_7 class = ""square num-button"" onclick = ""recordClick(this)""><div class = content><div class = numbers>7</div></div></button><button id = button_8 class = ""square num-button"" onclick = ""recordClick(this)""><div class = content><div class = numbers>8</div></div></button><button id = button_9 class = ""square num-button"" onclick = ""recordClick(this)""><div class = content><div class = numbers>9</div></div></button><button class = clear_button id = ""ClearButton"" onclick = ""clearResponse()"">Clear</button><p><u><b>Current Answer:</b></u></p><div id=echoed_txt style=""font-size: 6rem; color:blue;""><b></b></div></div><br><br><br><br><br><br><br>",enter,fwdspan,response,n2LEi91EfpZqy3MfJxMmJvV34sk1,html-keyboard-response,52,572585,0.0-7.0-2.3-0.3-3.3,5.0,"[5,4,8,7,6]","[5,4,8,7,6]",1.0,"[3, 4, 5, 5, 6, 7, 8, 8, 7, 7, 8, 9]",,576809123b99f40001734d90,11:23:33,15/01/2024
,,,fwdspan,update_span,n2LEi91EfpZqy3MfJxMmJvV34sk1,call-function,53,572849,0.0-7.0-2.3-0.3-4.3,,,,,,,576809123b99f40001734d90,11:23:33,15/01/2024
1405.5,"<p style=""font-size:3rem"">Trial 5 of 12</p><br><br><br>",0,fwdspan,start_trial,n2LEi91EfpZqy3MfJxMmJvV34sk1,html-button-response,54,574257,0.0-7.0-2.4-0.4-0.4,,,,,,,576809123b99f40001734d90,11:23:33,15/01/2024
,"<p style=""font-size:14rem;font-weight:400;"">4</p>",,fwdspan,number,n2LEi91EfpZqy3MfJxMmJvV34sk1,html-keyboard-response,55,575263,0.0-7.0-2.4-0.4-1.17-0.17,,,,,,,576809123b99f40001734d90,11:23:33,15/01/2024
,"<p style=""font-size:14rem;font-weight:400;"">3</p>",,fwdspan,number,n2LEi91EfpZqy3MfJxMmJvV34sk1,html-keyboard-response,56,576289,0.0-7.0-2.4-0.4-1.18-0.18,,,,,,,576809123b99f40001734d90,11:23:33,15/01/2024
,"<p style=""font-size:14rem;font-weight:400;"">1</p>",,fwdspan,number,n2LEi91EfpZqy3MfJxMmJvV34sk1,html-keyboard-response,57,577306,0.0-7.0-2.4-0.4-1.19-0.19,,,,,,,576809123b99f40001734d90,11:23:33,15/01/2024
,"<p style=""font-size:14rem;font-weight:400;"">8</p>",,fwdspan,number,n2LEi91EfpZqy3MfJxMmJvV34sk1,html-keyboard-response,58,578324,0.0-7.0-2.4-0.4-1.20-0.20,,,,,,,576809123b99f40001734d90,11:23:33,15/01/2024
,"<p style=""font-size:14rem;font-weight:400;"">9</p>",,fwdspan,number,n2LEi91EfpZqy3MfJxMmJvV34sk1,html-keyboard-response,59,579363,0.0-7.0-2.4-0.4-1.21-0.21,,,,,,,576809123b99f40001734d90,11:23:33,15/01/2024
,"<p style=""font-size:14rem;font-weight:400;"">2</p>",,fwdspan,number,n2LEi91EfpZqy3MfJxMmJvV34sk1,html-keyboard-response,60,580413,0.0-7.0-2.4-0.4-1.22-0.22,,,,,,,576809123b99f40001734d90,11:23:33,15/01/2024
,[],,fwdspan,delay,n2LEi91EfpZqy3MfJxMmJvV34sk1,html-keyboard-response,61,581033,0.0-7.0-2.4-0.4-2.4,,,,,,,576809123b99f40001734d90,11:23:33,15/01/2024
7296.5999999996275,"<div class = numbox><p style=""font-size:2.5rem"">What were the numbers <b>in order</b>?<br>(When you are ready to lock in your answer, press <b>ENTER</b>)</p><button id = button_1 class = ""square num-button"" onclick = ""recordClick(this)""><div class = content><div class = numbers>1</div></div></button><button id = button_2 class = ""square num-button"" onclick = ""recordClick(this)""><div class = content><div class = numbers>2</div></div></button><button id = button_3 class = ""square num-button"" onclick = ""recordClick(this)""><div class = content><div class = numbers>3</div></div></button><button id = button_4 class = ""square num-button"" onclick = ""recordClick(this)""><div class = content><div class = numbers>4</div></div></button><button id = button_5 class = ""square num-button"" onclick = ""recordClick(this)""><div class = content><div class = numbers>5</div></div></button><button id = button_6 class = ""square num-button"" onclick = ""recordClick(this)""><div class = content><div class = numbers>6</div></div></button><button id = button_7 class = ""square num-button"" onclick = ""recordClick(this)""><div class = content><div class = numbers>7</div></div></button><button id = button_8 class = ""square num-button"" onclick = ""recordClick(this)""><div class = content><div class = numbers>8</div></div></button><button id = button_9 class = ""square num-button"" onclick = ""recordClick(this)""><div class = content><div class = numbers>9</div></div></button><button class = clear_button id = ""ClearButton"" onclick = ""clearResponse()"">Clear</button><p><u><b>Current Answer:</b></u></p><div id=echoed_txt style=""font-size: 6rem; color:blue;""><b></b></div></div><br><br><br><br><br><br><br>",enter,fwdspan,response,n2LEi91EfpZqy3MfJxMmJvV34sk1,html-keyboard-response,62,588331,0.0-7.0-2.4-0.4-3.4,6.0,"[4,3,1,8,9,2]","[4,3,1,8,9,2]",1.0,"[3, 4, 5, 5, 6, 7, 8, 8, 7, 7, 8, 9]",,576809123b99f40001734d90,11:23:33,15/01/2024
,,,fwdspan,update_span,n2LEi91EfpZqy3MfJxMmJvV34sk1,call-function,63,588588,0.0-7.0-2.4-0.4-4.4,,,,,,,576809123b99f40001734d90,11:23:33,15/01/2024
1296.3999999999069,"<p style=""font-size:3rem"">Trial 6 of 12</p><br><br><br>",0,fwdspan,start_trial,n2LEi91EfpZqy3MfJxMmJvV34sk1,html-button-response,64,589887,0.0-7.0-2.5-0.5-0.5,,,,,,,576809123b99f40001734d90,11:23:33,15/01/2024
,"<p style=""font-size:14rem;font-weight:400;"">1</p>",,fwdspan,number,n2LEi91EfpZqy3MfJxMmJvV34sk1,html-keyboard-response,65,590900,0.0-7.0-2.5-0.5-1.23-0.23,,,,,,,576809123b99f40001734d90,11:23:33,15/01/2024
,"<p style=""font-size:14rem;font-weight:400;"">6</p>",,fwdspan,number,n2LEi91EfpZqy3MfJxMmJvV34sk1,html-keyboard-response,66,591928,0.0-7.0-2.5-0.5-1.24-0.24,,,,,,,576809123b99f40001734d90,11:23:33,15/01/2024
,"<p style=""font-size:14rem;font-weight:400;"">5</p>",,fwdspan,number,n2LEi91EfpZqy3MfJxMmJvV34sk1,html-keyboard-response,67,592949,0.0-7.0-2.5-0.5-1.25-0.25,,,,,,,576809123b99f40001734d90,11:23:33,15/01/2024
,"<p style=""font-size:14rem;font-weight:400;"">7</p>",,fwdspan,number,n2LEi91EfpZqy3MfJxMmJvV34sk1,html-keyboard-response,68,593965,0.0-7.0-2.5-0.5-1.26-0.26,,,,,,,576809123b99f40001734d90,11:23:33,15/01/2024
,"<p style=""font-size:14rem;font-weight:400;"">4</p>",,fwdspan,number,n2LEi91EfpZqy3MfJxMmJvV34sk1,html-keyboard-response,69,594981,0.0-7.0-2.5-0.5-1.27-0.27,,,,,,,576809123b99f40001734d90,11:23:33,15/01/2024
,"<p style=""font-size:14rem;font-weight:400;"">2</p>",,fwdspan,number,n2LEi91EfpZqy3MfJxMmJvV34sk1,html-keyboard-response,70,596046,0.0-7.0-2.5-0.5-1.28-0.28,,,,,,,576809123b99f40001734d90,11:23:33,15/01/2024
,"<p style=""font-size:14rem;font-weight:400;"">8</p>",,fwdspan,number,n2LEi91EfpZqy3MfJxMmJvV34sk1,html-keyboard-response,71,597089,0.0-7.0-2.5-0.5-1.29-0.29,,,,,,,576809123b99f40001734d90,11:23:33,15/01/2024
,[],,fwdspan,delay,n2LEi91EfpZqy3MfJxMmJvV34sk1,html-keyboard-response,72,597683,0.0-7.0-2.5-0.5-2.5,,,,,,,576809123b99f40001734d90,11:23:33,15/01/2024
8072.799999999814,"<div class = numbox><p style=""font-size:2.5rem"">What were the numbers <b>in order</b>?<br>(When you are ready to lock in your answer, press <b>ENTER</b>)</p><button id = button_1 class = ""square num-button"" onclick = ""recordClick(this)""><div class = content><div class = numbers>1</div></div></button><button id = button_2 class = ""square num-button"" onclick = ""recordClick(this)""><div class = content><div class = numbers>2</div></div></button><button id = button_3 class = ""square num-button"" onclick = ""recordClick(this)""><div class = content><div class = numbers>3</div></div></button><button id = button_4 class = ""square num-button"" onclick = ""recordClick(this)""><div class = content><div class = numbers>4</div></div></button><button id = button_5 class = ""square num-button"" onclick = ""recordClick(this)""><div class = content><div class = numbers>5</div></div></button><button id = button_6 class = ""square num-button"" onclick = ""recordClick(this)""><div class = content><div class = numbers>6</div></div></button><button id = button_7 class = ""square num-button"" onclick = ""recordClick(this)""><div class = content><div class = numbers>7</div></div></button><button id = button_8 class = ""square num-button"" onclick = ""recordClick(this)""><div class = content><div class = numbers>8</div></div></button><button id = button_9 class = ""square num-button"" onclick = ""recordClick(this)""><div class = content><div class = numbers>9</div></div></button><button class = clear_button id = ""ClearButton"" onclick = ""clearResponse()"">Clear</button><p><u><b>Current Answer:</b></u></p><div id=echoed_txt style=""font-size: 6rem; color:blue;""><b></b></div></div><br><br><br><br><br><br><br>",enter,fwdspan,response,n2LEi91EfpZqy3MfJxMmJvV34sk1,html-keyboard-response,73,605758,0.0-7.0-2.5-0.5-3.5,7.0,"[1,6,5,7,4,2,8]","[1,6,5,7,4,2,8]",1.0,"[3, 4, 5, 5, 6, 7, 8, 8, 7, 7, 8, 9]",,576809123b99f40001734d90,11:23:33,15/01/2024
,,,fwdspan,update_span,n2LEi91EfpZqy3MfJxMmJvV34sk1,call-function,74,606023,0.0-7.0-2.5-0.5-4.5,,,,,,,576809123b99f40001734d90,11:23:33,15/01/2024
28451.200000000186,"<p style=""font-size:3rem"">Trial 7 of 12</p><br><br><br>",0,fwdspan,start_trial,n2LEi91EfpZqy3MfJxMmJvV34sk1,html-button-response,75,634475,0.0-7.0-2.6-0.6-0.6,,,,,,,576809123b99f40001734d90,11:23:33,15/01/2024
,"<p style=""font-size:14rem;font-weight:400;"">4</p>",,fwdspan,number,n2LEi91EfpZqy3MfJxMmJvV34sk1,html-keyboard-response,76,635483,0.0-7.0-2.6-0.6-1.30-0.30,,,,,,,576809123b99f40001734d90,11:23:33,15/01/2024
,"<p style=""font-size:14rem;font-weight:400;"">5</p>",,fwdspan,number,n2LEi91EfpZqy3MfJxMmJvV34sk1,html-keyboard-response,77,636500,0.0-7.0-2.6-0.6-1.31-0.31,,,,,,,576809123b99f40001734d90,11:23:33,15/01/2024
,"<p style=""font-size:14rem;font-weight:400;"">3</p>",,fwdspan,number,n2LEi91EfpZqy3MfJxMmJvV34sk1,html-keyboard-response,78,637514,0.0-7.0-2.6-0.6-1.32-0.32,,,,,,,576809123b99f40001734d90,11:23:33,15/01/2024
,"<p style=""font-size:14rem;font-weight:400;"">1</p>",,fwdspan,number,n2LEi91EfpZqy3MfJxMmJvV34sk1,html-keyboard-response,79,638530,0.0-7.0-2.6-0.6-1.33-0.33,,,,,,,576809123b99f40001734d90,11:23:33,15/01/2024
,"<p style=""font-size:14rem;font-weight:400;"">9</p>",,fwdspan,number,n2LEi91EfpZqy3MfJxMmJvV34sk1,html-keyboard-response,80,639570,0.0-7.0-2.6-0.6-1.34-0.34,,,,,,,576809123b99f40001734d90,11:23:33,15/01/2024
,"<p style=""font-size:14rem;font-weight:400;"">6</p>",,fwdspan,number,n2LEi91EfpZqy3MfJxMmJvV34sk1,html-keyboard-response,81,640644,0.0-7.0-2.6-0.6-1.35-0.35,,,,,,,576809123b99f40001734d90,11:23:33,15/01/2024
,"<p style=""font-size:14rem;font-weight:400;"">2</p>",,fwdspan,number,n2LEi91EfpZqy3MfJxMmJvV34sk1,html-keyboard-response,82,641703,0.0-7.0-2.6-0.6-1.36-0.36,,,,,,,576809123b99f40001734d90,11:23:33,15/01/2024
,"<p style=""font-size:14rem;font-weight:400;"">7</p>",,fwdspan,number,n2LEi91EfpZqy3MfJxMmJvV34sk1,html-keyboard-response,83,642778,0.0-7.0-2.6-0.6-1.37-0.37,,,,,,,576809123b99f40001734d90,11:23:33,15/01/2024
,[],,fwdspan,delay,n2LEi91EfpZqy3MfJxMmJvV34sk1,html-keyboard-response,84,643349,0.0-7.0-2.6-0.6-2.6,,,,,,,576809123b99f40001734d90,11:23:33,15/01/2024
6370.600000000093,"<div class = numbox><p style=""font-size:2.5rem"">What were the numbers <b>in order</b>?<br>(When you are ready to lock in your answer, press <b>ENTER</b>)</p><button id = button_1 class = ""square num-button"" onclick = ""recordClick(this)""><div class = content><div class = numbers>1</div></div></button><button id = button_2 class = ""square num-button"" onclick = ""recordClick(this)""><div class = content><div class = numbers>2</div></div></button><button id = button_3 class = ""square num-button"" onclick = ""recordClick(this)""><div class = content><div class = numbers>3</div></div></button><button id = button_4 class = ""square num-button"" onclick = ""recordClick(this)""><div class = content><div class = numbers>4</div></div></button><button id = button_5 class = ""square num-button"" onclick = ""recordClick(this)""><div class = content><div class = numbers>5</div></div></button><button id = button_6 class = ""square num-button"" onclick = ""recordClick(this)""><div class = content><div class = numbers>6</div></div></button><button id = button_7 class = ""square num-button"" onclick = ""recordClick(this)""><div class = content><div class = numbers>7</div></div></button><button id = button_8 class = ""square num-button"" onclick = ""recordClick(this)""><div class = content><div class = numbers>8</div></div></button><button id = button_9 class = ""square num-button"" onclick = ""recordClick(this)""><div class = content><div class = numbers>9</div></div></button><button class = clear_button id = ""ClearButton"" onclick = ""clearResponse()"">Clear</button><p><u><b>Current Answer:</b></u></p><div id=echoed_txt style=""font-size: 6rem; color:blue;""><b></b></div></div><br><br><br><br><br><br><br>",enter,fwdspan,response,n2LEi91EfpZqy3MfJxMmJvV34sk1,html-keyboard-response,85,649721,0.0-7.0-2.6-0.6-3.6,8.0,"[4,5,3,1,9,7]","[4,5,3,1,9,6,2,7]",0.0,"[3, 4, 5, 5, 6, 7, 8, 8, 7, 7, 8, 9]",,576809123b99f40001734d90,11:23:33,15/01/2024
,,,fwdspan,update_span,n2LEi91EfpZqy3MfJxMmJvV34sk1,call-function,86,649978,0.0-7.0-2.6-0.6-4.6,,,,,,,576809123b99f40001734d90,11:23:33,15/01/2024
1419.2000000001863,"<p style=""font-size:3rem"">Trial 8 of 12</p><br><br><br>",0,fwdspan,start_trial,n2LEi91EfpZqy3MfJxMmJvV34sk1,html-button-response,87,651399,0.0-7.0-2.7-0.7-0.7,,,,,,,576809123b99f40001734d90,11:23:33,15/01/2024
,"<p style=""font-size:14rem;font-weight:400;"">2</p>",,fwdspan,number,n2LEi91EfpZqy3MfJxMmJvV34sk1,html-keyboard-response,88,652423,0.0-7.0-2.7-0.7-1.38-0.38,,,,,,,576809123b99f40001734d90,11:23:33,15/01/2024
,"<p style=""font-size:14rem;font-weight:400;"">9</p>",,fwdspan,number,n2LEi91EfpZqy3MfJxMmJvV34sk1,html-keyboard-response,89,653440,0.0-7.0-2.7-0.7-1.39-0.39,,,,,,,576809123b99f40001734d90,11:23:33,15/01/2024
,"<p style=""font-size:14rem;font-weight:400;"">6</p>",,fwdspan,number,n2LEi91EfpZqy3MfJxMmJvV34sk1,html-keyboard-response,90,654458,0.0-7.0-2.7-0.7-1.40-0.40,,,,,,,576809123b99f40001734d90,11:23:33,15/01/2024
,"<p style=""font-size:14rem;font-weight:400;"">5</p>",,fwdspan,number,n2LEi91EfpZqy3MfJxMmJvV34sk1,html-keyboard-response,91,655524,0.0-7.0-2.7-0.7-1.41-0.41,,,,,,,576809123b99f40001734d90,11:23:33,15/01/2024
,"<p style=""font-size:14rem;font-weight:400;"">3</p>",,fwdspan,number,n2LEi91EfpZqy3MfJxMmJvV34sk1,html-keyboard-response,92,656571,0.0-7.0-2.7-0.7-1.42-0.42,,,,,,,576809123b99f40001734d90,11:23:33,15/01/2024
,"<p style=""font-size:14rem;font-weight:400;"">7</p>",,fwdspan,number,n2LEi91EfpZqy3MfJxMmJvV34sk1,html-keyboard-response,93,657622,0.0-7.0-2.7-0.7-1.43-0.43,,,,,,,576809123b99f40001734d90,11:23:33,15/01/2024
,"<p style=""font-size:14rem;font-weight:400;"">1</p>",,fwdspan,number,n2LEi91EfpZqy3MfJxMmJvV34sk1,html-keyboard-response,94,658672,0.0-7.0-2.7-0.7-1.44-0.44,,,,,,,576809123b99f40001734d90,11:23:33,15/01/2024
,"<p style=""font-size:14rem;font-weight:400;"">4</p>",,fwdspan,number,n2LEi91EfpZqy3MfJxMmJvV34sk1,html-keyboard-response,95,659697,0.0-7.0-2.7-0.7-1.45-0.45,,,,,,,576809123b99f40001734d90,11:23:33,15/01/2024
,[],,fwdspan,delay,n2LEi91EfpZqy3MfJxMmJvV34sk1,html-keyboard-response,96,660298,0.0-7.0-2.7-0.7-2.7,,,,,,,576809123b99f40001734d90,11:23:33,15/01/2024
9100.5,"<div class = numbox><p style=""font-size:2.5rem"">What were the numbers <b>in order</b>?<br>(When you are ready to lock in your answer, press <b>ENTER</b>)</p><button id = button_1 class = ""square num-button"" onclick = ""recordClick(this)""><div class = content><div class = numbers>1</div></div></button><button id = button_2 class = ""square num-button"" onclick = ""recordClick(this)""><div class = content><div class = numbers>2</div></div></button><button id = button_3 class = ""square num-button"" onclick = ""recordClick(this)""><div class = content><div class = numbers>3</div></div></button><button id = button_4 class = ""square num-button"" onclick = ""recordClick(this)""><div class = content><div class = numbers>4</div></div></button><button id = button_5 class = ""square num-button"" onclick = ""recordClick(this)""><div class = content><div class = numbers>5</div></div></button><button id = button_6 class = ""square num-button"" onclick = ""recordClick(this)""><div class = content><div class = numbers>6</div></div></button><button id = button_7 class = ""square num-button"" onclick = ""recordClick(this)""><div class = content><div class = numbers>7</div></div></button><button id = button_8 class = ""square num-button"" onclick = ""recordClick(this)""><div class = content><div class = numbers>8</div></div></button><button id = button_9 class = ""square num-button"" onclick = ""recordClick(this)""><div class = content><div class = numbers>9</div></div></button><button class = clear_button id = ""ClearButton"" onclick = ""clearResponse()"">Clear</button><p><u><b>Current Answer:</b></u></p><div id=echoed_txt style=""font-size: 6rem; color:blue;""><b></b></div></div><br><br><br><br><br><br><br>",enter,fwdspan,response,n2LEi91EfpZqy3MfJxMmJvV34sk1,html-keyboard-response,97,669400,0.0-7.0-2.7-0.7-3.7,8.0,"[2,9,6,7,3,1]","[2,9,6,5,3,7,1,4]",0.0,"[3, 4, 5, 5, 6, 7, 8, 8, 7, 7, 8, 9]",,576809123b99f40001734d90,11:23:33,15/01/2024
,,,fwdspan,update_span,n2LEi91EfpZqy3MfJxMmJvV34sk1,call-function,98,669661,0.0-7.0-2.7-0.7-4.7,,,,,,,576809123b99f40001734d90,11:23:33,15/01/2024
1347.2000000001863,"<p style=""font-size:3rem"">Trial 9 of 12</p><br><br><br>",0,fwdspan,start_trial,n2LEi91EfpZqy3MfJxMmJvV34sk1,html-button-response,99,671010,0.0-7.0-2.8-0.8-0.8,,,,,,,576809123b99f40001734d90,11:23:33,15/01/2024
,"<p style=""font-size:14rem;font-weight:400;"">9</p>",,fwdspan,number,n2LEi91EfpZqy3MfJxMmJvV34sk1,html-keyboard-response,100,672030,0.0-7.0-2.8-0.8-1.46-0.46,,,,,,,576809123b99f40001734d90,11:23:33,15/01/2024
,"<p style=""font-size:14rem;font-weight:400;"">1</p>",,fwdspan,number,n2LEi91EfpZqy3MfJxMmJvV34sk1,html-keyboard-response,101,673078,0.0-7.0-2.8-0.8-1.47-0.47,,,,,,,576809123b99f40001734d90,11:23:33,15/01/2024
,"<p style=""font-size:14rem;font-weight:400;"">6</p>",,fwdspan,number,n2LEi91EfpZqy3MfJxMmJvV34sk1,html-keyboard-response,102,674092,0.0-7.0-2.8-0.8-1.48-0.48,,,,,,,576809123b99f40001734d90,11:23:33,15/01/2024
,"<p style=""font-size:14rem;font-weight:400;"">4</p>",,fwdspan,number,n2LEi91EfpZqy3MfJxMmJvV34sk1,html-keyboard-response,103,675145,0.0-7.0-2.8-0.8-1.49-0.49,,,,,,,576809123b99f40001734d90,11:23:33,15/01/2024
,"<p style=""font-size:14rem;font-weight:400;"">2</p>",,fwdspan,number,n2LEi91EfpZqy3MfJxMmJvV34sk1,html-keyboard-response,104,676163,0.0-7.0-2.8-0.8-1.50-0.50,,,,,,,576809123b99f40001734d90,11:23:33,15/01/2024
,"<p style=""font-size:14rem;font-weight:400;"">3</p>",,fwdspan,number,n2LEi91EfpZqy3MfJxMmJvV34sk1,html-keyboard-response,105,677221,0.0-7.0-2.8-0.8-1.51-0.51,,,,,,,576809123b99f40001734d90,11:23:33,15/01/2024
,"<p style=""font-size:14rem;font-weight:400;"">8</p>",,fwdspan,number,n2LEi91EfpZqy3MfJxMmJvV34sk1,html-keyboard-response,106,678303,0.0-7.0-2.8-0.8-1.52-0.52,,,,,,,576809123b99f40001734d90,11:23:33,15/01/2024
,[],,fwdspan,delay,n2LEi91EfpZqy3MfJxMmJvV34sk1,html-keyboard-response,107,678932,0.0-7.0-2.8-0.8-2.8,,,,,,,576809123b99f40001734d90,11:23:33,15/01/2024
7211.200000000186,"<div class = numbox><p style=""font-size:2.5rem"">What were the numbers <b>in order</b>?<br>(When you are ready to lock in your answer, press <b>ENTER</b>)</p><button id = button_1 class = ""square num-button"" onclick = ""recordClick(this)""><div class = content><div class = numbers>1</div></div></button><button id = button_2 class = ""square num-button"" onclick = ""recordClick(this)""><div class = content><div class = numbers>2</div></div></button><button id = button_3 class = ""square num-button"" onclick = ""recordClick(this)""><div class = content><div class = numbers>3</div></div></button><button id = button_4 class = ""square num-button"" onclick = ""recordClick(this)""><div class = content><div class = numbers>4</div></div></button><button id = button_5 class = ""square num-button"" onclick = ""recordClick(this)""><div class = content><div class = numbers>5</div></div></button><button id = button_6 class = ""square num-button"" onclick = ""recordClick(this)""><div class = content><div class = numbers>6</div></div></button><button id = button_7 class = ""square num-button"" onclick = ""recordClick(this)""><div class = content><div class = numbers>7</div></div></button><button id = button_8 class = ""square num-button"" onclick = ""recordClick(this)""><div class = content><div class = numbers>8</div></div></button><button id = button_9 class = ""square num-button"" onclick = ""recordClick(this)""><div class = content><div class = numbers>9</div></div></button><button class = clear_button id = ""ClearButton"" onclick = ""clearResponse()"">Clear</button><p><u><b>Current Answer:</b></u></p><div id=echoed_txt style=""font-size: 6rem; color:blue;""><b></b></div></div><br><br><br><br><br><br><br>",enter,fwdspan,response,n2LEi91EfpZqy3MfJxMmJvV34sk1,html-keyboard-response,108,686145,0.0-7.0-2.8-0.8-3.8,7.0,"[9,1,6,4,2,8]","[9,1,6,4,2,3,8]",0.0,"[3, 4, 5, 5, 6, 7, 8, 8, 7, 7, 8, 9]",,576809123b99f40001734d90,11:23:33,15/01/2024
,,,fwdspan,update_span,n2LEi91EfpZqy3MfJxMmJvV34sk1,call-function,109,686400,0.0-7.0-2.8-0.8-4.8,,,,,,,576809123b99f40001734d90,11:23:33,15/01/2024
2104.399999999907,"<p style=""font-size:3rem"">Trial 10 of 12</p><br><br><br>",0,fwdspan,start_trial,n2LEi91EfpZqy3MfJxMmJvV34sk1,html-button-response,110,688506,0.0-7.0-2.9-0.9-0.9,,,,,,,576809123b99f40001734d90,11:23:33,15/01/2024
,"<p style=""font-size:14rem;font-weight:400;"">1</p>",,fwdspan,number,n2LEi91EfpZqy3MfJxMmJvV34sk1,html-keyboard-response,111,689523,0.0-7.0-2.9-0.9-1.53-0.53,,,,,,,576809123b99f40001734d90,11:23:33,15/01/2024
,"<p style=""font-size:14rem;font-weight:400;"">9</p>",,fwdspan,number,n2LEi91EfpZqy3MfJxMmJvV34sk1,html-keyboard-response,112,690541,0.0-7.0-2.9-0.9-1.54-0.54,,,,,,,576809123b99f40001734d90,11:23:33,15/01/2024
,"<p style=""font-size:14rem;font-weight:400;"">7</p>",,fwdspan,number,n2LEi91EfpZqy3MfJxMmJvV34sk1,html-keyboard-response,113,691589,0.0-7.0-2.9-0.9-1.55-0.55,,,,,,,576809123b99f40001734d90,11:23:33,15/01/2024
,"<p style=""font-size:14rem;font-weight:400;"">2</p>",,fwdspan,number,n2LEi91EfpZqy3MfJxMmJvV34sk1,html-keyboard-response,114,692607,0.0-7.0-2.9-0.9-1.56-0.56,,,,,,,576809123b99f40001734d90,11:23:33,15/01/2024
,"<p style=""font-size:14rem;font-weight:400;"">5</p>",,fwdspan,number,n2LEi91EfpZqy3MfJxMmJvV34sk1,html-keyboard-response,115,693662,0.0-7.0-2.9-0.9-1.57-0.57,,,,,,,576809123b99f40001734d90,11:23:33,15/01/2024
,"<p style=""font-size:14rem;font-weight:400;"">4</p>",,fwdspan,number,n2LEi91EfpZqy3MfJxMmJvV34sk1,html-keyboard-response,116,694745,0.0-7.0-2.9-0.9-1.58-0.58,,,,,,,576809123b99f40001734d90,11:23:33,15/01/2024
,"<p style=""font-size:14rem;font-weight:400;"">6</p>",,fwdspan,number,n2LEi91EfpZqy3MfJxMmJvV34sk1,html-keyboard-response,117,695790,0.0-7.0-2.9-0.9-1.59-0.59,,,,,,,576809123b99f40001734d90,11:23:33,15/01/2024
,[],,fwdspan,delay,n2LEi91EfpZqy3MfJxMmJvV34sk1,html-keyboard-response,118,696384,0.0-7.0-2.9-0.9-2.9,,,,,,,576809123b99f40001734d90,11:23:33,15/01/2024
8626.5,"<div class = numbox><p style=""font-size:2.5rem"">What were the numbers <b>in order</b>?<br>(When you are ready to lock in your answer, press <b>ENTER</b>)</p><button id = button_1 class = ""square num-button"" onclick = ""recordClick(this)""><div class = content><div class = numbers>1</div></div></button><button id = button_2 class = ""square num-button"" onclick = ""recordClick(this)""><div class = content><div class = numbers>2</div></div></button><button id = button_3 class = ""square num-button"" onclick = ""recordClick(this)""><div class = content><div class = numbers>3</div></div></button><button id = button_4 class = ""square num-button"" onclick = ""recordClick(this)""><div class = content><div class = numbers>4</div></div></button><button id = button_5 class = ""square num-button"" onclick = ""recordClick(this)""><div class = content><div class = numbers>5</div></div></button><button id = button_6 class = ""square num-button"" onclick = ""recordClick(this)""><div class = content><div class = numbers>6</div></div></button><button id = button_7 class = ""square num-button"" onclick = ""recordClick(this)""><div class = content><div class = numbers>7</div></div></button><button id = button_8 class = ""square num-button"" onclick = ""recordClick(this)""><div class = content><div class = numbers>8</div></div></button><button id = button_9 class = ""square num-button"" onclick = ""recordClick(this)""><div class = content><div class = numbers>9</div></div></button><button class = clear_button id = ""ClearButton"" onclick = ""clearResponse()"">Clear</button><p><u><b>Current Answer:</b></u></p><div id=echoed_txt style=""font-size: 6rem; color:blue;""><b></b></div></div><br><br><br><br><br><br><br>",enter,fwdspan,response,n2LEi91EfpZqy3MfJxMmJvV34sk1,html-keyboard-response,119,705013,0.0-7.0-2.9-0.9-3.9,7.0,"[1,9,7,2,5,4,6]","[1,9,7,2,5,4,6]",1.0,"[3, 4, 5, 5, 6, 7, 8, 8, 7, 7, 8, 9]",,576809123b99f40001734d90,11:23:33,15/01/2024
,,,fwdspan,update_span,n2LEi91EfpZqy3MfJxMmJvV34sk1,call-function,120,705273,0.0-7.0-2.9-0.9-4.9,,,,,,,576809123b99f40001734d90,11:23:33,15/01/2024
1017.5,"<p style=""font-size:3rem"">Trial 11 of 12</p><br><br><br>",0,fwdspan,start_trial,n2LEi91EfpZqy3MfJxMmJvV34sk1,html-button-response,121,706292,0.0-7.0-2.10-0.10-0.10,,,,,,,576809123b99f40001734d90,11:23:33,15/01/2024
,"<p style=""font-size:14rem;font-weight:400;"">8</p>",,fwdspan,number,n2LEi91EfpZqy3MfJxMmJvV34sk1,html-keyboard-response,122,707313,0.0-7.0-2.10-0.10-1.60-0.60,,,,,,,576809123b99f40001734d90,11:23:33,15/01/2024
,"<p style=""font-size:14rem;font-weight:400;"">1</p>",,fwdspan,number,n2LEi91EfpZqy3MfJxMmJvV34sk1,html-keyboard-response,123,708330,0.0-7.0-2.10-0.10-1.61-0.61,,,,,,,576809123b99f40001734d90,11:23:33,15/01/2024
,"<p style=""font-size:14rem;font-weight:400;"">4</p>",,fwdspan,number,n2LEi91EfpZqy3MfJxMmJvV34sk1,html-keyboard-response,124,709347,0.0-7.0-2.10-0.10-1.62-0.62,,,,,,,576809123b99f40001734d90,11:23:33,15/01/2024
,"<p style=""font-size:14rem;font-weight:400;"">2</p>",,fwdspan,number,n2LEi91EfpZqy3MfJxMmJvV34sk1,html-keyboard-response,125,710372,0.0-7.0-2.10-0.10-1.63-0.63,,,,,,,576809123b99f40001734d90,11:23:33,15/01/2024
,"<p style=""font-size:14rem;font-weight:400;"">9</p>",,fwdspan,number,n2LEi91EfpZqy3MfJxMmJvV34sk1,html-keyboard-response,126,711452,0.0-7.0-2.10-0.10-1.64-0.64,,,,,,,576809123b99f40001734d90,11:23:33,15/01/2024
,"<p style=""font-size:14rem;font-weight:400;"">6</p>",,fwdspan,number,n2LEi91EfpZqy3MfJxMmJvV34sk1,html-keyboard-response,127,712528,0.0-7.0-2.10-0.10-1.65-0.65,,,,,,,576809123b99f40001734d90,11:23:33,15/01/2024
,"<p style=""font-size:14rem;font-weight:400;"">3</p>",,fwdspan,number,n2LEi91EfpZqy3MfJxMmJvV34sk1,html-keyboard-response,128,713556,0.0-7.0-2.10-0.10-1.66-0.66,,,,,,,576809123b99f40001734d90,11:23:33,15/01/2024
,"<p style=""font-size:14rem;font-weight:400;"">7</p>",,fwdspan,number,n2LEi91EfpZqy3MfJxMmJvV34sk1,html-keyboard-response,129,714622,0.0-7.0-2.10-0.10-1.67-0.67,,,,,,,576809123b99f40001734d90,11:23:33,15/01/2024
,[],,fwdspan,delay,n2LEi91EfpZqy3MfJxMmJvV34sk1,html-keyboard-response,130,715200,0.0-7.0-2.10-0.10-2.10,,,,,,,576809123b99f40001734d90,11:23:33,15/01/2024
7644.899999999907,"<div class = numbox><p style=""font-size:2.5rem"">What were the numbers <b>in order</b>?<br>(When you are ready to lock in your answer, press <b>ENTER</b>)</p><button id = button_1 class = ""square num-button"" onclick = ""recordClick(this)""><div class = content><div class = numbers>1</div></div></button><button id = button_2 class = ""square num-button"" onclick = ""recordClick(this)""><div class = content><div class = numbers>2</div></div></button><button id = button_3 class = ""square num-button"" onclick = ""recordClick(this)""><div class = content><div class = numbers>3</div></div></button><button id = button_4 class = ""square num-button"" onclick = ""recordClick(this)""><div class = content><div class = numbers>4</div></div></button><button id = button_5 class = ""square num-button"" onclick = ""recordClick(this)""><div class = content><div class = numbers>5</div></div></button><button id = button_6 class = ""square num-button"" onclick = ""recordClick(this)""><div class = content><div class = numbers>6</div></div></button><button id = button_7 class = ""square num-button"" onclick = ""recordClick(this)""><div class = content><div class = numbers>7</div></div></button><button id = button_8 class = ""square num-button"" onclick = ""recordClick(this)""><div class = content><div class = numbers>8</div></div></button><button id = button_9 class = ""square num-button"" onclick = ""recordClick(this)""><div class = content><div class = numbers>9</div></div></button><button class = clear_button id = ""ClearButton"" onclick = ""clearResponse()"">Clear</button><p><u><b>Current Answer:</b></u></p><div id=echoed_txt style=""font-size: 6rem; color:blue;""><b></b></div></div><br><br><br><br><br><br><br>",enter,fwdspan,response,n2LEi91EfpZqy3MfJxMmJvV34sk1,html-keyboard-response,131,722846,0.0-7.0-2.10-0.10-3.10,8.0,"[8,1,4,2,9,6,3,7]","[8,1,4,2,9,6,3,7]",1.0,"[3, 4, 5, 5, 6, 7, 8, 8, 7, 7, 8, 9]",,576809123b99f40001734d90,11:23:33,15/01/2024
,,,fwdspan,update_span,n2LEi91EfpZqy3MfJxMmJvV34sk1,call-function,132,723104,0.0-7.0-2.10-0.10-4.10,,,,,,,576809123b99f40001734d90,11:23:33,15/01/2024
1217.8999999999069,"<p style=""font-size:3rem"">Trial 12 of 12</p><br><br><br>",0,fwdspan,start_trial,n2LEi91EfpZqy3MfJxMmJvV34sk1,html-button-response,133,724323,0.0-7.0-2.11-0.11-0.11,,,,,,,576809123b99f40001734d90,11:23:33,15/01/2024
,"<p style=""font-size:14rem;font-weight:400;"">1</p>",,fwdspan,number,n2LEi91EfpZqy3MfJxMmJvV34sk1,html-keyboard-response,134,725339,0.0-7.0-2.11-0.11-1.68-0.68,,,,,,,576809123b99f40001734d90,11:23:33,15/01/2024
,"<p style=""font-size:14rem;font-weight:400;"">7</p>",,fwdspan,number,n2LEi91EfpZqy3MfJxMmJvV34sk1,html-keyboard-response,135,726358,0.0-7.0-2.11-0.11-1.69-0.69,,,,,,,576809123b99f40001734d90,11:23:33,15/01/2024
,"<p style=""font-size:14rem;font-weight:400;"">9</p>",,fwdspan,number,n2LEi91EfpZqy3MfJxMmJvV34sk1,html-keyboard-response,136,727405,0.0-7.0-2.11-0.11-1.70-0.70,,,,,,,576809123b99f40001734d90,11:23:33,15/01/2024
,"<p style=""font-size:14rem;font-weight:400;"">3</p>",,fwdspan,number,n2LEi91EfpZqy3MfJxMmJvV34sk1,html-keyboard-response,137,728424,0.0-7.0-2.11-0.11-1.71-0.71,,,,,,,576809123b99f40001734d90,11:23:33,15/01/2024
,"<p style=""font-size:14rem;font-weight:400;"">6</p>",,fwdspan,number,n2LEi91EfpZqy3MfJxMmJvV34sk1,html-keyboard-response,138,729456,0.0-7.0-2.11-0.11-1.72-0.72,,,,,,,576809123b99f40001734d90,11:23:33,15/01/2024
,"<p style=""font-size:14rem;font-weight:400;"">8</p>",,fwdspan,number,n2LEi91EfpZqy3MfJxMmJvV34sk1,html-keyboard-response,139,730536,0.0-7.0-2.11-0.11-1.73-0.73,,,,,,,576809123b99f40001734d90,11:23:33,15/01/2024
,"<p style=""font-size:14rem;font-weight:400;"">4</p>",,fwdspan,number,n2LEi91EfpZqy3MfJxMmJvV34sk1,html-keyboard-response,140,731612,0.0-7.0-2.11-0.11-1.74-0.74,,,,,,,576809123b99f40001734d90,11:23:33,15/01/2024
,"<p style=""font-size:14rem;font-weight:400;"">5</p>",,fwdspan,number,n2LEi91EfpZqy3MfJxMmJvV34sk1,html-keyboard-response,141,732663,0.0-7.0-2.11-0.11-1.75-0.75,,,,,,,576809123b99f40001734d90,11:23:33,15/01/2024
,"<p style=""font-size:14rem;font-weight:400;"">2</p>",,fwdspan,number,n2LEi91EfpZqy3MfJxMmJvV34sk1,html-keyboard-response,142,733738,0.0-7.0-2.11-0.11-1.76-0.76,,,,,,,576809123b99f40001734d90,11:23:33,15/01/2024
,[],,fwdspan,delay,n2LEi91EfpZqy3MfJxMmJvV34sk1,html-keyboard-response,143,734301,0.0-7.0-2.11-0.11-2.11,,,,,,,576809123b99f40001734d90,11:23:33,15/01/2024
7660.800000000279,"<div class = numbox><p style=""font-size:2.5rem"">What were the numbers <b>in order</b>?<br>(When you are ready to lock in your answer, press <b>ENTER</b>)</p><button id = button_1 class = ""square num-button"" onclick = ""recordClick(this)""><div class = content><div class = numbers>1</div></div></button><button id = button_2 class = ""square num-button"" onclick = ""recordClick(this)""><div class = content><div class = numbers>2</div></div></button><button id = button_3 class = ""square num-button"" onclick = ""recordClick(this)""><div class = content><div class = numbers>3</div></div></button><button id = button_4 class = ""square num-button"" onclick = ""recordClick(this)""><div class = content><div class = numbers>4</div></div></button><button id = button_5 class = ""square num-button"" onclick = ""recordClick(this)""><div class = content><div class = numbers>5</div></div></button><button id = button_6 class = ""square num-button"" onclick = ""recordClick(this)""><div class = content><div class = numbers>6</div></div></button><button id = button_7 class = ""square num-button"" onclick = ""recordClick(this)""><div class = content><div class = numbers>7</div></div></button><button id = button_8 class = ""square num-button"" onclick = ""recordClick(this)""><div class = content><div class = numbers>8</div></div></button><button id = button_9 class = ""square num-button"" onclick = ""recordClick(this)""><div class = content><div class = numbers>9</div></div></button><button class = clear_button id = ""ClearButton"" onclick = ""clearResponse()"">Clear</button><p><u><b>Current Answer:</b></u></p><div id=echoed_txt style=""font-size: 6rem; color:blue;""><b></b></div></div><br><br><br><br><br><br><br>",enter,fwdspan,response,n2LEi91EfpZqy3MfJxMmJvV34sk1,html-keyboard-response,144,741964,0.0-7.0-2.11-0.11-3.11,9.0,"[1,7,9,6,8,3,5,4]","[1,7,9,3,6,8,4,5,2]",0.0,"[3, 4, 5, 5, 6, 7, 8, 8, 7, 7, 8, 9]",,576809123b99f40001734d90,11:23:33,15/01/2024
,,,fwdspan,update_span,n2LEi91EfpZqy3MfJxMmJvV34sk1,call-function,145,742226,0.0-7.0-2.11-0.11-4.11,,,,,,,576809123b99f40001734d90,11:23:33,15/01/2024
30356.200000000186,,{'Q0': 'The task was very well explained and it was good that you had time in between each task to start. '},fwdspan,survey,n2LEi91EfpZqy3MfJxMmJvV34sk1,lmdlab-survey-text,146,773345,0.0-7.0-3.0,,,,,,n2LEi91EfpZqy3MfJxMmJvV34sk1,576809123b99f40001734d90,11:23:33,15/01/2024
1901.2999999998137,<p><p style='font-size: 3rem'>Great work!<br><br>This completes the digit span task.</p><br><br><br>,0,fwdspan,finish,n2LEi91EfpZqy3MfJxMmJvV34sk1,html-button-response,147,775250,0.0-7.0-4.0,,,,,,,576809123b99f40001734d90,11:23:33,15/01/2024
