rt,stimulus,response,exp_name,exp_stage,subjectID,trial_type,trial_index,time_elapsed,internal_node_id,span,answer,correct,correct_full,span_history,databaseID,prolificID,start_time,date
7863.5,"<p style=""font-size:4rem""><br><br>In the next part today, we have a completely different short task.<br><br><br>This part involves keeping numbers in you mind. Participation takes around 5 minutes.<br><br><br></p>",0,fwdspan,instruct,lrfNUwW18whyXQtadw8Epe3hu1f2,html-button-response,19,348247,0.0-7.0-0.0,,,,,,,60e2e1deafbbcd1c20bb3706,11:22:20 AM,1/15/2024
102839.0,"<p style=""font-size:5rem"">Welcome to the <b>digit span task</b>!<br><br></p><p style=""font-size:3.4rem""><br>On each trial, you will see a sequence of digits, followed by a delay.</p><p style=""font-size:3.4rem""><br>Then you will be asked to type them back in the same order in which they were seen.</p><p style=""font-size:3.4rem""><br><br><br>For example, if you saw the digits <b style=""color:blue;"">1</b>, <b style=""color:blue;"">2</b>, <b style=""color:blue;"">3</b>, you would respond with <b style=""color:blue;"">1</b>, <b style=""color:blue;"">2</b>, <b style=""color:blue;"">3</b></p><p style=""font-size:3.4rem""><br><br><br>To ensure the best measure of true performance for our study,<br><br>it is very important that you do not use any memory aid (e.g., pen and paper).<br><br>Please do the task solely in your head.</p><p style=""font-size:3.4rem""><br><br><br>There will be 12 total trials. Participation takes around 5 minutes.</p><br><br><br>",0,fwdspan,instruct,lrfNUwW18whyXQtadw8Epe3hu1f2,html-button-response,20,451086,0.0-7.0-1.0,,,,,,,60e2e1deafbbcd1c20bb3706,11:22:20 AM,1/15/2024
2076.900000035763,"<p style=""font-size:3rem"">Trial 1 of 12</p><br><br><br>",0,fwdspan,start_trial,lrfNUwW18whyXQtadw8Epe3hu1f2,html-button-response,21,453165,0.0-7.0-2.0-0.0-0.0,,,,,,,60e2e1deafbbcd1c20bb3706,11:22:20 AM,1/15/2024
,"<p style=""font-size:14rem;font-weight:400;"">2</p>",,fwdspan,number,lrfNUwW18whyXQtadw8Epe3hu1f2,html-keyboard-response,22,454182,0.0-7.0-2.0-0.0-1.0-0.0,,,,,,,60e2e1deafbbcd1c20bb3706,11:22:20 AM,1/15/2024
,"<p style=""font-size:14rem;font-weight:400;"">9</p>",,fwdspan,number,lrfNUwW18whyXQtadw8Epe3hu1f2,html-keyboard-response,23,455207,0.0-7.0-2.0-0.0-1.1-0.1,,,,,,,60e2e1deafbbcd1c20bb3706,11:22:20 AM,1/15/2024
,"<p style=""font-size:14rem;font-weight:400;"">4</p>",,fwdspan,number,lrfNUwW18whyXQtadw8Epe3hu1f2,html-keyboard-response,24,456223,0.0-7.0-2.0-0.0-1.2-0.2,,,,,,,60e2e1deafbbcd1c20bb3706,11:22:20 AM,1/15/2024
,[],,fwdspan,delay,lrfNUwW18whyXQtadw8Epe3hu1f2,html-keyboard-response,25,456792,0.0-7.0-2.0-0.0-2.0,,,,,,,60e2e1deafbbcd1c20bb3706,11:22:20 AM,1/15/2024
4994.600000023842,"<div class = numbox><p style=""font-size:2.5rem"">What were the numbers <b>in order</b>?<br>(When you are ready to lock in your answer, press <b>ENTER</b>)</p><button id = button_1 class = ""square num-button"" onclick = ""recordClick(this)""><div class = content><div class = numbers>1</div></div></button><button id = button_2 class = ""square num-button"" onclick = ""recordClick(this)""><div class = content><div class = numbers>2</div></div></button><button id = button_3 class = ""square num-button"" onclick = ""recordClick(this)""><div class = content><div class = numbers>3</div></div></button><button id = button_4 class = ""square num-button"" onclick = ""recordClick(this)""><div class = content><div class = numbers>4</div></div></button><button id = button_5 class = ""square num-button"" onclick = ""recordClick(this)""><div class = content><div class = numbers>5</div></div></button><button id = button_6 class = ""square num-button"" onclick = ""recordClick(this)""><div class = content><div class = numbers>6</div></div></button><button id = button_7 class = ""square num-button"" onclick = ""recordClick(this)""><div class = content><div class = numbers>7</div></div></button><button id = button_8 class = ""square num-button"" onclick = ""recordClick(this)""><div class = content><div class = numbers>8</div></div></button><button id = button_9 class = ""square num-button"" onclick = ""recordClick(this)""><div class = content><div class = numbers>9</div></div></button><button class = clear_button id = ""ClearButton"" onclick = ""clearResponse()"">Clear</button><p><u><b>Current Answer:</b></u></p><div id=echoed_txt style=""font-size: 6rem; color:blue;""><b></b></div></div><br><br><br><br><br><br><br>",enter,fwdspan,response,lrfNUwW18whyXQtadw8Epe3hu1f2,html-keyboard-response,26,461788,0.0-7.0-2.0-0.0-3.0,3.0,[],"[2,9,4]",0.0,"[3, 3, 4, 5, 6, 7, 7, 6, 6, 5, 6, 6]",,60e2e1deafbbcd1c20bb3706,11:22:20 AM,1/15/2024
,,,fwdspan,update_span,lrfNUwW18whyXQtadw8Epe3hu1f2,call-function,27,462048,0.0-7.0-2.0-0.0-4.0,,,,,,,60e2e1deafbbcd1c20bb3706,11:22:20 AM,1/15/2024
3445.5,"<p style=""font-size:3rem"">Trial 2 of 12</p><br><br><br>",0,fwdspan,start_trial,lrfNUwW18whyXQtadw8Epe3hu1f2,html-button-response,28,465495,0.0-7.0-2.1-0.1-0.1,,,,,,,60e2e1deafbbcd1c20bb3706,11:22:20 AM,1/15/2024
,"<p style=""font-size:14rem;font-weight:400;"">7</p>",,fwdspan,number,lrfNUwW18whyXQtadw8Epe3hu1f2,html-keyboard-response,29,466510,0.0-7.0-2.1-0.1-1.3-0.3,,,,,,,60e2e1deafbbcd1c20bb3706,11:22:20 AM,1/15/2024
,"<p style=""font-size:14rem;font-weight:400;"">8</p>",,fwdspan,number,lrfNUwW18whyXQtadw8Epe3hu1f2,html-keyboard-response,30,467540,0.0-7.0-2.1-0.1-1.4-0.4,,,,,,,60e2e1deafbbcd1c20bb3706,11:22:20 AM,1/15/2024
,"<p style=""font-size:14rem;font-weight:400;"">5</p>",,fwdspan,number,lrfNUwW18whyXQtadw8Epe3hu1f2,html-keyboard-response,31,468556,0.0-7.0-2.1-0.1-1.5-0.5,,,,,,,60e2e1deafbbcd1c20bb3706,11:22:20 AM,1/15/2024
,[],,fwdspan,delay,lrfNUwW18whyXQtadw8Epe3hu1f2,html-keyboard-response,32,469124,0.0-7.0-2.1-0.1-2.1,,,,,,,60e2e1deafbbcd1c20bb3706,11:22:20 AM,1/15/2024
5001.299999952316,"<div class = numbox><p style=""font-size:2.5rem"">What were the numbers <b>in order</b>?<br>(When you are ready to lock in your answer, press <b>ENTER</b>)</p><button id = button_1 class = ""square num-button"" onclick = ""recordClick(this)""><div class = content><div class = numbers>1</div></div></button><button id = button_2 class = ""square num-button"" onclick = ""recordClick(this)""><div class = content><div class = numbers>2</div></div></button><button id = button_3 class = ""square num-button"" onclick = ""recordClick(this)""><div class = content><div class = numbers>3</div></div></button><button id = button_4 class = ""square num-button"" onclick = ""recordClick(this)""><div class = content><div class = numbers>4</div></div></button><button id = button_5 class = ""square num-button"" onclick = ""recordClick(this)""><div class = content><div class = numbers>5</div></div></button><button id = button_6 class = ""square num-button"" onclick = ""recordClick(this)""><div class = content><div class = numbers>6</div></div></button><button id = button_7 class = ""square num-button"" onclick = ""recordClick(this)""><div class = content><div class = numbers>7</div></div></button><button id = button_8 class = ""square num-button"" onclick = ""recordClick(this)""><div class = content><div class = numbers>8</div></div></button><button id = button_9 class = ""square num-button"" onclick = ""recordClick(this)""><div class = content><div class = numbers>9</div></div></button><button class = clear_button id = ""ClearButton"" onclick = ""clearResponse()"">Clear</button><p><u><b>Current Answer:</b></u></p><div id=echoed_txt style=""font-size: 6rem; color:blue;""><b></b></div></div><br><br><br><br><br><br><br>",enter,fwdspan,response,lrfNUwW18whyXQtadw8Epe3hu1f2,html-keyboard-response,33,474127,0.0-7.0-2.1-0.1-3.1,3.0,"[7,8,5]","[7,8,5]",1.0,"[3, 3, 4, 5, 6, 7, 7, 6, 6, 5, 6, 6]",,60e2e1deafbbcd1c20bb3706,11:22:20 AM,1/15/2024
,,,fwdspan,update_span,lrfNUwW18whyXQtadw8Epe3hu1f2,call-function,34,474382,0.0-7.0-2.1-0.1-4.1,,,,,,,60e2e1deafbbcd1c20bb3706,11:22:20 AM,1/15/2024
1648.1000000238419,"<p style=""font-size:3rem"">Trial 3 of 12</p><br><br><br>",0,fwdspan,start_trial,lrfNUwW18whyXQtadw8Epe3hu1f2,html-button-response,35,476031,0.0-7.0-2.2-0.2-0.2,,,,,,,60e2e1deafbbcd1c20bb3706,11:22:20 AM,1/15/2024
,"<p style=""font-size:14rem;font-weight:400;"">2</p>",,fwdspan,number,lrfNUwW18whyXQtadw8Epe3hu1f2,html-keyboard-response,36,477040,0.0-7.0-2.2-0.2-1.6-0.6,,,,,,,60e2e1deafbbcd1c20bb3706,11:22:20 AM,1/15/2024
,"<p style=""font-size:14rem;font-weight:400;"">9</p>",,fwdspan,number,lrfNUwW18whyXQtadw8Epe3hu1f2,html-keyboard-response,37,478058,0.0-7.0-2.2-0.2-1.7-0.7,,,,,,,60e2e1deafbbcd1c20bb3706,11:22:20 AM,1/15/2024
,"<p style=""font-size:14rem;font-weight:400;"">8</p>",,fwdspan,number,lrfNUwW18whyXQtadw8Epe3hu1f2,html-keyboard-response,38,479068,0.0-7.0-2.2-0.2-1.8-0.8,,,,,,,60e2e1deafbbcd1c20bb3706,11:22:20 AM,1/15/2024
,"<p style=""font-size:14rem;font-weight:400;"">7</p>",,fwdspan,number,lrfNUwW18whyXQtadw8Epe3hu1f2,html-keyboard-response,39,480082,0.0-7.0-2.2-0.2-1.9-0.9,,,,,,,60e2e1deafbbcd1c20bb3706,11:22:20 AM,1/15/2024
,[],,fwdspan,delay,lrfNUwW18whyXQtadw8Epe3hu1f2,html-keyboard-response,40,480640,0.0-7.0-2.2-0.2-2.2,,,,,,,60e2e1deafbbcd1c20bb3706,11:22:20 AM,1/15/2024
3821.199999988079,"<div class = numbox><p style=""font-size:2.5rem"">What were the numbers <b>in order</b>?<br>(When you are ready to lock in your answer, press <b>ENTER</b>)</p><button id = button_1 class = ""square num-button"" onclick = ""recordClick(this)""><div class = content><div class = numbers>1</div></div></button><button id = button_2 class = ""square num-button"" onclick = ""recordClick(this)""><div class = content><div class = numbers>2</div></div></button><button id = button_3 class = ""square num-button"" onclick = ""recordClick(this)""><div class = content><div class = numbers>3</div></div></button><button id = button_4 class = ""square num-button"" onclick = ""recordClick(this)""><div class = content><div class = numbers>4</div></div></button><button id = button_5 class = ""square num-button"" onclick = ""recordClick(this)""><div class = content><div class = numbers>5</div></div></button><button id = button_6 class = ""square num-button"" onclick = ""recordClick(this)""><div class = content><div class = numbers>6</div></div></button><button id = button_7 class = ""square num-button"" onclick = ""recordClick(this)""><div class = content><div class = numbers>7</div></div></button><button id = button_8 class = ""square num-button"" onclick = ""recordClick(this)""><div class = content><div class = numbers>8</div></div></button><button id = button_9 class = ""square num-button"" onclick = ""recordClick(this)""><div class = content><div class = numbers>9</div></div></button><button class = clear_button id = ""ClearButton"" onclick = ""clearResponse()"">Clear</button><p><u><b>Current Answer:</b></u></p><div id=echoed_txt style=""font-size: 6rem; color:blue;""><b></b></div></div><br><br><br><br><br><br><br>",enter,fwdspan,response,lrfNUwW18whyXQtadw8Epe3hu1f2,html-keyboard-response,41,484463,0.0-7.0-2.2-0.2-3.2,4.0,"[2,9,8,7]","[2,9,8,7]",1.0,"[3, 3, 4, 5, 6, 7, 7, 6, 6, 5, 6, 6]",,60e2e1deafbbcd1c20bb3706,11:22:20 AM,1/15/2024
,,,fwdspan,update_span,lrfNUwW18whyXQtadw8Epe3hu1f2,call-function,42,484715,0.0-7.0-2.2-0.2-4.2,,,,,,,60e2e1deafbbcd1c20bb3706,11:22:20 AM,1/15/2024
1654.0999999642372,"<p style=""font-size:3rem"">Trial 4 of 12</p><br><br><br>",0,fwdspan,start_trial,lrfNUwW18whyXQtadw8Epe3hu1f2,html-button-response,43,486370,0.0-7.0-2.3-0.3-0.3,,,,,,,60e2e1deafbbcd1c20bb3706,11:22:20 AM,1/15/2024
,"<p style=""font-size:14rem;font-weight:400;"">9</p>",,fwdspan,number,lrfNUwW18whyXQtadw8Epe3hu1f2,html-keyboard-response,44,487390,0.0-7.0-2.3-0.3-1.10-0.10,,,,,,,60e2e1deafbbcd1c20bb3706,11:22:20 AM,1/15/2024
,"<p style=""font-size:14rem;font-weight:400;"">7</p>",,fwdspan,number,lrfNUwW18whyXQtadw8Epe3hu1f2,html-keyboard-response,45,488408,0.0-7.0-2.3-0.3-1.11-0.11,,,,,,,60e2e1deafbbcd1c20bb3706,11:22:20 AM,1/15/2024
,"<p style=""font-size:14rem;font-weight:400;"">6</p>",,fwdspan,number,lrfNUwW18whyXQtadw8Epe3hu1f2,html-keyboard-response,46,489423,0.0-7.0-2.3-0.3-1.12-0.12,,,,,,,60e2e1deafbbcd1c20bb3706,11:22:20 AM,1/15/2024
,"<p style=""font-size:14rem;font-weight:400;"">8</p>",,fwdspan,number,lrfNUwW18whyXQtadw8Epe3hu1f2,html-keyboard-response,47,490440,0.0-7.0-2.3-0.3-1.13-0.13,,,,,,,60e2e1deafbbcd1c20bb3706,11:22:20 AM,1/15/2024
,"<p style=""font-size:14rem;font-weight:400;"">4</p>",,fwdspan,number,lrfNUwW18whyXQtadw8Epe3hu1f2,html-keyboard-response,48,491451,0.0-7.0-2.3-0.3-1.14-0.14,,,,,,,60e2e1deafbbcd1c20bb3706,11:22:20 AM,1/15/2024
,[],,fwdspan,delay,lrfNUwW18whyXQtadw8Epe3hu1f2,html-keyboard-response,49,492022,0.0-7.0-2.3-0.3-2.3,,,,,,,60e2e1deafbbcd1c20bb3706,11:22:20 AM,1/15/2024
3423.5,"<div class = numbox><p style=""font-size:2.5rem"">What were the numbers <b>in order</b>?<br>(When you are ready to lock in your answer, press <b>ENTER</b>)</p><button id = button_1 class = ""square num-button"" onclick = ""recordClick(this)""><div class = content><div class = numbers>1</div></div></button><button id = button_2 class = ""square num-button"" onclick = ""recordClick(this)""><div class = content><div class = numbers>2</div></div></button><button id = button_3 class = ""square num-button"" onclick = ""recordClick(this)""><div class = content><div class = numbers>3</div></div></button><button id = button_4 class = ""square num-button"" onclick = ""recordClick(this)""><div class = content><div class = numbers>4</div></div></button><button id = button_5 class = ""square num-button"" onclick = ""recordClick(this)""><div class = content><div class = numbers>5</div></div></button><button id = button_6 class = ""square num-button"" onclick = ""recordClick(this)""><div class = content><div class = numbers>6</div></div></button><button id = button_7 class = ""square num-button"" onclick = ""recordClick(this)""><div class = content><div class = numbers>7</div></div></button><button id = button_8 class = ""square num-button"" onclick = ""recordClick(this)""><div class = content><div class = numbers>8</div></div></button><button id = button_9 class = ""square num-button"" onclick = ""recordClick(this)""><div class = content><div class = numbers>9</div></div></button><button class = clear_button id = ""ClearButton"" onclick = ""clearResponse()"">Clear</button><p><u><b>Current Answer:</b></u></p><div id=echoed_txt style=""font-size: 6rem; color:blue;""><b></b></div></div><br><br><br><br><br><br><br>",enter,fwdspan,response,lrfNUwW18whyXQtadw8Epe3hu1f2,html-keyboard-response,50,495447,0.0-7.0-2.3-0.3-3.3,5.0,"[9,7,6,8,4]","[9,7,6,8,4]",1.0,"[3, 3, 4, 5, 6, 7, 7, 6, 6, 5, 6, 6]",,60e2e1deafbbcd1c20bb3706,11:22:20 AM,1/15/2024
,,,fwdspan,update_span,lrfNUwW18whyXQtadw8Epe3hu1f2,call-function,51,495703,0.0-7.0-2.3-0.3-4.3,,,,,,,60e2e1deafbbcd1c20bb3706,11:22:20 AM,1/15/2024
1062.800000011921,"<p style=""font-size:3rem"">Trial 5 of 12</p><br><br><br>",0,fwdspan,start_trial,lrfNUwW18whyXQtadw8Epe3hu1f2,html-button-response,52,496767,0.0-7.0-2.4-0.4-0.4,,,,,,,60e2e1deafbbcd1c20bb3706,11:22:20 AM,1/15/2024
,"<p style=""font-size:14rem;font-weight:400;"">5</p>",,fwdspan,number,lrfNUwW18whyXQtadw8Epe3hu1f2,html-keyboard-response,53,497784,0.0-7.0-2.4-0.4-1.15-0.15,,,,,,,60e2e1deafbbcd1c20bb3706,11:22:20 AM,1/15/2024
,"<p style=""font-size:14rem;font-weight:400;"">4</p>",,fwdspan,number,lrfNUwW18whyXQtadw8Epe3hu1f2,html-keyboard-response,54,498806,0.0-7.0-2.4-0.4-1.16-0.16,,,,,,,60e2e1deafbbcd1c20bb3706,11:22:20 AM,1/15/2024
,"<p style=""font-size:14rem;font-weight:400;"">3</p>",,fwdspan,number,lrfNUwW18whyXQtadw8Epe3hu1f2,html-keyboard-response,55,499830,0.0-7.0-2.4-0.4-1.17-0.17,,,,,,,60e2e1deafbbcd1c20bb3706,11:22:20 AM,1/15/2024
,"<p style=""font-size:14rem;font-weight:400;"">7</p>",,fwdspan,number,lrfNUwW18whyXQtadw8Epe3hu1f2,html-keyboard-response,56,500854,0.0-7.0-2.4-0.4-1.18-0.18,,,,,,,60e2e1deafbbcd1c20bb3706,11:22:20 AM,1/15/2024
,"<p style=""font-size:14rem;font-weight:400;"">1</p>",,fwdspan,number,lrfNUwW18whyXQtadw8Epe3hu1f2,html-keyboard-response,57,501856,0.0-7.0-2.4-0.4-1.19-0.19,,,,,,,60e2e1deafbbcd1c20bb3706,11:22:20 AM,1/15/2024
,"<p style=""font-size:14rem;font-weight:400;"">8</p>",,fwdspan,number,lrfNUwW18whyXQtadw8Epe3hu1f2,html-keyboard-response,58,502870,0.0-7.0-2.4-0.4-1.20-0.20,,,,,,,60e2e1deafbbcd1c20bb3706,11:22:20 AM,1/15/2024
,[],,fwdspan,delay,lrfNUwW18whyXQtadw8Epe3hu1f2,html-keyboard-response,59,503423,0.0-7.0-2.4-0.4-2.4,,,,,,,60e2e1deafbbcd1c20bb3706,11:22:20 AM,1/15/2024
4438.300000011921,"<div class = numbox><p style=""font-size:2.5rem"">What were the numbers <b>in order</b>?<br>(When you are ready to lock in your answer, press <b>ENTER</b>)</p><button id = button_1 class = ""square num-button"" onclick = ""recordClick(this)""><div class = content><div class = numbers>1</div></div></button><button id = button_2 class = ""square num-button"" onclick = ""recordClick(this)""><div class = content><div class = numbers>2</div></div></button><button id = button_3 class = ""square num-button"" onclick = ""recordClick(this)""><div class = content><div class = numbers>3</div></div></button><button id = button_4 class = ""square num-button"" onclick = ""recordClick(this)""><div class = content><div class = numbers>4</div></div></button><button id = button_5 class = ""square num-button"" onclick = ""recordClick(this)""><div class = content><div class = numbers>5</div></div></button><button id = button_6 class = ""square num-button"" onclick = ""recordClick(this)""><div class = content><div class = numbers>6</div></div></button><button id = button_7 class = ""square num-button"" onclick = ""recordClick(this)""><div class = content><div class = numbers>7</div></div></button><button id = button_8 class = ""square num-button"" onclick = ""recordClick(this)""><div class = content><div class = numbers>8</div></div></button><button id = button_9 class = ""square num-button"" onclick = ""recordClick(this)""><div class = content><div class = numbers>9</div></div></button><button class = clear_button id = ""ClearButton"" onclick = ""clearResponse()"">Clear</button><p><u><b>Current Answer:</b></u></p><div id=echoed_txt style=""font-size: 6rem; color:blue;""><b></b></div></div><br><br><br><br><br><br><br>",enter,fwdspan,response,lrfNUwW18whyXQtadw8Epe3hu1f2,html-keyboard-response,60,507863,0.0-7.0-2.4-0.4-3.4,6.0,"[5,4,3,7,1,8]","[5,4,3,7,1,8]",1.0,"[3, 3, 4, 5, 6, 7, 7, 6, 6, 5, 6, 6]",,60e2e1deafbbcd1c20bb3706,11:22:20 AM,1/15/2024
,,,fwdspan,update_span,lrfNUwW18whyXQtadw8Epe3hu1f2,call-function,61,508129,0.0-7.0-2.4-0.4-4.4,,,,,,,60e2e1deafbbcd1c20bb3706,11:22:20 AM,1/15/2024
1273.199999988079,"<p style=""font-size:3rem"">Trial 6 of 12</p><br><br><br>",0,fwdspan,start_trial,lrfNUwW18whyXQtadw8Epe3hu1f2,html-button-response,62,509403,0.0-7.0-2.5-0.5-0.5,,,,,,,60e2e1deafbbcd1c20bb3706,11:22:20 AM,1/15/2024
,"<p style=""font-size:14rem;font-weight:400;"">2</p>",,fwdspan,number,lrfNUwW18whyXQtadw8Epe3hu1f2,html-keyboard-response,63,510421,0.0-7.0-2.5-0.5-1.21-0.21,,,,,,,60e2e1deafbbcd1c20bb3706,11:22:20 AM,1/15/2024
,"<p style=""font-size:14rem;font-weight:400;"">9</p>",,fwdspan,number,lrfNUwW18whyXQtadw8Epe3hu1f2,html-keyboard-response,64,511439,0.0-7.0-2.5-0.5-1.22-0.22,,,,,,,60e2e1deafbbcd1c20bb3706,11:22:20 AM,1/15/2024
,"<p style=""font-size:14rem;font-weight:400;"">1</p>",,fwdspan,number,lrfNUwW18whyXQtadw8Epe3hu1f2,html-keyboard-response,65,512465,0.0-7.0-2.5-0.5-1.23-0.23,,,,,,,60e2e1deafbbcd1c20bb3706,11:22:20 AM,1/15/2024
,"<p style=""font-size:14rem;font-weight:400;"">8</p>",,fwdspan,number,lrfNUwW18whyXQtadw8Epe3hu1f2,html-keyboard-response,66,513487,0.0-7.0-2.5-0.5-1.24-0.24,,,,,,,60e2e1deafbbcd1c20bb3706,11:22:20 AM,1/15/2024
,"<p style=""font-size:14rem;font-weight:400;"">5</p>",,fwdspan,number,lrfNUwW18whyXQtadw8Epe3hu1f2,html-keyboard-response,67,514507,0.0-7.0-2.5-0.5-1.25-0.25,,,,,,,60e2e1deafbbcd1c20bb3706,11:22:20 AM,1/15/2024
,"<p style=""font-size:14rem;font-weight:400;"">4</p>",,fwdspan,number,lrfNUwW18whyXQtadw8Epe3hu1f2,html-keyboard-response,68,515529,0.0-7.0-2.5-0.5-1.26-0.26,,,,,,,60e2e1deafbbcd1c20bb3706,11:22:20 AM,1/15/2024
,"<p style=""font-size:14rem;font-weight:400;"">7</p>",,fwdspan,number,lrfNUwW18whyXQtadw8Epe3hu1f2,html-keyboard-response,69,516555,0.0-7.0-2.5-0.5-1.27-0.27,,,,,,,60e2e1deafbbcd1c20bb3706,11:22:20 AM,1/15/2024
,[],,fwdspan,delay,lrfNUwW18whyXQtadw8Epe3hu1f2,html-keyboard-response,70,517122,0.0-7.0-2.5-0.5-2.5,,,,,,,60e2e1deafbbcd1c20bb3706,11:22:20 AM,1/15/2024
7022.800000011921,"<div class = numbox><p style=""font-size:2.5rem"">What were the numbers <b>in order</b>?<br>(When you are ready to lock in your answer, press <b>ENTER</b>)</p><button id = button_1 class = ""square num-button"" onclick = ""recordClick(this)""><div class = content><div class = numbers>1</div></div></button><button id = button_2 class = ""square num-button"" onclick = ""recordClick(this)""><div class = content><div class = numbers>2</div></div></button><button id = button_3 class = ""square num-button"" onclick = ""recordClick(this)""><div class = content><div class = numbers>3</div></div></button><button id = button_4 class = ""square num-button"" onclick = ""recordClick(this)""><div class = content><div class = numbers>4</div></div></button><button id = button_5 class = ""square num-button"" onclick = ""recordClick(this)""><div class = content><div class = numbers>5</div></div></button><button id = button_6 class = ""square num-button"" onclick = ""recordClick(this)""><div class = content><div class = numbers>6</div></div></button><button id = button_7 class = ""square num-button"" onclick = ""recordClick(this)""><div class = content><div class = numbers>7</div></div></button><button id = button_8 class = ""square num-button"" onclick = ""recordClick(this)""><div class = content><div class = numbers>8</div></div></button><button id = button_9 class = ""square num-button"" onclick = ""recordClick(this)""><div class = content><div class = numbers>9</div></div></button><button class = clear_button id = ""ClearButton"" onclick = ""clearResponse()"">Clear</button><p><u><b>Current Answer:</b></u></p><div id=echoed_txt style=""font-size: 6rem; color:blue;""><b></b></div></div><br><br><br><br><br><br><br>",enter,fwdspan,response,lrfNUwW18whyXQtadw8Epe3hu1f2,html-keyboard-response,71,524146,0.0-7.0-2.5-0.5-3.5,7.0,"[1,9,2,8,5,4,7,1]","[2,9,1,8,5,4,7]",0.0,"[3, 3, 4, 5, 6, 7, 7, 6, 6, 5, 6, 6]",,60e2e1deafbbcd1c20bb3706,11:22:20 AM,1/15/2024
,,,fwdspan,update_span,lrfNUwW18whyXQtadw8Epe3hu1f2,call-function,72,524403,0.0-7.0-2.5-0.5-4.5,,,,,,,60e2e1deafbbcd1c20bb3706,11:22:20 AM,1/15/2024
910.8999999761581,"<p style=""font-size:3rem"">Trial 7 of 12</p><br><br><br>",0,fwdspan,start_trial,lrfNUwW18whyXQtadw8Epe3hu1f2,html-button-response,73,525314,0.0-7.0-2.6-0.6-0.6,,,,,,,60e2e1deafbbcd1c20bb3706,11:22:20 AM,1/15/2024
,"<p style=""font-size:14rem;font-weight:400;"">6</p>",,fwdspan,number,lrfNUwW18whyXQtadw8Epe3hu1f2,html-keyboard-response,74,526333,0.0-7.0-2.6-0.6-1.28-0.28,,,,,,,60e2e1deafbbcd1c20bb3706,11:22:20 AM,1/15/2024
,"<p style=""font-size:14rem;font-weight:400;"">9</p>",,fwdspan,number,lrfNUwW18whyXQtadw8Epe3hu1f2,html-keyboard-response,75,527345,0.0-7.0-2.6-0.6-1.29-0.29,,,,,,,60e2e1deafbbcd1c20bb3706,11:22:20 AM,1/15/2024
,"<p style=""font-size:14rem;font-weight:400;"">8</p>",,fwdspan,number,lrfNUwW18whyXQtadw8Epe3hu1f2,html-keyboard-response,76,528360,0.0-7.0-2.6-0.6-1.30-0.30,,,,,,,60e2e1deafbbcd1c20bb3706,11:22:20 AM,1/15/2024
,"<p style=""font-size:14rem;font-weight:400;"">4</p>",,fwdspan,number,lrfNUwW18whyXQtadw8Epe3hu1f2,html-keyboard-response,77,529386,0.0-7.0-2.6-0.6-1.31-0.31,,,,,,,60e2e1deafbbcd1c20bb3706,11:22:20 AM,1/15/2024
,"<p style=""font-size:14rem;font-weight:400;"">1</p>",,fwdspan,number,lrfNUwW18whyXQtadw8Epe3hu1f2,html-keyboard-response,78,530403,0.0-7.0-2.6-0.6-1.32-0.32,,,,,,,60e2e1deafbbcd1c20bb3706,11:22:20 AM,1/15/2024
,"<p style=""font-size:14rem;font-weight:400;"">5</p>",,fwdspan,number,lrfNUwW18whyXQtadw8Epe3hu1f2,html-keyboard-response,79,531419,0.0-7.0-2.6-0.6-1.33-0.33,,,,,,,60e2e1deafbbcd1c20bb3706,11:22:20 AM,1/15/2024
,"<p style=""font-size:14rem;font-weight:400;"">2</p>",,fwdspan,number,lrfNUwW18whyXQtadw8Epe3hu1f2,html-keyboard-response,80,532438,0.0-7.0-2.6-0.6-1.34-0.34,,,,,,,60e2e1deafbbcd1c20bb3706,11:22:20 AM,1/15/2024
,[],,fwdspan,delay,lrfNUwW18whyXQtadw8Epe3hu1f2,html-keyboard-response,81,533004,0.0-7.0-2.6-0.6-2.6,,,,,,,60e2e1deafbbcd1c20bb3706,11:22:20 AM,1/15/2024
4153.800000011921,"<div class = numbox><p style=""font-size:2.5rem"">What were the numbers <b>in order</b>?<br>(When you are ready to lock in your answer, press <b>ENTER</b>)</p><button id = button_1 class = ""square num-button"" onclick = ""recordClick(this)""><div class = content><div class = numbers>1</div></div></button><button id = button_2 class = ""square num-button"" onclick = ""recordClick(this)""><div class = content><div class = numbers>2</div></div></button><button id = button_3 class = ""square num-button"" onclick = ""recordClick(this)""><div class = content><div class = numbers>3</div></div></button><button id = button_4 class = ""square num-button"" onclick = ""recordClick(this)""><div class = content><div class = numbers>4</div></div></button><button id = button_5 class = ""square num-button"" onclick = ""recordClick(this)""><div class = content><div class = numbers>5</div></div></button><button id = button_6 class = ""square num-button"" onclick = ""recordClick(this)""><div class = content><div class = numbers>6</div></div></button><button id = button_7 class = ""square num-button"" onclick = ""recordClick(this)""><div class = content><div class = numbers>7</div></div></button><button id = button_8 class = ""square num-button"" onclick = ""recordClick(this)""><div class = content><div class = numbers>8</div></div></button><button id = button_9 class = ""square num-button"" onclick = ""recordClick(this)""><div class = content><div class = numbers>9</div></div></button><button class = clear_button id = ""ClearButton"" onclick = ""clearResponse()"">Clear</button><p><u><b>Current Answer:</b></u></p><div id=echoed_txt style=""font-size: 6rem; color:blue;""><b></b></div></div><br><br><br><br><br><br><br>",enter,fwdspan,response,lrfNUwW18whyXQtadw8Epe3hu1f2,html-keyboard-response,82,537159,0.0-7.0-2.6-0.6-3.6,7.0,"[6,9,8,5,4,1]","[6,9,8,4,1,5,2]",0.0,"[3, 3, 4, 5, 6, 7, 7, 6, 6, 5, 6, 6]",,60e2e1deafbbcd1c20bb3706,11:22:20 AM,1/15/2024
,,,fwdspan,update_span,lrfNUwW18whyXQtadw8Epe3hu1f2,call-function,83,537428,0.0-7.0-2.6-0.6-4.6,,,,,,,60e2e1deafbbcd1c20bb3706,11:22:20 AM,1/15/2024
990.0,"<p style=""font-size:3rem"">Trial 8 of 12</p><br><br><br>",0,fwdspan,start_trial,lrfNUwW18whyXQtadw8Epe3hu1f2,html-button-response,84,538419,0.0-7.0-2.7-0.7-0.7,,,,,,,60e2e1deafbbcd1c20bb3706,11:22:20 AM,1/15/2024
,"<p style=""font-size:14rem;font-weight:400;"">9</p>",,fwdspan,number,lrfNUwW18whyXQtadw8Epe3hu1f2,html-keyboard-response,85,539437,0.0-7.0-2.7-0.7-1.35-0.35,,,,,,,60e2e1deafbbcd1c20bb3706,11:22:20 AM,1/15/2024
,"<p style=""font-size:14rem;font-weight:400;"">2</p>",,fwdspan,number,lrfNUwW18whyXQtadw8Epe3hu1f2,html-keyboard-response,86,540443,0.0-7.0-2.7-0.7-1.36-0.36,,,,,,,60e2e1deafbbcd1c20bb3706,11:22:20 AM,1/15/2024
,"<p style=""font-size:14rem;font-weight:400;"">3</p>",,fwdspan,number,lrfNUwW18whyXQtadw8Epe3hu1f2,html-keyboard-response,87,541460,0.0-7.0-2.7-0.7-1.37-0.37,,,,,,,60e2e1deafbbcd1c20bb3706,11:22:20 AM,1/15/2024
,"<p style=""font-size:14rem;font-weight:400;"">1</p>",,fwdspan,number,lrfNUwW18whyXQtadw8Epe3hu1f2,html-keyboard-response,88,542485,0.0-7.0-2.7-0.7-1.38-0.38,,,,,,,60e2e1deafbbcd1c20bb3706,11:22:20 AM,1/15/2024
,"<p style=""font-size:14rem;font-weight:400;"">5</p>",,fwdspan,number,lrfNUwW18whyXQtadw8Epe3hu1f2,html-keyboard-response,89,543509,0.0-7.0-2.7-0.7-1.39-0.39,,,,,,,60e2e1deafbbcd1c20bb3706,11:22:20 AM,1/15/2024
,"<p style=""font-size:14rem;font-weight:400;"">4</p>",,fwdspan,number,lrfNUwW18whyXQtadw8Epe3hu1f2,html-keyboard-response,90,544534,0.0-7.0-2.7-0.7-1.40-0.40,,,,,,,60e2e1deafbbcd1c20bb3706,11:22:20 AM,1/15/2024
,[],,fwdspan,delay,lrfNUwW18whyXQtadw8Epe3hu1f2,html-keyboard-response,91,545086,0.0-7.0-2.7-0.7-2.7,,,,,,,60e2e1deafbbcd1c20bb3706,11:22:20 AM,1/15/2024
5308.899999976158,"<div class = numbox><p style=""font-size:2.5rem"">What were the numbers <b>in order</b>?<br>(When you are ready to lock in your answer, press <b>ENTER</b>)</p><button id = button_1 class = ""square num-button"" onclick = ""recordClick(this)""><div class = content><div class = numbers>1</div></div></button><button id = button_2 class = ""square num-button"" onclick = ""recordClick(this)""><div class = content><div class = numbers>2</div></div></button><button id = button_3 class = ""square num-button"" onclick = ""recordClick(this)""><div class = content><div class = numbers>3</div></div></button><button id = button_4 class = ""square num-button"" onclick = ""recordClick(this)""><div class = content><div class = numbers>4</div></div></button><button id = button_5 class = ""square num-button"" onclick = ""recordClick(this)""><div class = content><div class = numbers>5</div></div></button><button id = button_6 class = ""square num-button"" onclick = ""recordClick(this)""><div class = content><div class = numbers>6</div></div></button><button id = button_7 class = ""square num-button"" onclick = ""recordClick(this)""><div class = content><div class = numbers>7</div></div></button><button id = button_8 class = ""square num-button"" onclick = ""recordClick(this)""><div class = content><div class = numbers>8</div></div></button><button id = button_9 class = ""square num-button"" onclick = ""recordClick(this)""><div class = content><div class = numbers>9</div></div></button><button class = clear_button id = ""ClearButton"" onclick = ""clearResponse()"">Clear</button><p><u><b>Current Answer:</b></u></p><div id=echoed_txt style=""font-size: 6rem; color:blue;""><b></b></div></div><br><br><br><br><br><br><br>",enter,fwdspan,response,lrfNUwW18whyXQtadw8Epe3hu1f2,html-keyboard-response,92,550396,0.0-7.0-2.7-0.7-3.7,6.0,"[9,3,2,1,4,5]","[9,2,3,1,5,4]",0.0,"[3, 3, 4, 5, 6, 7, 7, 6, 6, 5, 6, 6]",,60e2e1deafbbcd1c20bb3706,11:22:20 AM,1/15/2024
,,,fwdspan,update_span,lrfNUwW18whyXQtadw8Epe3hu1f2,call-function,93,550650,0.0-7.0-2.7-0.7-4.7,,,,,,,60e2e1deafbbcd1c20bb3706,11:22:20 AM,1/15/2024
1287.199999988079,"<p style=""font-size:3rem"">Trial 9 of 12</p><br><br><br>",0,fwdspan,start_trial,lrfNUwW18whyXQtadw8Epe3hu1f2,html-button-response,94,551938,0.0-7.0-2.8-0.8-0.8,,,,,,,60e2e1deafbbcd1c20bb3706,11:22:20 AM,1/15/2024
,"<p style=""font-size:14rem;font-weight:400;"">8</p>",,fwdspan,number,lrfNUwW18whyXQtadw8Epe3hu1f2,html-keyboard-response,95,552952,0.0-7.0-2.8-0.8-1.41-0.41,,,,,,,60e2e1deafbbcd1c20bb3706,11:22:20 AM,1/15/2024
,"<p style=""font-size:14rem;font-weight:400;"">1</p>",,fwdspan,number,lrfNUwW18whyXQtadw8Epe3hu1f2,html-keyboard-response,96,553965,0.0-7.0-2.8-0.8-1.42-0.42,,,,,,,60e2e1deafbbcd1c20bb3706,11:22:20 AM,1/15/2024
,"<p style=""font-size:14rem;font-weight:400;"">2</p>",,fwdspan,number,lrfNUwW18whyXQtadw8Epe3hu1f2,html-keyboard-response,97,554992,0.0-7.0-2.8-0.8-1.43-0.43,,,,,,,60e2e1deafbbcd1c20bb3706,11:22:20 AM,1/15/2024
,"<p style=""font-size:14rem;font-weight:400;"">3</p>",,fwdspan,number,lrfNUwW18whyXQtadw8Epe3hu1f2,html-keyboard-response,98,556002,0.0-7.0-2.8-0.8-1.44-0.44,,,,,,,60e2e1deafbbcd1c20bb3706,11:22:20 AM,1/15/2024
,"<p style=""font-size:14rem;font-weight:400;"">6</p>",,fwdspan,number,lrfNUwW18whyXQtadw8Epe3hu1f2,html-keyboard-response,99,557034,0.0-7.0-2.8-0.8-1.45-0.45,,,,,,,60e2e1deafbbcd1c20bb3706,11:22:20 AM,1/15/2024
,"<p style=""font-size:14rem;font-weight:400;"">7</p>",,fwdspan,number,lrfNUwW18whyXQtadw8Epe3hu1f2,html-keyboard-response,100,558043,0.0-7.0-2.8-0.8-1.46-0.46,,,,,,,60e2e1deafbbcd1c20bb3706,11:22:20 AM,1/15/2024
,[],,fwdspan,delay,lrfNUwW18whyXQtadw8Epe3hu1f2,html-keyboard-response,101,558618,0.0-7.0-2.8-0.8-2.8,,,,,,,60e2e1deafbbcd1c20bb3706,11:22:20 AM,1/15/2024
4201.199999988079,"<div class = numbox><p style=""font-size:2.5rem"">What were the numbers <b>in order</b>?<br>(When you are ready to lock in your answer, press <b>ENTER</b>)</p><button id = button_1 class = ""square num-button"" onclick = ""recordClick(this)""><div class = content><div class = numbers>1</div></div></button><button id = button_2 class = ""square num-button"" onclick = ""recordClick(this)""><div class = content><div class = numbers>2</div></div></button><button id = button_3 class = ""square num-button"" onclick = ""recordClick(this)""><div class = content><div class = numbers>3</div></div></button><button id = button_4 class = ""square num-button"" onclick = ""recordClick(this)""><div class = content><div class = numbers>4</div></div></button><button id = button_5 class = ""square num-button"" onclick = ""recordClick(this)""><div class = content><div class = numbers>5</div></div></button><button id = button_6 class = ""square num-button"" onclick = ""recordClick(this)""><div class = content><div class = numbers>6</div></div></button><button id = button_7 class = ""square num-button"" onclick = ""recordClick(this)""><div class = content><div class = numbers>7</div></div></button><button id = button_8 class = ""square num-button"" onclick = ""recordClick(this)""><div class = content><div class = numbers>8</div></div></button><button id = button_9 class = ""square num-button"" onclick = ""recordClick(this)""><div class = content><div class = numbers>9</div></div></button><button class = clear_button id = ""ClearButton"" onclick = ""clearResponse()"">Clear</button><p><u><b>Current Answer:</b></u></p><div id=echoed_txt style=""font-size: 6rem; color:blue;""><b></b></div></div><br><br><br><br><br><br><br>",enter,fwdspan,response,lrfNUwW18whyXQtadw8Epe3hu1f2,html-keyboard-response,102,562821,0.0-7.0-2.8-0.8-3.8,6.0,"[9,8,1,2,3,6,7]","[8,1,2,3,6,7]",0.0,"[3, 3, 4, 5, 6, 7, 7, 6, 6, 5, 6, 6]",,60e2e1deafbbcd1c20bb3706,11:22:20 AM,1/15/2024
,,,fwdspan,update_span,lrfNUwW18whyXQtadw8Epe3hu1f2,call-function,103,563076,0.0-7.0-2.8-0.8-4.8,,,,,,,60e2e1deafbbcd1c20bb3706,11:22:20 AM,1/15/2024
1733.800000011921,"<p style=""font-size:3rem"">Trial 10 of 12</p><br><br><br>",0,fwdspan,start_trial,lrfNUwW18whyXQtadw8Epe3hu1f2,html-button-response,104,564810,0.0-7.0-2.9-0.9-0.9,,,,,,,60e2e1deafbbcd1c20bb3706,11:22:20 AM,1/15/2024
,"<p style=""font-size:14rem;font-weight:400;"">8</p>",,fwdspan,number,lrfNUwW18whyXQtadw8Epe3hu1f2,html-keyboard-response,105,565813,0.0-7.0-2.9-0.9-1.47-0.47,,,,,,,60e2e1deafbbcd1c20bb3706,11:22:20 AM,1/15/2024
,"<p style=""font-size:14rem;font-weight:400;"">9</p>",,fwdspan,number,lrfNUwW18whyXQtadw8Epe3hu1f2,html-keyboard-response,106,566833,0.0-7.0-2.9-0.9-1.48-0.48,,,,,,,60e2e1deafbbcd1c20bb3706,11:22:20 AM,1/15/2024
,"<p style=""font-size:14rem;font-weight:400;"">3</p>",,fwdspan,number,lrfNUwW18whyXQtadw8Epe3hu1f2,html-keyboard-response,107,567836,0.0-7.0-2.9-0.9-1.49-0.49,,,,,,,60e2e1deafbbcd1c20bb3706,11:22:20 AM,1/15/2024
,"<p style=""font-size:14rem;font-weight:400;"">7</p>",,fwdspan,number,lrfNUwW18whyXQtadw8Epe3hu1f2,html-keyboard-response,108,568867,0.0-7.0-2.9-0.9-1.50-0.50,,,,,,,60e2e1deafbbcd1c20bb3706,11:22:20 AM,1/15/2024
,"<p style=""font-size:14rem;font-weight:400;"">2</p>",,fwdspan,number,lrfNUwW18whyXQtadw8Epe3hu1f2,html-keyboard-response,109,569884,0.0-7.0-2.9-0.9-1.51-0.51,,,,,,,60e2e1deafbbcd1c20bb3706,11:22:20 AM,1/15/2024
,[],,fwdspan,delay,lrfNUwW18whyXQtadw8Epe3hu1f2,html-keyboard-response,110,570452,0.0-7.0-2.9-0.9-2.9,,,,,,,60e2e1deafbbcd1c20bb3706,11:22:20 AM,1/15/2024
4717.199999988079,"<div class = numbox><p style=""font-size:2.5rem"">What were the numbers <b>in order</b>?<br>(When you are ready to lock in your answer, press <b>ENTER</b>)</p><button id = button_1 class = ""square num-button"" onclick = ""recordClick(this)""><div class = content><div class = numbers>1</div></div></button><button id = button_2 class = ""square num-button"" onclick = ""recordClick(this)""><div class = content><div class = numbers>2</div></div></button><button id = button_3 class = ""square num-button"" onclick = ""recordClick(this)""><div class = content><div class = numbers>3</div></div></button><button id = button_4 class = ""square num-button"" onclick = ""recordClick(this)""><div class = content><div class = numbers>4</div></div></button><button id = button_5 class = ""square num-button"" onclick = ""recordClick(this)""><div class = content><div class = numbers>5</div></div></button><button id = button_6 class = ""square num-button"" onclick = ""recordClick(this)""><div class = content><div class = numbers>6</div></div></button><button id = button_7 class = ""square num-button"" onclick = ""recordClick(this)""><div class = content><div class = numbers>7</div></div></button><button id = button_8 class = ""square num-button"" onclick = ""recordClick(this)""><div class = content><div class = numbers>8</div></div></button><button id = button_9 class = ""square num-button"" onclick = ""recordClick(this)""><div class = content><div class = numbers>9</div></div></button><button class = clear_button id = ""ClearButton"" onclick = ""clearResponse()"">Clear</button><p><u><b>Current Answer:</b></u></p><div id=echoed_txt style=""font-size: 6rem; color:blue;""><b></b></div></div><br><br><br><br><br><br><br>",enter,fwdspan,response,lrfNUwW18whyXQtadw8Epe3hu1f2,html-keyboard-response,111,575170,0.0-7.0-2.9-0.9-3.9,5.0,"[8,9,3,7,2]","[8,9,3,7,2]",1.0,"[3, 3, 4, 5, 6, 7, 7, 6, 6, 5, 6, 6]",,60e2e1deafbbcd1c20bb3706,11:22:20 AM,1/15/2024
,,,fwdspan,update_span,lrfNUwW18whyXQtadw8Epe3hu1f2,call-function,112,575434,0.0-7.0-2.9-0.9-4.9,,,,,,,60e2e1deafbbcd1c20bb3706,11:22:20 AM,1/15/2024
643.2000000476837,"<p style=""font-size:3rem"">Trial 11 of 12</p><br><br><br>",0,fwdspan,start_trial,lrfNUwW18whyXQtadw8Epe3hu1f2,html-button-response,113,576078,0.0-7.0-2.10-0.10-0.10,,,,,,,60e2e1deafbbcd1c20bb3706,11:22:20 AM,1/15/2024
,"<p style=""font-size:14rem;font-weight:400;"">4</p>",,fwdspan,number,lrfNUwW18whyXQtadw8Epe3hu1f2,html-keyboard-response,114,577101,0.0-7.0-2.10-0.10-1.52-0.52,,,,,,,60e2e1deafbbcd1c20bb3706,11:22:20 AM,1/15/2024
,"<p style=""font-size:14rem;font-weight:400;"">7</p>",,fwdspan,number,lrfNUwW18whyXQtadw8Epe3hu1f2,html-keyboard-response,115,578118,0.0-7.0-2.10-0.10-1.53-0.53,,,,,,,60e2e1deafbbcd1c20bb3706,11:22:20 AM,1/15/2024
,"<p style=""font-size:14rem;font-weight:400;"">5</p>",,fwdspan,number,lrfNUwW18whyXQtadw8Epe3hu1f2,html-keyboard-response,116,579135,0.0-7.0-2.10-0.10-1.54-0.54,,,,,,,60e2e1deafbbcd1c20bb3706,11:22:20 AM,1/15/2024
,"<p style=""font-size:14rem;font-weight:400;"">2</p>",,fwdspan,number,lrfNUwW18whyXQtadw8Epe3hu1f2,html-keyboard-response,117,580150,0.0-7.0-2.10-0.10-1.55-0.55,,,,,,,60e2e1deafbbcd1c20bb3706,11:22:20 AM,1/15/2024
,"<p style=""font-size:14rem;font-weight:400;"">9</p>",,fwdspan,number,lrfNUwW18whyXQtadw8Epe3hu1f2,html-keyboard-response,118,581167,0.0-7.0-2.10-0.10-1.56-0.56,,,,,,,60e2e1deafbbcd1c20bb3706,11:22:20 AM,1/15/2024
,"<p style=""font-size:14rem;font-weight:400;"">1</p>",,fwdspan,number,lrfNUwW18whyXQtadw8Epe3hu1f2,html-keyboard-response,119,582184,0.0-7.0-2.10-0.10-1.57-0.57,,,,,,,60e2e1deafbbcd1c20bb3706,11:22:20 AM,1/15/2024
,[],,fwdspan,delay,lrfNUwW18whyXQtadw8Epe3hu1f2,html-keyboard-response,120,582751,0.0-7.0-2.10-0.10-2.10,,,,,,,60e2e1deafbbcd1c20bb3706,11:22:20 AM,1/15/2024
3817.5,"<div class = numbox><p style=""font-size:2.5rem"">What were the numbers <b>in order</b>?<br>(When you are ready to lock in your answer, press <b>ENTER</b>)</p><button id = button_1 class = ""square num-button"" onclick = ""recordClick(this)""><div class = content><div class = numbers>1</div></div></button><button id = button_2 class = ""square num-button"" onclick = ""recordClick(this)""><div class = content><div class = numbers>2</div></div></button><button id = button_3 class = ""square num-button"" onclick = ""recordClick(this)""><div class = content><div class = numbers>3</div></div></button><button id = button_4 class = ""square num-button"" onclick = ""recordClick(this)""><div class = content><div class = numbers>4</div></div></button><button id = button_5 class = ""square num-button"" onclick = ""recordClick(this)""><div class = content><div class = numbers>5</div></div></button><button id = button_6 class = ""square num-button"" onclick = ""recordClick(this)""><div class = content><div class = numbers>6</div></div></button><button id = button_7 class = ""square num-button"" onclick = ""recordClick(this)""><div class = content><div class = numbers>7</div></div></button><button id = button_8 class = ""square num-button"" onclick = ""recordClick(this)""><div class = content><div class = numbers>8</div></div></button><button id = button_9 class = ""square num-button"" onclick = ""recordClick(this)""><div class = content><div class = numbers>9</div></div></button><button class = clear_button id = ""ClearButton"" onclick = ""clearResponse()"">Clear</button><p><u><b>Current Answer:</b></u></p><div id=echoed_txt style=""font-size: 6rem; color:blue;""><b></b></div></div><br><br><br><br><br><br><br>",enter,fwdspan,response,lrfNUwW18whyXQtadw8Epe3hu1f2,html-keyboard-response,121,586570,0.0-7.0-2.10-0.10-3.10,6.0,"[4,7,5,2,9,8]","[4,7,5,2,9,1]",0.0,"[3, 3, 4, 5, 6, 7, 7, 6, 6, 5, 6, 6]",,60e2e1deafbbcd1c20bb3706,11:22:20 AM,1/15/2024
,,,fwdspan,update_span,lrfNUwW18whyXQtadw8Epe3hu1f2,call-function,122,586826,0.0-7.0-2.10-0.10-4.10,,,,,,,60e2e1deafbbcd1c20bb3706,11:22:20 AM,1/15/2024
1344.0,"<p style=""font-size:3rem"">Trial 12 of 12</p><br><br><br>",0,fwdspan,start_trial,lrfNUwW18whyXQtadw8Epe3hu1f2,html-button-response,123,588171,0.0-7.0-2.11-0.11-0.11,,,,,,,60e2e1deafbbcd1c20bb3706,11:22:20 AM,1/15/2024
,"<p style=""font-size:14rem;font-weight:400;"">2</p>",,fwdspan,number,lrfNUwW18whyXQtadw8Epe3hu1f2,html-keyboard-response,124,589183,0.0-7.0-2.11-0.11-1.58-0.58,,,,,,,60e2e1deafbbcd1c20bb3706,11:22:20 AM,1/15/2024
,"<p style=""font-size:14rem;font-weight:400;"">3</p>",,fwdspan,number,lrfNUwW18whyXQtadw8Epe3hu1f2,html-keyboard-response,125,590199,0.0-7.0-2.11-0.11-1.59-0.59,,,,,,,60e2e1deafbbcd1c20bb3706,11:22:20 AM,1/15/2024
,"<p style=""font-size:14rem;font-weight:400;"">9</p>",,fwdspan,number,lrfNUwW18whyXQtadw8Epe3hu1f2,html-keyboard-response,126,591224,0.0-7.0-2.11-0.11-1.60-0.60,,,,,,,60e2e1deafbbcd1c20bb3706,11:22:20 AM,1/15/2024
,"<p style=""font-size:14rem;font-weight:400;"">8</p>",,fwdspan,number,lrfNUwW18whyXQtadw8Epe3hu1f2,html-keyboard-response,127,592229,0.0-7.0-2.11-0.11-1.61-0.61,,,,,,,60e2e1deafbbcd1c20bb3706,11:22:20 AM,1/15/2024
,"<p style=""font-size:14rem;font-weight:400;"">6</p>",,fwdspan,number,lrfNUwW18whyXQtadw8Epe3hu1f2,html-keyboard-response,128,593250,0.0-7.0-2.11-0.11-1.62-0.62,,,,,,,60e2e1deafbbcd1c20bb3706,11:22:20 AM,1/15/2024
,"<p style=""font-size:14rem;font-weight:400;"">7</p>",,fwdspan,number,lrfNUwW18whyXQtadw8Epe3hu1f2,html-keyboard-response,129,594274,0.0-7.0-2.11-0.11-1.63-0.63,,,,,,,60e2e1deafbbcd1c20bb3706,11:22:20 AM,1/15/2024
,[],,fwdspan,delay,lrfNUwW18whyXQtadw8Epe3hu1f2,html-keyboard-response,130,594850,0.0-7.0-2.11-0.11-2.11,,,,,,,60e2e1deafbbcd1c20bb3706,11:22:20 AM,1/15/2024
3035.100000023842,"<div class = numbox><p style=""font-size:2.5rem"">What were the numbers <b>in order</b>?<br>(When you are ready to lock in your answer, press <b>ENTER</b>)</p><button id = button_1 class = ""square num-button"" onclick = ""recordClick(this)""><div class = content><div class = numbers>1</div></div></button><button id = button_2 class = ""square num-button"" onclick = ""recordClick(this)""><div class = content><div class = numbers>2</div></div></button><button id = button_3 class = ""square num-button"" onclick = ""recordClick(this)""><div class = content><div class = numbers>3</div></div></button><button id = button_4 class = ""square num-button"" onclick = ""recordClick(this)""><div class = content><div class = numbers>4</div></div></button><button id = button_5 class = ""square num-button"" onclick = ""recordClick(this)""><div class = content><div class = numbers>5</div></div></button><button id = button_6 class = ""square num-button"" onclick = ""recordClick(this)""><div class = content><div class = numbers>6</div></div></button><button id = button_7 class = ""square num-button"" onclick = ""recordClick(this)""><div class = content><div class = numbers>7</div></div></button><button id = button_8 class = ""square num-button"" onclick = ""recordClick(this)""><div class = content><div class = numbers>8</div></div></button><button id = button_9 class = ""square num-button"" onclick = ""recordClick(this)""><div class = content><div class = numbers>9</div></div></button><button class = clear_button id = ""ClearButton"" onclick = ""clearResponse()"">Clear</button><p><u><b>Current Answer:</b></u></p><div id=echoed_txt style=""font-size: 6rem; color:blue;""><b></b></div></div><br><br><br><br><br><br><br>",enter,fwdspan,response,lrfNUwW18whyXQtadw8Epe3hu1f2,html-keyboard-response,131,597887,0.0-7.0-2.11-0.11-3.11,6.0,"[2,3,8,9,6,7]","[2,3,9,8,6,7]",0.0,"[3, 3, 4, 5, 6, 7, 7, 6, 6, 5, 6, 6]",,60e2e1deafbbcd1c20bb3706,11:22:20 AM,1/15/2024
,,,fwdspan,update_span,lrfNUwW18whyXQtadw8Epe3hu1f2,call-function,132,598148,0.0-7.0-2.11-0.11-4.11,,,,,,,60e2e1deafbbcd1c20bb3706,11:22:20 AM,1/15/2024
7073.600000023842,,{'Q0': 'nothing all fine'},fwdspan,survey,lrfNUwW18whyXQtadw8Epe3hu1f2,lmdlab-survey-text,133,605978,0.0-7.0-3.0,,,,,,lrfNUwW18whyXQtadw8Epe3hu1f2,60e2e1deafbbcd1c20bb3706,11:22:20 AM,1/15/2024
1117.4000000357628,<p><p style='font-size: 3rem'>Great work!<br><br>This completes the digit span task.</p><br><br><br>,0,fwdspan,finish,lrfNUwW18whyXQtadw8Epe3hu1f2,html-button-response,134,607099,0.0-7.0-4.0,,,,,,,60e2e1deafbbcd1c20bb3706,11:22:20 AM,1/15/2024
