rt,stimulus,response,exp_name,exp_stage,subjectID,trial_type,trial_index,time_elapsed,internal_node_id,span,answer,correct,correct_full,span_history,databaseID,prolificID,start_time,date
7288.699999988079,"<p style=""font-size:4rem""><br><br>In the next part today, we have a completely different short task.<br><br><br>This part involves keeping numbers in you mind. Participation takes around 5 minutes.<br><br><br></p>",0,fwdspan,instruct,Sui3Sb9OrqZxU9yu693q9JNzzQ12,html-button-response,19,341074,0.0-7.0-0.0,,,,,,,60efd8e0434fa5c5fdad1620,11:20:33,15/01/2024
12821.300000011921,"<p style=""font-size:5rem"">Welcome to the <b>digit span task</b>!<br><br></p><p style=""font-size:3.4rem""><br>On each trial, you will see a sequence of digits, followed by a delay.</p><p style=""font-size:3.4rem""><br>Then you will be asked to type them back in the same order in which they were seen.</p><p style=""font-size:3.4rem""><br><br><br>For example, if you saw the digits <b style=""color:blue;"">1</b>, <b style=""color:blue;"">2</b>, <b style=""color:blue;"">3</b>, you would respond with <b style=""color:blue;"">1</b>, <b style=""color:blue;"">2</b>, <b style=""color:blue;"">3</b></p><p style=""font-size:3.4rem""><br><br><br>To ensure the best measure of true performance for our study,<br><br>it is very important that you do not use any memory aid (e.g., pen and paper).<br><br>Please do the task solely in your head.</p><p style=""font-size:3.4rem""><br><br><br>There will be 12 total trials. Participation takes around 5 minutes.</p><br><br><br>",0,fwdspan,instruct,Sui3Sb9OrqZxU9yu693q9JNzzQ12,html-button-response,20,353898,0.0-7.0-1.0,,,,,,,60efd8e0434fa5c5fdad1620,11:20:33,15/01/2024
1032.4000000357628,"<p style=""font-size:3rem"">Trial 1 of 12</p><br><br><br>",0,fwdspan,start_trial,Sui3Sb9OrqZxU9yu693q9JNzzQ12,html-button-response,21,354935,0.0-7.0-2.0-0.0-0.0,,,,,,,60efd8e0434fa5c5fdad1620,11:20:33,15/01/2024
,"<p style=""font-size:14rem;font-weight:400;"">3</p>",,fwdspan,number,Sui3Sb9OrqZxU9yu693q9JNzzQ12,html-keyboard-response,22,355951,0.0-7.0-2.0-0.0-1.0-0.0,,,,,,,60efd8e0434fa5c5fdad1620,11:20:33,15/01/2024
,"<p style=""font-size:14rem;font-weight:400;"">8</p>",,fwdspan,number,Sui3Sb9OrqZxU9yu693q9JNzzQ12,html-keyboard-response,23,356966,0.0-7.0-2.0-0.0-1.1-0.1,,,,,,,60efd8e0434fa5c5fdad1620,11:20:33,15/01/2024
,"<p style=""font-size:14rem;font-weight:400;"">9</p>",,fwdspan,number,Sui3Sb9OrqZxU9yu693q9JNzzQ12,html-keyboard-response,24,357981,0.0-7.0-2.0-0.0-1.2-0.2,,,,,,,60efd8e0434fa5c5fdad1620,11:20:33,15/01/2024
,[],,fwdspan,delay,Sui3Sb9OrqZxU9yu693q9JNzzQ12,html-keyboard-response,25,358555,0.0-7.0-2.0-0.0-2.0,,,,,,,60efd8e0434fa5c5fdad1620,11:20:33,15/01/2024
4871.800000011921,"<div class = numbox><p style=""font-size:2.5rem"">What were the numbers <b>in order</b>?<br>(When you are ready to lock in your answer, press <b>ENTER</b>)</p><button id = button_1 class = ""square num-button"" onclick = ""recordClick(this)""><div class = content><div class = numbers>1</div></div></button><button id = button_2 class = ""square num-button"" onclick = ""recordClick(this)""><div class = content><div class = numbers>2</div></div></button><button id = button_3 class = ""square num-button"" onclick = ""recordClick(this)""><div class = content><div class = numbers>3</div></div></button><button id = button_4 class = ""square num-button"" onclick = ""recordClick(this)""><div class = content><div class = numbers>4</div></div></button><button id = button_5 class = ""square num-button"" onclick = ""recordClick(this)""><div class = content><div class = numbers>5</div></div></button><button id = button_6 class = ""square num-button"" onclick = ""recordClick(this)""><div class = content><div class = numbers>6</div></div></button><button id = button_7 class = ""square num-button"" onclick = ""recordClick(this)""><div class = content><div class = numbers>7</div></div></button><button id = button_8 class = ""square num-button"" onclick = ""recordClick(this)""><div class = content><div class = numbers>8</div></div></button><button id = button_9 class = ""square num-button"" onclick = ""recordClick(this)""><div class = content><div class = numbers>9</div></div></button><button class = clear_button id = ""ClearButton"" onclick = ""clearResponse()"">Clear</button><p><u><b>Current Answer:</b></u></p><div id=echoed_txt style=""font-size: 6rem; color:blue;""><b></b></div></div><br><br><br><br><br><br><br>",enter,fwdspan,response,Sui3Sb9OrqZxU9yu693q9JNzzQ12,html-keyboard-response,26,363431,0.0-7.0-2.0-0.0-3.0,3.0,"[3,8,9]","[3,8,9]",1.0,"[3, 4, 5, 6, 7, 8, 9, 10, 11, 12, 13, 14]",,60efd8e0434fa5c5fdad1620,11:20:33,15/01/2024
,,,fwdspan,update_span,Sui3Sb9OrqZxU9yu693q9JNzzQ12,call-function,27,363700,0.0-7.0-2.0-0.0-4.0,,,,,,,60efd8e0434fa5c5fdad1620,11:20:33,15/01/2024
3248.900000035763,"<p style=""font-size:3rem"">Trial 2 of 12</p><br><br><br>",0,fwdspan,start_trial,Sui3Sb9OrqZxU9yu693q9JNzzQ12,html-button-response,28,366951,0.0-7.0-2.1-0.1-0.1,,,,,,,60efd8e0434fa5c5fdad1620,11:20:33,15/01/2024
,"<p style=""font-size:14rem;font-weight:400;"">8</p>",,fwdspan,number,Sui3Sb9OrqZxU9yu693q9JNzzQ12,html-keyboard-response,29,367961,0.0-7.0-2.1-0.1-1.3-0.3,,,,,,,60efd8e0434fa5c5fdad1620,11:20:33,15/01/2024
,"<p style=""font-size:14rem;font-weight:400;"">3</p>",,fwdspan,number,Sui3Sb9OrqZxU9yu693q9JNzzQ12,html-keyboard-response,30,368982,0.0-7.0-2.1-0.1-1.4-0.4,,,,,,,60efd8e0434fa5c5fdad1620,11:20:33,15/01/2024
,"<p style=""font-size:14rem;font-weight:400;"">9</p>",,fwdspan,number,Sui3Sb9OrqZxU9yu693q9JNzzQ12,html-keyboard-response,31,370005,0.0-7.0-2.1-0.1-1.5-0.5,,,,,,,60efd8e0434fa5c5fdad1620,11:20:33,15/01/2024
,"<p style=""font-size:14rem;font-weight:400;"">1</p>",,fwdspan,number,Sui3Sb9OrqZxU9yu693q9JNzzQ12,html-keyboard-response,32,371024,0.0-7.0-2.1-0.1-1.6-0.6,,,,,,,60efd8e0434fa5c5fdad1620,11:20:33,15/01/2024
,[],,fwdspan,delay,Sui3Sb9OrqZxU9yu693q9JNzzQ12,html-keyboard-response,33,371598,0.0-7.0-2.1-0.1-2.1,,,,,,,60efd8e0434fa5c5fdad1620,11:20:33,15/01/2024
4313.5,"<div class = numbox><p style=""font-size:2.5rem"">What were the numbers <b>in order</b>?<br>(When you are ready to lock in your answer, press <b>ENTER</b>)</p><button id = button_1 class = ""square num-button"" onclick = ""recordClick(this)""><div class = content><div class = numbers>1</div></div></button><button id = button_2 class = ""square num-button"" onclick = ""recordClick(this)""><div class = content><div class = numbers>2</div></div></button><button id = button_3 class = ""square num-button"" onclick = ""recordClick(this)""><div class = content><div class = numbers>3</div></div></button><button id = button_4 class = ""square num-button"" onclick = ""recordClick(this)""><div class = content><div class = numbers>4</div></div></button><button id = button_5 class = ""square num-button"" onclick = ""recordClick(this)""><div class = content><div class = numbers>5</div></div></button><button id = button_6 class = ""square num-button"" onclick = ""recordClick(this)""><div class = content><div class = numbers>6</div></div></button><button id = button_7 class = ""square num-button"" onclick = ""recordClick(this)""><div class = content><div class = numbers>7</div></div></button><button id = button_8 class = ""square num-button"" onclick = ""recordClick(this)""><div class = content><div class = numbers>8</div></div></button><button id = button_9 class = ""square num-button"" onclick = ""recordClick(this)""><div class = content><div class = numbers>9</div></div></button><button class = clear_button id = ""ClearButton"" onclick = ""clearResponse()"">Clear</button><p><u><b>Current Answer:</b></u></p><div id=echoed_txt style=""font-size: 6rem; color:blue;""><b></b></div></div><br><br><br><br><br><br><br>",enter,fwdspan,response,Sui3Sb9OrqZxU9yu693q9JNzzQ12,html-keyboard-response,34,375915,0.0-7.0-2.1-0.1-3.1,4.0,"[8,3,9,1]","[8,3,9,1]",1.0,"[3, 4, 5, 6, 7, 8, 9, 10, 11, 12, 13, 14]",,60efd8e0434fa5c5fdad1620,11:20:33,15/01/2024
,,,fwdspan,update_span,Sui3Sb9OrqZxU9yu693q9JNzzQ12,call-function,35,376177,0.0-7.0-2.1-0.1-4.1,,,,,,,60efd8e0434fa5c5fdad1620,11:20:33,15/01/2024
1179.0,"<p style=""font-size:3rem"">Trial 3 of 12</p><br><br><br>",0,fwdspan,start_trial,Sui3Sb9OrqZxU9yu693q9JNzzQ12,html-button-response,36,377357,0.0-7.0-2.2-0.2-0.2,,,,,,,60efd8e0434fa5c5fdad1620,11:20:33,15/01/2024
,"<p style=""font-size:14rem;font-weight:400;"">9</p>",,fwdspan,number,Sui3Sb9OrqZxU9yu693q9JNzzQ12,html-keyboard-response,37,378380,0.0-7.0-2.2-0.2-1.7-0.7,,,,,,,60efd8e0434fa5c5fdad1620,11:20:33,15/01/2024
,"<p style=""font-size:14rem;font-weight:400;"">6</p>",,fwdspan,number,Sui3Sb9OrqZxU9yu693q9JNzzQ12,html-keyboard-response,38,379383,0.0-7.0-2.2-0.2-1.8-0.8,,,,,,,60efd8e0434fa5c5fdad1620,11:20:33,15/01/2024
,"<p style=""font-size:14rem;font-weight:400;"">8</p>",,fwdspan,number,Sui3Sb9OrqZxU9yu693q9JNzzQ12,html-keyboard-response,39,380409,0.0-7.0-2.2-0.2-1.9-0.9,,,,,,,60efd8e0434fa5c5fdad1620,11:20:33,15/01/2024
,"<p style=""font-size:14rem;font-weight:400;"">3</p>",,fwdspan,number,Sui3Sb9OrqZxU9yu693q9JNzzQ12,html-keyboard-response,40,381416,0.0-7.0-2.2-0.2-1.10-0.10,,,,,,,60efd8e0434fa5c5fdad1620,11:20:33,15/01/2024
,"<p style=""font-size:14rem;font-weight:400;"">2</p>",,fwdspan,number,Sui3Sb9OrqZxU9yu693q9JNzzQ12,html-keyboard-response,41,382429,0.0-7.0-2.2-0.2-1.11-0.11,,,,,,,60efd8e0434fa5c5fdad1620,11:20:33,15/01/2024
,[],,fwdspan,delay,Sui3Sb9OrqZxU9yu693q9JNzzQ12,html-keyboard-response,42,383003,0.0-7.0-2.2-0.2-2.2,,,,,,,60efd8e0434fa5c5fdad1620,11:20:33,15/01/2024
5098.800000011921,"<div class = numbox><p style=""font-size:2.5rem"">What were the numbers <b>in order</b>?<br>(When you are ready to lock in your answer, press <b>ENTER</b>)</p><button id = button_1 class = ""square num-button"" onclick = ""recordClick(this)""><div class = content><div class = numbers>1</div></div></button><button id = button_2 class = ""square num-button"" onclick = ""recordClick(this)""><div class = content><div class = numbers>2</div></div></button><button id = button_3 class = ""square num-button"" onclick = ""recordClick(this)""><div class = content><div class = numbers>3</div></div></button><button id = button_4 class = ""square num-button"" onclick = ""recordClick(this)""><div class = content><div class = numbers>4</div></div></button><button id = button_5 class = ""square num-button"" onclick = ""recordClick(this)""><div class = content><div class = numbers>5</div></div></button><button id = button_6 class = ""square num-button"" onclick = ""recordClick(this)""><div class = content><div class = numbers>6</div></div></button><button id = button_7 class = ""square num-button"" onclick = ""recordClick(this)""><div class = content><div class = numbers>7</div></div></button><button id = button_8 class = ""square num-button"" onclick = ""recordClick(this)""><div class = content><div class = numbers>8</div></div></button><button id = button_9 class = ""square num-button"" onclick = ""recordClick(this)""><div class = content><div class = numbers>9</div></div></button><button class = clear_button id = ""ClearButton"" onclick = ""clearResponse()"">Clear</button><p><u><b>Current Answer:</b></u></p><div id=echoed_txt style=""font-size: 6rem; color:blue;""><b></b></div></div><br><br><br><br><br><br><br>",enter,fwdspan,response,Sui3Sb9OrqZxU9yu693q9JNzzQ12,html-keyboard-response,43,388105,0.0-7.0-2.2-0.2-3.2,5.0,"[9,6,8,3,2]","[9,6,8,3,2]",1.0,"[3, 4, 5, 6, 7, 8, 9, 10, 11, 12, 13, 14]",,60efd8e0434fa5c5fdad1620,11:20:33,15/01/2024
,,,fwdspan,update_span,Sui3Sb9OrqZxU9yu693q9JNzzQ12,call-function,44,388372,0.0-7.0-2.2-0.2-4.2,,,,,,,60efd8e0434fa5c5fdad1620,11:20:33,15/01/2024
2939.399999976158,"<p style=""font-size:3rem"">Trial 4 of 12</p><br><br><br>",0,fwdspan,start_trial,Sui3Sb9OrqZxU9yu693q9JNzzQ12,html-button-response,45,391313,0.0-7.0-2.3-0.3-0.3,,,,,,,60efd8e0434fa5c5fdad1620,11:20:33,15/01/2024
,"<p style=""font-size:14rem;font-weight:400;"">8</p>",,fwdspan,number,Sui3Sb9OrqZxU9yu693q9JNzzQ12,html-keyboard-response,46,392320,0.0-7.0-2.3-0.3-1.12-0.12,,,,,,,60efd8e0434fa5c5fdad1620,11:20:33,15/01/2024
,"<p style=""font-size:14rem;font-weight:400;"">1</p>",,fwdspan,number,Sui3Sb9OrqZxU9yu693q9JNzzQ12,html-keyboard-response,47,393339,0.0-7.0-2.3-0.3-1.13-0.13,,,,,,,60efd8e0434fa5c5fdad1620,11:20:33,15/01/2024
,"<p style=""font-size:14rem;font-weight:400;"">3</p>",,fwdspan,number,Sui3Sb9OrqZxU9yu693q9JNzzQ12,html-keyboard-response,48,394346,0.0-7.0-2.3-0.3-1.14-0.14,,,,,,,60efd8e0434fa5c5fdad1620,11:20:33,15/01/2024
,"<p style=""font-size:14rem;font-weight:400;"">7</p>",,fwdspan,number,Sui3Sb9OrqZxU9yu693q9JNzzQ12,html-keyboard-response,49,395371,0.0-7.0-2.3-0.3-1.15-0.15,,,,,,,60efd8e0434fa5c5fdad1620,11:20:33,15/01/2024
,"<p style=""font-size:14rem;font-weight:400;"">6</p>",,fwdspan,number,Sui3Sb9OrqZxU9yu693q9JNzzQ12,html-keyboard-response,50,396396,0.0-7.0-2.3-0.3-1.16-0.16,,,,,,,60efd8e0434fa5c5fdad1620,11:20:33,15/01/2024
,"<p style=""font-size:14rem;font-weight:400;"">2</p>",,fwdspan,number,Sui3Sb9OrqZxU9yu693q9JNzzQ12,html-keyboard-response,51,397422,0.0-7.0-2.3-0.3-1.17-0.17,,,,,,,60efd8e0434fa5c5fdad1620,11:20:33,15/01/2024
,[],,fwdspan,delay,Sui3Sb9OrqZxU9yu693q9JNzzQ12,html-keyboard-response,52,397991,0.0-7.0-2.3-0.3-2.3,,,,,,,60efd8e0434fa5c5fdad1620,11:20:33,15/01/2024
20622.399999976158,"<div class = numbox><p style=""font-size:2.5rem"">What were the numbers <b>in order</b>?<br>(When you are ready to lock in your answer, press <b>ENTER</b>)</p><button id = button_1 class = ""square num-button"" onclick = ""recordClick(this)""><div class = content><div class = numbers>1</div></div></button><button id = button_2 class = ""square num-button"" onclick = ""recordClick(this)""><div class = content><div class = numbers>2</div></div></button><button id = button_3 class = ""square num-button"" onclick = ""recordClick(this)""><div class = content><div class = numbers>3</div></div></button><button id = button_4 class = ""square num-button"" onclick = ""recordClick(this)""><div class = content><div class = numbers>4</div></div></button><button id = button_5 class = ""square num-button"" onclick = ""recordClick(this)""><div class = content><div class = numbers>5</div></div></button><button id = button_6 class = ""square num-button"" onclick = ""recordClick(this)""><div class = content><div class = numbers>6</div></div></button><button id = button_7 class = ""square num-button"" onclick = ""recordClick(this)""><div class = content><div class = numbers>7</div></div></button><button id = button_8 class = ""square num-button"" onclick = ""recordClick(this)""><div class = content><div class = numbers>8</div></div></button><button id = button_9 class = ""square num-button"" onclick = ""recordClick(this)""><div class = content><div class = numbers>9</div></div></button><button class = clear_button id = ""ClearButton"" onclick = ""clearResponse()"">Clear</button><p><u><b>Current Answer:</b></u></p><div id=echoed_txt style=""font-size: 6rem; color:blue;""><b></b></div></div><br><br><br><br><br><br><br>",enter,fwdspan,response,Sui3Sb9OrqZxU9yu693q9JNzzQ12,html-keyboard-response,53,418616,0.0-7.0-2.3-0.3-3.3,6.0,"[8,1,3,7,6,2]","[8,1,3,7,6,2]",1.0,"[3, 4, 5, 6, 7, 8, 9, 10, 11, 12, 13, 14]",,60efd8e0434fa5c5fdad1620,11:20:33,15/01/2024
,,,fwdspan,update_span,Sui3Sb9OrqZxU9yu693q9JNzzQ12,call-function,54,418873,0.0-7.0-2.3-0.3-4.3,,,,,,,60efd8e0434fa5c5fdad1620,11:20:33,15/01/2024
3029.899999976158,"<p style=""font-size:3rem"">Trial 5 of 12</p><br><br><br>",0,fwdspan,start_trial,Sui3Sb9OrqZxU9yu693q9JNzzQ12,html-button-response,55,421905,0.0-7.0-2.4-0.4-0.4,,,,,,,60efd8e0434fa5c5fdad1620,11:20:33,15/01/2024
,"<p style=""font-size:14rem;font-weight:400;"">3</p>",,fwdspan,number,Sui3Sb9OrqZxU9yu693q9JNzzQ12,html-keyboard-response,56,422929,0.0-7.0-2.4-0.4-1.18-0.18,,,,,,,60efd8e0434fa5c5fdad1620,11:20:33,15/01/2024
,"<p style=""font-size:14rem;font-weight:400;"">2</p>",,fwdspan,number,Sui3Sb9OrqZxU9yu693q9JNzzQ12,html-keyboard-response,57,423941,0.0-7.0-2.4-0.4-1.19-0.19,,,,,,,60efd8e0434fa5c5fdad1620,11:20:33,15/01/2024
,"<p style=""font-size:14rem;font-weight:400;"">9</p>",,fwdspan,number,Sui3Sb9OrqZxU9yu693q9JNzzQ12,html-keyboard-response,58,424962,0.0-7.0-2.4-0.4-1.20-0.20,,,,,,,60efd8e0434fa5c5fdad1620,11:20:33,15/01/2024
,"<p style=""font-size:14rem;font-weight:400;"">6</p>",,fwdspan,number,Sui3Sb9OrqZxU9yu693q9JNzzQ12,html-keyboard-response,59,425980,0.0-7.0-2.4-0.4-1.21-0.21,,,,,,,60efd8e0434fa5c5fdad1620,11:20:33,15/01/2024
,"<p style=""font-size:14rem;font-weight:400;"">8</p>",,fwdspan,number,Sui3Sb9OrqZxU9yu693q9JNzzQ12,html-keyboard-response,60,427003,0.0-7.0-2.4-0.4-1.22-0.22,,,,,,,60efd8e0434fa5c5fdad1620,11:20:33,15/01/2024
,"<p style=""font-size:14rem;font-weight:400;"">7</p>",,fwdspan,number,Sui3Sb9OrqZxU9yu693q9JNzzQ12,html-keyboard-response,61,428017,0.0-7.0-2.4-0.4-1.23-0.23,,,,,,,60efd8e0434fa5c5fdad1620,11:20:33,15/01/2024
,"<p style=""font-size:14rem;font-weight:400;"">1</p>",,fwdspan,number,Sui3Sb9OrqZxU9yu693q9JNzzQ12,html-keyboard-response,62,429032,0.0-7.0-2.4-0.4-1.24-0.24,,,,,,,60efd8e0434fa5c5fdad1620,11:20:33,15/01/2024
,[],,fwdspan,delay,Sui3Sb9OrqZxU9yu693q9JNzzQ12,html-keyboard-response,63,429602,0.0-7.0-2.4-0.4-2.4,,,,,,,60efd8e0434fa5c5fdad1620,11:20:33,15/01/2024
8545.199999988079,"<div class = numbox><p style=""font-size:2.5rem"">What were the numbers <b>in order</b>?<br>(When you are ready to lock in your answer, press <b>ENTER</b>)</p><button id = button_1 class = ""square num-button"" onclick = ""recordClick(this)""><div class = content><div class = numbers>1</div></div></button><button id = button_2 class = ""square num-button"" onclick = ""recordClick(this)""><div class = content><div class = numbers>2</div></div></button><button id = button_3 class = ""square num-button"" onclick = ""recordClick(this)""><div class = content><div class = numbers>3</div></div></button><button id = button_4 class = ""square num-button"" onclick = ""recordClick(this)""><div class = content><div class = numbers>4</div></div></button><button id = button_5 class = ""square num-button"" onclick = ""recordClick(this)""><div class = content><div class = numbers>5</div></div></button><button id = button_6 class = ""square num-button"" onclick = ""recordClick(this)""><div class = content><div class = numbers>6</div></div></button><button id = button_7 class = ""square num-button"" onclick = ""recordClick(this)""><div class = content><div class = numbers>7</div></div></button><button id = button_8 class = ""square num-button"" onclick = ""recordClick(this)""><div class = content><div class = numbers>8</div></div></button><button id = button_9 class = ""square num-button"" onclick = ""recordClick(this)""><div class = content><div class = numbers>9</div></div></button><button class = clear_button id = ""ClearButton"" onclick = ""clearResponse()"">Clear</button><p><u><b>Current Answer:</b></u></p><div id=echoed_txt style=""font-size: 6rem; color:blue;""><b></b></div></div><br><br><br><br><br><br><br>",enter,fwdspan,response,Sui3Sb9OrqZxU9yu693q9JNzzQ12,html-keyboard-response,64,438150,0.0-7.0-2.4-0.4-3.4,7.0,"[3,2,9,6,8,7,1]","[3,2,9,6,8,7,1]",1.0,"[3, 4, 5, 6, 7, 8, 9, 10, 11, 12, 13, 14]",,60efd8e0434fa5c5fdad1620,11:20:33,15/01/2024
,,,fwdspan,update_span,Sui3Sb9OrqZxU9yu693q9JNzzQ12,call-function,65,438416,0.0-7.0-2.4-0.4-4.4,,,,,,,60efd8e0434fa5c5fdad1620,11:20:33,15/01/2024
1800.8999999761581,"<p style=""font-size:3rem"">Trial 6 of 12</p><br><br><br>",0,fwdspan,start_trial,Sui3Sb9OrqZxU9yu693q9JNzzQ12,html-button-response,66,440219,0.0-7.0-2.5-0.5-0.5,,,,,,,60efd8e0434fa5c5fdad1620,11:20:33,15/01/2024
,"<p style=""font-size:14rem;font-weight:400;"">6</p>",,fwdspan,number,Sui3Sb9OrqZxU9yu693q9JNzzQ12,html-keyboard-response,67,441238,0.0-7.0-2.5-0.5-1.25-0.25,,,,,,,60efd8e0434fa5c5fdad1620,11:20:33,15/01/2024
,"<p style=""font-size:14rem;font-weight:400;"">9</p>",,fwdspan,number,Sui3Sb9OrqZxU9yu693q9JNzzQ12,html-keyboard-response,68,442247,0.0-7.0-2.5-0.5-1.26-0.26,,,,,,,60efd8e0434fa5c5fdad1620,11:20:33,15/01/2024
,"<p style=""font-size:14rem;font-weight:400;"">1</p>",,fwdspan,number,Sui3Sb9OrqZxU9yu693q9JNzzQ12,html-keyboard-response,69,443269,0.0-7.0-2.5-0.5-1.27-0.27,,,,,,,60efd8e0434fa5c5fdad1620,11:20:33,15/01/2024
,"<p style=""font-size:14rem;font-weight:400;"">5</p>",,fwdspan,number,Sui3Sb9OrqZxU9yu693q9JNzzQ12,html-keyboard-response,70,444288,0.0-7.0-2.5-0.5-1.28-0.28,,,,,,,60efd8e0434fa5c5fdad1620,11:20:33,15/01/2024
,"<p style=""font-size:14rem;font-weight:400;"">2</p>",,fwdspan,number,Sui3Sb9OrqZxU9yu693q9JNzzQ12,html-keyboard-response,71,445315,0.0-7.0-2.5-0.5-1.29-0.29,,,,,,,60efd8e0434fa5c5fdad1620,11:20:33,15/01/2024
,"<p style=""font-size:14rem;font-weight:400;"">4</p>",,fwdspan,number,Sui3Sb9OrqZxU9yu693q9JNzzQ12,html-keyboard-response,72,446329,0.0-7.0-2.5-0.5-1.30-0.30,,,,,,,60efd8e0434fa5c5fdad1620,11:20:33,15/01/2024
,"<p style=""font-size:14rem;font-weight:400;"">7</p>",,fwdspan,number,Sui3Sb9OrqZxU9yu693q9JNzzQ12,html-keyboard-response,73,447348,0.0-7.0-2.5-0.5-1.31-0.31,,,,,,,60efd8e0434fa5c5fdad1620,11:20:33,15/01/2024
,"<p style=""font-size:14rem;font-weight:400;"">8</p>",,fwdspan,number,Sui3Sb9OrqZxU9yu693q9JNzzQ12,html-keyboard-response,74,448365,0.0-7.0-2.5-0.5-1.32-0.32,,,,,,,60efd8e0434fa5c5fdad1620,11:20:33,15/01/2024
,[],,fwdspan,delay,Sui3Sb9OrqZxU9yu693q9JNzzQ12,html-keyboard-response,75,448938,0.0-7.0-2.5-0.5-2.5,,,,,,,60efd8e0434fa5c5fdad1620,11:20:33,15/01/2024
13346.199999988079,"<div class = numbox><p style=""font-size:2.5rem"">What were the numbers <b>in order</b>?<br>(When you are ready to lock in your answer, press <b>ENTER</b>)</p><button id = button_1 class = ""square num-button"" onclick = ""recordClick(this)""><div class = content><div class = numbers>1</div></div></button><button id = button_2 class = ""square num-button"" onclick = ""recordClick(this)""><div class = content><div class = numbers>2</div></div></button><button id = button_3 class = ""square num-button"" onclick = ""recordClick(this)""><div class = content><div class = numbers>3</div></div></button><button id = button_4 class = ""square num-button"" onclick = ""recordClick(this)""><div class = content><div class = numbers>4</div></div></button><button id = button_5 class = ""square num-button"" onclick = ""recordClick(this)""><div class = content><div class = numbers>5</div></div></button><button id = button_6 class = ""square num-button"" onclick = ""recordClick(this)""><div class = content><div class = numbers>6</div></div></button><button id = button_7 class = ""square num-button"" onclick = ""recordClick(this)""><div class = content><div class = numbers>7</div></div></button><button id = button_8 class = ""square num-button"" onclick = ""recordClick(this)""><div class = content><div class = numbers>8</div></div></button><button id = button_9 class = ""square num-button"" onclick = ""recordClick(this)""><div class = content><div class = numbers>9</div></div></button><button class = clear_button id = ""ClearButton"" onclick = ""clearResponse()"">Clear</button><p><u><b>Current Answer:</b></u></p><div id=echoed_txt style=""font-size: 6rem; color:blue;""><b></b></div></div><br><br><br><br><br><br><br>",enter,fwdspan,response,Sui3Sb9OrqZxU9yu693q9JNzzQ12,html-keyboard-response,76,462287,0.0-7.0-2.5-0.5-3.5,8.0,"[6,9,1,5,2,4,7,8]","[6,9,1,5,2,4,7,8]",1.0,"[3, 4, 5, 6, 7, 8, 9, 10, 11, 12, 13, 14]",,60efd8e0434fa5c5fdad1620,11:20:33,15/01/2024
,,,fwdspan,update_span,Sui3Sb9OrqZxU9yu693q9JNzzQ12,call-function,77,462554,0.0-7.0-2.5-0.5-4.5,,,,,,,60efd8e0434fa5c5fdad1620,11:20:33,15/01/2024
1818.0,"<p style=""font-size:3rem"">Trial 7 of 12</p><br><br><br>",0,fwdspan,start_trial,Sui3Sb9OrqZxU9yu693q9JNzzQ12,html-button-response,78,464373,0.0-7.0-2.6-0.6-0.6,,,,,,,60efd8e0434fa5c5fdad1620,11:20:33,15/01/2024
,"<p style=""font-size:14rem;font-weight:400;"">7</p>",,fwdspan,number,Sui3Sb9OrqZxU9yu693q9JNzzQ12,html-keyboard-response,79,465390,0.0-7.0-2.6-0.6-1.33-0.33,,,,,,,60efd8e0434fa5c5fdad1620,11:20:33,15/01/2024
,"<p style=""font-size:14rem;font-weight:400;"">5</p>",,fwdspan,number,Sui3Sb9OrqZxU9yu693q9JNzzQ12,html-keyboard-response,80,466415,0.0-7.0-2.6-0.6-1.34-0.34,,,,,,,60efd8e0434fa5c5fdad1620,11:20:33,15/01/2024
,"<p style=""font-size:14rem;font-weight:400;"">2</p>",,fwdspan,number,Sui3Sb9OrqZxU9yu693q9JNzzQ12,html-keyboard-response,81,467438,0.0-7.0-2.6-0.6-1.35-0.35,,,,,,,60efd8e0434fa5c5fdad1620,11:20:33,15/01/2024
,"<p style=""font-size:14rem;font-weight:400;"">4</p>",,fwdspan,number,Sui3Sb9OrqZxU9yu693q9JNzzQ12,html-keyboard-response,82,468452,0.0-7.0-2.6-0.6-1.36-0.36,,,,,,,60efd8e0434fa5c5fdad1620,11:20:33,15/01/2024
,"<p style=""font-size:14rem;font-weight:400;"">1</p>",,fwdspan,number,Sui3Sb9OrqZxU9yu693q9JNzzQ12,html-keyboard-response,83,469473,0.0-7.0-2.6-0.6-1.37-0.37,,,,,,,60efd8e0434fa5c5fdad1620,11:20:33,15/01/2024
,"<p style=""font-size:14rem;font-weight:400;"">8</p>",,fwdspan,number,Sui3Sb9OrqZxU9yu693q9JNzzQ12,html-keyboard-response,84,470495,0.0-7.0-2.6-0.6-1.38-0.38,,,,,,,60efd8e0434fa5c5fdad1620,11:20:33,15/01/2024
,"<p style=""font-size:14rem;font-weight:400;"">6</p>",,fwdspan,number,Sui3Sb9OrqZxU9yu693q9JNzzQ12,html-keyboard-response,85,471512,0.0-7.0-2.6-0.6-1.39-0.39,,,,,,,60efd8e0434fa5c5fdad1620,11:20:33,15/01/2024
,"<p style=""font-size:14rem;font-weight:400;"">9</p>",,fwdspan,number,Sui3Sb9OrqZxU9yu693q9JNzzQ12,html-keyboard-response,86,472535,0.0-7.0-2.6-0.6-1.40-0.40,,,,,,,60efd8e0434fa5c5fdad1620,11:20:33,15/01/2024
,"<p style=""font-size:14rem;font-weight:400;"">3</p>",,fwdspan,number,Sui3Sb9OrqZxU9yu693q9JNzzQ12,html-keyboard-response,87,473555,0.0-7.0-2.6-0.6-1.41-0.41,,,,,,,60efd8e0434fa5c5fdad1620,11:20:33,15/01/2024
,[],,fwdspan,delay,Sui3Sb9OrqZxU9yu693q9JNzzQ12,html-keyboard-response,88,474112,0.0-7.0-2.6-0.6-2.6,,,,,,,60efd8e0434fa5c5fdad1620,11:20:33,15/01/2024
11509.600000023842,"<div class = numbox><p style=""font-size:2.5rem"">What were the numbers <b>in order</b>?<br>(When you are ready to lock in your answer, press <b>ENTER</b>)</p><button id = button_1 class = ""square num-button"" onclick = ""recordClick(this)""><div class = content><div class = numbers>1</div></div></button><button id = button_2 class = ""square num-button"" onclick = ""recordClick(this)""><div class = content><div class = numbers>2</div></div></button><button id = button_3 class = ""square num-button"" onclick = ""recordClick(this)""><div class = content><div class = numbers>3</div></div></button><button id = button_4 class = ""square num-button"" onclick = ""recordClick(this)""><div class = content><div class = numbers>4</div></div></button><button id = button_5 class = ""square num-button"" onclick = ""recordClick(this)""><div class = content><div class = numbers>5</div></div></button><button id = button_6 class = ""square num-button"" onclick = ""recordClick(this)""><div class = content><div class = numbers>6</div></div></button><button id = button_7 class = ""square num-button"" onclick = ""recordClick(this)""><div class = content><div class = numbers>7</div></div></button><button id = button_8 class = ""square num-button"" onclick = ""recordClick(this)""><div class = content><div class = numbers>8</div></div></button><button id = button_9 class = ""square num-button"" onclick = ""recordClick(this)""><div class = content><div class = numbers>9</div></div></button><button class = clear_button id = ""ClearButton"" onclick = ""clearResponse()"">Clear</button><p><u><b>Current Answer:</b></u></p><div id=echoed_txt style=""font-size: 6rem; color:blue;""><b></b></div></div><br><br><br><br><br><br><br>",enter,fwdspan,response,Sui3Sb9OrqZxU9yu693q9JNzzQ12,html-keyboard-response,89,485625,0.0-7.0-2.6-0.6-3.6,9.0,"[7,5,2,4,1,8,6,9,3]","[7,5,2,4,1,8,6,9,3]",1.0,"[3, 4, 5, 6, 7, 8, 9, 10, 11, 12, 13, 14]",,60efd8e0434fa5c5fdad1620,11:20:33,15/01/2024
,,,fwdspan,update_span,Sui3Sb9OrqZxU9yu693q9JNzzQ12,call-function,90,485886,0.0-7.0-2.6-0.6-4.6,,,,,,,60efd8e0434fa5c5fdad1620,11:20:33,15/01/2024
2869.699999988079,"<p style=""font-size:3rem"">Trial 8 of 12</p><br><br><br>",0,fwdspan,start_trial,Sui3Sb9OrqZxU9yu693q9JNzzQ12,html-button-response,91,488758,0.0-7.0-2.7-0.7-0.7,,,,,,,60efd8e0434fa5c5fdad1620,11:20:33,15/01/2024
,"<p style=""font-size:14rem;font-weight:400;"">3</p>",,fwdspan,number,Sui3Sb9OrqZxU9yu693q9JNzzQ12,html-keyboard-response,92,489785,0.0-7.0-2.7-0.7-1.42-0.42,,,,,,,60efd8e0434fa5c5fdad1620,11:20:33,15/01/2024
,"<p style=""font-size:14rem;font-weight:400;"">4</p>",,fwdspan,number,Sui3Sb9OrqZxU9yu693q9JNzzQ12,html-keyboard-response,93,490790,0.0-7.0-2.7-0.7-1.43-0.43,,,,,,,60efd8e0434fa5c5fdad1620,11:20:33,15/01/2024
,"<p style=""font-size:14rem;font-weight:400;"">8</p>",,fwdspan,number,Sui3Sb9OrqZxU9yu693q9JNzzQ12,html-keyboard-response,94,491804,0.0-7.0-2.7-0.7-1.44-0.44,,,,,,,60efd8e0434fa5c5fdad1620,11:20:33,15/01/2024
,"<p style=""font-size:14rem;font-weight:400;"">6</p>",,fwdspan,number,Sui3Sb9OrqZxU9yu693q9JNzzQ12,html-keyboard-response,95,492821,0.0-7.0-2.7-0.7-1.45-0.45,,,,,,,60efd8e0434fa5c5fdad1620,11:20:33,15/01/2024
,"<p style=""font-size:14rem;font-weight:400;"">9</p>",,fwdspan,number,Sui3Sb9OrqZxU9yu693q9JNzzQ12,html-keyboard-response,96,493839,0.0-7.0-2.7-0.7-1.46-0.46,,,,,,,60efd8e0434fa5c5fdad1620,11:20:33,15/01/2024
,"<p style=""font-size:14rem;font-weight:400;"">2</p>",,fwdspan,number,Sui3Sb9OrqZxU9yu693q9JNzzQ12,html-keyboard-response,97,494862,0.0-7.0-2.7-0.7-1.47-0.47,,,,,,,60efd8e0434fa5c5fdad1620,11:20:33,15/01/2024
,"<p style=""font-size:14rem;font-weight:400;"">7</p>",,fwdspan,number,Sui3Sb9OrqZxU9yu693q9JNzzQ12,html-keyboard-response,98,495879,0.0-7.0-2.7-0.7-1.48-0.48,,,,,,,60efd8e0434fa5c5fdad1620,11:20:33,15/01/2024
,"<p style=""font-size:14rem;font-weight:400;"">5</p>",,fwdspan,number,Sui3Sb9OrqZxU9yu693q9JNzzQ12,html-keyboard-response,99,496902,0.0-7.0-2.7-0.7-1.49-0.49,,,,,,,60efd8e0434fa5c5fdad1620,11:20:33,15/01/2024
,"<p style=""font-size:14rem;font-weight:400;"">1</p>",,fwdspan,number,Sui3Sb9OrqZxU9yu693q9JNzzQ12,html-keyboard-response,100,497914,0.0-7.0-2.7-0.7-1.50-0.50,,,,,,,60efd8e0434fa5c5fdad1620,11:20:33,15/01/2024
,"<p style=""font-size:14rem;font-weight:400;"">7</p>",,fwdspan,number,Sui3Sb9OrqZxU9yu693q9JNzzQ12,html-keyboard-response,101,498928,0.0-7.0-2.7-0.7-1.51-0.51,,,,,,,60efd8e0434fa5c5fdad1620,11:20:33,15/01/2024
,[],,fwdspan,delay,Sui3Sb9OrqZxU9yu693q9JNzzQ12,html-keyboard-response,102,499489,0.0-7.0-2.7-0.7-2.7,,,,,,,60efd8e0434fa5c5fdad1620,11:20:33,15/01/2024
15025.599999964237,"<div class = numbox><p style=""font-size:2.5rem"">What were the numbers <b>in order</b>?<br>(When you are ready to lock in your answer, press <b>ENTER</b>)</p><button id = button_1 class = ""square num-button"" onclick = ""recordClick(this)""><div class = content><div class = numbers>1</div></div></button><button id = button_2 class = ""square num-button"" onclick = ""recordClick(this)""><div class = content><div class = numbers>2</div></div></button><button id = button_3 class = ""square num-button"" onclick = ""recordClick(this)""><div class = content><div class = numbers>3</div></div></button><button id = button_4 class = ""square num-button"" onclick = ""recordClick(this)""><div class = content><div class = numbers>4</div></div></button><button id = button_5 class = ""square num-button"" onclick = ""recordClick(this)""><div class = content><div class = numbers>5</div></div></button><button id = button_6 class = ""square num-button"" onclick = ""recordClick(this)""><div class = content><div class = numbers>6</div></div></button><button id = button_7 class = ""square num-button"" onclick = ""recordClick(this)""><div class = content><div class = numbers>7</div></div></button><button id = button_8 class = ""square num-button"" onclick = ""recordClick(this)""><div class = content><div class = numbers>8</div></div></button><button id = button_9 class = ""square num-button"" onclick = ""recordClick(this)""><div class = content><div class = numbers>9</div></div></button><button class = clear_button id = ""ClearButton"" onclick = ""clearResponse()"">Clear</button><p><u><b>Current Answer:</b></u></p><div id=echoed_txt style=""font-size: 6rem; color:blue;""><b></b></div></div><br><br><br><br><br><br><br>",enter,fwdspan,response,Sui3Sb9OrqZxU9yu693q9JNzzQ12,html-keyboard-response,103,514515,0.0-7.0-2.7-0.7-3.7,10.0,"[3,4,8,6,9,2,7,5,1,7]","[3,4,8,6,9,2,7,5,1,7]",1.0,"[3, 4, 5, 6, 7, 8, 9, 10, 11, 12, 13, 14]",,60efd8e0434fa5c5fdad1620,11:20:33,15/01/2024
,,,fwdspan,update_span,Sui3Sb9OrqZxU9yu693q9JNzzQ12,call-function,104,514779,0.0-7.0-2.7-0.7-4.7,,,,,,,60efd8e0434fa5c5fdad1620,11:20:33,15/01/2024
1247.5,"<p style=""font-size:3rem"">Trial 9 of 12</p><br><br><br>",0,fwdspan,start_trial,Sui3Sb9OrqZxU9yu693q9JNzzQ12,html-button-response,105,516028,0.0-7.0-2.8-0.8-0.8,,,,,,,60efd8e0434fa5c5fdad1620,11:20:33,15/01/2024
,"<p style=""font-size:14rem;font-weight:400;"">3</p>",,fwdspan,number,Sui3Sb9OrqZxU9yu693q9JNzzQ12,html-keyboard-response,106,517044,0.0-7.0-2.8-0.8-1.52-0.52,,,,,,,60efd8e0434fa5c5fdad1620,11:20:33,15/01/2024
,"<p style=""font-size:14rem;font-weight:400;"">7</p>",,fwdspan,number,Sui3Sb9OrqZxU9yu693q9JNzzQ12,html-keyboard-response,107,518061,0.0-7.0-2.8-0.8-1.53-0.53,,,,,,,60efd8e0434fa5c5fdad1620,11:20:33,15/01/2024
,"<p style=""font-size:14rem;font-weight:400;"">6</p>",,fwdspan,number,Sui3Sb9OrqZxU9yu693q9JNzzQ12,html-keyboard-response,108,519074,0.0-7.0-2.8-0.8-1.54-0.54,,,,,,,60efd8e0434fa5c5fdad1620,11:20:33,15/01/2024
,"<p style=""font-size:14rem;font-weight:400;"">5</p>",,fwdspan,number,Sui3Sb9OrqZxU9yu693q9JNzzQ12,html-keyboard-response,109,520091,0.0-7.0-2.8-0.8-1.55-0.55,,,,,,,60efd8e0434fa5c5fdad1620,11:20:33,15/01/2024
,"<p style=""font-size:14rem;font-weight:400;"">1</p>",,fwdspan,number,Sui3Sb9OrqZxU9yu693q9JNzzQ12,html-keyboard-response,110,521107,0.0-7.0-2.8-0.8-1.56-0.56,,,,,,,60efd8e0434fa5c5fdad1620,11:20:33,15/01/2024
,"<p style=""font-size:14rem;font-weight:400;"">8</p>",,fwdspan,number,Sui3Sb9OrqZxU9yu693q9JNzzQ12,html-keyboard-response,111,522115,0.0-7.0-2.8-0.8-1.57-0.57,,,,,,,60efd8e0434fa5c5fdad1620,11:20:33,15/01/2024
,"<p style=""font-size:14rem;font-weight:400;"">9</p>",,fwdspan,number,Sui3Sb9OrqZxU9yu693q9JNzzQ12,html-keyboard-response,112,523131,0.0-7.0-2.8-0.8-1.58-0.58,,,,,,,60efd8e0434fa5c5fdad1620,11:20:33,15/01/2024
,"<p style=""font-size:14rem;font-weight:400;"">2</p>",,fwdspan,number,Sui3Sb9OrqZxU9yu693q9JNzzQ12,html-keyboard-response,113,524148,0.0-7.0-2.8-0.8-1.59-0.59,,,,,,,60efd8e0434fa5c5fdad1620,11:20:33,15/01/2024
,"<p style=""font-size:14rem;font-weight:400;"">4</p>",,fwdspan,number,Sui3Sb9OrqZxU9yu693q9JNzzQ12,html-keyboard-response,114,525165,0.0-7.0-2.8-0.8-1.60-0.60,,,,,,,60efd8e0434fa5c5fdad1620,11:20:33,15/01/2024
,"<p style=""font-size:14rem;font-weight:400;"">6</p>",,fwdspan,number,Sui3Sb9OrqZxU9yu693q9JNzzQ12,html-keyboard-response,115,526176,0.0-7.0-2.8-0.8-1.61-0.61,,,,,,,60efd8e0434fa5c5fdad1620,11:20:33,15/01/2024
,"<p style=""font-size:14rem;font-weight:400;"">1</p>",,fwdspan,number,Sui3Sb9OrqZxU9yu693q9JNzzQ12,html-keyboard-response,116,527186,0.0-7.0-2.8-0.8-1.62-0.62,,,,,,,60efd8e0434fa5c5fdad1620,11:20:33,15/01/2024
,[],,fwdspan,delay,Sui3Sb9OrqZxU9yu693q9JNzzQ12,html-keyboard-response,117,527757,0.0-7.0-2.8-0.8-2.8,,,,,,,60efd8e0434fa5c5fdad1620,11:20:33,15/01/2024
12002.800000011921,"<div class = numbox><p style=""font-size:2.5rem"">What were the numbers <b>in order</b>?<br>(When you are ready to lock in your answer, press <b>ENTER</b>)</p><button id = button_1 class = ""square num-button"" onclick = ""recordClick(this)""><div class = content><div class = numbers>1</div></div></button><button id = button_2 class = ""square num-button"" onclick = ""recordClick(this)""><div class = content><div class = numbers>2</div></div></button><button id = button_3 class = ""square num-button"" onclick = ""recordClick(this)""><div class = content><div class = numbers>3</div></div></button><button id = button_4 class = ""square num-button"" onclick = ""recordClick(this)""><div class = content><div class = numbers>4</div></div></button><button id = button_5 class = ""square num-button"" onclick = ""recordClick(this)""><div class = content><div class = numbers>5</div></div></button><button id = button_6 class = ""square num-button"" onclick = ""recordClick(this)""><div class = content><div class = numbers>6</div></div></button><button id = button_7 class = ""square num-button"" onclick = ""recordClick(this)""><div class = content><div class = numbers>7</div></div></button><button id = button_8 class = ""square num-button"" onclick = ""recordClick(this)""><div class = content><div class = numbers>8</div></div></button><button id = button_9 class = ""square num-button"" onclick = ""recordClick(this)""><div class = content><div class = numbers>9</div></div></button><button class = clear_button id = ""ClearButton"" onclick = ""clearResponse()"">Clear</button><p><u><b>Current Answer:</b></u></p><div id=echoed_txt style=""font-size: 6rem; color:blue;""><b></b></div></div><br><br><br><br><br><br><br>",enter,fwdspan,response,Sui3Sb9OrqZxU9yu693q9JNzzQ12,html-keyboard-response,118,539762,0.0-7.0-2.8-0.8-3.8,11.0,"[3,7,6,5,1,8,9,2,4,6,1]","[3,7,6,5,1,8,9,2,4,6,1]",1.0,"[3, 4, 5, 6, 7, 8, 9, 10, 11, 12, 13, 14]",,60efd8e0434fa5c5fdad1620,11:20:33,15/01/2024
,,,fwdspan,update_span,Sui3Sb9OrqZxU9yu693q9JNzzQ12,call-function,119,540018,0.0-7.0-2.8-0.8-4.8,,,,,,,60efd8e0434fa5c5fdad1620,11:20:33,15/01/2024
4374.400000035763,"<p style=""font-size:3rem"">Trial 10 of 12</p><br><br><br>",0,fwdspan,start_trial,Sui3Sb9OrqZxU9yu693q9JNzzQ12,html-button-response,120,544394,0.0-7.0-2.9-0.9-0.9,,,,,,,60efd8e0434fa5c5fdad1620,11:20:33,15/01/2024
,"<p style=""font-size:14rem;font-weight:400;"">7</p>",,fwdspan,number,Sui3Sb9OrqZxU9yu693q9JNzzQ12,html-keyboard-response,121,545418,0.0-7.0-2.9-0.9-1.63-0.63,,,,,,,60efd8e0434fa5c5fdad1620,11:20:33,15/01/2024
,"<p style=""font-size:14rem;font-weight:400;"">9</p>",,fwdspan,number,Sui3Sb9OrqZxU9yu693q9JNzzQ12,html-keyboard-response,122,546442,0.0-7.0-2.9-0.9-1.64-0.64,,,,,,,60efd8e0434fa5c5fdad1620,11:20:33,15/01/2024
,"<p style=""font-size:14rem;font-weight:400;"">8</p>",,fwdspan,number,Sui3Sb9OrqZxU9yu693q9JNzzQ12,html-keyboard-response,123,547457,0.0-7.0-2.9-0.9-1.65-0.65,,,,,,,60efd8e0434fa5c5fdad1620,11:20:33,15/01/2024
,"<p style=""font-size:14rem;font-weight:400;"">3</p>",,fwdspan,number,Sui3Sb9OrqZxU9yu693q9JNzzQ12,html-keyboard-response,124,548476,0.0-7.0-2.9-0.9-1.66-0.66,,,,,,,60efd8e0434fa5c5fdad1620,11:20:33,15/01/2024
,"<p style=""font-size:14rem;font-weight:400;"">2</p>",,fwdspan,number,Sui3Sb9OrqZxU9yu693q9JNzzQ12,html-keyboard-response,125,549487,0.0-7.0-2.9-0.9-1.67-0.67,,,,,,,60efd8e0434fa5c5fdad1620,11:20:33,15/01/2024
,"<p style=""font-size:14rem;font-weight:400;"">4</p>",,fwdspan,number,Sui3Sb9OrqZxU9yu693q9JNzzQ12,html-keyboard-response,126,550497,0.0-7.0-2.9-0.9-1.68-0.68,,,,,,,60efd8e0434fa5c5fdad1620,11:20:33,15/01/2024
,"<p style=""font-size:14rem;font-weight:400;"">1</p>",,fwdspan,number,Sui3Sb9OrqZxU9yu693q9JNzzQ12,html-keyboard-response,127,551510,0.0-7.0-2.9-0.9-1.69-0.69,,,,,,,60efd8e0434fa5c5fdad1620,11:20:33,15/01/2024
,"<p style=""font-size:14rem;font-weight:400;"">5</p>",,fwdspan,number,Sui3Sb9OrqZxU9yu693q9JNzzQ12,html-keyboard-response,128,552527,0.0-7.0-2.9-0.9-1.70-0.70,,,,,,,60efd8e0434fa5c5fdad1620,11:20:33,15/01/2024
,"<p style=""font-size:14rem;font-weight:400;"">6</p>",,fwdspan,number,Sui3Sb9OrqZxU9yu693q9JNzzQ12,html-keyboard-response,129,553550,0.0-7.0-2.9-0.9-1.71-0.71,,,,,,,60efd8e0434fa5c5fdad1620,11:20:33,15/01/2024
,"<p style=""font-size:14rem;font-weight:400;"">2</p>",,fwdspan,number,Sui3Sb9OrqZxU9yu693q9JNzzQ12,html-keyboard-response,130,554566,0.0-7.0-2.9-0.9-1.72-0.72,,,,,,,60efd8e0434fa5c5fdad1620,11:20:33,15/01/2024
,"<p style=""font-size:14rem;font-weight:400;"">3</p>",,fwdspan,number,Sui3Sb9OrqZxU9yu693q9JNzzQ12,html-keyboard-response,131,555589,0.0-7.0-2.9-0.9-1.73-0.73,,,,,,,60efd8e0434fa5c5fdad1620,11:20:33,15/01/2024
,"<p style=""font-size:14rem;font-weight:400;"">1</p>",,fwdspan,number,Sui3Sb9OrqZxU9yu693q9JNzzQ12,html-keyboard-response,132,556610,0.0-7.0-2.9-0.9-1.74-0.74,,,,,,,60efd8e0434fa5c5fdad1620,11:20:33,15/01/2024
,[],,fwdspan,delay,Sui3Sb9OrqZxU9yu693q9JNzzQ12,html-keyboard-response,133,557183,0.0-7.0-2.9-0.9-2.9,,,,,,,60efd8e0434fa5c5fdad1620,11:20:33,15/01/2024
19480.599999964237,"<div class = numbox><p style=""font-size:2.5rem"">What were the numbers <b>in order</b>?<br>(When you are ready to lock in your answer, press <b>ENTER</b>)</p><button id = button_1 class = ""square num-button"" onclick = ""recordClick(this)""><div class = content><div class = numbers>1</div></div></button><button id = button_2 class = ""square num-button"" onclick = ""recordClick(this)""><div class = content><div class = numbers>2</div></div></button><button id = button_3 class = ""square num-button"" onclick = ""recordClick(this)""><div class = content><div class = numbers>3</div></div></button><button id = button_4 class = ""square num-button"" onclick = ""recordClick(this)""><div class = content><div class = numbers>4</div></div></button><button id = button_5 class = ""square num-button"" onclick = ""recordClick(this)""><div class = content><div class = numbers>5</div></div></button><button id = button_6 class = ""square num-button"" onclick = ""recordClick(this)""><div class = content><div class = numbers>6</div></div></button><button id = button_7 class = ""square num-button"" onclick = ""recordClick(this)""><div class = content><div class = numbers>7</div></div></button><button id = button_8 class = ""square num-button"" onclick = ""recordClick(this)""><div class = content><div class = numbers>8</div></div></button><button id = button_9 class = ""square num-button"" onclick = ""recordClick(this)""><div class = content><div class = numbers>9</div></div></button><button class = clear_button id = ""ClearButton"" onclick = ""clearResponse()"">Clear</button><p><u><b>Current Answer:</b></u></p><div id=echoed_txt style=""font-size: 6rem; color:blue;""><b></b></div></div><br><br><br><br><br><br><br>",enter,fwdspan,response,Sui3Sb9OrqZxU9yu693q9JNzzQ12,html-keyboard-response,134,576668,0.0-7.0-2.9-0.9-3.9,12.0,"[7,9,8,3,2,4,1,5,6,2,3,1]","[7,9,8,3,2,4,1,5,6,2,3,1]",1.0,"[3, 4, 5, 6, 7, 8, 9, 10, 11, 12, 13, 14]",,60efd8e0434fa5c5fdad1620,11:20:33,15/01/2024
,,,fwdspan,update_span,Sui3Sb9OrqZxU9yu693q9JNzzQ12,call-function,135,576935,0.0-7.0-2.9-0.9-4.9,,,,,,,60efd8e0434fa5c5fdad1620,11:20:33,15/01/2024
906.0,"<p style=""font-size:3rem"">Trial 11 of 12</p><br><br><br>",0,fwdspan,start_trial,Sui3Sb9OrqZxU9yu693q9JNzzQ12,html-button-response,136,577842,0.0-7.0-2.10-0.10-0.10,,,,,,,60efd8e0434fa5c5fdad1620,11:20:33,15/01/2024
,"<p style=""font-size:14rem;font-weight:400;"">3</p>",,fwdspan,number,Sui3Sb9OrqZxU9yu693q9JNzzQ12,html-keyboard-response,137,578858,0.0-7.0-2.10-0.10-1.75-0.75,,,,,,,60efd8e0434fa5c5fdad1620,11:20:33,15/01/2024
,"<p style=""font-size:14rem;font-weight:400;"">6</p>",,fwdspan,number,Sui3Sb9OrqZxU9yu693q9JNzzQ12,html-keyboard-response,138,579882,0.0-7.0-2.10-0.10-1.76-0.76,,,,,,,60efd8e0434fa5c5fdad1620,11:20:33,15/01/2024
,"<p style=""font-size:14rem;font-weight:400;"">2</p>",,fwdspan,number,Sui3Sb9OrqZxU9yu693q9JNzzQ12,html-keyboard-response,139,580898,0.0-7.0-2.10-0.10-1.77-0.77,,,,,,,60efd8e0434fa5c5fdad1620,11:20:33,15/01/2024
,"<p style=""font-size:14rem;font-weight:400;"">4</p>",,fwdspan,number,Sui3Sb9OrqZxU9yu693q9JNzzQ12,html-keyboard-response,140,581918,0.0-7.0-2.10-0.10-1.78-0.78,,,,,,,60efd8e0434fa5c5fdad1620,11:20:33,15/01/2024
,"<p style=""font-size:14rem;font-weight:400;"">8</p>",,fwdspan,number,Sui3Sb9OrqZxU9yu693q9JNzzQ12,html-keyboard-response,141,582932,0.0-7.0-2.10-0.10-1.79-0.79,,,,,,,60efd8e0434fa5c5fdad1620,11:20:33,15/01/2024
,"<p style=""font-size:14rem;font-weight:400;"">5</p>",,fwdspan,number,Sui3Sb9OrqZxU9yu693q9JNzzQ12,html-keyboard-response,142,583958,0.0-7.0-2.10-0.10-1.80-0.80,,,,,,,60efd8e0434fa5c5fdad1620,11:20:33,15/01/2024
,"<p style=""font-size:14rem;font-weight:400;"">7</p>",,fwdspan,number,Sui3Sb9OrqZxU9yu693q9JNzzQ12,html-keyboard-response,143,584966,0.0-7.0-2.10-0.10-1.81-0.81,,,,,,,60efd8e0434fa5c5fdad1620,11:20:33,15/01/2024
,"<p style=""font-size:14rem;font-weight:400;"">9</p>",,fwdspan,number,Sui3Sb9OrqZxU9yu693q9JNzzQ12,html-keyboard-response,144,585985,0.0-7.0-2.10-0.10-1.82-0.82,,,,,,,60efd8e0434fa5c5fdad1620,11:20:33,15/01/2024
,"<p style=""font-size:14rem;font-weight:400;"">1</p>",,fwdspan,number,Sui3Sb9OrqZxU9yu693q9JNzzQ12,html-keyboard-response,145,587003,0.0-7.0-2.10-0.10-1.83-0.83,,,,,,,60efd8e0434fa5c5fdad1620,11:20:33,15/01/2024
,"<p style=""font-size:14rem;font-weight:400;"">5</p>",,fwdspan,number,Sui3Sb9OrqZxU9yu693q9JNzzQ12,html-keyboard-response,146,588025,0.0-7.0-2.10-0.10-1.84-0.84,,,,,,,60efd8e0434fa5c5fdad1620,11:20:33,15/01/2024
,"<p style=""font-size:14rem;font-weight:400;"">3</p>",,fwdspan,number,Sui3Sb9OrqZxU9yu693q9JNzzQ12,html-keyboard-response,147,589044,0.0-7.0-2.10-0.10-1.85-0.85,,,,,,,60efd8e0434fa5c5fdad1620,11:20:33,15/01/2024
,"<p style=""font-size:14rem;font-weight:400;"">8</p>",,fwdspan,number,Sui3Sb9OrqZxU9yu693q9JNzzQ12,html-keyboard-response,148,590068,0.0-7.0-2.10-0.10-1.86-0.86,,,,,,,60efd8e0434fa5c5fdad1620,11:20:33,15/01/2024
,"<p style=""font-size:14rem;font-weight:400;"">7</p>",,fwdspan,number,Sui3Sb9OrqZxU9yu693q9JNzzQ12,html-keyboard-response,149,591091,0.0-7.0-2.10-0.10-1.87-0.87,,,,,,,60efd8e0434fa5c5fdad1620,11:20:33,15/01/2024
,[],,fwdspan,delay,Sui3Sb9OrqZxU9yu693q9JNzzQ12,html-keyboard-response,150,591661,0.0-7.0-2.10-0.10-2.10,,,,,,,60efd8e0434fa5c5fdad1620,11:20:33,15/01/2024
16548.900000035763,"<div class = numbox><p style=""font-size:2.5rem"">What were the numbers <b>in order</b>?<br>(When you are ready to lock in your answer, press <b>ENTER</b>)</p><button id = button_1 class = ""square num-button"" onclick = ""recordClick(this)""><div class = content><div class = numbers>1</div></div></button><button id = button_2 class = ""square num-button"" onclick = ""recordClick(this)""><div class = content><div class = numbers>2</div></div></button><button id = button_3 class = ""square num-button"" onclick = ""recordClick(this)""><div class = content><div class = numbers>3</div></div></button><button id = button_4 class = ""square num-button"" onclick = ""recordClick(this)""><div class = content><div class = numbers>4</div></div></button><button id = button_5 class = ""square num-button"" onclick = ""recordClick(this)""><div class = content><div class = numbers>5</div></div></button><button id = button_6 class = ""square num-button"" onclick = ""recordClick(this)""><div class = content><div class = numbers>6</div></div></button><button id = button_7 class = ""square num-button"" onclick = ""recordClick(this)""><div class = content><div class = numbers>7</div></div></button><button id = button_8 class = ""square num-button"" onclick = ""recordClick(this)""><div class = content><div class = numbers>8</div></div></button><button id = button_9 class = ""square num-button"" onclick = ""recordClick(this)""><div class = content><div class = numbers>9</div></div></button><button class = clear_button id = ""ClearButton"" onclick = ""clearResponse()"">Clear</button><p><u><b>Current Answer:</b></u></p><div id=echoed_txt style=""font-size: 6rem; color:blue;""><b></b></div></div><br><br><br><br><br><br><br>",enter,fwdspan,response,Sui3Sb9OrqZxU9yu693q9JNzzQ12,html-keyboard-response,151,608212,0.0-7.0-2.10-0.10-3.10,13.0,"[3,6,2,4,8,5,7,9,1,5,3,8,7]","[3,6,2,4,8,5,7,9,1,5,3,8,7]",1.0,"[3, 4, 5, 6, 7, 8, 9, 10, 11, 12, 13, 14]",,60efd8e0434fa5c5fdad1620,11:20:33,15/01/2024
,,,fwdspan,update_span,Sui3Sb9OrqZxU9yu693q9JNzzQ12,call-function,152,608469,0.0-7.0-2.10-0.10-4.10,,,,,,,60efd8e0434fa5c5fdad1620,11:20:33,15/01/2024
3071.900000035763,"<p style=""font-size:3rem"">Trial 12 of 12</p><br><br><br>",0,fwdspan,start_trial,Sui3Sb9OrqZxU9yu693q9JNzzQ12,html-button-response,153,611542,0.0-7.0-2.11-0.11-0.11,,,,,,,60efd8e0434fa5c5fdad1620,11:20:33,15/01/2024
,"<p style=""font-size:14rem;font-weight:400;"">5</p>",,fwdspan,number,Sui3Sb9OrqZxU9yu693q9JNzzQ12,html-keyboard-response,154,612561,0.0-7.0-2.11-0.11-1.88-0.88,,,,,,,60efd8e0434fa5c5fdad1620,11:20:33,15/01/2024
,"<p style=""font-size:14rem;font-weight:400;"">2</p>",,fwdspan,number,Sui3Sb9OrqZxU9yu693q9JNzzQ12,html-keyboard-response,155,613567,0.0-7.0-2.11-0.11-1.89-0.89,,,,,,,60efd8e0434fa5c5fdad1620,11:20:33,15/01/2024
,"<p style=""font-size:14rem;font-weight:400;"">7</p>",,fwdspan,number,Sui3Sb9OrqZxU9yu693q9JNzzQ12,html-keyboard-response,156,614590,0.0-7.0-2.11-0.11-1.90-0.90,,,,,,,60efd8e0434fa5c5fdad1620,11:20:33,15/01/2024
,"<p style=""font-size:14rem;font-weight:400;"">9</p>",,fwdspan,number,Sui3Sb9OrqZxU9yu693q9JNzzQ12,html-keyboard-response,157,615609,0.0-7.0-2.11-0.11-1.91-0.91,,,,,,,60efd8e0434fa5c5fdad1620,11:20:33,15/01/2024
,"<p style=""font-size:14rem;font-weight:400;"">1</p>",,fwdspan,number,Sui3Sb9OrqZxU9yu693q9JNzzQ12,html-keyboard-response,158,616619,0.0-7.0-2.11-0.11-1.92-0.92,,,,,,,60efd8e0434fa5c5fdad1620,11:20:33,15/01/2024
,"<p style=""font-size:14rem;font-weight:400;"">6</p>",,fwdspan,number,Sui3Sb9OrqZxU9yu693q9JNzzQ12,html-keyboard-response,159,617630,0.0-7.0-2.11-0.11-1.93-0.93,,,,,,,60efd8e0434fa5c5fdad1620,11:20:33,15/01/2024
,"<p style=""font-size:14rem;font-weight:400;"">3</p>",,fwdspan,number,Sui3Sb9OrqZxU9yu693q9JNzzQ12,html-keyboard-response,160,618652,0.0-7.0-2.11-0.11-1.94-0.94,,,,,,,60efd8e0434fa5c5fdad1620,11:20:33,15/01/2024
,"<p style=""font-size:14rem;font-weight:400;"">8</p>",,fwdspan,number,Sui3Sb9OrqZxU9yu693q9JNzzQ12,html-keyboard-response,161,619664,0.0-7.0-2.11-0.11-1.95-0.95,,,,,,,60efd8e0434fa5c5fdad1620,11:20:33,15/01/2024
,"<p style=""font-size:14rem;font-weight:400;"">4</p>",,fwdspan,number,Sui3Sb9OrqZxU9yu693q9JNzzQ12,html-keyboard-response,162,620677,0.0-7.0-2.11-0.11-1.96-0.96,,,,,,,60efd8e0434fa5c5fdad1620,11:20:33,15/01/2024
,"<p style=""font-size:14rem;font-weight:400;"">3</p>",,fwdspan,number,Sui3Sb9OrqZxU9yu693q9JNzzQ12,html-keyboard-response,163,621700,0.0-7.0-2.11-0.11-1.97-0.97,,,,,,,60efd8e0434fa5c5fdad1620,11:20:33,15/01/2024
,"<p style=""font-size:14rem;font-weight:400;"">4</p>",,fwdspan,number,Sui3Sb9OrqZxU9yu693q9JNzzQ12,html-keyboard-response,164,622727,0.0-7.0-2.11-0.11-1.98-0.98,,,,,,,60efd8e0434fa5c5fdad1620,11:20:33,15/01/2024
,"<p style=""font-size:14rem;font-weight:400;"">6</p>",,fwdspan,number,Sui3Sb9OrqZxU9yu693q9JNzzQ12,html-keyboard-response,165,623747,0.0-7.0-2.11-0.11-1.99-0.99,,,,,,,60efd8e0434fa5c5fdad1620,11:20:33,15/01/2024
,"<p style=""font-size:14rem;font-weight:400;"">9</p>",,fwdspan,number,Sui3Sb9OrqZxU9yu693q9JNzzQ12,html-keyboard-response,166,624760,0.0-7.0-2.11-0.11-1.100-0.100,,,,,,,60efd8e0434fa5c5fdad1620,11:20:33,15/01/2024
,"<p style=""font-size:14rem;font-weight:400;"">2</p>",,fwdspan,number,Sui3Sb9OrqZxU9yu693q9JNzzQ12,html-keyboard-response,167,625775,0.0-7.0-2.11-0.11-1.101-0.101,,,,,,,60efd8e0434fa5c5fdad1620,11:20:33,15/01/2024
,[],,fwdspan,delay,Sui3Sb9OrqZxU9yu693q9JNzzQ12,html-keyboard-response,168,626341,0.0-7.0-2.11-0.11-2.11,,,,,,,60efd8e0434fa5c5fdad1620,11:20:33,15/01/2024
20663.399999976158,"<div class = numbox><p style=""font-size:2.5rem"">What were the numbers <b>in order</b>?<br>(When you are ready to lock in your answer, press <b>ENTER</b>)</p><button id = button_1 class = ""square num-button"" onclick = ""recordClick(this)""><div class = content><div class = numbers>1</div></div></button><button id = button_2 class = ""square num-button"" onclick = ""recordClick(this)""><div class = content><div class = numbers>2</div></div></button><button id = button_3 class = ""square num-button"" onclick = ""recordClick(this)""><div class = content><div class = numbers>3</div></div></button><button id = button_4 class = ""square num-button"" onclick = ""recordClick(this)""><div class = content><div class = numbers>4</div></div></button><button id = button_5 class = ""square num-button"" onclick = ""recordClick(this)""><div class = content><div class = numbers>5</div></div></button><button id = button_6 class = ""square num-button"" onclick = ""recordClick(this)""><div class = content><div class = numbers>6</div></div></button><button id = button_7 class = ""square num-button"" onclick = ""recordClick(this)""><div class = content><div class = numbers>7</div></div></button><button id = button_8 class = ""square num-button"" onclick = ""recordClick(this)""><div class = content><div class = numbers>8</div></div></button><button id = button_9 class = ""square num-button"" onclick = ""recordClick(this)""><div class = content><div class = numbers>9</div></div></button><button class = clear_button id = ""ClearButton"" onclick = ""clearResponse()"">Clear</button><p><u><b>Current Answer:</b></u></p><div id=echoed_txt style=""font-size: 6rem; color:blue;""><b></b></div></div><br><br><br><br><br><br><br>",enter,fwdspan,response,Sui3Sb9OrqZxU9yu693q9JNzzQ12,html-keyboard-response,169,647007,0.0-7.0-2.11-0.11-3.11,14.0,"[5,2,7,9,1,6,3,8,4,3,4,6,9,2]","[5,2,7,9,1,6,3,8,4,3,4,6,9,2]",1.0,"[3, 4, 5, 6, 7, 8, 9, 10, 11, 12, 13, 14]",,60efd8e0434fa5c5fdad1620,11:20:33,15/01/2024
,,,fwdspan,update_span,Sui3Sb9OrqZxU9yu693q9JNzzQ12,call-function,170,647262,0.0-7.0-2.11-0.11-4.11,,,,,,,60efd8e0434fa5c5fdad1620,11:20:33,15/01/2024
20878.600000023842,,"{'Q0': ""Nothing, it's great!""}",fwdspan,survey,Sui3Sb9OrqZxU9yu693q9JNzzQ12,lmdlab-survey-text,171,668902,0.0-7.0-3.0,,,,,,Sui3Sb9OrqZxU9yu693q9JNzzQ12,60efd8e0434fa5c5fdad1620,11:20:33,15/01/2024
3937.399999976158,<p><p style='font-size: 3rem'>Great work!<br><br>This completes the digit span task.</p><br><br><br>,0,fwdspan,finish,Sui3Sb9OrqZxU9yu693q9JNzzQ12,html-button-response,172,672844,0.0-7.0-4.0,,,,,,,60efd8e0434fa5c5fdad1620,11:20:33,15/01/2024
