rt,stimulus,response,exp_name,exp_stage,subjectID,trial_type,trial_index,time_elapsed,internal_node_id,span,answer,correct,correct_full,span_history,databaseID,prolificID,start_time,date
7218.799999982119,"<p style=""font-size:4rem""><br><br>In the next part today, we have a completely different short task.<br><br><br>This part involves keeping numbers in you mind. Participation takes around 5 minutes.<br><br><br></p>",0,fwdspan,instruct,lklOM7Cu98T2ywUaRrAAJuCKFoI2,html-button-response,19,1061688,0.0-7.0-0.0,,,,,,,5ef1bf65b681b07df6e7ef80,11:35:43 AM,1/15/2024
9242.699999988079,"<p style=""font-size:5rem"">Welcome to the <b>digit span task</b>!<br><br></p><p style=""font-size:3.4rem""><br>On each trial, you will see a sequence of digits, followed by a delay.</p><p style=""font-size:3.4rem""><br>Then you will be asked to type them back in the same order in which they were seen.</p><p style=""font-size:3.4rem""><br><br><br>For example, if you saw the digits <b style=""color:blue;"">1</b>, <b style=""color:blue;"">2</b>, <b style=""color:blue;"">3</b>, you would respond with <b style=""color:blue;"">1</b>, <b style=""color:blue;"">2</b>, <b style=""color:blue;"">3</b></p><p style=""font-size:3.4rem""><br><br><br>To ensure the best measure of true performance for our study,<br><br>it is very important that you do not use any memory aid (e.g., pen and paper).<br><br>Please do the task solely in your head.</p><p style=""font-size:3.4rem""><br><br><br>There will be 12 total trials. Participation takes around 5 minutes.</p><br><br><br>",0,fwdspan,instruct,lklOM7Cu98T2ywUaRrAAJuCKFoI2,html-button-response,20,1070935,0.0-7.0-1.0,,,,,,,5ef1bf65b681b07df6e7ef80,11:35:43 AM,1/15/2024
2516.199999988079,"<p style=""font-size:3rem"">Trial 1 of 12</p><br><br><br>",0,fwdspan,start_trial,lklOM7Cu98T2ywUaRrAAJuCKFoI2,html-button-response,21,1073459,0.0-7.0-2.0-0.0-0.0,,,,,,,5ef1bf65b681b07df6e7ef80,11:35:43 AM,1/15/2024
,"<p style=""font-size:14rem;font-weight:400;"">3</p>",,fwdspan,number,lklOM7Cu98T2ywUaRrAAJuCKFoI2,html-keyboard-response,22,1074483,0.0-7.0-2.0-0.0-1.0-0.0,,,,,,,5ef1bf65b681b07df6e7ef80,11:35:43 AM,1/15/2024
,"<p style=""font-size:14rem;font-weight:400;"">4</p>",,fwdspan,number,lklOM7Cu98T2ywUaRrAAJuCKFoI2,html-keyboard-response,23,1075512,0.0-7.0-2.0-0.0-1.1-0.1,,,,,,,5ef1bf65b681b07df6e7ef80,11:35:43 AM,1/15/2024
,"<p style=""font-size:14rem;font-weight:400;"">9</p>",,fwdspan,number,lklOM7Cu98T2ywUaRrAAJuCKFoI2,html-keyboard-response,24,1076540,0.0-7.0-2.0-0.0-1.2-0.2,,,,,,,5ef1bf65b681b07df6e7ef80,11:35:43 AM,1/15/2024
,[],,fwdspan,delay,lklOM7Cu98T2ywUaRrAAJuCKFoI2,html-keyboard-response,25,1077102,0.0-7.0-2.0-0.0-2.0,,,,,,,5ef1bf65b681b07df6e7ef80,11:35:43 AM,1/15/2024
6803.5999999940395,"<div class = numbox><p style=""font-size:2.5rem"">What were the numbers <b>in order</b>?<br>(When you are ready to lock in your answer, press <b>ENTER</b>)</p><button id = button_1 class = ""square num-button"" onclick = ""recordClick(this)""><div class = content><div class = numbers>1</div></div></button><button id = button_2 class = ""square num-button"" onclick = ""recordClick(this)""><div class = content><div class = numbers>2</div></div></button><button id = button_3 class = ""square num-button"" onclick = ""recordClick(this)""><div class = content><div class = numbers>3</div></div></button><button id = button_4 class = ""square num-button"" onclick = ""recordClick(this)""><div class = content><div class = numbers>4</div></div></button><button id = button_5 class = ""square num-button"" onclick = ""recordClick(this)""><div class = content><div class = numbers>5</div></div></button><button id = button_6 class = ""square num-button"" onclick = ""recordClick(this)""><div class = content><div class = numbers>6</div></div></button><button id = button_7 class = ""square num-button"" onclick = ""recordClick(this)""><div class = content><div class = numbers>7</div></div></button><button id = button_8 class = ""square num-button"" onclick = ""recordClick(this)""><div class = content><div class = numbers>8</div></div></button><button id = button_9 class = ""square num-button"" onclick = ""recordClick(this)""><div class = content><div class = numbers>9</div></div></button><button class = clear_button id = ""ClearButton"" onclick = ""clearResponse()"">Clear</button><p><u><b>Current Answer:</b></u></p><div id=echoed_txt style=""font-size: 6rem; color:blue;""><b></b></div></div><br><br><br><br><br><br><br>",enter,fwdspan,response,lklOM7Cu98T2ywUaRrAAJuCKFoI2,html-keyboard-response,26,1083907,0.0-7.0-2.0-0.0-3.0,3.0,"[3,4,9]","[3,4,9]",1.0,"[3, 4, 5, 6, 7, 8, 9, 9, 8, 8, 7, 7]",,5ef1bf65b681b07df6e7ef80,11:35:43 AM,1/15/2024
,,,fwdspan,update_span,lklOM7Cu98T2ywUaRrAAJuCKFoI2,call-function,27,1084177,0.0-7.0-2.0-0.0-4.0,,,,,,,5ef1bf65b681b07df6e7ef80,11:35:43 AM,1/15/2024
1663.800000011921,"<p style=""font-size:3rem"">Trial 2 of 12</p><br><br><br>",0,fwdspan,start_trial,lklOM7Cu98T2ywUaRrAAJuCKFoI2,html-button-response,28,1085844,0.0-7.0-2.1-0.1-0.1,,,,,,,5ef1bf65b681b07df6e7ef80,11:35:43 AM,1/15/2024
,"<p style=""font-size:14rem;font-weight:400;"">8</p>",,fwdspan,number,lklOM7Cu98T2ywUaRrAAJuCKFoI2,html-keyboard-response,29,1086856,0.0-7.0-2.1-0.1-1.3-0.3,,,,,,,5ef1bf65b681b07df6e7ef80,11:35:43 AM,1/15/2024
,"<p style=""font-size:14rem;font-weight:400;"">2</p>",,fwdspan,number,lklOM7Cu98T2ywUaRrAAJuCKFoI2,html-keyboard-response,30,1087886,0.0-7.0-2.1-0.1-1.4-0.4,,,,,,,5ef1bf65b681b07df6e7ef80,11:35:43 AM,1/15/2024
,"<p style=""font-size:14rem;font-weight:400;"">3</p>",,fwdspan,number,lklOM7Cu98T2ywUaRrAAJuCKFoI2,html-keyboard-response,31,1088913,0.0-7.0-2.1-0.1-1.5-0.5,,,,,,,5ef1bf65b681b07df6e7ef80,11:35:43 AM,1/15/2024
,"<p style=""font-size:14rem;font-weight:400;"">1</p>",,fwdspan,number,lklOM7Cu98T2ywUaRrAAJuCKFoI2,html-keyboard-response,32,1089916,0.0-7.0-2.1-0.1-1.6-0.6,,,,,,,5ef1bf65b681b07df6e7ef80,11:35:43 AM,1/15/2024
,[],,fwdspan,delay,lklOM7Cu98T2ywUaRrAAJuCKFoI2,html-keyboard-response,33,1090478,0.0-7.0-2.1-0.1-2.1,,,,,,,5ef1bf65b681b07df6e7ef80,11:35:43 AM,1/15/2024
4702.199999988079,"<div class = numbox><p style=""font-size:2.5rem"">What were the numbers <b>in order</b>?<br>(When you are ready to lock in your answer, press <b>ENTER</b>)</p><button id = button_1 class = ""square num-button"" onclick = ""recordClick(this)""><div class = content><div class = numbers>1</div></div></button><button id = button_2 class = ""square num-button"" onclick = ""recordClick(this)""><div class = content><div class = numbers>2</div></div></button><button id = button_3 class = ""square num-button"" onclick = ""recordClick(this)""><div class = content><div class = numbers>3</div></div></button><button id = button_4 class = ""square num-button"" onclick = ""recordClick(this)""><div class = content><div class = numbers>4</div></div></button><button id = button_5 class = ""square num-button"" onclick = ""recordClick(this)""><div class = content><div class = numbers>5</div></div></button><button id = button_6 class = ""square num-button"" onclick = ""recordClick(this)""><div class = content><div class = numbers>6</div></div></button><button id = button_7 class = ""square num-button"" onclick = ""recordClick(this)""><div class = content><div class = numbers>7</div></div></button><button id = button_8 class = ""square num-button"" onclick = ""recordClick(this)""><div class = content><div class = numbers>8</div></div></button><button id = button_9 class = ""square num-button"" onclick = ""recordClick(this)""><div class = content><div class = numbers>9</div></div></button><button class = clear_button id = ""ClearButton"" onclick = ""clearResponse()"">Clear</button><p><u><b>Current Answer:</b></u></p><div id=echoed_txt style=""font-size: 6rem; color:blue;""><b></b></div></div><br><br><br><br><br><br><br>",enter,fwdspan,response,lklOM7Cu98T2ywUaRrAAJuCKFoI2,html-keyboard-response,34,1095181,0.0-7.0-2.1-0.1-3.1,4.0,"[8,2,3,1]","[8,2,3,1]",1.0,"[3, 4, 5, 6, 7, 8, 9, 9, 8, 8, 7, 7]",,5ef1bf65b681b07df6e7ef80,11:35:43 AM,1/15/2024
,,,fwdspan,update_span,lklOM7Cu98T2ywUaRrAAJuCKFoI2,call-function,35,1095437,0.0-7.0-2.1-0.1-4.1,,,,,,,5ef1bf65b681b07df6e7ef80,11:35:43 AM,1/15/2024
1576.4000000059605,"<p style=""font-size:3rem"">Trial 3 of 12</p><br><br><br>",0,fwdspan,start_trial,lklOM7Cu98T2ywUaRrAAJuCKFoI2,html-button-response,36,1097015,0.0-7.0-2.2-0.2-0.2,,,,,,,5ef1bf65b681b07df6e7ef80,11:35:43 AM,1/15/2024
,"<p style=""font-size:14rem;font-weight:400;"">7</p>",,fwdspan,number,lklOM7Cu98T2ywUaRrAAJuCKFoI2,html-keyboard-response,37,1098038,0.0-7.0-2.2-0.2-1.7-0.7,,,,,,,5ef1bf65b681b07df6e7ef80,11:35:43 AM,1/15/2024
,"<p style=""font-size:14rem;font-weight:400;"">1</p>",,fwdspan,number,lklOM7Cu98T2ywUaRrAAJuCKFoI2,html-keyboard-response,38,1099068,0.0-7.0-2.2-0.2-1.8-0.8,,,,,,,5ef1bf65b681b07df6e7ef80,11:35:43 AM,1/15/2024
,"<p style=""font-size:14rem;font-weight:400;"">8</p>",,fwdspan,number,lklOM7Cu98T2ywUaRrAAJuCKFoI2,html-keyboard-response,39,1100083,0.0-7.0-2.2-0.2-1.9-0.9,,,,,,,5ef1bf65b681b07df6e7ef80,11:35:43 AM,1/15/2024
,"<p style=""font-size:14rem;font-weight:400;"">9</p>",,fwdspan,number,lklOM7Cu98T2ywUaRrAAJuCKFoI2,html-keyboard-response,40,1101112,0.0-7.0-2.2-0.2-1.10-0.10,,,,,,,5ef1bf65b681b07df6e7ef80,11:35:43 AM,1/15/2024
,"<p style=""font-size:14rem;font-weight:400;"">6</p>",,fwdspan,number,lklOM7Cu98T2ywUaRrAAJuCKFoI2,html-keyboard-response,41,1102141,0.0-7.0-2.2-0.2-1.11-0.11,,,,,,,5ef1bf65b681b07df6e7ef80,11:35:43 AM,1/15/2024
,[],,fwdspan,delay,lklOM7Cu98T2ywUaRrAAJuCKFoI2,html-keyboard-response,42,1102718,0.0-7.0-2.2-0.2-2.2,,,,,,,5ef1bf65b681b07df6e7ef80,11:35:43 AM,1/15/2024
7403.5,"<div class = numbox><p style=""font-size:2.5rem"">What were the numbers <b>in order</b>?<br>(When you are ready to lock in your answer, press <b>ENTER</b>)</p><button id = button_1 class = ""square num-button"" onclick = ""recordClick(this)""><div class = content><div class = numbers>1</div></div></button><button id = button_2 class = ""square num-button"" onclick = ""recordClick(this)""><div class = content><div class = numbers>2</div></div></button><button id = button_3 class = ""square num-button"" onclick = ""recordClick(this)""><div class = content><div class = numbers>3</div></div></button><button id = button_4 class = ""square num-button"" onclick = ""recordClick(this)""><div class = content><div class = numbers>4</div></div></button><button id = button_5 class = ""square num-button"" onclick = ""recordClick(this)""><div class = content><div class = numbers>5</div></div></button><button id = button_6 class = ""square num-button"" onclick = ""recordClick(this)""><div class = content><div class = numbers>6</div></div></button><button id = button_7 class = ""square num-button"" onclick = ""recordClick(this)""><div class = content><div class = numbers>7</div></div></button><button id = button_8 class = ""square num-button"" onclick = ""recordClick(this)""><div class = content><div class = numbers>8</div></div></button><button id = button_9 class = ""square num-button"" onclick = ""recordClick(this)""><div class = content><div class = numbers>9</div></div></button><button class = clear_button id = ""ClearButton"" onclick = ""clearResponse()"">Clear</button><p><u><b>Current Answer:</b></u></p><div id=echoed_txt style=""font-size: 6rem; color:blue;""><b></b></div></div><br><br><br><br><br><br><br>",enter,fwdspan,response,lklOM7Cu98T2ywUaRrAAJuCKFoI2,html-keyboard-response,43,1110123,0.0-7.0-2.2-0.2-3.2,5.0,"[7,1,8,9,6]","[7,1,8,9,6]",1.0,"[3, 4, 5, 6, 7, 8, 9, 9, 8, 8, 7, 7]",,5ef1bf65b681b07df6e7ef80,11:35:43 AM,1/15/2024
,,,fwdspan,update_span,lklOM7Cu98T2ywUaRrAAJuCKFoI2,call-function,44,1110377,0.0-7.0-2.2-0.2-4.2,,,,,,,5ef1bf65b681b07df6e7ef80,11:35:43 AM,1/15/2024
1497.5999999940395,"<p style=""font-size:3rem"">Trial 4 of 12</p><br><br><br>",0,fwdspan,start_trial,lklOM7Cu98T2ywUaRrAAJuCKFoI2,html-button-response,45,1111877,0.0-7.0-2.3-0.3-0.3,,,,,,,5ef1bf65b681b07df6e7ef80,11:35:43 AM,1/15/2024
,"<p style=""font-size:14rem;font-weight:400;"">6</p>",,fwdspan,number,lklOM7Cu98T2ywUaRrAAJuCKFoI2,html-keyboard-response,46,1112892,0.0-7.0-2.3-0.3-1.12-0.12,,,,,,,5ef1bf65b681b07df6e7ef80,11:35:43 AM,1/15/2024
,"<p style=""font-size:14rem;font-weight:400;"">2</p>",,fwdspan,number,lklOM7Cu98T2ywUaRrAAJuCKFoI2,html-keyboard-response,47,1113920,0.0-7.0-2.3-0.3-1.13-0.13,,,,,,,5ef1bf65b681b07df6e7ef80,11:35:43 AM,1/15/2024
,"<p style=""font-size:14rem;font-weight:400;"">8</p>",,fwdspan,number,lklOM7Cu98T2ywUaRrAAJuCKFoI2,html-keyboard-response,48,1114936,0.0-7.0-2.3-0.3-1.14-0.14,,,,,,,5ef1bf65b681b07df6e7ef80,11:35:43 AM,1/15/2024
,"<p style=""font-size:14rem;font-weight:400;"">9</p>",,fwdspan,number,lklOM7Cu98T2ywUaRrAAJuCKFoI2,html-keyboard-response,49,1115950,0.0-7.0-2.3-0.3-1.15-0.15,,,,,,,5ef1bf65b681b07df6e7ef80,11:35:43 AM,1/15/2024
,"<p style=""font-size:14rem;font-weight:400;"">7</p>",,fwdspan,number,lklOM7Cu98T2ywUaRrAAJuCKFoI2,html-keyboard-response,50,1116980,0.0-7.0-2.3-0.3-1.16-0.16,,,,,,,5ef1bf65b681b07df6e7ef80,11:35:43 AM,1/15/2024
,"<p style=""font-size:14rem;font-weight:400;"">4</p>",,fwdspan,number,lklOM7Cu98T2ywUaRrAAJuCKFoI2,html-keyboard-response,51,1118006,0.0-7.0-2.3-0.3-1.17-0.17,,,,,,,5ef1bf65b681b07df6e7ef80,11:35:43 AM,1/15/2024
,[],,fwdspan,delay,lklOM7Cu98T2ywUaRrAAJuCKFoI2,html-keyboard-response,52,1118585,0.0-7.0-2.3-0.3-2.3,,,,,,,5ef1bf65b681b07df6e7ef80,11:35:43 AM,1/15/2024
8814.90000000596,"<div class = numbox><p style=""font-size:2.5rem"">What were the numbers <b>in order</b>?<br>(When you are ready to lock in your answer, press <b>ENTER</b>)</p><button id = button_1 class = ""square num-button"" onclick = ""recordClick(this)""><div class = content><div class = numbers>1</div></div></button><button id = button_2 class = ""square num-button"" onclick = ""recordClick(this)""><div class = content><div class = numbers>2</div></div></button><button id = button_3 class = ""square num-button"" onclick = ""recordClick(this)""><div class = content><div class = numbers>3</div></div></button><button id = button_4 class = ""square num-button"" onclick = ""recordClick(this)""><div class = content><div class = numbers>4</div></div></button><button id = button_5 class = ""square num-button"" onclick = ""recordClick(this)""><div class = content><div class = numbers>5</div></div></button><button id = button_6 class = ""square num-button"" onclick = ""recordClick(this)""><div class = content><div class = numbers>6</div></div></button><button id = button_7 class = ""square num-button"" onclick = ""recordClick(this)""><div class = content><div class = numbers>7</div></div></button><button id = button_8 class = ""square num-button"" onclick = ""recordClick(this)""><div class = content><div class = numbers>8</div></div></button><button id = button_9 class = ""square num-button"" onclick = ""recordClick(this)""><div class = content><div class = numbers>9</div></div></button><button class = clear_button id = ""ClearButton"" onclick = ""clearResponse()"">Clear</button><p><u><b>Current Answer:</b></u></p><div id=echoed_txt style=""font-size: 6rem; color:blue;""><b></b></div></div><br><br><br><br><br><br><br>",enter,fwdspan,response,lklOM7Cu98T2ywUaRrAAJuCKFoI2,html-keyboard-response,53,1127401,0.0-7.0-2.3-0.3-3.3,6.0,"[6,2,8,9,7,4]","[6,2,8,9,7,4]",1.0,"[3, 4, 5, 6, 7, 8, 9, 9, 8, 8, 7, 7]",,5ef1bf65b681b07df6e7ef80,11:35:43 AM,1/15/2024
,,,fwdspan,update_span,lklOM7Cu98T2ywUaRrAAJuCKFoI2,call-function,54,1127655,0.0-7.0-2.3-0.3-4.3,,,,,,,5ef1bf65b681b07df6e7ef80,11:35:43 AM,1/15/2024
1633.8999999761581,"<p style=""font-size:3rem"">Trial 5 of 12</p><br><br><br>",0,fwdspan,start_trial,lklOM7Cu98T2ywUaRrAAJuCKFoI2,html-button-response,55,1129290,0.0-7.0-2.4-0.4-0.4,,,,,,,5ef1bf65b681b07df6e7ef80,11:35:43 AM,1/15/2024
,"<p style=""font-size:14rem;font-weight:400;"">2</p>",,fwdspan,number,lklOM7Cu98T2ywUaRrAAJuCKFoI2,html-keyboard-response,56,1130319,0.0-7.0-2.4-0.4-1.18-0.18,,,,,,,5ef1bf65b681b07df6e7ef80,11:35:43 AM,1/15/2024
,"<p style=""font-size:14rem;font-weight:400;"">4</p>",,fwdspan,number,lklOM7Cu98T2ywUaRrAAJuCKFoI2,html-keyboard-response,57,1131332,0.0-7.0-2.4-0.4-1.19-0.19,,,,,,,5ef1bf65b681b07df6e7ef80,11:35:43 AM,1/15/2024
,"<p style=""font-size:14rem;font-weight:400;"">6</p>",,fwdspan,number,lklOM7Cu98T2ywUaRrAAJuCKFoI2,html-keyboard-response,58,1132361,0.0-7.0-2.4-0.4-1.20-0.20,,,,,,,5ef1bf65b681b07df6e7ef80,11:35:43 AM,1/15/2024
,"<p style=""font-size:14rem;font-weight:400;"">7</p>",,fwdspan,number,lklOM7Cu98T2ywUaRrAAJuCKFoI2,html-keyboard-response,59,1133390,0.0-7.0-2.4-0.4-1.21-0.21,,,,,,,5ef1bf65b681b07df6e7ef80,11:35:43 AM,1/15/2024
,"<p style=""font-size:14rem;font-weight:400;"">9</p>",,fwdspan,number,lklOM7Cu98T2ywUaRrAAJuCKFoI2,html-keyboard-response,60,1134417,0.0-7.0-2.4-0.4-1.22-0.22,,,,,,,5ef1bf65b681b07df6e7ef80,11:35:43 AM,1/15/2024
,"<p style=""font-size:14rem;font-weight:400;"">5</p>",,fwdspan,number,lklOM7Cu98T2ywUaRrAAJuCKFoI2,html-keyboard-response,61,1135442,0.0-7.0-2.4-0.4-1.23-0.23,,,,,,,5ef1bf65b681b07df6e7ef80,11:35:43 AM,1/15/2024
,"<p style=""font-size:14rem;font-weight:400;"">3</p>",,fwdspan,number,lklOM7Cu98T2ywUaRrAAJuCKFoI2,html-keyboard-response,62,1136470,0.0-7.0-2.4-0.4-1.24-0.24,,,,,,,5ef1bf65b681b07df6e7ef80,11:35:43 AM,1/15/2024
,[],,fwdspan,delay,lklOM7Cu98T2ywUaRrAAJuCKFoI2,html-keyboard-response,63,1137047,0.0-7.0-2.4-0.4-2.4,,,,,,,5ef1bf65b681b07df6e7ef80,11:35:43 AM,1/15/2024
13325.299999982119,"<div class = numbox><p style=""font-size:2.5rem"">What were the numbers <b>in order</b>?<br>(When you are ready to lock in your answer, press <b>ENTER</b>)</p><button id = button_1 class = ""square num-button"" onclick = ""recordClick(this)""><div class = content><div class = numbers>1</div></div></button><button id = button_2 class = ""square num-button"" onclick = ""recordClick(this)""><div class = content><div class = numbers>2</div></div></button><button id = button_3 class = ""square num-button"" onclick = ""recordClick(this)""><div class = content><div class = numbers>3</div></div></button><button id = button_4 class = ""square num-button"" onclick = ""recordClick(this)""><div class = content><div class = numbers>4</div></div></button><button id = button_5 class = ""square num-button"" onclick = ""recordClick(this)""><div class = content><div class = numbers>5</div></div></button><button id = button_6 class = ""square num-button"" onclick = ""recordClick(this)""><div class = content><div class = numbers>6</div></div></button><button id = button_7 class = ""square num-button"" onclick = ""recordClick(this)""><div class = content><div class = numbers>7</div></div></button><button id = button_8 class = ""square num-button"" onclick = ""recordClick(this)""><div class = content><div class = numbers>8</div></div></button><button id = button_9 class = ""square num-button"" onclick = ""recordClick(this)""><div class = content><div class = numbers>9</div></div></button><button class = clear_button id = ""ClearButton"" onclick = ""clearResponse()"">Clear</button><p><u><b>Current Answer:</b></u></p><div id=echoed_txt style=""font-size: 6rem; color:blue;""><b></b></div></div><br><br><br><br><br><br><br>",enter,fwdspan,response,lklOM7Cu98T2ywUaRrAAJuCKFoI2,html-keyboard-response,64,1150375,0.0-7.0-2.4-0.4-3.4,7.0,"[2,4,6,7,9,5,3]","[2,4,6,7,9,5,3]",1.0,"[3, 4, 5, 6, 7, 8, 9, 9, 8, 8, 7, 7]",,5ef1bf65b681b07df6e7ef80,11:35:43 AM,1/15/2024
,,,fwdspan,update_span,lklOM7Cu98T2ywUaRrAAJuCKFoI2,call-function,65,1150639,0.0-7.0-2.4-0.4-4.4,,,,,,,5ef1bf65b681b07df6e7ef80,11:35:43 AM,1/15/2024
1366.3999999761581,"<p style=""font-size:3rem"">Trial 6 of 12</p><br><br><br>",0,fwdspan,start_trial,lklOM7Cu98T2ywUaRrAAJuCKFoI2,html-button-response,66,1152007,0.0-7.0-2.5-0.5-0.5,,,,,,,5ef1bf65b681b07df6e7ef80,11:35:43 AM,1/15/2024
,"<p style=""font-size:14rem;font-weight:400;"">1</p>",,fwdspan,number,lklOM7Cu98T2ywUaRrAAJuCKFoI2,html-keyboard-response,67,1153030,0.0-7.0-2.5-0.5-1.25-0.25,,,,,,,5ef1bf65b681b07df6e7ef80,11:35:43 AM,1/15/2024
,"<p style=""font-size:14rem;font-weight:400;"">4</p>",,fwdspan,number,lklOM7Cu98T2ywUaRrAAJuCKFoI2,html-keyboard-response,68,1154061,0.0-7.0-2.5-0.5-1.26-0.26,,,,,,,5ef1bf65b681b07df6e7ef80,11:35:43 AM,1/15/2024
,"<p style=""font-size:14rem;font-weight:400;"">7</p>",,fwdspan,number,lklOM7Cu98T2ywUaRrAAJuCKFoI2,html-keyboard-response,69,1155090,0.0-7.0-2.5-0.5-1.27-0.27,,,,,,,5ef1bf65b681b07df6e7ef80,11:35:43 AM,1/15/2024
,"<p style=""font-size:14rem;font-weight:400;"">9</p>",,fwdspan,number,lklOM7Cu98T2ywUaRrAAJuCKFoI2,html-keyboard-response,70,1156115,0.0-7.0-2.5-0.5-1.28-0.28,,,,,,,5ef1bf65b681b07df6e7ef80,11:35:43 AM,1/15/2024
,"<p style=""font-size:14rem;font-weight:400;"">6</p>",,fwdspan,number,lklOM7Cu98T2ywUaRrAAJuCKFoI2,html-keyboard-response,71,1157144,0.0-7.0-2.5-0.5-1.29-0.29,,,,,,,5ef1bf65b681b07df6e7ef80,11:35:43 AM,1/15/2024
,"<p style=""font-size:14rem;font-weight:400;"">2</p>",,fwdspan,number,lklOM7Cu98T2ywUaRrAAJuCKFoI2,html-keyboard-response,72,1158159,0.0-7.0-2.5-0.5-1.30-0.30,,,,,,,5ef1bf65b681b07df6e7ef80,11:35:43 AM,1/15/2024
,"<p style=""font-size:14rem;font-weight:400;"">3</p>",,fwdspan,number,lklOM7Cu98T2ywUaRrAAJuCKFoI2,html-keyboard-response,73,1159190,0.0-7.0-2.5-0.5-1.31-0.31,,,,,,,5ef1bf65b681b07df6e7ef80,11:35:43 AM,1/15/2024
,"<p style=""font-size:14rem;font-weight:400;"">8</p>",,fwdspan,number,lklOM7Cu98T2ywUaRrAAJuCKFoI2,html-keyboard-response,74,1160204,0.0-7.0-2.5-0.5-1.32-0.32,,,,,,,5ef1bf65b681b07df6e7ef80,11:35:43 AM,1/15/2024
,[],,fwdspan,delay,lklOM7Cu98T2ywUaRrAAJuCKFoI2,html-keyboard-response,75,1160777,0.0-7.0-2.5-0.5-2.5,,,,,,,5ef1bf65b681b07df6e7ef80,11:35:43 AM,1/15/2024
10098.799999982119,"<div class = numbox><p style=""font-size:2.5rem"">What were the numbers <b>in order</b>?<br>(When you are ready to lock in your answer, press <b>ENTER</b>)</p><button id = button_1 class = ""square num-button"" onclick = ""recordClick(this)""><div class = content><div class = numbers>1</div></div></button><button id = button_2 class = ""square num-button"" onclick = ""recordClick(this)""><div class = content><div class = numbers>2</div></div></button><button id = button_3 class = ""square num-button"" onclick = ""recordClick(this)""><div class = content><div class = numbers>3</div></div></button><button id = button_4 class = ""square num-button"" onclick = ""recordClick(this)""><div class = content><div class = numbers>4</div></div></button><button id = button_5 class = ""square num-button"" onclick = ""recordClick(this)""><div class = content><div class = numbers>5</div></div></button><button id = button_6 class = ""square num-button"" onclick = ""recordClick(this)""><div class = content><div class = numbers>6</div></div></button><button id = button_7 class = ""square num-button"" onclick = ""recordClick(this)""><div class = content><div class = numbers>7</div></div></button><button id = button_8 class = ""square num-button"" onclick = ""recordClick(this)""><div class = content><div class = numbers>8</div></div></button><button id = button_9 class = ""square num-button"" onclick = ""recordClick(this)""><div class = content><div class = numbers>9</div></div></button><button class = clear_button id = ""ClearButton"" onclick = ""clearResponse()"">Clear</button><p><u><b>Current Answer:</b></u></p><div id=echoed_txt style=""font-size: 6rem; color:blue;""><b></b></div></div><br><br><br><br><br><br><br>",enter,fwdspan,response,lklOM7Cu98T2ywUaRrAAJuCKFoI2,html-keyboard-response,76,1170878,0.0-7.0-2.5-0.5-3.5,8.0,"[1,4,7,9,6,2,3,8]","[1,4,7,9,6,2,3,8]",1.0,"[3, 4, 5, 6, 7, 8, 9, 9, 8, 8, 7, 7]",,5ef1bf65b681b07df6e7ef80,11:35:43 AM,1/15/2024
,,,fwdspan,update_span,lklOM7Cu98T2ywUaRrAAJuCKFoI2,call-function,77,1171138,0.0-7.0-2.5-0.5-4.5,,,,,,,5ef1bf65b681b07df6e7ef80,11:35:43 AM,1/15/2024
1577.1000000238419,"<p style=""font-size:3rem"">Trial 7 of 12</p><br><br><br>",0,fwdspan,start_trial,lklOM7Cu98T2ywUaRrAAJuCKFoI2,html-button-response,78,1172717,0.0-7.0-2.6-0.6-0.6,,,,,,,5ef1bf65b681b07df6e7ef80,11:35:43 AM,1/15/2024
,"<p style=""font-size:14rem;font-weight:400;"">5</p>",,fwdspan,number,lklOM7Cu98T2ywUaRrAAJuCKFoI2,html-keyboard-response,79,1173741,0.0-7.0-2.6-0.6-1.33-0.33,,,,,,,5ef1bf65b681b07df6e7ef80,11:35:43 AM,1/15/2024
,"<p style=""font-size:14rem;font-weight:400;"">8</p>",,fwdspan,number,lklOM7Cu98T2ywUaRrAAJuCKFoI2,html-keyboard-response,80,1174769,0.0-7.0-2.6-0.6-1.34-0.34,,,,,,,5ef1bf65b681b07df6e7ef80,11:35:43 AM,1/15/2024
,"<p style=""font-size:14rem;font-weight:400;"">7</p>",,fwdspan,number,lklOM7Cu98T2ywUaRrAAJuCKFoI2,html-keyboard-response,81,1175785,0.0-7.0-2.6-0.6-1.35-0.35,,,,,,,5ef1bf65b681b07df6e7ef80,11:35:43 AM,1/15/2024
,"<p style=""font-size:14rem;font-weight:400;"">3</p>",,fwdspan,number,lklOM7Cu98T2ywUaRrAAJuCKFoI2,html-keyboard-response,82,1176812,0.0-7.0-2.6-0.6-1.36-0.36,,,,,,,5ef1bf65b681b07df6e7ef80,11:35:43 AM,1/15/2024
,"<p style=""font-size:14rem;font-weight:400;"">4</p>",,fwdspan,number,lklOM7Cu98T2ywUaRrAAJuCKFoI2,html-keyboard-response,83,1177842,0.0-7.0-2.6-0.6-1.37-0.37,,,,,,,5ef1bf65b681b07df6e7ef80,11:35:43 AM,1/15/2024
,"<p style=""font-size:14rem;font-weight:400;"">2</p>",,fwdspan,number,lklOM7Cu98T2ywUaRrAAJuCKFoI2,html-keyboard-response,84,1178869,0.0-7.0-2.6-0.6-1.38-0.38,,,,,,,5ef1bf65b681b07df6e7ef80,11:35:43 AM,1/15/2024
,"<p style=""font-size:14rem;font-weight:400;"">9</p>",,fwdspan,number,lklOM7Cu98T2ywUaRrAAJuCKFoI2,html-keyboard-response,85,1179897,0.0-7.0-2.6-0.6-1.39-0.39,,,,,,,5ef1bf65b681b07df6e7ef80,11:35:43 AM,1/15/2024
,"<p style=""font-size:14rem;font-weight:400;"">1</p>",,fwdspan,number,lklOM7Cu98T2ywUaRrAAJuCKFoI2,html-keyboard-response,86,1180917,0.0-7.0-2.6-0.6-1.40-0.40,,,,,,,5ef1bf65b681b07df6e7ef80,11:35:43 AM,1/15/2024
,"<p style=""font-size:14rem;font-weight:400;"">6</p>",,fwdspan,number,lklOM7Cu98T2ywUaRrAAJuCKFoI2,html-keyboard-response,87,1181947,0.0-7.0-2.6-0.6-1.41-0.41,,,,,,,5ef1bf65b681b07df6e7ef80,11:35:43 AM,1/15/2024
,[],,fwdspan,delay,lklOM7Cu98T2ywUaRrAAJuCKFoI2,html-keyboard-response,88,1182527,0.0-7.0-2.6-0.6-2.6,,,,,,,5ef1bf65b681b07df6e7ef80,11:35:43 AM,1/15/2024
10711.699999988079,"<div class = numbox><p style=""font-size:2.5rem"">What were the numbers <b>in order</b>?<br>(When you are ready to lock in your answer, press <b>ENTER</b>)</p><button id = button_1 class = ""square num-button"" onclick = ""recordClick(this)""><div class = content><div class = numbers>1</div></div></button><button id = button_2 class = ""square num-button"" onclick = ""recordClick(this)""><div class = content><div class = numbers>2</div></div></button><button id = button_3 class = ""square num-button"" onclick = ""recordClick(this)""><div class = content><div class = numbers>3</div></div></button><button id = button_4 class = ""square num-button"" onclick = ""recordClick(this)""><div class = content><div class = numbers>4</div></div></button><button id = button_5 class = ""square num-button"" onclick = ""recordClick(this)""><div class = content><div class = numbers>5</div></div></button><button id = button_6 class = ""square num-button"" onclick = ""recordClick(this)""><div class = content><div class = numbers>6</div></div></button><button id = button_7 class = ""square num-button"" onclick = ""recordClick(this)""><div class = content><div class = numbers>7</div></div></button><button id = button_8 class = ""square num-button"" onclick = ""recordClick(this)""><div class = content><div class = numbers>8</div></div></button><button id = button_9 class = ""square num-button"" onclick = ""recordClick(this)""><div class = content><div class = numbers>9</div></div></button><button class = clear_button id = ""ClearButton"" onclick = ""clearResponse()"">Clear</button><p><u><b>Current Answer:</b></u></p><div id=echoed_txt style=""font-size: 6rem; color:blue;""><b></b></div></div><br><br><br><br><br><br><br>",enter,fwdspan,response,lklOM7Cu98T2ywUaRrAAJuCKFoI2,html-keyboard-response,89,1193241,0.0-7.0-2.6-0.6-3.6,9.0,"[5,8,1,3,6,2,9,1,8]","[5,8,7,3,4,2,9,1,6]",0.0,"[3, 4, 5, 6, 7, 8, 9, 9, 8, 8, 7, 7]",,5ef1bf65b681b07df6e7ef80,11:35:43 AM,1/15/2024
,,,fwdspan,update_span,lklOM7Cu98T2ywUaRrAAJuCKFoI2,call-function,90,1193509,0.0-7.0-2.6-0.6-4.6,,,,,,,5ef1bf65b681b07df6e7ef80,11:35:43 AM,1/15/2024
1448.4000000059605,"<p style=""font-size:3rem"">Trial 8 of 12</p><br><br><br>",0,fwdspan,start_trial,lklOM7Cu98T2ywUaRrAAJuCKFoI2,html-button-response,91,1194960,0.0-7.0-2.7-0.7-0.7,,,,,,,5ef1bf65b681b07df6e7ef80,11:35:43 AM,1/15/2024
,"<p style=""font-size:14rem;font-weight:400;"">2</p>",,fwdspan,number,lklOM7Cu98T2ywUaRrAAJuCKFoI2,html-keyboard-response,92,1195980,0.0-7.0-2.7-0.7-1.42-0.42,,,,,,,5ef1bf65b681b07df6e7ef80,11:35:43 AM,1/15/2024
,"<p style=""font-size:14rem;font-weight:400;"">1</p>",,fwdspan,number,lklOM7Cu98T2ywUaRrAAJuCKFoI2,html-keyboard-response,93,1196997,0.0-7.0-2.7-0.7-1.43-0.43,,,,,,,5ef1bf65b681b07df6e7ef80,11:35:43 AM,1/15/2024
,"<p style=""font-size:14rem;font-weight:400;"">4</p>",,fwdspan,number,lklOM7Cu98T2ywUaRrAAJuCKFoI2,html-keyboard-response,94,1198029,0.0-7.0-2.7-0.7-1.44-0.44,,,,,,,5ef1bf65b681b07df6e7ef80,11:35:43 AM,1/15/2024
,"<p style=""font-size:14rem;font-weight:400;"">8</p>",,fwdspan,number,lklOM7Cu98T2ywUaRrAAJuCKFoI2,html-keyboard-response,95,1199046,0.0-7.0-2.7-0.7-1.45-0.45,,,,,,,5ef1bf65b681b07df6e7ef80,11:35:43 AM,1/15/2024
,"<p style=""font-size:14rem;font-weight:400;"">7</p>",,fwdspan,number,lklOM7Cu98T2ywUaRrAAJuCKFoI2,html-keyboard-response,96,1200073,0.0-7.0-2.7-0.7-1.46-0.46,,,,,,,5ef1bf65b681b07df6e7ef80,11:35:43 AM,1/15/2024
,"<p style=""font-size:14rem;font-weight:400;"">3</p>",,fwdspan,number,lklOM7Cu98T2ywUaRrAAJuCKFoI2,html-keyboard-response,97,1201104,0.0-7.0-2.7-0.7-1.47-0.47,,,,,,,5ef1bf65b681b07df6e7ef80,11:35:43 AM,1/15/2024
,"<p style=""font-size:14rem;font-weight:400;"">5</p>",,fwdspan,number,lklOM7Cu98T2ywUaRrAAJuCKFoI2,html-keyboard-response,98,1202133,0.0-7.0-2.7-0.7-1.48-0.48,,,,,,,5ef1bf65b681b07df6e7ef80,11:35:43 AM,1/15/2024
,"<p style=""font-size:14rem;font-weight:400;"">9</p>",,fwdspan,number,lklOM7Cu98T2ywUaRrAAJuCKFoI2,html-keyboard-response,99,1203161,0.0-7.0-2.7-0.7-1.49-0.49,,,,,,,5ef1bf65b681b07df6e7ef80,11:35:43 AM,1/15/2024
,"<p style=""font-size:14rem;font-weight:400;"">6</p>",,fwdspan,number,lklOM7Cu98T2ywUaRrAAJuCKFoI2,html-keyboard-response,100,1204178,0.0-7.0-2.7-0.7-1.50-0.50,,,,,,,5ef1bf65b681b07df6e7ef80,11:35:43 AM,1/15/2024
,[],,fwdspan,delay,lklOM7Cu98T2ywUaRrAAJuCKFoI2,html-keyboard-response,101,1204756,0.0-7.0-2.7-0.7-2.7,,,,,,,5ef1bf65b681b07df6e7ef80,11:35:43 AM,1/15/2024
11011.300000011921,"<div class = numbox><p style=""font-size:2.5rem"">What were the numbers <b>in order</b>?<br>(When you are ready to lock in your answer, press <b>ENTER</b>)</p><button id = button_1 class = ""square num-button"" onclick = ""recordClick(this)""><div class = content><div class = numbers>1</div></div></button><button id = button_2 class = ""square num-button"" onclick = ""recordClick(this)""><div class = content><div class = numbers>2</div></div></button><button id = button_3 class = ""square num-button"" onclick = ""recordClick(this)""><div class = content><div class = numbers>3</div></div></button><button id = button_4 class = ""square num-button"" onclick = ""recordClick(this)""><div class = content><div class = numbers>4</div></div></button><button id = button_5 class = ""square num-button"" onclick = ""recordClick(this)""><div class = content><div class = numbers>5</div></div></button><button id = button_6 class = ""square num-button"" onclick = ""recordClick(this)""><div class = content><div class = numbers>6</div></div></button><button id = button_7 class = ""square num-button"" onclick = ""recordClick(this)""><div class = content><div class = numbers>7</div></div></button><button id = button_8 class = ""square num-button"" onclick = ""recordClick(this)""><div class = content><div class = numbers>8</div></div></button><button id = button_9 class = ""square num-button"" onclick = ""recordClick(this)""><div class = content><div class = numbers>9</div></div></button><button class = clear_button id = ""ClearButton"" onclick = ""clearResponse()"">Clear</button><p><u><b>Current Answer:</b></u></p><div id=echoed_txt style=""font-size: 6rem; color:blue;""><b></b></div></div><br><br><br><br><br><br><br>",enter,fwdspan,response,lklOM7Cu98T2ywUaRrAAJuCKFoI2,html-keyboard-response,102,1215768,0.0-7.0-2.7-0.7-3.7,9.0,"[2,1,4,8,7,6,5,9,3]","[2,1,4,8,7,3,5,9,6]",0.0,"[3, 4, 5, 6, 7, 8, 9, 9, 8, 8, 7, 7]",,5ef1bf65b681b07df6e7ef80,11:35:43 AM,1/15/2024
,,,fwdspan,update_span,lklOM7Cu98T2ywUaRrAAJuCKFoI2,call-function,103,1216035,0.0-7.0-2.7-0.7-4.7,,,,,,,5ef1bf65b681b07df6e7ef80,11:35:43 AM,1/15/2024
1732.8999999761581,"<p style=""font-size:3rem"">Trial 9 of 12</p><br><br><br>",0,fwdspan,start_trial,lklOM7Cu98T2ywUaRrAAJuCKFoI2,html-button-response,104,1217769,0.0-7.0-2.8-0.8-0.8,,,,,,,5ef1bf65b681b07df6e7ef80,11:35:43 AM,1/15/2024
,"<p style=""font-size:14rem;font-weight:400;"">3</p>",,fwdspan,number,lklOM7Cu98T2ywUaRrAAJuCKFoI2,html-keyboard-response,105,1218779,0.0-7.0-2.8-0.8-1.51-0.51,,,,,,,5ef1bf65b681b07df6e7ef80,11:35:43 AM,1/15/2024
,"<p style=""font-size:14rem;font-weight:400;"">9</p>",,fwdspan,number,lklOM7Cu98T2ywUaRrAAJuCKFoI2,html-keyboard-response,106,1219793,0.0-7.0-2.8-0.8-1.52-0.52,,,,,,,5ef1bf65b681b07df6e7ef80,11:35:43 AM,1/15/2024
,"<p style=""font-size:14rem;font-weight:400;"">6</p>",,fwdspan,number,lklOM7Cu98T2ywUaRrAAJuCKFoI2,html-keyboard-response,107,1220823,0.0-7.0-2.8-0.8-1.53-0.53,,,,,,,5ef1bf65b681b07df6e7ef80,11:35:43 AM,1/15/2024
,"<p style=""font-size:14rem;font-weight:400;"">1</p>",,fwdspan,number,lklOM7Cu98T2ywUaRrAAJuCKFoI2,html-keyboard-response,108,1221851,0.0-7.0-2.8-0.8-1.54-0.54,,,,,,,5ef1bf65b681b07df6e7ef80,11:35:43 AM,1/15/2024
,"<p style=""font-size:14rem;font-weight:400;"">4</p>",,fwdspan,number,lklOM7Cu98T2ywUaRrAAJuCKFoI2,html-keyboard-response,109,1222865,0.0-7.0-2.8-0.8-1.55-0.55,,,,,,,5ef1bf65b681b07df6e7ef80,11:35:43 AM,1/15/2024
,"<p style=""font-size:14rem;font-weight:400;"">7</p>",,fwdspan,number,lklOM7Cu98T2ywUaRrAAJuCKFoI2,html-keyboard-response,110,1223869,0.0-7.0-2.8-0.8-1.56-0.56,,,,,,,5ef1bf65b681b07df6e7ef80,11:35:43 AM,1/15/2024
,"<p style=""font-size:14rem;font-weight:400;"">2</p>",,fwdspan,number,lklOM7Cu98T2ywUaRrAAJuCKFoI2,html-keyboard-response,111,1224898,0.0-7.0-2.8-0.8-1.57-0.57,,,,,,,5ef1bf65b681b07df6e7ef80,11:35:43 AM,1/15/2024
,"<p style=""font-size:14rem;font-weight:400;"">8</p>",,fwdspan,number,lklOM7Cu98T2ywUaRrAAJuCKFoI2,html-keyboard-response,112,1225916,0.0-7.0-2.8-0.8-1.58-0.58,,,,,,,5ef1bf65b681b07df6e7ef80,11:35:43 AM,1/15/2024
,[],,fwdspan,delay,lklOM7Cu98T2ywUaRrAAJuCKFoI2,html-keyboard-response,113,1226481,0.0-7.0-2.8-0.8-2.8,,,,,,,5ef1bf65b681b07df6e7ef80,11:35:43 AM,1/15/2024
10412.90000000596,"<div class = numbox><p style=""font-size:2.5rem"">What were the numbers <b>in order</b>?<br>(When you are ready to lock in your answer, press <b>ENTER</b>)</p><button id = button_1 class = ""square num-button"" onclick = ""recordClick(this)""><div class = content><div class = numbers>1</div></div></button><button id = button_2 class = ""square num-button"" onclick = ""recordClick(this)""><div class = content><div class = numbers>2</div></div></button><button id = button_3 class = ""square num-button"" onclick = ""recordClick(this)""><div class = content><div class = numbers>3</div></div></button><button id = button_4 class = ""square num-button"" onclick = ""recordClick(this)""><div class = content><div class = numbers>4</div></div></button><button id = button_5 class = ""square num-button"" onclick = ""recordClick(this)""><div class = content><div class = numbers>5</div></div></button><button id = button_6 class = ""square num-button"" onclick = ""recordClick(this)""><div class = content><div class = numbers>6</div></div></button><button id = button_7 class = ""square num-button"" onclick = ""recordClick(this)""><div class = content><div class = numbers>7</div></div></button><button id = button_8 class = ""square num-button"" onclick = ""recordClick(this)""><div class = content><div class = numbers>8</div></div></button><button id = button_9 class = ""square num-button"" onclick = ""recordClick(this)""><div class = content><div class = numbers>9</div></div></button><button class = clear_button id = ""ClearButton"" onclick = ""clearResponse()"">Clear</button><p><u><b>Current Answer:</b></u></p><div id=echoed_txt style=""font-size: 6rem; color:blue;""><b></b></div></div><br><br><br><br><br><br><br>",enter,fwdspan,response,lklOM7Cu98T2ywUaRrAAJuCKFoI2,html-keyboard-response,114,1236895,0.0-7.0-2.8-0.8-3.8,8.0,"[3,9,6,1,4,1,2,6]","[3,9,6,1,4,7,2,8]",0.0,"[3, 4, 5, 6, 7, 8, 9, 9, 8, 8, 7, 7]",,5ef1bf65b681b07df6e7ef80,11:35:43 AM,1/15/2024
,,,fwdspan,update_span,lklOM7Cu98T2ywUaRrAAJuCKFoI2,call-function,115,1237154,0.0-7.0-2.8-0.8-4.8,,,,,,,5ef1bf65b681b07df6e7ef80,11:35:43 AM,1/15/2024
1508.800000011921,"<p style=""font-size:3rem"">Trial 10 of 12</p><br><br><br>",0,fwdspan,start_trial,lklOM7Cu98T2ywUaRrAAJuCKFoI2,html-button-response,116,1238664,0.0-7.0-2.9-0.9-0.9,,,,,,,5ef1bf65b681b07df6e7ef80,11:35:43 AM,1/15/2024
,"<p style=""font-size:14rem;font-weight:400;"">3</p>",,fwdspan,number,lklOM7Cu98T2ywUaRrAAJuCKFoI2,html-keyboard-response,117,1239680,0.0-7.0-2.9-0.9-1.59-0.59,,,,,,,5ef1bf65b681b07df6e7ef80,11:35:43 AM,1/15/2024
,"<p style=""font-size:14rem;font-weight:400;"">1</p>",,fwdspan,number,lklOM7Cu98T2ywUaRrAAJuCKFoI2,html-keyboard-response,118,1240707,0.0-7.0-2.9-0.9-1.60-0.60,,,,,,,5ef1bf65b681b07df6e7ef80,11:35:43 AM,1/15/2024
,"<p style=""font-size:14rem;font-weight:400;"">4</p>",,fwdspan,number,lklOM7Cu98T2ywUaRrAAJuCKFoI2,html-keyboard-response,119,1241734,0.0-7.0-2.9-0.9-1.61-0.61,,,,,,,5ef1bf65b681b07df6e7ef80,11:35:43 AM,1/15/2024
,"<p style=""font-size:14rem;font-weight:400;"">5</p>",,fwdspan,number,lklOM7Cu98T2ywUaRrAAJuCKFoI2,html-keyboard-response,120,1242746,0.0-7.0-2.9-0.9-1.62-0.62,,,,,,,5ef1bf65b681b07df6e7ef80,11:35:43 AM,1/15/2024
,"<p style=""font-size:14rem;font-weight:400;"">8</p>",,fwdspan,number,lklOM7Cu98T2ywUaRrAAJuCKFoI2,html-keyboard-response,121,1243776,0.0-7.0-2.9-0.9-1.63-0.63,,,,,,,5ef1bf65b681b07df6e7ef80,11:35:43 AM,1/15/2024
,"<p style=""font-size:14rem;font-weight:400;"">7</p>",,fwdspan,number,lklOM7Cu98T2ywUaRrAAJuCKFoI2,html-keyboard-response,122,1244805,0.0-7.0-2.9-0.9-1.64-0.64,,,,,,,5ef1bf65b681b07df6e7ef80,11:35:43 AM,1/15/2024
,"<p style=""font-size:14rem;font-weight:400;"">2</p>",,fwdspan,number,lklOM7Cu98T2ywUaRrAAJuCKFoI2,html-keyboard-response,123,1245821,0.0-7.0-2.9-0.9-1.65-0.65,,,,,,,5ef1bf65b681b07df6e7ef80,11:35:43 AM,1/15/2024
,"<p style=""font-size:14rem;font-weight:400;"">6</p>",,fwdspan,number,lklOM7Cu98T2ywUaRrAAJuCKFoI2,html-keyboard-response,124,1246838,0.0-7.0-2.9-0.9-1.66-0.66,,,,,,,5ef1bf65b681b07df6e7ef80,11:35:43 AM,1/15/2024
,[],,fwdspan,delay,lklOM7Cu98T2ywUaRrAAJuCKFoI2,html-keyboard-response,125,1247415,0.0-7.0-2.9-0.9-2.9,,,,,,,5ef1bf65b681b07df6e7ef80,11:35:43 AM,1/15/2024
10069.699999988079,"<div class = numbox><p style=""font-size:2.5rem"">What were the numbers <b>in order</b>?<br>(When you are ready to lock in your answer, press <b>ENTER</b>)</p><button id = button_1 class = ""square num-button"" onclick = ""recordClick(this)""><div class = content><div class = numbers>1</div></div></button><button id = button_2 class = ""square num-button"" onclick = ""recordClick(this)""><div class = content><div class = numbers>2</div></div></button><button id = button_3 class = ""square num-button"" onclick = ""recordClick(this)""><div class = content><div class = numbers>3</div></div></button><button id = button_4 class = ""square num-button"" onclick = ""recordClick(this)""><div class = content><div class = numbers>4</div></div></button><button id = button_5 class = ""square num-button"" onclick = ""recordClick(this)""><div class = content><div class = numbers>5</div></div></button><button id = button_6 class = ""square num-button"" onclick = ""recordClick(this)""><div class = content><div class = numbers>6</div></div></button><button id = button_7 class = ""square num-button"" onclick = ""recordClick(this)""><div class = content><div class = numbers>7</div></div></button><button id = button_8 class = ""square num-button"" onclick = ""recordClick(this)""><div class = content><div class = numbers>8</div></div></button><button id = button_9 class = ""square num-button"" onclick = ""recordClick(this)""><div class = content><div class = numbers>9</div></div></button><button class = clear_button id = ""ClearButton"" onclick = ""clearResponse()"">Clear</button><p><u><b>Current Answer:</b></u></p><div id=echoed_txt style=""font-size: 6rem; color:blue;""><b></b></div></div><br><br><br><br><br><br><br>",enter,fwdspan,response,lklOM7Cu98T2ywUaRrAAJuCKFoI2,html-keyboard-response,126,1257487,0.0-7.0-2.9-0.9-3.9,8.0,"[3,1,4,5,9,6,2,6]","[3,1,4,5,8,7,2,6]",0.0,"[3, 4, 5, 6, 7, 8, 9, 9, 8, 8, 7, 7]",,5ef1bf65b681b07df6e7ef80,11:35:43 AM,1/15/2024
,,,fwdspan,update_span,lklOM7Cu98T2ywUaRrAAJuCKFoI2,call-function,127,1257741,0.0-7.0-2.9-0.9-4.9,,,,,,,5ef1bf65b681b07df6e7ef80,11:35:43 AM,1/15/2024
1211.4000000059605,"<p style=""font-size:3rem"">Trial 11 of 12</p><br><br><br>",0,fwdspan,start_trial,lklOM7Cu98T2ywUaRrAAJuCKFoI2,html-button-response,128,1258955,0.0-7.0-2.10-0.10-0.10,,,,,,,5ef1bf65b681b07df6e7ef80,11:35:43 AM,1/15/2024
,"<p style=""font-size:14rem;font-weight:400;"">1</p>",,fwdspan,number,lklOM7Cu98T2ywUaRrAAJuCKFoI2,html-keyboard-response,129,1259976,0.0-7.0-2.10-0.10-1.67-0.67,,,,,,,5ef1bf65b681b07df6e7ef80,11:35:43 AM,1/15/2024
,"<p style=""font-size:14rem;font-weight:400;"">6</p>",,fwdspan,number,lklOM7Cu98T2ywUaRrAAJuCKFoI2,html-keyboard-response,130,1260990,0.0-7.0-2.10-0.10-1.68-0.68,,,,,,,5ef1bf65b681b07df6e7ef80,11:35:43 AM,1/15/2024
,"<p style=""font-size:14rem;font-weight:400;"">9</p>",,fwdspan,number,lklOM7Cu98T2ywUaRrAAJuCKFoI2,html-keyboard-response,131,1262018,0.0-7.0-2.10-0.10-1.69-0.69,,,,,,,5ef1bf65b681b07df6e7ef80,11:35:43 AM,1/15/2024
,"<p style=""font-size:14rem;font-weight:400;"">8</p>",,fwdspan,number,lklOM7Cu98T2ywUaRrAAJuCKFoI2,html-keyboard-response,132,1263048,0.0-7.0-2.10-0.10-1.70-0.70,,,,,,,5ef1bf65b681b07df6e7ef80,11:35:43 AM,1/15/2024
,"<p style=""font-size:14rem;font-weight:400;"">4</p>",,fwdspan,number,lklOM7Cu98T2ywUaRrAAJuCKFoI2,html-keyboard-response,133,1264058,0.0-7.0-2.10-0.10-1.71-0.71,,,,,,,5ef1bf65b681b07df6e7ef80,11:35:43 AM,1/15/2024
,"<p style=""font-size:14rem;font-weight:400;"">7</p>",,fwdspan,number,lklOM7Cu98T2ywUaRrAAJuCKFoI2,html-keyboard-response,134,1265073,0.0-7.0-2.10-0.10-1.72-0.72,,,,,,,5ef1bf65b681b07df6e7ef80,11:35:43 AM,1/15/2024
,"<p style=""font-size:14rem;font-weight:400;"">3</p>",,fwdspan,number,lklOM7Cu98T2ywUaRrAAJuCKFoI2,html-keyboard-response,135,1266101,0.0-7.0-2.10-0.10-1.73-0.73,,,,,,,5ef1bf65b681b07df6e7ef80,11:35:43 AM,1/15/2024
,[],,fwdspan,delay,lklOM7Cu98T2ywUaRrAAJuCKFoI2,html-keyboard-response,136,1266667,0.0-7.0-2.10-0.10-2.10,,,,,,,5ef1bf65b681b07df6e7ef80,11:35:43 AM,1/15/2024
8606.800000011921,"<div class = numbox><p style=""font-size:2.5rem"">What were the numbers <b>in order</b>?<br>(When you are ready to lock in your answer, press <b>ENTER</b>)</p><button id = button_1 class = ""square num-button"" onclick = ""recordClick(this)""><div class = content><div class = numbers>1</div></div></button><button id = button_2 class = ""square num-button"" onclick = ""recordClick(this)""><div class = content><div class = numbers>2</div></div></button><button id = button_3 class = ""square num-button"" onclick = ""recordClick(this)""><div class = content><div class = numbers>3</div></div></button><button id = button_4 class = ""square num-button"" onclick = ""recordClick(this)""><div class = content><div class = numbers>4</div></div></button><button id = button_5 class = ""square num-button"" onclick = ""recordClick(this)""><div class = content><div class = numbers>5</div></div></button><button id = button_6 class = ""square num-button"" onclick = ""recordClick(this)""><div class = content><div class = numbers>6</div></div></button><button id = button_7 class = ""square num-button"" onclick = ""recordClick(this)""><div class = content><div class = numbers>7</div></div></button><button id = button_8 class = ""square num-button"" onclick = ""recordClick(this)""><div class = content><div class = numbers>8</div></div></button><button id = button_9 class = ""square num-button"" onclick = ""recordClick(this)""><div class = content><div class = numbers>9</div></div></button><button class = clear_button id = ""ClearButton"" onclick = ""clearResponse()"">Clear</button><p><u><b>Current Answer:</b></u></p><div id=echoed_txt style=""font-size: 6rem; color:blue;""><b></b></div></div><br><br><br><br><br><br><br>",enter,fwdspan,response,lklOM7Cu98T2ywUaRrAAJuCKFoI2,html-keyboard-response,137,1275274,0.0-7.0-2.10-0.10-3.10,7.0,"[1,6,9,8,4,3,6]","[1,6,9,8,4,7,3]",0.0,"[3, 4, 5, 6, 7, 8, 9, 9, 8, 8, 7, 7]",,5ef1bf65b681b07df6e7ef80,11:35:43 AM,1/15/2024
,,,fwdspan,update_span,lklOM7Cu98T2ywUaRrAAJuCKFoI2,call-function,138,1275530,0.0-7.0-2.10-0.10-4.10,,,,,,,5ef1bf65b681b07df6e7ef80,11:35:43 AM,1/15/2024
1493.2000000178814,"<p style=""font-size:3rem"">Trial 12 of 12</p><br><br><br>",0,fwdspan,start_trial,lklOM7Cu98T2ywUaRrAAJuCKFoI2,html-button-response,139,1277024,0.0-7.0-2.11-0.11-0.11,,,,,,,5ef1bf65b681b07df6e7ef80,11:35:43 AM,1/15/2024
,"<p style=""font-size:14rem;font-weight:400;"">4</p>",,fwdspan,number,lklOM7Cu98T2ywUaRrAAJuCKFoI2,html-keyboard-response,140,1278027,0.0-7.0-2.11-0.11-1.74-0.74,,,,,,,5ef1bf65b681b07df6e7ef80,11:35:43 AM,1/15/2024
,"<p style=""font-size:14rem;font-weight:400;"">8</p>",,fwdspan,number,lklOM7Cu98T2ywUaRrAAJuCKFoI2,html-keyboard-response,141,1279057,0.0-7.0-2.11-0.11-1.75-0.75,,,,,,,5ef1bf65b681b07df6e7ef80,11:35:43 AM,1/15/2024
,"<p style=""font-size:14rem;font-weight:400;"">3</p>",,fwdspan,number,lklOM7Cu98T2ywUaRrAAJuCKFoI2,html-keyboard-response,142,1280073,0.0-7.0-2.11-0.11-1.76-0.76,,,,,,,5ef1bf65b681b07df6e7ef80,11:35:43 AM,1/15/2024
,"<p style=""font-size:14rem;font-weight:400;"">5</p>",,fwdspan,number,lklOM7Cu98T2ywUaRrAAJuCKFoI2,html-keyboard-response,143,1281089,0.0-7.0-2.11-0.11-1.77-0.77,,,,,,,5ef1bf65b681b07df6e7ef80,11:35:43 AM,1/15/2024
,"<p style=""font-size:14rem;font-weight:400;"">2</p>",,fwdspan,number,lklOM7Cu98T2ywUaRrAAJuCKFoI2,html-keyboard-response,144,1282103,0.0-7.0-2.11-0.11-1.78-0.78,,,,,,,5ef1bf65b681b07df6e7ef80,11:35:43 AM,1/15/2024
,"<p style=""font-size:14rem;font-weight:400;"">7</p>",,fwdspan,number,lklOM7Cu98T2ywUaRrAAJuCKFoI2,html-keyboard-response,145,1283133,0.0-7.0-2.11-0.11-1.79-0.79,,,,,,,5ef1bf65b681b07df6e7ef80,11:35:43 AM,1/15/2024
,"<p style=""font-size:14rem;font-weight:400;"">1</p>",,fwdspan,number,lklOM7Cu98T2ywUaRrAAJuCKFoI2,html-keyboard-response,146,1284150,0.0-7.0-2.11-0.11-1.80-0.80,,,,,,,5ef1bf65b681b07df6e7ef80,11:35:43 AM,1/15/2024
,[],,fwdspan,delay,lklOM7Cu98T2ywUaRrAAJuCKFoI2,html-keyboard-response,147,1284716,0.0-7.0-2.11-0.11-2.11,,,,,,,5ef1bf65b681b07df6e7ef80,11:35:43 AM,1/15/2024
8116.699999988079,"<div class = numbox><p style=""font-size:2.5rem"">What were the numbers <b>in order</b>?<br>(When you are ready to lock in your answer, press <b>ENTER</b>)</p><button id = button_1 class = ""square num-button"" onclick = ""recordClick(this)""><div class = content><div class = numbers>1</div></div></button><button id = button_2 class = ""square num-button"" onclick = ""recordClick(this)""><div class = content><div class = numbers>2</div></div></button><button id = button_3 class = ""square num-button"" onclick = ""recordClick(this)""><div class = content><div class = numbers>3</div></div></button><button id = button_4 class = ""square num-button"" onclick = ""recordClick(this)""><div class = content><div class = numbers>4</div></div></button><button id = button_5 class = ""square num-button"" onclick = ""recordClick(this)""><div class = content><div class = numbers>5</div></div></button><button id = button_6 class = ""square num-button"" onclick = ""recordClick(this)""><div class = content><div class = numbers>6</div></div></button><button id = button_7 class = ""square num-button"" onclick = ""recordClick(this)""><div class = content><div class = numbers>7</div></div></button><button id = button_8 class = ""square num-button"" onclick = ""recordClick(this)""><div class = content><div class = numbers>8</div></div></button><button id = button_9 class = ""square num-button"" onclick = ""recordClick(this)""><div class = content><div class = numbers>9</div></div></button><button class = clear_button id = ""ClearButton"" onclick = ""clearResponse()"">Clear</button><p><u><b>Current Answer:</b></u></p><div id=echoed_txt style=""font-size: 6rem; color:blue;""><b></b></div></div><br><br><br><br><br><br><br>",enter,fwdspan,response,lklOM7Cu98T2ywUaRrAAJuCKFoI2,html-keyboard-response,148,1292834,0.0-7.0-2.11-0.11-3.11,7.0,"[4,8,3,5,2,7,1]","[4,8,3,5,2,7,1]",1.0,"[3, 4, 5, 6, 7, 8, 9, 9, 8, 8, 7, 7]",,5ef1bf65b681b07df6e7ef80,11:35:43 AM,1/15/2024
,,,fwdspan,update_span,lklOM7Cu98T2ywUaRrAAJuCKFoI2,call-function,149,1293089,0.0-7.0-2.11-0.11-4.11,,,,,,,5ef1bf65b681b07df6e7ef80,11:35:43 AM,1/15/2024
27480.90000000596,,{'Q0': 'I enjoyed the number task but found the numbers moved on quite quickly.'},fwdspan,survey,lklOM7Cu98T2ywUaRrAAJuCKFoI2,lmdlab-survey-text,150,1321329,0.0-7.0-3.0,,,,,,lklOM7Cu98T2ywUaRrAAJuCKFoI2,5ef1bf65b681b07df6e7ef80,11:35:43 AM,1/15/2024
1397.5999999940395,<p><p style='font-size: 3rem'>Great work!<br><br>This completes the digit span task.</p><br><br><br>,0,fwdspan,finish,lklOM7Cu98T2ywUaRrAAJuCKFoI2,html-button-response,151,1322731,0.0-7.0-4.0,,,,,,,5ef1bf65b681b07df6e7ef80,11:35:43 AM,1/15/2024
