rt,stimulus,response,exp_name,exp_stage,subjectID,trial_type,trial_index,time_elapsed,internal_node_id,span,answer,correct,correct_full,span_history,databaseID,prolificID,start_time,date
3135.0,"<p style=""font-size:4rem""><br><br>In the next part today, we have a completely different short task.<br><br><br>This part involves keeping numbers in you mind. Participation takes around 5 minutes.<br><br><br></p>",0,fwdspan,instruct,1ABfEPNehdbP4SBSEFdHCdJqdF32,html-button-response,19,652933,0.0-7.0-0.0,,,,,,,6131f6711c0d96f6f1fb04af,11:25:07 AM,1/15/2024
17471.0,"<p style=""font-size:5rem"">Welcome to the <b>digit span task</b>!<br><br></p><p style=""font-size:3.4rem""><br>On each trial, you will see a sequence of digits, followed by a delay.</p><p style=""font-size:3.4rem""><br>Then you will be asked to type them back in the same order in which they were seen.</p><p style=""font-size:3.4rem""><br><br><br>For example, if you saw the digits <b style=""color:blue;"">1</b>, <b style=""color:blue;"">2</b>, <b style=""color:blue;"">3</b>, you would respond with <b style=""color:blue;"">1</b>, <b style=""color:blue;"">2</b>, <b style=""color:blue;"">3</b></p><p style=""font-size:3.4rem""><br><br><br>To ensure the best measure of true performance for our study,<br><br>it is very important that you do not use any memory aid (e.g., pen and paper).<br><br>Please do the task solely in your head.</p><p style=""font-size:3.4rem""><br><br><br>There will be 12 total trials. Participation takes around 5 minutes.</p><br><br><br>",0,fwdspan,instruct,1ABfEPNehdbP4SBSEFdHCdJqdF32,html-button-response,20,670405,0.0-7.0-1.0,,,,,,,6131f6711c0d96f6f1fb04af,11:25:07 AM,1/15/2024
3681.0,"<p style=""font-size:3rem"">Trial 1 of 12</p><br><br><br>",0,fwdspan,start_trial,1ABfEPNehdbP4SBSEFdHCdJqdF32,html-button-response,21,674089,0.0-7.0-2.0-0.0-0.0,,,,,,,6131f6711c0d96f6f1fb04af,11:25:07 AM,1/15/2024
,"<p style=""font-size:14rem;font-weight:400;"">8</p>",,fwdspan,number,1ABfEPNehdbP4SBSEFdHCdJqdF32,html-keyboard-response,22,675116,0.0-7.0-2.0-0.0-1.0-0.0,,,,,,,6131f6711c0d96f6f1fb04af,11:25:07 AM,1/15/2024
,"<p style=""font-size:14rem;font-weight:400;"">5</p>",,fwdspan,number,1ABfEPNehdbP4SBSEFdHCdJqdF32,html-keyboard-response,23,676120,0.0-7.0-2.0-0.0-1.1-0.1,,,,,,,6131f6711c0d96f6f1fb04af,11:25:07 AM,1/15/2024
,"<p style=""font-size:14rem;font-weight:400;"">3</p>",,fwdspan,number,1ABfEPNehdbP4SBSEFdHCdJqdF32,html-keyboard-response,24,677137,0.0-7.0-2.0-0.0-1.2-0.2,,,,,,,6131f6711c0d96f6f1fb04af,11:25:07 AM,1/15/2024
,[],,fwdspan,delay,1ABfEPNehdbP4SBSEFdHCdJqdF32,html-keyboard-response,25,677704,0.0-7.0-2.0-0.0-2.0,,,,,,,6131f6711c0d96f6f1fb04af,11:25:07 AM,1/15/2024
7548.0,"<div class = numbox><p style=""font-size:2.5rem"">What were the numbers <b>in order</b>?<br>(When you are ready to lock in your answer, press <b>ENTER</b>)</p><button id = button_1 class = ""square num-button"" onclick = ""recordClick(this)""><div class = content><div class = numbers>1</div></div></button><button id = button_2 class = ""square num-button"" onclick = ""recordClick(this)""><div class = content><div class = numbers>2</div></div></button><button id = button_3 class = ""square num-button"" onclick = ""recordClick(this)""><div class = content><div class = numbers>3</div></div></button><button id = button_4 class = ""square num-button"" onclick = ""recordClick(this)""><div class = content><div class = numbers>4</div></div></button><button id = button_5 class = ""square num-button"" onclick = ""recordClick(this)""><div class = content><div class = numbers>5</div></div></button><button id = button_6 class = ""square num-button"" onclick = ""recordClick(this)""><div class = content><div class = numbers>6</div></div></button><button id = button_7 class = ""square num-button"" onclick = ""recordClick(this)""><div class = content><div class = numbers>7</div></div></button><button id = button_8 class = ""square num-button"" onclick = ""recordClick(this)""><div class = content><div class = numbers>8</div></div></button><button id = button_9 class = ""square num-button"" onclick = ""recordClick(this)""><div class = content><div class = numbers>9</div></div></button><button class = clear_button id = ""ClearButton"" onclick = ""clearResponse()"">Clear</button><p><u><b>Current Answer:</b></u></p><div id=echoed_txt style=""font-size: 6rem; color:blue;""><b></b></div></div><br><br><br><br><br><br><br>",enter,fwdspan,response,1ABfEPNehdbP4SBSEFdHCdJqdF32,html-keyboard-response,26,685253,0.0-7.0-2.0-0.0-3.0,3.0,"[8,5,3]","[8,5,3]",1.0,"[3, 4, 5, 6, 7, 7, 8, 8, 7, 7, 6, 7]",,6131f6711c0d96f6f1fb04af,11:25:07 AM,1/15/2024
,,,fwdspan,update_span,1ABfEPNehdbP4SBSEFdHCdJqdF32,call-function,27,685511,0.0-7.0-2.0-0.0-4.0,,,,,,,6131f6711c0d96f6f1fb04af,11:25:07 AM,1/15/2024
3922.0,"<p style=""font-size:3rem"">Trial 2 of 12</p><br><br><br>",0,fwdspan,start_trial,1ABfEPNehdbP4SBSEFdHCdJqdF32,html-button-response,28,689434,0.0-7.0-2.1-0.1-0.1,,,,,,,6131f6711c0d96f6f1fb04af,11:25:07 AM,1/15/2024
,"<p style=""font-size:14rem;font-weight:400;"">2</p>",,fwdspan,number,1ABfEPNehdbP4SBSEFdHCdJqdF32,html-keyboard-response,29,690463,0.0-7.0-2.1-0.1-1.3-0.3,,,,,,,6131f6711c0d96f6f1fb04af,11:25:07 AM,1/15/2024
,"<p style=""font-size:14rem;font-weight:400;"">8</p>",,fwdspan,number,1ABfEPNehdbP4SBSEFdHCdJqdF32,html-keyboard-response,30,691523,0.0-7.0-2.1-0.1-1.4-0.4,,,,,,,6131f6711c0d96f6f1fb04af,11:25:07 AM,1/15/2024
,"<p style=""font-size:14rem;font-weight:400;"">5</p>",,fwdspan,number,1ABfEPNehdbP4SBSEFdHCdJqdF32,html-keyboard-response,31,692527,0.0-7.0-2.1-0.1-1.5-0.5,,,,,,,6131f6711c0d96f6f1fb04af,11:25:07 AM,1/15/2024
,"<p style=""font-size:14rem;font-weight:400;"">7</p>",,fwdspan,number,1ABfEPNehdbP4SBSEFdHCdJqdF32,html-keyboard-response,32,693546,0.0-7.0-2.1-0.1-1.6-0.6,,,,,,,6131f6711c0d96f6f1fb04af,11:25:07 AM,1/15/2024
,[],,fwdspan,delay,1ABfEPNehdbP4SBSEFdHCdJqdF32,html-keyboard-response,33,694121,0.0-7.0-2.1-0.1-2.1,,,,,,,6131f6711c0d96f6f1fb04af,11:25:07 AM,1/15/2024
5465.0,"<div class = numbox><p style=""font-size:2.5rem"">What were the numbers <b>in order</b>?<br>(When you are ready to lock in your answer, press <b>ENTER</b>)</p><button id = button_1 class = ""square num-button"" onclick = ""recordClick(this)""><div class = content><div class = numbers>1</div></div></button><button id = button_2 class = ""square num-button"" onclick = ""recordClick(this)""><div class = content><div class = numbers>2</div></div></button><button id = button_3 class = ""square num-button"" onclick = ""recordClick(this)""><div class = content><div class = numbers>3</div></div></button><button id = button_4 class = ""square num-button"" onclick = ""recordClick(this)""><div class = content><div class = numbers>4</div></div></button><button id = button_5 class = ""square num-button"" onclick = ""recordClick(this)""><div class = content><div class = numbers>5</div></div></button><button id = button_6 class = ""square num-button"" onclick = ""recordClick(this)""><div class = content><div class = numbers>6</div></div></button><button id = button_7 class = ""square num-button"" onclick = ""recordClick(this)""><div class = content><div class = numbers>7</div></div></button><button id = button_8 class = ""square num-button"" onclick = ""recordClick(this)""><div class = content><div class = numbers>8</div></div></button><button id = button_9 class = ""square num-button"" onclick = ""recordClick(this)""><div class = content><div class = numbers>9</div></div></button><button class = clear_button id = ""ClearButton"" onclick = ""clearResponse()"">Clear</button><p><u><b>Current Answer:</b></u></p><div id=echoed_txt style=""font-size: 6rem; color:blue;""><b></b></div></div><br><br><br><br><br><br><br>",enter,fwdspan,response,1ABfEPNehdbP4SBSEFdHCdJqdF32,html-keyboard-response,34,699588,0.0-7.0-2.1-0.1-3.1,4.0,"[2,8,5,7]","[2,8,5,7]",1.0,"[3, 4, 5, 6, 7, 7, 8, 8, 7, 7, 6, 7]",,6131f6711c0d96f6f1fb04af,11:25:07 AM,1/15/2024
,,,fwdspan,update_span,1ABfEPNehdbP4SBSEFdHCdJqdF32,call-function,35,699850,0.0-7.0-2.1-0.1-4.1,,,,,,,6131f6711c0d96f6f1fb04af,11:25:07 AM,1/15/2024
1295.0,"<p style=""font-size:3rem"">Trial 3 of 12</p><br><br><br>",0,fwdspan,start_trial,1ABfEPNehdbP4SBSEFdHCdJqdF32,html-button-response,36,701146,0.0-7.0-2.2-0.2-0.2,,,,,,,6131f6711c0d96f6f1fb04af,11:25:07 AM,1/15/2024
,"<p style=""font-size:14rem;font-weight:400;"">9</p>",,fwdspan,number,1ABfEPNehdbP4SBSEFdHCdJqdF32,html-keyboard-response,37,702173,0.0-7.0-2.2-0.2-1.7-0.7,,,,,,,6131f6711c0d96f6f1fb04af,11:25:07 AM,1/15/2024
,"<p style=""font-size:14rem;font-weight:400;"">2</p>",,fwdspan,number,1ABfEPNehdbP4SBSEFdHCdJqdF32,html-keyboard-response,38,703204,0.0-7.0-2.2-0.2-1.8-0.8,,,,,,,6131f6711c0d96f6f1fb04af,11:25:07 AM,1/15/2024
,"<p style=""font-size:14rem;font-weight:400;"">5</p>",,fwdspan,number,1ABfEPNehdbP4SBSEFdHCdJqdF32,html-keyboard-response,39,704232,0.0-7.0-2.2-0.2-1.9-0.9,,,,,,,6131f6711c0d96f6f1fb04af,11:25:07 AM,1/15/2024
,"<p style=""font-size:14rem;font-weight:400;"">4</p>",,fwdspan,number,1ABfEPNehdbP4SBSEFdHCdJqdF32,html-keyboard-response,40,705266,0.0-7.0-2.2-0.2-1.10-0.10,,,,,,,6131f6711c0d96f6f1fb04af,11:25:07 AM,1/15/2024
,"<p style=""font-size:14rem;font-weight:400;"">6</p>",,fwdspan,number,1ABfEPNehdbP4SBSEFdHCdJqdF32,html-keyboard-response,41,706297,0.0-7.0-2.2-0.2-1.11-0.11,,,,,,,6131f6711c0d96f6f1fb04af,11:25:07 AM,1/15/2024
,[],,fwdspan,delay,1ABfEPNehdbP4SBSEFdHCdJqdF32,html-keyboard-response,42,706874,0.0-7.0-2.2-0.2-2.2,,,,,,,6131f6711c0d96f6f1fb04af,11:25:07 AM,1/15/2024
4817.0,"<div class = numbox><p style=""font-size:2.5rem"">What were the numbers <b>in order</b>?<br>(When you are ready to lock in your answer, press <b>ENTER</b>)</p><button id = button_1 class = ""square num-button"" onclick = ""recordClick(this)""><div class = content><div class = numbers>1</div></div></button><button id = button_2 class = ""square num-button"" onclick = ""recordClick(this)""><div class = content><div class = numbers>2</div></div></button><button id = button_3 class = ""square num-button"" onclick = ""recordClick(this)""><div class = content><div class = numbers>3</div></div></button><button id = button_4 class = ""square num-button"" onclick = ""recordClick(this)""><div class = content><div class = numbers>4</div></div></button><button id = button_5 class = ""square num-button"" onclick = ""recordClick(this)""><div class = content><div class = numbers>5</div></div></button><button id = button_6 class = ""square num-button"" onclick = ""recordClick(this)""><div class = content><div class = numbers>6</div></div></button><button id = button_7 class = ""square num-button"" onclick = ""recordClick(this)""><div class = content><div class = numbers>7</div></div></button><button id = button_8 class = ""square num-button"" onclick = ""recordClick(this)""><div class = content><div class = numbers>8</div></div></button><button id = button_9 class = ""square num-button"" onclick = ""recordClick(this)""><div class = content><div class = numbers>9</div></div></button><button class = clear_button id = ""ClearButton"" onclick = ""clearResponse()"">Clear</button><p><u><b>Current Answer:</b></u></p><div id=echoed_txt style=""font-size: 6rem; color:blue;""><b></b></div></div><br><br><br><br><br><br><br>",enter,fwdspan,response,1ABfEPNehdbP4SBSEFdHCdJqdF32,html-keyboard-response,43,711692,0.0-7.0-2.2-0.2-3.2,5.0,"[9,2,5,4,6]","[9,2,5,4,6]",1.0,"[3, 4, 5, 6, 7, 7, 8, 8, 7, 7, 6, 7]",,6131f6711c0d96f6f1fb04af,11:25:07 AM,1/15/2024
,,,fwdspan,update_span,1ABfEPNehdbP4SBSEFdHCdJqdF32,call-function,44,711953,0.0-7.0-2.2-0.2-4.2,,,,,,,6131f6711c0d96f6f1fb04af,11:25:07 AM,1/15/2024
1225.0,"<p style=""font-size:3rem"">Trial 4 of 12</p><br><br><br>",0,fwdspan,start_trial,1ABfEPNehdbP4SBSEFdHCdJqdF32,html-button-response,45,713180,0.0-7.0-2.3-0.3-0.3,,,,,,,6131f6711c0d96f6f1fb04af,11:25:07 AM,1/15/2024
,"<p style=""font-size:14rem;font-weight:400;"">3</p>",,fwdspan,number,1ABfEPNehdbP4SBSEFdHCdJqdF32,html-keyboard-response,46,714203,0.0-7.0-2.3-0.3-1.12-0.12,,,,,,,6131f6711c0d96f6f1fb04af,11:25:07 AM,1/15/2024
,"<p style=""font-size:14rem;font-weight:400;"">1</p>",,fwdspan,number,1ABfEPNehdbP4SBSEFdHCdJqdF32,html-keyboard-response,47,715284,0.0-7.0-2.3-0.3-1.13-0.13,,,,,,,6131f6711c0d96f6f1fb04af,11:25:07 AM,1/15/2024
,"<p style=""font-size:14rem;font-weight:400;"">7</p>",,fwdspan,number,1ABfEPNehdbP4SBSEFdHCdJqdF32,html-keyboard-response,48,716290,0.0-7.0-2.3-0.3-1.14-0.14,,,,,,,6131f6711c0d96f6f1fb04af,11:25:07 AM,1/15/2024
,"<p style=""font-size:14rem;font-weight:400;"">6</p>",,fwdspan,number,1ABfEPNehdbP4SBSEFdHCdJqdF32,html-keyboard-response,49,717295,0.0-7.0-2.3-0.3-1.15-0.15,,,,,,,6131f6711c0d96f6f1fb04af,11:25:07 AM,1/15/2024
,"<p style=""font-size:14rem;font-weight:400;"">5</p>",,fwdspan,number,1ABfEPNehdbP4SBSEFdHCdJqdF32,html-keyboard-response,50,718309,0.0-7.0-2.3-0.3-1.16-0.16,,,,,,,6131f6711c0d96f6f1fb04af,11:25:07 AM,1/15/2024
,"<p style=""font-size:14rem;font-weight:400;"">8</p>",,fwdspan,number,1ABfEPNehdbP4SBSEFdHCdJqdF32,html-keyboard-response,51,719325,0.0-7.0-2.3-0.3-1.17-0.17,,,,,,,6131f6711c0d96f6f1fb04af,11:25:07 AM,1/15/2024
,[],,fwdspan,delay,1ABfEPNehdbP4SBSEFdHCdJqdF32,html-keyboard-response,52,719892,0.0-7.0-2.3-0.3-2.3,,,,,,,6131f6711c0d96f6f1fb04af,11:25:07 AM,1/15/2024
5992.0,"<div class = numbox><p style=""font-size:2.5rem"">What were the numbers <b>in order</b>?<br>(When you are ready to lock in your answer, press <b>ENTER</b>)</p><button id = button_1 class = ""square num-button"" onclick = ""recordClick(this)""><div class = content><div class = numbers>1</div></div></button><button id = button_2 class = ""square num-button"" onclick = ""recordClick(this)""><div class = content><div class = numbers>2</div></div></button><button id = button_3 class = ""square num-button"" onclick = ""recordClick(this)""><div class = content><div class = numbers>3</div></div></button><button id = button_4 class = ""square num-button"" onclick = ""recordClick(this)""><div class = content><div class = numbers>4</div></div></button><button id = button_5 class = ""square num-button"" onclick = ""recordClick(this)""><div class = content><div class = numbers>5</div></div></button><button id = button_6 class = ""square num-button"" onclick = ""recordClick(this)""><div class = content><div class = numbers>6</div></div></button><button id = button_7 class = ""square num-button"" onclick = ""recordClick(this)""><div class = content><div class = numbers>7</div></div></button><button id = button_8 class = ""square num-button"" onclick = ""recordClick(this)""><div class = content><div class = numbers>8</div></div></button><button id = button_9 class = ""square num-button"" onclick = ""recordClick(this)""><div class = content><div class = numbers>9</div></div></button><button class = clear_button id = ""ClearButton"" onclick = ""clearResponse()"">Clear</button><p><u><b>Current Answer:</b></u></p><div id=echoed_txt style=""font-size: 6rem; color:blue;""><b></b></div></div><br><br><br><br><br><br><br>",enter,fwdspan,response,1ABfEPNehdbP4SBSEFdHCdJqdF32,html-keyboard-response,53,725884,0.0-7.0-2.3-0.3-3.3,6.0,"[3,1,7,6,5,8]","[3,1,7,6,5,8]",1.0,"[3, 4, 5, 6, 7, 7, 8, 8, 7, 7, 6, 7]",,6131f6711c0d96f6f1fb04af,11:25:07 AM,1/15/2024
,,,fwdspan,update_span,1ABfEPNehdbP4SBSEFdHCdJqdF32,call-function,54,726151,0.0-7.0-2.3-0.3-4.3,,,,,,,6131f6711c0d96f6f1fb04af,11:25:07 AM,1/15/2024
1377.0,"<p style=""font-size:3rem"">Trial 5 of 12</p><br><br><br>",0,fwdspan,start_trial,1ABfEPNehdbP4SBSEFdHCdJqdF32,html-button-response,55,727530,0.0-7.0-2.4-0.4-0.4,,,,,,,6131f6711c0d96f6f1fb04af,11:25:07 AM,1/15/2024
,"<p style=""font-size:14rem;font-weight:400;"">1</p>",,fwdspan,number,1ABfEPNehdbP4SBSEFdHCdJqdF32,html-keyboard-response,56,728551,0.0-7.0-2.4-0.4-1.18-0.18,,,,,,,6131f6711c0d96f6f1fb04af,11:25:07 AM,1/15/2024
,"<p style=""font-size:14rem;font-weight:400;"">3</p>",,fwdspan,number,1ABfEPNehdbP4SBSEFdHCdJqdF32,html-keyboard-response,57,729582,0.0-7.0-2.4-0.4-1.19-0.19,,,,,,,6131f6711c0d96f6f1fb04af,11:25:07 AM,1/15/2024
,"<p style=""font-size:14rem;font-weight:400;"">4</p>",,fwdspan,number,1ABfEPNehdbP4SBSEFdHCdJqdF32,html-keyboard-response,58,730589,0.0-7.0-2.4-0.4-1.20-0.20,,,,,,,6131f6711c0d96f6f1fb04af,11:25:07 AM,1/15/2024
,"<p style=""font-size:14rem;font-weight:400;"">6</p>",,fwdspan,number,1ABfEPNehdbP4SBSEFdHCdJqdF32,html-keyboard-response,59,731593,0.0-7.0-2.4-0.4-1.21-0.21,,,,,,,6131f6711c0d96f6f1fb04af,11:25:07 AM,1/15/2024
,"<p style=""font-size:14rem;font-weight:400;"">2</p>",,fwdspan,number,1ABfEPNehdbP4SBSEFdHCdJqdF32,html-keyboard-response,60,732628,0.0-7.0-2.4-0.4-1.22-0.22,,,,,,,6131f6711c0d96f6f1fb04af,11:25:07 AM,1/15/2024
,"<p style=""font-size:14rem;font-weight:400;"">7</p>",,fwdspan,number,1ABfEPNehdbP4SBSEFdHCdJqdF32,html-keyboard-response,61,733644,0.0-7.0-2.4-0.4-1.23-0.23,,,,,,,6131f6711c0d96f6f1fb04af,11:25:07 AM,1/15/2024
,"<p style=""font-size:14rem;font-weight:400;"">8</p>",,fwdspan,number,1ABfEPNehdbP4SBSEFdHCdJqdF32,html-keyboard-response,62,734651,0.0-7.0-2.4-0.4-1.24-0.24,,,,,,,6131f6711c0d96f6f1fb04af,11:25:07 AM,1/15/2024
,[],,fwdspan,delay,1ABfEPNehdbP4SBSEFdHCdJqdF32,html-keyboard-response,63,735228,0.0-7.0-2.4-0.4-2.4,,,,,,,6131f6711c0d96f6f1fb04af,11:25:07 AM,1/15/2024
6439.0,"<div class = numbox><p style=""font-size:2.5rem"">What were the numbers <b>in order</b>?<br>(When you are ready to lock in your answer, press <b>ENTER</b>)</p><button id = button_1 class = ""square num-button"" onclick = ""recordClick(this)""><div class = content><div class = numbers>1</div></div></button><button id = button_2 class = ""square num-button"" onclick = ""recordClick(this)""><div class = content><div class = numbers>2</div></div></button><button id = button_3 class = ""square num-button"" onclick = ""recordClick(this)""><div class = content><div class = numbers>3</div></div></button><button id = button_4 class = ""square num-button"" onclick = ""recordClick(this)""><div class = content><div class = numbers>4</div></div></button><button id = button_5 class = ""square num-button"" onclick = ""recordClick(this)""><div class = content><div class = numbers>5</div></div></button><button id = button_6 class = ""square num-button"" onclick = ""recordClick(this)""><div class = content><div class = numbers>6</div></div></button><button id = button_7 class = ""square num-button"" onclick = ""recordClick(this)""><div class = content><div class = numbers>7</div></div></button><button id = button_8 class = ""square num-button"" onclick = ""recordClick(this)""><div class = content><div class = numbers>8</div></div></button><button id = button_9 class = ""square num-button"" onclick = ""recordClick(this)""><div class = content><div class = numbers>9</div></div></button><button class = clear_button id = ""ClearButton"" onclick = ""clearResponse()"">Clear</button><p><u><b>Current Answer:</b></u></p><div id=echoed_txt style=""font-size: 6rem; color:blue;""><b></b></div></div><br><br><br><br><br><br><br>",enter,fwdspan,response,1ABfEPNehdbP4SBSEFdHCdJqdF32,html-keyboard-response,64,741667,0.0-7.0-2.4-0.4-3.4,7.0,"[1,2,3,7,6,8]","[1,3,4,6,2,7,8]",0.0,"[3, 4, 5, 6, 7, 7, 8, 8, 7, 7, 6, 7]",,6131f6711c0d96f6f1fb04af,11:25:07 AM,1/15/2024
,,,fwdspan,update_span,1ABfEPNehdbP4SBSEFdHCdJqdF32,call-function,65,741930,0.0-7.0-2.4-0.4-4.4,,,,,,,6131f6711c0d96f6f1fb04af,11:25:07 AM,1/15/2024
1126.0,"<p style=""font-size:3rem"">Trial 6 of 12</p><br><br><br>",0,fwdspan,start_trial,1ABfEPNehdbP4SBSEFdHCdJqdF32,html-button-response,66,743057,0.0-7.0-2.5-0.5-0.5,,,,,,,6131f6711c0d96f6f1fb04af,11:25:07 AM,1/15/2024
,"<p style=""font-size:14rem;font-weight:400;"">9</p>",,fwdspan,number,1ABfEPNehdbP4SBSEFdHCdJqdF32,html-keyboard-response,67,744088,0.0-7.0-2.5-0.5-1.25-0.25,,,,,,,6131f6711c0d96f6f1fb04af,11:25:07 AM,1/15/2024
,"<p style=""font-size:14rem;font-weight:400;"">4</p>",,fwdspan,number,1ABfEPNehdbP4SBSEFdHCdJqdF32,html-keyboard-response,68,745107,0.0-7.0-2.5-0.5-1.26-0.26,,,,,,,6131f6711c0d96f6f1fb04af,11:25:07 AM,1/15/2024
,"<p style=""font-size:14rem;font-weight:400;"">1</p>",,fwdspan,number,1ABfEPNehdbP4SBSEFdHCdJqdF32,html-keyboard-response,69,746128,0.0-7.0-2.5-0.5-1.27-0.27,,,,,,,6131f6711c0d96f6f1fb04af,11:25:07 AM,1/15/2024
,"<p style=""font-size:14rem;font-weight:400;"">3</p>",,fwdspan,number,1ABfEPNehdbP4SBSEFdHCdJqdF32,html-keyboard-response,70,747143,0.0-7.0-2.5-0.5-1.28-0.28,,,,,,,6131f6711c0d96f6f1fb04af,11:25:07 AM,1/15/2024
,"<p style=""font-size:14rem;font-weight:400;"">5</p>",,fwdspan,number,1ABfEPNehdbP4SBSEFdHCdJqdF32,html-keyboard-response,71,748159,0.0-7.0-2.5-0.5-1.29-0.29,,,,,,,6131f6711c0d96f6f1fb04af,11:25:07 AM,1/15/2024
,"<p style=""font-size:14rem;font-weight:400;"">8</p>",,fwdspan,number,1ABfEPNehdbP4SBSEFdHCdJqdF32,html-keyboard-response,72,749233,0.0-7.0-2.5-0.5-1.30-0.30,,,,,,,6131f6711c0d96f6f1fb04af,11:25:07 AM,1/15/2024
,"<p style=""font-size:14rem;font-weight:400;"">7</p>",,fwdspan,number,1ABfEPNehdbP4SBSEFdHCdJqdF32,html-keyboard-response,73,750250,0.0-7.0-2.5-0.5-1.31-0.31,,,,,,,6131f6711c0d96f6f1fb04af,11:25:07 AM,1/15/2024
,[],,fwdspan,delay,1ABfEPNehdbP4SBSEFdHCdJqdF32,html-keyboard-response,74,750825,0.0-7.0-2.5-0.5-2.5,,,,,,,6131f6711c0d96f6f1fb04af,11:25:07 AM,1/15/2024
8370.0,"<div class = numbox><p style=""font-size:2.5rem"">What were the numbers <b>in order</b>?<br>(When you are ready to lock in your answer, press <b>ENTER</b>)</p><button id = button_1 class = ""square num-button"" onclick = ""recordClick(this)""><div class = content><div class = numbers>1</div></div></button><button id = button_2 class = ""square num-button"" onclick = ""recordClick(this)""><div class = content><div class = numbers>2</div></div></button><button id = button_3 class = ""square num-button"" onclick = ""recordClick(this)""><div class = content><div class = numbers>3</div></div></button><button id = button_4 class = ""square num-button"" onclick = ""recordClick(this)""><div class = content><div class = numbers>4</div></div></button><button id = button_5 class = ""square num-button"" onclick = ""recordClick(this)""><div class = content><div class = numbers>5</div></div></button><button id = button_6 class = ""square num-button"" onclick = ""recordClick(this)""><div class = content><div class = numbers>6</div></div></button><button id = button_7 class = ""square num-button"" onclick = ""recordClick(this)""><div class = content><div class = numbers>7</div></div></button><button id = button_8 class = ""square num-button"" onclick = ""recordClick(this)""><div class = content><div class = numbers>8</div></div></button><button id = button_9 class = ""square num-button"" onclick = ""recordClick(this)""><div class = content><div class = numbers>9</div></div></button><button class = clear_button id = ""ClearButton"" onclick = ""clearResponse()"">Clear</button><p><u><b>Current Answer:</b></u></p><div id=echoed_txt style=""font-size: 6rem; color:blue;""><b></b></div></div><br><br><br><br><br><br><br>",enter,fwdspan,response,1ABfEPNehdbP4SBSEFdHCdJqdF32,html-keyboard-response,75,759196,0.0-7.0-2.5-0.5-3.5,7.0,"[9,4,1,3,5,8,7]","[9,4,1,3,5,8,7]",1.0,"[3, 4, 5, 6, 7, 7, 8, 8, 7, 7, 6, 7]",,6131f6711c0d96f6f1fb04af,11:25:07 AM,1/15/2024
,,,fwdspan,update_span,1ABfEPNehdbP4SBSEFdHCdJqdF32,call-function,76,759464,0.0-7.0-2.5-0.5-4.5,,,,,,,6131f6711c0d96f6f1fb04af,11:25:07 AM,1/15/2024
1495.0,"<p style=""font-size:3rem"">Trial 7 of 12</p><br><br><br>",0,fwdspan,start_trial,1ABfEPNehdbP4SBSEFdHCdJqdF32,html-button-response,77,760961,0.0-7.0-2.6-0.6-0.6,,,,,,,6131f6711c0d96f6f1fb04af,11:25:07 AM,1/15/2024
,"<p style=""font-size:14rem;font-weight:400;"">2</p>",,fwdspan,number,1ABfEPNehdbP4SBSEFdHCdJqdF32,html-keyboard-response,78,761969,0.0-7.0-2.6-0.6-1.32-0.32,,,,,,,6131f6711c0d96f6f1fb04af,11:25:07 AM,1/15/2024
,"<p style=""font-size:14rem;font-weight:400;"">8</p>",,fwdspan,number,1ABfEPNehdbP4SBSEFdHCdJqdF32,html-keyboard-response,79,762980,0.0-7.0-2.6-0.6-1.33-0.33,,,,,,,6131f6711c0d96f6f1fb04af,11:25:07 AM,1/15/2024
,"<p style=""font-size:14rem;font-weight:400;"">4</p>",,fwdspan,number,1ABfEPNehdbP4SBSEFdHCdJqdF32,html-keyboard-response,80,763994,0.0-7.0-2.6-0.6-1.34-0.34,,,,,,,6131f6711c0d96f6f1fb04af,11:25:07 AM,1/15/2024
,"<p style=""font-size:14rem;font-weight:400;"">7</p>",,fwdspan,number,1ABfEPNehdbP4SBSEFdHCdJqdF32,html-keyboard-response,81,765024,0.0-7.0-2.6-0.6-1.35-0.35,,,,,,,6131f6711c0d96f6f1fb04af,11:25:07 AM,1/15/2024
,"<p style=""font-size:14rem;font-weight:400;"">3</p>",,fwdspan,number,1ABfEPNehdbP4SBSEFdHCdJqdF32,html-keyboard-response,82,766032,0.0-7.0-2.6-0.6-1.36-0.36,,,,,,,6131f6711c0d96f6f1fb04af,11:25:07 AM,1/15/2024
,"<p style=""font-size:14rem;font-weight:400;"">5</p>",,fwdspan,number,1ABfEPNehdbP4SBSEFdHCdJqdF32,html-keyboard-response,83,767061,0.0-7.0-2.6-0.6-1.37-0.37,,,,,,,6131f6711c0d96f6f1fb04af,11:25:07 AM,1/15/2024
,"<p style=""font-size:14rem;font-weight:400;"">9</p>",,fwdspan,number,1ABfEPNehdbP4SBSEFdHCdJqdF32,html-keyboard-response,84,768067,0.0-7.0-2.6-0.6-1.38-0.38,,,,,,,6131f6711c0d96f6f1fb04af,11:25:07 AM,1/15/2024
,"<p style=""font-size:14rem;font-weight:400;"">1</p>",,fwdspan,number,1ABfEPNehdbP4SBSEFdHCdJqdF32,html-keyboard-response,85,769086,0.0-7.0-2.6-0.6-1.39-0.39,,,,,,,6131f6711c0d96f6f1fb04af,11:25:07 AM,1/15/2024
,[],,fwdspan,delay,1ABfEPNehdbP4SBSEFdHCdJqdF32,html-keyboard-response,86,769648,0.0-7.0-2.6-0.6-2.6,,,,,,,6131f6711c0d96f6f1fb04af,11:25:07 AM,1/15/2024
10443.0,"<div class = numbox><p style=""font-size:2.5rem"">What were the numbers <b>in order</b>?<br>(When you are ready to lock in your answer, press <b>ENTER</b>)</p><button id = button_1 class = ""square num-button"" onclick = ""recordClick(this)""><div class = content><div class = numbers>1</div></div></button><button id = button_2 class = ""square num-button"" onclick = ""recordClick(this)""><div class = content><div class = numbers>2</div></div></button><button id = button_3 class = ""square num-button"" onclick = ""recordClick(this)""><div class = content><div class = numbers>3</div></div></button><button id = button_4 class = ""square num-button"" onclick = ""recordClick(this)""><div class = content><div class = numbers>4</div></div></button><button id = button_5 class = ""square num-button"" onclick = ""recordClick(this)""><div class = content><div class = numbers>5</div></div></button><button id = button_6 class = ""square num-button"" onclick = ""recordClick(this)""><div class = content><div class = numbers>6</div></div></button><button id = button_7 class = ""square num-button"" onclick = ""recordClick(this)""><div class = content><div class = numbers>7</div></div></button><button id = button_8 class = ""square num-button"" onclick = ""recordClick(this)""><div class = content><div class = numbers>8</div></div></button><button id = button_9 class = ""square num-button"" onclick = ""recordClick(this)""><div class = content><div class = numbers>9</div></div></button><button class = clear_button id = ""ClearButton"" onclick = ""clearResponse()"">Clear</button><p><u><b>Current Answer:</b></u></p><div id=echoed_txt style=""font-size: 6rem; color:blue;""><b></b></div></div><br><br><br><br><br><br><br>",enter,fwdspan,response,1ABfEPNehdbP4SBSEFdHCdJqdF32,html-keyboard-response,87,780092,0.0-7.0-2.6-0.6-3.6,8.0,"[2,8,7,4,3,5,9,1]","[2,8,4,7,3,5,9,1]",0.0,"[3, 4, 5, 6, 7, 7, 8, 8, 7, 7, 6, 7]",,6131f6711c0d96f6f1fb04af,11:25:07 AM,1/15/2024
,,,fwdspan,update_span,1ABfEPNehdbP4SBSEFdHCdJqdF32,call-function,88,780346,0.0-7.0-2.6-0.6-4.6,,,,,,,6131f6711c0d96f6f1fb04af,11:25:07 AM,1/15/2024
1274.0,"<p style=""font-size:3rem"">Trial 8 of 12</p><br><br><br>",0,fwdspan,start_trial,1ABfEPNehdbP4SBSEFdHCdJqdF32,html-button-response,89,781623,0.0-7.0-2.7-0.7-0.7,,,,,,,6131f6711c0d96f6f1fb04af,11:25:07 AM,1/15/2024
,"<p style=""font-size:14rem;font-weight:400;"">1</p>",,fwdspan,number,1ABfEPNehdbP4SBSEFdHCdJqdF32,html-keyboard-response,90,782642,0.0-7.0-2.7-0.7-1.40-0.40,,,,,,,6131f6711c0d96f6f1fb04af,11:25:07 AM,1/15/2024
,"<p style=""font-size:14rem;font-weight:400;"">5</p>",,fwdspan,number,1ABfEPNehdbP4SBSEFdHCdJqdF32,html-keyboard-response,91,783646,0.0-7.0-2.7-0.7-1.41-0.41,,,,,,,6131f6711c0d96f6f1fb04af,11:25:07 AM,1/15/2024
,"<p style=""font-size:14rem;font-weight:400;"">8</p>",,fwdspan,number,1ABfEPNehdbP4SBSEFdHCdJqdF32,html-keyboard-response,92,784651,0.0-7.0-2.7-0.7-1.42-0.42,,,,,,,6131f6711c0d96f6f1fb04af,11:25:07 AM,1/15/2024
,"<p style=""font-size:14rem;font-weight:400;"">2</p>",,fwdspan,number,1ABfEPNehdbP4SBSEFdHCdJqdF32,html-keyboard-response,93,785656,0.0-7.0-2.7-0.7-1.43-0.43,,,,,,,6131f6711c0d96f6f1fb04af,11:25:07 AM,1/15/2024
,"<p style=""font-size:14rem;font-weight:400;"">7</p>",,fwdspan,number,1ABfEPNehdbP4SBSEFdHCdJqdF32,html-keyboard-response,94,786660,0.0-7.0-2.7-0.7-1.44-0.44,,,,,,,6131f6711c0d96f6f1fb04af,11:25:07 AM,1/15/2024
,"<p style=""font-size:14rem;font-weight:400;"">4</p>",,fwdspan,number,1ABfEPNehdbP4SBSEFdHCdJqdF32,html-keyboard-response,95,787679,0.0-7.0-2.7-0.7-1.45-0.45,,,,,,,6131f6711c0d96f6f1fb04af,11:25:07 AM,1/15/2024
,"<p style=""font-size:14rem;font-weight:400;"">3</p>",,fwdspan,number,1ABfEPNehdbP4SBSEFdHCdJqdF32,html-keyboard-response,96,788695,0.0-7.0-2.7-0.7-1.46-0.46,,,,,,,6131f6711c0d96f6f1fb04af,11:25:07 AM,1/15/2024
,"<p style=""font-size:14rem;font-weight:400;"">6</p>",,fwdspan,number,1ABfEPNehdbP4SBSEFdHCdJqdF32,html-keyboard-response,97,789711,0.0-7.0-2.7-0.7-1.47-0.47,,,,,,,6131f6711c0d96f6f1fb04af,11:25:07 AM,1/15/2024
,[],,fwdspan,delay,1ABfEPNehdbP4SBSEFdHCdJqdF32,html-keyboard-response,98,790290,0.0-7.0-2.7-0.7-2.7,,,,,,,6131f6711c0d96f6f1fb04af,11:25:07 AM,1/15/2024
6769.0,"<div class = numbox><p style=""font-size:2.5rem"">What were the numbers <b>in order</b>?<br>(When you are ready to lock in your answer, press <b>ENTER</b>)</p><button id = button_1 class = ""square num-button"" onclick = ""recordClick(this)""><div class = content><div class = numbers>1</div></div></button><button id = button_2 class = ""square num-button"" onclick = ""recordClick(this)""><div class = content><div class = numbers>2</div></div></button><button id = button_3 class = ""square num-button"" onclick = ""recordClick(this)""><div class = content><div class = numbers>3</div></div></button><button id = button_4 class = ""square num-button"" onclick = ""recordClick(this)""><div class = content><div class = numbers>4</div></div></button><button id = button_5 class = ""square num-button"" onclick = ""recordClick(this)""><div class = content><div class = numbers>5</div></div></button><button id = button_6 class = ""square num-button"" onclick = ""recordClick(this)""><div class = content><div class = numbers>6</div></div></button><button id = button_7 class = ""square num-button"" onclick = ""recordClick(this)""><div class = content><div class = numbers>7</div></div></button><button id = button_8 class = ""square num-button"" onclick = ""recordClick(this)""><div class = content><div class = numbers>8</div></div></button><button id = button_9 class = ""square num-button"" onclick = ""recordClick(this)""><div class = content><div class = numbers>9</div></div></button><button class = clear_button id = ""ClearButton"" onclick = ""clearResponse()"">Clear</button><p><u><b>Current Answer:</b></u></p><div id=echoed_txt style=""font-size: 6rem; color:blue;""><b></b></div></div><br><br><br><br><br><br><br>",enter,fwdspan,response,1ABfEPNehdbP4SBSEFdHCdJqdF32,html-keyboard-response,99,797060,0.0-7.0-2.7-0.7-3.7,8.0,"[1,5,8,2,7,4,6,1]","[1,5,8,2,7,4,3,6]",0.0,"[3, 4, 5, 6, 7, 7, 8, 8, 7, 7, 6, 7]",,6131f6711c0d96f6f1fb04af,11:25:07 AM,1/15/2024
,,,fwdspan,update_span,1ABfEPNehdbP4SBSEFdHCdJqdF32,call-function,100,797313,0.0-7.0-2.7-0.7-4.7,,,,,,,6131f6711c0d96f6f1fb04af,11:25:07 AM,1/15/2024
2053.0,"<p style=""font-size:3rem"">Trial 9 of 12</p><br><br><br>",0,fwdspan,start_trial,1ABfEPNehdbP4SBSEFdHCdJqdF32,html-button-response,101,799368,0.0-7.0-2.8-0.8-0.8,,,,,,,6131f6711c0d96f6f1fb04af,11:25:07 AM,1/15/2024
,"<p style=""font-size:14rem;font-weight:400;"">3</p>",,fwdspan,number,1ABfEPNehdbP4SBSEFdHCdJqdF32,html-keyboard-response,102,800387,0.0-7.0-2.8-0.8-1.48-0.48,,,,,,,6131f6711c0d96f6f1fb04af,11:25:07 AM,1/15/2024
,"<p style=""font-size:14rem;font-weight:400;"">6</p>",,fwdspan,number,1ABfEPNehdbP4SBSEFdHCdJqdF32,html-keyboard-response,103,801453,0.0-7.0-2.8-0.8-1.49-0.49,,,,,,,6131f6711c0d96f6f1fb04af,11:25:07 AM,1/15/2024
,"<p style=""font-size:14rem;font-weight:400;"">9</p>",,fwdspan,number,1ABfEPNehdbP4SBSEFdHCdJqdF32,html-keyboard-response,104,802471,0.0-7.0-2.8-0.8-1.50-0.50,,,,,,,6131f6711c0d96f6f1fb04af,11:25:07 AM,1/15/2024
,"<p style=""font-size:14rem;font-weight:400;"">1</p>",,fwdspan,number,1ABfEPNehdbP4SBSEFdHCdJqdF32,html-keyboard-response,105,803473,0.0-7.0-2.8-0.8-1.51-0.51,,,,,,,6131f6711c0d96f6f1fb04af,11:25:07 AM,1/15/2024
,"<p style=""font-size:14rem;font-weight:400;"">5</p>",,fwdspan,number,1ABfEPNehdbP4SBSEFdHCdJqdF32,html-keyboard-response,106,804493,0.0-7.0-2.8-0.8-1.52-0.52,,,,,,,6131f6711c0d96f6f1fb04af,11:25:07 AM,1/15/2024
,"<p style=""font-size:14rem;font-weight:400;"">4</p>",,fwdspan,number,1ABfEPNehdbP4SBSEFdHCdJqdF32,html-keyboard-response,107,805513,0.0-7.0-2.8-0.8-1.53-0.53,,,,,,,6131f6711c0d96f6f1fb04af,11:25:07 AM,1/15/2024
,"<p style=""font-size:14rem;font-weight:400;"">2</p>",,fwdspan,number,1ABfEPNehdbP4SBSEFdHCdJqdF32,html-keyboard-response,108,806528,0.0-7.0-2.8-0.8-1.54-0.54,,,,,,,6131f6711c0d96f6f1fb04af,11:25:07 AM,1/15/2024
,[],,fwdspan,delay,1ABfEPNehdbP4SBSEFdHCdJqdF32,html-keyboard-response,109,807095,0.0-7.0-2.8-0.8-2.8,,,,,,,6131f6711c0d96f6f1fb04af,11:25:07 AM,1/15/2024
9173.0,"<div class = numbox><p style=""font-size:2.5rem"">What were the numbers <b>in order</b>?<br>(When you are ready to lock in your answer, press <b>ENTER</b>)</p><button id = button_1 class = ""square num-button"" onclick = ""recordClick(this)""><div class = content><div class = numbers>1</div></div></button><button id = button_2 class = ""square num-button"" onclick = ""recordClick(this)""><div class = content><div class = numbers>2</div></div></button><button id = button_3 class = ""square num-button"" onclick = ""recordClick(this)""><div class = content><div class = numbers>3</div></div></button><button id = button_4 class = ""square num-button"" onclick = ""recordClick(this)""><div class = content><div class = numbers>4</div></div></button><button id = button_5 class = ""square num-button"" onclick = ""recordClick(this)""><div class = content><div class = numbers>5</div></div></button><button id = button_6 class = ""square num-button"" onclick = ""recordClick(this)""><div class = content><div class = numbers>6</div></div></button><button id = button_7 class = ""square num-button"" onclick = ""recordClick(this)""><div class = content><div class = numbers>7</div></div></button><button id = button_8 class = ""square num-button"" onclick = ""recordClick(this)""><div class = content><div class = numbers>8</div></div></button><button id = button_9 class = ""square num-button"" onclick = ""recordClick(this)""><div class = content><div class = numbers>9</div></div></button><button class = clear_button id = ""ClearButton"" onclick = ""clearResponse()"">Clear</button><p><u><b>Current Answer:</b></u></p><div id=echoed_txt style=""font-size: 6rem; color:blue;""><b></b></div></div><br><br><br><br><br><br><br>",enter,fwdspan,response,1ABfEPNehdbP4SBSEFdHCdJqdF32,html-keyboard-response,110,816269,0.0-7.0-2.8-0.8-3.8,7.0,"[3,6,9,1,5,2,4]","[3,6,9,1,5,4,2]",0.0,"[3, 4, 5, 6, 7, 7, 8, 8, 7, 7, 6, 7]",,6131f6711c0d96f6f1fb04af,11:25:07 AM,1/15/2024
,,,fwdspan,update_span,1ABfEPNehdbP4SBSEFdHCdJqdF32,call-function,111,816522,0.0-7.0-2.8-0.8-4.8,,,,,,,6131f6711c0d96f6f1fb04af,11:25:07 AM,1/15/2024
1166.0,"<p style=""font-size:3rem"">Trial 10 of 12</p><br><br><br>",0,fwdspan,start_trial,1ABfEPNehdbP4SBSEFdHCdJqdF32,html-button-response,112,817690,0.0-7.0-2.9-0.9-0.9,,,,,,,6131f6711c0d96f6f1fb04af,11:25:07 AM,1/15/2024
,"<p style=""font-size:14rem;font-weight:400;"">9</p>",,fwdspan,number,1ABfEPNehdbP4SBSEFdHCdJqdF32,html-keyboard-response,113,818718,0.0-7.0-2.9-0.9-1.55-0.55,,,,,,,6131f6711c0d96f6f1fb04af,11:25:07 AM,1/15/2024
,"<p style=""font-size:14rem;font-weight:400;"">6</p>",,fwdspan,number,1ABfEPNehdbP4SBSEFdHCdJqdF32,html-keyboard-response,114,819736,0.0-7.0-2.9-0.9-1.56-0.56,,,,,,,6131f6711c0d96f6f1fb04af,11:25:07 AM,1/15/2024
,"<p style=""font-size:14rem;font-weight:400;"">1</p>",,fwdspan,number,1ABfEPNehdbP4SBSEFdHCdJqdF32,html-keyboard-response,115,820741,0.0-7.0-2.9-0.9-1.57-0.57,,,,,,,6131f6711c0d96f6f1fb04af,11:25:07 AM,1/15/2024
,"<p style=""font-size:14rem;font-weight:400;"">2</p>",,fwdspan,number,1ABfEPNehdbP4SBSEFdHCdJqdF32,html-keyboard-response,116,821746,0.0-7.0-2.9-0.9-1.58-0.58,,,,,,,6131f6711c0d96f6f1fb04af,11:25:07 AM,1/15/2024
,"<p style=""font-size:14rem;font-weight:400;"">5</p>",,fwdspan,number,1ABfEPNehdbP4SBSEFdHCdJqdF32,html-keyboard-response,117,822752,0.0-7.0-2.9-0.9-1.59-0.59,,,,,,,6131f6711c0d96f6f1fb04af,11:25:07 AM,1/15/2024
,"<p style=""font-size:14rem;font-weight:400;"">3</p>",,fwdspan,number,1ABfEPNehdbP4SBSEFdHCdJqdF32,html-keyboard-response,118,823772,0.0-7.0-2.9-0.9-1.60-0.60,,,,,,,6131f6711c0d96f6f1fb04af,11:25:07 AM,1/15/2024
,"<p style=""font-size:14rem;font-weight:400;"">7</p>",,fwdspan,number,1ABfEPNehdbP4SBSEFdHCdJqdF32,html-keyboard-response,119,824781,0.0-7.0-2.9-0.9-1.61-0.61,,,,,,,6131f6711c0d96f6f1fb04af,11:25:07 AM,1/15/2024
,[],,fwdspan,delay,1ABfEPNehdbP4SBSEFdHCdJqdF32,html-keyboard-response,120,825359,0.0-7.0-2.9-0.9-2.9,,,,,,,6131f6711c0d96f6f1fb04af,11:25:07 AM,1/15/2024
8209.0,"<div class = numbox><p style=""font-size:2.5rem"">What were the numbers <b>in order</b>?<br>(When you are ready to lock in your answer, press <b>ENTER</b>)</p><button id = button_1 class = ""square num-button"" onclick = ""recordClick(this)""><div class = content><div class = numbers>1</div></div></button><button id = button_2 class = ""square num-button"" onclick = ""recordClick(this)""><div class = content><div class = numbers>2</div></div></button><button id = button_3 class = ""square num-button"" onclick = ""recordClick(this)""><div class = content><div class = numbers>3</div></div></button><button id = button_4 class = ""square num-button"" onclick = ""recordClick(this)""><div class = content><div class = numbers>4</div></div></button><button id = button_5 class = ""square num-button"" onclick = ""recordClick(this)""><div class = content><div class = numbers>5</div></div></button><button id = button_6 class = ""square num-button"" onclick = ""recordClick(this)""><div class = content><div class = numbers>6</div></div></button><button id = button_7 class = ""square num-button"" onclick = ""recordClick(this)""><div class = content><div class = numbers>7</div></div></button><button id = button_8 class = ""square num-button"" onclick = ""recordClick(this)""><div class = content><div class = numbers>8</div></div></button><button id = button_9 class = ""square num-button"" onclick = ""recordClick(this)""><div class = content><div class = numbers>9</div></div></button><button class = clear_button id = ""ClearButton"" onclick = ""clearResponse()"">Clear</button><p><u><b>Current Answer:</b></u></p><div id=echoed_txt style=""font-size: 6rem; color:blue;""><b></b></div></div><br><br><br><br><br><br><br>",enter,fwdspan,response,1ABfEPNehdbP4SBSEFdHCdJqdF32,html-keyboard-response,121,833572,0.0-7.0-2.9-0.9-3.9,7.0,"[9,6,1,2,5,8,7]","[9,6,1,2,5,3,7]",0.0,"[3, 4, 5, 6, 7, 7, 8, 8, 7, 7, 6, 7]",,6131f6711c0d96f6f1fb04af,11:25:07 AM,1/15/2024
,,,fwdspan,update_span,1ABfEPNehdbP4SBSEFdHCdJqdF32,call-function,122,833836,0.0-7.0-2.9-0.9-4.9,,,,,,,6131f6711c0d96f6f1fb04af,11:25:07 AM,1/15/2024
976.0,"<p style=""font-size:3rem"">Trial 11 of 12</p><br><br><br>",0,fwdspan,start_trial,1ABfEPNehdbP4SBSEFdHCdJqdF32,html-button-response,123,834814,0.0-7.0-2.10-0.10-0.10,,,,,,,6131f6711c0d96f6f1fb04af,11:25:07 AM,1/15/2024
,"<p style=""font-size:14rem;font-weight:400;"">6</p>",,fwdspan,number,1ABfEPNehdbP4SBSEFdHCdJqdF32,html-keyboard-response,124,835833,0.0-7.0-2.10-0.10-1.62-0.62,,,,,,,6131f6711c0d96f6f1fb04af,11:25:07 AM,1/15/2024
,"<p style=""font-size:14rem;font-weight:400;"">5</p>",,fwdspan,number,1ABfEPNehdbP4SBSEFdHCdJqdF32,html-keyboard-response,125,836840,0.0-7.0-2.10-0.10-1.63-0.63,,,,,,,6131f6711c0d96f6f1fb04af,11:25:07 AM,1/15/2024
,"<p style=""font-size:14rem;font-weight:400;"">3</p>",,fwdspan,number,1ABfEPNehdbP4SBSEFdHCdJqdF32,html-keyboard-response,126,837857,0.0-7.0-2.10-0.10-1.64-0.64,,,,,,,6131f6711c0d96f6f1fb04af,11:25:07 AM,1/15/2024
,"<p style=""font-size:14rem;font-weight:400;"">4</p>",,fwdspan,number,1ABfEPNehdbP4SBSEFdHCdJqdF32,html-keyboard-response,127,838860,0.0-7.0-2.10-0.10-1.65-0.65,,,,,,,6131f6711c0d96f6f1fb04af,11:25:07 AM,1/15/2024
,"<p style=""font-size:14rem;font-weight:400;"">1</p>",,fwdspan,number,1ABfEPNehdbP4SBSEFdHCdJqdF32,html-keyboard-response,128,839863,0.0-7.0-2.10-0.10-1.66-0.66,,,,,,,6131f6711c0d96f6f1fb04af,11:25:07 AM,1/15/2024
,"<p style=""font-size:14rem;font-weight:400;"">2</p>",,fwdspan,number,1ABfEPNehdbP4SBSEFdHCdJqdF32,html-keyboard-response,129,840866,0.0-7.0-2.10-0.10-1.67-0.67,,,,,,,6131f6711c0d96f6f1fb04af,11:25:07 AM,1/15/2024
,[],,fwdspan,delay,1ABfEPNehdbP4SBSEFdHCdJqdF32,html-keyboard-response,130,841431,0.0-7.0-2.10-0.10-2.10,,,,,,,6131f6711c0d96f6f1fb04af,11:25:07 AM,1/15/2024
7708.0,"<div class = numbox><p style=""font-size:2.5rem"">What were the numbers <b>in order</b>?<br>(When you are ready to lock in your answer, press <b>ENTER</b>)</p><button id = button_1 class = ""square num-button"" onclick = ""recordClick(this)""><div class = content><div class = numbers>1</div></div></button><button id = button_2 class = ""square num-button"" onclick = ""recordClick(this)""><div class = content><div class = numbers>2</div></div></button><button id = button_3 class = ""square num-button"" onclick = ""recordClick(this)""><div class = content><div class = numbers>3</div></div></button><button id = button_4 class = ""square num-button"" onclick = ""recordClick(this)""><div class = content><div class = numbers>4</div></div></button><button id = button_5 class = ""square num-button"" onclick = ""recordClick(this)""><div class = content><div class = numbers>5</div></div></button><button id = button_6 class = ""square num-button"" onclick = ""recordClick(this)""><div class = content><div class = numbers>6</div></div></button><button id = button_7 class = ""square num-button"" onclick = ""recordClick(this)""><div class = content><div class = numbers>7</div></div></button><button id = button_8 class = ""square num-button"" onclick = ""recordClick(this)""><div class = content><div class = numbers>8</div></div></button><button id = button_9 class = ""square num-button"" onclick = ""recordClick(this)""><div class = content><div class = numbers>9</div></div></button><button class = clear_button id = ""ClearButton"" onclick = ""clearResponse()"">Clear</button><p><u><b>Current Answer:</b></u></p><div id=echoed_txt style=""font-size: 6rem; color:blue;""><b></b></div></div><br><br><br><br><br><br><br>",enter,fwdspan,response,1ABfEPNehdbP4SBSEFdHCdJqdF32,html-keyboard-response,131,849140,0.0-7.0-2.10-0.10-3.10,6.0,"[6,5,3,4,1,2]","[6,5,3,4,1,2]",1.0,"[3, 4, 5, 6, 7, 7, 8, 8, 7, 7, 6, 7]",,6131f6711c0d96f6f1fb04af,11:25:07 AM,1/15/2024
,,,fwdspan,update_span,1ABfEPNehdbP4SBSEFdHCdJqdF32,call-function,132,849400,0.0-7.0-2.10-0.10-4.10,,,,,,,6131f6711c0d96f6f1fb04af,11:25:07 AM,1/15/2024
1058.0,"<p style=""font-size:3rem"">Trial 12 of 12</p><br><br><br>",0,fwdspan,start_trial,1ABfEPNehdbP4SBSEFdHCdJqdF32,html-button-response,133,850460,0.0-7.0-2.11-0.11-0.11,,,,,,,6131f6711c0d96f6f1fb04af,11:25:07 AM,1/15/2024
,"<p style=""font-size:14rem;font-weight:400;"">1</p>",,fwdspan,number,1ABfEPNehdbP4SBSEFdHCdJqdF32,html-keyboard-response,134,851478,0.0-7.0-2.11-0.11-1.68-0.68,,,,,,,6131f6711c0d96f6f1fb04af,11:25:07 AM,1/15/2024
,"<p style=""font-size:14rem;font-weight:400;"">2</p>",,fwdspan,number,1ABfEPNehdbP4SBSEFdHCdJqdF32,html-keyboard-response,135,852533,0.0-7.0-2.11-0.11-1.69-0.69,,,,,,,6131f6711c0d96f6f1fb04af,11:25:07 AM,1/15/2024
,"<p style=""font-size:14rem;font-weight:400;"">4</p>",,fwdspan,number,1ABfEPNehdbP4SBSEFdHCdJqdF32,html-keyboard-response,136,853550,0.0-7.0-2.11-0.11-1.70-0.70,,,,,,,6131f6711c0d96f6f1fb04af,11:25:07 AM,1/15/2024
,"<p style=""font-size:14rem;font-weight:400;"">5</p>",,fwdspan,number,1ABfEPNehdbP4SBSEFdHCdJqdF32,html-keyboard-response,137,854566,0.0-7.0-2.11-0.11-1.71-0.71,,,,,,,6131f6711c0d96f6f1fb04af,11:25:07 AM,1/15/2024
,"<p style=""font-size:14rem;font-weight:400;"">6</p>",,fwdspan,number,1ABfEPNehdbP4SBSEFdHCdJqdF32,html-keyboard-response,138,855581,0.0-7.0-2.11-0.11-1.72-0.72,,,,,,,6131f6711c0d96f6f1fb04af,11:25:07 AM,1/15/2024
,"<p style=""font-size:14rem;font-weight:400;"">9</p>",,fwdspan,number,1ABfEPNehdbP4SBSEFdHCdJqdF32,html-keyboard-response,139,856601,0.0-7.0-2.11-0.11-1.73-0.73,,,,,,,6131f6711c0d96f6f1fb04af,11:25:07 AM,1/15/2024
,"<p style=""font-size:14rem;font-weight:400;"">3</p>",,fwdspan,number,1ABfEPNehdbP4SBSEFdHCdJqdF32,html-keyboard-response,140,857619,0.0-7.0-2.11-0.11-1.74-0.74,,,,,,,6131f6711c0d96f6f1fb04af,11:25:07 AM,1/15/2024
,[],,fwdspan,delay,1ABfEPNehdbP4SBSEFdHCdJqdF32,html-keyboard-response,141,858185,0.0-7.0-2.11-0.11-2.11,,,,,,,6131f6711c0d96f6f1fb04af,11:25:07 AM,1/15/2024
8385.0,"<div class = numbox><p style=""font-size:2.5rem"">What were the numbers <b>in order</b>?<br>(When you are ready to lock in your answer, press <b>ENTER</b>)</p><button id = button_1 class = ""square num-button"" onclick = ""recordClick(this)""><div class = content><div class = numbers>1</div></div></button><button id = button_2 class = ""square num-button"" onclick = ""recordClick(this)""><div class = content><div class = numbers>2</div></div></button><button id = button_3 class = ""square num-button"" onclick = ""recordClick(this)""><div class = content><div class = numbers>3</div></div></button><button id = button_4 class = ""square num-button"" onclick = ""recordClick(this)""><div class = content><div class = numbers>4</div></div></button><button id = button_5 class = ""square num-button"" onclick = ""recordClick(this)""><div class = content><div class = numbers>5</div></div></button><button id = button_6 class = ""square num-button"" onclick = ""recordClick(this)""><div class = content><div class = numbers>6</div></div></button><button id = button_7 class = ""square num-button"" onclick = ""recordClick(this)""><div class = content><div class = numbers>7</div></div></button><button id = button_8 class = ""square num-button"" onclick = ""recordClick(this)""><div class = content><div class = numbers>8</div></div></button><button id = button_9 class = ""square num-button"" onclick = ""recordClick(this)""><div class = content><div class = numbers>9</div></div></button><button class = clear_button id = ""ClearButton"" onclick = ""clearResponse()"">Clear</button><p><u><b>Current Answer:</b></u></p><div id=echoed_txt style=""font-size: 6rem; color:blue;""><b></b></div></div><br><br><br><br><br><br><br>",enter,fwdspan,response,1ABfEPNehdbP4SBSEFdHCdJqdF32,html-keyboard-response,142,866572,0.0-7.0-2.11-0.11-3.11,7.0,"[1,2,5,4,9,2,3]","[1,2,4,5,6,9,3]",0.0,"[3, 4, 5, 6, 7, 7, 8, 8, 7, 7, 6, 7]",,6131f6711c0d96f6f1fb04af,11:25:07 AM,1/15/2024
,,,fwdspan,update_span,1ABfEPNehdbP4SBSEFdHCdJqdF32,call-function,143,866841,0.0-7.0-2.11-0.11-4.11,,,,,,,6131f6711c0d96f6f1fb04af,11:25:07 AM,1/15/2024
29490.0,,{'Q0': 'everything was good I was not great at remembering the no'},fwdspan,survey,1ABfEPNehdbP4SBSEFdHCdJqdF32,lmdlab-survey-text,144,897094,0.0-7.0-3.0,,,,,,1ABfEPNehdbP4SBSEFdHCdJqdF32,6131f6711c0d96f6f1fb04af,11:25:07 AM,1/15/2024
1618.0,<p><p style='font-size: 3rem'>Great work!<br><br>This completes the digit span task.</p><br><br><br>,0,fwdspan,finish,1ABfEPNehdbP4SBSEFdHCdJqdF32,html-button-response,145,898720,0.0-7.0-4.0,,,,,,,6131f6711c0d96f6f1fb04af,11:25:07 AM,1/15/2024
