rt,stimulus,response,exp_name,exp_stage,subjectID,trial_type,trial_index,time_elapsed,internal_node_id,span,answer,correct,correct_full,span_history,databaseID,prolificID,start_time,date
2809.9000000003725,"<p style=""font-size:4rem""><br><br>In the next part today, we have a completely different short task.<br><br><br>This part involves keeping numbers in you mind. Participation takes around 5 minutes.<br><br><br></p>",0,fwdspan,instruct,jx7bl8HKAiWJBMR6xPXQ6l4Mwpk1,html-button-response,19,222450,0.0-7.0-0.0,,,,,,,63f77df437de29d7fd62b0c8,11:17:22,15/01/2024
4550.9000000003725,"<p style=""font-size:5rem"">Welcome to the <b>digit span task</b>!<br><br></p><p style=""font-size:3.4rem""><br>On each trial, you will see a sequence of digits, followed by a delay.</p><p style=""font-size:3.4rem""><br>Then you will be asked to type them back in the same order in which they were seen.</p><p style=""font-size:3.4rem""><br><br><br>For example, if you saw the digits <b style=""color:blue;"">1</b>, <b style=""color:blue;"">2</b>, <b style=""color:blue;"">3</b>, you would respond with <b style=""color:blue;"">1</b>, <b style=""color:blue;"">2</b>, <b style=""color:blue;"">3</b></p><p style=""font-size:3.4rem""><br><br><br>To ensure the best measure of true performance for our study,<br><br>it is very important that you do not use any memory aid (e.g., pen and paper).<br><br>Please do the task solely in your head.</p><p style=""font-size:3.4rem""><br><br><br>There will be 12 total trials. Participation takes around 5 minutes.</p><br><br><br>",0,fwdspan,instruct,jx7bl8HKAiWJBMR6xPXQ6l4Mwpk1,html-button-response,20,227002,0.0-7.0-1.0,,,,,,,63f77df437de29d7fd62b0c8,11:17:22,15/01/2024
1318.5999999996275,"<p style=""font-size:3rem"">Trial 1 of 12</p><br><br><br>",0,fwdspan,start_trial,jx7bl8HKAiWJBMR6xPXQ6l4Mwpk1,html-button-response,21,228322,0.0-7.0-2.0-0.0-0.0,,,,,,,63f77df437de29d7fd62b0c8,11:17:22,15/01/2024
,"<p style=""font-size:14rem;font-weight:400;"">1</p>",,fwdspan,number,jx7bl8HKAiWJBMR6xPXQ6l4Mwpk1,html-keyboard-response,22,229346,0.0-7.0-2.0-0.0-1.0-0.0,,,,,,,63f77df437de29d7fd62b0c8,11:17:22,15/01/2024
,"<p style=""font-size:14rem;font-weight:400;"">9</p>",,fwdspan,number,jx7bl8HKAiWJBMR6xPXQ6l4Mwpk1,html-keyboard-response,23,230367,0.0-7.0-2.0-0.0-1.1-0.1,,,,,,,63f77df437de29d7fd62b0c8,11:17:22,15/01/2024
,"<p style=""font-size:14rem;font-weight:400;"">4</p>",,fwdspan,number,jx7bl8HKAiWJBMR6xPXQ6l4Mwpk1,html-keyboard-response,24,231388,0.0-7.0-2.0-0.0-1.2-0.2,,,,,,,63f77df437de29d7fd62b0c8,11:17:22,15/01/2024
,[],,fwdspan,delay,jx7bl8HKAiWJBMR6xPXQ6l4Mwpk1,html-keyboard-response,25,231952,0.0-7.0-2.0-0.0-2.0,,,,,,,63f77df437de29d7fd62b0c8,11:17:22,15/01/2024
4489.200000000186,"<div class = numbox><p style=""font-size:2.5rem"">What were the numbers <b>in order</b>?<br>(When you are ready to lock in your answer, press <b>ENTER</b>)</p><button id = button_1 class = ""square num-button"" onclick = ""recordClick(this)""><div class = content><div class = numbers>1</div></div></button><button id = button_2 class = ""square num-button"" onclick = ""recordClick(this)""><div class = content><div class = numbers>2</div></div></button><button id = button_3 class = ""square num-button"" onclick = ""recordClick(this)""><div class = content><div class = numbers>3</div></div></button><button id = button_4 class = ""square num-button"" onclick = ""recordClick(this)""><div class = content><div class = numbers>4</div></div></button><button id = button_5 class = ""square num-button"" onclick = ""recordClick(this)""><div class = content><div class = numbers>5</div></div></button><button id = button_6 class = ""square num-button"" onclick = ""recordClick(this)""><div class = content><div class = numbers>6</div></div></button><button id = button_7 class = ""square num-button"" onclick = ""recordClick(this)""><div class = content><div class = numbers>7</div></div></button><button id = button_8 class = ""square num-button"" onclick = ""recordClick(this)""><div class = content><div class = numbers>8</div></div></button><button id = button_9 class = ""square num-button"" onclick = ""recordClick(this)""><div class = content><div class = numbers>9</div></div></button><button class = clear_button id = ""ClearButton"" onclick = ""clearResponse()"">Clear</button><p><u><b>Current Answer:</b></u></p><div id=echoed_txt style=""font-size: 6rem; color:blue;""><b></b></div></div><br><br><br><br><br><br><br>",enter,fwdspan,response,jx7bl8HKAiWJBMR6xPXQ6l4Mwpk1,html-keyboard-response,26,236443,0.0-7.0-2.0-0.0-3.0,3.0,"[1,9,4]","[1,9,4]",1.0,"[3, 4, 5, 6, 7, 8, 8, 9, 10, 10, 9, 9]",,63f77df437de29d7fd62b0c8,11:17:22,15/01/2024
,,,fwdspan,update_span,jx7bl8HKAiWJBMR6xPXQ6l4Mwpk1,call-function,27,236695,0.0-7.0-2.0-0.0-4.0,,,,,,,63f77df437de29d7fd62b0c8,11:17:22,15/01/2024
1385.2000000001863,"<p style=""font-size:3rem"">Trial 2 of 12</p><br><br><br>",0,fwdspan,start_trial,jx7bl8HKAiWJBMR6xPXQ6l4Mwpk1,html-button-response,28,238082,0.0-7.0-2.1-0.1-0.1,,,,,,,63f77df437de29d7fd62b0c8,11:17:22,15/01/2024
,"<p style=""font-size:14rem;font-weight:400;"">5</p>",,fwdspan,number,jx7bl8HKAiWJBMR6xPXQ6l4Mwpk1,html-keyboard-response,29,239095,0.0-7.0-2.1-0.1-1.3-0.3,,,,,,,63f77df437de29d7fd62b0c8,11:17:22,15/01/2024
,"<p style=""font-size:14rem;font-weight:400;"">3</p>",,fwdspan,number,jx7bl8HKAiWJBMR6xPXQ6l4Mwpk1,html-keyboard-response,30,240111,0.0-7.0-2.1-0.1-1.4-0.4,,,,,,,63f77df437de29d7fd62b0c8,11:17:22,15/01/2024
,"<p style=""font-size:14rem;font-weight:400;"">6</p>",,fwdspan,number,jx7bl8HKAiWJBMR6xPXQ6l4Mwpk1,html-keyboard-response,31,241128,0.0-7.0-2.1-0.1-1.5-0.5,,,,,,,63f77df437de29d7fd62b0c8,11:17:22,15/01/2024
,"<p style=""font-size:14rem;font-weight:400;"">8</p>",,fwdspan,number,jx7bl8HKAiWJBMR6xPXQ6l4Mwpk1,html-keyboard-response,32,242143,0.0-7.0-2.1-0.1-1.6-0.6,,,,,,,63f77df437de29d7fd62b0c8,11:17:22,15/01/2024
,[],,fwdspan,delay,jx7bl8HKAiWJBMR6xPXQ6l4Mwpk1,html-keyboard-response,33,242696,0.0-7.0-2.1-0.1-2.1,,,,,,,63f77df437de29d7fd62b0c8,11:17:22,15/01/2024
2320.899999999441,"<div class = numbox><p style=""font-size:2.5rem"">What were the numbers <b>in order</b>?<br>(When you are ready to lock in your answer, press <b>ENTER</b>)</p><button id = button_1 class = ""square num-button"" onclick = ""recordClick(this)""><div class = content><div class = numbers>1</div></div></button><button id = button_2 class = ""square num-button"" onclick = ""recordClick(this)""><div class = content><div class = numbers>2</div></div></button><button id = button_3 class = ""square num-button"" onclick = ""recordClick(this)""><div class = content><div class = numbers>3</div></div></button><button id = button_4 class = ""square num-button"" onclick = ""recordClick(this)""><div class = content><div class = numbers>4</div></div></button><button id = button_5 class = ""square num-button"" onclick = ""recordClick(this)""><div class = content><div class = numbers>5</div></div></button><button id = button_6 class = ""square num-button"" onclick = ""recordClick(this)""><div class = content><div class = numbers>6</div></div></button><button id = button_7 class = ""square num-button"" onclick = ""recordClick(this)""><div class = content><div class = numbers>7</div></div></button><button id = button_8 class = ""square num-button"" onclick = ""recordClick(this)""><div class = content><div class = numbers>8</div></div></button><button id = button_9 class = ""square num-button"" onclick = ""recordClick(this)""><div class = content><div class = numbers>9</div></div></button><button class = clear_button id = ""ClearButton"" onclick = ""clearResponse()"">Clear</button><p><u><b>Current Answer:</b></u></p><div id=echoed_txt style=""font-size: 6rem; color:blue;""><b></b></div></div><br><br><br><br><br><br><br>",enter,fwdspan,response,jx7bl8HKAiWJBMR6xPXQ6l4Mwpk1,html-keyboard-response,34,245018,0.0-7.0-2.1-0.1-3.1,4.0,"[5,3,6,8]","[5,3,6,8]",1.0,"[3, 4, 5, 6, 7, 8, 8, 9, 10, 10, 9, 9]",,63f77df437de29d7fd62b0c8,11:17:22,15/01/2024
,,,fwdspan,update_span,jx7bl8HKAiWJBMR6xPXQ6l4Mwpk1,call-function,35,245271,0.0-7.0-2.1-0.1-4.1,,,,,,,63f77df437de29d7fd62b0c8,11:17:22,15/01/2024
2002.2000000001863,"<p style=""font-size:3rem"">Trial 3 of 12</p><br><br><br>",0,fwdspan,start_trial,jx7bl8HKAiWJBMR6xPXQ6l4Mwpk1,html-button-response,36,247274,0.0-7.0-2.2-0.2-0.2,,,,,,,63f77df437de29d7fd62b0c8,11:17:22,15/01/2024
,"<p style=""font-size:14rem;font-weight:400;"">5</p>",,fwdspan,number,jx7bl8HKAiWJBMR6xPXQ6l4Mwpk1,html-keyboard-response,37,248290,0.0-7.0-2.2-0.2-1.7-0.7,,,,,,,63f77df437de29d7fd62b0c8,11:17:22,15/01/2024
,"<p style=""font-size:14rem;font-weight:400;"">2</p>",,fwdspan,number,jx7bl8HKAiWJBMR6xPXQ6l4Mwpk1,html-keyboard-response,38,249310,0.0-7.0-2.2-0.2-1.8-0.8,,,,,,,63f77df437de29d7fd62b0c8,11:17:22,15/01/2024
,"<p style=""font-size:14rem;font-weight:400;"">7</p>",,fwdspan,number,jx7bl8HKAiWJBMR6xPXQ6l4Mwpk1,html-keyboard-response,39,250325,0.0-7.0-2.2-0.2-1.9-0.9,,,,,,,63f77df437de29d7fd62b0c8,11:17:22,15/01/2024
,"<p style=""font-size:14rem;font-weight:400;"">3</p>",,fwdspan,number,jx7bl8HKAiWJBMR6xPXQ6l4Mwpk1,html-keyboard-response,40,251348,0.0-7.0-2.2-0.2-1.10-0.10,,,,,,,63f77df437de29d7fd62b0c8,11:17:22,15/01/2024
,"<p style=""font-size:14rem;font-weight:400;"">1</p>",,fwdspan,number,jx7bl8HKAiWJBMR6xPXQ6l4Mwpk1,html-keyboard-response,41,252374,0.0-7.0-2.2-0.2-1.11-0.11,,,,,,,63f77df437de29d7fd62b0c8,11:17:22,15/01/2024
,[],,fwdspan,delay,jx7bl8HKAiWJBMR6xPXQ6l4Mwpk1,html-keyboard-response,42,252926,0.0-7.0-2.2-0.2-2.2,,,,,,,63f77df437de29d7fd62b0c8,11:17:22,15/01/2024
3234.7999999998137,"<div class = numbox><p style=""font-size:2.5rem"">What were the numbers <b>in order</b>?<br>(When you are ready to lock in your answer, press <b>ENTER</b>)</p><button id = button_1 class = ""square num-button"" onclick = ""recordClick(this)""><div class = content><div class = numbers>1</div></div></button><button id = button_2 class = ""square num-button"" onclick = ""recordClick(this)""><div class = content><div class = numbers>2</div></div></button><button id = button_3 class = ""square num-button"" onclick = ""recordClick(this)""><div class = content><div class = numbers>3</div></div></button><button id = button_4 class = ""square num-button"" onclick = ""recordClick(this)""><div class = content><div class = numbers>4</div></div></button><button id = button_5 class = ""square num-button"" onclick = ""recordClick(this)""><div class = content><div class = numbers>5</div></div></button><button id = button_6 class = ""square num-button"" onclick = ""recordClick(this)""><div class = content><div class = numbers>6</div></div></button><button id = button_7 class = ""square num-button"" onclick = ""recordClick(this)""><div class = content><div class = numbers>7</div></div></button><button id = button_8 class = ""square num-button"" onclick = ""recordClick(this)""><div class = content><div class = numbers>8</div></div></button><button id = button_9 class = ""square num-button"" onclick = ""recordClick(this)""><div class = content><div class = numbers>9</div></div></button><button class = clear_button id = ""ClearButton"" onclick = ""clearResponse()"">Clear</button><p><u><b>Current Answer:</b></u></p><div id=echoed_txt style=""font-size: 6rem; color:blue;""><b></b></div></div><br><br><br><br><br><br><br>",enter,fwdspan,response,jx7bl8HKAiWJBMR6xPXQ6l4Mwpk1,html-keyboard-response,43,256162,0.0-7.0-2.2-0.2-3.2,5.0,"[5,2,7,3,1]","[5,2,7,3,1]",1.0,"[3, 4, 5, 6, 7, 8, 8, 9, 10, 10, 9, 9]",,63f77df437de29d7fd62b0c8,11:17:22,15/01/2024
,,,fwdspan,update_span,jx7bl8HKAiWJBMR6xPXQ6l4Mwpk1,call-function,44,256418,0.0-7.0-2.2-0.2-4.2,,,,,,,63f77df437de29d7fd62b0c8,11:17:22,15/01/2024
1783.300000000745,"<p style=""font-size:3rem"">Trial 4 of 12</p><br><br><br>",0,fwdspan,start_trial,jx7bl8HKAiWJBMR6xPXQ6l4Mwpk1,html-button-response,45,258202,0.0-7.0-2.3-0.3-0.3,,,,,,,63f77df437de29d7fd62b0c8,11:17:22,15/01/2024
,"<p style=""font-size:14rem;font-weight:400;"">4</p>",,fwdspan,number,jx7bl8HKAiWJBMR6xPXQ6l4Mwpk1,html-keyboard-response,46,259219,0.0-7.0-2.3-0.3-1.12-0.12,,,,,,,63f77df437de29d7fd62b0c8,11:17:22,15/01/2024
,"<p style=""font-size:14rem;font-weight:400;"">7</p>",,fwdspan,number,jx7bl8HKAiWJBMR6xPXQ6l4Mwpk1,html-keyboard-response,47,260247,0.0-7.0-2.3-0.3-1.13-0.13,,,,,,,63f77df437de29d7fd62b0c8,11:17:22,15/01/2024
,"<p style=""font-size:14rem;font-weight:400;"">3</p>",,fwdspan,number,jx7bl8HKAiWJBMR6xPXQ6l4Mwpk1,html-keyboard-response,48,261259,0.0-7.0-2.3-0.3-1.14-0.14,,,,,,,63f77df437de29d7fd62b0c8,11:17:22,15/01/2024
,"<p style=""font-size:14rem;font-weight:400;"">1</p>",,fwdspan,number,jx7bl8HKAiWJBMR6xPXQ6l4Mwpk1,html-keyboard-response,49,262282,0.0-7.0-2.3-0.3-1.15-0.15,,,,,,,63f77df437de29d7fd62b0c8,11:17:22,15/01/2024
,"<p style=""font-size:14rem;font-weight:400;"">2</p>",,fwdspan,number,jx7bl8HKAiWJBMR6xPXQ6l4Mwpk1,html-keyboard-response,50,263311,0.0-7.0-2.3-0.3-1.16-0.16,,,,,,,63f77df437de29d7fd62b0c8,11:17:22,15/01/2024
,"<p style=""font-size:14rem;font-weight:400;"">6</p>",,fwdspan,number,jx7bl8HKAiWJBMR6xPXQ6l4Mwpk1,html-keyboard-response,51,264333,0.0-7.0-2.3-0.3-1.17-0.17,,,,,,,63f77df437de29d7fd62b0c8,11:17:22,15/01/2024
,[],,fwdspan,delay,jx7bl8HKAiWJBMR6xPXQ6l4Mwpk1,html-keyboard-response,52,264900,0.0-7.0-2.3-0.3-2.3,,,,,,,63f77df437de29d7fd62b0c8,11:17:22,15/01/2024
2996.7000000001863,"<div class = numbox><p style=""font-size:2.5rem"">What were the numbers <b>in order</b>?<br>(When you are ready to lock in your answer, press <b>ENTER</b>)</p><button id = button_1 class = ""square num-button"" onclick = ""recordClick(this)""><div class = content><div class = numbers>1</div></div></button><button id = button_2 class = ""square num-button"" onclick = ""recordClick(this)""><div class = content><div class = numbers>2</div></div></button><button id = button_3 class = ""square num-button"" onclick = ""recordClick(this)""><div class = content><div class = numbers>3</div></div></button><button id = button_4 class = ""square num-button"" onclick = ""recordClick(this)""><div class = content><div class = numbers>4</div></div></button><button id = button_5 class = ""square num-button"" onclick = ""recordClick(this)""><div class = content><div class = numbers>5</div></div></button><button id = button_6 class = ""square num-button"" onclick = ""recordClick(this)""><div class = content><div class = numbers>6</div></div></button><button id = button_7 class = ""square num-button"" onclick = ""recordClick(this)""><div class = content><div class = numbers>7</div></div></button><button id = button_8 class = ""square num-button"" onclick = ""recordClick(this)""><div class = content><div class = numbers>8</div></div></button><button id = button_9 class = ""square num-button"" onclick = ""recordClick(this)""><div class = content><div class = numbers>9</div></div></button><button class = clear_button id = ""ClearButton"" onclick = ""clearResponse()"">Clear</button><p><u><b>Current Answer:</b></u></p><div id=echoed_txt style=""font-size: 6rem; color:blue;""><b></b></div></div><br><br><br><br><br><br><br>",enter,fwdspan,response,jx7bl8HKAiWJBMR6xPXQ6l4Mwpk1,html-keyboard-response,53,267898,0.0-7.0-2.3-0.3-3.3,6.0,"[4,7,3,1,2,6]","[4,7,3,1,2,6]",1.0,"[3, 4, 5, 6, 7, 8, 8, 9, 10, 10, 9, 9]",,63f77df437de29d7fd62b0c8,11:17:22,15/01/2024
,,,fwdspan,update_span,jx7bl8HKAiWJBMR6xPXQ6l4Mwpk1,call-function,54,268154,0.0-7.0-2.3-0.3-4.3,,,,,,,63f77df437de29d7fd62b0c8,11:17:22,15/01/2024
1438.3999999994412,"<p style=""font-size:3rem"">Trial 5 of 12</p><br><br><br>",0,fwdspan,start_trial,jx7bl8HKAiWJBMR6xPXQ6l4Mwpk1,html-button-response,55,269594,0.0-7.0-2.4-0.4-0.4,,,,,,,63f77df437de29d7fd62b0c8,11:17:22,15/01/2024
,"<p style=""font-size:14rem;font-weight:400;"">6</p>",,fwdspan,number,jx7bl8HKAiWJBMR6xPXQ6l4Mwpk1,html-keyboard-response,56,270617,0.0-7.0-2.4-0.4-1.18-0.18,,,,,,,63f77df437de29d7fd62b0c8,11:17:22,15/01/2024
,"<p style=""font-size:14rem;font-weight:400;"">1</p>",,fwdspan,number,jx7bl8HKAiWJBMR6xPXQ6l4Mwpk1,html-keyboard-response,57,271637,0.0-7.0-2.4-0.4-1.19-0.19,,,,,,,63f77df437de29d7fd62b0c8,11:17:22,15/01/2024
,"<p style=""font-size:14rem;font-weight:400;"">2</p>",,fwdspan,number,jx7bl8HKAiWJBMR6xPXQ6l4Mwpk1,html-keyboard-response,58,272654,0.0-7.0-2.4-0.4-1.20-0.20,,,,,,,63f77df437de29d7fd62b0c8,11:17:22,15/01/2024
,"<p style=""font-size:14rem;font-weight:400;"">4</p>",,fwdspan,number,jx7bl8HKAiWJBMR6xPXQ6l4Mwpk1,html-keyboard-response,59,273680,0.0-7.0-2.4-0.4-1.21-0.21,,,,,,,63f77df437de29d7fd62b0c8,11:17:22,15/01/2024
,"<p style=""font-size:14rem;font-weight:400;"">5</p>",,fwdspan,number,jx7bl8HKAiWJBMR6xPXQ6l4Mwpk1,html-keyboard-response,60,274709,0.0-7.0-2.4-0.4-1.22-0.22,,,,,,,63f77df437de29d7fd62b0c8,11:17:22,15/01/2024
,"<p style=""font-size:14rem;font-weight:400;"">7</p>",,fwdspan,number,jx7bl8HKAiWJBMR6xPXQ6l4Mwpk1,html-keyboard-response,61,275736,0.0-7.0-2.4-0.4-1.23-0.23,,,,,,,63f77df437de29d7fd62b0c8,11:17:22,15/01/2024
,"<p style=""font-size:14rem;font-weight:400;"">9</p>",,fwdspan,number,jx7bl8HKAiWJBMR6xPXQ6l4Mwpk1,html-keyboard-response,62,276748,0.0-7.0-2.4-0.4-1.24-0.24,,,,,,,63f77df437de29d7fd62b0c8,11:17:22,15/01/2024
,[],,fwdspan,delay,jx7bl8HKAiWJBMR6xPXQ6l4Mwpk1,html-keyboard-response,63,277300,0.0-7.0-2.4-0.4-2.4,,,,,,,63f77df437de29d7fd62b0c8,11:17:22,15/01/2024
3339.0999999996275,"<div class = numbox><p style=""font-size:2.5rem"">What were the numbers <b>in order</b>?<br>(When you are ready to lock in your answer, press <b>ENTER</b>)</p><button id = button_1 class = ""square num-button"" onclick = ""recordClick(this)""><div class = content><div class = numbers>1</div></div></button><button id = button_2 class = ""square num-button"" onclick = ""recordClick(this)""><div class = content><div class = numbers>2</div></div></button><button id = button_3 class = ""square num-button"" onclick = ""recordClick(this)""><div class = content><div class = numbers>3</div></div></button><button id = button_4 class = ""square num-button"" onclick = ""recordClick(this)""><div class = content><div class = numbers>4</div></div></button><button id = button_5 class = ""square num-button"" onclick = ""recordClick(this)""><div class = content><div class = numbers>5</div></div></button><button id = button_6 class = ""square num-button"" onclick = ""recordClick(this)""><div class = content><div class = numbers>6</div></div></button><button id = button_7 class = ""square num-button"" onclick = ""recordClick(this)""><div class = content><div class = numbers>7</div></div></button><button id = button_8 class = ""square num-button"" onclick = ""recordClick(this)""><div class = content><div class = numbers>8</div></div></button><button id = button_9 class = ""square num-button"" onclick = ""recordClick(this)""><div class = content><div class = numbers>9</div></div></button><button class = clear_button id = ""ClearButton"" onclick = ""clearResponse()"">Clear</button><p><u><b>Current Answer:</b></u></p><div id=echoed_txt style=""font-size: 6rem; color:blue;""><b></b></div></div><br><br><br><br><br><br><br>",enter,fwdspan,response,jx7bl8HKAiWJBMR6xPXQ6l4Mwpk1,html-keyboard-response,64,280641,0.0-7.0-2.4-0.4-3.4,7.0,"[6,1,2,4,5,7,9]","[6,1,2,4,5,7,9]",1.0,"[3, 4, 5, 6, 7, 8, 8, 9, 10, 10, 9, 9]",,63f77df437de29d7fd62b0c8,11:17:22,15/01/2024
,,,fwdspan,update_span,jx7bl8HKAiWJBMR6xPXQ6l4Mwpk1,call-function,65,280896,0.0-7.0-2.4-0.4-4.4,,,,,,,63f77df437de29d7fd62b0c8,11:17:22,15/01/2024
1143.2999999998137,"<p style=""font-size:3rem"">Trial 6 of 12</p><br><br><br>",0,fwdspan,start_trial,jx7bl8HKAiWJBMR6xPXQ6l4Mwpk1,html-button-response,66,282040,0.0-7.0-2.5-0.5-0.5,,,,,,,63f77df437de29d7fd62b0c8,11:17:22,15/01/2024
,"<p style=""font-size:14rem;font-weight:400;"">7</p>",,fwdspan,number,jx7bl8HKAiWJBMR6xPXQ6l4Mwpk1,html-keyboard-response,67,283051,0.0-7.0-2.5-0.5-1.25-0.25,,,,,,,63f77df437de29d7fd62b0c8,11:17:22,15/01/2024
,"<p style=""font-size:14rem;font-weight:400;"">1</p>",,fwdspan,number,jx7bl8HKAiWJBMR6xPXQ6l4Mwpk1,html-keyboard-response,68,284076,0.0-7.0-2.5-0.5-1.26-0.26,,,,,,,63f77df437de29d7fd62b0c8,11:17:22,15/01/2024
,"<p style=""font-size:14rem;font-weight:400;"">5</p>",,fwdspan,number,jx7bl8HKAiWJBMR6xPXQ6l4Mwpk1,html-keyboard-response,69,285096,0.0-7.0-2.5-0.5-1.27-0.27,,,,,,,63f77df437de29d7fd62b0c8,11:17:22,15/01/2024
,"<p style=""font-size:14rem;font-weight:400;"">2</p>",,fwdspan,number,jx7bl8HKAiWJBMR6xPXQ6l4Mwpk1,html-keyboard-response,70,286114,0.0-7.0-2.5-0.5-1.28-0.28,,,,,,,63f77df437de29d7fd62b0c8,11:17:22,15/01/2024
,"<p style=""font-size:14rem;font-weight:400;"">6</p>",,fwdspan,number,jx7bl8HKAiWJBMR6xPXQ6l4Mwpk1,html-keyboard-response,71,287136,0.0-7.0-2.5-0.5-1.29-0.29,,,,,,,63f77df437de29d7fd62b0c8,11:17:22,15/01/2024
,"<p style=""font-size:14rem;font-weight:400;"">4</p>",,fwdspan,number,jx7bl8HKAiWJBMR6xPXQ6l4Mwpk1,html-keyboard-response,72,288150,0.0-7.0-2.5-0.5-1.30-0.30,,,,,,,63f77df437de29d7fd62b0c8,11:17:22,15/01/2024
,"<p style=""font-size:14rem;font-weight:400;"">3</p>",,fwdspan,number,jx7bl8HKAiWJBMR6xPXQ6l4Mwpk1,html-keyboard-response,73,289154,0.0-7.0-2.5-0.5-1.31-0.31,,,,,,,63f77df437de29d7fd62b0c8,11:17:22,15/01/2024
,"<p style=""font-size:14rem;font-weight:400;"">9</p>",,fwdspan,number,jx7bl8HKAiWJBMR6xPXQ6l4Mwpk1,html-keyboard-response,74,290167,0.0-7.0-2.5-0.5-1.32-0.32,,,,,,,63f77df437de29d7fd62b0c8,11:17:22,15/01/2024
,[],,fwdspan,delay,jx7bl8HKAiWJBMR6xPXQ6l4Mwpk1,html-keyboard-response,75,290742,0.0-7.0-2.5-0.5-2.5,,,,,,,63f77df437de29d7fd62b0c8,11:17:22,15/01/2024
9577.200000000186,"<div class = numbox><p style=""font-size:2.5rem"">What were the numbers <b>in order</b>?<br>(When you are ready to lock in your answer, press <b>ENTER</b>)</p><button id = button_1 class = ""square num-button"" onclick = ""recordClick(this)""><div class = content><div class = numbers>1</div></div></button><button id = button_2 class = ""square num-button"" onclick = ""recordClick(this)""><div class = content><div class = numbers>2</div></div></button><button id = button_3 class = ""square num-button"" onclick = ""recordClick(this)""><div class = content><div class = numbers>3</div></div></button><button id = button_4 class = ""square num-button"" onclick = ""recordClick(this)""><div class = content><div class = numbers>4</div></div></button><button id = button_5 class = ""square num-button"" onclick = ""recordClick(this)""><div class = content><div class = numbers>5</div></div></button><button id = button_6 class = ""square num-button"" onclick = ""recordClick(this)""><div class = content><div class = numbers>6</div></div></button><button id = button_7 class = ""square num-button"" onclick = ""recordClick(this)""><div class = content><div class = numbers>7</div></div></button><button id = button_8 class = ""square num-button"" onclick = ""recordClick(this)""><div class = content><div class = numbers>8</div></div></button><button id = button_9 class = ""square num-button"" onclick = ""recordClick(this)""><div class = content><div class = numbers>9</div></div></button><button class = clear_button id = ""ClearButton"" onclick = ""clearResponse()"">Clear</button><p><u><b>Current Answer:</b></u></p><div id=echoed_txt style=""font-size: 6rem; color:blue;""><b></b></div></div><br><br><br><br><br><br><br>",enter,fwdspan,response,jx7bl8HKAiWJBMR6xPXQ6l4Mwpk1,html-keyboard-response,76,300321,0.0-7.0-2.5-0.5-3.5,8.0,"[7,1,6,2,5,4,3,9]","[7,1,5,2,6,4,3,9]",0.0,"[3, 4, 5, 6, 7, 8, 8, 9, 10, 10, 9, 9]",,63f77df437de29d7fd62b0c8,11:17:22,15/01/2024
,,,fwdspan,update_span,jx7bl8HKAiWJBMR6xPXQ6l4Mwpk1,call-function,77,300575,0.0-7.0-2.5-0.5-4.5,,,,,,,63f77df437de29d7fd62b0c8,11:17:22,15/01/2024
904.5999999996275,"<p style=""font-size:3rem"">Trial 7 of 12</p><br><br><br>",0,fwdspan,start_trial,jx7bl8HKAiWJBMR6xPXQ6l4Mwpk1,html-button-response,78,301480,0.0-7.0-2.6-0.6-0.6,,,,,,,63f77df437de29d7fd62b0c8,11:17:22,15/01/2024
,"<p style=""font-size:14rem;font-weight:400;"">8</p>",,fwdspan,number,jx7bl8HKAiWJBMR6xPXQ6l4Mwpk1,html-keyboard-response,79,302507,0.0-7.0-2.6-0.6-1.33-0.33,,,,,,,63f77df437de29d7fd62b0c8,11:17:22,15/01/2024
,"<p style=""font-size:14rem;font-weight:400;"">9</p>",,fwdspan,number,jx7bl8HKAiWJBMR6xPXQ6l4Mwpk1,html-keyboard-response,80,303517,0.0-7.0-2.6-0.6-1.34-0.34,,,,,,,63f77df437de29d7fd62b0c8,11:17:22,15/01/2024
,"<p style=""font-size:14rem;font-weight:400;"">2</p>",,fwdspan,number,jx7bl8HKAiWJBMR6xPXQ6l4Mwpk1,html-keyboard-response,81,304534,0.0-7.0-2.6-0.6-1.35-0.35,,,,,,,63f77df437de29d7fd62b0c8,11:17:22,15/01/2024
,"<p style=""font-size:14rem;font-weight:400;"">5</p>",,fwdspan,number,jx7bl8HKAiWJBMR6xPXQ6l4Mwpk1,html-keyboard-response,82,305553,0.0-7.0-2.6-0.6-1.36-0.36,,,,,,,63f77df437de29d7fd62b0c8,11:17:22,15/01/2024
,"<p style=""font-size:14rem;font-weight:400;"">4</p>",,fwdspan,number,jx7bl8HKAiWJBMR6xPXQ6l4Mwpk1,html-keyboard-response,83,306565,0.0-7.0-2.6-0.6-1.37-0.37,,,,,,,63f77df437de29d7fd62b0c8,11:17:22,15/01/2024
,"<p style=""font-size:14rem;font-weight:400;"">6</p>",,fwdspan,number,jx7bl8HKAiWJBMR6xPXQ6l4Mwpk1,html-keyboard-response,84,307593,0.0-7.0-2.6-0.6-1.38-0.38,,,,,,,63f77df437de29d7fd62b0c8,11:17:22,15/01/2024
,"<p style=""font-size:14rem;font-weight:400;"">1</p>",,fwdspan,number,jx7bl8HKAiWJBMR6xPXQ6l4Mwpk1,html-keyboard-response,85,308621,0.0-7.0-2.6-0.6-1.39-0.39,,,,,,,63f77df437de29d7fd62b0c8,11:17:22,15/01/2024
,"<p style=""font-size:14rem;font-weight:400;"">7</p>",,fwdspan,number,jx7bl8HKAiWJBMR6xPXQ6l4Mwpk1,html-keyboard-response,86,309634,0.0-7.0-2.6-0.6-1.40-0.40,,,,,,,63f77df437de29d7fd62b0c8,11:17:22,15/01/2024
,[],,fwdspan,delay,jx7bl8HKAiWJBMR6xPXQ6l4Mwpk1,html-keyboard-response,87,310199,0.0-7.0-2.6-0.6-2.6,,,,,,,63f77df437de29d7fd62b0c8,11:17:22,15/01/2024
4783.899999999441,"<div class = numbox><p style=""font-size:2.5rem"">What were the numbers <b>in order</b>?<br>(When you are ready to lock in your answer, press <b>ENTER</b>)</p><button id = button_1 class = ""square num-button"" onclick = ""recordClick(this)""><div class = content><div class = numbers>1</div></div></button><button id = button_2 class = ""square num-button"" onclick = ""recordClick(this)""><div class = content><div class = numbers>2</div></div></button><button id = button_3 class = ""square num-button"" onclick = ""recordClick(this)""><div class = content><div class = numbers>3</div></div></button><button id = button_4 class = ""square num-button"" onclick = ""recordClick(this)""><div class = content><div class = numbers>4</div></div></button><button id = button_5 class = ""square num-button"" onclick = ""recordClick(this)""><div class = content><div class = numbers>5</div></div></button><button id = button_6 class = ""square num-button"" onclick = ""recordClick(this)""><div class = content><div class = numbers>6</div></div></button><button id = button_7 class = ""square num-button"" onclick = ""recordClick(this)""><div class = content><div class = numbers>7</div></div></button><button id = button_8 class = ""square num-button"" onclick = ""recordClick(this)""><div class = content><div class = numbers>8</div></div></button><button id = button_9 class = ""square num-button"" onclick = ""recordClick(this)""><div class = content><div class = numbers>9</div></div></button><button class = clear_button id = ""ClearButton"" onclick = ""clearResponse()"">Clear</button><p><u><b>Current Answer:</b></u></p><div id=echoed_txt style=""font-size: 6rem; color:blue;""><b></b></div></div><br><br><br><br><br><br><br>",enter,fwdspan,response,jx7bl8HKAiWJBMR6xPXQ6l4Mwpk1,html-keyboard-response,88,314985,0.0-7.0-2.6-0.6-3.6,8.0,"[8,9,2,5,4,6,1,7]","[8,9,2,5,4,6,1,7]",1.0,"[3, 4, 5, 6, 7, 8, 8, 9, 10, 10, 9, 9]",,63f77df437de29d7fd62b0c8,11:17:22,15/01/2024
,,,fwdspan,update_span,jx7bl8HKAiWJBMR6xPXQ6l4Mwpk1,call-function,89,315240,0.0-7.0-2.6-0.6-4.6,,,,,,,63f77df437de29d7fd62b0c8,11:17:22,15/01/2024
1135.5,"<p style=""font-size:3rem"">Trial 8 of 12</p><br><br><br>",0,fwdspan,start_trial,jx7bl8HKAiWJBMR6xPXQ6l4Mwpk1,html-button-response,90,316376,0.0-7.0-2.7-0.7-0.7,,,,,,,63f77df437de29d7fd62b0c8,11:17:22,15/01/2024
,"<p style=""font-size:14rem;font-weight:400;"">9</p>",,fwdspan,number,jx7bl8HKAiWJBMR6xPXQ6l4Mwpk1,html-keyboard-response,91,317388,0.0-7.0-2.7-0.7-1.41-0.41,,,,,,,63f77df437de29d7fd62b0c8,11:17:22,15/01/2024
,"<p style=""font-size:14rem;font-weight:400;"">3</p>",,fwdspan,number,jx7bl8HKAiWJBMR6xPXQ6l4Mwpk1,html-keyboard-response,92,318403,0.0-7.0-2.7-0.7-1.42-0.42,,,,,,,63f77df437de29d7fd62b0c8,11:17:22,15/01/2024
,"<p style=""font-size:14rem;font-weight:400;"">7</p>",,fwdspan,number,jx7bl8HKAiWJBMR6xPXQ6l4Mwpk1,html-keyboard-response,93,319427,0.0-7.0-2.7-0.7-1.43-0.43,,,,,,,63f77df437de29d7fd62b0c8,11:17:22,15/01/2024
,"<p style=""font-size:14rem;font-weight:400;"">4</p>",,fwdspan,number,jx7bl8HKAiWJBMR6xPXQ6l4Mwpk1,html-keyboard-response,94,320449,0.0-7.0-2.7-0.7-1.44-0.44,,,,,,,63f77df437de29d7fd62b0c8,11:17:22,15/01/2024
,"<p style=""font-size:14rem;font-weight:400;"">8</p>",,fwdspan,number,jx7bl8HKAiWJBMR6xPXQ6l4Mwpk1,html-keyboard-response,95,321462,0.0-7.0-2.7-0.7-1.45-0.45,,,,,,,63f77df437de29d7fd62b0c8,11:17:22,15/01/2024
,"<p style=""font-size:14rem;font-weight:400;"">5</p>",,fwdspan,number,jx7bl8HKAiWJBMR6xPXQ6l4Mwpk1,html-keyboard-response,96,322487,0.0-7.0-2.7-0.7-1.46-0.46,,,,,,,63f77df437de29d7fd62b0c8,11:17:22,15/01/2024
,"<p style=""font-size:14rem;font-weight:400;"">1</p>",,fwdspan,number,jx7bl8HKAiWJBMR6xPXQ6l4Mwpk1,html-keyboard-response,97,323510,0.0-7.0-2.7-0.7-1.47-0.47,,,,,,,63f77df437de29d7fd62b0c8,11:17:22,15/01/2024
,"<p style=""font-size:14rem;font-weight:400;"">2</p>",,fwdspan,number,jx7bl8HKAiWJBMR6xPXQ6l4Mwpk1,html-keyboard-response,98,324520,0.0-7.0-2.7-0.7-1.48-0.48,,,,,,,63f77df437de29d7fd62b0c8,11:17:22,15/01/2024
,"<p style=""font-size:14rem;font-weight:400;"">6</p>",,fwdspan,number,jx7bl8HKAiWJBMR6xPXQ6l4Mwpk1,html-keyboard-response,99,325533,0.0-7.0-2.7-0.7-1.49-0.49,,,,,,,63f77df437de29d7fd62b0c8,11:17:22,15/01/2024
,[],,fwdspan,delay,jx7bl8HKAiWJBMR6xPXQ6l4Mwpk1,html-keyboard-response,100,326090,0.0-7.0-2.7-0.7-2.7,,,,,,,63f77df437de29d7fd62b0c8,11:17:22,15/01/2024
4484.9000000003725,"<div class = numbox><p style=""font-size:2.5rem"">What were the numbers <b>in order</b>?<br>(When you are ready to lock in your answer, press <b>ENTER</b>)</p><button id = button_1 class = ""square num-button"" onclick = ""recordClick(this)""><div class = content><div class = numbers>1</div></div></button><button id = button_2 class = ""square num-button"" onclick = ""recordClick(this)""><div class = content><div class = numbers>2</div></div></button><button id = button_3 class = ""square num-button"" onclick = ""recordClick(this)""><div class = content><div class = numbers>3</div></div></button><button id = button_4 class = ""square num-button"" onclick = ""recordClick(this)""><div class = content><div class = numbers>4</div></div></button><button id = button_5 class = ""square num-button"" onclick = ""recordClick(this)""><div class = content><div class = numbers>5</div></div></button><button id = button_6 class = ""square num-button"" onclick = ""recordClick(this)""><div class = content><div class = numbers>6</div></div></button><button id = button_7 class = ""square num-button"" onclick = ""recordClick(this)""><div class = content><div class = numbers>7</div></div></button><button id = button_8 class = ""square num-button"" onclick = ""recordClick(this)""><div class = content><div class = numbers>8</div></div></button><button id = button_9 class = ""square num-button"" onclick = ""recordClick(this)""><div class = content><div class = numbers>9</div></div></button><button class = clear_button id = ""ClearButton"" onclick = ""clearResponse()"">Clear</button><p><u><b>Current Answer:</b></u></p><div id=echoed_txt style=""font-size: 6rem; color:blue;""><b></b></div></div><br><br><br><br><br><br><br>",enter,fwdspan,response,jx7bl8HKAiWJBMR6xPXQ6l4Mwpk1,html-keyboard-response,101,330577,0.0-7.0-2.7-0.7-3.7,9.0,"[9,3,7,4,8,5,1,2,6]","[9,3,7,4,8,5,1,2,6]",1.0,"[3, 4, 5, 6, 7, 8, 8, 9, 10, 10, 9, 9]",,63f77df437de29d7fd62b0c8,11:17:22,15/01/2024
,,,fwdspan,update_span,jx7bl8HKAiWJBMR6xPXQ6l4Mwpk1,call-function,102,330841,0.0-7.0-2.7-0.7-4.7,,,,,,,63f77df437de29d7fd62b0c8,11:17:22,15/01/2024
862.2000000001863,"<p style=""font-size:3rem"">Trial 9 of 12</p><br><br><br>",0,fwdspan,start_trial,jx7bl8HKAiWJBMR6xPXQ6l4Mwpk1,html-button-response,103,331704,0.0-7.0-2.8-0.8-0.8,,,,,,,63f77df437de29d7fd62b0c8,11:17:22,15/01/2024
,"<p style=""font-size:14rem;font-weight:400;"">5</p>",,fwdspan,number,jx7bl8HKAiWJBMR6xPXQ6l4Mwpk1,html-keyboard-response,104,332731,0.0-7.0-2.8-0.8-1.50-0.50,,,,,,,63f77df437de29d7fd62b0c8,11:17:22,15/01/2024
,"<p style=""font-size:14rem;font-weight:400;"">2</p>",,fwdspan,number,jx7bl8HKAiWJBMR6xPXQ6l4Mwpk1,html-keyboard-response,105,333751,0.0-7.0-2.8-0.8-1.51-0.51,,,,,,,63f77df437de29d7fd62b0c8,11:17:22,15/01/2024
,"<p style=""font-size:14rem;font-weight:400;"">3</p>",,fwdspan,number,jx7bl8HKAiWJBMR6xPXQ6l4Mwpk1,html-keyboard-response,106,334773,0.0-7.0-2.8-0.8-1.52-0.52,,,,,,,63f77df437de29d7fd62b0c8,11:17:22,15/01/2024
,"<p style=""font-size:14rem;font-weight:400;"">7</p>",,fwdspan,number,jx7bl8HKAiWJBMR6xPXQ6l4Mwpk1,html-keyboard-response,107,335784,0.0-7.0-2.8-0.8-1.53-0.53,,,,,,,63f77df437de29d7fd62b0c8,11:17:22,15/01/2024
,"<p style=""font-size:14rem;font-weight:400;"">9</p>",,fwdspan,number,jx7bl8HKAiWJBMR6xPXQ6l4Mwpk1,html-keyboard-response,108,336806,0.0-7.0-2.8-0.8-1.54-0.54,,,,,,,63f77df437de29d7fd62b0c8,11:17:22,15/01/2024
,"<p style=""font-size:14rem;font-weight:400;"">6</p>",,fwdspan,number,jx7bl8HKAiWJBMR6xPXQ6l4Mwpk1,html-keyboard-response,109,337819,0.0-7.0-2.8-0.8-1.55-0.55,,,,,,,63f77df437de29d7fd62b0c8,11:17:22,15/01/2024
,"<p style=""font-size:14rem;font-weight:400;"">1</p>",,fwdspan,number,jx7bl8HKAiWJBMR6xPXQ6l4Mwpk1,html-keyboard-response,110,338835,0.0-7.0-2.8-0.8-1.56-0.56,,,,,,,63f77df437de29d7fd62b0c8,11:17:22,15/01/2024
,"<p style=""font-size:14rem;font-weight:400;"">4</p>",,fwdspan,number,jx7bl8HKAiWJBMR6xPXQ6l4Mwpk1,html-keyboard-response,111,339843,0.0-7.0-2.8-0.8-1.57-0.57,,,,,,,63f77df437de29d7fd62b0c8,11:17:22,15/01/2024
,"<p style=""font-size:14rem;font-weight:400;"">8</p>",,fwdspan,number,jx7bl8HKAiWJBMR6xPXQ6l4Mwpk1,html-keyboard-response,112,340867,0.0-7.0-2.8-0.8-1.58-0.58,,,,,,,63f77df437de29d7fd62b0c8,11:17:22,15/01/2024
,"<p style=""font-size:14rem;font-weight:400;"">1</p>",,fwdspan,number,jx7bl8HKAiWJBMR6xPXQ6l4Mwpk1,html-keyboard-response,113,341879,0.0-7.0-2.8-0.8-1.59-0.59,,,,,,,63f77df437de29d7fd62b0c8,11:17:22,15/01/2024
,[],,fwdspan,delay,jx7bl8HKAiWJBMR6xPXQ6l4Mwpk1,html-keyboard-response,114,342440,0.0-7.0-2.8-0.8-2.8,,,,,,,63f77df437de29d7fd62b0c8,11:17:22,15/01/2024
9390.0,"<div class = numbox><p style=""font-size:2.5rem"">What were the numbers <b>in order</b>?<br>(When you are ready to lock in your answer, press <b>ENTER</b>)</p><button id = button_1 class = ""square num-button"" onclick = ""recordClick(this)""><div class = content><div class = numbers>1</div></div></button><button id = button_2 class = ""square num-button"" onclick = ""recordClick(this)""><div class = content><div class = numbers>2</div></div></button><button id = button_3 class = ""square num-button"" onclick = ""recordClick(this)""><div class = content><div class = numbers>3</div></div></button><button id = button_4 class = ""square num-button"" onclick = ""recordClick(this)""><div class = content><div class = numbers>4</div></div></button><button id = button_5 class = ""square num-button"" onclick = ""recordClick(this)""><div class = content><div class = numbers>5</div></div></button><button id = button_6 class = ""square num-button"" onclick = ""recordClick(this)""><div class = content><div class = numbers>6</div></div></button><button id = button_7 class = ""square num-button"" onclick = ""recordClick(this)""><div class = content><div class = numbers>7</div></div></button><button id = button_8 class = ""square num-button"" onclick = ""recordClick(this)""><div class = content><div class = numbers>8</div></div></button><button id = button_9 class = ""square num-button"" onclick = ""recordClick(this)""><div class = content><div class = numbers>9</div></div></button><button class = clear_button id = ""ClearButton"" onclick = ""clearResponse()"">Clear</button><p><u><b>Current Answer:</b></u></p><div id=echoed_txt style=""font-size: 6rem; color:blue;""><b></b></div></div><br><br><br><br><br><br><br>",enter,fwdspan,response,jx7bl8HKAiWJBMR6xPXQ6l4Mwpk1,html-keyboard-response,115,351832,0.0-7.0-2.8-0.8-3.8,10.0,"[5,2,3,1,9,6,8,4,7]","[5,2,3,7,9,6,1,4,8,1]",0.0,"[3, 4, 5, 6, 7, 8, 8, 9, 10, 10, 9, 9]",,63f77df437de29d7fd62b0c8,11:17:22,15/01/2024
,,,fwdspan,update_span,jx7bl8HKAiWJBMR6xPXQ6l4Mwpk1,call-function,116,352088,0.0-7.0-2.8-0.8-4.8,,,,,,,63f77df437de29d7fd62b0c8,11:17:22,15/01/2024
942.1000000005588,"<p style=""font-size:3rem"">Trial 10 of 12</p><br><br><br>",0,fwdspan,start_trial,jx7bl8HKAiWJBMR6xPXQ6l4Mwpk1,html-button-response,117,353031,0.0-7.0-2.9-0.9-0.9,,,,,,,63f77df437de29d7fd62b0c8,11:17:22,15/01/2024
,"<p style=""font-size:14rem;font-weight:400;"">5</p>",,fwdspan,number,jx7bl8HKAiWJBMR6xPXQ6l4Mwpk1,html-keyboard-response,118,354056,0.0-7.0-2.9-0.9-1.60-0.60,,,,,,,63f77df437de29d7fd62b0c8,11:17:22,15/01/2024
,"<p style=""font-size:14rem;font-weight:400;"">1</p>",,fwdspan,number,jx7bl8HKAiWJBMR6xPXQ6l4Mwpk1,html-keyboard-response,119,355069,0.0-7.0-2.9-0.9-1.61-0.61,,,,,,,63f77df437de29d7fd62b0c8,11:17:22,15/01/2024
,"<p style=""font-size:14rem;font-weight:400;"">9</p>",,fwdspan,number,jx7bl8HKAiWJBMR6xPXQ6l4Mwpk1,html-keyboard-response,120,356090,0.0-7.0-2.9-0.9-1.62-0.62,,,,,,,63f77df437de29d7fd62b0c8,11:17:22,15/01/2024
,"<p style=""font-size:14rem;font-weight:400;"">3</p>",,fwdspan,number,jx7bl8HKAiWJBMR6xPXQ6l4Mwpk1,html-keyboard-response,121,357112,0.0-7.0-2.9-0.9-1.63-0.63,,,,,,,63f77df437de29d7fd62b0c8,11:17:22,15/01/2024
,"<p style=""font-size:14rem;font-weight:400;"">8</p>",,fwdspan,number,jx7bl8HKAiWJBMR6xPXQ6l4Mwpk1,html-keyboard-response,122,358137,0.0-7.0-2.9-0.9-1.64-0.64,,,,,,,63f77df437de29d7fd62b0c8,11:17:22,15/01/2024
,"<p style=""font-size:14rem;font-weight:400;"">6</p>",,fwdspan,number,jx7bl8HKAiWJBMR6xPXQ6l4Mwpk1,html-keyboard-response,123,359156,0.0-7.0-2.9-0.9-1.65-0.65,,,,,,,63f77df437de29d7fd62b0c8,11:17:22,15/01/2024
,"<p style=""font-size:14rem;font-weight:400;"">4</p>",,fwdspan,number,jx7bl8HKAiWJBMR6xPXQ6l4Mwpk1,html-keyboard-response,124,360171,0.0-7.0-2.9-0.9-1.66-0.66,,,,,,,63f77df437de29d7fd62b0c8,11:17:22,15/01/2024
,"<p style=""font-size:14rem;font-weight:400;"">2</p>",,fwdspan,number,jx7bl8HKAiWJBMR6xPXQ6l4Mwpk1,html-keyboard-response,125,361192,0.0-7.0-2.9-0.9-1.67-0.67,,,,,,,63f77df437de29d7fd62b0c8,11:17:22,15/01/2024
,"<p style=""font-size:14rem;font-weight:400;"">7</p>",,fwdspan,number,jx7bl8HKAiWJBMR6xPXQ6l4Mwpk1,html-keyboard-response,126,362202,0.0-7.0-2.9-0.9-1.68-0.68,,,,,,,63f77df437de29d7fd62b0c8,11:17:22,15/01/2024
,"<p style=""font-size:14rem;font-weight:400;"">5</p>",,fwdspan,number,jx7bl8HKAiWJBMR6xPXQ6l4Mwpk1,html-keyboard-response,127,363215,0.0-7.0-2.9-0.9-1.69-0.69,,,,,,,63f77df437de29d7fd62b0c8,11:17:22,15/01/2024
,[],,fwdspan,delay,jx7bl8HKAiWJBMR6xPXQ6l4Mwpk1,html-keyboard-response,128,363768,0.0-7.0-2.9-0.9-2.9,,,,,,,63f77df437de29d7fd62b0c8,11:17:22,15/01/2024
4230.9000000003725,"<div class = numbox><p style=""font-size:2.5rem"">What were the numbers <b>in order</b>?<br>(When you are ready to lock in your answer, press <b>ENTER</b>)</p><button id = button_1 class = ""square num-button"" onclick = ""recordClick(this)""><div class = content><div class = numbers>1</div></div></button><button id = button_2 class = ""square num-button"" onclick = ""recordClick(this)""><div class = content><div class = numbers>2</div></div></button><button id = button_3 class = ""square num-button"" onclick = ""recordClick(this)""><div class = content><div class = numbers>3</div></div></button><button id = button_4 class = ""square num-button"" onclick = ""recordClick(this)""><div class = content><div class = numbers>4</div></div></button><button id = button_5 class = ""square num-button"" onclick = ""recordClick(this)""><div class = content><div class = numbers>5</div></div></button><button id = button_6 class = ""square num-button"" onclick = ""recordClick(this)""><div class = content><div class = numbers>6</div></div></button><button id = button_7 class = ""square num-button"" onclick = ""recordClick(this)""><div class = content><div class = numbers>7</div></div></button><button id = button_8 class = ""square num-button"" onclick = ""recordClick(this)""><div class = content><div class = numbers>8</div></div></button><button id = button_9 class = ""square num-button"" onclick = ""recordClick(this)""><div class = content><div class = numbers>9</div></div></button><button class = clear_button id = ""ClearButton"" onclick = ""clearResponse()"">Clear</button><p><u><b>Current Answer:</b></u></p><div id=echoed_txt style=""font-size: 6rem; color:blue;""><b></b></div></div><br><br><br><br><br><br><br>",enter,fwdspan,response,jx7bl8HKAiWJBMR6xPXQ6l4Mwpk1,html-keyboard-response,129,368000,0.0-7.0-2.9-0.9-3.9,10.0,"[5,2,9,1,8,6,4,7,5]","[5,1,9,3,8,6,4,2,7,5]",0.0,"[3, 4, 5, 6, 7, 8, 8, 9, 10, 10, 9, 9]",,63f77df437de29d7fd62b0c8,11:17:22,15/01/2024
,,,fwdspan,update_span,jx7bl8HKAiWJBMR6xPXQ6l4Mwpk1,call-function,130,368252,0.0-7.0-2.9-0.9-4.9,,,,,,,63f77df437de29d7fd62b0c8,11:17:22,15/01/2024
1041.5999999996275,"<p style=""font-size:3rem"">Trial 11 of 12</p><br><br><br>",0,fwdspan,start_trial,jx7bl8HKAiWJBMR6xPXQ6l4Mwpk1,html-button-response,131,369295,0.0-7.0-2.10-0.10-0.10,,,,,,,63f77df437de29d7fd62b0c8,11:17:22,15/01/2024
,"<p style=""font-size:14rem;font-weight:400;"">7</p>",,fwdspan,number,jx7bl8HKAiWJBMR6xPXQ6l4Mwpk1,html-keyboard-response,132,370306,0.0-7.0-2.10-0.10-1.70-0.70,,,,,,,63f77df437de29d7fd62b0c8,11:17:22,15/01/2024
,"<p style=""font-size:14rem;font-weight:400;"">5</p>",,fwdspan,number,jx7bl8HKAiWJBMR6xPXQ6l4Mwpk1,html-keyboard-response,133,371325,0.0-7.0-2.10-0.10-1.71-0.71,,,,,,,63f77df437de29d7fd62b0c8,11:17:22,15/01/2024
,"<p style=""font-size:14rem;font-weight:400;"">6</p>",,fwdspan,number,jx7bl8HKAiWJBMR6xPXQ6l4Mwpk1,html-keyboard-response,134,372338,0.0-7.0-2.10-0.10-1.72-0.72,,,,,,,63f77df437de29d7fd62b0c8,11:17:22,15/01/2024
,"<p style=""font-size:14rem;font-weight:400;"">3</p>",,fwdspan,number,jx7bl8HKAiWJBMR6xPXQ6l4Mwpk1,html-keyboard-response,135,373349,0.0-7.0-2.10-0.10-1.73-0.73,,,,,,,63f77df437de29d7fd62b0c8,11:17:22,15/01/2024
,"<p style=""font-size:14rem;font-weight:400;"">2</p>",,fwdspan,number,jx7bl8HKAiWJBMR6xPXQ6l4Mwpk1,html-keyboard-response,136,374362,0.0-7.0-2.10-0.10-1.74-0.74,,,,,,,63f77df437de29d7fd62b0c8,11:17:22,15/01/2024
,"<p style=""font-size:14rem;font-weight:400;"">9</p>",,fwdspan,number,jx7bl8HKAiWJBMR6xPXQ6l4Mwpk1,html-keyboard-response,137,375389,0.0-7.0-2.10-0.10-1.75-0.75,,,,,,,63f77df437de29d7fd62b0c8,11:17:22,15/01/2024
,"<p style=""font-size:14rem;font-weight:400;"">8</p>",,fwdspan,number,jx7bl8HKAiWJBMR6xPXQ6l4Mwpk1,html-keyboard-response,138,376414,0.0-7.0-2.10-0.10-1.76-0.76,,,,,,,63f77df437de29d7fd62b0c8,11:17:22,15/01/2024
,"<p style=""font-size:14rem;font-weight:400;"">1</p>",,fwdspan,number,jx7bl8HKAiWJBMR6xPXQ6l4Mwpk1,html-keyboard-response,139,377416,0.0-7.0-2.10-0.10-1.77-0.77,,,,,,,63f77df437de29d7fd62b0c8,11:17:22,15/01/2024
,"<p style=""font-size:14rem;font-weight:400;"">4</p>",,fwdspan,number,jx7bl8HKAiWJBMR6xPXQ6l4Mwpk1,html-keyboard-response,140,378419,0.0-7.0-2.10-0.10-1.78-0.78,,,,,,,63f77df437de29d7fd62b0c8,11:17:22,15/01/2024
,[],,fwdspan,delay,jx7bl8HKAiWJBMR6xPXQ6l4Mwpk1,html-keyboard-response,141,378985,0.0-7.0-2.10-0.10-2.10,,,,,,,63f77df437de29d7fd62b0c8,11:17:22,15/01/2024
4068.9000000003725,"<div class = numbox><p style=""font-size:2.5rem"">What were the numbers <b>in order</b>?<br>(When you are ready to lock in your answer, press <b>ENTER</b>)</p><button id = button_1 class = ""square num-button"" onclick = ""recordClick(this)""><div class = content><div class = numbers>1</div></div></button><button id = button_2 class = ""square num-button"" onclick = ""recordClick(this)""><div class = content><div class = numbers>2</div></div></button><button id = button_3 class = ""square num-button"" onclick = ""recordClick(this)""><div class = content><div class = numbers>3</div></div></button><button id = button_4 class = ""square num-button"" onclick = ""recordClick(this)""><div class = content><div class = numbers>4</div></div></button><button id = button_5 class = ""square num-button"" onclick = ""recordClick(this)""><div class = content><div class = numbers>5</div></div></button><button id = button_6 class = ""square num-button"" onclick = ""recordClick(this)""><div class = content><div class = numbers>6</div></div></button><button id = button_7 class = ""square num-button"" onclick = ""recordClick(this)""><div class = content><div class = numbers>7</div></div></button><button id = button_8 class = ""square num-button"" onclick = ""recordClick(this)""><div class = content><div class = numbers>8</div></div></button><button id = button_9 class = ""square num-button"" onclick = ""recordClick(this)""><div class = content><div class = numbers>9</div></div></button><button class = clear_button id = ""ClearButton"" onclick = ""clearResponse()"">Clear</button><p><u><b>Current Answer:</b></u></p><div id=echoed_txt style=""font-size: 6rem; color:blue;""><b></b></div></div><br><br><br><br><br><br><br>",enter,fwdspan,response,jx7bl8HKAiWJBMR6xPXQ6l4Mwpk1,html-keyboard-response,142,383056,0.0-7.0-2.10-0.10-3.10,9.0,"[7,2,6,3,8,9,5,4,1]","[7,5,6,3,2,9,8,1,4]",0.0,"[3, 4, 5, 6, 7, 8, 8, 9, 10, 10, 9, 9]",,63f77df437de29d7fd62b0c8,11:17:22,15/01/2024
,,,fwdspan,update_span,jx7bl8HKAiWJBMR6xPXQ6l4Mwpk1,call-function,143,383313,0.0-7.0-2.10-0.10-4.10,,,,,,,63f77df437de29d7fd62b0c8,11:17:22,15/01/2024
644.5999999996275,"<p style=""font-size:3rem"">Trial 12 of 12</p><br><br><br>",0,fwdspan,start_trial,jx7bl8HKAiWJBMR6xPXQ6l4Mwpk1,html-button-response,144,383959,0.0-7.0-2.11-0.11-0.11,,,,,,,63f77df437de29d7fd62b0c8,11:17:22,15/01/2024
,"<p style=""font-size:14rem;font-weight:400;"">2</p>",,fwdspan,number,jx7bl8HKAiWJBMR6xPXQ6l4Mwpk1,html-keyboard-response,145,384975,0.0-7.0-2.11-0.11-1.79-0.79,,,,,,,63f77df437de29d7fd62b0c8,11:17:22,15/01/2024
,"<p style=""font-size:14rem;font-weight:400;"">1</p>",,fwdspan,number,jx7bl8HKAiWJBMR6xPXQ6l4Mwpk1,html-keyboard-response,146,385988,0.0-7.0-2.11-0.11-1.80-0.80,,,,,,,63f77df437de29d7fd62b0c8,11:17:22,15/01/2024
,"<p style=""font-size:14rem;font-weight:400;"">9</p>",,fwdspan,number,jx7bl8HKAiWJBMR6xPXQ6l4Mwpk1,html-keyboard-response,147,387014,0.0-7.0-2.11-0.11-1.81-0.81,,,,,,,63f77df437de29d7fd62b0c8,11:17:22,15/01/2024
,"<p style=""font-size:14rem;font-weight:400;"">6</p>",,fwdspan,number,jx7bl8HKAiWJBMR6xPXQ6l4Mwpk1,html-keyboard-response,148,388028,0.0-7.0-2.11-0.11-1.82-0.82,,,,,,,63f77df437de29d7fd62b0c8,11:17:22,15/01/2024
,"<p style=""font-size:14rem;font-weight:400;"">7</p>",,fwdspan,number,jx7bl8HKAiWJBMR6xPXQ6l4Mwpk1,html-keyboard-response,149,389056,0.0-7.0-2.11-0.11-1.83-0.83,,,,,,,63f77df437de29d7fd62b0c8,11:17:22,15/01/2024
,"<p style=""font-size:14rem;font-weight:400;"">4</p>",,fwdspan,number,jx7bl8HKAiWJBMR6xPXQ6l4Mwpk1,html-keyboard-response,150,390081,0.0-7.0-2.11-0.11-1.84-0.84,,,,,,,63f77df437de29d7fd62b0c8,11:17:22,15/01/2024
,"<p style=""font-size:14rem;font-weight:400;"">8</p>",,fwdspan,number,jx7bl8HKAiWJBMR6xPXQ6l4Mwpk1,html-keyboard-response,151,391091,0.0-7.0-2.11-0.11-1.85-0.85,,,,,,,63f77df437de29d7fd62b0c8,11:17:22,15/01/2024
,"<p style=""font-size:14rem;font-weight:400;"">5</p>",,fwdspan,number,jx7bl8HKAiWJBMR6xPXQ6l4Mwpk1,html-keyboard-response,152,392108,0.0-7.0-2.11-0.11-1.86-0.86,,,,,,,63f77df437de29d7fd62b0c8,11:17:22,15/01/2024
,"<p style=""font-size:14rem;font-weight:400;"">3</p>",,fwdspan,number,jx7bl8HKAiWJBMR6xPXQ6l4Mwpk1,html-keyboard-response,153,393133,0.0-7.0-2.11-0.11-1.87-0.87,,,,,,,63f77df437de29d7fd62b0c8,11:17:22,15/01/2024
,[],,fwdspan,delay,jx7bl8HKAiWJBMR6xPXQ6l4Mwpk1,html-keyboard-response,154,393703,0.0-7.0-2.11-0.11-2.11,,,,,,,63f77df437de29d7fd62b0c8,11:17:22,15/01/2024
5151.5,"<div class = numbox><p style=""font-size:2.5rem"">What were the numbers <b>in order</b>?<br>(When you are ready to lock in your answer, press <b>ENTER</b>)</p><button id = button_1 class = ""square num-button"" onclick = ""recordClick(this)""><div class = content><div class = numbers>1</div></div></button><button id = button_2 class = ""square num-button"" onclick = ""recordClick(this)""><div class = content><div class = numbers>2</div></div></button><button id = button_3 class = ""square num-button"" onclick = ""recordClick(this)""><div class = content><div class = numbers>3</div></div></button><button id = button_4 class = ""square num-button"" onclick = ""recordClick(this)""><div class = content><div class = numbers>4</div></div></button><button id = button_5 class = ""square num-button"" onclick = ""recordClick(this)""><div class = content><div class = numbers>5</div></div></button><button id = button_6 class = ""square num-button"" onclick = ""recordClick(this)""><div class = content><div class = numbers>6</div></div></button><button id = button_7 class = ""square num-button"" onclick = ""recordClick(this)""><div class = content><div class = numbers>7</div></div></button><button id = button_8 class = ""square num-button"" onclick = ""recordClick(this)""><div class = content><div class = numbers>8</div></div></button><button id = button_9 class = ""square num-button"" onclick = ""recordClick(this)""><div class = content><div class = numbers>9</div></div></button><button class = clear_button id = ""ClearButton"" onclick = ""clearResponse()"">Clear</button><p><u><b>Current Answer:</b></u></p><div id=echoed_txt style=""font-size: 6rem; color:blue;""><b></b></div></div><br><br><br><br><br><br><br>",enter,fwdspan,response,jx7bl8HKAiWJBMR6xPXQ6l4Mwpk1,html-keyboard-response,155,398855,0.0-7.0-2.11-0.11-3.11,9.0,"[2,1,9,6,7,4,8,3,5]","[2,1,9,6,7,4,8,5,3]",0.0,"[3, 4, 5, 6, 7, 8, 8, 9, 10, 10, 9, 9]",,63f77df437de29d7fd62b0c8,11:17:22,15/01/2024
,,,fwdspan,update_span,jx7bl8HKAiWJBMR6xPXQ6l4Mwpk1,call-function,156,399107,0.0-7.0-2.11-0.11-4.11,,,,,,,63f77df437de29d7fd62b0c8,11:17:22,15/01/2024
21322.10000000056,,{'Q0': 'I think the task is interesting but a bit difficult'},fwdspan,survey,jx7bl8HKAiWJBMR6xPXQ6l4Mwpk1,lmdlab-survey-text,157,421185,0.0-7.0-3.0,,,,,,jx7bl8HKAiWJBMR6xPXQ6l4Mwpk1,63f77df437de29d7fd62b0c8,11:17:22,15/01/2024
928.9000000003725,<p><p style='font-size: 3rem'>Great work!<br><br>This completes the digit span task.</p><br><br><br>,0,fwdspan,finish,jx7bl8HKAiWJBMR6xPXQ6l4Mwpk1,html-button-response,158,422118,0.0-7.0-4.0,,,,,,,63f77df437de29d7fd62b0c8,11:17:22,15/01/2024
