rt,stimulus,response,exp_name,exp_stage,subjectID,trial_type,trial_index,time_elapsed,internal_node_id,span,answer,correct,correct_full,span_history,databaseID,prolificID,start_time,date
4620.0,"<p style=""font-size:4rem""><br><br>In the next part today, we have a completely different short task.<br><br><br>This part involves keeping numbers in you mind. Participation takes around 5 minutes.<br><br><br></p>",0,fwdspan,instruct,AANgw6xWpXc0R6BQyB4BaJ5UvJp1,html-button-response,19,775076,0.0-7.0-0.0,,,,,,,63d3f953f8fb0fe970f0d0c6,11:27:07 AM,1/15/2024
32179.5,"<p style=""font-size:5rem"">Welcome to the <b>digit span task</b>!<br><br></p><p style=""font-size:3.4rem""><br>On each trial, you will see a sequence of digits, followed by a delay.</p><p style=""font-size:3.4rem""><br>Then you will be asked to type them back in the same order in which they were seen.</p><p style=""font-size:3.4rem""><br><br><br>For example, if you saw the digits <b style=""color:blue;"">1</b>, <b style=""color:blue;"">2</b>, <b style=""color:blue;"">3</b>, you would respond with <b style=""color:blue;"">1</b>, <b style=""color:blue;"">2</b>, <b style=""color:blue;"">3</b></p><p style=""font-size:3.4rem""><br><br><br>To ensure the best measure of true performance for our study,<br><br>it is very important that you do not use any memory aid (e.g., pen and paper).<br><br>Please do the task solely in your head.</p><p style=""font-size:3.4rem""><br><br><br>There will be 12 total trials. Participation takes around 5 minutes.</p><br><br><br>",0,fwdspan,instruct,AANgw6xWpXc0R6BQyB4BaJ5UvJp1,html-button-response,20,807256,0.0-7.0-1.0,,,,,,,63d3f953f8fb0fe970f0d0c6,11:27:07 AM,1/15/2024
2033.1000000238419,"<p style=""font-size:3rem"">Trial 1 of 12</p><br><br><br>",0,fwdspan,start_trial,AANgw6xWpXc0R6BQyB4BaJ5UvJp1,html-button-response,21,809293,0.0-7.0-2.0-0.0-0.0,,,,,,,63d3f953f8fb0fe970f0d0c6,11:27:07 AM,1/15/2024
,"<p style=""font-size:14rem;font-weight:400;"">4</p>",,fwdspan,number,AANgw6xWpXc0R6BQyB4BaJ5UvJp1,html-keyboard-response,22,810315,0.0-7.0-2.0-0.0-1.0-0.0,,,,,,,63d3f953f8fb0fe970f0d0c6,11:27:07 AM,1/15/2024
,"<p style=""font-size:14rem;font-weight:400;"">5</p>",,fwdspan,number,AANgw6xWpXc0R6BQyB4BaJ5UvJp1,html-keyboard-response,23,811341,0.0-7.0-2.0-0.0-1.1-0.1,,,,,,,63d3f953f8fb0fe970f0d0c6,11:27:07 AM,1/15/2024
,"<p style=""font-size:14rem;font-weight:400;"">7</p>",,fwdspan,number,AANgw6xWpXc0R6BQyB4BaJ5UvJp1,html-keyboard-response,24,812368,0.0-7.0-2.0-0.0-1.2-0.2,,,,,,,63d3f953f8fb0fe970f0d0c6,11:27:07 AM,1/15/2024
,[],,fwdspan,delay,AANgw6xWpXc0R6BQyB4BaJ5UvJp1,html-keyboard-response,25,812936,0.0-7.0-2.0-0.0-2.0,,,,,,,63d3f953f8fb0fe970f0d0c6,11:27:07 AM,1/15/2024
3680.0,"<div class = numbox><p style=""font-size:2.5rem"">What were the numbers <b>in order</b>?<br>(When you are ready to lock in your answer, press <b>ENTER</b>)</p><button id = button_1 class = ""square num-button"" onclick = ""recordClick(this)""><div class = content><div class = numbers>1</div></div></button><button id = button_2 class = ""square num-button"" onclick = ""recordClick(this)""><div class = content><div class = numbers>2</div></div></button><button id = button_3 class = ""square num-button"" onclick = ""recordClick(this)""><div class = content><div class = numbers>3</div></div></button><button id = button_4 class = ""square num-button"" onclick = ""recordClick(this)""><div class = content><div class = numbers>4</div></div></button><button id = button_5 class = ""square num-button"" onclick = ""recordClick(this)""><div class = content><div class = numbers>5</div></div></button><button id = button_6 class = ""square num-button"" onclick = ""recordClick(this)""><div class = content><div class = numbers>6</div></div></button><button id = button_7 class = ""square num-button"" onclick = ""recordClick(this)""><div class = content><div class = numbers>7</div></div></button><button id = button_8 class = ""square num-button"" onclick = ""recordClick(this)""><div class = content><div class = numbers>8</div></div></button><button id = button_9 class = ""square num-button"" onclick = ""recordClick(this)""><div class = content><div class = numbers>9</div></div></button><button class = clear_button id = ""ClearButton"" onclick = ""clearResponse()"">Clear</button><p><u><b>Current Answer:</b></u></p><div id=echoed_txt style=""font-size: 6rem; color:blue;""><b></b></div></div><br><br><br><br><br><br><br>",enter,fwdspan,response,AANgw6xWpXc0R6BQyB4BaJ5UvJp1,html-keyboard-response,26,816617,0.0-7.0-2.0-0.0-3.0,3.0,"[4,5,7]","[4,5,7]",1.0,"[3, 4, 5, 5, 6, 6, 7, 8, 8, 7, 7, 6]",,63d3f953f8fb0fe970f0d0c6,11:27:07 AM,1/15/2024
,,,fwdspan,update_span,AANgw6xWpXc0R6BQyB4BaJ5UvJp1,call-function,27,816870,0.0-7.0-2.0-0.0-4.0,,,,,,,63d3f953f8fb0fe970f0d0c6,11:27:07 AM,1/15/2024
1687.300000011921,"<p style=""font-size:3rem"">Trial 2 of 12</p><br><br><br>",0,fwdspan,start_trial,AANgw6xWpXc0R6BQyB4BaJ5UvJp1,html-button-response,28,818558,0.0-7.0-2.1-0.1-0.1,,,,,,,63d3f953f8fb0fe970f0d0c6,11:27:07 AM,1/15/2024
,"<p style=""font-size:14rem;font-weight:400;"">7</p>",,fwdspan,number,AANgw6xWpXc0R6BQyB4BaJ5UvJp1,html-keyboard-response,29,819582,0.0-7.0-2.1-0.1-1.3-0.3,,,,,,,63d3f953f8fb0fe970f0d0c6,11:27:07 AM,1/15/2024
,"<p style=""font-size:14rem;font-weight:400;"">9</p>",,fwdspan,number,AANgw6xWpXc0R6BQyB4BaJ5UvJp1,html-keyboard-response,30,820609,0.0-7.0-2.1-0.1-1.4-0.4,,,,,,,63d3f953f8fb0fe970f0d0c6,11:27:07 AM,1/15/2024
,"<p style=""font-size:14rem;font-weight:400;"">4</p>",,fwdspan,number,AANgw6xWpXc0R6BQyB4BaJ5UvJp1,html-keyboard-response,31,821636,0.0-7.0-2.1-0.1-1.5-0.5,,,,,,,63d3f953f8fb0fe970f0d0c6,11:27:07 AM,1/15/2024
,"<p style=""font-size:14rem;font-weight:400;"">1</p>",,fwdspan,number,AANgw6xWpXc0R6BQyB4BaJ5UvJp1,html-keyboard-response,32,822659,0.0-7.0-2.1-0.1-1.6-0.6,,,,,,,63d3f953f8fb0fe970f0d0c6,11:27:07 AM,1/15/2024
,[],,fwdspan,delay,AANgw6xWpXc0R6BQyB4BaJ5UvJp1,html-keyboard-response,33,823234,0.0-7.0-2.1-0.1-2.1,,,,,,,63d3f953f8fb0fe970f0d0c6,11:27:07 AM,1/15/2024
4396.399999976158,"<div class = numbox><p style=""font-size:2.5rem"">What were the numbers <b>in order</b>?<br>(When you are ready to lock in your answer, press <b>ENTER</b>)</p><button id = button_1 class = ""square num-button"" onclick = ""recordClick(this)""><div class = content><div class = numbers>1</div></div></button><button id = button_2 class = ""square num-button"" onclick = ""recordClick(this)""><div class = content><div class = numbers>2</div></div></button><button id = button_3 class = ""square num-button"" onclick = ""recordClick(this)""><div class = content><div class = numbers>3</div></div></button><button id = button_4 class = ""square num-button"" onclick = ""recordClick(this)""><div class = content><div class = numbers>4</div></div></button><button id = button_5 class = ""square num-button"" onclick = ""recordClick(this)""><div class = content><div class = numbers>5</div></div></button><button id = button_6 class = ""square num-button"" onclick = ""recordClick(this)""><div class = content><div class = numbers>6</div></div></button><button id = button_7 class = ""square num-button"" onclick = ""recordClick(this)""><div class = content><div class = numbers>7</div></div></button><button id = button_8 class = ""square num-button"" onclick = ""recordClick(this)""><div class = content><div class = numbers>8</div></div></button><button id = button_9 class = ""square num-button"" onclick = ""recordClick(this)""><div class = content><div class = numbers>9</div></div></button><button class = clear_button id = ""ClearButton"" onclick = ""clearResponse()"">Clear</button><p><u><b>Current Answer:</b></u></p><div id=echoed_txt style=""font-size: 6rem; color:blue;""><b></b></div></div><br><br><br><br><br><br><br>",enter,fwdspan,response,AANgw6xWpXc0R6BQyB4BaJ5UvJp1,html-keyboard-response,34,827632,0.0-7.0-2.1-0.1-3.1,4.0,"[7,9,4,1]","[7,9,4,1]",1.0,"[3, 4, 5, 5, 6, 6, 7, 8, 8, 7, 7, 6]",,63d3f953f8fb0fe970f0d0c6,11:27:07 AM,1/15/2024
,,,fwdspan,update_span,AANgw6xWpXc0R6BQyB4BaJ5UvJp1,call-function,35,827888,0.0-7.0-2.1-0.1-4.1,,,,,,,63d3f953f8fb0fe970f0d0c6,11:27:07 AM,1/15/2024
1273.2000000476837,"<p style=""font-size:3rem"">Trial 3 of 12</p><br><br><br>",0,fwdspan,start_trial,AANgw6xWpXc0R6BQyB4BaJ5UvJp1,html-button-response,36,829163,0.0-7.0-2.2-0.2-0.2,,,,,,,63d3f953f8fb0fe970f0d0c6,11:27:07 AM,1/15/2024
,"<p style=""font-size:14rem;font-weight:400;"">4</p>",,fwdspan,number,AANgw6xWpXc0R6BQyB4BaJ5UvJp1,html-keyboard-response,37,830188,0.0-7.0-2.2-0.2-1.7-0.7,,,,,,,63d3f953f8fb0fe970f0d0c6,11:27:07 AM,1/15/2024
,"<p style=""font-size:14rem;font-weight:400;"">2</p>",,fwdspan,number,AANgw6xWpXc0R6BQyB4BaJ5UvJp1,html-keyboard-response,38,831216,0.0-7.0-2.2-0.2-1.8-0.8,,,,,,,63d3f953f8fb0fe970f0d0c6,11:27:07 AM,1/15/2024
,"<p style=""font-size:14rem;font-weight:400;"">1</p>",,fwdspan,number,AANgw6xWpXc0R6BQyB4BaJ5UvJp1,html-keyboard-response,39,832230,0.0-7.0-2.2-0.2-1.9-0.9,,,,,,,63d3f953f8fb0fe970f0d0c6,11:27:07 AM,1/15/2024
,"<p style=""font-size:14rem;font-weight:400;"">3</p>",,fwdspan,number,AANgw6xWpXc0R6BQyB4BaJ5UvJp1,html-keyboard-response,40,833255,0.0-7.0-2.2-0.2-1.10-0.10,,,,,,,63d3f953f8fb0fe970f0d0c6,11:27:07 AM,1/15/2024
,"<p style=""font-size:14rem;font-weight:400;"">9</p>",,fwdspan,number,AANgw6xWpXc0R6BQyB4BaJ5UvJp1,html-keyboard-response,41,834280,0.0-7.0-2.2-0.2-1.11-0.11,,,,,,,63d3f953f8fb0fe970f0d0c6,11:27:07 AM,1/15/2024
,[],,fwdspan,delay,AANgw6xWpXc0R6BQyB4BaJ5UvJp1,html-keyboard-response,42,834852,0.0-7.0-2.2-0.2-2.2,,,,,,,63d3f953f8fb0fe970f0d0c6,11:27:07 AM,1/15/2024
6800.0,"<div class = numbox><p style=""font-size:2.5rem"">What were the numbers <b>in order</b>?<br>(When you are ready to lock in your answer, press <b>ENTER</b>)</p><button id = button_1 class = ""square num-button"" onclick = ""recordClick(this)""><div class = content><div class = numbers>1</div></div></button><button id = button_2 class = ""square num-button"" onclick = ""recordClick(this)""><div class = content><div class = numbers>2</div></div></button><button id = button_3 class = ""square num-button"" onclick = ""recordClick(this)""><div class = content><div class = numbers>3</div></div></button><button id = button_4 class = ""square num-button"" onclick = ""recordClick(this)""><div class = content><div class = numbers>4</div></div></button><button id = button_5 class = ""square num-button"" onclick = ""recordClick(this)""><div class = content><div class = numbers>5</div></div></button><button id = button_6 class = ""square num-button"" onclick = ""recordClick(this)""><div class = content><div class = numbers>6</div></div></button><button id = button_7 class = ""square num-button"" onclick = ""recordClick(this)""><div class = content><div class = numbers>7</div></div></button><button id = button_8 class = ""square num-button"" onclick = ""recordClick(this)""><div class = content><div class = numbers>8</div></div></button><button id = button_9 class = ""square num-button"" onclick = ""recordClick(this)""><div class = content><div class = numbers>9</div></div></button><button class = clear_button id = ""ClearButton"" onclick = ""clearResponse()"">Clear</button><p><u><b>Current Answer:</b></u></p><div id=echoed_txt style=""font-size: 6rem; color:blue;""><b></b></div></div><br><br><br><br><br><br><br>",enter,fwdspan,response,AANgw6xWpXc0R6BQyB4BaJ5UvJp1,html-keyboard-response,43,841653,0.0-7.0-2.2-0.2-3.2,5.0,"[4,2,3,1,9]","[4,2,1,3,9]",0.0,"[3, 4, 5, 5, 6, 6, 7, 8, 8, 7, 7, 6]",,63d3f953f8fb0fe970f0d0c6,11:27:07 AM,1/15/2024
,,,fwdspan,update_span,AANgw6xWpXc0R6BQyB4BaJ5UvJp1,call-function,44,841917,0.0-7.0-2.2-0.2-4.2,,,,,,,63d3f953f8fb0fe970f0d0c6,11:27:07 AM,1/15/2024
1149.800000011921,"<p style=""font-size:3rem"">Trial 4 of 12</p><br><br><br>",0,fwdspan,start_trial,AANgw6xWpXc0R6BQyB4BaJ5UvJp1,html-button-response,45,843068,0.0-7.0-2.3-0.3-0.3,,,,,,,63d3f953f8fb0fe970f0d0c6,11:27:07 AM,1/15/2024
,"<p style=""font-size:14rem;font-weight:400;"">3</p>",,fwdspan,number,AANgw6xWpXc0R6BQyB4BaJ5UvJp1,html-keyboard-response,46,844090,0.0-7.0-2.3-0.3-1.12-0.12,,,,,,,63d3f953f8fb0fe970f0d0c6,11:27:07 AM,1/15/2024
,"<p style=""font-size:14rem;font-weight:400;"">1</p>",,fwdspan,number,AANgw6xWpXc0R6BQyB4BaJ5UvJp1,html-keyboard-response,47,845107,0.0-7.0-2.3-0.3-1.13-0.13,,,,,,,63d3f953f8fb0fe970f0d0c6,11:27:07 AM,1/15/2024
,"<p style=""font-size:14rem;font-weight:400;"">7</p>",,fwdspan,number,AANgw6xWpXc0R6BQyB4BaJ5UvJp1,html-keyboard-response,48,846136,0.0-7.0-2.3-0.3-1.14-0.14,,,,,,,63d3f953f8fb0fe970f0d0c6,11:27:07 AM,1/15/2024
,"<p style=""font-size:14rem;font-weight:400;"">8</p>",,fwdspan,number,AANgw6xWpXc0R6BQyB4BaJ5UvJp1,html-keyboard-response,49,847162,0.0-7.0-2.3-0.3-1.15-0.15,,,,,,,63d3f953f8fb0fe970f0d0c6,11:27:07 AM,1/15/2024
,"<p style=""font-size:14rem;font-weight:400;"">5</p>",,fwdspan,number,AANgw6xWpXc0R6BQyB4BaJ5UvJp1,html-keyboard-response,50,848184,0.0-7.0-2.3-0.3-1.16-0.16,,,,,,,63d3f953f8fb0fe970f0d0c6,11:27:07 AM,1/15/2024
,[],,fwdspan,delay,AANgw6xWpXc0R6BQyB4BaJ5UvJp1,html-keyboard-response,51,848758,0.0-7.0-2.3-0.3-2.3,,,,,,,63d3f953f8fb0fe970f0d0c6,11:27:07 AM,1/15/2024
6599.900000035763,"<div class = numbox><p style=""font-size:2.5rem"">What were the numbers <b>in order</b>?<br>(When you are ready to lock in your answer, press <b>ENTER</b>)</p><button id = button_1 class = ""square num-button"" onclick = ""recordClick(this)""><div class = content><div class = numbers>1</div></div></button><button id = button_2 class = ""square num-button"" onclick = ""recordClick(this)""><div class = content><div class = numbers>2</div></div></button><button id = button_3 class = ""square num-button"" onclick = ""recordClick(this)""><div class = content><div class = numbers>3</div></div></button><button id = button_4 class = ""square num-button"" onclick = ""recordClick(this)""><div class = content><div class = numbers>4</div></div></button><button id = button_5 class = ""square num-button"" onclick = ""recordClick(this)""><div class = content><div class = numbers>5</div></div></button><button id = button_6 class = ""square num-button"" onclick = ""recordClick(this)""><div class = content><div class = numbers>6</div></div></button><button id = button_7 class = ""square num-button"" onclick = ""recordClick(this)""><div class = content><div class = numbers>7</div></div></button><button id = button_8 class = ""square num-button"" onclick = ""recordClick(this)""><div class = content><div class = numbers>8</div></div></button><button id = button_9 class = ""square num-button"" onclick = ""recordClick(this)""><div class = content><div class = numbers>9</div></div></button><button class = clear_button id = ""ClearButton"" onclick = ""clearResponse()"">Clear</button><p><u><b>Current Answer:</b></u></p><div id=echoed_txt style=""font-size: 6rem; color:blue;""><b></b></div></div><br><br><br><br><br><br><br>",enter,fwdspan,response,AANgw6xWpXc0R6BQyB4BaJ5UvJp1,html-keyboard-response,52,855360,0.0-7.0-2.3-0.3-3.3,5.0,"[3,1,7,8,5]","[3,1,7,8,5]",1.0,"[3, 4, 5, 5, 6, 6, 7, 8, 8, 7, 7, 6]",,63d3f953f8fb0fe970f0d0c6,11:27:07 AM,1/15/2024
,,,fwdspan,update_span,AANgw6xWpXc0R6BQyB4BaJ5UvJp1,call-function,53,855614,0.0-7.0-2.3-0.3-4.3,,,,,,,63d3f953f8fb0fe970f0d0c6,11:27:07 AM,1/15/2024
1131.5,"<p style=""font-size:3rem"">Trial 5 of 12</p><br><br><br>",0,fwdspan,start_trial,AANgw6xWpXc0R6BQyB4BaJ5UvJp1,html-button-response,54,856747,0.0-7.0-2.4-0.4-0.4,,,,,,,63d3f953f8fb0fe970f0d0c6,11:27:07 AM,1/15/2024
,"<p style=""font-size:14rem;font-weight:400;"">8</p>",,fwdspan,number,AANgw6xWpXc0R6BQyB4BaJ5UvJp1,html-keyboard-response,55,857760,0.0-7.0-2.4-0.4-1.17-0.17,,,,,,,63d3f953f8fb0fe970f0d0c6,11:27:07 AM,1/15/2024
,"<p style=""font-size:14rem;font-weight:400;"">7</p>",,fwdspan,number,AANgw6xWpXc0R6BQyB4BaJ5UvJp1,html-keyboard-response,56,858788,0.0-7.0-2.4-0.4-1.18-0.18,,,,,,,63d3f953f8fb0fe970f0d0c6,11:27:07 AM,1/15/2024
,"<p style=""font-size:14rem;font-weight:400;"">3</p>",,fwdspan,number,AANgw6xWpXc0R6BQyB4BaJ5UvJp1,html-keyboard-response,57,859812,0.0-7.0-2.4-0.4-1.19-0.19,,,,,,,63d3f953f8fb0fe970f0d0c6,11:27:07 AM,1/15/2024
,"<p style=""font-size:14rem;font-weight:400;"">2</p>",,fwdspan,number,AANgw6xWpXc0R6BQyB4BaJ5UvJp1,html-keyboard-response,58,860837,0.0-7.0-2.4-0.4-1.20-0.20,,,,,,,63d3f953f8fb0fe970f0d0c6,11:27:07 AM,1/15/2024
,"<p style=""font-size:14rem;font-weight:400;"">5</p>",,fwdspan,number,AANgw6xWpXc0R6BQyB4BaJ5UvJp1,html-keyboard-response,59,861862,0.0-7.0-2.4-0.4-1.21-0.21,,,,,,,63d3f953f8fb0fe970f0d0c6,11:27:07 AM,1/15/2024
,"<p style=""font-size:14rem;font-weight:400;"">4</p>",,fwdspan,number,AANgw6xWpXc0R6BQyB4BaJ5UvJp1,html-keyboard-response,60,862891,0.0-7.0-2.4-0.4-1.22-0.22,,,,,,,63d3f953f8fb0fe970f0d0c6,11:27:07 AM,1/15/2024
,[],,fwdspan,delay,AANgw6xWpXc0R6BQyB4BaJ5UvJp1,html-keyboard-response,61,863464,0.0-7.0-2.4-0.4-2.4,,,,,,,63d3f953f8fb0fe970f0d0c6,11:27:07 AM,1/15/2024
6167.300000011921,"<div class = numbox><p style=""font-size:2.5rem"">What were the numbers <b>in order</b>?<br>(When you are ready to lock in your answer, press <b>ENTER</b>)</p><button id = button_1 class = ""square num-button"" onclick = ""recordClick(this)""><div class = content><div class = numbers>1</div></div></button><button id = button_2 class = ""square num-button"" onclick = ""recordClick(this)""><div class = content><div class = numbers>2</div></div></button><button id = button_3 class = ""square num-button"" onclick = ""recordClick(this)""><div class = content><div class = numbers>3</div></div></button><button id = button_4 class = ""square num-button"" onclick = ""recordClick(this)""><div class = content><div class = numbers>4</div></div></button><button id = button_5 class = ""square num-button"" onclick = ""recordClick(this)""><div class = content><div class = numbers>5</div></div></button><button id = button_6 class = ""square num-button"" onclick = ""recordClick(this)""><div class = content><div class = numbers>6</div></div></button><button id = button_7 class = ""square num-button"" onclick = ""recordClick(this)""><div class = content><div class = numbers>7</div></div></button><button id = button_8 class = ""square num-button"" onclick = ""recordClick(this)""><div class = content><div class = numbers>8</div></div></button><button id = button_9 class = ""square num-button"" onclick = ""recordClick(this)""><div class = content><div class = numbers>9</div></div></button><button class = clear_button id = ""ClearButton"" onclick = ""clearResponse()"">Clear</button><p><u><b>Current Answer:</b></u></p><div id=echoed_txt style=""font-size: 6rem; color:blue;""><b></b></div></div><br><br><br><br><br><br><br>",enter,fwdspan,response,AANgw6xWpXc0R6BQyB4BaJ5UvJp1,html-keyboard-response,62,869633,0.0-7.0-2.4-0.4-3.4,6.0,"[8,7,2,5,4]","[8,7,3,2,5,4]",0.0,"[3, 4, 5, 5, 6, 6, 7, 8, 8, 7, 7, 6]",,63d3f953f8fb0fe970f0d0c6,11:27:07 AM,1/15/2024
,,,fwdspan,update_span,AANgw6xWpXc0R6BQyB4BaJ5UvJp1,call-function,63,869891,0.0-7.0-2.4-0.4-4.4,,,,,,,63d3f953f8fb0fe970f0d0c6,11:27:07 AM,1/15/2024
2498.899999976158,"<p style=""font-size:3rem"">Trial 6 of 12</p><br><br><br>",0,fwdspan,start_trial,AANgw6xWpXc0R6BQyB4BaJ5UvJp1,html-button-response,64,872391,0.0-7.0-2.5-0.5-0.5,,,,,,,63d3f953f8fb0fe970f0d0c6,11:27:07 AM,1/15/2024
,"<p style=""font-size:14rem;font-weight:400;"">8</p>",,fwdspan,number,AANgw6xWpXc0R6BQyB4BaJ5UvJp1,html-keyboard-response,65,873415,0.0-7.0-2.5-0.5-1.23-0.23,,,,,,,63d3f953f8fb0fe970f0d0c6,11:27:07 AM,1/15/2024
,"<p style=""font-size:14rem;font-weight:400;"">5</p>",,fwdspan,number,AANgw6xWpXc0R6BQyB4BaJ5UvJp1,html-keyboard-response,66,874443,0.0-7.0-2.5-0.5-1.24-0.24,,,,,,,63d3f953f8fb0fe970f0d0c6,11:27:07 AM,1/15/2024
,"<p style=""font-size:14rem;font-weight:400;"">3</p>",,fwdspan,number,AANgw6xWpXc0R6BQyB4BaJ5UvJp1,html-keyboard-response,67,875467,0.0-7.0-2.5-0.5-1.25-0.25,,,,,,,63d3f953f8fb0fe970f0d0c6,11:27:07 AM,1/15/2024
,"<p style=""font-size:14rem;font-weight:400;"">7</p>",,fwdspan,number,AANgw6xWpXc0R6BQyB4BaJ5UvJp1,html-keyboard-response,68,876491,0.0-7.0-2.5-0.5-1.26-0.26,,,,,,,63d3f953f8fb0fe970f0d0c6,11:27:07 AM,1/15/2024
,"<p style=""font-size:14rem;font-weight:400;"">1</p>",,fwdspan,number,AANgw6xWpXc0R6BQyB4BaJ5UvJp1,html-keyboard-response,69,877511,0.0-7.0-2.5-0.5-1.27-0.27,,,,,,,63d3f953f8fb0fe970f0d0c6,11:27:07 AM,1/15/2024
,"<p style=""font-size:14rem;font-weight:400;"">6</p>",,fwdspan,number,AANgw6xWpXc0R6BQyB4BaJ5UvJp1,html-keyboard-response,70,878538,0.0-7.0-2.5-0.5-1.28-0.28,,,,,,,63d3f953f8fb0fe970f0d0c6,11:27:07 AM,1/15/2024
,[],,fwdspan,delay,AANgw6xWpXc0R6BQyB4BaJ5UvJp1,html-keyboard-response,71,879114,0.0-7.0-2.5-0.5-2.5,,,,,,,63d3f953f8fb0fe970f0d0c6,11:27:07 AM,1/15/2024
5285.900000035763,"<div class = numbox><p style=""font-size:2.5rem"">What were the numbers <b>in order</b>?<br>(When you are ready to lock in your answer, press <b>ENTER</b>)</p><button id = button_1 class = ""square num-button"" onclick = ""recordClick(this)""><div class = content><div class = numbers>1</div></div></button><button id = button_2 class = ""square num-button"" onclick = ""recordClick(this)""><div class = content><div class = numbers>2</div></div></button><button id = button_3 class = ""square num-button"" onclick = ""recordClick(this)""><div class = content><div class = numbers>3</div></div></button><button id = button_4 class = ""square num-button"" onclick = ""recordClick(this)""><div class = content><div class = numbers>4</div></div></button><button id = button_5 class = ""square num-button"" onclick = ""recordClick(this)""><div class = content><div class = numbers>5</div></div></button><button id = button_6 class = ""square num-button"" onclick = ""recordClick(this)""><div class = content><div class = numbers>6</div></div></button><button id = button_7 class = ""square num-button"" onclick = ""recordClick(this)""><div class = content><div class = numbers>7</div></div></button><button id = button_8 class = ""square num-button"" onclick = ""recordClick(this)""><div class = content><div class = numbers>8</div></div></button><button id = button_9 class = ""square num-button"" onclick = ""recordClick(this)""><div class = content><div class = numbers>9</div></div></button><button class = clear_button id = ""ClearButton"" onclick = ""clearResponse()"">Clear</button><p><u><b>Current Answer:</b></u></p><div id=echoed_txt style=""font-size: 6rem; color:blue;""><b></b></div></div><br><br><br><br><br><br><br>",enter,fwdspan,response,AANgw6xWpXc0R6BQyB4BaJ5UvJp1,html-keyboard-response,72,884402,0.0-7.0-2.5-0.5-3.5,6.0,"[8,5,3,7,1,6]","[8,5,3,7,1,6]",1.0,"[3, 4, 5, 5, 6, 6, 7, 8, 8, 7, 7, 6]",,63d3f953f8fb0fe970f0d0c6,11:27:07 AM,1/15/2024
,,,fwdspan,update_span,AANgw6xWpXc0R6BQyB4BaJ5UvJp1,call-function,73,884661,0.0-7.0-2.5-0.5-4.5,,,,,,,63d3f953f8fb0fe970f0d0c6,11:27:07 AM,1/15/2024
2810.0,"<p style=""font-size:3rem"">Trial 7 of 12</p><br><br><br>",0,fwdspan,start_trial,AANgw6xWpXc0R6BQyB4BaJ5UvJp1,html-button-response,74,887471,0.0-7.0-2.6-0.6-0.6,,,,,,,63d3f953f8fb0fe970f0d0c6,11:27:07 AM,1/15/2024
,"<p style=""font-size:14rem;font-weight:400;"">9</p>",,fwdspan,number,AANgw6xWpXc0R6BQyB4BaJ5UvJp1,html-keyboard-response,75,888495,0.0-7.0-2.6-0.6-1.29-0.29,,,,,,,63d3f953f8fb0fe970f0d0c6,11:27:07 AM,1/15/2024
,"<p style=""font-size:14rem;font-weight:400;"">2</p>",,fwdspan,number,AANgw6xWpXc0R6BQyB4BaJ5UvJp1,html-keyboard-response,76,889510,0.0-7.0-2.6-0.6-1.30-0.30,,,,,,,63d3f953f8fb0fe970f0d0c6,11:27:07 AM,1/15/2024
,"<p style=""font-size:14rem;font-weight:400;"">3</p>",,fwdspan,number,AANgw6xWpXc0R6BQyB4BaJ5UvJp1,html-keyboard-response,77,890535,0.0-7.0-2.6-0.6-1.31-0.31,,,,,,,63d3f953f8fb0fe970f0d0c6,11:27:07 AM,1/15/2024
,"<p style=""font-size:14rem;font-weight:400;"">4</p>",,fwdspan,number,AANgw6xWpXc0R6BQyB4BaJ5UvJp1,html-keyboard-response,78,891551,0.0-7.0-2.6-0.6-1.32-0.32,,,,,,,63d3f953f8fb0fe970f0d0c6,11:27:07 AM,1/15/2024
,"<p style=""font-size:14rem;font-weight:400;"">1</p>",,fwdspan,number,AANgw6xWpXc0R6BQyB4BaJ5UvJp1,html-keyboard-response,79,892574,0.0-7.0-2.6-0.6-1.33-0.33,,,,,,,63d3f953f8fb0fe970f0d0c6,11:27:07 AM,1/15/2024
,"<p style=""font-size:14rem;font-weight:400;"">6</p>",,fwdspan,number,AANgw6xWpXc0R6BQyB4BaJ5UvJp1,html-keyboard-response,80,893597,0.0-7.0-2.6-0.6-1.34-0.34,,,,,,,63d3f953f8fb0fe970f0d0c6,11:27:07 AM,1/15/2024
,"<p style=""font-size:14rem;font-weight:400;"">8</p>",,fwdspan,number,AANgw6xWpXc0R6BQyB4BaJ5UvJp1,html-keyboard-response,81,894620,0.0-7.0-2.6-0.6-1.35-0.35,,,,,,,63d3f953f8fb0fe970f0d0c6,11:27:07 AM,1/15/2024
,[],,fwdspan,delay,AANgw6xWpXc0R6BQyB4BaJ5UvJp1,html-keyboard-response,82,895198,0.0-7.0-2.6-0.6-2.6,,,,,,,63d3f953f8fb0fe970f0d0c6,11:27:07 AM,1/15/2024
5288.399999976158,"<div class = numbox><p style=""font-size:2.5rem"">What were the numbers <b>in order</b>?<br>(When you are ready to lock in your answer, press <b>ENTER</b>)</p><button id = button_1 class = ""square num-button"" onclick = ""recordClick(this)""><div class = content><div class = numbers>1</div></div></button><button id = button_2 class = ""square num-button"" onclick = ""recordClick(this)""><div class = content><div class = numbers>2</div></div></button><button id = button_3 class = ""square num-button"" onclick = ""recordClick(this)""><div class = content><div class = numbers>3</div></div></button><button id = button_4 class = ""square num-button"" onclick = ""recordClick(this)""><div class = content><div class = numbers>4</div></div></button><button id = button_5 class = ""square num-button"" onclick = ""recordClick(this)""><div class = content><div class = numbers>5</div></div></button><button id = button_6 class = ""square num-button"" onclick = ""recordClick(this)""><div class = content><div class = numbers>6</div></div></button><button id = button_7 class = ""square num-button"" onclick = ""recordClick(this)""><div class = content><div class = numbers>7</div></div></button><button id = button_8 class = ""square num-button"" onclick = ""recordClick(this)""><div class = content><div class = numbers>8</div></div></button><button id = button_9 class = ""square num-button"" onclick = ""recordClick(this)""><div class = content><div class = numbers>9</div></div></button><button class = clear_button id = ""ClearButton"" onclick = ""clearResponse()"">Clear</button><p><u><b>Current Answer:</b></u></p><div id=echoed_txt style=""font-size: 6rem; color:blue;""><b></b></div></div><br><br><br><br><br><br><br>",enter,fwdspan,response,AANgw6xWpXc0R6BQyB4BaJ5UvJp1,html-keyboard-response,83,900488,0.0-7.0-2.6-0.6-3.6,7.0,"[9,2,3,4,1,6,8]","[9,2,3,4,1,6,8]",1.0,"[3, 4, 5, 5, 6, 6, 7, 8, 8, 7, 7, 6]",,63d3f953f8fb0fe970f0d0c6,11:27:07 AM,1/15/2024
,,,fwdspan,update_span,AANgw6xWpXc0R6BQyB4BaJ5UvJp1,call-function,84,900754,0.0-7.0-2.6-0.6-4.6,,,,,,,63d3f953f8fb0fe970f0d0c6,11:27:07 AM,1/15/2024
1215.5999999642372,"<p style=""font-size:3rem"">Trial 8 of 12</p><br><br><br>",0,fwdspan,start_trial,AANgw6xWpXc0R6BQyB4BaJ5UvJp1,html-button-response,85,901970,0.0-7.0-2.7-0.7-0.7,,,,,,,63d3f953f8fb0fe970f0d0c6,11:27:07 AM,1/15/2024
,"<p style=""font-size:14rem;font-weight:400;"">3</p>",,fwdspan,number,AANgw6xWpXc0R6BQyB4BaJ5UvJp1,html-keyboard-response,86,902994,0.0-7.0-2.7-0.7-1.36-0.36,,,,,,,63d3f953f8fb0fe970f0d0c6,11:27:07 AM,1/15/2024
,"<p style=""font-size:14rem;font-weight:400;"">2</p>",,fwdspan,number,AANgw6xWpXc0R6BQyB4BaJ5UvJp1,html-keyboard-response,87,904021,0.0-7.0-2.7-0.7-1.37-0.37,,,,,,,63d3f953f8fb0fe970f0d0c6,11:27:07 AM,1/15/2024
,"<p style=""font-size:14rem;font-weight:400;"">1</p>",,fwdspan,number,AANgw6xWpXc0R6BQyB4BaJ5UvJp1,html-keyboard-response,88,905043,0.0-7.0-2.7-0.7-1.38-0.38,,,,,,,63d3f953f8fb0fe970f0d0c6,11:27:07 AM,1/15/2024
,"<p style=""font-size:14rem;font-weight:400;"">4</p>",,fwdspan,number,AANgw6xWpXc0R6BQyB4BaJ5UvJp1,html-keyboard-response,89,906065,0.0-7.0-2.7-0.7-1.39-0.39,,,,,,,63d3f953f8fb0fe970f0d0c6,11:27:07 AM,1/15/2024
,"<p style=""font-size:14rem;font-weight:400;"">5</p>",,fwdspan,number,AANgw6xWpXc0R6BQyB4BaJ5UvJp1,html-keyboard-response,90,907094,0.0-7.0-2.7-0.7-1.40-0.40,,,,,,,63d3f953f8fb0fe970f0d0c6,11:27:07 AM,1/15/2024
,"<p style=""font-size:14rem;font-weight:400;"">8</p>",,fwdspan,number,AANgw6xWpXc0R6BQyB4BaJ5UvJp1,html-keyboard-response,91,908119,0.0-7.0-2.7-0.7-1.41-0.41,,,,,,,63d3f953f8fb0fe970f0d0c6,11:27:07 AM,1/15/2024
,"<p style=""font-size:14rem;font-weight:400;"">7</p>",,fwdspan,number,AANgw6xWpXc0R6BQyB4BaJ5UvJp1,html-keyboard-response,92,909146,0.0-7.0-2.7-0.7-1.42-0.42,,,,,,,63d3f953f8fb0fe970f0d0c6,11:27:07 AM,1/15/2024
,"<p style=""font-size:14rem;font-weight:400;"">6</p>",,fwdspan,number,AANgw6xWpXc0R6BQyB4BaJ5UvJp1,html-keyboard-response,93,910168,0.0-7.0-2.7-0.7-1.43-0.43,,,,,,,63d3f953f8fb0fe970f0d0c6,11:27:07 AM,1/15/2024
,[],,fwdspan,delay,AANgw6xWpXc0R6BQyB4BaJ5UvJp1,html-keyboard-response,94,910746,0.0-7.0-2.7-0.7-2.7,,,,,,,63d3f953f8fb0fe970f0d0c6,11:27:07 AM,1/15/2024
5457.899999976158,"<div class = numbox><p style=""font-size:2.5rem"">What were the numbers <b>in order</b>?<br>(When you are ready to lock in your answer, press <b>ENTER</b>)</p><button id = button_1 class = ""square num-button"" onclick = ""recordClick(this)""><div class = content><div class = numbers>1</div></div></button><button id = button_2 class = ""square num-button"" onclick = ""recordClick(this)""><div class = content><div class = numbers>2</div></div></button><button id = button_3 class = ""square num-button"" onclick = ""recordClick(this)""><div class = content><div class = numbers>3</div></div></button><button id = button_4 class = ""square num-button"" onclick = ""recordClick(this)""><div class = content><div class = numbers>4</div></div></button><button id = button_5 class = ""square num-button"" onclick = ""recordClick(this)""><div class = content><div class = numbers>5</div></div></button><button id = button_6 class = ""square num-button"" onclick = ""recordClick(this)""><div class = content><div class = numbers>6</div></div></button><button id = button_7 class = ""square num-button"" onclick = ""recordClick(this)""><div class = content><div class = numbers>7</div></div></button><button id = button_8 class = ""square num-button"" onclick = ""recordClick(this)""><div class = content><div class = numbers>8</div></div></button><button id = button_9 class = ""square num-button"" onclick = ""recordClick(this)""><div class = content><div class = numbers>9</div></div></button><button class = clear_button id = ""ClearButton"" onclick = ""clearResponse()"">Clear</button><p><u><b>Current Answer:</b></u></p><div id=echoed_txt style=""font-size: 6rem; color:blue;""><b></b></div></div><br><br><br><br><br><br><br>",enter,fwdspan,response,AANgw6xWpXc0R6BQyB4BaJ5UvJp1,html-keyboard-response,95,916205,0.0-7.0-2.7-0.7-3.7,8.0,"[3,1,5,6,7,8]","[3,2,1,4,5,8,7,6]",0.0,"[3, 4, 5, 5, 6, 6, 7, 8, 8, 7, 7, 6]",,63d3f953f8fb0fe970f0d0c6,11:27:07 AM,1/15/2024
,,,fwdspan,update_span,AANgw6xWpXc0R6BQyB4BaJ5UvJp1,call-function,96,916467,0.0-7.0-2.7-0.7-4.7,,,,,,,63d3f953f8fb0fe970f0d0c6,11:27:07 AM,1/15/2024
1197.0999999642372,"<p style=""font-size:3rem"">Trial 9 of 12</p><br><br><br>",0,fwdspan,start_trial,AANgw6xWpXc0R6BQyB4BaJ5UvJp1,html-button-response,97,917665,0.0-7.0-2.8-0.8-0.8,,,,,,,63d3f953f8fb0fe970f0d0c6,11:27:07 AM,1/15/2024
,"<p style=""font-size:14rem;font-weight:400;"">6</p>",,fwdspan,number,AANgw6xWpXc0R6BQyB4BaJ5UvJp1,html-keyboard-response,98,918686,0.0-7.0-2.8-0.8-1.44-0.44,,,,,,,63d3f953f8fb0fe970f0d0c6,11:27:07 AM,1/15/2024
,"<p style=""font-size:14rem;font-weight:400;"">5</p>",,fwdspan,number,AANgw6xWpXc0R6BQyB4BaJ5UvJp1,html-keyboard-response,99,919712,0.0-7.0-2.8-0.8-1.45-0.45,,,,,,,63d3f953f8fb0fe970f0d0c6,11:27:07 AM,1/15/2024
,"<p style=""font-size:14rem;font-weight:400;"">3</p>",,fwdspan,number,AANgw6xWpXc0R6BQyB4BaJ5UvJp1,html-keyboard-response,100,920735,0.0-7.0-2.8-0.8-1.46-0.46,,,,,,,63d3f953f8fb0fe970f0d0c6,11:27:07 AM,1/15/2024
,"<p style=""font-size:14rem;font-weight:400;"">8</p>",,fwdspan,number,AANgw6xWpXc0R6BQyB4BaJ5UvJp1,html-keyboard-response,101,921759,0.0-7.0-2.8-0.8-1.47-0.47,,,,,,,63d3f953f8fb0fe970f0d0c6,11:27:07 AM,1/15/2024
,"<p style=""font-size:14rem;font-weight:400;"">7</p>",,fwdspan,number,AANgw6xWpXc0R6BQyB4BaJ5UvJp1,html-keyboard-response,102,922772,0.0-7.0-2.8-0.8-1.48-0.48,,,,,,,63d3f953f8fb0fe970f0d0c6,11:27:07 AM,1/15/2024
,"<p style=""font-size:14rem;font-weight:400;"">2</p>",,fwdspan,number,AANgw6xWpXc0R6BQyB4BaJ5UvJp1,html-keyboard-response,103,923788,0.0-7.0-2.8-0.8-1.49-0.49,,,,,,,63d3f953f8fb0fe970f0d0c6,11:27:07 AM,1/15/2024
,"<p style=""font-size:14rem;font-weight:400;"">9</p>",,fwdspan,number,AANgw6xWpXc0R6BQyB4BaJ5UvJp1,html-keyboard-response,104,924806,0.0-7.0-2.8-0.8-1.50-0.50,,,,,,,63d3f953f8fb0fe970f0d0c6,11:27:07 AM,1/15/2024
,"<p style=""font-size:14rem;font-weight:400;"">4</p>",,fwdspan,number,AANgw6xWpXc0R6BQyB4BaJ5UvJp1,html-keyboard-response,105,925831,0.0-7.0-2.8-0.8-1.51-0.51,,,,,,,63d3f953f8fb0fe970f0d0c6,11:27:07 AM,1/15/2024
,[],,fwdspan,delay,AANgw6xWpXc0R6BQyB4BaJ5UvJp1,html-keyboard-response,106,926405,0.0-7.0-2.8-0.8-2.8,,,,,,,63d3f953f8fb0fe970f0d0c6,11:27:07 AM,1/15/2024
8006.599999964237,"<div class = numbox><p style=""font-size:2.5rem"">What were the numbers <b>in order</b>?<br>(When you are ready to lock in your answer, press <b>ENTER</b>)</p><button id = button_1 class = ""square num-button"" onclick = ""recordClick(this)""><div class = content><div class = numbers>1</div></div></button><button id = button_2 class = ""square num-button"" onclick = ""recordClick(this)""><div class = content><div class = numbers>2</div></div></button><button id = button_3 class = ""square num-button"" onclick = ""recordClick(this)""><div class = content><div class = numbers>3</div></div></button><button id = button_4 class = ""square num-button"" onclick = ""recordClick(this)""><div class = content><div class = numbers>4</div></div></button><button id = button_5 class = ""square num-button"" onclick = ""recordClick(this)""><div class = content><div class = numbers>5</div></div></button><button id = button_6 class = ""square num-button"" onclick = ""recordClick(this)""><div class = content><div class = numbers>6</div></div></button><button id = button_7 class = ""square num-button"" onclick = ""recordClick(this)""><div class = content><div class = numbers>7</div></div></button><button id = button_8 class = ""square num-button"" onclick = ""recordClick(this)""><div class = content><div class = numbers>8</div></div></button><button id = button_9 class = ""square num-button"" onclick = ""recordClick(this)""><div class = content><div class = numbers>9</div></div></button><button class = clear_button id = ""ClearButton"" onclick = ""clearResponse()"">Clear</button><p><u><b>Current Answer:</b></u></p><div id=echoed_txt style=""font-size: 6rem; color:blue;""><b></b></div></div><br><br><br><br><br><br><br>",enter,fwdspan,response,AANgw6xWpXc0R6BQyB4BaJ5UvJp1,html-keyboard-response,107,934413,0.0-7.0-2.8-0.8-3.8,8.0,"[6,3,7,8,9,5,4]","[6,5,3,8,7,2,9,4]",0.0,"[3, 4, 5, 5, 6, 6, 7, 8, 8, 7, 7, 6]",,63d3f953f8fb0fe970f0d0c6,11:27:07 AM,1/15/2024
,,,fwdspan,update_span,AANgw6xWpXc0R6BQyB4BaJ5UvJp1,call-function,108,934675,0.0-7.0-2.8-0.8-4.8,,,,,,,63d3f953f8fb0fe970f0d0c6,11:27:07 AM,1/15/2024
1073.5,"<p style=""font-size:3rem"">Trial 10 of 12</p><br><br><br>",0,fwdspan,start_trial,AANgw6xWpXc0R6BQyB4BaJ5UvJp1,html-button-response,109,935749,0.0-7.0-2.9-0.9-0.9,,,,,,,63d3f953f8fb0fe970f0d0c6,11:27:07 AM,1/15/2024
,"<p style=""font-size:14rem;font-weight:400;"">9</p>",,fwdspan,number,AANgw6xWpXc0R6BQyB4BaJ5UvJp1,html-keyboard-response,110,936770,0.0-7.0-2.9-0.9-1.52-0.52,,,,,,,63d3f953f8fb0fe970f0d0c6,11:27:07 AM,1/15/2024
,"<p style=""font-size:14rem;font-weight:400;"">3</p>",,fwdspan,number,AANgw6xWpXc0R6BQyB4BaJ5UvJp1,html-keyboard-response,111,937796,0.0-7.0-2.9-0.9-1.53-0.53,,,,,,,63d3f953f8fb0fe970f0d0c6,11:27:07 AM,1/15/2024
,"<p style=""font-size:14rem;font-weight:400;"">5</p>",,fwdspan,number,AANgw6xWpXc0R6BQyB4BaJ5UvJp1,html-keyboard-response,112,938822,0.0-7.0-2.9-0.9-1.54-0.54,,,,,,,63d3f953f8fb0fe970f0d0c6,11:27:07 AM,1/15/2024
,"<p style=""font-size:14rem;font-weight:400;"">8</p>",,fwdspan,number,AANgw6xWpXc0R6BQyB4BaJ5UvJp1,html-keyboard-response,113,939848,0.0-7.0-2.9-0.9-1.55-0.55,,,,,,,63d3f953f8fb0fe970f0d0c6,11:27:07 AM,1/15/2024
,"<p style=""font-size:14rem;font-weight:400;"">6</p>",,fwdspan,number,AANgw6xWpXc0R6BQyB4BaJ5UvJp1,html-keyboard-response,114,940869,0.0-7.0-2.9-0.9-1.56-0.56,,,,,,,63d3f953f8fb0fe970f0d0c6,11:27:07 AM,1/15/2024
,"<p style=""font-size:14rem;font-weight:400;"">7</p>",,fwdspan,number,AANgw6xWpXc0R6BQyB4BaJ5UvJp1,html-keyboard-response,115,941896,0.0-7.0-2.9-0.9-1.57-0.57,,,,,,,63d3f953f8fb0fe970f0d0c6,11:27:07 AM,1/15/2024
,"<p style=""font-size:14rem;font-weight:400;"">2</p>",,fwdspan,number,AANgw6xWpXc0R6BQyB4BaJ5UvJp1,html-keyboard-response,116,942924,0.0-7.0-2.9-0.9-1.58-0.58,,,,,,,63d3f953f8fb0fe970f0d0c6,11:27:07 AM,1/15/2024
,[],,fwdspan,delay,AANgw6xWpXc0R6BQyB4BaJ5UvJp1,html-keyboard-response,117,943499,0.0-7.0-2.9-0.9-2.9,,,,,,,63d3f953f8fb0fe970f0d0c6,11:27:07 AM,1/15/2024
6249.199999988079,"<div class = numbox><p style=""font-size:2.5rem"">What were the numbers <b>in order</b>?<br>(When you are ready to lock in your answer, press <b>ENTER</b>)</p><button id = button_1 class = ""square num-button"" onclick = ""recordClick(this)""><div class = content><div class = numbers>1</div></div></button><button id = button_2 class = ""square num-button"" onclick = ""recordClick(this)""><div class = content><div class = numbers>2</div></div></button><button id = button_3 class = ""square num-button"" onclick = ""recordClick(this)""><div class = content><div class = numbers>3</div></div></button><button id = button_4 class = ""square num-button"" onclick = ""recordClick(this)""><div class = content><div class = numbers>4</div></div></button><button id = button_5 class = ""square num-button"" onclick = ""recordClick(this)""><div class = content><div class = numbers>5</div></div></button><button id = button_6 class = ""square num-button"" onclick = ""recordClick(this)""><div class = content><div class = numbers>6</div></div></button><button id = button_7 class = ""square num-button"" onclick = ""recordClick(this)""><div class = content><div class = numbers>7</div></div></button><button id = button_8 class = ""square num-button"" onclick = ""recordClick(this)""><div class = content><div class = numbers>8</div></div></button><button id = button_9 class = ""square num-button"" onclick = ""recordClick(this)""><div class = content><div class = numbers>9</div></div></button><button class = clear_button id = ""ClearButton"" onclick = ""clearResponse()"">Clear</button><p><u><b>Current Answer:</b></u></p><div id=echoed_txt style=""font-size: 6rem; color:blue;""><b></b></div></div><br><br><br><br><br><br><br>",enter,fwdspan,response,AANgw6xWpXc0R6BQyB4BaJ5UvJp1,html-keyboard-response,118,949750,0.0-7.0-2.9-0.9-3.9,7.0,"[9,3,5,8,6,2,1]","[9,3,5,8,6,7,2]",0.0,"[3, 4, 5, 5, 6, 6, 7, 8, 8, 7, 7, 6]",,63d3f953f8fb0fe970f0d0c6,11:27:07 AM,1/15/2024
,,,fwdspan,update_span,AANgw6xWpXc0R6BQyB4BaJ5UvJp1,call-function,119,950008,0.0-7.0-2.9-0.9-4.9,,,,,,,63d3f953f8fb0fe970f0d0c6,11:27:07 AM,1/15/2024
2388.100000023842,"<p style=""font-size:3rem"">Trial 11 of 12</p><br><br><br>",0,fwdspan,start_trial,AANgw6xWpXc0R6BQyB4BaJ5UvJp1,html-button-response,120,952397,0.0-7.0-2.10-0.10-0.10,,,,,,,63d3f953f8fb0fe970f0d0c6,11:27:07 AM,1/15/2024
,"<p style=""font-size:14rem;font-weight:400;"">2</p>",,fwdspan,number,AANgw6xWpXc0R6BQyB4BaJ5UvJp1,html-keyboard-response,121,953421,0.0-7.0-2.10-0.10-1.59-0.59,,,,,,,63d3f953f8fb0fe970f0d0c6,11:27:07 AM,1/15/2024
,"<p style=""font-size:14rem;font-weight:400;"">5</p>",,fwdspan,number,AANgw6xWpXc0R6BQyB4BaJ5UvJp1,html-keyboard-response,122,954450,0.0-7.0-2.10-0.10-1.60-0.60,,,,,,,63d3f953f8fb0fe970f0d0c6,11:27:07 AM,1/15/2024
,"<p style=""font-size:14rem;font-weight:400;"">1</p>",,fwdspan,number,AANgw6xWpXc0R6BQyB4BaJ5UvJp1,html-keyboard-response,123,955465,0.0-7.0-2.10-0.10-1.61-0.61,,,,,,,63d3f953f8fb0fe970f0d0c6,11:27:07 AM,1/15/2024
,"<p style=""font-size:14rem;font-weight:400;"">7</p>",,fwdspan,number,AANgw6xWpXc0R6BQyB4BaJ5UvJp1,html-keyboard-response,124,956492,0.0-7.0-2.10-0.10-1.62-0.62,,,,,,,63d3f953f8fb0fe970f0d0c6,11:27:07 AM,1/15/2024
,"<p style=""font-size:14rem;font-weight:400;"">9</p>",,fwdspan,number,AANgw6xWpXc0R6BQyB4BaJ5UvJp1,html-keyboard-response,125,957505,0.0-7.0-2.10-0.10-1.63-0.63,,,,,,,63d3f953f8fb0fe970f0d0c6,11:27:07 AM,1/15/2024
,"<p style=""font-size:14rem;font-weight:400;"">4</p>",,fwdspan,number,AANgw6xWpXc0R6BQyB4BaJ5UvJp1,html-keyboard-response,126,958533,0.0-7.0-2.10-0.10-1.64-0.64,,,,,,,63d3f953f8fb0fe970f0d0c6,11:27:07 AM,1/15/2024
,"<p style=""font-size:14rem;font-weight:400;"">6</p>",,fwdspan,number,AANgw6xWpXc0R6BQyB4BaJ5UvJp1,html-keyboard-response,127,959559,0.0-7.0-2.10-0.10-1.65-0.65,,,,,,,63d3f953f8fb0fe970f0d0c6,11:27:07 AM,1/15/2024
,[],,fwdspan,delay,AANgw6xWpXc0R6BQyB4BaJ5UvJp1,html-keyboard-response,128,960137,0.0-7.0-2.10-0.10-2.10,,,,,,,63d3f953f8fb0fe970f0d0c6,11:27:07 AM,1/15/2024
7031.599999964237,"<div class = numbox><p style=""font-size:2.5rem"">What were the numbers <b>in order</b>?<br>(When you are ready to lock in your answer, press <b>ENTER</b>)</p><button id = button_1 class = ""square num-button"" onclick = ""recordClick(this)""><div class = content><div class = numbers>1</div></div></button><button id = button_2 class = ""square num-button"" onclick = ""recordClick(this)""><div class = content><div class = numbers>2</div></div></button><button id = button_3 class = ""square num-button"" onclick = ""recordClick(this)""><div class = content><div class = numbers>3</div></div></button><button id = button_4 class = ""square num-button"" onclick = ""recordClick(this)""><div class = content><div class = numbers>4</div></div></button><button id = button_5 class = ""square num-button"" onclick = ""recordClick(this)""><div class = content><div class = numbers>5</div></div></button><button id = button_6 class = ""square num-button"" onclick = ""recordClick(this)""><div class = content><div class = numbers>6</div></div></button><button id = button_7 class = ""square num-button"" onclick = ""recordClick(this)""><div class = content><div class = numbers>7</div></div></button><button id = button_8 class = ""square num-button"" onclick = ""recordClick(this)""><div class = content><div class = numbers>8</div></div></button><button id = button_9 class = ""square num-button"" onclick = ""recordClick(this)""><div class = content><div class = numbers>9</div></div></button><button class = clear_button id = ""ClearButton"" onclick = ""clearResponse()"">Clear</button><p><u><b>Current Answer:</b></u></p><div id=echoed_txt style=""font-size: 6rem; color:blue;""><b></b></div></div><br><br><br><br><br><br><br>",enter,fwdspan,response,AANgw6xWpXc0R6BQyB4BaJ5UvJp1,html-keyboard-response,129,967170,0.0-7.0-2.10-0.10-3.10,7.0,"[2,5,1,7,8,3,4]","[2,5,1,7,9,4,6]",0.0,"[3, 4, 5, 5, 6, 6, 7, 8, 8, 7, 7, 6]",,63d3f953f8fb0fe970f0d0c6,11:27:07 AM,1/15/2024
,,,fwdspan,update_span,AANgw6xWpXc0R6BQyB4BaJ5UvJp1,call-function,130,967428,0.0-7.0-2.10-0.10-4.10,,,,,,,63d3f953f8fb0fe970f0d0c6,11:27:07 AM,1/15/2024
1563.3999999761581,"<p style=""font-size:3rem"">Trial 12 of 12</p><br><br><br>",0,fwdspan,start_trial,AANgw6xWpXc0R6BQyB4BaJ5UvJp1,html-button-response,131,968992,0.0-7.0-2.11-0.11-0.11,,,,,,,63d3f953f8fb0fe970f0d0c6,11:27:07 AM,1/15/2024
,"<p style=""font-size:14rem;font-weight:400;"">7</p>",,fwdspan,number,AANgw6xWpXc0R6BQyB4BaJ5UvJp1,html-keyboard-response,132,970014,0.0-7.0-2.11-0.11-1.66-0.66,,,,,,,63d3f953f8fb0fe970f0d0c6,11:27:07 AM,1/15/2024
,"<p style=""font-size:14rem;font-weight:400;"">3</p>",,fwdspan,number,AANgw6xWpXc0R6BQyB4BaJ5UvJp1,html-keyboard-response,133,971035,0.0-7.0-2.11-0.11-1.67-0.67,,,,,,,63d3f953f8fb0fe970f0d0c6,11:27:07 AM,1/15/2024
,"<p style=""font-size:14rem;font-weight:400;"">8</p>",,fwdspan,number,AANgw6xWpXc0R6BQyB4BaJ5UvJp1,html-keyboard-response,134,972061,0.0-7.0-2.11-0.11-1.68-0.68,,,,,,,63d3f953f8fb0fe970f0d0c6,11:27:07 AM,1/15/2024
,"<p style=""font-size:14rem;font-weight:400;"">5</p>",,fwdspan,number,AANgw6xWpXc0R6BQyB4BaJ5UvJp1,html-keyboard-response,135,973077,0.0-7.0-2.11-0.11-1.69-0.69,,,,,,,63d3f953f8fb0fe970f0d0c6,11:27:07 AM,1/15/2024
,"<p style=""font-size:14rem;font-weight:400;"">6</p>",,fwdspan,number,AANgw6xWpXc0R6BQyB4BaJ5UvJp1,html-keyboard-response,136,974103,0.0-7.0-2.11-0.11-1.70-0.70,,,,,,,63d3f953f8fb0fe970f0d0c6,11:27:07 AM,1/15/2024
,"<p style=""font-size:14rem;font-weight:400;"">1</p>",,fwdspan,number,AANgw6xWpXc0R6BQyB4BaJ5UvJp1,html-keyboard-response,137,975118,0.0-7.0-2.11-0.11-1.71-0.71,,,,,,,63d3f953f8fb0fe970f0d0c6,11:27:07 AM,1/15/2024
,[],,fwdspan,delay,AANgw6xWpXc0R6BQyB4BaJ5UvJp1,html-keyboard-response,138,975688,0.0-7.0-2.11-0.11-2.11,,,,,,,63d3f953f8fb0fe970f0d0c6,11:27:07 AM,1/15/2024
11229.400000035763,"<div class = numbox><p style=""font-size:2.5rem"">What were the numbers <b>in order</b>?<br>(When you are ready to lock in your answer, press <b>ENTER</b>)</p><button id = button_1 class = ""square num-button"" onclick = ""recordClick(this)""><div class = content><div class = numbers>1</div></div></button><button id = button_2 class = ""square num-button"" onclick = ""recordClick(this)""><div class = content><div class = numbers>2</div></div></button><button id = button_3 class = ""square num-button"" onclick = ""recordClick(this)""><div class = content><div class = numbers>3</div></div></button><button id = button_4 class = ""square num-button"" onclick = ""recordClick(this)""><div class = content><div class = numbers>4</div></div></button><button id = button_5 class = ""square num-button"" onclick = ""recordClick(this)""><div class = content><div class = numbers>5</div></div></button><button id = button_6 class = ""square num-button"" onclick = ""recordClick(this)""><div class = content><div class = numbers>6</div></div></button><button id = button_7 class = ""square num-button"" onclick = ""recordClick(this)""><div class = content><div class = numbers>7</div></div></button><button id = button_8 class = ""square num-button"" onclick = ""recordClick(this)""><div class = content><div class = numbers>8</div></div></button><button id = button_9 class = ""square num-button"" onclick = ""recordClick(this)""><div class = content><div class = numbers>9</div></div></button><button class = clear_button id = ""ClearButton"" onclick = ""clearResponse()"">Clear</button><p><u><b>Current Answer:</b></u></p><div id=echoed_txt style=""font-size: 6rem; color:blue;""><b></b></div></div><br><br><br><br><br><br><br>",enter,fwdspan,response,AANgw6xWpXc0R6BQyB4BaJ5UvJp1,html-keyboard-response,139,986918,0.0-7.0-2.11-0.11-3.11,6.0,"[7,3,8,5,6,4]","[7,3,8,5,6,1]",0.0,"[3, 4, 5, 5, 6, 6, 7, 8, 8, 7, 7, 6]",,63d3f953f8fb0fe970f0d0c6,11:27:07 AM,1/15/2024
,,,fwdspan,update_span,AANgw6xWpXc0R6BQyB4BaJ5UvJp1,call-function,140,987178,0.0-7.0-2.11-0.11-4.11,,,,,,,63d3f953f8fb0fe970f0d0c6,11:27:07 AM,1/15/2024
13398.699999988079,,{'Q0': 'Nothing to comment'},fwdspan,survey,AANgw6xWpXc0R6BQyB4BaJ5UvJp1,lmdlab-survey-text,141,1001333,0.0-7.0-3.0,,,,,,AANgw6xWpXc0R6BQyB4BaJ5UvJp1,63d3f953f8fb0fe970f0d0c6,11:27:07 AM,1/15/2024
1224.300000011921,<p><p style='font-size: 3rem'>Great work!<br><br>This completes the digit span task.</p><br><br><br>,0,fwdspan,finish,AANgw6xWpXc0R6BQyB4BaJ5UvJp1,html-button-response,142,1002559,0.0-7.0-4.0,,,,,,,63d3f953f8fb0fe970f0d0c6,11:27:07 AM,1/15/2024
