rt,stimulus,response,exp_name,exp_stage,subjectID,trial_type,trial_index,time_elapsed,internal_node_id,span,answer,correct,correct_full,span_history,databaseID,prolificID,start_time,date
2775.0,"<p style=""font-size:4rem""><br><br>In the next part today, we have a completely different short task.<br><br><br>This part involves keeping numbers in you mind. Participation takes around 5 minutes.<br><br><br></p>",0,fwdspan,instruct,At85kW1iasTOjFt6et7XjiYtekN2,html-button-response,19,322301,0.0-7.0-0.0,,,,,,,6400d919945d23676a68b781,11:20:15,15/01/2024
8582.69999999553,"<p style=""font-size:5rem"">Welcome to the <b>digit span task</b>!<br><br></p><p style=""font-size:3.4rem""><br>On each trial, you will see a sequence of digits, followed by a delay.</p><p style=""font-size:3.4rem""><br>Then you will be asked to type them back in the same order in which they were seen.</p><p style=""font-size:3.4rem""><br><br><br>For example, if you saw the digits <b style=""color:blue;"">1</b>, <b style=""color:blue;"">2</b>, <b style=""color:blue;"">3</b>, you would respond with <b style=""color:blue;"">1</b>, <b style=""color:blue;"">2</b>, <b style=""color:blue;"">3</b></p><p style=""font-size:3.4rem""><br><br><br>To ensure the best measure of true performance for our study,<br><br>it is very important that you do not use any memory aid (e.g., pen and paper).<br><br>Please do the task solely in your head.</p><p style=""font-size:3.4rem""><br><br><br>There will be 12 total trials. Participation takes around 5 minutes.</p><br><br><br>",0,fwdspan,instruct,At85kW1iasTOjFt6et7XjiYtekN2,html-button-response,20,330887,0.0-7.0-1.0,,,,,,,6400d919945d23676a68b781,11:20:15,15/01/2024
1316.1000000014901,"<p style=""font-size:3rem"">Trial 1 of 12</p><br><br><br>",0,fwdspan,start_trial,At85kW1iasTOjFt6et7XjiYtekN2,html-button-response,21,332206,0.0-7.0-2.0-0.0-0.0,,,,,,,6400d919945d23676a68b781,11:20:15,15/01/2024
,"<p style=""font-size:14rem;font-weight:400;"">6</p>",,fwdspan,number,At85kW1iasTOjFt6et7XjiYtekN2,html-keyboard-response,22,333212,0.0-7.0-2.0-0.0-1.0-0.0,,,,,,,6400d919945d23676a68b781,11:20:15,15/01/2024
,"<p style=""font-size:14rem;font-weight:400;"">7</p>",,fwdspan,number,At85kW1iasTOjFt6et7XjiYtekN2,html-keyboard-response,23,334215,0.0-7.0-2.0-0.0-1.1-0.1,,,,,,,6400d919945d23676a68b781,11:20:15,15/01/2024
,"<p style=""font-size:14rem;font-weight:400;"">5</p>",,fwdspan,number,At85kW1iasTOjFt6et7XjiYtekN2,html-keyboard-response,24,335216,0.0-7.0-2.0-0.0-1.2-0.2,,,,,,,6400d919945d23676a68b781,11:20:15,15/01/2024
,[],,fwdspan,delay,At85kW1iasTOjFt6et7XjiYtekN2,html-keyboard-response,25,335768,0.0-7.0-2.0-0.0-2.0,,,,,,,6400d919945d23676a68b781,11:20:15,15/01/2024
4586.79999999702,"<div class = numbox><p style=""font-size:2.5rem"">What were the numbers <b>in order</b>?<br>(When you are ready to lock in your answer, press <b>ENTER</b>)</p><button id = button_1 class = ""square num-button"" onclick = ""recordClick(this)""><div class = content><div class = numbers>1</div></div></button><button id = button_2 class = ""square num-button"" onclick = ""recordClick(this)""><div class = content><div class = numbers>2</div></div></button><button id = button_3 class = ""square num-button"" onclick = ""recordClick(this)""><div class = content><div class = numbers>3</div></div></button><button id = button_4 class = ""square num-button"" onclick = ""recordClick(this)""><div class = content><div class = numbers>4</div></div></button><button id = button_5 class = ""square num-button"" onclick = ""recordClick(this)""><div class = content><div class = numbers>5</div></div></button><button id = button_6 class = ""square num-button"" onclick = ""recordClick(this)""><div class = content><div class = numbers>6</div></div></button><button id = button_7 class = ""square num-button"" onclick = ""recordClick(this)""><div class = content><div class = numbers>7</div></div></button><button id = button_8 class = ""square num-button"" onclick = ""recordClick(this)""><div class = content><div class = numbers>8</div></div></button><button id = button_9 class = ""square num-button"" onclick = ""recordClick(this)""><div class = content><div class = numbers>9</div></div></button><button class = clear_button id = ""ClearButton"" onclick = ""clearResponse()"">Clear</button><p><u><b>Current Answer:</b></u></p><div id=echoed_txt style=""font-size: 6rem; color:blue;""><b></b></div></div><br><br><br><br><br><br><br>",enter,fwdspan,response,At85kW1iasTOjFt6et7XjiYtekN2,html-keyboard-response,26,340356,0.0-7.0-2.0-0.0-3.0,3.0,"[6,7,5]","[6,7,5]",1.0,"[3, 4, 5, 6, 7, 8, 8, 9, 9, 8, 8, 7]",,6400d919945d23676a68b781,11:20:15,15/01/2024
,,,fwdspan,update_span,At85kW1iasTOjFt6et7XjiYtekN2,call-function,27,340614,0.0-7.0-2.0-0.0-4.0,,,,,,,6400d919945d23676a68b781,11:20:15,15/01/2024
1253.6000000014901,"<p style=""font-size:3rem"">Trial 2 of 12</p><br><br><br>",0,fwdspan,start_trial,At85kW1iasTOjFt6et7XjiYtekN2,html-button-response,28,341868,0.0-7.0-2.1-0.1-0.1,,,,,,,6400d919945d23676a68b781,11:20:15,15/01/2024
,"<p style=""font-size:14rem;font-weight:400;"">1</p>",,fwdspan,number,At85kW1iasTOjFt6et7XjiYtekN2,html-keyboard-response,29,342871,0.0-7.0-2.1-0.1-1.3-0.3,,,,,,,6400d919945d23676a68b781,11:20:15,15/01/2024
,"<p style=""font-size:14rem;font-weight:400;"">4</p>",,fwdspan,number,At85kW1iasTOjFt6et7XjiYtekN2,html-keyboard-response,30,343878,0.0-7.0-2.1-0.1-1.4-0.4,,,,,,,6400d919945d23676a68b781,11:20:15,15/01/2024
,"<p style=""font-size:14rem;font-weight:400;"">9</p>",,fwdspan,number,At85kW1iasTOjFt6et7XjiYtekN2,html-keyboard-response,31,344880,0.0-7.0-2.1-0.1-1.5-0.5,,,,,,,6400d919945d23676a68b781,11:20:15,15/01/2024
,"<p style=""font-size:14rem;font-weight:400;"">2</p>",,fwdspan,number,At85kW1iasTOjFt6et7XjiYtekN2,html-keyboard-response,32,345887,0.0-7.0-2.1-0.1-1.6-0.6,,,,,,,6400d919945d23676a68b781,11:20:15,15/01/2024
,[],,fwdspan,delay,At85kW1iasTOjFt6et7XjiYtekN2,html-keyboard-response,33,346445,0.0-7.0-2.1-0.1-2.1,,,,,,,6400d919945d23676a68b781,11:20:15,15/01/2024
3850.39999999851,"<div class = numbox><p style=""font-size:2.5rem"">What were the numbers <b>in order</b>?<br>(When you are ready to lock in your answer, press <b>ENTER</b>)</p><button id = button_1 class = ""square num-button"" onclick = ""recordClick(this)""><div class = content><div class = numbers>1</div></div></button><button id = button_2 class = ""square num-button"" onclick = ""recordClick(this)""><div class = content><div class = numbers>2</div></div></button><button id = button_3 class = ""square num-button"" onclick = ""recordClick(this)""><div class = content><div class = numbers>3</div></div></button><button id = button_4 class = ""square num-button"" onclick = ""recordClick(this)""><div class = content><div class = numbers>4</div></div></button><button id = button_5 class = ""square num-button"" onclick = ""recordClick(this)""><div class = content><div class = numbers>5</div></div></button><button id = button_6 class = ""square num-button"" onclick = ""recordClick(this)""><div class = content><div class = numbers>6</div></div></button><button id = button_7 class = ""square num-button"" onclick = ""recordClick(this)""><div class = content><div class = numbers>7</div></div></button><button id = button_8 class = ""square num-button"" onclick = ""recordClick(this)""><div class = content><div class = numbers>8</div></div></button><button id = button_9 class = ""square num-button"" onclick = ""recordClick(this)""><div class = content><div class = numbers>9</div></div></button><button class = clear_button id = ""ClearButton"" onclick = ""clearResponse()"">Clear</button><p><u><b>Current Answer:</b></u></p><div id=echoed_txt style=""font-size: 6rem; color:blue;""><b></b></div></div><br><br><br><br><br><br><br>",enter,fwdspan,response,At85kW1iasTOjFt6et7XjiYtekN2,html-keyboard-response,34,350297,0.0-7.0-2.1-0.1-3.1,4.0,"[1,4,9,2]","[1,4,9,2]",1.0,"[3, 4, 5, 6, 7, 8, 8, 9, 9, 8, 8, 7]",,6400d919945d23676a68b781,11:20:15,15/01/2024
,,,fwdspan,update_span,At85kW1iasTOjFt6et7XjiYtekN2,call-function,35,350551,0.0-7.0-2.1-0.1-4.1,,,,,,,6400d919945d23676a68b781,11:20:15,15/01/2024
614.7000000029802,"<p style=""font-size:3rem"">Trial 3 of 12</p><br><br><br>",0,fwdspan,start_trial,At85kW1iasTOjFt6et7XjiYtekN2,html-button-response,36,351167,0.0-7.0-2.2-0.2-0.2,,,,,,,6400d919945d23676a68b781,11:20:15,15/01/2024
,"<p style=""font-size:14rem;font-weight:400;"">9</p>",,fwdspan,number,At85kW1iasTOjFt6et7XjiYtekN2,html-keyboard-response,37,352170,0.0-7.0-2.2-0.2-1.7-0.7,,,,,,,6400d919945d23676a68b781,11:20:15,15/01/2024
,"<p style=""font-size:14rem;font-weight:400;"">5</p>",,fwdspan,number,At85kW1iasTOjFt6et7XjiYtekN2,html-keyboard-response,38,353172,0.0-7.0-2.2-0.2-1.8-0.8,,,,,,,6400d919945d23676a68b781,11:20:15,15/01/2024
,"<p style=""font-size:14rem;font-weight:400;"">2</p>",,fwdspan,number,At85kW1iasTOjFt6et7XjiYtekN2,html-keyboard-response,39,354178,0.0-7.0-2.2-0.2-1.9-0.9,,,,,,,6400d919945d23676a68b781,11:20:15,15/01/2024
,"<p style=""font-size:14rem;font-weight:400;"">6</p>",,fwdspan,number,At85kW1iasTOjFt6et7XjiYtekN2,html-keyboard-response,40,355188,0.0-7.0-2.2-0.2-1.10-0.10,,,,,,,6400d919945d23676a68b781,11:20:15,15/01/2024
,"<p style=""font-size:14rem;font-weight:400;"">3</p>",,fwdspan,number,At85kW1iasTOjFt6et7XjiYtekN2,html-keyboard-response,41,356196,0.0-7.0-2.2-0.2-1.11-0.11,,,,,,,6400d919945d23676a68b781,11:20:15,15/01/2024
,[],,fwdspan,delay,At85kW1iasTOjFt6et7XjiYtekN2,html-keyboard-response,42,356749,0.0-7.0-2.2-0.2-2.2,,,,,,,6400d919945d23676a68b781,11:20:15,15/01/2024
5107.80000000447,"<div class = numbox><p style=""font-size:2.5rem"">What were the numbers <b>in order</b>?<br>(When you are ready to lock in your answer, press <b>ENTER</b>)</p><button id = button_1 class = ""square num-button"" onclick = ""recordClick(this)""><div class = content><div class = numbers>1</div></div></button><button id = button_2 class = ""square num-button"" onclick = ""recordClick(this)""><div class = content><div class = numbers>2</div></div></button><button id = button_3 class = ""square num-button"" onclick = ""recordClick(this)""><div class = content><div class = numbers>3</div></div></button><button id = button_4 class = ""square num-button"" onclick = ""recordClick(this)""><div class = content><div class = numbers>4</div></div></button><button id = button_5 class = ""square num-button"" onclick = ""recordClick(this)""><div class = content><div class = numbers>5</div></div></button><button id = button_6 class = ""square num-button"" onclick = ""recordClick(this)""><div class = content><div class = numbers>6</div></div></button><button id = button_7 class = ""square num-button"" onclick = ""recordClick(this)""><div class = content><div class = numbers>7</div></div></button><button id = button_8 class = ""square num-button"" onclick = ""recordClick(this)""><div class = content><div class = numbers>8</div></div></button><button id = button_9 class = ""square num-button"" onclick = ""recordClick(this)""><div class = content><div class = numbers>9</div></div></button><button class = clear_button id = ""ClearButton"" onclick = ""clearResponse()"">Clear</button><p><u><b>Current Answer:</b></u></p><div id=echoed_txt style=""font-size: 6rem; color:blue;""><b></b></div></div><br><br><br><br><br><br><br>",enter,fwdspan,response,At85kW1iasTOjFt6et7XjiYtekN2,html-keyboard-response,43,361858,0.0-7.0-2.2-0.2-3.2,5.0,"[9,5,2,6,3]","[9,5,2,6,3]",1.0,"[3, 4, 5, 6, 7, 8, 8, 9, 9, 8, 8, 7]",,6400d919945d23676a68b781,11:20:15,15/01/2024
,,,fwdspan,update_span,At85kW1iasTOjFt6et7XjiYtekN2,call-function,44,362110,0.0-7.0-2.2-0.2-4.2,,,,,,,6400d919945d23676a68b781,11:20:15,15/01/2024
917.8000000044703,"<p style=""font-size:3rem"">Trial 4 of 12</p><br><br><br>",0,fwdspan,start_trial,At85kW1iasTOjFt6et7XjiYtekN2,html-button-response,45,363029,0.0-7.0-2.3-0.3-0.3,,,,,,,6400d919945d23676a68b781,11:20:15,15/01/2024
,"<p style=""font-size:14rem;font-weight:400;"">5</p>",,fwdspan,number,At85kW1iasTOjFt6et7XjiYtekN2,html-keyboard-response,46,364035,0.0-7.0-2.3-0.3-1.12-0.12,,,,,,,6400d919945d23676a68b781,11:20:15,15/01/2024
,"<p style=""font-size:14rem;font-weight:400;"">9</p>",,fwdspan,number,At85kW1iasTOjFt6et7XjiYtekN2,html-keyboard-response,47,365046,0.0-7.0-2.3-0.3-1.13-0.13,,,,,,,6400d919945d23676a68b781,11:20:15,15/01/2024
,"<p style=""font-size:14rem;font-weight:400;"">3</p>",,fwdspan,number,At85kW1iasTOjFt6et7XjiYtekN2,html-keyboard-response,48,366054,0.0-7.0-2.3-0.3-1.14-0.14,,,,,,,6400d919945d23676a68b781,11:20:15,15/01/2024
,"<p style=""font-size:14rem;font-weight:400;"">6</p>",,fwdspan,number,At85kW1iasTOjFt6et7XjiYtekN2,html-keyboard-response,49,367057,0.0-7.0-2.3-0.3-1.15-0.15,,,,,,,6400d919945d23676a68b781,11:20:15,15/01/2024
,"<p style=""font-size:14rem;font-weight:400;"">2</p>",,fwdspan,number,At85kW1iasTOjFt6et7XjiYtekN2,html-keyboard-response,50,368061,0.0-7.0-2.3-0.3-1.16-0.16,,,,,,,6400d919945d23676a68b781,11:20:15,15/01/2024
,"<p style=""font-size:14rem;font-weight:400;"">1</p>",,fwdspan,number,At85kW1iasTOjFt6et7XjiYtekN2,html-keyboard-response,51,369068,0.0-7.0-2.3-0.3-1.17-0.17,,,,,,,6400d919945d23676a68b781,11:20:15,15/01/2024
,[],,fwdspan,delay,At85kW1iasTOjFt6et7XjiYtekN2,html-keyboard-response,52,369619,0.0-7.0-2.3-0.3-2.3,,,,,,,6400d919945d23676a68b781,11:20:15,15/01/2024
6051.0999999940395,"<div class = numbox><p style=""font-size:2.5rem"">What were the numbers <b>in order</b>?<br>(When you are ready to lock in your answer, press <b>ENTER</b>)</p><button id = button_1 class = ""square num-button"" onclick = ""recordClick(this)""><div class = content><div class = numbers>1</div></div></button><button id = button_2 class = ""square num-button"" onclick = ""recordClick(this)""><div class = content><div class = numbers>2</div></div></button><button id = button_3 class = ""square num-button"" onclick = ""recordClick(this)""><div class = content><div class = numbers>3</div></div></button><button id = button_4 class = ""square num-button"" onclick = ""recordClick(this)""><div class = content><div class = numbers>4</div></div></button><button id = button_5 class = ""square num-button"" onclick = ""recordClick(this)""><div class = content><div class = numbers>5</div></div></button><button id = button_6 class = ""square num-button"" onclick = ""recordClick(this)""><div class = content><div class = numbers>6</div></div></button><button id = button_7 class = ""square num-button"" onclick = ""recordClick(this)""><div class = content><div class = numbers>7</div></div></button><button id = button_8 class = ""square num-button"" onclick = ""recordClick(this)""><div class = content><div class = numbers>8</div></div></button><button id = button_9 class = ""square num-button"" onclick = ""recordClick(this)""><div class = content><div class = numbers>9</div></div></button><button class = clear_button id = ""ClearButton"" onclick = ""clearResponse()"">Clear</button><p><u><b>Current Answer:</b></u></p><div id=echoed_txt style=""font-size: 6rem; color:blue;""><b></b></div></div><br><br><br><br><br><br><br>",enter,fwdspan,response,At85kW1iasTOjFt6et7XjiYtekN2,html-keyboard-response,53,375671,0.0-7.0-2.3-0.3-3.3,6.0,"[5,9,3,6,2,1]","[5,9,3,6,2,1]",1.0,"[3, 4, 5, 6, 7, 8, 8, 9, 9, 8, 8, 7]",,6400d919945d23676a68b781,11:20:15,15/01/2024
,,,fwdspan,update_span,At85kW1iasTOjFt6et7XjiYtekN2,call-function,54,375923,0.0-7.0-2.3-0.3-4.3,,,,,,,6400d919945d23676a68b781,11:20:15,15/01/2024
957.7000000029802,"<p style=""font-size:3rem"">Trial 5 of 12</p><br><br><br>",0,fwdspan,start_trial,At85kW1iasTOjFt6et7XjiYtekN2,html-button-response,55,376882,0.0-7.0-2.4-0.4-0.4,,,,,,,6400d919945d23676a68b781,11:20:15,15/01/2024
,"<p style=""font-size:14rem;font-weight:400;"">5</p>",,fwdspan,number,At85kW1iasTOjFt6et7XjiYtekN2,html-keyboard-response,56,377891,0.0-7.0-2.4-0.4-1.18-0.18,,,,,,,6400d919945d23676a68b781,11:20:15,15/01/2024
,"<p style=""font-size:14rem;font-weight:400;"">4</p>",,fwdspan,number,At85kW1iasTOjFt6et7XjiYtekN2,html-keyboard-response,57,378901,0.0-7.0-2.4-0.4-1.19-0.19,,,,,,,6400d919945d23676a68b781,11:20:15,15/01/2024
,"<p style=""font-size:14rem;font-weight:400;"">9</p>",,fwdspan,number,At85kW1iasTOjFt6et7XjiYtekN2,html-keyboard-response,58,379905,0.0-7.0-2.4-0.4-1.20-0.20,,,,,,,6400d919945d23676a68b781,11:20:15,15/01/2024
,"<p style=""font-size:14rem;font-weight:400;"">8</p>",,fwdspan,number,At85kW1iasTOjFt6et7XjiYtekN2,html-keyboard-response,59,380909,0.0-7.0-2.4-0.4-1.21-0.21,,,,,,,6400d919945d23676a68b781,11:20:15,15/01/2024
,"<p style=""font-size:14rem;font-weight:400;"">7</p>",,fwdspan,number,At85kW1iasTOjFt6et7XjiYtekN2,html-keyboard-response,60,381913,0.0-7.0-2.4-0.4-1.22-0.22,,,,,,,6400d919945d23676a68b781,11:20:15,15/01/2024
,"<p style=""font-size:14rem;font-weight:400;"">6</p>",,fwdspan,number,At85kW1iasTOjFt6et7XjiYtekN2,html-keyboard-response,61,382916,0.0-7.0-2.4-0.4-1.23-0.23,,,,,,,6400d919945d23676a68b781,11:20:15,15/01/2024
,"<p style=""font-size:14rem;font-weight:400;"">3</p>",,fwdspan,number,At85kW1iasTOjFt6et7XjiYtekN2,html-keyboard-response,62,383920,0.0-7.0-2.4-0.4-1.24-0.24,,,,,,,6400d919945d23676a68b781,11:20:15,15/01/2024
,[],,fwdspan,delay,At85kW1iasTOjFt6et7XjiYtekN2,html-keyboard-response,63,384473,0.0-7.0-2.4-0.4-2.4,,,,,,,6400d919945d23676a68b781,11:20:15,15/01/2024
6022.30000000447,"<div class = numbox><p style=""font-size:2.5rem"">What were the numbers <b>in order</b>?<br>(When you are ready to lock in your answer, press <b>ENTER</b>)</p><button id = button_1 class = ""square num-button"" onclick = ""recordClick(this)""><div class = content><div class = numbers>1</div></div></button><button id = button_2 class = ""square num-button"" onclick = ""recordClick(this)""><div class = content><div class = numbers>2</div></div></button><button id = button_3 class = ""square num-button"" onclick = ""recordClick(this)""><div class = content><div class = numbers>3</div></div></button><button id = button_4 class = ""square num-button"" onclick = ""recordClick(this)""><div class = content><div class = numbers>4</div></div></button><button id = button_5 class = ""square num-button"" onclick = ""recordClick(this)""><div class = content><div class = numbers>5</div></div></button><button id = button_6 class = ""square num-button"" onclick = ""recordClick(this)""><div class = content><div class = numbers>6</div></div></button><button id = button_7 class = ""square num-button"" onclick = ""recordClick(this)""><div class = content><div class = numbers>7</div></div></button><button id = button_8 class = ""square num-button"" onclick = ""recordClick(this)""><div class = content><div class = numbers>8</div></div></button><button id = button_9 class = ""square num-button"" onclick = ""recordClick(this)""><div class = content><div class = numbers>9</div></div></button><button class = clear_button id = ""ClearButton"" onclick = ""clearResponse()"">Clear</button><p><u><b>Current Answer:</b></u></p><div id=echoed_txt style=""font-size: 6rem; color:blue;""><b></b></div></div><br><br><br><br><br><br><br>",enter,fwdspan,response,At85kW1iasTOjFt6et7XjiYtekN2,html-keyboard-response,64,390497,0.0-7.0-2.4-0.4-3.4,7.0,"[5,4,9,8,7,6,3]","[5,4,9,8,7,6,3]",1.0,"[3, 4, 5, 6, 7, 8, 8, 9, 9, 8, 8, 7]",,6400d919945d23676a68b781,11:20:15,15/01/2024
,,,fwdspan,update_span,At85kW1iasTOjFt6et7XjiYtekN2,call-function,65,390749,0.0-7.0-2.4-0.4-4.4,,,,,,,6400d919945d23676a68b781,11:20:15,15/01/2024
1032.7000000029802,"<p style=""font-size:3rem"">Trial 6 of 12</p><br><br><br>",0,fwdspan,start_trial,At85kW1iasTOjFt6et7XjiYtekN2,html-button-response,66,391783,0.0-7.0-2.5-0.5-0.5,,,,,,,6400d919945d23676a68b781,11:20:15,15/01/2024
,"<p style=""font-size:14rem;font-weight:400;"">2</p>",,fwdspan,number,At85kW1iasTOjFt6et7XjiYtekN2,html-keyboard-response,67,392786,0.0-7.0-2.5-0.5-1.25-0.25,,,,,,,6400d919945d23676a68b781,11:20:15,15/01/2024
,"<p style=""font-size:14rem;font-weight:400;"">8</p>",,fwdspan,number,At85kW1iasTOjFt6et7XjiYtekN2,html-keyboard-response,68,393791,0.0-7.0-2.5-0.5-1.26-0.26,,,,,,,6400d919945d23676a68b781,11:20:15,15/01/2024
,"<p style=""font-size:14rem;font-weight:400;"">3</p>",,fwdspan,number,At85kW1iasTOjFt6et7XjiYtekN2,html-keyboard-response,69,394796,0.0-7.0-2.5-0.5-1.27-0.27,,,,,,,6400d919945d23676a68b781,11:20:15,15/01/2024
,"<p style=""font-size:14rem;font-weight:400;"">1</p>",,fwdspan,number,At85kW1iasTOjFt6et7XjiYtekN2,html-keyboard-response,70,395799,0.0-7.0-2.5-0.5-1.28-0.28,,,,,,,6400d919945d23676a68b781,11:20:15,15/01/2024
,"<p style=""font-size:14rem;font-weight:400;"">5</p>",,fwdspan,number,At85kW1iasTOjFt6et7XjiYtekN2,html-keyboard-response,71,396804,0.0-7.0-2.5-0.5-1.29-0.29,,,,,,,6400d919945d23676a68b781,11:20:15,15/01/2024
,"<p style=""font-size:14rem;font-weight:400;"">4</p>",,fwdspan,number,At85kW1iasTOjFt6et7XjiYtekN2,html-keyboard-response,72,397806,0.0-7.0-2.5-0.5-1.30-0.30,,,,,,,6400d919945d23676a68b781,11:20:15,15/01/2024
,"<p style=""font-size:14rem;font-weight:400;"">9</p>",,fwdspan,number,At85kW1iasTOjFt6et7XjiYtekN2,html-keyboard-response,73,398810,0.0-7.0-2.5-0.5-1.31-0.31,,,,,,,6400d919945d23676a68b781,11:20:15,15/01/2024
,"<p style=""font-size:14rem;font-weight:400;"">6</p>",,fwdspan,number,At85kW1iasTOjFt6et7XjiYtekN2,html-keyboard-response,74,399815,0.0-7.0-2.5-0.5-1.32-0.32,,,,,,,6400d919945d23676a68b781,11:20:15,15/01/2024
,[],,fwdspan,delay,At85kW1iasTOjFt6et7XjiYtekN2,html-keyboard-response,75,400371,0.0-7.0-2.5-0.5-2.5,,,,,,,6400d919945d23676a68b781,11:20:15,15/01/2024
6618.20000000298,"<div class = numbox><p style=""font-size:2.5rem"">What were the numbers <b>in order</b>?<br>(When you are ready to lock in your answer, press <b>ENTER</b>)</p><button id = button_1 class = ""square num-button"" onclick = ""recordClick(this)""><div class = content><div class = numbers>1</div></div></button><button id = button_2 class = ""square num-button"" onclick = ""recordClick(this)""><div class = content><div class = numbers>2</div></div></button><button id = button_3 class = ""square num-button"" onclick = ""recordClick(this)""><div class = content><div class = numbers>3</div></div></button><button id = button_4 class = ""square num-button"" onclick = ""recordClick(this)""><div class = content><div class = numbers>4</div></div></button><button id = button_5 class = ""square num-button"" onclick = ""recordClick(this)""><div class = content><div class = numbers>5</div></div></button><button id = button_6 class = ""square num-button"" onclick = ""recordClick(this)""><div class = content><div class = numbers>6</div></div></button><button id = button_7 class = ""square num-button"" onclick = ""recordClick(this)""><div class = content><div class = numbers>7</div></div></button><button id = button_8 class = ""square num-button"" onclick = ""recordClick(this)""><div class = content><div class = numbers>8</div></div></button><button id = button_9 class = ""square num-button"" onclick = ""recordClick(this)""><div class = content><div class = numbers>9</div></div></button><button class = clear_button id = ""ClearButton"" onclick = ""clearResponse()"">Clear</button><p><u><b>Current Answer:</b></u></p><div id=echoed_txt style=""font-size: 6rem; color:blue;""><b></b></div></div><br><br><br><br><br><br><br>",enter,fwdspan,response,At85kW1iasTOjFt6et7XjiYtekN2,html-keyboard-response,76,406991,0.0-7.0-2.5-0.5-3.5,8.0,"[2,4,3,1,4,5,9]","[2,8,3,1,5,4,9,6]",0.0,"[3, 4, 5, 6, 7, 8, 8, 9, 9, 8, 8, 7]",,6400d919945d23676a68b781,11:20:15,15/01/2024
,,,fwdspan,update_span,At85kW1iasTOjFt6et7XjiYtekN2,call-function,77,407245,0.0-7.0-2.5-0.5-4.5,,,,,,,6400d919945d23676a68b781,11:20:15,15/01/2024
3645.1999999955297,"<p style=""font-size:3rem"">Trial 7 of 12</p><br><br><br>",0,fwdspan,start_trial,At85kW1iasTOjFt6et7XjiYtekN2,html-button-response,78,410891,0.0-7.0-2.6-0.6-0.6,,,,,,,6400d919945d23676a68b781,11:20:15,15/01/2024
,"<p style=""font-size:14rem;font-weight:400;"">4</p>",,fwdspan,number,At85kW1iasTOjFt6et7XjiYtekN2,html-keyboard-response,79,411893,0.0-7.0-2.6-0.6-1.33-0.33,,,,,,,6400d919945d23676a68b781,11:20:15,15/01/2024
,"<p style=""font-size:14rem;font-weight:400;"">9</p>",,fwdspan,number,At85kW1iasTOjFt6et7XjiYtekN2,html-keyboard-response,80,412899,0.0-7.0-2.6-0.6-1.34-0.34,,,,,,,6400d919945d23676a68b781,11:20:15,15/01/2024
,"<p style=""font-size:14rem;font-weight:400;"">5</p>",,fwdspan,number,At85kW1iasTOjFt6et7XjiYtekN2,html-keyboard-response,81,413901,0.0-7.0-2.6-0.6-1.35-0.35,,,,,,,6400d919945d23676a68b781,11:20:15,15/01/2024
,"<p style=""font-size:14rem;font-weight:400;"">8</p>",,fwdspan,number,At85kW1iasTOjFt6et7XjiYtekN2,html-keyboard-response,82,414904,0.0-7.0-2.6-0.6-1.36-0.36,,,,,,,6400d919945d23676a68b781,11:20:15,15/01/2024
,"<p style=""font-size:14rem;font-weight:400;"">1</p>",,fwdspan,number,At85kW1iasTOjFt6et7XjiYtekN2,html-keyboard-response,83,415906,0.0-7.0-2.6-0.6-1.37-0.37,,,,,,,6400d919945d23676a68b781,11:20:15,15/01/2024
,"<p style=""font-size:14rem;font-weight:400;"">6</p>",,fwdspan,number,At85kW1iasTOjFt6et7XjiYtekN2,html-keyboard-response,84,416911,0.0-7.0-2.6-0.6-1.38-0.38,,,,,,,6400d919945d23676a68b781,11:20:15,15/01/2024
,"<p style=""font-size:14rem;font-weight:400;"">3</p>",,fwdspan,number,At85kW1iasTOjFt6et7XjiYtekN2,html-keyboard-response,85,417913,0.0-7.0-2.6-0.6-1.39-0.39,,,,,,,6400d919945d23676a68b781,11:20:15,15/01/2024
,"<p style=""font-size:14rem;font-weight:400;"">2</p>",,fwdspan,number,At85kW1iasTOjFt6et7XjiYtekN2,html-keyboard-response,86,418916,0.0-7.0-2.6-0.6-1.40-0.40,,,,,,,6400d919945d23676a68b781,11:20:15,15/01/2024
,[],,fwdspan,delay,At85kW1iasTOjFt6et7XjiYtekN2,html-keyboard-response,87,419471,0.0-7.0-2.6-0.6-2.6,,,,,,,6400d919945d23676a68b781,11:20:15,15/01/2024
13385.0,"<div class = numbox><p style=""font-size:2.5rem"">What were the numbers <b>in order</b>?<br>(When you are ready to lock in your answer, press <b>ENTER</b>)</p><button id = button_1 class = ""square num-button"" onclick = ""recordClick(this)""><div class = content><div class = numbers>1</div></div></button><button id = button_2 class = ""square num-button"" onclick = ""recordClick(this)""><div class = content><div class = numbers>2</div></div></button><button id = button_3 class = ""square num-button"" onclick = ""recordClick(this)""><div class = content><div class = numbers>3</div></div></button><button id = button_4 class = ""square num-button"" onclick = ""recordClick(this)""><div class = content><div class = numbers>4</div></div></button><button id = button_5 class = ""square num-button"" onclick = ""recordClick(this)""><div class = content><div class = numbers>5</div></div></button><button id = button_6 class = ""square num-button"" onclick = ""recordClick(this)""><div class = content><div class = numbers>6</div></div></button><button id = button_7 class = ""square num-button"" onclick = ""recordClick(this)""><div class = content><div class = numbers>7</div></div></button><button id = button_8 class = ""square num-button"" onclick = ""recordClick(this)""><div class = content><div class = numbers>8</div></div></button><button id = button_9 class = ""square num-button"" onclick = ""recordClick(this)""><div class = content><div class = numbers>9</div></div></button><button class = clear_button id = ""ClearButton"" onclick = ""clearResponse()"">Clear</button><p><u><b>Current Answer:</b></u></p><div id=echoed_txt style=""font-size: 6rem; color:blue;""><b></b></div></div><br><br><br><br><br><br><br>",enter,fwdspan,response,At85kW1iasTOjFt6et7XjiYtekN2,html-keyboard-response,88,432858,0.0-7.0-2.6-0.6-3.6,8.0,"[4,9,5,8,1,6,3,2]","[4,9,5,8,1,6,3,2]",1.0,"[3, 4, 5, 6, 7, 8, 8, 9, 9, 8, 8, 7]",,6400d919945d23676a68b781,11:20:15,15/01/2024
,,,fwdspan,update_span,At85kW1iasTOjFt6et7XjiYtekN2,call-function,89,433111,0.0-7.0-2.6-0.6-4.6,,,,,,,6400d919945d23676a68b781,11:20:15,15/01/2024
1092.1000000014901,"<p style=""font-size:3rem"">Trial 8 of 12</p><br><br><br>",0,fwdspan,start_trial,At85kW1iasTOjFt6et7XjiYtekN2,html-button-response,90,434204,0.0-7.0-2.7-0.7-0.7,,,,,,,6400d919945d23676a68b781,11:20:15,15/01/2024
,"<p style=""font-size:14rem;font-weight:400;"">5</p>",,fwdspan,number,At85kW1iasTOjFt6et7XjiYtekN2,html-keyboard-response,91,435208,0.0-7.0-2.7-0.7-1.41-0.41,,,,,,,6400d919945d23676a68b781,11:20:15,15/01/2024
,"<p style=""font-size:14rem;font-weight:400;"">7</p>",,fwdspan,number,At85kW1iasTOjFt6et7XjiYtekN2,html-keyboard-response,92,436212,0.0-7.0-2.7-0.7-1.42-0.42,,,,,,,6400d919945d23676a68b781,11:20:15,15/01/2024
,"<p style=""font-size:14rem;font-weight:400;"">4</p>",,fwdspan,number,At85kW1iasTOjFt6et7XjiYtekN2,html-keyboard-response,93,437216,0.0-7.0-2.7-0.7-1.43-0.43,,,,,,,6400d919945d23676a68b781,11:20:15,15/01/2024
,"<p style=""font-size:14rem;font-weight:400;"">3</p>",,fwdspan,number,At85kW1iasTOjFt6et7XjiYtekN2,html-keyboard-response,94,438218,0.0-7.0-2.7-0.7-1.44-0.44,,,,,,,6400d919945d23676a68b781,11:20:15,15/01/2024
,"<p style=""font-size:14rem;font-weight:400;"">1</p>",,fwdspan,number,At85kW1iasTOjFt6et7XjiYtekN2,html-keyboard-response,95,439221,0.0-7.0-2.7-0.7-1.45-0.45,,,,,,,6400d919945d23676a68b781,11:20:15,15/01/2024
,"<p style=""font-size:14rem;font-weight:400;"">2</p>",,fwdspan,number,At85kW1iasTOjFt6et7XjiYtekN2,html-keyboard-response,96,440224,0.0-7.0-2.7-0.7-1.46-0.46,,,,,,,6400d919945d23676a68b781,11:20:15,15/01/2024
,"<p style=""font-size:14rem;font-weight:400;"">8</p>",,fwdspan,number,At85kW1iasTOjFt6et7XjiYtekN2,html-keyboard-response,97,441226,0.0-7.0-2.7-0.7-1.47-0.47,,,,,,,6400d919945d23676a68b781,11:20:15,15/01/2024
,"<p style=""font-size:14rem;font-weight:400;"">9</p>",,fwdspan,number,At85kW1iasTOjFt6et7XjiYtekN2,html-keyboard-response,98,442229,0.0-7.0-2.7-0.7-1.48-0.48,,,,,,,6400d919945d23676a68b781,11:20:15,15/01/2024
,"<p style=""font-size:14rem;font-weight:400;"">6</p>",,fwdspan,number,At85kW1iasTOjFt6et7XjiYtekN2,html-keyboard-response,99,443240,0.0-7.0-2.7-0.7-1.49-0.49,,,,,,,6400d919945d23676a68b781,11:20:15,15/01/2024
,[],,fwdspan,delay,At85kW1iasTOjFt6et7XjiYtekN2,html-keyboard-response,100,443792,0.0-7.0-2.7-0.7-2.7,,,,,,,6400d919945d23676a68b781,11:20:15,15/01/2024
6148.39999999851,"<div class = numbox><p style=""font-size:2.5rem"">What were the numbers <b>in order</b>?<br>(When you are ready to lock in your answer, press <b>ENTER</b>)</p><button id = button_1 class = ""square num-button"" onclick = ""recordClick(this)""><div class = content><div class = numbers>1</div></div></button><button id = button_2 class = ""square num-button"" onclick = ""recordClick(this)""><div class = content><div class = numbers>2</div></div></button><button id = button_3 class = ""square num-button"" onclick = ""recordClick(this)""><div class = content><div class = numbers>3</div></div></button><button id = button_4 class = ""square num-button"" onclick = ""recordClick(this)""><div class = content><div class = numbers>4</div></div></button><button id = button_5 class = ""square num-button"" onclick = ""recordClick(this)""><div class = content><div class = numbers>5</div></div></button><button id = button_6 class = ""square num-button"" onclick = ""recordClick(this)""><div class = content><div class = numbers>6</div></div></button><button id = button_7 class = ""square num-button"" onclick = ""recordClick(this)""><div class = content><div class = numbers>7</div></div></button><button id = button_8 class = ""square num-button"" onclick = ""recordClick(this)""><div class = content><div class = numbers>8</div></div></button><button id = button_9 class = ""square num-button"" onclick = ""recordClick(this)""><div class = content><div class = numbers>9</div></div></button><button class = clear_button id = ""ClearButton"" onclick = ""clearResponse()"">Clear</button><p><u><b>Current Answer:</b></u></p><div id=echoed_txt style=""font-size: 6rem; color:blue;""><b></b></div></div><br><br><br><br><br><br><br>",enter,fwdspan,response,At85kW1iasTOjFt6et7XjiYtekN2,html-keyboard-response,101,449942,0.0-7.0-2.7-0.7-3.7,9.0,"[5,7,4,3,1,2,8]","[5,7,4,3,1,2,8,9,6]",0.0,"[3, 4, 5, 6, 7, 8, 8, 9, 9, 8, 8, 7]",,6400d919945d23676a68b781,11:20:15,15/01/2024
,,,fwdspan,update_span,At85kW1iasTOjFt6et7XjiYtekN2,call-function,102,450194,0.0-7.0-2.7-0.7-4.7,,,,,,,6400d919945d23676a68b781,11:20:15,15/01/2024
788.1999999955297,"<p style=""font-size:3rem"">Trial 9 of 12</p><br><br><br>",0,fwdspan,start_trial,At85kW1iasTOjFt6et7XjiYtekN2,html-button-response,103,450984,0.0-7.0-2.8-0.8-0.8,,,,,,,6400d919945d23676a68b781,11:20:15,15/01/2024
,"<p style=""font-size:14rem;font-weight:400;"">9</p>",,fwdspan,number,At85kW1iasTOjFt6et7XjiYtekN2,html-keyboard-response,104,451987,0.0-7.0-2.8-0.8-1.50-0.50,,,,,,,6400d919945d23676a68b781,11:20:15,15/01/2024
,"<p style=""font-size:14rem;font-weight:400;"">8</p>",,fwdspan,number,At85kW1iasTOjFt6et7XjiYtekN2,html-keyboard-response,105,452990,0.0-7.0-2.8-0.8-1.51-0.51,,,,,,,6400d919945d23676a68b781,11:20:15,15/01/2024
,"<p style=""font-size:14rem;font-weight:400;"">6</p>",,fwdspan,number,At85kW1iasTOjFt6et7XjiYtekN2,html-keyboard-response,106,453993,0.0-7.0-2.8-0.8-1.52-0.52,,,,,,,6400d919945d23676a68b781,11:20:15,15/01/2024
,"<p style=""font-size:14rem;font-weight:400;"">5</p>",,fwdspan,number,At85kW1iasTOjFt6et7XjiYtekN2,html-keyboard-response,107,454996,0.0-7.0-2.8-0.8-1.53-0.53,,,,,,,6400d919945d23676a68b781,11:20:15,15/01/2024
,"<p style=""font-size:14rem;font-weight:400;"">7</p>",,fwdspan,number,At85kW1iasTOjFt6et7XjiYtekN2,html-keyboard-response,108,456000,0.0-7.0-2.8-0.8-1.54-0.54,,,,,,,6400d919945d23676a68b781,11:20:15,15/01/2024
,"<p style=""font-size:14rem;font-weight:400;"">1</p>",,fwdspan,number,At85kW1iasTOjFt6et7XjiYtekN2,html-keyboard-response,109,457004,0.0-7.0-2.8-0.8-1.55-0.55,,,,,,,6400d919945d23676a68b781,11:20:15,15/01/2024
,"<p style=""font-size:14rem;font-weight:400;"">4</p>",,fwdspan,number,At85kW1iasTOjFt6et7XjiYtekN2,html-keyboard-response,110,458007,0.0-7.0-2.8-0.8-1.56-0.56,,,,,,,6400d919945d23676a68b781,11:20:15,15/01/2024
,"<p style=""font-size:14rem;font-weight:400;"">2</p>",,fwdspan,number,At85kW1iasTOjFt6et7XjiYtekN2,html-keyboard-response,111,459009,0.0-7.0-2.8-0.8-1.57-0.57,,,,,,,6400d919945d23676a68b781,11:20:15,15/01/2024
,"<p style=""font-size:14rem;font-weight:400;"">3</p>",,fwdspan,number,At85kW1iasTOjFt6et7XjiYtekN2,html-keyboard-response,112,460011,0.0-7.0-2.8-0.8-1.58-0.58,,,,,,,6400d919945d23676a68b781,11:20:15,15/01/2024
,[],,fwdspan,delay,At85kW1iasTOjFt6et7XjiYtekN2,html-keyboard-response,113,460563,0.0-7.0-2.8-0.8-2.8,,,,,,,6400d919945d23676a68b781,11:20:15,15/01/2024
10122.10000000149,"<div class = numbox><p style=""font-size:2.5rem"">What were the numbers <b>in order</b>?<br>(When you are ready to lock in your answer, press <b>ENTER</b>)</p><button id = button_1 class = ""square num-button"" onclick = ""recordClick(this)""><div class = content><div class = numbers>1</div></div></button><button id = button_2 class = ""square num-button"" onclick = ""recordClick(this)""><div class = content><div class = numbers>2</div></div></button><button id = button_3 class = ""square num-button"" onclick = ""recordClick(this)""><div class = content><div class = numbers>3</div></div></button><button id = button_4 class = ""square num-button"" onclick = ""recordClick(this)""><div class = content><div class = numbers>4</div></div></button><button id = button_5 class = ""square num-button"" onclick = ""recordClick(this)""><div class = content><div class = numbers>5</div></div></button><button id = button_6 class = ""square num-button"" onclick = ""recordClick(this)""><div class = content><div class = numbers>6</div></div></button><button id = button_7 class = ""square num-button"" onclick = ""recordClick(this)""><div class = content><div class = numbers>7</div></div></button><button id = button_8 class = ""square num-button"" onclick = ""recordClick(this)""><div class = content><div class = numbers>8</div></div></button><button id = button_9 class = ""square num-button"" onclick = ""recordClick(this)""><div class = content><div class = numbers>9</div></div></button><button class = clear_button id = ""ClearButton"" onclick = ""clearResponse()"">Clear</button><p><u><b>Current Answer:</b></u></p><div id=echoed_txt style=""font-size: 6rem; color:blue;""><b></b></div></div><br><br><br><br><br><br><br>",enter,fwdspan,response,At85kW1iasTOjFt6et7XjiYtekN2,html-keyboard-response,114,470687,0.0-7.0-2.8-0.8-3.8,9.0,"[9,8,6,7,5,1,2,3,4]","[9,8,6,5,7,1,4,2,3]",0.0,"[3, 4, 5, 6, 7, 8, 8, 9, 9, 8, 8, 7]",,6400d919945d23676a68b781,11:20:15,15/01/2024
,,,fwdspan,update_span,At85kW1iasTOjFt6et7XjiYtekN2,call-function,115,470940,0.0-7.0-2.8-0.8-4.8,,,,,,,6400d919945d23676a68b781,11:20:15,15/01/2024
876.3999999985099,"<p style=""font-size:3rem"">Trial 10 of 12</p><br><br><br>",0,fwdspan,start_trial,At85kW1iasTOjFt6et7XjiYtekN2,html-button-response,116,471818,0.0-7.0-2.9-0.9-0.9,,,,,,,6400d919945d23676a68b781,11:20:15,15/01/2024
,"<p style=""font-size:14rem;font-weight:400;"">9</p>",,fwdspan,number,At85kW1iasTOjFt6et7XjiYtekN2,html-keyboard-response,117,472820,0.0-7.0-2.9-0.9-1.59-0.59,,,,,,,6400d919945d23676a68b781,11:20:15,15/01/2024
,"<p style=""font-size:14rem;font-weight:400;"">6</p>",,fwdspan,number,At85kW1iasTOjFt6et7XjiYtekN2,html-keyboard-response,118,473822,0.0-7.0-2.9-0.9-1.60-0.60,,,,,,,6400d919945d23676a68b781,11:20:15,15/01/2024
,"<p style=""font-size:14rem;font-weight:400;"">4</p>",,fwdspan,number,At85kW1iasTOjFt6et7XjiYtekN2,html-keyboard-response,119,474823,0.0-7.0-2.9-0.9-1.61-0.61,,,,,,,6400d919945d23676a68b781,11:20:15,15/01/2024
,"<p style=""font-size:14rem;font-weight:400;"">8</p>",,fwdspan,number,At85kW1iasTOjFt6et7XjiYtekN2,html-keyboard-response,120,475824,0.0-7.0-2.9-0.9-1.62-0.62,,,,,,,6400d919945d23676a68b781,11:20:15,15/01/2024
,"<p style=""font-size:14rem;font-weight:400;"">5</p>",,fwdspan,number,At85kW1iasTOjFt6et7XjiYtekN2,html-keyboard-response,121,476829,0.0-7.0-2.9-0.9-1.63-0.63,,,,,,,6400d919945d23676a68b781,11:20:15,15/01/2024
,"<p style=""font-size:14rem;font-weight:400;"">2</p>",,fwdspan,number,At85kW1iasTOjFt6et7XjiYtekN2,html-keyboard-response,122,477831,0.0-7.0-2.9-0.9-1.64-0.64,,,,,,,6400d919945d23676a68b781,11:20:15,15/01/2024
,"<p style=""font-size:14rem;font-weight:400;"">3</p>",,fwdspan,number,At85kW1iasTOjFt6et7XjiYtekN2,html-keyboard-response,123,478832,0.0-7.0-2.9-0.9-1.65-0.65,,,,,,,6400d919945d23676a68b781,11:20:15,15/01/2024
,"<p style=""font-size:14rem;font-weight:400;"">7</p>",,fwdspan,number,At85kW1iasTOjFt6et7XjiYtekN2,html-keyboard-response,124,479833,0.0-7.0-2.9-0.9-1.66-0.66,,,,,,,6400d919945d23676a68b781,11:20:15,15/01/2024
,[],,fwdspan,delay,At85kW1iasTOjFt6et7XjiYtekN2,html-keyboard-response,125,480385,0.0-7.0-2.9-0.9-2.9,,,,,,,6400d919945d23676a68b781,11:20:15,15/01/2024
9638.80000000447,"<div class = numbox><p style=""font-size:2.5rem"">What were the numbers <b>in order</b>?<br>(When you are ready to lock in your answer, press <b>ENTER</b>)</p><button id = button_1 class = ""square num-button"" onclick = ""recordClick(this)""><div class = content><div class = numbers>1</div></div></button><button id = button_2 class = ""square num-button"" onclick = ""recordClick(this)""><div class = content><div class = numbers>2</div></div></button><button id = button_3 class = ""square num-button"" onclick = ""recordClick(this)""><div class = content><div class = numbers>3</div></div></button><button id = button_4 class = ""square num-button"" onclick = ""recordClick(this)""><div class = content><div class = numbers>4</div></div></button><button id = button_5 class = ""square num-button"" onclick = ""recordClick(this)""><div class = content><div class = numbers>5</div></div></button><button id = button_6 class = ""square num-button"" onclick = ""recordClick(this)""><div class = content><div class = numbers>6</div></div></button><button id = button_7 class = ""square num-button"" onclick = ""recordClick(this)""><div class = content><div class = numbers>7</div></div></button><button id = button_8 class = ""square num-button"" onclick = ""recordClick(this)""><div class = content><div class = numbers>8</div></div></button><button id = button_9 class = ""square num-button"" onclick = ""recordClick(this)""><div class = content><div class = numbers>9</div></div></button><button class = clear_button id = ""ClearButton"" onclick = ""clearResponse()"">Clear</button><p><u><b>Current Answer:</b></u></p><div id=echoed_txt style=""font-size: 6rem; color:blue;""><b></b></div></div><br><br><br><br><br><br><br>",enter,fwdspan,response,At85kW1iasTOjFt6et7XjiYtekN2,html-keyboard-response,126,490025,0.0-7.0-2.9-0.9-3.9,8.0,"[9,6,5,4,8,5,2,3,7]","[9,6,4,8,5,2,3,7]",0.0,"[3, 4, 5, 6, 7, 8, 8, 9, 9, 8, 8, 7]",,6400d919945d23676a68b781,11:20:15,15/01/2024
,,,fwdspan,update_span,At85kW1iasTOjFt6et7XjiYtekN2,call-function,127,490278,0.0-7.0-2.9-0.9-4.9,,,,,,,6400d919945d23676a68b781,11:20:15,15/01/2024
957.3999999985099,"<p style=""font-size:3rem"">Trial 11 of 12</p><br><br><br>",0,fwdspan,start_trial,At85kW1iasTOjFt6et7XjiYtekN2,html-button-response,128,491236,0.0-7.0-2.10-0.10-0.10,,,,,,,6400d919945d23676a68b781,11:20:15,15/01/2024
,"<p style=""font-size:14rem;font-weight:400;"">4</p>",,fwdspan,number,At85kW1iasTOjFt6et7XjiYtekN2,html-keyboard-response,129,492240,0.0-7.0-2.10-0.10-1.67-0.67,,,,,,,6400d919945d23676a68b781,11:20:15,15/01/2024
,"<p style=""font-size:14rem;font-weight:400;"">5</p>",,fwdspan,number,At85kW1iasTOjFt6et7XjiYtekN2,html-keyboard-response,130,493242,0.0-7.0-2.10-0.10-1.68-0.68,,,,,,,6400d919945d23676a68b781,11:20:15,15/01/2024
,"<p style=""font-size:14rem;font-weight:400;"">2</p>",,fwdspan,number,At85kW1iasTOjFt6et7XjiYtekN2,html-keyboard-response,131,494243,0.0-7.0-2.10-0.10-1.69-0.69,,,,,,,6400d919945d23676a68b781,11:20:15,15/01/2024
,"<p style=""font-size:14rem;font-weight:400;"">7</p>",,fwdspan,number,At85kW1iasTOjFt6et7XjiYtekN2,html-keyboard-response,132,495248,0.0-7.0-2.10-0.10-1.70-0.70,,,,,,,6400d919945d23676a68b781,11:20:15,15/01/2024
,"<p style=""font-size:14rem;font-weight:400;"">9</p>",,fwdspan,number,At85kW1iasTOjFt6et7XjiYtekN2,html-keyboard-response,133,496250,0.0-7.0-2.10-0.10-1.71-0.71,,,,,,,6400d919945d23676a68b781,11:20:15,15/01/2024
,"<p style=""font-size:14rem;font-weight:400;"">3</p>",,fwdspan,number,At85kW1iasTOjFt6et7XjiYtekN2,html-keyboard-response,134,497254,0.0-7.0-2.10-0.10-1.72-0.72,,,,,,,6400d919945d23676a68b781,11:20:15,15/01/2024
,"<p style=""font-size:14rem;font-weight:400;"">1</p>",,fwdspan,number,At85kW1iasTOjFt6et7XjiYtekN2,html-keyboard-response,135,498256,0.0-7.0-2.10-0.10-1.73-0.73,,,,,,,6400d919945d23676a68b781,11:20:15,15/01/2024
,"<p style=""font-size:14rem;font-weight:400;"">6</p>",,fwdspan,number,At85kW1iasTOjFt6et7XjiYtekN2,html-keyboard-response,136,499258,0.0-7.0-2.10-0.10-1.74-0.74,,,,,,,6400d919945d23676a68b781,11:20:15,15/01/2024
,[],,fwdspan,delay,At85kW1iasTOjFt6et7XjiYtekN2,html-keyboard-response,137,499812,0.0-7.0-2.10-0.10-2.10,,,,,,,6400d919945d23676a68b781,11:20:15,15/01/2024
7438.29999999702,"<div class = numbox><p style=""font-size:2.5rem"">What were the numbers <b>in order</b>?<br>(When you are ready to lock in your answer, press <b>ENTER</b>)</p><button id = button_1 class = ""square num-button"" onclick = ""recordClick(this)""><div class = content><div class = numbers>1</div></div></button><button id = button_2 class = ""square num-button"" onclick = ""recordClick(this)""><div class = content><div class = numbers>2</div></div></button><button id = button_3 class = ""square num-button"" onclick = ""recordClick(this)""><div class = content><div class = numbers>3</div></div></button><button id = button_4 class = ""square num-button"" onclick = ""recordClick(this)""><div class = content><div class = numbers>4</div></div></button><button id = button_5 class = ""square num-button"" onclick = ""recordClick(this)""><div class = content><div class = numbers>5</div></div></button><button id = button_6 class = ""square num-button"" onclick = ""recordClick(this)""><div class = content><div class = numbers>6</div></div></button><button id = button_7 class = ""square num-button"" onclick = ""recordClick(this)""><div class = content><div class = numbers>7</div></div></button><button id = button_8 class = ""square num-button"" onclick = ""recordClick(this)""><div class = content><div class = numbers>8</div></div></button><button id = button_9 class = ""square num-button"" onclick = ""recordClick(this)""><div class = content><div class = numbers>9</div></div></button><button class = clear_button id = ""ClearButton"" onclick = ""clearResponse()"">Clear</button><p><u><b>Current Answer:</b></u></p><div id=echoed_txt style=""font-size: 6rem; color:blue;""><b></b></div></div><br><br><br><br><br><br><br>",enter,fwdspan,response,At85kW1iasTOjFt6et7XjiYtekN2,html-keyboard-response,138,507252,0.0-7.0-2.10-0.10-3.10,8.0,"[4,5,1,7,2]","[4,5,2,7,9,3,1,6]",0.0,"[3, 4, 5, 6, 7, 8, 8, 9, 9, 8, 8, 7]",,6400d919945d23676a68b781,11:20:15,15/01/2024
,,,fwdspan,update_span,At85kW1iasTOjFt6et7XjiYtekN2,call-function,139,507505,0.0-7.0-2.10-0.10-4.10,,,,,,,6400d919945d23676a68b781,11:20:15,15/01/2024
917.7999999970198,"<p style=""font-size:3rem"">Trial 12 of 12</p><br><br><br>",0,fwdspan,start_trial,At85kW1iasTOjFt6et7XjiYtekN2,html-button-response,140,508424,0.0-7.0-2.11-0.11-0.11,,,,,,,6400d919945d23676a68b781,11:20:15,15/01/2024
,"<p style=""font-size:14rem;font-weight:400;"">4</p>",,fwdspan,number,At85kW1iasTOjFt6et7XjiYtekN2,html-keyboard-response,141,509426,0.0-7.0-2.11-0.11-1.75-0.75,,,,,,,6400d919945d23676a68b781,11:20:15,15/01/2024
,"<p style=""font-size:14rem;font-weight:400;"">7</p>",,fwdspan,number,At85kW1iasTOjFt6et7XjiYtekN2,html-keyboard-response,142,510429,0.0-7.0-2.11-0.11-1.76-0.76,,,,,,,6400d919945d23676a68b781,11:20:15,15/01/2024
,"<p style=""font-size:14rem;font-weight:400;"">2</p>",,fwdspan,number,At85kW1iasTOjFt6et7XjiYtekN2,html-keyboard-response,143,511430,0.0-7.0-2.11-0.11-1.77-0.77,,,,,,,6400d919945d23676a68b781,11:20:15,15/01/2024
,"<p style=""font-size:14rem;font-weight:400;"">6</p>",,fwdspan,number,At85kW1iasTOjFt6et7XjiYtekN2,html-keyboard-response,144,512431,0.0-7.0-2.11-0.11-1.78-0.78,,,,,,,6400d919945d23676a68b781,11:20:15,15/01/2024
,"<p style=""font-size:14rem;font-weight:400;"">1</p>",,fwdspan,number,At85kW1iasTOjFt6et7XjiYtekN2,html-keyboard-response,145,513434,0.0-7.0-2.11-0.11-1.79-0.79,,,,,,,6400d919945d23676a68b781,11:20:15,15/01/2024
,"<p style=""font-size:14rem;font-weight:400;"">3</p>",,fwdspan,number,At85kW1iasTOjFt6et7XjiYtekN2,html-keyboard-response,146,514438,0.0-7.0-2.11-0.11-1.80-0.80,,,,,,,6400d919945d23676a68b781,11:20:15,15/01/2024
,"<p style=""font-size:14rem;font-weight:400;"">5</p>",,fwdspan,number,At85kW1iasTOjFt6et7XjiYtekN2,html-keyboard-response,147,515442,0.0-7.0-2.11-0.11-1.81-0.81,,,,,,,6400d919945d23676a68b781,11:20:15,15/01/2024
,[],,fwdspan,delay,At85kW1iasTOjFt6et7XjiYtekN2,html-keyboard-response,148,515997,0.0-7.0-2.11-0.11-2.11,,,,,,,6400d919945d23676a68b781,11:20:15,15/01/2024
6730.39999999851,"<div class = numbox><p style=""font-size:2.5rem"">What were the numbers <b>in order</b>?<br>(When you are ready to lock in your answer, press <b>ENTER</b>)</p><button id = button_1 class = ""square num-button"" onclick = ""recordClick(this)""><div class = content><div class = numbers>1</div></div></button><button id = button_2 class = ""square num-button"" onclick = ""recordClick(this)""><div class = content><div class = numbers>2</div></div></button><button id = button_3 class = ""square num-button"" onclick = ""recordClick(this)""><div class = content><div class = numbers>3</div></div></button><button id = button_4 class = ""square num-button"" onclick = ""recordClick(this)""><div class = content><div class = numbers>4</div></div></button><button id = button_5 class = ""square num-button"" onclick = ""recordClick(this)""><div class = content><div class = numbers>5</div></div></button><button id = button_6 class = ""square num-button"" onclick = ""recordClick(this)""><div class = content><div class = numbers>6</div></div></button><button id = button_7 class = ""square num-button"" onclick = ""recordClick(this)""><div class = content><div class = numbers>7</div></div></button><button id = button_8 class = ""square num-button"" onclick = ""recordClick(this)""><div class = content><div class = numbers>8</div></div></button><button id = button_9 class = ""square num-button"" onclick = ""recordClick(this)""><div class = content><div class = numbers>9</div></div></button><button class = clear_button id = ""ClearButton"" onclick = ""clearResponse()"">Clear</button><p><u><b>Current Answer:</b></u></p><div id=echoed_txt style=""font-size: 6rem; color:blue;""><b></b></div></div><br><br><br><br><br><br><br>",enter,fwdspan,response,At85kW1iasTOjFt6et7XjiYtekN2,html-keyboard-response,149,522729,0.0-7.0-2.11-0.11-3.11,7.0,"[4,7,6,1,2,3,5]","[4,7,2,6,1,3,5]",0.0,"[3, 4, 5, 6, 7, 8, 8, 9, 9, 8, 8, 7]",,6400d919945d23676a68b781,11:20:15,15/01/2024
,,,fwdspan,update_span,At85kW1iasTOjFt6et7XjiYtekN2,call-function,150,522982,0.0-7.0-2.11-0.11-4.11,,,,,,,6400d919945d23676a68b781,11:20:15,15/01/2024
7666.60000000149,,{'Q0': 'All good'},fwdspan,survey,At85kW1iasTOjFt6et7XjiYtekN2,lmdlab-survey-text,151,531400,0.0-7.0-3.0,,,,,,At85kW1iasTOjFt6et7XjiYtekN2,6400d919945d23676a68b781,11:20:15,15/01/2024
1228.8000000044703,<p><p style='font-size: 3rem'>Great work!<br><br>This completes the digit span task.</p><br><br><br>,0,fwdspan,finish,At85kW1iasTOjFt6et7XjiYtekN2,html-button-response,152,532631,0.0-7.0-4.0,,,,,,,6400d919945d23676a68b781,11:20:15,15/01/2024
