rt,stimulus,response,exp_name,exp_stage,subjectID,trial_type,trial_index,time_elapsed,internal_node_id,span,answer,correct,correct_full,span_history,databaseID,prolificID,start_time,date
5647.799999982119,"<p style=""font-size:4rem""><br><br>In the next part today, we have a completely different short task.<br><br><br>This part involves keeping numbers in you mind. Participation takes around 5 minutes.<br><br><br></p>",0,fwdspan,instruct,kazrVaviYCPN6BVqrjf67d7BnVJ2,html-button-response,19,717456,0.0-7.0-0.0,,,,,,,65a172976cb3b8890f3894d2,3:27:28 AM,1/15/2024
28039.5,"<p style=""font-size:5rem"">Welcome to the <b>digit span task</b>!<br><br></p><p style=""font-size:3.4rem""><br>On each trial, you will see a sequence of digits, followed by a delay.</p><p style=""font-size:3.4rem""><br>Then you will be asked to type them back in the same order in which they were seen.</p><p style=""font-size:3.4rem""><br><br><br>For example, if you saw the digits <b style=""color:blue;"">1</b>, <b style=""color:blue;"">2</b>, <b style=""color:blue;"">3</b>, you would respond with <b style=""color:blue;"">1</b>, <b style=""color:blue;"">2</b>, <b style=""color:blue;"">3</b></p><p style=""font-size:3.4rem""><br><br><br>To ensure the best measure of true performance for our study,<br><br>it is very important that you do not use any memory aid (e.g., pen and paper).<br><br>Please do the task solely in your head.</p><p style=""font-size:3.4rem""><br><br><br>There will be 12 total trials. Participation takes around 5 minutes.</p><br><br><br>",0,fwdspan,instruct,kazrVaviYCPN6BVqrjf67d7BnVJ2,html-button-response,20,745497,0.0-7.0-1.0,,,,,,,65a172976cb3b8890f3894d2,3:27:28 AM,1/15/2024
2710.9000000059605,"<p style=""font-size:3rem"">Trial 1 of 12</p><br><br><br>",0,fwdspan,start_trial,kazrVaviYCPN6BVqrjf67d7BnVJ2,html-button-response,21,748212,0.0-7.0-2.0-0.0-0.0,,,,,,,65a172976cb3b8890f3894d2,3:27:28 AM,1/15/2024
,"<p style=""font-size:14rem;font-weight:400;"">9</p>",,fwdspan,number,kazrVaviYCPN6BVqrjf67d7BnVJ2,html-keyboard-response,22,749219,0.0-7.0-2.0-0.0-1.0-0.0,,,,,,,65a172976cb3b8890f3894d2,3:27:28 AM,1/15/2024
,"<p style=""font-size:14rem;font-weight:400;"">5</p>",,fwdspan,number,kazrVaviYCPN6BVqrjf67d7BnVJ2,html-keyboard-response,23,750228,0.0-7.0-2.0-0.0-1.1-0.1,,,,,,,65a172976cb3b8890f3894d2,3:27:28 AM,1/15/2024
,"<p style=""font-size:14rem;font-weight:400;"">8</p>",,fwdspan,number,kazrVaviYCPN6BVqrjf67d7BnVJ2,html-keyboard-response,24,751235,0.0-7.0-2.0-0.0-1.2-0.2,,,,,,,65a172976cb3b8890f3894d2,3:27:28 AM,1/15/2024
,[],,fwdspan,delay,kazrVaviYCPN6BVqrjf67d7BnVJ2,html-keyboard-response,25,751794,0.0-7.0-2.0-0.0-2.0,,,,,,,65a172976cb3b8890f3894d2,3:27:28 AM,1/15/2024
7568.9000000059605,"<div class = numbox><p style=""font-size:2.5rem"">What were the numbers <b>in order</b>?<br>(When you are ready to lock in your answer, press <b>ENTER</b>)</p><button id = button_1 class = ""square num-button"" onclick = ""recordClick(this)""><div class = content><div class = numbers>1</div></div></button><button id = button_2 class = ""square num-button"" onclick = ""recordClick(this)""><div class = content><div class = numbers>2</div></div></button><button id = button_3 class = ""square num-button"" onclick = ""recordClick(this)""><div class = content><div class = numbers>3</div></div></button><button id = button_4 class = ""square num-button"" onclick = ""recordClick(this)""><div class = content><div class = numbers>4</div></div></button><button id = button_5 class = ""square num-button"" onclick = ""recordClick(this)""><div class = content><div class = numbers>5</div></div></button><button id = button_6 class = ""square num-button"" onclick = ""recordClick(this)""><div class = content><div class = numbers>6</div></div></button><button id = button_7 class = ""square num-button"" onclick = ""recordClick(this)""><div class = content><div class = numbers>7</div></div></button><button id = button_8 class = ""square num-button"" onclick = ""recordClick(this)""><div class = content><div class = numbers>8</div></div></button><button id = button_9 class = ""square num-button"" onclick = ""recordClick(this)""><div class = content><div class = numbers>9</div></div></button><button class = clear_button id = ""ClearButton"" onclick = ""clearResponse()"">Clear</button><p><u><b>Current Answer:</b></u></p><div id=echoed_txt style=""font-size: 6rem; color:blue;""><b></b></div></div><br><br><br><br><br><br><br>",enter,fwdspan,response,kazrVaviYCPN6BVqrjf67d7BnVJ2,html-keyboard-response,26,759365,0.0-7.0-2.0-0.0-3.0,3.0,"[9,5,8]","[9,5,8]",1.0,"[3, 4, 5, 6, 7, 8, 9, 10, 11, 12, 12, 11]",,65a172976cb3b8890f3894d2,3:27:28 AM,1/15/2024
,,,fwdspan,update_span,kazrVaviYCPN6BVqrjf67d7BnVJ2,call-function,27,759622,0.0-7.0-2.0-0.0-4.0,,,,,,,65a172976cb3b8890f3894d2,3:27:28 AM,1/15/2024
2224.0999999940395,"<p style=""font-size:3rem"">Trial 2 of 12</p><br><br><br>",0,fwdspan,start_trial,kazrVaviYCPN6BVqrjf67d7BnVJ2,html-button-response,28,761847,0.0-7.0-2.1-0.1-0.1,,,,,,,65a172976cb3b8890f3894d2,3:27:28 AM,1/15/2024
,"<p style=""font-size:14rem;font-weight:400;"">3</p>",,fwdspan,number,kazrVaviYCPN6BVqrjf67d7BnVJ2,html-keyboard-response,29,762856,0.0-7.0-2.1-0.1-1.3-0.3,,,,,,,65a172976cb3b8890f3894d2,3:27:28 AM,1/15/2024
,"<p style=""font-size:14rem;font-weight:400;"">5</p>",,fwdspan,number,kazrVaviYCPN6BVqrjf67d7BnVJ2,html-keyboard-response,30,763859,0.0-7.0-2.1-0.1-1.4-0.4,,,,,,,65a172976cb3b8890f3894d2,3:27:28 AM,1/15/2024
,"<p style=""font-size:14rem;font-weight:400;"">2</p>",,fwdspan,number,kazrVaviYCPN6BVqrjf67d7BnVJ2,html-keyboard-response,31,764864,0.0-7.0-2.1-0.1-1.5-0.5,,,,,,,65a172976cb3b8890f3894d2,3:27:28 AM,1/15/2024
,"<p style=""font-size:14rem;font-weight:400;"">6</p>",,fwdspan,number,kazrVaviYCPN6BVqrjf67d7BnVJ2,html-keyboard-response,32,765879,0.0-7.0-2.1-0.1-1.6-0.6,,,,,,,65a172976cb3b8890f3894d2,3:27:28 AM,1/15/2024
,[],,fwdspan,delay,kazrVaviYCPN6BVqrjf67d7BnVJ2,html-keyboard-response,33,766435,0.0-7.0-2.1-0.1-2.1,,,,,,,65a172976cb3b8890f3894d2,3:27:28 AM,1/15/2024
5080.0999999940395,"<div class = numbox><p style=""font-size:2.5rem"">What were the numbers <b>in order</b>?<br>(When you are ready to lock in your answer, press <b>ENTER</b>)</p><button id = button_1 class = ""square num-button"" onclick = ""recordClick(this)""><div class = content><div class = numbers>1</div></div></button><button id = button_2 class = ""square num-button"" onclick = ""recordClick(this)""><div class = content><div class = numbers>2</div></div></button><button id = button_3 class = ""square num-button"" onclick = ""recordClick(this)""><div class = content><div class = numbers>3</div></div></button><button id = button_4 class = ""square num-button"" onclick = ""recordClick(this)""><div class = content><div class = numbers>4</div></div></button><button id = button_5 class = ""square num-button"" onclick = ""recordClick(this)""><div class = content><div class = numbers>5</div></div></button><button id = button_6 class = ""square num-button"" onclick = ""recordClick(this)""><div class = content><div class = numbers>6</div></div></button><button id = button_7 class = ""square num-button"" onclick = ""recordClick(this)""><div class = content><div class = numbers>7</div></div></button><button id = button_8 class = ""square num-button"" onclick = ""recordClick(this)""><div class = content><div class = numbers>8</div></div></button><button id = button_9 class = ""square num-button"" onclick = ""recordClick(this)""><div class = content><div class = numbers>9</div></div></button><button class = clear_button id = ""ClearButton"" onclick = ""clearResponse()"">Clear</button><p><u><b>Current Answer:</b></u></p><div id=echoed_txt style=""font-size: 6rem; color:blue;""><b></b></div></div><br><br><br><br><br><br><br>",enter,fwdspan,response,kazrVaviYCPN6BVqrjf67d7BnVJ2,html-keyboard-response,34,771517,0.0-7.0-2.1-0.1-3.1,4.0,"[3,5,2,6]","[3,5,2,6]",1.0,"[3, 4, 5, 6, 7, 8, 9, 10, 11, 12, 12, 11]",,65a172976cb3b8890f3894d2,3:27:28 AM,1/15/2024
,,,fwdspan,update_span,kazrVaviYCPN6BVqrjf67d7BnVJ2,call-function,35,771770,0.0-7.0-2.1-0.1-4.1,,,,,,,65a172976cb3b8890f3894d2,3:27:28 AM,1/15/2024
1598.199999988079,"<p style=""font-size:3rem"">Trial 3 of 12</p><br><br><br>",0,fwdspan,start_trial,kazrVaviYCPN6BVqrjf67d7BnVJ2,html-button-response,36,773370,0.0-7.0-2.2-0.2-0.2,,,,,,,65a172976cb3b8890f3894d2,3:27:28 AM,1/15/2024
,"<p style=""font-size:14rem;font-weight:400;"">3</p>",,fwdspan,number,kazrVaviYCPN6BVqrjf67d7BnVJ2,html-keyboard-response,37,774379,0.0-7.0-2.2-0.2-1.7-0.7,,,,,,,65a172976cb3b8890f3894d2,3:27:28 AM,1/15/2024
,"<p style=""font-size:14rem;font-weight:400;"">8</p>",,fwdspan,number,kazrVaviYCPN6BVqrjf67d7BnVJ2,html-keyboard-response,38,775385,0.0-7.0-2.2-0.2-1.8-0.8,,,,,,,65a172976cb3b8890f3894d2,3:27:28 AM,1/15/2024
,"<p style=""font-size:14rem;font-weight:400;"">5</p>",,fwdspan,number,kazrVaviYCPN6BVqrjf67d7BnVJ2,html-keyboard-response,39,776393,0.0-7.0-2.2-0.2-1.9-0.9,,,,,,,65a172976cb3b8890f3894d2,3:27:28 AM,1/15/2024
,"<p style=""font-size:14rem;font-weight:400;"">7</p>",,fwdspan,number,kazrVaviYCPN6BVqrjf67d7BnVJ2,html-keyboard-response,40,777404,0.0-7.0-2.2-0.2-1.10-0.10,,,,,,,65a172976cb3b8890f3894d2,3:27:28 AM,1/15/2024
,"<p style=""font-size:14rem;font-weight:400;"">1</p>",,fwdspan,number,kazrVaviYCPN6BVqrjf67d7BnVJ2,html-keyboard-response,41,778414,0.0-7.0-2.2-0.2-1.11-0.11,,,,,,,65a172976cb3b8890f3894d2,3:27:28 AM,1/15/2024
,[],,fwdspan,delay,kazrVaviYCPN6BVqrjf67d7BnVJ2,html-keyboard-response,42,778965,0.0-7.0-2.2-0.2-2.2,,,,,,,65a172976cb3b8890f3894d2,3:27:28 AM,1/15/2024
22945.29999998212,"<div class = numbox><p style=""font-size:2.5rem"">What were the numbers <b>in order</b>?<br>(When you are ready to lock in your answer, press <b>ENTER</b>)</p><button id = button_1 class = ""square num-button"" onclick = ""recordClick(this)""><div class = content><div class = numbers>1</div></div></button><button id = button_2 class = ""square num-button"" onclick = ""recordClick(this)""><div class = content><div class = numbers>2</div></div></button><button id = button_3 class = ""square num-button"" onclick = ""recordClick(this)""><div class = content><div class = numbers>3</div></div></button><button id = button_4 class = ""square num-button"" onclick = ""recordClick(this)""><div class = content><div class = numbers>4</div></div></button><button id = button_5 class = ""square num-button"" onclick = ""recordClick(this)""><div class = content><div class = numbers>5</div></div></button><button id = button_6 class = ""square num-button"" onclick = ""recordClick(this)""><div class = content><div class = numbers>6</div></div></button><button id = button_7 class = ""square num-button"" onclick = ""recordClick(this)""><div class = content><div class = numbers>7</div></div></button><button id = button_8 class = ""square num-button"" onclick = ""recordClick(this)""><div class = content><div class = numbers>8</div></div></button><button id = button_9 class = ""square num-button"" onclick = ""recordClick(this)""><div class = content><div class = numbers>9</div></div></button><button class = clear_button id = ""ClearButton"" onclick = ""clearResponse()"">Clear</button><p><u><b>Current Answer:</b></u></p><div id=echoed_txt style=""font-size: 6rem; color:blue;""><b></b></div></div><br><br><br><br><br><br><br>",enter,fwdspan,response,kazrVaviYCPN6BVqrjf67d7BnVJ2,html-keyboard-response,43,801912,0.0-7.0-2.2-0.2-3.2,5.0,"[3,8,5,7,1]","[3,8,5,7,1]",1.0,"[3, 4, 5, 6, 7, 8, 9, 10, 11, 12, 12, 11]",,65a172976cb3b8890f3894d2,3:27:28 AM,1/15/2024
,,,fwdspan,update_span,kazrVaviYCPN6BVqrjf67d7BnVJ2,call-function,44,802169,0.0-7.0-2.2-0.2-4.2,,,,,,,65a172976cb3b8890f3894d2,3:27:28 AM,1/15/2024
1870.1000000238419,"<p style=""font-size:3rem"">Trial 4 of 12</p><br><br><br>",0,fwdspan,start_trial,kazrVaviYCPN6BVqrjf67d7BnVJ2,html-button-response,45,804040,0.0-7.0-2.3-0.3-0.3,,,,,,,65a172976cb3b8890f3894d2,3:27:28 AM,1/15/2024
,"<p style=""font-size:14rem;font-weight:400;"">5</p>",,fwdspan,number,kazrVaviYCPN6BVqrjf67d7BnVJ2,html-keyboard-response,46,805050,0.0-7.0-2.3-0.3-1.12-0.12,,,,,,,65a172976cb3b8890f3894d2,3:27:28 AM,1/15/2024
,"<p style=""font-size:14rem;font-weight:400;"">1</p>",,fwdspan,number,kazrVaviYCPN6BVqrjf67d7BnVJ2,html-keyboard-response,47,806058,0.0-7.0-2.3-0.3-1.13-0.13,,,,,,,65a172976cb3b8890f3894d2,3:27:28 AM,1/15/2024
,"<p style=""font-size:14rem;font-weight:400;"">7</p>",,fwdspan,number,kazrVaviYCPN6BVqrjf67d7BnVJ2,html-keyboard-response,48,807065,0.0-7.0-2.3-0.3-1.14-0.14,,,,,,,65a172976cb3b8890f3894d2,3:27:28 AM,1/15/2024
,"<p style=""font-size:14rem;font-weight:400;"">2</p>",,fwdspan,number,kazrVaviYCPN6BVqrjf67d7BnVJ2,html-keyboard-response,49,808069,0.0-7.0-2.3-0.3-1.15-0.15,,,,,,,65a172976cb3b8890f3894d2,3:27:28 AM,1/15/2024
,"<p style=""font-size:14rem;font-weight:400;"">8</p>",,fwdspan,number,kazrVaviYCPN6BVqrjf67d7BnVJ2,html-keyboard-response,50,809076,0.0-7.0-2.3-0.3-1.16-0.16,,,,,,,65a172976cb3b8890f3894d2,3:27:28 AM,1/15/2024
,"<p style=""font-size:14rem;font-weight:400;"">3</p>",,fwdspan,number,kazrVaviYCPN6BVqrjf67d7BnVJ2,html-keyboard-response,51,810087,0.0-7.0-2.3-0.3-1.17-0.17,,,,,,,65a172976cb3b8890f3894d2,3:27:28 AM,1/15/2024
,[],,fwdspan,delay,kazrVaviYCPN6BVqrjf67d7BnVJ2,html-keyboard-response,52,810639,0.0-7.0-2.3-0.3-2.3,,,,,,,65a172976cb3b8890f3894d2,3:27:28 AM,1/15/2024
11072.5,"<div class = numbox><p style=""font-size:2.5rem"">What were the numbers <b>in order</b>?<br>(When you are ready to lock in your answer, press <b>ENTER</b>)</p><button id = button_1 class = ""square num-button"" onclick = ""recordClick(this)""><div class = content><div class = numbers>1</div></div></button><button id = button_2 class = ""square num-button"" onclick = ""recordClick(this)""><div class = content><div class = numbers>2</div></div></button><button id = button_3 class = ""square num-button"" onclick = ""recordClick(this)""><div class = content><div class = numbers>3</div></div></button><button id = button_4 class = ""square num-button"" onclick = ""recordClick(this)""><div class = content><div class = numbers>4</div></div></button><button id = button_5 class = ""square num-button"" onclick = ""recordClick(this)""><div class = content><div class = numbers>5</div></div></button><button id = button_6 class = ""square num-button"" onclick = ""recordClick(this)""><div class = content><div class = numbers>6</div></div></button><button id = button_7 class = ""square num-button"" onclick = ""recordClick(this)""><div class = content><div class = numbers>7</div></div></button><button id = button_8 class = ""square num-button"" onclick = ""recordClick(this)""><div class = content><div class = numbers>8</div></div></button><button id = button_9 class = ""square num-button"" onclick = ""recordClick(this)""><div class = content><div class = numbers>9</div></div></button><button class = clear_button id = ""ClearButton"" onclick = ""clearResponse()"">Clear</button><p><u><b>Current Answer:</b></u></p><div id=echoed_txt style=""font-size: 6rem; color:blue;""><b></b></div></div><br><br><br><br><br><br><br>",enter,fwdspan,response,kazrVaviYCPN6BVqrjf67d7BnVJ2,html-keyboard-response,53,821713,0.0-7.0-2.3-0.3-3.3,6.0,"[5,1,7,2,8,3]","[5,1,7,2,8,3]",1.0,"[3, 4, 5, 6, 7, 8, 9, 10, 11, 12, 12, 11]",,65a172976cb3b8890f3894d2,3:27:28 AM,1/15/2024
,,,fwdspan,update_span,kazrVaviYCPN6BVqrjf67d7BnVJ2,call-function,54,821969,0.0-7.0-2.3-0.3-4.3,,,,,,,65a172976cb3b8890f3894d2,3:27:28 AM,1/15/2024
6922.699999988079,"<p style=""font-size:3rem"">Trial 5 of 12</p><br><br><br>",0,fwdspan,start_trial,kazrVaviYCPN6BVqrjf67d7BnVJ2,html-button-response,55,828892,0.0-7.0-2.4-0.4-0.4,,,,,,,65a172976cb3b8890f3894d2,3:27:28 AM,1/15/2024
,"<p style=""font-size:14rem;font-weight:400;"">4</p>",,fwdspan,number,kazrVaviYCPN6BVqrjf67d7BnVJ2,html-keyboard-response,56,829897,0.0-7.0-2.4-0.4-1.18-0.18,,,,,,,65a172976cb3b8890f3894d2,3:27:28 AM,1/15/2024
,"<p style=""font-size:14rem;font-weight:400;"">3</p>",,fwdspan,number,kazrVaviYCPN6BVqrjf67d7BnVJ2,html-keyboard-response,57,830903,0.0-7.0-2.4-0.4-1.19-0.19,,,,,,,65a172976cb3b8890f3894d2,3:27:28 AM,1/15/2024
,"<p style=""font-size:14rem;font-weight:400;"">9</p>",,fwdspan,number,kazrVaviYCPN6BVqrjf67d7BnVJ2,html-keyboard-response,58,831912,0.0-7.0-2.4-0.4-1.20-0.20,,,,,,,65a172976cb3b8890f3894d2,3:27:28 AM,1/15/2024
,"<p style=""font-size:14rem;font-weight:400;"">2</p>",,fwdspan,number,kazrVaviYCPN6BVqrjf67d7BnVJ2,html-keyboard-response,59,832923,0.0-7.0-2.4-0.4-1.21-0.21,,,,,,,65a172976cb3b8890f3894d2,3:27:28 AM,1/15/2024
,"<p style=""font-size:14rem;font-weight:400;"">8</p>",,fwdspan,number,kazrVaviYCPN6BVqrjf67d7BnVJ2,html-keyboard-response,60,833927,0.0-7.0-2.4-0.4-1.22-0.22,,,,,,,65a172976cb3b8890f3894d2,3:27:28 AM,1/15/2024
,"<p style=""font-size:14rem;font-weight:400;"">5</p>",,fwdspan,number,kazrVaviYCPN6BVqrjf67d7BnVJ2,html-keyboard-response,61,834932,0.0-7.0-2.4-0.4-1.23-0.23,,,,,,,65a172976cb3b8890f3894d2,3:27:28 AM,1/15/2024
,"<p style=""font-size:14rem;font-weight:400;"">7</p>",,fwdspan,number,kazrVaviYCPN6BVqrjf67d7BnVJ2,html-keyboard-response,62,835942,0.0-7.0-2.4-0.4-1.24-0.24,,,,,,,65a172976cb3b8890f3894d2,3:27:28 AM,1/15/2024
,[],,fwdspan,delay,kazrVaviYCPN6BVqrjf67d7BnVJ2,html-keyboard-response,63,836502,0.0-7.0-2.4-0.4-2.4,,,,,,,65a172976cb3b8890f3894d2,3:27:28 AM,1/15/2024
19324.19999998808,"<div class = numbox><p style=""font-size:2.5rem"">What were the numbers <b>in order</b>?<br>(When you are ready to lock in your answer, press <b>ENTER</b>)</p><button id = button_1 class = ""square num-button"" onclick = ""recordClick(this)""><div class = content><div class = numbers>1</div></div></button><button id = button_2 class = ""square num-button"" onclick = ""recordClick(this)""><div class = content><div class = numbers>2</div></div></button><button id = button_3 class = ""square num-button"" onclick = ""recordClick(this)""><div class = content><div class = numbers>3</div></div></button><button id = button_4 class = ""square num-button"" onclick = ""recordClick(this)""><div class = content><div class = numbers>4</div></div></button><button id = button_5 class = ""square num-button"" onclick = ""recordClick(this)""><div class = content><div class = numbers>5</div></div></button><button id = button_6 class = ""square num-button"" onclick = ""recordClick(this)""><div class = content><div class = numbers>6</div></div></button><button id = button_7 class = ""square num-button"" onclick = ""recordClick(this)""><div class = content><div class = numbers>7</div></div></button><button id = button_8 class = ""square num-button"" onclick = ""recordClick(this)""><div class = content><div class = numbers>8</div></div></button><button id = button_9 class = ""square num-button"" onclick = ""recordClick(this)""><div class = content><div class = numbers>9</div></div></button><button class = clear_button id = ""ClearButton"" onclick = ""clearResponse()"">Clear</button><p><u><b>Current Answer:</b></u></p><div id=echoed_txt style=""font-size: 6rem; color:blue;""><b></b></div></div><br><br><br><br><br><br><br>",enter,fwdspan,response,kazrVaviYCPN6BVqrjf67d7BnVJ2,html-keyboard-response,64,855828,0.0-7.0-2.4-0.4-3.4,7.0,"[4,3,9,2,8,5,7]","[4,3,9,2,8,5,7]",1.0,"[3, 4, 5, 6, 7, 8, 9, 10, 11, 12, 12, 11]",,65a172976cb3b8890f3894d2,3:27:28 AM,1/15/2024
,,,fwdspan,update_span,kazrVaviYCPN6BVqrjf67d7BnVJ2,call-function,65,856084,0.0-7.0-2.4-0.4-4.4,,,,,,,65a172976cb3b8890f3894d2,3:27:28 AM,1/15/2024
4618.4000000059605,"<p style=""font-size:3rem"">Trial 6 of 12</p><br><br><br>",0,fwdspan,start_trial,kazrVaviYCPN6BVqrjf67d7BnVJ2,html-button-response,66,860704,0.0-7.0-2.5-0.5-0.5,,,,,,,65a172976cb3b8890f3894d2,3:27:28 AM,1/15/2024
,"<p style=""font-size:14rem;font-weight:400;"">4</p>",,fwdspan,number,kazrVaviYCPN6BVqrjf67d7BnVJ2,html-keyboard-response,67,861710,0.0-7.0-2.5-0.5-1.25-0.25,,,,,,,65a172976cb3b8890f3894d2,3:27:28 AM,1/15/2024
,"<p style=""font-size:14rem;font-weight:400;"">3</p>",,fwdspan,number,kazrVaviYCPN6BVqrjf67d7BnVJ2,html-keyboard-response,68,862721,0.0-7.0-2.5-0.5-1.26-0.26,,,,,,,65a172976cb3b8890f3894d2,3:27:28 AM,1/15/2024
,"<p style=""font-size:14rem;font-weight:400;"">5</p>",,fwdspan,number,kazrVaviYCPN6BVqrjf67d7BnVJ2,html-keyboard-response,69,863732,0.0-7.0-2.5-0.5-1.27-0.27,,,,,,,65a172976cb3b8890f3894d2,3:27:28 AM,1/15/2024
,"<p style=""font-size:14rem;font-weight:400;"">9</p>",,fwdspan,number,kazrVaviYCPN6BVqrjf67d7BnVJ2,html-keyboard-response,70,864742,0.0-7.0-2.5-0.5-1.28-0.28,,,,,,,65a172976cb3b8890f3894d2,3:27:28 AM,1/15/2024
,"<p style=""font-size:14rem;font-weight:400;"">8</p>",,fwdspan,number,kazrVaviYCPN6BVqrjf67d7BnVJ2,html-keyboard-response,71,865747,0.0-7.0-2.5-0.5-1.29-0.29,,,,,,,65a172976cb3b8890f3894d2,3:27:28 AM,1/15/2024
,"<p style=""font-size:14rem;font-weight:400;"">7</p>",,fwdspan,number,kazrVaviYCPN6BVqrjf67d7BnVJ2,html-keyboard-response,72,866755,0.0-7.0-2.5-0.5-1.30-0.30,,,,,,,65a172976cb3b8890f3894d2,3:27:28 AM,1/15/2024
,"<p style=""font-size:14rem;font-weight:400;"">2</p>",,fwdspan,number,kazrVaviYCPN6BVqrjf67d7BnVJ2,html-keyboard-response,73,867767,0.0-7.0-2.5-0.5-1.31-0.31,,,,,,,65a172976cb3b8890f3894d2,3:27:28 AM,1/15/2024
,"<p style=""font-size:14rem;font-weight:400;"">6</p>",,fwdspan,number,kazrVaviYCPN6BVqrjf67d7BnVJ2,html-keyboard-response,74,868777,0.0-7.0-2.5-0.5-1.32-0.32,,,,,,,65a172976cb3b8890f3894d2,3:27:28 AM,1/15/2024
,[],,fwdspan,delay,kazrVaviYCPN6BVqrjf67d7BnVJ2,html-keyboard-response,75,869333,0.0-7.0-2.5-0.5-2.5,,,,,,,65a172976cb3b8890f3894d2,3:27:28 AM,1/15/2024
14157.5,"<div class = numbox><p style=""font-size:2.5rem"">What were the numbers <b>in order</b>?<br>(When you are ready to lock in your answer, press <b>ENTER</b>)</p><button id = button_1 class = ""square num-button"" onclick = ""recordClick(this)""><div class = content><div class = numbers>1</div></div></button><button id = button_2 class = ""square num-button"" onclick = ""recordClick(this)""><div class = content><div class = numbers>2</div></div></button><button id = button_3 class = ""square num-button"" onclick = ""recordClick(this)""><div class = content><div class = numbers>3</div></div></button><button id = button_4 class = ""square num-button"" onclick = ""recordClick(this)""><div class = content><div class = numbers>4</div></div></button><button id = button_5 class = ""square num-button"" onclick = ""recordClick(this)""><div class = content><div class = numbers>5</div></div></button><button id = button_6 class = ""square num-button"" onclick = ""recordClick(this)""><div class = content><div class = numbers>6</div></div></button><button id = button_7 class = ""square num-button"" onclick = ""recordClick(this)""><div class = content><div class = numbers>7</div></div></button><button id = button_8 class = ""square num-button"" onclick = ""recordClick(this)""><div class = content><div class = numbers>8</div></div></button><button id = button_9 class = ""square num-button"" onclick = ""recordClick(this)""><div class = content><div class = numbers>9</div></div></button><button class = clear_button id = ""ClearButton"" onclick = ""clearResponse()"">Clear</button><p><u><b>Current Answer:</b></u></p><div id=echoed_txt style=""font-size: 6rem; color:blue;""><b></b></div></div><br><br><br><br><br><br><br>",enter,fwdspan,response,kazrVaviYCPN6BVqrjf67d7BnVJ2,html-keyboard-response,76,883492,0.0-7.0-2.5-0.5-3.5,8.0,"[4,3,5,9,8,7,2,6]","[4,3,5,9,8,7,2,6]",1.0,"[3, 4, 5, 6, 7, 8, 9, 10, 11, 12, 12, 11]",,65a172976cb3b8890f3894d2,3:27:28 AM,1/15/2024
,,,fwdspan,update_span,kazrVaviYCPN6BVqrjf67d7BnVJ2,call-function,77,883747,0.0-7.0-2.5-0.5-4.5,,,,,,,65a172976cb3b8890f3894d2,3:27:28 AM,1/15/2024
1894.0,"<p style=""font-size:3rem"">Trial 7 of 12</p><br><br><br>",0,fwdspan,start_trial,kazrVaviYCPN6BVqrjf67d7BnVJ2,html-button-response,78,885642,0.0-7.0-2.6-0.6-0.6,,,,,,,65a172976cb3b8890f3894d2,3:27:28 AM,1/15/2024
,"<p style=""font-size:14rem;font-weight:400;"">8</p>",,fwdspan,number,kazrVaviYCPN6BVqrjf67d7BnVJ2,html-keyboard-response,79,886649,0.0-7.0-2.6-0.6-1.33-0.33,,,,,,,65a172976cb3b8890f3894d2,3:27:28 AM,1/15/2024
,"<p style=""font-size:14rem;font-weight:400;"">9</p>",,fwdspan,number,kazrVaviYCPN6BVqrjf67d7BnVJ2,html-keyboard-response,80,887656,0.0-7.0-2.6-0.6-1.34-0.34,,,,,,,65a172976cb3b8890f3894d2,3:27:28 AM,1/15/2024
,"<p style=""font-size:14rem;font-weight:400;"">3</p>",,fwdspan,number,kazrVaviYCPN6BVqrjf67d7BnVJ2,html-keyboard-response,81,888666,0.0-7.0-2.6-0.6-1.35-0.35,,,,,,,65a172976cb3b8890f3894d2,3:27:28 AM,1/15/2024
,"<p style=""font-size:14rem;font-weight:400;"">2</p>",,fwdspan,number,kazrVaviYCPN6BVqrjf67d7BnVJ2,html-keyboard-response,82,889670,0.0-7.0-2.6-0.6-1.36-0.36,,,,,,,65a172976cb3b8890f3894d2,3:27:28 AM,1/15/2024
,"<p style=""font-size:14rem;font-weight:400;"">7</p>",,fwdspan,number,kazrVaviYCPN6BVqrjf67d7BnVJ2,html-keyboard-response,83,890678,0.0-7.0-2.6-0.6-1.37-0.37,,,,,,,65a172976cb3b8890f3894d2,3:27:28 AM,1/15/2024
,"<p style=""font-size:14rem;font-weight:400;"">5</p>",,fwdspan,number,kazrVaviYCPN6BVqrjf67d7BnVJ2,html-keyboard-response,84,891688,0.0-7.0-2.6-0.6-1.38-0.38,,,,,,,65a172976cb3b8890f3894d2,3:27:28 AM,1/15/2024
,"<p style=""font-size:14rem;font-weight:400;"">6</p>",,fwdspan,number,kazrVaviYCPN6BVqrjf67d7BnVJ2,html-keyboard-response,85,892697,0.0-7.0-2.6-0.6-1.39-0.39,,,,,,,65a172976cb3b8890f3894d2,3:27:28 AM,1/15/2024
,"<p style=""font-size:14rem;font-weight:400;"">4</p>",,fwdspan,number,kazrVaviYCPN6BVqrjf67d7BnVJ2,html-keyboard-response,86,893702,0.0-7.0-2.6-0.6-1.40-0.40,,,,,,,65a172976cb3b8890f3894d2,3:27:28 AM,1/15/2024
,"<p style=""font-size:14rem;font-weight:400;"">1</p>",,fwdspan,number,kazrVaviYCPN6BVqrjf67d7BnVJ2,html-keyboard-response,87,894708,0.0-7.0-2.6-0.6-1.41-0.41,,,,,,,65a172976cb3b8890f3894d2,3:27:28 AM,1/15/2024
,[],,fwdspan,delay,kazrVaviYCPN6BVqrjf67d7BnVJ2,html-keyboard-response,88,895266,0.0-7.0-2.6-0.6-2.6,,,,,,,65a172976cb3b8890f3894d2,3:27:28 AM,1/15/2024
16585.40000000596,"<div class = numbox><p style=""font-size:2.5rem"">What were the numbers <b>in order</b>?<br>(When you are ready to lock in your answer, press <b>ENTER</b>)</p><button id = button_1 class = ""square num-button"" onclick = ""recordClick(this)""><div class = content><div class = numbers>1</div></div></button><button id = button_2 class = ""square num-button"" onclick = ""recordClick(this)""><div class = content><div class = numbers>2</div></div></button><button id = button_3 class = ""square num-button"" onclick = ""recordClick(this)""><div class = content><div class = numbers>3</div></div></button><button id = button_4 class = ""square num-button"" onclick = ""recordClick(this)""><div class = content><div class = numbers>4</div></div></button><button id = button_5 class = ""square num-button"" onclick = ""recordClick(this)""><div class = content><div class = numbers>5</div></div></button><button id = button_6 class = ""square num-button"" onclick = ""recordClick(this)""><div class = content><div class = numbers>6</div></div></button><button id = button_7 class = ""square num-button"" onclick = ""recordClick(this)""><div class = content><div class = numbers>7</div></div></button><button id = button_8 class = ""square num-button"" onclick = ""recordClick(this)""><div class = content><div class = numbers>8</div></div></button><button id = button_9 class = ""square num-button"" onclick = ""recordClick(this)""><div class = content><div class = numbers>9</div></div></button><button class = clear_button id = ""ClearButton"" onclick = ""clearResponse()"">Clear</button><p><u><b>Current Answer:</b></u></p><div id=echoed_txt style=""font-size: 6rem; color:blue;""><b></b></div></div><br><br><br><br><br><br><br>",enter,fwdspan,response,kazrVaviYCPN6BVqrjf67d7BnVJ2,html-keyboard-response,89,911853,0.0-7.0-2.6-0.6-3.6,9.0,"[8,9,3,2,7,5,6,4,1]","[8,9,3,2,7,5,6,4,1]",1.0,"[3, 4, 5, 6, 7, 8, 9, 10, 11, 12, 12, 11]",,65a172976cb3b8890f3894d2,3:27:28 AM,1/15/2024
,,,fwdspan,update_span,kazrVaviYCPN6BVqrjf67d7BnVJ2,call-function,90,912108,0.0-7.0-2.6-0.6-4.6,,,,,,,65a172976cb3b8890f3894d2,3:27:28 AM,1/15/2024
9189.59999999404,"<p style=""font-size:3rem"">Trial 8 of 12</p><br><br><br>",0,fwdspan,start_trial,kazrVaviYCPN6BVqrjf67d7BnVJ2,html-button-response,91,921300,0.0-7.0-2.7-0.7-0.7,,,,,,,65a172976cb3b8890f3894d2,3:27:28 AM,1/15/2024
,"<p style=""font-size:14rem;font-weight:400;"">5</p>",,fwdspan,number,kazrVaviYCPN6BVqrjf67d7BnVJ2,html-keyboard-response,92,922308,0.0-7.0-2.7-0.7-1.42-0.42,,,,,,,65a172976cb3b8890f3894d2,3:27:28 AM,1/15/2024
,"<p style=""font-size:14rem;font-weight:400;"">7</p>",,fwdspan,number,kazrVaviYCPN6BVqrjf67d7BnVJ2,html-keyboard-response,93,923317,0.0-7.0-2.7-0.7-1.43-0.43,,,,,,,65a172976cb3b8890f3894d2,3:27:28 AM,1/15/2024
,"<p style=""font-size:14rem;font-weight:400;"">3</p>",,fwdspan,number,kazrVaviYCPN6BVqrjf67d7BnVJ2,html-keyboard-response,94,924321,0.0-7.0-2.7-0.7-1.44-0.44,,,,,,,65a172976cb3b8890f3894d2,3:27:28 AM,1/15/2024
,"<p style=""font-size:14rem;font-weight:400;"">4</p>",,fwdspan,number,kazrVaviYCPN6BVqrjf67d7BnVJ2,html-keyboard-response,95,925328,0.0-7.0-2.7-0.7-1.45-0.45,,,,,,,65a172976cb3b8890f3894d2,3:27:28 AM,1/15/2024
,"<p style=""font-size:14rem;font-weight:400;"">1</p>",,fwdspan,number,kazrVaviYCPN6BVqrjf67d7BnVJ2,html-keyboard-response,96,926336,0.0-7.0-2.7-0.7-1.46-0.46,,,,,,,65a172976cb3b8890f3894d2,3:27:28 AM,1/15/2024
,"<p style=""font-size:14rem;font-weight:400;"">9</p>",,fwdspan,number,kazrVaviYCPN6BVqrjf67d7BnVJ2,html-keyboard-response,97,927347,0.0-7.0-2.7-0.7-1.47-0.47,,,,,,,65a172976cb3b8890f3894d2,3:27:28 AM,1/15/2024
,"<p style=""font-size:14rem;font-weight:400;"">2</p>",,fwdspan,number,kazrVaviYCPN6BVqrjf67d7BnVJ2,html-keyboard-response,98,928351,0.0-7.0-2.7-0.7-1.48-0.48,,,,,,,65a172976cb3b8890f3894d2,3:27:28 AM,1/15/2024
,"<p style=""font-size:14rem;font-weight:400;"">6</p>",,fwdspan,number,kazrVaviYCPN6BVqrjf67d7BnVJ2,html-keyboard-response,99,929357,0.0-7.0-2.7-0.7-1.49-0.49,,,,,,,65a172976cb3b8890f3894d2,3:27:28 AM,1/15/2024
,"<p style=""font-size:14rem;font-weight:400;"">8</p>",,fwdspan,number,kazrVaviYCPN6BVqrjf67d7BnVJ2,html-keyboard-response,100,930365,0.0-7.0-2.7-0.7-1.50-0.50,,,,,,,65a172976cb3b8890f3894d2,3:27:28 AM,1/15/2024
,"<p style=""font-size:14rem;font-weight:400;"">9</p>",,fwdspan,number,kazrVaviYCPN6BVqrjf67d7BnVJ2,html-keyboard-response,101,931373,0.0-7.0-2.7-0.7-1.51-0.51,,,,,,,65a172976cb3b8890f3894d2,3:27:28 AM,1/15/2024
,[],,fwdspan,delay,kazrVaviYCPN6BVqrjf67d7BnVJ2,html-keyboard-response,102,931932,0.0-7.0-2.7-0.7-2.7,,,,,,,65a172976cb3b8890f3894d2,3:27:28 AM,1/15/2024
27507.70000001788,"<div class = numbox><p style=""font-size:2.5rem"">What were the numbers <b>in order</b>?<br>(When you are ready to lock in your answer, press <b>ENTER</b>)</p><button id = button_1 class = ""square num-button"" onclick = ""recordClick(this)""><div class = content><div class = numbers>1</div></div></button><button id = button_2 class = ""square num-button"" onclick = ""recordClick(this)""><div class = content><div class = numbers>2</div></div></button><button id = button_3 class = ""square num-button"" onclick = ""recordClick(this)""><div class = content><div class = numbers>3</div></div></button><button id = button_4 class = ""square num-button"" onclick = ""recordClick(this)""><div class = content><div class = numbers>4</div></div></button><button id = button_5 class = ""square num-button"" onclick = ""recordClick(this)""><div class = content><div class = numbers>5</div></div></button><button id = button_6 class = ""square num-button"" onclick = ""recordClick(this)""><div class = content><div class = numbers>6</div></div></button><button id = button_7 class = ""square num-button"" onclick = ""recordClick(this)""><div class = content><div class = numbers>7</div></div></button><button id = button_8 class = ""square num-button"" onclick = ""recordClick(this)""><div class = content><div class = numbers>8</div></div></button><button id = button_9 class = ""square num-button"" onclick = ""recordClick(this)""><div class = content><div class = numbers>9</div></div></button><button class = clear_button id = ""ClearButton"" onclick = ""clearResponse()"">Clear</button><p><u><b>Current Answer:</b></u></p><div id=echoed_txt style=""font-size: 6rem; color:blue;""><b></b></div></div><br><br><br><br><br><br><br>",enter,fwdspan,response,kazrVaviYCPN6BVqrjf67d7BnVJ2,html-keyboard-response,103,959442,0.0-7.0-2.7-0.7-3.7,10.0,"[5,7,3,4,1,9,2,6,8,9]","[5,7,3,4,1,9,2,6,8,9]",1.0,"[3, 4, 5, 6, 7, 8, 9, 10, 11, 12, 12, 11]",,65a172976cb3b8890f3894d2,3:27:28 AM,1/15/2024
,,,fwdspan,update_span,kazrVaviYCPN6BVqrjf67d7BnVJ2,call-function,104,959698,0.0-7.0-2.7-0.7-4.7,,,,,,,65a172976cb3b8890f3894d2,3:27:28 AM,1/15/2024
8837.09999999404,"<p style=""font-size:3rem"">Trial 9 of 12</p><br><br><br>",0,fwdspan,start_trial,kazrVaviYCPN6BVqrjf67d7BnVJ2,html-button-response,105,968536,0.0-7.0-2.8-0.8-0.8,,,,,,,65a172976cb3b8890f3894d2,3:27:28 AM,1/15/2024
,"<p style=""font-size:14rem;font-weight:400;"">6</p>",,fwdspan,number,kazrVaviYCPN6BVqrjf67d7BnVJ2,html-keyboard-response,106,969545,0.0-7.0-2.8-0.8-1.52-0.52,,,,,,,65a172976cb3b8890f3894d2,3:27:28 AM,1/15/2024
,"<p style=""font-size:14rem;font-weight:400;"">4</p>",,fwdspan,number,kazrVaviYCPN6BVqrjf67d7BnVJ2,html-keyboard-response,107,970552,0.0-7.0-2.8-0.8-1.53-0.53,,,,,,,65a172976cb3b8890f3894d2,3:27:28 AM,1/15/2024
,"<p style=""font-size:14rem;font-weight:400;"">8</p>",,fwdspan,number,kazrVaviYCPN6BVqrjf67d7BnVJ2,html-keyboard-response,108,971554,0.0-7.0-2.8-0.8-1.54-0.54,,,,,,,65a172976cb3b8890f3894d2,3:27:28 AM,1/15/2024
,"<p style=""font-size:14rem;font-weight:400;"">9</p>",,fwdspan,number,kazrVaviYCPN6BVqrjf67d7BnVJ2,html-keyboard-response,109,972561,0.0-7.0-2.8-0.8-1.55-0.55,,,,,,,65a172976cb3b8890f3894d2,3:27:28 AM,1/15/2024
,"<p style=""font-size:14rem;font-weight:400;"">3</p>",,fwdspan,number,kazrVaviYCPN6BVqrjf67d7BnVJ2,html-keyboard-response,110,973569,0.0-7.0-2.8-0.8-1.56-0.56,,,,,,,65a172976cb3b8890f3894d2,3:27:28 AM,1/15/2024
,"<p style=""font-size:14rem;font-weight:400;"">1</p>",,fwdspan,number,kazrVaviYCPN6BVqrjf67d7BnVJ2,html-keyboard-response,111,974576,0.0-7.0-2.8-0.8-1.57-0.57,,,,,,,65a172976cb3b8890f3894d2,3:27:28 AM,1/15/2024
,"<p style=""font-size:14rem;font-weight:400;"">7</p>",,fwdspan,number,kazrVaviYCPN6BVqrjf67d7BnVJ2,html-keyboard-response,112,975584,0.0-7.0-2.8-0.8-1.58-0.58,,,,,,,65a172976cb3b8890f3894d2,3:27:28 AM,1/15/2024
,"<p style=""font-size:14rem;font-weight:400;"">2</p>",,fwdspan,number,kazrVaviYCPN6BVqrjf67d7BnVJ2,html-keyboard-response,113,976589,0.0-7.0-2.8-0.8-1.59-0.59,,,,,,,65a172976cb3b8890f3894d2,3:27:28 AM,1/15/2024
,"<p style=""font-size:14rem;font-weight:400;"">5</p>",,fwdspan,number,kazrVaviYCPN6BVqrjf67d7BnVJ2,html-keyboard-response,114,977595,0.0-7.0-2.8-0.8-1.60-0.60,,,,,,,65a172976cb3b8890f3894d2,3:27:28 AM,1/15/2024
,"<p style=""font-size:14rem;font-weight:400;"">8</p>",,fwdspan,number,kazrVaviYCPN6BVqrjf67d7BnVJ2,html-keyboard-response,115,978605,0.0-7.0-2.8-0.8-1.61-0.61,,,,,,,65a172976cb3b8890f3894d2,3:27:28 AM,1/15/2024
,"<p style=""font-size:14rem;font-weight:400;"">5</p>",,fwdspan,number,kazrVaviYCPN6BVqrjf67d7BnVJ2,html-keyboard-response,116,979614,0.0-7.0-2.8-0.8-1.62-0.62,,,,,,,65a172976cb3b8890f3894d2,3:27:28 AM,1/15/2024
,[],,fwdspan,delay,kazrVaviYCPN6BVqrjf67d7BnVJ2,html-keyboard-response,117,980171,0.0-7.0-2.8-0.8-2.8,,,,,,,65a172976cb3b8890f3894d2,3:27:28 AM,1/15/2024
20410.19999998808,"<div class = numbox><p style=""font-size:2.5rem"">What were the numbers <b>in order</b>?<br>(When you are ready to lock in your answer, press <b>ENTER</b>)</p><button id = button_1 class = ""square num-button"" onclick = ""recordClick(this)""><div class = content><div class = numbers>1</div></div></button><button id = button_2 class = ""square num-button"" onclick = ""recordClick(this)""><div class = content><div class = numbers>2</div></div></button><button id = button_3 class = ""square num-button"" onclick = ""recordClick(this)""><div class = content><div class = numbers>3</div></div></button><button id = button_4 class = ""square num-button"" onclick = ""recordClick(this)""><div class = content><div class = numbers>4</div></div></button><button id = button_5 class = ""square num-button"" onclick = ""recordClick(this)""><div class = content><div class = numbers>5</div></div></button><button id = button_6 class = ""square num-button"" onclick = ""recordClick(this)""><div class = content><div class = numbers>6</div></div></button><button id = button_7 class = ""square num-button"" onclick = ""recordClick(this)""><div class = content><div class = numbers>7</div></div></button><button id = button_8 class = ""square num-button"" onclick = ""recordClick(this)""><div class = content><div class = numbers>8</div></div></button><button id = button_9 class = ""square num-button"" onclick = ""recordClick(this)""><div class = content><div class = numbers>9</div></div></button><button class = clear_button id = ""ClearButton"" onclick = ""clearResponse()"">Clear</button><p><u><b>Current Answer:</b></u></p><div id=echoed_txt style=""font-size: 6rem; color:blue;""><b></b></div></div><br><br><br><br><br><br><br>",enter,fwdspan,response,kazrVaviYCPN6BVqrjf67d7BnVJ2,html-keyboard-response,118,1000583,0.0-7.0-2.8-0.8-3.8,11.0,"[6,4,8,9,3,1,7,2,5,8,5]","[6,4,8,9,3,1,7,2,5,8,5]",1.0,"[3, 4, 5, 6, 7, 8, 9, 10, 11, 12, 12, 11]",,65a172976cb3b8890f3894d2,3:27:28 AM,1/15/2024
,,,fwdspan,update_span,kazrVaviYCPN6BVqrjf67d7BnVJ2,call-function,119,1000839,0.0-7.0-2.8-0.8-4.8,,,,,,,65a172976cb3b8890f3894d2,3:27:28 AM,1/15/2024
9418.5,"<p style=""font-size:3rem"">Trial 10 of 12</p><br><br><br>",0,fwdspan,start_trial,kazrVaviYCPN6BVqrjf67d7BnVJ2,html-button-response,120,1010258,0.0-7.0-2.9-0.9-0.9,,,,,,,65a172976cb3b8890f3894d2,3:27:28 AM,1/15/2024
,"<p style=""font-size:14rem;font-weight:400;"">8</p>",,fwdspan,number,kazrVaviYCPN6BVqrjf67d7BnVJ2,html-keyboard-response,121,1011266,0.0-7.0-2.9-0.9-1.63-0.63,,,,,,,65a172976cb3b8890f3894d2,3:27:28 AM,1/15/2024
,"<p style=""font-size:14rem;font-weight:400;"">1</p>",,fwdspan,number,kazrVaviYCPN6BVqrjf67d7BnVJ2,html-keyboard-response,122,1012273,0.0-7.0-2.9-0.9-1.64-0.64,,,,,,,65a172976cb3b8890f3894d2,3:27:28 AM,1/15/2024
,"<p style=""font-size:14rem;font-weight:400;"">6</p>",,fwdspan,number,kazrVaviYCPN6BVqrjf67d7BnVJ2,html-keyboard-response,123,1013281,0.0-7.0-2.9-0.9-1.65-0.65,,,,,,,65a172976cb3b8890f3894d2,3:27:28 AM,1/15/2024
,"<p style=""font-size:14rem;font-weight:400;"">7</p>",,fwdspan,number,kazrVaviYCPN6BVqrjf67d7BnVJ2,html-keyboard-response,124,1014287,0.0-7.0-2.9-0.9-1.66-0.66,,,,,,,65a172976cb3b8890f3894d2,3:27:28 AM,1/15/2024
,"<p style=""font-size:14rem;font-weight:400;"">2</p>",,fwdspan,number,kazrVaviYCPN6BVqrjf67d7BnVJ2,html-keyboard-response,125,1015295,0.0-7.0-2.9-0.9-1.67-0.67,,,,,,,65a172976cb3b8890f3894d2,3:27:28 AM,1/15/2024
,"<p style=""font-size:14rem;font-weight:400;"">5</p>",,fwdspan,number,kazrVaviYCPN6BVqrjf67d7BnVJ2,html-keyboard-response,126,1016305,0.0-7.0-2.9-0.9-1.68-0.68,,,,,,,65a172976cb3b8890f3894d2,3:27:28 AM,1/15/2024
,"<p style=""font-size:14rem;font-weight:400;"">3</p>",,fwdspan,number,kazrVaviYCPN6BVqrjf67d7BnVJ2,html-keyboard-response,127,1017314,0.0-7.0-2.9-0.9-1.69-0.69,,,,,,,65a172976cb3b8890f3894d2,3:27:28 AM,1/15/2024
,"<p style=""font-size:14rem;font-weight:400;"">4</p>",,fwdspan,number,kazrVaviYCPN6BVqrjf67d7BnVJ2,html-keyboard-response,128,1018319,0.0-7.0-2.9-0.9-1.70-0.70,,,,,,,65a172976cb3b8890f3894d2,3:27:28 AM,1/15/2024
,"<p style=""font-size:14rem;font-weight:400;"">9</p>",,fwdspan,number,kazrVaviYCPN6BVqrjf67d7BnVJ2,html-keyboard-response,129,1019324,0.0-7.0-2.9-0.9-1.71-0.71,,,,,,,65a172976cb3b8890f3894d2,3:27:28 AM,1/15/2024
,"<p style=""font-size:14rem;font-weight:400;"">9</p>",,fwdspan,number,kazrVaviYCPN6BVqrjf67d7BnVJ2,html-keyboard-response,130,1020333,0.0-7.0-2.9-0.9-1.72-0.72,,,,,,,65a172976cb3b8890f3894d2,3:27:28 AM,1/15/2024
,"<p style=""font-size:14rem;font-weight:400;"">2</p>",,fwdspan,number,kazrVaviYCPN6BVqrjf67d7BnVJ2,html-keyboard-response,131,1021337,0.0-7.0-2.9-0.9-1.73-0.73,,,,,,,65a172976cb3b8890f3894d2,3:27:28 AM,1/15/2024
,"<p style=""font-size:14rem;font-weight:400;"">7</p>",,fwdspan,number,kazrVaviYCPN6BVqrjf67d7BnVJ2,html-keyboard-response,132,1022342,0.0-7.0-2.9-0.9-1.74-0.74,,,,,,,65a172976cb3b8890f3894d2,3:27:28 AM,1/15/2024
,[],,fwdspan,delay,kazrVaviYCPN6BVqrjf67d7BnVJ2,html-keyboard-response,133,1022900,0.0-7.0-2.9-0.9-2.9,,,,,,,65a172976cb3b8890f3894d2,3:27:28 AM,1/15/2024
53143.39999997616,"<div class = numbox><p style=""font-size:2.5rem"">What were the numbers <b>in order</b>?<br>(When you are ready to lock in your answer, press <b>ENTER</b>)</p><button id = button_1 class = ""square num-button"" onclick = ""recordClick(this)""><div class = content><div class = numbers>1</div></div></button><button id = button_2 class = ""square num-button"" onclick = ""recordClick(this)""><div class = content><div class = numbers>2</div></div></button><button id = button_3 class = ""square num-button"" onclick = ""recordClick(this)""><div class = content><div class = numbers>3</div></div></button><button id = button_4 class = ""square num-button"" onclick = ""recordClick(this)""><div class = content><div class = numbers>4</div></div></button><button id = button_5 class = ""square num-button"" onclick = ""recordClick(this)""><div class = content><div class = numbers>5</div></div></button><button id = button_6 class = ""square num-button"" onclick = ""recordClick(this)""><div class = content><div class = numbers>6</div></div></button><button id = button_7 class = ""square num-button"" onclick = ""recordClick(this)""><div class = content><div class = numbers>7</div></div></button><button id = button_8 class = ""square num-button"" onclick = ""recordClick(this)""><div class = content><div class = numbers>8</div></div></button><button id = button_9 class = ""square num-button"" onclick = ""recordClick(this)""><div class = content><div class = numbers>9</div></div></button><button class = clear_button id = ""ClearButton"" onclick = ""clearResponse()"">Clear</button><p><u><b>Current Answer:</b></u></p><div id=echoed_txt style=""font-size: 6rem; color:blue;""><b></b></div></div><br><br><br><br><br><br><br>",enter,fwdspan,response,kazrVaviYCPN6BVqrjf67d7BnVJ2,html-keyboard-response,134,1076046,0.0-7.0-2.9-0.9-3.9,12.0,"[8,1,6,7,2,5,7,9,9,6,8,5]","[8,1,6,7,2,5,3,4,9,9,2,7]",0.0,"[3, 4, 5, 6, 7, 8, 9, 10, 11, 12, 12, 11]",,65a172976cb3b8890f3894d2,3:27:28 AM,1/15/2024
,,,fwdspan,update_span,kazrVaviYCPN6BVqrjf67d7BnVJ2,call-function,135,1076299,0.0-7.0-2.9-0.9-4.9,,,,,,,65a172976cb3b8890f3894d2,3:27:28 AM,1/15/2024
7365.5999999940395,"<p style=""font-size:3rem"">Trial 11 of 12</p><br><br><br>",0,fwdspan,start_trial,kazrVaviYCPN6BVqrjf67d7BnVJ2,html-button-response,136,1083666,0.0-7.0-2.10-0.10-0.10,,,,,,,65a172976cb3b8890f3894d2,3:27:28 AM,1/15/2024
,"<p style=""font-size:14rem;font-weight:400;"">3</p>",,fwdspan,number,kazrVaviYCPN6BVqrjf67d7BnVJ2,html-keyboard-response,137,1084678,0.0-7.0-2.10-0.10-1.75-0.75,,,,,,,65a172976cb3b8890f3894d2,3:27:28 AM,1/15/2024
,"<p style=""font-size:14rem;font-weight:400;"">8</p>",,fwdspan,number,kazrVaviYCPN6BVqrjf67d7BnVJ2,html-keyboard-response,138,1085685,0.0-7.0-2.10-0.10-1.76-0.76,,,,,,,65a172976cb3b8890f3894d2,3:27:28 AM,1/15/2024
,"<p style=""font-size:14rem;font-weight:400;"">7</p>",,fwdspan,number,kazrVaviYCPN6BVqrjf67d7BnVJ2,html-keyboard-response,139,1086687,0.0-7.0-2.10-0.10-1.77-0.77,,,,,,,65a172976cb3b8890f3894d2,3:27:28 AM,1/15/2024
,"<p style=""font-size:14rem;font-weight:400;"">2</p>",,fwdspan,number,kazrVaviYCPN6BVqrjf67d7BnVJ2,html-keyboard-response,140,1087696,0.0-7.0-2.10-0.10-1.78-0.78,,,,,,,65a172976cb3b8890f3894d2,3:27:28 AM,1/15/2024
,"<p style=""font-size:14rem;font-weight:400;"">1</p>",,fwdspan,number,kazrVaviYCPN6BVqrjf67d7BnVJ2,html-keyboard-response,141,1088703,0.0-7.0-2.10-0.10-1.79-0.79,,,,,,,65a172976cb3b8890f3894d2,3:27:28 AM,1/15/2024
,"<p style=""font-size:14rem;font-weight:400;"">5</p>",,fwdspan,number,kazrVaviYCPN6BVqrjf67d7BnVJ2,html-keyboard-response,142,1089714,0.0-7.0-2.10-0.10-1.80-0.80,,,,,,,65a172976cb3b8890f3894d2,3:27:28 AM,1/15/2024
,"<p style=""font-size:14rem;font-weight:400;"">4</p>",,fwdspan,number,kazrVaviYCPN6BVqrjf67d7BnVJ2,html-keyboard-response,143,1090720,0.0-7.0-2.10-0.10-1.81-0.81,,,,,,,65a172976cb3b8890f3894d2,3:27:28 AM,1/15/2024
,"<p style=""font-size:14rem;font-weight:400;"">9</p>",,fwdspan,number,kazrVaviYCPN6BVqrjf67d7BnVJ2,html-keyboard-response,144,1091728,0.0-7.0-2.10-0.10-1.82-0.82,,,,,,,65a172976cb3b8890f3894d2,3:27:28 AM,1/15/2024
,"<p style=""font-size:14rem;font-weight:400;"">6</p>",,fwdspan,number,kazrVaviYCPN6BVqrjf67d7BnVJ2,html-keyboard-response,145,1092733,0.0-7.0-2.10-0.10-1.83-0.83,,,,,,,65a172976cb3b8890f3894d2,3:27:28 AM,1/15/2024
,"<p style=""font-size:14rem;font-weight:400;"">3</p>",,fwdspan,number,kazrVaviYCPN6BVqrjf67d7BnVJ2,html-keyboard-response,146,1093744,0.0-7.0-2.10-0.10-1.84-0.84,,,,,,,65a172976cb3b8890f3894d2,3:27:28 AM,1/15/2024
,"<p style=""font-size:14rem;font-weight:400;"">2</p>",,fwdspan,number,kazrVaviYCPN6BVqrjf67d7BnVJ2,html-keyboard-response,147,1094753,0.0-7.0-2.10-0.10-1.85-0.85,,,,,,,65a172976cb3b8890f3894d2,3:27:28 AM,1/15/2024
,"<p style=""font-size:14rem;font-weight:400;"">5</p>",,fwdspan,number,kazrVaviYCPN6BVqrjf67d7BnVJ2,html-keyboard-response,148,1095758,0.0-7.0-2.10-0.10-1.86-0.86,,,,,,,65a172976cb3b8890f3894d2,3:27:28 AM,1/15/2024
,[],,fwdspan,delay,kazrVaviYCPN6BVqrjf67d7BnVJ2,html-keyboard-response,149,1096315,0.0-7.0-2.10-0.10-2.10,,,,,,,65a172976cb3b8890f3894d2,3:27:28 AM,1/15/2024
19454.5,"<div class = numbox><p style=""font-size:2.5rem"">What were the numbers <b>in order</b>?<br>(When you are ready to lock in your answer, press <b>ENTER</b>)</p><button id = button_1 class = ""square num-button"" onclick = ""recordClick(this)""><div class = content><div class = numbers>1</div></div></button><button id = button_2 class = ""square num-button"" onclick = ""recordClick(this)""><div class = content><div class = numbers>2</div></div></button><button id = button_3 class = ""square num-button"" onclick = ""recordClick(this)""><div class = content><div class = numbers>3</div></div></button><button id = button_4 class = ""square num-button"" onclick = ""recordClick(this)""><div class = content><div class = numbers>4</div></div></button><button id = button_5 class = ""square num-button"" onclick = ""recordClick(this)""><div class = content><div class = numbers>5</div></div></button><button id = button_6 class = ""square num-button"" onclick = ""recordClick(this)""><div class = content><div class = numbers>6</div></div></button><button id = button_7 class = ""square num-button"" onclick = ""recordClick(this)""><div class = content><div class = numbers>7</div></div></button><button id = button_8 class = ""square num-button"" onclick = ""recordClick(this)""><div class = content><div class = numbers>8</div></div></button><button id = button_9 class = ""square num-button"" onclick = ""recordClick(this)""><div class = content><div class = numbers>9</div></div></button><button class = clear_button id = ""ClearButton"" onclick = ""clearResponse()"">Clear</button><p><u><b>Current Answer:</b></u></p><div id=echoed_txt style=""font-size: 6rem; color:blue;""><b></b></div></div><br><br><br><br><br><br><br>",enter,fwdspan,response,kazrVaviYCPN6BVqrjf67d7BnVJ2,html-keyboard-response,150,1115772,0.0-7.0-2.10-0.10-3.10,12.0,"[3,8,7,2,1,5,4,9,6,3,5]","[3,8,7,2,1,5,4,9,6,3,2,5]",0.0,"[3, 4, 5, 6, 7, 8, 9, 10, 11, 12, 12, 11]",,65a172976cb3b8890f3894d2,3:27:28 AM,1/15/2024
,,,fwdspan,update_span,kazrVaviYCPN6BVqrjf67d7BnVJ2,call-function,151,1116027,0.0-7.0-2.10-0.10-4.10,,,,,,,65a172976cb3b8890f3894d2,3:27:28 AM,1/15/2024
2149.2999999821186,"<p style=""font-size:3rem"">Trial 12 of 12</p><br><br><br>",0,fwdspan,start_trial,kazrVaviYCPN6BVqrjf67d7BnVJ2,html-button-response,152,1118177,0.0-7.0-2.11-0.11-0.11,,,,,,,65a172976cb3b8890f3894d2,3:27:28 AM,1/15/2024
,"<p style=""font-size:14rem;font-weight:400;"">7</p>",,fwdspan,number,kazrVaviYCPN6BVqrjf67d7BnVJ2,html-keyboard-response,153,1119187,0.0-7.0-2.11-0.11-1.87-0.87,,,,,,,65a172976cb3b8890f3894d2,3:27:28 AM,1/15/2024
,"<p style=""font-size:14rem;font-weight:400;"">4</p>",,fwdspan,number,kazrVaviYCPN6BVqrjf67d7BnVJ2,html-keyboard-response,154,1120191,0.0-7.0-2.11-0.11-1.88-0.88,,,,,,,65a172976cb3b8890f3894d2,3:27:28 AM,1/15/2024
,"<p style=""font-size:14rem;font-weight:400;"">1</p>",,fwdspan,number,kazrVaviYCPN6BVqrjf67d7BnVJ2,html-keyboard-response,155,1121201,0.0-7.0-2.11-0.11-1.89-0.89,,,,,,,65a172976cb3b8890f3894d2,3:27:28 AM,1/15/2024
,"<p style=""font-size:14rem;font-weight:400;"">9</p>",,fwdspan,number,kazrVaviYCPN6BVqrjf67d7BnVJ2,html-keyboard-response,156,1122205,0.0-7.0-2.11-0.11-1.90-0.90,,,,,,,65a172976cb3b8890f3894d2,3:27:28 AM,1/15/2024
,"<p style=""font-size:14rem;font-weight:400;"">6</p>",,fwdspan,number,kazrVaviYCPN6BVqrjf67d7BnVJ2,html-keyboard-response,157,1123212,0.0-7.0-2.11-0.11-1.91-0.91,,,,,,,65a172976cb3b8890f3894d2,3:27:28 AM,1/15/2024
,"<p style=""font-size:14rem;font-weight:400;"">8</p>",,fwdspan,number,kazrVaviYCPN6BVqrjf67d7BnVJ2,html-keyboard-response,158,1124216,0.0-7.0-2.11-0.11-1.92-0.92,,,,,,,65a172976cb3b8890f3894d2,3:27:28 AM,1/15/2024
,"<p style=""font-size:14rem;font-weight:400;"">2</p>",,fwdspan,number,kazrVaviYCPN6BVqrjf67d7BnVJ2,html-keyboard-response,159,1125223,0.0-7.0-2.11-0.11-1.93-0.93,,,,,,,65a172976cb3b8890f3894d2,3:27:28 AM,1/15/2024
,"<p style=""font-size:14rem;font-weight:400;"">5</p>",,fwdspan,number,kazrVaviYCPN6BVqrjf67d7BnVJ2,html-keyboard-response,160,1126234,0.0-7.0-2.11-0.11-1.94-0.94,,,,,,,65a172976cb3b8890f3894d2,3:27:28 AM,1/15/2024
,"<p style=""font-size:14rem;font-weight:400;"">3</p>",,fwdspan,number,kazrVaviYCPN6BVqrjf67d7BnVJ2,html-keyboard-response,161,1127244,0.0-7.0-2.11-0.11-1.95-0.95,,,,,,,65a172976cb3b8890f3894d2,3:27:28 AM,1/15/2024
,"<p style=""font-size:14rem;font-weight:400;"">6</p>",,fwdspan,number,kazrVaviYCPN6BVqrjf67d7BnVJ2,html-keyboard-response,162,1128247,0.0-7.0-2.11-0.11-1.96-0.96,,,,,,,65a172976cb3b8890f3894d2,3:27:28 AM,1/15/2024
,"<p style=""font-size:14rem;font-weight:400;"">5</p>",,fwdspan,number,kazrVaviYCPN6BVqrjf67d7BnVJ2,html-keyboard-response,163,1129254,0.0-7.0-2.11-0.11-1.97-0.97,,,,,,,65a172976cb3b8890f3894d2,3:27:28 AM,1/15/2024
,[],,fwdspan,delay,kazrVaviYCPN6BVqrjf67d7BnVJ2,html-keyboard-response,164,1129808,0.0-7.0-2.11-0.11-2.11,,,,,,,65a172976cb3b8890f3894d2,3:27:28 AM,1/15/2024
24414.30000001192,"<div class = numbox><p style=""font-size:2.5rem"">What were the numbers <b>in order</b>?<br>(When you are ready to lock in your answer, press <b>ENTER</b>)</p><button id = button_1 class = ""square num-button"" onclick = ""recordClick(this)""><div class = content><div class = numbers>1</div></div></button><button id = button_2 class = ""square num-button"" onclick = ""recordClick(this)""><div class = content><div class = numbers>2</div></div></button><button id = button_3 class = ""square num-button"" onclick = ""recordClick(this)""><div class = content><div class = numbers>3</div></div></button><button id = button_4 class = ""square num-button"" onclick = ""recordClick(this)""><div class = content><div class = numbers>4</div></div></button><button id = button_5 class = ""square num-button"" onclick = ""recordClick(this)""><div class = content><div class = numbers>5</div></div></button><button id = button_6 class = ""square num-button"" onclick = ""recordClick(this)""><div class = content><div class = numbers>6</div></div></button><button id = button_7 class = ""square num-button"" onclick = ""recordClick(this)""><div class = content><div class = numbers>7</div></div></button><button id = button_8 class = ""square num-button"" onclick = ""recordClick(this)""><div class = content><div class = numbers>8</div></div></button><button id = button_9 class = ""square num-button"" onclick = ""recordClick(this)""><div class = content><div class = numbers>9</div></div></button><button class = clear_button id = ""ClearButton"" onclick = ""clearResponse()"">Clear</button><p><u><b>Current Answer:</b></u></p><div id=echoed_txt style=""font-size: 6rem; color:blue;""><b></b></div></div><br><br><br><br><br><br><br>",enter,fwdspan,response,kazrVaviYCPN6BVqrjf67d7BnVJ2,html-keyboard-response,165,1154224,0.0-7.0-2.11-0.11-3.11,11.0,"[7,4,1,9,6,8,2,5,3,6,5]","[7,4,1,9,6,8,2,5,3,6,5]",1.0,"[3, 4, 5, 6, 7, 8, 9, 10, 11, 12, 12, 11]",,65a172976cb3b8890f3894d2,3:27:28 AM,1/15/2024
,,,fwdspan,update_span,kazrVaviYCPN6BVqrjf67d7BnVJ2,call-function,166,1154478,0.0-7.0-2.11-0.11-4.11,,,,,,,65a172976cb3b8890f3894d2,3:27:28 AM,1/15/2024
146083.90000000596,,"{'Q0': ""I like the second part, it gets one fully focused and attentive to the numbers as they appeared. Nice initiative.\n\nthink this can be used to develop a game, it will help to train one's mind to be attentive.""}",fwdspan,survey,kazrVaviYCPN6BVqrjf67d7BnVJ2,lmdlab-survey-text,167,1301317,0.0-7.0-3.0,,,,,,kazrVaviYCPN6BVqrjf67d7BnVJ2,65a172976cb3b8890f3894d2,3:27:28 AM,1/15/2024
3732.7000000178814,<p><p style='font-size: 3rem'>Great work!<br><br>This completes the digit span task.</p><br><br><br>,0,fwdspan,finish,kazrVaviYCPN6BVqrjf67d7BnVJ2,html-button-response,168,1305055,0.0-7.0-4.0,,,,,,,65a172976cb3b8890f3894d2,3:27:28 AM,1/15/2024
