rt,stimulus,response,exp_name,exp_stage,subjectID,trial_type,trial_index,time_elapsed,internal_node_id,span,answer,correct,correct_full,span_history,databaseID,prolificID,start_time,date
9433.400000035763,"<p style=""font-size:4rem""><br><br>In the next part today, we have a completely different short task.<br><br><br>This part involves keeping numbers in you mind. Participation takes around 5 minutes.<br><br><br></p>",0,fwdspan,instruct,YXFN2dl3nVbZWe0YwExW1oUFgSJ3,html-button-response,19,900958,0.0-7.0-0.0,,,,,,,62a737b12cc61f784c4aab36,3:47:22 AM,1/15/2024
42634.19999998808,"<p style=""font-size:5rem"">Welcome to the <b>digit span task</b>!<br><br></p><p style=""font-size:3.4rem""><br>On each trial, you will see a sequence of digits, followed by a delay.</p><p style=""font-size:3.4rem""><br>Then you will be asked to type them back in the same order in which they were seen.</p><p style=""font-size:3.4rem""><br><br><br>For example, if you saw the digits <b style=""color:blue;"">1</b>, <b style=""color:blue;"">2</b>, <b style=""color:blue;"">3</b>, you would respond with <b style=""color:blue;"">1</b>, <b style=""color:blue;"">2</b>, <b style=""color:blue;"">3</b></p><p style=""font-size:3.4rem""><br><br><br>To ensure the best measure of true performance for our study,<br><br>it is very important that you do not use any memory aid (e.g., pen and paper).<br><br>Please do the task solely in your head.</p><p style=""font-size:3.4rem""><br><br><br>There will be 12 total trials. Participation takes around 5 minutes.</p><br><br><br>",0,fwdspan,instruct,YXFN2dl3nVbZWe0YwExW1oUFgSJ3,html-button-response,20,943594,0.0-7.0-1.0,,,,,,,62a737b12cc61f784c4aab36,3:47:22 AM,1/15/2024
4509.699999988079,"<p style=""font-size:3rem"">Trial 1 of 12</p><br><br><br>",0,fwdspan,start_trial,YXFN2dl3nVbZWe0YwExW1oUFgSJ3,html-button-response,21,948109,0.0-7.0-2.0-0.0-0.0,,,,,,,62a737b12cc61f784c4aab36,3:47:22 AM,1/15/2024
,"<p style=""font-size:14rem;font-weight:400;"">5</p>",,fwdspan,number,YXFN2dl3nVbZWe0YwExW1oUFgSJ3,html-keyboard-response,22,949112,0.0-7.0-2.0-0.0-1.0-0.0,,,,,,,62a737b12cc61f784c4aab36,3:47:22 AM,1/15/2024
,"<p style=""font-size:14rem;font-weight:400;"">4</p>",,fwdspan,number,YXFN2dl3nVbZWe0YwExW1oUFgSJ3,html-keyboard-response,23,950118,0.0-7.0-2.0-0.0-1.1-0.1,,,,,,,62a737b12cc61f784c4aab36,3:47:22 AM,1/15/2024
,"<p style=""font-size:14rem;font-weight:400;"">9</p>",,fwdspan,number,YXFN2dl3nVbZWe0YwExW1oUFgSJ3,html-keyboard-response,24,951121,0.0-7.0-2.0-0.0-1.2-0.2,,,,,,,62a737b12cc61f784c4aab36,3:47:22 AM,1/15/2024
,[],,fwdspan,delay,YXFN2dl3nVbZWe0YwExW1oUFgSJ3,html-keyboard-response,25,951674,0.0-7.0-2.0-0.0-2.0,,,,,,,62a737b12cc61f784c4aab36,3:47:22 AM,1/15/2024
55030.5,"<div class = numbox><p style=""font-size:2.5rem"">What were the numbers <b>in order</b>?<br>(When you are ready to lock in your answer, press <b>ENTER</b>)</p><button id = button_1 class = ""square num-button"" onclick = ""recordClick(this)""><div class = content><div class = numbers>1</div></div></button><button id = button_2 class = ""square num-button"" onclick = ""recordClick(this)""><div class = content><div class = numbers>2</div></div></button><button id = button_3 class = ""square num-button"" onclick = ""recordClick(this)""><div class = content><div class = numbers>3</div></div></button><button id = button_4 class = ""square num-button"" onclick = ""recordClick(this)""><div class = content><div class = numbers>4</div></div></button><button id = button_5 class = ""square num-button"" onclick = ""recordClick(this)""><div class = content><div class = numbers>5</div></div></button><button id = button_6 class = ""square num-button"" onclick = ""recordClick(this)""><div class = content><div class = numbers>6</div></div></button><button id = button_7 class = ""square num-button"" onclick = ""recordClick(this)""><div class = content><div class = numbers>7</div></div></button><button id = button_8 class = ""square num-button"" onclick = ""recordClick(this)""><div class = content><div class = numbers>8</div></div></button><button id = button_9 class = ""square num-button"" onclick = ""recordClick(this)""><div class = content><div class = numbers>9</div></div></button><button class = clear_button id = ""ClearButton"" onclick = ""clearResponse()"">Clear</button><p><u><b>Current Answer:</b></u></p><div id=echoed_txt style=""font-size: 6rem; color:blue;""><b></b></div></div><br><br><br><br><br><br><br>",enter,fwdspan,response,YXFN2dl3nVbZWe0YwExW1oUFgSJ3,html-keyboard-response,26,1006706,0.0-7.0-2.0-0.0-3.0,3.0,"[5,4,9]","[5,4,9]",1.0,"[3, 4, 4, 5, 6, 6, 7, 8, 8, 9, 10, 11]",,62a737b12cc61f784c4aab36,3:47:22 AM,1/15/2024
,,,fwdspan,update_span,YXFN2dl3nVbZWe0YwExW1oUFgSJ3,call-function,27,1006961,0.0-7.0-2.0-0.0-4.0,,,,,,,62a737b12cc61f784c4aab36,3:47:22 AM,1/15/2024
7925.599999964237,"<p style=""font-size:3rem"">Trial 2 of 12</p><br><br><br>",0,fwdspan,start_trial,YXFN2dl3nVbZWe0YwExW1oUFgSJ3,html-button-response,28,1014888,0.0-7.0-2.1-0.1-0.1,,,,,,,62a737b12cc61f784c4aab36,3:47:22 AM,1/15/2024
,"<p style=""font-size:14rem;font-weight:400;"">9</p>",,fwdspan,number,YXFN2dl3nVbZWe0YwExW1oUFgSJ3,html-keyboard-response,29,1015891,0.0-7.0-2.1-0.1-1.3-0.3,,,,,,,62a737b12cc61f784c4aab36,3:47:22 AM,1/15/2024
,"<p style=""font-size:14rem;font-weight:400;"">2</p>",,fwdspan,number,YXFN2dl3nVbZWe0YwExW1oUFgSJ3,html-keyboard-response,30,1016894,0.0-7.0-2.1-0.1-1.4-0.4,,,,,,,62a737b12cc61f784c4aab36,3:47:22 AM,1/15/2024
,"<p style=""font-size:14rem;font-weight:400;"">6</p>",,fwdspan,number,YXFN2dl3nVbZWe0YwExW1oUFgSJ3,html-keyboard-response,31,1017898,0.0-7.0-2.1-0.1-1.5-0.5,,,,,,,62a737b12cc61f784c4aab36,3:47:22 AM,1/15/2024
,"<p style=""font-size:14rem;font-weight:400;"">5</p>",,fwdspan,number,YXFN2dl3nVbZWe0YwExW1oUFgSJ3,html-keyboard-response,32,1018900,0.0-7.0-2.1-0.1-1.6-0.6,,,,,,,62a737b12cc61f784c4aab36,3:47:22 AM,1/15/2024
,[],,fwdspan,delay,YXFN2dl3nVbZWe0YwExW1oUFgSJ3,html-keyboard-response,33,1019463,0.0-7.0-2.1-0.1-2.1,,,,,,,62a737b12cc61f784c4aab36,3:47:22 AM,1/15/2024
28072.099999964237,"<div class = numbox><p style=""font-size:2.5rem"">What were the numbers <b>in order</b>?<br>(When you are ready to lock in your answer, press <b>ENTER</b>)</p><button id = button_1 class = ""square num-button"" onclick = ""recordClick(this)""><div class = content><div class = numbers>1</div></div></button><button id = button_2 class = ""square num-button"" onclick = ""recordClick(this)""><div class = content><div class = numbers>2</div></div></button><button id = button_3 class = ""square num-button"" onclick = ""recordClick(this)""><div class = content><div class = numbers>3</div></div></button><button id = button_4 class = ""square num-button"" onclick = ""recordClick(this)""><div class = content><div class = numbers>4</div></div></button><button id = button_5 class = ""square num-button"" onclick = ""recordClick(this)""><div class = content><div class = numbers>5</div></div></button><button id = button_6 class = ""square num-button"" onclick = ""recordClick(this)""><div class = content><div class = numbers>6</div></div></button><button id = button_7 class = ""square num-button"" onclick = ""recordClick(this)""><div class = content><div class = numbers>7</div></div></button><button id = button_8 class = ""square num-button"" onclick = ""recordClick(this)""><div class = content><div class = numbers>8</div></div></button><button id = button_9 class = ""square num-button"" onclick = ""recordClick(this)""><div class = content><div class = numbers>9</div></div></button><button class = clear_button id = ""ClearButton"" onclick = ""clearResponse()"">Clear</button><p><u><b>Current Answer:</b></u></p><div id=echoed_txt style=""font-size: 6rem; color:blue;""><b></b></div></div><br><br><br><br><br><br><br>",enter,fwdspan,response,YXFN2dl3nVbZWe0YwExW1oUFgSJ3,html-keyboard-response,34,1047536,0.0-7.0-2.1-0.1-3.1,4.0,"[2,6,5]","[9,2,6,5]",0.0,"[3, 4, 4, 5, 6, 6, 7, 8, 8, 9, 10, 11]",,62a737b12cc61f784c4aab36,3:47:22 AM,1/15/2024
,,,fwdspan,update_span,YXFN2dl3nVbZWe0YwExW1oUFgSJ3,call-function,35,1047790,0.0-7.0-2.1-0.1-4.1,,,,,,,62a737b12cc61f784c4aab36,3:47:22 AM,1/15/2024
104287.39999997616,"<p style=""font-size:3rem"">Trial 3 of 12</p><br><br><br>",0,fwdspan,start_trial,YXFN2dl3nVbZWe0YwExW1oUFgSJ3,html-button-response,36,1152078,0.0-7.0-2.2-0.2-0.2,,,,,,,62a737b12cc61f784c4aab36,3:47:22 AM,1/15/2024
,"<p style=""font-size:14rem;font-weight:400;"">8</p>",,fwdspan,number,YXFN2dl3nVbZWe0YwExW1oUFgSJ3,html-keyboard-response,37,1153081,0.0-7.0-2.2-0.2-1.7-0.7,,,,,,,62a737b12cc61f784c4aab36,3:47:22 AM,1/15/2024
,"<p style=""font-size:14rem;font-weight:400;"">5</p>",,fwdspan,number,YXFN2dl3nVbZWe0YwExW1oUFgSJ3,html-keyboard-response,38,1154085,0.0-7.0-2.2-0.2-1.8-0.8,,,,,,,62a737b12cc61f784c4aab36,3:47:22 AM,1/15/2024
,"<p style=""font-size:14rem;font-weight:400;"">6</p>",,fwdspan,number,YXFN2dl3nVbZWe0YwExW1oUFgSJ3,html-keyboard-response,39,1155088,0.0-7.0-2.2-0.2-1.9-0.9,,,,,,,62a737b12cc61f784c4aab36,3:47:22 AM,1/15/2024
,"<p style=""font-size:14rem;font-weight:400;"">2</p>",,fwdspan,number,YXFN2dl3nVbZWe0YwExW1oUFgSJ3,html-keyboard-response,40,1156090,0.0-7.0-2.2-0.2-1.10-0.10,,,,,,,62a737b12cc61f784c4aab36,3:47:22 AM,1/15/2024
,[],,fwdspan,delay,YXFN2dl3nVbZWe0YwExW1oUFgSJ3,html-keyboard-response,41,1156643,0.0-7.0-2.2-0.2-2.2,,,,,,,62a737b12cc61f784c4aab36,3:47:22 AM,1/15/2024
6614.699999988079,"<div class = numbox><p style=""font-size:2.5rem"">What were the numbers <b>in order</b>?<br>(When you are ready to lock in your answer, press <b>ENTER</b>)</p><button id = button_1 class = ""square num-button"" onclick = ""recordClick(this)""><div class = content><div class = numbers>1</div></div></button><button id = button_2 class = ""square num-button"" onclick = ""recordClick(this)""><div class = content><div class = numbers>2</div></div></button><button id = button_3 class = ""square num-button"" onclick = ""recordClick(this)""><div class = content><div class = numbers>3</div></div></button><button id = button_4 class = ""square num-button"" onclick = ""recordClick(this)""><div class = content><div class = numbers>4</div></div></button><button id = button_5 class = ""square num-button"" onclick = ""recordClick(this)""><div class = content><div class = numbers>5</div></div></button><button id = button_6 class = ""square num-button"" onclick = ""recordClick(this)""><div class = content><div class = numbers>6</div></div></button><button id = button_7 class = ""square num-button"" onclick = ""recordClick(this)""><div class = content><div class = numbers>7</div></div></button><button id = button_8 class = ""square num-button"" onclick = ""recordClick(this)""><div class = content><div class = numbers>8</div></div></button><button id = button_9 class = ""square num-button"" onclick = ""recordClick(this)""><div class = content><div class = numbers>9</div></div></button><button class = clear_button id = ""ClearButton"" onclick = ""clearResponse()"">Clear</button><p><u><b>Current Answer:</b></u></p><div id=echoed_txt style=""font-size: 6rem; color:blue;""><b></b></div></div><br><br><br><br><br><br><br>",enter,fwdspan,response,YXFN2dl3nVbZWe0YwExW1oUFgSJ3,html-keyboard-response,42,1163259,0.0-7.0-2.2-0.2-3.2,4.0,"[8,5,6,2]","[8,5,6,2]",1.0,"[3, 4, 4, 5, 6, 6, 7, 8, 8, 9, 10, 11]",,62a737b12cc61f784c4aab36,3:47:22 AM,1/15/2024
,,,fwdspan,update_span,YXFN2dl3nVbZWe0YwExW1oUFgSJ3,call-function,43,1163512,0.0-7.0-2.2-0.2-4.2,,,,,,,62a737b12cc61f784c4aab36,3:47:22 AM,1/15/2024
1857.0,"<p style=""font-size:3rem"">Trial 4 of 12</p><br><br><br>",0,fwdspan,start_trial,YXFN2dl3nVbZWe0YwExW1oUFgSJ3,html-button-response,44,1165371,0.0-7.0-2.3-0.3-0.3,,,,,,,62a737b12cc61f784c4aab36,3:47:22 AM,1/15/2024
,"<p style=""font-size:14rem;font-weight:400;"">6</p>",,fwdspan,number,YXFN2dl3nVbZWe0YwExW1oUFgSJ3,html-keyboard-response,45,1166374,0.0-7.0-2.3-0.3-1.11-0.11,,,,,,,62a737b12cc61f784c4aab36,3:47:22 AM,1/15/2024
,"<p style=""font-size:14rem;font-weight:400;"">2</p>",,fwdspan,number,YXFN2dl3nVbZWe0YwExW1oUFgSJ3,html-keyboard-response,46,1167378,0.0-7.0-2.3-0.3-1.12-0.12,,,,,,,62a737b12cc61f784c4aab36,3:47:22 AM,1/15/2024
,"<p style=""font-size:14rem;font-weight:400;"">9</p>",,fwdspan,number,YXFN2dl3nVbZWe0YwExW1oUFgSJ3,html-keyboard-response,47,1168381,0.0-7.0-2.3-0.3-1.13-0.13,,,,,,,62a737b12cc61f784c4aab36,3:47:22 AM,1/15/2024
,"<p style=""font-size:14rem;font-weight:400;"">3</p>",,fwdspan,number,YXFN2dl3nVbZWe0YwExW1oUFgSJ3,html-keyboard-response,48,1169386,0.0-7.0-2.3-0.3-1.14-0.14,,,,,,,62a737b12cc61f784c4aab36,3:47:22 AM,1/15/2024
,"<p style=""font-size:14rem;font-weight:400;"">5</p>",,fwdspan,number,YXFN2dl3nVbZWe0YwExW1oUFgSJ3,html-keyboard-response,49,1170389,0.0-7.0-2.3-0.3-1.15-0.15,,,,,,,62a737b12cc61f784c4aab36,3:47:22 AM,1/15/2024
,[],,fwdspan,delay,YXFN2dl3nVbZWe0YwExW1oUFgSJ3,html-keyboard-response,50,1170942,0.0-7.0-2.3-0.3-2.3,,,,,,,62a737b12cc61f784c4aab36,3:47:22 AM,1/15/2024
17890.399999976158,"<div class = numbox><p style=""font-size:2.5rem"">What were the numbers <b>in order</b>?<br>(When you are ready to lock in your answer, press <b>ENTER</b>)</p><button id = button_1 class = ""square num-button"" onclick = ""recordClick(this)""><div class = content><div class = numbers>1</div></div></button><button id = button_2 class = ""square num-button"" onclick = ""recordClick(this)""><div class = content><div class = numbers>2</div></div></button><button id = button_3 class = ""square num-button"" onclick = ""recordClick(this)""><div class = content><div class = numbers>3</div></div></button><button id = button_4 class = ""square num-button"" onclick = ""recordClick(this)""><div class = content><div class = numbers>4</div></div></button><button id = button_5 class = ""square num-button"" onclick = ""recordClick(this)""><div class = content><div class = numbers>5</div></div></button><button id = button_6 class = ""square num-button"" onclick = ""recordClick(this)""><div class = content><div class = numbers>6</div></div></button><button id = button_7 class = ""square num-button"" onclick = ""recordClick(this)""><div class = content><div class = numbers>7</div></div></button><button id = button_8 class = ""square num-button"" onclick = ""recordClick(this)""><div class = content><div class = numbers>8</div></div></button><button id = button_9 class = ""square num-button"" onclick = ""recordClick(this)""><div class = content><div class = numbers>9</div></div></button><button class = clear_button id = ""ClearButton"" onclick = ""clearResponse()"">Clear</button><p><u><b>Current Answer:</b></u></p><div id=echoed_txt style=""font-size: 6rem; color:blue;""><b></b></div></div><br><br><br><br><br><br><br>",enter,fwdspan,response,YXFN2dl3nVbZWe0YwExW1oUFgSJ3,html-keyboard-response,51,1188834,0.0-7.0-2.3-0.3-3.3,5.0,"[6,2,9,3,5]","[6,2,9,3,5]",1.0,"[3, 4, 4, 5, 6, 6, 7, 8, 8, 9, 10, 11]",,62a737b12cc61f784c4aab36,3:47:22 AM,1/15/2024
,,,fwdspan,update_span,YXFN2dl3nVbZWe0YwExW1oUFgSJ3,call-function,52,1189087,0.0-7.0-2.3-0.3-4.3,,,,,,,62a737b12cc61f784c4aab36,3:47:22 AM,1/15/2024
8581.399999976158,"<p style=""font-size:3rem"">Trial 5 of 12</p><br><br><br>",0,fwdspan,start_trial,YXFN2dl3nVbZWe0YwExW1oUFgSJ3,html-button-response,53,1197670,0.0-7.0-2.4-0.4-0.4,,,,,,,62a737b12cc61f784c4aab36,3:47:22 AM,1/15/2024
,"<p style=""font-size:14rem;font-weight:400;"">8</p>",,fwdspan,number,YXFN2dl3nVbZWe0YwExW1oUFgSJ3,html-keyboard-response,54,1198674,0.0-7.0-2.4-0.4-1.16-0.16,,,,,,,62a737b12cc61f784c4aab36,3:47:22 AM,1/15/2024
,"<p style=""font-size:14rem;font-weight:400;"">9</p>",,fwdspan,number,YXFN2dl3nVbZWe0YwExW1oUFgSJ3,html-keyboard-response,55,1199676,0.0-7.0-2.4-0.4-1.17-0.17,,,,,,,62a737b12cc61f784c4aab36,3:47:22 AM,1/15/2024
,"<p style=""font-size:14rem;font-weight:400;"">5</p>",,fwdspan,number,YXFN2dl3nVbZWe0YwExW1oUFgSJ3,html-keyboard-response,56,1200679,0.0-7.0-2.4-0.4-1.18-0.18,,,,,,,62a737b12cc61f784c4aab36,3:47:22 AM,1/15/2024
,"<p style=""font-size:14rem;font-weight:400;"">1</p>",,fwdspan,number,YXFN2dl3nVbZWe0YwExW1oUFgSJ3,html-keyboard-response,57,1201681,0.0-7.0-2.4-0.4-1.19-0.19,,,,,,,62a737b12cc61f784c4aab36,3:47:22 AM,1/15/2024
,"<p style=""font-size:14rem;font-weight:400;"">4</p>",,fwdspan,number,YXFN2dl3nVbZWe0YwExW1oUFgSJ3,html-keyboard-response,58,1202684,0.0-7.0-2.4-0.4-1.20-0.20,,,,,,,62a737b12cc61f784c4aab36,3:47:22 AM,1/15/2024
,"<p style=""font-size:14rem;font-weight:400;"">2</p>",,fwdspan,number,YXFN2dl3nVbZWe0YwExW1oUFgSJ3,html-keyboard-response,59,1203687,0.0-7.0-2.4-0.4-1.21-0.21,,,,,,,62a737b12cc61f784c4aab36,3:47:22 AM,1/15/2024
,[],,fwdspan,delay,YXFN2dl3nVbZWe0YwExW1oUFgSJ3,html-keyboard-response,60,1204240,0.0-7.0-2.4-0.4-2.4,,,,,,,62a737b12cc61f784c4aab36,3:47:22 AM,1/15/2024
13391.800000011921,"<div class = numbox><p style=""font-size:2.5rem"">What were the numbers <b>in order</b>?<br>(When you are ready to lock in your answer, press <b>ENTER</b>)</p><button id = button_1 class = ""square num-button"" onclick = ""recordClick(this)""><div class = content><div class = numbers>1</div></div></button><button id = button_2 class = ""square num-button"" onclick = ""recordClick(this)""><div class = content><div class = numbers>2</div></div></button><button id = button_3 class = ""square num-button"" onclick = ""recordClick(this)""><div class = content><div class = numbers>3</div></div></button><button id = button_4 class = ""square num-button"" onclick = ""recordClick(this)""><div class = content><div class = numbers>4</div></div></button><button id = button_5 class = ""square num-button"" onclick = ""recordClick(this)""><div class = content><div class = numbers>5</div></div></button><button id = button_6 class = ""square num-button"" onclick = ""recordClick(this)""><div class = content><div class = numbers>6</div></div></button><button id = button_7 class = ""square num-button"" onclick = ""recordClick(this)""><div class = content><div class = numbers>7</div></div></button><button id = button_8 class = ""square num-button"" onclick = ""recordClick(this)""><div class = content><div class = numbers>8</div></div></button><button id = button_9 class = ""square num-button"" onclick = ""recordClick(this)""><div class = content><div class = numbers>9</div></div></button><button class = clear_button id = ""ClearButton"" onclick = ""clearResponse()"">Clear</button><p><u><b>Current Answer:</b></u></p><div id=echoed_txt style=""font-size: 6rem; color:blue;""><b></b></div></div><br><br><br><br><br><br><br>",enter,fwdspan,response,YXFN2dl3nVbZWe0YwExW1oUFgSJ3,html-keyboard-response,61,1217633,0.0-7.0-2.4-0.4-3.4,6.0,"[8,9,5,7,4,1]","[8,9,5,1,4,2]",0.0,"[3, 4, 4, 5, 6, 6, 7, 8, 8, 9, 10, 11]",,62a737b12cc61f784c4aab36,3:47:22 AM,1/15/2024
,,,fwdspan,update_span,YXFN2dl3nVbZWe0YwExW1oUFgSJ3,call-function,62,1217887,0.0-7.0-2.4-0.4-4.4,,,,,,,62a737b12cc61f784c4aab36,3:47:22 AM,1/15/2024
6150.800000011921,"<p style=""font-size:3rem"">Trial 6 of 12</p><br><br><br>",0,fwdspan,start_trial,YXFN2dl3nVbZWe0YwExW1oUFgSJ3,html-button-response,63,1224039,0.0-7.0-2.5-0.5-0.5,,,,,,,62a737b12cc61f784c4aab36,3:47:22 AM,1/15/2024
,"<p style=""font-size:14rem;font-weight:400;"">3</p>",,fwdspan,number,YXFN2dl3nVbZWe0YwExW1oUFgSJ3,html-keyboard-response,64,1225042,0.0-7.0-2.5-0.5-1.22-0.22,,,,,,,62a737b12cc61f784c4aab36,3:47:22 AM,1/15/2024
,"<p style=""font-size:14rem;font-weight:400;"">2</p>",,fwdspan,number,YXFN2dl3nVbZWe0YwExW1oUFgSJ3,html-keyboard-response,65,1226044,0.0-7.0-2.5-0.5-1.23-0.23,,,,,,,62a737b12cc61f784c4aab36,3:47:22 AM,1/15/2024
,"<p style=""font-size:14rem;font-weight:400;"">7</p>",,fwdspan,number,YXFN2dl3nVbZWe0YwExW1oUFgSJ3,html-keyboard-response,66,1227047,0.0-7.0-2.5-0.5-1.24-0.24,,,,,,,62a737b12cc61f784c4aab36,3:47:22 AM,1/15/2024
,"<p style=""font-size:14rem;font-weight:400;"">8</p>",,fwdspan,number,YXFN2dl3nVbZWe0YwExW1oUFgSJ3,html-keyboard-response,67,1228050,0.0-7.0-2.5-0.5-1.25-0.25,,,,,,,62a737b12cc61f784c4aab36,3:47:22 AM,1/15/2024
,"<p style=""font-size:14rem;font-weight:400;"">5</p>",,fwdspan,number,YXFN2dl3nVbZWe0YwExW1oUFgSJ3,html-keyboard-response,68,1229052,0.0-7.0-2.5-0.5-1.26-0.26,,,,,,,62a737b12cc61f784c4aab36,3:47:22 AM,1/15/2024
,"<p style=""font-size:14rem;font-weight:400;"">4</p>",,fwdspan,number,YXFN2dl3nVbZWe0YwExW1oUFgSJ3,html-keyboard-response,69,1230056,0.0-7.0-2.5-0.5-1.27-0.27,,,,,,,62a737b12cc61f784c4aab36,3:47:22 AM,1/15/2024
,[],,fwdspan,delay,YXFN2dl3nVbZWe0YwExW1oUFgSJ3,html-keyboard-response,70,1230608,0.0-7.0-2.5-0.5-2.5,,,,,,,62a737b12cc61f784c4aab36,3:47:22 AM,1/15/2024
11413.799999952316,"<div class = numbox><p style=""font-size:2.5rem"">What were the numbers <b>in order</b>?<br>(When you are ready to lock in your answer, press <b>ENTER</b>)</p><button id = button_1 class = ""square num-button"" onclick = ""recordClick(this)""><div class = content><div class = numbers>1</div></div></button><button id = button_2 class = ""square num-button"" onclick = ""recordClick(this)""><div class = content><div class = numbers>2</div></div></button><button id = button_3 class = ""square num-button"" onclick = ""recordClick(this)""><div class = content><div class = numbers>3</div></div></button><button id = button_4 class = ""square num-button"" onclick = ""recordClick(this)""><div class = content><div class = numbers>4</div></div></button><button id = button_5 class = ""square num-button"" onclick = ""recordClick(this)""><div class = content><div class = numbers>5</div></div></button><button id = button_6 class = ""square num-button"" onclick = ""recordClick(this)""><div class = content><div class = numbers>6</div></div></button><button id = button_7 class = ""square num-button"" onclick = ""recordClick(this)""><div class = content><div class = numbers>7</div></div></button><button id = button_8 class = ""square num-button"" onclick = ""recordClick(this)""><div class = content><div class = numbers>8</div></div></button><button id = button_9 class = ""square num-button"" onclick = ""recordClick(this)""><div class = content><div class = numbers>9</div></div></button><button class = clear_button id = ""ClearButton"" onclick = ""clearResponse()"">Clear</button><p><u><b>Current Answer:</b></u></p><div id=echoed_txt style=""font-size: 6rem; color:blue;""><b></b></div></div><br><br><br><br><br><br><br>",enter,fwdspan,response,YXFN2dl3nVbZWe0YwExW1oUFgSJ3,html-keyboard-response,71,1242023,0.0-7.0-2.5-0.5-3.5,6.0,"[3,2,7,8,5,4]","[3,2,7,8,5,4]",1.0,"[3, 4, 4, 5, 6, 6, 7, 8, 8, 9, 10, 11]",,62a737b12cc61f784c4aab36,3:47:22 AM,1/15/2024
,,,fwdspan,update_span,YXFN2dl3nVbZWe0YwExW1oUFgSJ3,call-function,72,1242276,0.0-7.0-2.5-0.5-4.5,,,,,,,62a737b12cc61f784c4aab36,3:47:22 AM,1/15/2024
4581.800000011921,"<p style=""font-size:3rem"">Trial 7 of 12</p><br><br><br>",0,fwdspan,start_trial,YXFN2dl3nVbZWe0YwExW1oUFgSJ3,html-button-response,73,1246859,0.0-7.0-2.6-0.6-0.6,,,,,,,62a737b12cc61f784c4aab36,3:47:22 AM,1/15/2024
,"<p style=""font-size:14rem;font-weight:400;"">7</p>",,fwdspan,number,YXFN2dl3nVbZWe0YwExW1oUFgSJ3,html-keyboard-response,74,1247864,0.0-7.0-2.6-0.6-1.28-0.28,,,,,,,62a737b12cc61f784c4aab36,3:47:22 AM,1/15/2024
,"<p style=""font-size:14rem;font-weight:400;"">4</p>",,fwdspan,number,YXFN2dl3nVbZWe0YwExW1oUFgSJ3,html-keyboard-response,75,1248867,0.0-7.0-2.6-0.6-1.29-0.29,,,,,,,62a737b12cc61f784c4aab36,3:47:22 AM,1/15/2024
,"<p style=""font-size:14rem;font-weight:400;"">5</p>",,fwdspan,number,YXFN2dl3nVbZWe0YwExW1oUFgSJ3,html-keyboard-response,76,1249870,0.0-7.0-2.6-0.6-1.30-0.30,,,,,,,62a737b12cc61f784c4aab36,3:47:22 AM,1/15/2024
,"<p style=""font-size:14rem;font-weight:400;"">8</p>",,fwdspan,number,YXFN2dl3nVbZWe0YwExW1oUFgSJ3,html-keyboard-response,77,1250873,0.0-7.0-2.6-0.6-1.31-0.31,,,,,,,62a737b12cc61f784c4aab36,3:47:22 AM,1/15/2024
,"<p style=""font-size:14rem;font-weight:400;"">6</p>",,fwdspan,number,YXFN2dl3nVbZWe0YwExW1oUFgSJ3,html-keyboard-response,78,1251875,0.0-7.0-2.6-0.6-1.32-0.32,,,,,,,62a737b12cc61f784c4aab36,3:47:22 AM,1/15/2024
,"<p style=""font-size:14rem;font-weight:400;"">2</p>",,fwdspan,number,YXFN2dl3nVbZWe0YwExW1oUFgSJ3,html-keyboard-response,79,1252878,0.0-7.0-2.6-0.6-1.33-0.33,,,,,,,62a737b12cc61f784c4aab36,3:47:22 AM,1/15/2024
,"<p style=""font-size:14rem;font-weight:400;"">9</p>",,fwdspan,number,YXFN2dl3nVbZWe0YwExW1oUFgSJ3,html-keyboard-response,80,1253881,0.0-7.0-2.6-0.6-1.34-0.34,,,,,,,62a737b12cc61f784c4aab36,3:47:22 AM,1/15/2024
,[],,fwdspan,delay,YXFN2dl3nVbZWe0YwExW1oUFgSJ3,html-keyboard-response,81,1254434,0.0-7.0-2.6-0.6-2.6,,,,,,,62a737b12cc61f784c4aab36,3:47:22 AM,1/15/2024
12680.5,"<div class = numbox><p style=""font-size:2.5rem"">What were the numbers <b>in order</b>?<br>(When you are ready to lock in your answer, press <b>ENTER</b>)</p><button id = button_1 class = ""square num-button"" onclick = ""recordClick(this)""><div class = content><div class = numbers>1</div></div></button><button id = button_2 class = ""square num-button"" onclick = ""recordClick(this)""><div class = content><div class = numbers>2</div></div></button><button id = button_3 class = ""square num-button"" onclick = ""recordClick(this)""><div class = content><div class = numbers>3</div></div></button><button id = button_4 class = ""square num-button"" onclick = ""recordClick(this)""><div class = content><div class = numbers>4</div></div></button><button id = button_5 class = ""square num-button"" onclick = ""recordClick(this)""><div class = content><div class = numbers>5</div></div></button><button id = button_6 class = ""square num-button"" onclick = ""recordClick(this)""><div class = content><div class = numbers>6</div></div></button><button id = button_7 class = ""square num-button"" onclick = ""recordClick(this)""><div class = content><div class = numbers>7</div></div></button><button id = button_8 class = ""square num-button"" onclick = ""recordClick(this)""><div class = content><div class = numbers>8</div></div></button><button id = button_9 class = ""square num-button"" onclick = ""recordClick(this)""><div class = content><div class = numbers>9</div></div></button><button class = clear_button id = ""ClearButton"" onclick = ""clearResponse()"">Clear</button><p><u><b>Current Answer:</b></u></p><div id=echoed_txt style=""font-size: 6rem; color:blue;""><b></b></div></div><br><br><br><br><br><br><br>",enter,fwdspan,response,YXFN2dl3nVbZWe0YwExW1oUFgSJ3,html-keyboard-response,82,1267117,0.0-7.0-2.6-0.6-3.6,7.0,"[7,4,5,8,6,2,9]","[7,4,5,8,6,2,9]",1.0,"[3, 4, 4, 5, 6, 6, 7, 8, 8, 9, 10, 11]",,62a737b12cc61f784c4aab36,3:47:22 AM,1/15/2024
,,,fwdspan,update_span,YXFN2dl3nVbZWe0YwExW1oUFgSJ3,call-function,83,1267370,0.0-7.0-2.6-0.6-4.6,,,,,,,62a737b12cc61f784c4aab36,3:47:22 AM,1/15/2024
4446.699999988079,"<p style=""font-size:3rem"">Trial 8 of 12</p><br><br><br>",0,fwdspan,start_trial,YXFN2dl3nVbZWe0YwExW1oUFgSJ3,html-button-response,84,1271817,0.0-7.0-2.7-0.7-0.7,,,,,,,62a737b12cc61f784c4aab36,3:47:22 AM,1/15/2024
,"<p style=""font-size:14rem;font-weight:400;"">2</p>",,fwdspan,number,YXFN2dl3nVbZWe0YwExW1oUFgSJ3,html-keyboard-response,85,1272821,0.0-7.0-2.7-0.7-1.35-0.35,,,,,,,62a737b12cc61f784c4aab36,3:47:22 AM,1/15/2024
,"<p style=""font-size:14rem;font-weight:400;"">9</p>",,fwdspan,number,YXFN2dl3nVbZWe0YwExW1oUFgSJ3,html-keyboard-response,86,1273823,0.0-7.0-2.7-0.7-1.36-0.36,,,,,,,62a737b12cc61f784c4aab36,3:47:22 AM,1/15/2024
,"<p style=""font-size:14rem;font-weight:400;"">1</p>",,fwdspan,number,YXFN2dl3nVbZWe0YwExW1oUFgSJ3,html-keyboard-response,87,1274826,0.0-7.0-2.7-0.7-1.37-0.37,,,,,,,62a737b12cc61f784c4aab36,3:47:22 AM,1/15/2024
,"<p style=""font-size:14rem;font-weight:400;"">8</p>",,fwdspan,number,YXFN2dl3nVbZWe0YwExW1oUFgSJ3,html-keyboard-response,88,1275828,0.0-7.0-2.7-0.7-1.38-0.38,,,,,,,62a737b12cc61f784c4aab36,3:47:22 AM,1/15/2024
,"<p style=""font-size:14rem;font-weight:400;"">4</p>",,fwdspan,number,YXFN2dl3nVbZWe0YwExW1oUFgSJ3,html-keyboard-response,89,1276832,0.0-7.0-2.7-0.7-1.39-0.39,,,,,,,62a737b12cc61f784c4aab36,3:47:22 AM,1/15/2024
,"<p style=""font-size:14rem;font-weight:400;"">7</p>",,fwdspan,number,YXFN2dl3nVbZWe0YwExW1oUFgSJ3,html-keyboard-response,90,1277835,0.0-7.0-2.7-0.7-1.40-0.40,,,,,,,62a737b12cc61f784c4aab36,3:47:22 AM,1/15/2024
,"<p style=""font-size:14rem;font-weight:400;"">3</p>",,fwdspan,number,YXFN2dl3nVbZWe0YwExW1oUFgSJ3,html-keyboard-response,91,1278838,0.0-7.0-2.7-0.7-1.41-0.41,,,,,,,62a737b12cc61f784c4aab36,3:47:22 AM,1/15/2024
,"<p style=""font-size:14rem;font-weight:400;"">5</p>",,fwdspan,number,YXFN2dl3nVbZWe0YwExW1oUFgSJ3,html-keyboard-response,92,1279841,0.0-7.0-2.7-0.7-1.42-0.42,,,,,,,62a737b12cc61f784c4aab36,3:47:22 AM,1/15/2024
,[],,fwdspan,delay,YXFN2dl3nVbZWe0YwExW1oUFgSJ3,html-keyboard-response,93,1280395,0.0-7.0-2.7-0.7-2.7,,,,,,,62a737b12cc61f784c4aab36,3:47:22 AM,1/15/2024
17141.5,"<div class = numbox><p style=""font-size:2.5rem"">What were the numbers <b>in order</b>?<br>(When you are ready to lock in your answer, press <b>ENTER</b>)</p><button id = button_1 class = ""square num-button"" onclick = ""recordClick(this)""><div class = content><div class = numbers>1</div></div></button><button id = button_2 class = ""square num-button"" onclick = ""recordClick(this)""><div class = content><div class = numbers>2</div></div></button><button id = button_3 class = ""square num-button"" onclick = ""recordClick(this)""><div class = content><div class = numbers>3</div></div></button><button id = button_4 class = ""square num-button"" onclick = ""recordClick(this)""><div class = content><div class = numbers>4</div></div></button><button id = button_5 class = ""square num-button"" onclick = ""recordClick(this)""><div class = content><div class = numbers>5</div></div></button><button id = button_6 class = ""square num-button"" onclick = ""recordClick(this)""><div class = content><div class = numbers>6</div></div></button><button id = button_7 class = ""square num-button"" onclick = ""recordClick(this)""><div class = content><div class = numbers>7</div></div></button><button id = button_8 class = ""square num-button"" onclick = ""recordClick(this)""><div class = content><div class = numbers>8</div></div></button><button id = button_9 class = ""square num-button"" onclick = ""recordClick(this)""><div class = content><div class = numbers>9</div></div></button><button class = clear_button id = ""ClearButton"" onclick = ""clearResponse()"">Clear</button><p><u><b>Current Answer:</b></u></p><div id=echoed_txt style=""font-size: 6rem; color:blue;""><b></b></div></div><br><br><br><br><br><br><br>",enter,fwdspan,response,YXFN2dl3nVbZWe0YwExW1oUFgSJ3,html-keyboard-response,94,1297538,0.0-7.0-2.7-0.7-3.7,8.0,"[9,1,8,4,7,3,5]","[2,9,1,8,4,7,3,5]",0.0,"[3, 4, 4, 5, 6, 6, 7, 8, 8, 9, 10, 11]",,62a737b12cc61f784c4aab36,3:47:22 AM,1/15/2024
,,,fwdspan,update_span,YXFN2dl3nVbZWe0YwExW1oUFgSJ3,call-function,95,1297791,0.0-7.0-2.7-0.7-4.7,,,,,,,62a737b12cc61f784c4aab36,3:47:22 AM,1/15/2024
4342.900000035763,"<p style=""font-size:3rem"">Trial 9 of 12</p><br><br><br>",0,fwdspan,start_trial,YXFN2dl3nVbZWe0YwExW1oUFgSJ3,html-button-response,96,1302135,0.0-7.0-2.8-0.8-0.8,,,,,,,62a737b12cc61f784c4aab36,3:47:22 AM,1/15/2024
,"<p style=""font-size:14rem;font-weight:400;"">2</p>",,fwdspan,number,YXFN2dl3nVbZWe0YwExW1oUFgSJ3,html-keyboard-response,97,1303137,0.0-7.0-2.8-0.8-1.43-0.43,,,,,,,62a737b12cc61f784c4aab36,3:47:22 AM,1/15/2024
,"<p style=""font-size:14rem;font-weight:400;"">8</p>",,fwdspan,number,YXFN2dl3nVbZWe0YwExW1oUFgSJ3,html-keyboard-response,98,1304140,0.0-7.0-2.8-0.8-1.44-0.44,,,,,,,62a737b12cc61f784c4aab36,3:47:22 AM,1/15/2024
,"<p style=""font-size:14rem;font-weight:400;"">6</p>",,fwdspan,number,YXFN2dl3nVbZWe0YwExW1oUFgSJ3,html-keyboard-response,99,1305143,0.0-7.0-2.8-0.8-1.45-0.45,,,,,,,62a737b12cc61f784c4aab36,3:47:22 AM,1/15/2024
,"<p style=""font-size:14rem;font-weight:400;"">3</p>",,fwdspan,number,YXFN2dl3nVbZWe0YwExW1oUFgSJ3,html-keyboard-response,100,1306146,0.0-7.0-2.8-0.8-1.46-0.46,,,,,,,62a737b12cc61f784c4aab36,3:47:22 AM,1/15/2024
,"<p style=""font-size:14rem;font-weight:400;"">5</p>",,fwdspan,number,YXFN2dl3nVbZWe0YwExW1oUFgSJ3,html-keyboard-response,101,1307149,0.0-7.0-2.8-0.8-1.47-0.47,,,,,,,62a737b12cc61f784c4aab36,3:47:22 AM,1/15/2024
,"<p style=""font-size:14rem;font-weight:400;"">9</p>",,fwdspan,number,YXFN2dl3nVbZWe0YwExW1oUFgSJ3,html-keyboard-response,102,1308152,0.0-7.0-2.8-0.8-1.48-0.48,,,,,,,62a737b12cc61f784c4aab36,3:47:22 AM,1/15/2024
,"<p style=""font-size:14rem;font-weight:400;"">4</p>",,fwdspan,number,YXFN2dl3nVbZWe0YwExW1oUFgSJ3,html-keyboard-response,103,1309156,0.0-7.0-2.8-0.8-1.49-0.49,,,,,,,62a737b12cc61f784c4aab36,3:47:22 AM,1/15/2024
,"<p style=""font-size:14rem;font-weight:400;"">1</p>",,fwdspan,number,YXFN2dl3nVbZWe0YwExW1oUFgSJ3,html-keyboard-response,104,1310158,0.0-7.0-2.8-0.8-1.50-0.50,,,,,,,62a737b12cc61f784c4aab36,3:47:22 AM,1/15/2024
,[],,fwdspan,delay,YXFN2dl3nVbZWe0YwExW1oUFgSJ3,html-keyboard-response,105,1310711,0.0-7.0-2.8-0.8-2.8,,,,,,,62a737b12cc61f784c4aab36,3:47:22 AM,1/15/2024
51724.0,"<div class = numbox><p style=""font-size:2.5rem"">What were the numbers <b>in order</b>?<br>(When you are ready to lock in your answer, press <b>ENTER</b>)</p><button id = button_1 class = ""square num-button"" onclick = ""recordClick(this)""><div class = content><div class = numbers>1</div></div></button><button id = button_2 class = ""square num-button"" onclick = ""recordClick(this)""><div class = content><div class = numbers>2</div></div></button><button id = button_3 class = ""square num-button"" onclick = ""recordClick(this)""><div class = content><div class = numbers>3</div></div></button><button id = button_4 class = ""square num-button"" onclick = ""recordClick(this)""><div class = content><div class = numbers>4</div></div></button><button id = button_5 class = ""square num-button"" onclick = ""recordClick(this)""><div class = content><div class = numbers>5</div></div></button><button id = button_6 class = ""square num-button"" onclick = ""recordClick(this)""><div class = content><div class = numbers>6</div></div></button><button id = button_7 class = ""square num-button"" onclick = ""recordClick(this)""><div class = content><div class = numbers>7</div></div></button><button id = button_8 class = ""square num-button"" onclick = ""recordClick(this)""><div class = content><div class = numbers>8</div></div></button><button id = button_9 class = ""square num-button"" onclick = ""recordClick(this)""><div class = content><div class = numbers>9</div></div></button><button class = clear_button id = ""ClearButton"" onclick = ""clearResponse()"">Clear</button><p><u><b>Current Answer:</b></u></p><div id=echoed_txt style=""font-size: 6rem; color:blue;""><b></b></div></div><br><br><br><br><br><br><br>",enter,fwdspan,response,YXFN2dl3nVbZWe0YwExW1oUFgSJ3,html-keyboard-response,106,1362436,0.0-7.0-2.8-0.8-3.8,8.0,"[2,8,6,3,5,9,4,1]","[2,8,6,3,5,9,4,1]",1.0,"[3, 4, 4, 5, 6, 6, 7, 8, 8, 9, 10, 11]",,62a737b12cc61f784c4aab36,3:47:22 AM,1/15/2024
,,,fwdspan,update_span,YXFN2dl3nVbZWe0YwExW1oUFgSJ3,call-function,107,1362690,0.0-7.0-2.8-0.8-4.8,,,,,,,62a737b12cc61f784c4aab36,3:47:22 AM,1/15/2024
4269.900000035763,"<p style=""font-size:3rem"">Trial 10 of 12</p><br><br><br>",0,fwdspan,start_trial,YXFN2dl3nVbZWe0YwExW1oUFgSJ3,html-button-response,108,1366962,0.0-7.0-2.9-0.9-0.9,,,,,,,62a737b12cc61f784c4aab36,3:47:22 AM,1/15/2024
,"<p style=""font-size:14rem;font-weight:400;"">9</p>",,fwdspan,number,YXFN2dl3nVbZWe0YwExW1oUFgSJ3,html-keyboard-response,109,1367965,0.0-7.0-2.9-0.9-1.51-0.51,,,,,,,62a737b12cc61f784c4aab36,3:47:22 AM,1/15/2024
,"<p style=""font-size:14rem;font-weight:400;"">1</p>",,fwdspan,number,YXFN2dl3nVbZWe0YwExW1oUFgSJ3,html-keyboard-response,110,1368967,0.0-7.0-2.9-0.9-1.52-0.52,,,,,,,62a737b12cc61f784c4aab36,3:47:22 AM,1/15/2024
,"<p style=""font-size:14rem;font-weight:400;"">5</p>",,fwdspan,number,YXFN2dl3nVbZWe0YwExW1oUFgSJ3,html-keyboard-response,111,1369972,0.0-7.0-2.9-0.9-1.53-0.53,,,,,,,62a737b12cc61f784c4aab36,3:47:22 AM,1/15/2024
,"<p style=""font-size:14rem;font-weight:400;"">8</p>",,fwdspan,number,YXFN2dl3nVbZWe0YwExW1oUFgSJ3,html-keyboard-response,112,1370975,0.0-7.0-2.9-0.9-1.54-0.54,,,,,,,62a737b12cc61f784c4aab36,3:47:22 AM,1/15/2024
,"<p style=""font-size:14rem;font-weight:400;"">4</p>",,fwdspan,number,YXFN2dl3nVbZWe0YwExW1oUFgSJ3,html-keyboard-response,113,1371978,0.0-7.0-2.9-0.9-1.55-0.55,,,,,,,62a737b12cc61f784c4aab36,3:47:22 AM,1/15/2024
,"<p style=""font-size:14rem;font-weight:400;"">7</p>",,fwdspan,number,YXFN2dl3nVbZWe0YwExW1oUFgSJ3,html-keyboard-response,114,1372981,0.0-7.0-2.9-0.9-1.56-0.56,,,,,,,62a737b12cc61f784c4aab36,3:47:22 AM,1/15/2024
,"<p style=""font-size:14rem;font-weight:400;"">6</p>",,fwdspan,number,YXFN2dl3nVbZWe0YwExW1oUFgSJ3,html-keyboard-response,115,1373984,0.0-7.0-2.9-0.9-1.57-0.57,,,,,,,62a737b12cc61f784c4aab36,3:47:22 AM,1/15/2024
,"<p style=""font-size:14rem;font-weight:400;"">3</p>",,fwdspan,number,YXFN2dl3nVbZWe0YwExW1oUFgSJ3,html-keyboard-response,116,1374987,0.0-7.0-2.9-0.9-1.58-0.58,,,,,,,62a737b12cc61f784c4aab36,3:47:22 AM,1/15/2024
,"<p style=""font-size:14rem;font-weight:400;"">2</p>",,fwdspan,number,YXFN2dl3nVbZWe0YwExW1oUFgSJ3,html-keyboard-response,117,1375990,0.0-7.0-2.9-0.9-1.59-0.59,,,,,,,62a737b12cc61f784c4aab36,3:47:22 AM,1/15/2024
,[],,fwdspan,delay,YXFN2dl3nVbZWe0YwExW1oUFgSJ3,html-keyboard-response,118,1376543,0.0-7.0-2.9-0.9-2.9,,,,,,,62a737b12cc61f784c4aab36,3:47:22 AM,1/15/2024
29870.200000047684,"<div class = numbox><p style=""font-size:2.5rem"">What were the numbers <b>in order</b>?<br>(When you are ready to lock in your answer, press <b>ENTER</b>)</p><button id = button_1 class = ""square num-button"" onclick = ""recordClick(this)""><div class = content><div class = numbers>1</div></div></button><button id = button_2 class = ""square num-button"" onclick = ""recordClick(this)""><div class = content><div class = numbers>2</div></div></button><button id = button_3 class = ""square num-button"" onclick = ""recordClick(this)""><div class = content><div class = numbers>3</div></div></button><button id = button_4 class = ""square num-button"" onclick = ""recordClick(this)""><div class = content><div class = numbers>4</div></div></button><button id = button_5 class = ""square num-button"" onclick = ""recordClick(this)""><div class = content><div class = numbers>5</div></div></button><button id = button_6 class = ""square num-button"" onclick = ""recordClick(this)""><div class = content><div class = numbers>6</div></div></button><button id = button_7 class = ""square num-button"" onclick = ""recordClick(this)""><div class = content><div class = numbers>7</div></div></button><button id = button_8 class = ""square num-button"" onclick = ""recordClick(this)""><div class = content><div class = numbers>8</div></div></button><button id = button_9 class = ""square num-button"" onclick = ""recordClick(this)""><div class = content><div class = numbers>9</div></div></button><button class = clear_button id = ""ClearButton"" onclick = ""clearResponse()"">Clear</button><p><u><b>Current Answer:</b></u></p><div id=echoed_txt style=""font-size: 6rem; color:blue;""><b></b></div></div><br><br><br><br><br><br><br>",enter,fwdspan,response,YXFN2dl3nVbZWe0YwExW1oUFgSJ3,html-keyboard-response,119,1406414,0.0-7.0-2.9-0.9-3.9,9.0,"[9,1,5,8,4,7,6,3,2]","[9,1,5,8,4,7,6,3,2]",1.0,"[3, 4, 4, 5, 6, 6, 7, 8, 8, 9, 10, 11]",,62a737b12cc61f784c4aab36,3:47:22 AM,1/15/2024
,,,fwdspan,update_span,YXFN2dl3nVbZWe0YwExW1oUFgSJ3,call-function,120,1406669,0.0-7.0-2.9-0.9-4.9,,,,,,,62a737b12cc61f784c4aab36,3:47:22 AM,1/15/2024
13433.5,"<p style=""font-size:3rem"">Trial 11 of 12</p><br><br><br>",0,fwdspan,start_trial,YXFN2dl3nVbZWe0YwExW1oUFgSJ3,html-button-response,121,1420104,0.0-7.0-2.10-0.10-0.10,,,,,,,62a737b12cc61f784c4aab36,3:47:22 AM,1/15/2024
,"<p style=""font-size:14rem;font-weight:400;"">1</p>",,fwdspan,number,YXFN2dl3nVbZWe0YwExW1oUFgSJ3,html-keyboard-response,122,1421107,0.0-7.0-2.10-0.10-1.60-0.60,,,,,,,62a737b12cc61f784c4aab36,3:47:22 AM,1/15/2024
,"<p style=""font-size:14rem;font-weight:400;"">2</p>",,fwdspan,number,YXFN2dl3nVbZWe0YwExW1oUFgSJ3,html-keyboard-response,123,1422111,0.0-7.0-2.10-0.10-1.61-0.61,,,,,,,62a737b12cc61f784c4aab36,3:47:22 AM,1/15/2024
,"<p style=""font-size:14rem;font-weight:400;"">6</p>",,fwdspan,number,YXFN2dl3nVbZWe0YwExW1oUFgSJ3,html-keyboard-response,124,1423113,0.0-7.0-2.10-0.10-1.62-0.62,,,,,,,62a737b12cc61f784c4aab36,3:47:22 AM,1/15/2024
,"<p style=""font-size:14rem;font-weight:400;"">4</p>",,fwdspan,number,YXFN2dl3nVbZWe0YwExW1oUFgSJ3,html-keyboard-response,125,1424116,0.0-7.0-2.10-0.10-1.63-0.63,,,,,,,62a737b12cc61f784c4aab36,3:47:22 AM,1/15/2024
,"<p style=""font-size:14rem;font-weight:400;"">7</p>",,fwdspan,number,YXFN2dl3nVbZWe0YwExW1oUFgSJ3,html-keyboard-response,126,1425119,0.0-7.0-2.10-0.10-1.64-0.64,,,,,,,62a737b12cc61f784c4aab36,3:47:22 AM,1/15/2024
,"<p style=""font-size:14rem;font-weight:400;"">9</p>",,fwdspan,number,YXFN2dl3nVbZWe0YwExW1oUFgSJ3,html-keyboard-response,127,1426122,0.0-7.0-2.10-0.10-1.65-0.65,,,,,,,62a737b12cc61f784c4aab36,3:47:22 AM,1/15/2024
,"<p style=""font-size:14rem;font-weight:400;"">8</p>",,fwdspan,number,YXFN2dl3nVbZWe0YwExW1oUFgSJ3,html-keyboard-response,128,1427124,0.0-7.0-2.10-0.10-1.66-0.66,,,,,,,62a737b12cc61f784c4aab36,3:47:22 AM,1/15/2024
,"<p style=""font-size:14rem;font-weight:400;"">5</p>",,fwdspan,number,YXFN2dl3nVbZWe0YwExW1oUFgSJ3,html-keyboard-response,129,1428127,0.0-7.0-2.10-0.10-1.67-0.67,,,,,,,62a737b12cc61f784c4aab36,3:47:22 AM,1/15/2024
,"<p style=""font-size:14rem;font-weight:400;"">3</p>",,fwdspan,number,YXFN2dl3nVbZWe0YwExW1oUFgSJ3,html-keyboard-response,130,1429129,0.0-7.0-2.10-0.10-1.68-0.68,,,,,,,62a737b12cc61f784c4aab36,3:47:22 AM,1/15/2024
,"<p style=""font-size:14rem;font-weight:400;"">2</p>",,fwdspan,number,YXFN2dl3nVbZWe0YwExW1oUFgSJ3,html-keyboard-response,131,1430132,0.0-7.0-2.10-0.10-1.69-0.69,,,,,,,62a737b12cc61f784c4aab36,3:47:22 AM,1/15/2024
,[],,fwdspan,delay,YXFN2dl3nVbZWe0YwExW1oUFgSJ3,html-keyboard-response,132,1430684,0.0-7.0-2.10-0.10-2.10,,,,,,,62a737b12cc61f784c4aab36,3:47:22 AM,1/15/2024
24344.80000001192,"<div class = numbox><p style=""font-size:2.5rem"">What were the numbers <b>in order</b>?<br>(When you are ready to lock in your answer, press <b>ENTER</b>)</p><button id = button_1 class = ""square num-button"" onclick = ""recordClick(this)""><div class = content><div class = numbers>1</div></div></button><button id = button_2 class = ""square num-button"" onclick = ""recordClick(this)""><div class = content><div class = numbers>2</div></div></button><button id = button_3 class = ""square num-button"" onclick = ""recordClick(this)""><div class = content><div class = numbers>3</div></div></button><button id = button_4 class = ""square num-button"" onclick = ""recordClick(this)""><div class = content><div class = numbers>4</div></div></button><button id = button_5 class = ""square num-button"" onclick = ""recordClick(this)""><div class = content><div class = numbers>5</div></div></button><button id = button_6 class = ""square num-button"" onclick = ""recordClick(this)""><div class = content><div class = numbers>6</div></div></button><button id = button_7 class = ""square num-button"" onclick = ""recordClick(this)""><div class = content><div class = numbers>7</div></div></button><button id = button_8 class = ""square num-button"" onclick = ""recordClick(this)""><div class = content><div class = numbers>8</div></div></button><button id = button_9 class = ""square num-button"" onclick = ""recordClick(this)""><div class = content><div class = numbers>9</div></div></button><button class = clear_button id = ""ClearButton"" onclick = ""clearResponse()"">Clear</button><p><u><b>Current Answer:</b></u></p><div id=echoed_txt style=""font-size: 6rem; color:blue;""><b></b></div></div><br><br><br><br><br><br><br>",enter,fwdspan,response,YXFN2dl3nVbZWe0YwExW1oUFgSJ3,html-keyboard-response,133,1455030,0.0-7.0-2.10-0.10-3.10,10.0,"[1,2,6,4,7,9,8,5,3,2]","[1,2,6,4,7,9,8,5,3,2]",1.0,"[3, 4, 4, 5, 6, 6, 7, 8, 8, 9, 10, 11]",,62a737b12cc61f784c4aab36,3:47:22 AM,1/15/2024
,,,fwdspan,update_span,YXFN2dl3nVbZWe0YwExW1oUFgSJ3,call-function,134,1455283,0.0-7.0-2.10-0.10-4.10,,,,,,,62a737b12cc61f784c4aab36,3:47:22 AM,1/15/2024
5840.100000023842,"<p style=""font-size:3rem"">Trial 12 of 12</p><br><br><br>",0,fwdspan,start_trial,YXFN2dl3nVbZWe0YwExW1oUFgSJ3,html-button-response,135,1461125,0.0-7.0-2.11-0.11-0.11,,,,,,,62a737b12cc61f784c4aab36,3:47:22 AM,1/15/2024
,"<p style=""font-size:14rem;font-weight:400;"">2</p>",,fwdspan,number,YXFN2dl3nVbZWe0YwExW1oUFgSJ3,html-keyboard-response,136,1462127,0.0-7.0-2.11-0.11-1.70-0.70,,,,,,,62a737b12cc61f784c4aab36,3:47:22 AM,1/15/2024
,"<p style=""font-size:14rem;font-weight:400;"">3</p>",,fwdspan,number,YXFN2dl3nVbZWe0YwExW1oUFgSJ3,html-keyboard-response,137,1463130,0.0-7.0-2.11-0.11-1.71-0.71,,,,,,,62a737b12cc61f784c4aab36,3:47:22 AM,1/15/2024
,"<p style=""font-size:14rem;font-weight:400;"">8</p>",,fwdspan,number,YXFN2dl3nVbZWe0YwExW1oUFgSJ3,html-keyboard-response,138,1464134,0.0-7.0-2.11-0.11-1.72-0.72,,,,,,,62a737b12cc61f784c4aab36,3:47:22 AM,1/15/2024
,"<p style=""font-size:14rem;font-weight:400;"">6</p>",,fwdspan,number,YXFN2dl3nVbZWe0YwExW1oUFgSJ3,html-keyboard-response,139,1465137,0.0-7.0-2.11-0.11-1.73-0.73,,,,,,,62a737b12cc61f784c4aab36,3:47:22 AM,1/15/2024
,"<p style=""font-size:14rem;font-weight:400;"">9</p>",,fwdspan,number,YXFN2dl3nVbZWe0YwExW1oUFgSJ3,html-keyboard-response,140,1466141,0.0-7.0-2.11-0.11-1.74-0.74,,,,,,,62a737b12cc61f784c4aab36,3:47:22 AM,1/15/2024
,"<p style=""font-size:14rem;font-weight:400;"">7</p>",,fwdspan,number,YXFN2dl3nVbZWe0YwExW1oUFgSJ3,html-keyboard-response,141,1467142,0.0-7.0-2.11-0.11-1.75-0.75,,,,,,,62a737b12cc61f784c4aab36,3:47:22 AM,1/15/2024
,"<p style=""font-size:14rem;font-weight:400;"">4</p>",,fwdspan,number,YXFN2dl3nVbZWe0YwExW1oUFgSJ3,html-keyboard-response,142,1468145,0.0-7.0-2.11-0.11-1.76-0.76,,,,,,,62a737b12cc61f784c4aab36,3:47:22 AM,1/15/2024
,"<p style=""font-size:14rem;font-weight:400;"">5</p>",,fwdspan,number,YXFN2dl3nVbZWe0YwExW1oUFgSJ3,html-keyboard-response,143,1469147,0.0-7.0-2.11-0.11-1.77-0.77,,,,,,,62a737b12cc61f784c4aab36,3:47:22 AM,1/15/2024
,"<p style=""font-size:14rem;font-weight:400;"">1</p>",,fwdspan,number,YXFN2dl3nVbZWe0YwExW1oUFgSJ3,html-keyboard-response,144,1470150,0.0-7.0-2.11-0.11-1.78-0.78,,,,,,,62a737b12cc61f784c4aab36,3:47:22 AM,1/15/2024
,"<p style=""font-size:14rem;font-weight:400;"">9</p>",,fwdspan,number,YXFN2dl3nVbZWe0YwExW1oUFgSJ3,html-keyboard-response,145,1471153,0.0-7.0-2.11-0.11-1.79-0.79,,,,,,,62a737b12cc61f784c4aab36,3:47:22 AM,1/15/2024
,"<p style=""font-size:14rem;font-weight:400;"">8</p>",,fwdspan,number,YXFN2dl3nVbZWe0YwExW1oUFgSJ3,html-keyboard-response,146,1472155,0.0-7.0-2.11-0.11-1.80-0.80,,,,,,,62a737b12cc61f784c4aab36,3:47:22 AM,1/15/2024
,[],,fwdspan,delay,YXFN2dl3nVbZWe0YwExW1oUFgSJ3,html-keyboard-response,147,1472708,0.0-7.0-2.11-0.11-2.11,,,,,,,62a737b12cc61f784c4aab36,3:47:22 AM,1/15/2024
24848.69999998808,"<div class = numbox><p style=""font-size:2.5rem"">What were the numbers <b>in order</b>?<br>(When you are ready to lock in your answer, press <b>ENTER</b>)</p><button id = button_1 class = ""square num-button"" onclick = ""recordClick(this)""><div class = content><div class = numbers>1</div></div></button><button id = button_2 class = ""square num-button"" onclick = ""recordClick(this)""><div class = content><div class = numbers>2</div></div></button><button id = button_3 class = ""square num-button"" onclick = ""recordClick(this)""><div class = content><div class = numbers>3</div></div></button><button id = button_4 class = ""square num-button"" onclick = ""recordClick(this)""><div class = content><div class = numbers>4</div></div></button><button id = button_5 class = ""square num-button"" onclick = ""recordClick(this)""><div class = content><div class = numbers>5</div></div></button><button id = button_6 class = ""square num-button"" onclick = ""recordClick(this)""><div class = content><div class = numbers>6</div></div></button><button id = button_7 class = ""square num-button"" onclick = ""recordClick(this)""><div class = content><div class = numbers>7</div></div></button><button id = button_8 class = ""square num-button"" onclick = ""recordClick(this)""><div class = content><div class = numbers>8</div></div></button><button id = button_9 class = ""square num-button"" onclick = ""recordClick(this)""><div class = content><div class = numbers>9</div></div></button><button class = clear_button id = ""ClearButton"" onclick = ""clearResponse()"">Clear</button><p><u><b>Current Answer:</b></u></p><div id=echoed_txt style=""font-size: 6rem; color:blue;""><b></b></div></div><br><br><br><br><br><br><br>",enter,fwdspan,response,YXFN2dl3nVbZWe0YwExW1oUFgSJ3,html-keyboard-response,148,1497558,0.0-7.0-2.11-0.11-3.11,11.0,"[2,3,8,6,9,7,4,5,1,9,8]","[2,3,8,6,9,7,4,5,1,9,8]",1.0,"[3, 4, 4, 5, 6, 6, 7, 8, 8, 9, 10, 11]",,62a737b12cc61f784c4aab36,3:47:22 AM,1/15/2024
,,,fwdspan,update_span,YXFN2dl3nVbZWe0YwExW1oUFgSJ3,call-function,149,1497812,0.0-7.0-2.11-0.11-4.11,,,,,,,62a737b12cc61f784c4aab36,3:47:22 AM,1/15/2024
36213.299999952316,,"{'Q0': 'I love numbers, and this has been fun to me'}",fwdspan,survey,YXFN2dl3nVbZWe0YwExW1oUFgSJ3,lmdlab-survey-text,150,1534778,0.0-7.0-3.0,,,,,,YXFN2dl3nVbZWe0YwExW1oUFgSJ3,62a737b12cc61f784c4aab36,3:47:22 AM,1/15/2024
8334.400000035763,<p><p style='font-size: 3rem'>Great work!<br><br>This completes the digit span task.</p><br><br><br>,0,fwdspan,finish,YXFN2dl3nVbZWe0YwExW1oUFgSJ3,html-button-response,151,1543117,0.0-7.0-4.0,,,,,,,62a737b12cc61f784c4aab36,3:47:22 AM,1/15/2024
