rt,stimulus,response,exp_name,exp_stage,subjectID,trial_type,trial_index,time_elapsed,internal_node_id,span,answer,correct,correct_full,span_history,databaseID,prolificID,start_time,date
3090.099999964237,"<p style=""font-size:4rem""><br><br>In the next part today, we have a completely different short task.<br><br><br>This part involves keeping numbers in you mind. Participation takes around 5 minutes.<br><br><br></p>",0,fwdspan,instruct,EIpUSW220LVK3oJklKaQcfyi2J52,html-button-response,19,458857,0.0-7.0-0.0,,,,,,,5db0561428bb350014e1b707,11:22:42,15/01/2024
15558.300000011921,"<p style=""font-size:5rem"">Welcome to the <b>digit span task</b>!<br><br></p><p style=""font-size:3.4rem""><br>On each trial, you will see a sequence of digits, followed by a delay.</p><p style=""font-size:3.4rem""><br>Then you will be asked to type them back in the same order in which they were seen.</p><p style=""font-size:3.4rem""><br><br><br>For example, if you saw the digits <b style=""color:blue;"">1</b>, <b style=""color:blue;"">2</b>, <b style=""color:blue;"">3</b>, you would respond with <b style=""color:blue;"">1</b>, <b style=""color:blue;"">2</b>, <b style=""color:blue;"">3</b></p><p style=""font-size:3.4rem""><br><br><br>To ensure the best measure of true performance for our study,<br><br>it is very important that you do not use any memory aid (e.g., pen and paper).<br><br>Please do the task solely in your head.</p><p style=""font-size:3.4rem""><br><br><br>There will be 12 total trials. Participation takes around 5 minutes.</p><br><br><br>",0,fwdspan,instruct,EIpUSW220LVK3oJklKaQcfyi2J52,html-button-response,20,474419,0.0-7.0-1.0,,,,,,,5db0561428bb350014e1b707,11:22:42,15/01/2024
2943.699999988079,"<p style=""font-size:3rem"">Trial 1 of 12</p><br><br><br>",0,fwdspan,start_trial,EIpUSW220LVK3oJklKaQcfyi2J52,html-button-response,21,477370,0.0-7.0-2.0-0.0-0.0,,,,,,,5db0561428bb350014e1b707,11:22:42,15/01/2024
,"<p style=""font-size:14rem;font-weight:400;"">9</p>",,fwdspan,number,EIpUSW220LVK3oJklKaQcfyi2J52,html-keyboard-response,22,478390,0.0-7.0-2.0-0.0-1.0-0.0,,,,,,,5db0561428bb350014e1b707,11:22:42,15/01/2024
,"<p style=""font-size:14rem;font-weight:400;"">8</p>",,fwdspan,number,EIpUSW220LVK3oJklKaQcfyi2J52,html-keyboard-response,23,479405,0.0-7.0-2.0-0.0-1.1-0.1,,,,,,,5db0561428bb350014e1b707,11:22:42,15/01/2024
,"<p style=""font-size:14rem;font-weight:400;"">3</p>",,fwdspan,number,EIpUSW220LVK3oJklKaQcfyi2J52,html-keyboard-response,24,480427,0.0-7.0-2.0-0.0-1.2-0.2,,,,,,,5db0561428bb350014e1b707,11:22:42,15/01/2024
,[],,fwdspan,delay,EIpUSW220LVK3oJklKaQcfyi2J52,html-keyboard-response,25,480999,0.0-7.0-2.0-0.0-2.0,,,,,,,5db0561428bb350014e1b707,11:22:42,15/01/2024
5744.299999952316,"<div class = numbox><p style=""font-size:2.5rem"">What were the numbers <b>in order</b>?<br>(When you are ready to lock in your answer, press <b>ENTER</b>)</p><button id = button_1 class = ""square num-button"" onclick = ""recordClick(this)""><div class = content><div class = numbers>1</div></div></button><button id = button_2 class = ""square num-button"" onclick = ""recordClick(this)""><div class = content><div class = numbers>2</div></div></button><button id = button_3 class = ""square num-button"" onclick = ""recordClick(this)""><div class = content><div class = numbers>3</div></div></button><button id = button_4 class = ""square num-button"" onclick = ""recordClick(this)""><div class = content><div class = numbers>4</div></div></button><button id = button_5 class = ""square num-button"" onclick = ""recordClick(this)""><div class = content><div class = numbers>5</div></div></button><button id = button_6 class = ""square num-button"" onclick = ""recordClick(this)""><div class = content><div class = numbers>6</div></div></button><button id = button_7 class = ""square num-button"" onclick = ""recordClick(this)""><div class = content><div class = numbers>7</div></div></button><button id = button_8 class = ""square num-button"" onclick = ""recordClick(this)""><div class = content><div class = numbers>8</div></div></button><button id = button_9 class = ""square num-button"" onclick = ""recordClick(this)""><div class = content><div class = numbers>9</div></div></button><button class = clear_button id = ""ClearButton"" onclick = ""clearResponse()"">Clear</button><p><u><b>Current Answer:</b></u></p><div id=echoed_txt style=""font-size: 6rem; color:blue;""><b></b></div></div><br><br><br><br><br><br><br>",enter,fwdspan,response,EIpUSW220LVK3oJklKaQcfyi2J52,html-keyboard-response,26,486746,0.0-7.0-2.0-0.0-3.0,3.0,"[9,8,3]","[9,8,3]",1.0,"[3, 4, 5, 6, 7, 8, 8, 7, 7, 6, 7, 7]",,5db0561428bb350014e1b707,11:22:42,15/01/2024
,,,fwdspan,update_span,EIpUSW220LVK3oJklKaQcfyi2J52,call-function,27,487004,0.0-7.0-2.0-0.0-4.0,,,,,,,5db0561428bb350014e1b707,11:22:42,15/01/2024
2311.5,"<p style=""font-size:3rem"">Trial 2 of 12</p><br><br><br>",0,fwdspan,start_trial,EIpUSW220LVK3oJklKaQcfyi2J52,html-button-response,28,489317,0.0-7.0-2.1-0.1-0.1,,,,,,,5db0561428bb350014e1b707,11:22:42,15/01/2024
,"<p style=""font-size:14rem;font-weight:400;"">2</p>",,fwdspan,number,EIpUSW220LVK3oJklKaQcfyi2J52,html-keyboard-response,29,490329,0.0-7.0-2.1-0.1-1.3-0.3,,,,,,,5db0561428bb350014e1b707,11:22:42,15/01/2024
,"<p style=""font-size:14rem;font-weight:400;"">7</p>",,fwdspan,number,EIpUSW220LVK3oJklKaQcfyi2J52,html-keyboard-response,30,491345,0.0-7.0-2.1-0.1-1.4-0.4,,,,,,,5db0561428bb350014e1b707,11:22:42,15/01/2024
,"<p style=""font-size:14rem;font-weight:400;"">1</p>",,fwdspan,number,EIpUSW220LVK3oJklKaQcfyi2J52,html-keyboard-response,31,492372,0.0-7.0-2.1-0.1-1.5-0.5,,,,,,,5db0561428bb350014e1b707,11:22:42,15/01/2024
,"<p style=""font-size:14rem;font-weight:400;"">3</p>",,fwdspan,number,EIpUSW220LVK3oJklKaQcfyi2J52,html-keyboard-response,32,493394,0.0-7.0-2.1-0.1-1.6-0.6,,,,,,,5db0561428bb350014e1b707,11:22:42,15/01/2024
,[],,fwdspan,delay,EIpUSW220LVK3oJklKaQcfyi2J52,html-keyboard-response,33,493965,0.0-7.0-2.1-0.1-2.1,,,,,,,5db0561428bb350014e1b707,11:22:42,15/01/2024
4412.199999988079,"<div class = numbox><p style=""font-size:2.5rem"">What were the numbers <b>in order</b>?<br>(When you are ready to lock in your answer, press <b>ENTER</b>)</p><button id = button_1 class = ""square num-button"" onclick = ""recordClick(this)""><div class = content><div class = numbers>1</div></div></button><button id = button_2 class = ""square num-button"" onclick = ""recordClick(this)""><div class = content><div class = numbers>2</div></div></button><button id = button_3 class = ""square num-button"" onclick = ""recordClick(this)""><div class = content><div class = numbers>3</div></div></button><button id = button_4 class = ""square num-button"" onclick = ""recordClick(this)""><div class = content><div class = numbers>4</div></div></button><button id = button_5 class = ""square num-button"" onclick = ""recordClick(this)""><div class = content><div class = numbers>5</div></div></button><button id = button_6 class = ""square num-button"" onclick = ""recordClick(this)""><div class = content><div class = numbers>6</div></div></button><button id = button_7 class = ""square num-button"" onclick = ""recordClick(this)""><div class = content><div class = numbers>7</div></div></button><button id = button_8 class = ""square num-button"" onclick = ""recordClick(this)""><div class = content><div class = numbers>8</div></div></button><button id = button_9 class = ""square num-button"" onclick = ""recordClick(this)""><div class = content><div class = numbers>9</div></div></button><button class = clear_button id = ""ClearButton"" onclick = ""clearResponse()"">Clear</button><p><u><b>Current Answer:</b></u></p><div id=echoed_txt style=""font-size: 6rem; color:blue;""><b></b></div></div><br><br><br><br><br><br><br>",enter,fwdspan,response,EIpUSW220LVK3oJklKaQcfyi2J52,html-keyboard-response,34,498379,0.0-7.0-2.1-0.1-3.1,4.0,"[2,7,1,3]","[2,7,1,3]",1.0,"[3, 4, 5, 6, 7, 8, 8, 7, 7, 6, 7, 7]",,5db0561428bb350014e1b707,11:22:42,15/01/2024
,,,fwdspan,update_span,EIpUSW220LVK3oJklKaQcfyi2J52,call-function,35,498638,0.0-7.0-2.1-0.1-4.1,,,,,,,5db0561428bb350014e1b707,11:22:42,15/01/2024
2442.199999988079,"<p style=""font-size:3rem"">Trial 3 of 12</p><br><br><br>",0,fwdspan,start_trial,EIpUSW220LVK3oJklKaQcfyi2J52,html-button-response,36,501082,0.0-7.0-2.2-0.2-0.2,,,,,,,5db0561428bb350014e1b707,11:22:42,15/01/2024
,"<p style=""font-size:14rem;font-weight:400;"">1</p>",,fwdspan,number,EIpUSW220LVK3oJklKaQcfyi2J52,html-keyboard-response,37,502095,0.0-7.0-2.2-0.2-1.7-0.7,,,,,,,5db0561428bb350014e1b707,11:22:42,15/01/2024
,"<p style=""font-size:14rem;font-weight:400;"">3</p>",,fwdspan,number,EIpUSW220LVK3oJklKaQcfyi2J52,html-keyboard-response,38,503099,0.0-7.0-2.2-0.2-1.8-0.8,,,,,,,5db0561428bb350014e1b707,11:22:42,15/01/2024
,"<p style=""font-size:14rem;font-weight:400;"">4</p>",,fwdspan,number,EIpUSW220LVK3oJklKaQcfyi2J52,html-keyboard-response,39,504109,0.0-7.0-2.2-0.2-1.9-0.9,,,,,,,5db0561428bb350014e1b707,11:22:42,15/01/2024
,"<p style=""font-size:14rem;font-weight:400;"">6</p>",,fwdspan,number,EIpUSW220LVK3oJklKaQcfyi2J52,html-keyboard-response,40,505128,0.0-7.0-2.2-0.2-1.10-0.10,,,,,,,5db0561428bb350014e1b707,11:22:42,15/01/2024
,"<p style=""font-size:14rem;font-weight:400;"">5</p>",,fwdspan,number,EIpUSW220LVK3oJklKaQcfyi2J52,html-keyboard-response,41,506151,0.0-7.0-2.2-0.2-1.11-0.11,,,,,,,5db0561428bb350014e1b707,11:22:42,15/01/2024
,[],,fwdspan,delay,EIpUSW220LVK3oJklKaQcfyi2J52,html-keyboard-response,42,506722,0.0-7.0-2.2-0.2-2.2,,,,,,,5db0561428bb350014e1b707,11:22:42,15/01/2024
5124.800000011921,"<div class = numbox><p style=""font-size:2.5rem"">What were the numbers <b>in order</b>?<br>(When you are ready to lock in your answer, press <b>ENTER</b>)</p><button id = button_1 class = ""square num-button"" onclick = ""recordClick(this)""><div class = content><div class = numbers>1</div></div></button><button id = button_2 class = ""square num-button"" onclick = ""recordClick(this)""><div class = content><div class = numbers>2</div></div></button><button id = button_3 class = ""square num-button"" onclick = ""recordClick(this)""><div class = content><div class = numbers>3</div></div></button><button id = button_4 class = ""square num-button"" onclick = ""recordClick(this)""><div class = content><div class = numbers>4</div></div></button><button id = button_5 class = ""square num-button"" onclick = ""recordClick(this)""><div class = content><div class = numbers>5</div></div></button><button id = button_6 class = ""square num-button"" onclick = ""recordClick(this)""><div class = content><div class = numbers>6</div></div></button><button id = button_7 class = ""square num-button"" onclick = ""recordClick(this)""><div class = content><div class = numbers>7</div></div></button><button id = button_8 class = ""square num-button"" onclick = ""recordClick(this)""><div class = content><div class = numbers>8</div></div></button><button id = button_9 class = ""square num-button"" onclick = ""recordClick(this)""><div class = content><div class = numbers>9</div></div></button><button class = clear_button id = ""ClearButton"" onclick = ""clearResponse()"">Clear</button><p><u><b>Current Answer:</b></u></p><div id=echoed_txt style=""font-size: 6rem; color:blue;""><b></b></div></div><br><br><br><br><br><br><br>",enter,fwdspan,response,EIpUSW220LVK3oJklKaQcfyi2J52,html-keyboard-response,43,511849,0.0-7.0-2.2-0.2-3.2,5.0,"[1,3,4,6,5]","[1,3,4,6,5]",1.0,"[3, 4, 5, 6, 7, 8, 8, 7, 7, 6, 7, 7]",,5db0561428bb350014e1b707,11:22:42,15/01/2024
,,,fwdspan,update_span,EIpUSW220LVK3oJklKaQcfyi2J52,call-function,44,512102,0.0-7.0-2.2-0.2-4.2,,,,,,,5db0561428bb350014e1b707,11:22:42,15/01/2024
2457.0,"<p style=""font-size:3rem"">Trial 4 of 12</p><br><br><br>",0,fwdspan,start_trial,EIpUSW220LVK3oJklKaQcfyi2J52,html-button-response,45,514561,0.0-7.0-2.3-0.3-0.3,,,,,,,5db0561428bb350014e1b707,11:22:42,15/01/2024
,"<p style=""font-size:14rem;font-weight:400;"">3</p>",,fwdspan,number,EIpUSW220LVK3oJklKaQcfyi2J52,html-keyboard-response,46,515585,0.0-7.0-2.3-0.3-1.12-0.12,,,,,,,5db0561428bb350014e1b707,11:22:42,15/01/2024
,"<p style=""font-size:14rem;font-weight:400;"">8</p>",,fwdspan,number,EIpUSW220LVK3oJklKaQcfyi2J52,html-keyboard-response,47,516598,0.0-7.0-2.3-0.3-1.13-0.13,,,,,,,5db0561428bb350014e1b707,11:22:42,15/01/2024
,"<p style=""font-size:14rem;font-weight:400;"">5</p>",,fwdspan,number,EIpUSW220LVK3oJklKaQcfyi2J52,html-keyboard-response,48,517616,0.0-7.0-2.3-0.3-1.14-0.14,,,,,,,5db0561428bb350014e1b707,11:22:42,15/01/2024
,"<p style=""font-size:14rem;font-weight:400;"">2</p>",,fwdspan,number,EIpUSW220LVK3oJklKaQcfyi2J52,html-keyboard-response,49,518636,0.0-7.0-2.3-0.3-1.15-0.15,,,,,,,5db0561428bb350014e1b707,11:22:42,15/01/2024
,"<p style=""font-size:14rem;font-weight:400;"">9</p>",,fwdspan,number,EIpUSW220LVK3oJklKaQcfyi2J52,html-keyboard-response,50,519646,0.0-7.0-2.3-0.3-1.16-0.16,,,,,,,5db0561428bb350014e1b707,11:22:42,15/01/2024
,"<p style=""font-size:14rem;font-weight:400;"">6</p>",,fwdspan,number,EIpUSW220LVK3oJklKaQcfyi2J52,html-keyboard-response,51,520672,0.0-7.0-2.3-0.3-1.17-0.17,,,,,,,5db0561428bb350014e1b707,11:22:42,15/01/2024
,[],,fwdspan,delay,EIpUSW220LVK3oJklKaQcfyi2J52,html-keyboard-response,52,521250,0.0-7.0-2.3-0.3-2.3,,,,,,,5db0561428bb350014e1b707,11:22:42,15/01/2024
5149.0,"<div class = numbox><p style=""font-size:2.5rem"">What were the numbers <b>in order</b>?<br>(When you are ready to lock in your answer, press <b>ENTER</b>)</p><button id = button_1 class = ""square num-button"" onclick = ""recordClick(this)""><div class = content><div class = numbers>1</div></div></button><button id = button_2 class = ""square num-button"" onclick = ""recordClick(this)""><div class = content><div class = numbers>2</div></div></button><button id = button_3 class = ""square num-button"" onclick = ""recordClick(this)""><div class = content><div class = numbers>3</div></div></button><button id = button_4 class = ""square num-button"" onclick = ""recordClick(this)""><div class = content><div class = numbers>4</div></div></button><button id = button_5 class = ""square num-button"" onclick = ""recordClick(this)""><div class = content><div class = numbers>5</div></div></button><button id = button_6 class = ""square num-button"" onclick = ""recordClick(this)""><div class = content><div class = numbers>6</div></div></button><button id = button_7 class = ""square num-button"" onclick = ""recordClick(this)""><div class = content><div class = numbers>7</div></div></button><button id = button_8 class = ""square num-button"" onclick = ""recordClick(this)""><div class = content><div class = numbers>8</div></div></button><button id = button_9 class = ""square num-button"" onclick = ""recordClick(this)""><div class = content><div class = numbers>9</div></div></button><button class = clear_button id = ""ClearButton"" onclick = ""clearResponse()"">Clear</button><p><u><b>Current Answer:</b></u></p><div id=echoed_txt style=""font-size: 6rem; color:blue;""><b></b></div></div><br><br><br><br><br><br><br>",enter,fwdspan,response,EIpUSW220LVK3oJklKaQcfyi2J52,html-keyboard-response,53,526400,0.0-7.0-2.3-0.3-3.3,6.0,"[3,8,5,2,9,6]","[3,8,5,2,9,6]",1.0,"[3, 4, 5, 6, 7, 8, 8, 7, 7, 6, 7, 7]",,5db0561428bb350014e1b707,11:22:42,15/01/2024
,,,fwdspan,update_span,EIpUSW220LVK3oJklKaQcfyi2J52,call-function,54,526662,0.0-7.0-2.3-0.3-4.3,,,,,,,5db0561428bb350014e1b707,11:22:42,15/01/2024
2102.5,"<p style=""font-size:3rem"">Trial 5 of 12</p><br><br><br>",0,fwdspan,start_trial,EIpUSW220LVK3oJklKaQcfyi2J52,html-button-response,55,528767,0.0-7.0-2.4-0.4-0.4,,,,,,,5db0561428bb350014e1b707,11:22:42,15/01/2024
,"<p style=""font-size:14rem;font-weight:400;"">7</p>",,fwdspan,number,EIpUSW220LVK3oJklKaQcfyi2J52,html-keyboard-response,56,529788,0.0-7.0-2.4-0.4-1.18-0.18,,,,,,,5db0561428bb350014e1b707,11:22:42,15/01/2024
,"<p style=""font-size:14rem;font-weight:400;"">3</p>",,fwdspan,number,EIpUSW220LVK3oJklKaQcfyi2J52,html-keyboard-response,57,530807,0.0-7.0-2.4-0.4-1.19-0.19,,,,,,,5db0561428bb350014e1b707,11:22:42,15/01/2024
,"<p style=""font-size:14rem;font-weight:400;"">5</p>",,fwdspan,number,EIpUSW220LVK3oJklKaQcfyi2J52,html-keyboard-response,58,531824,0.0-7.0-2.4-0.4-1.20-0.20,,,,,,,5db0561428bb350014e1b707,11:22:42,15/01/2024
,"<p style=""font-size:14rem;font-weight:400;"">1</p>",,fwdspan,number,EIpUSW220LVK3oJklKaQcfyi2J52,html-keyboard-response,59,532845,0.0-7.0-2.4-0.4-1.21-0.21,,,,,,,5db0561428bb350014e1b707,11:22:42,15/01/2024
,"<p style=""font-size:14rem;font-weight:400;"">6</p>",,fwdspan,number,EIpUSW220LVK3oJklKaQcfyi2J52,html-keyboard-response,60,533862,0.0-7.0-2.4-0.4-1.22-0.22,,,,,,,5db0561428bb350014e1b707,11:22:42,15/01/2024
,"<p style=""font-size:14rem;font-weight:400;"">8</p>",,fwdspan,number,EIpUSW220LVK3oJklKaQcfyi2J52,html-keyboard-response,61,534874,0.0-7.0-2.4-0.4-1.23-0.23,,,,,,,5db0561428bb350014e1b707,11:22:42,15/01/2024
,"<p style=""font-size:14rem;font-weight:400;"">2</p>",,fwdspan,number,EIpUSW220LVK3oJklKaQcfyi2J52,html-keyboard-response,62,535901,0.0-7.0-2.4-0.4-1.24-0.24,,,,,,,5db0561428bb350014e1b707,11:22:42,15/01/2024
,[],,fwdspan,delay,EIpUSW220LVK3oJklKaQcfyi2J52,html-keyboard-response,63,536469,0.0-7.0-2.4-0.4-2.4,,,,,,,5db0561428bb350014e1b707,11:22:42,15/01/2024
9271.800000011921,"<div class = numbox><p style=""font-size:2.5rem"">What were the numbers <b>in order</b>?<br>(When you are ready to lock in your answer, press <b>ENTER</b>)</p><button id = button_1 class = ""square num-button"" onclick = ""recordClick(this)""><div class = content><div class = numbers>1</div></div></button><button id = button_2 class = ""square num-button"" onclick = ""recordClick(this)""><div class = content><div class = numbers>2</div></div></button><button id = button_3 class = ""square num-button"" onclick = ""recordClick(this)""><div class = content><div class = numbers>3</div></div></button><button id = button_4 class = ""square num-button"" onclick = ""recordClick(this)""><div class = content><div class = numbers>4</div></div></button><button id = button_5 class = ""square num-button"" onclick = ""recordClick(this)""><div class = content><div class = numbers>5</div></div></button><button id = button_6 class = ""square num-button"" onclick = ""recordClick(this)""><div class = content><div class = numbers>6</div></div></button><button id = button_7 class = ""square num-button"" onclick = ""recordClick(this)""><div class = content><div class = numbers>7</div></div></button><button id = button_8 class = ""square num-button"" onclick = ""recordClick(this)""><div class = content><div class = numbers>8</div></div></button><button id = button_9 class = ""square num-button"" onclick = ""recordClick(this)""><div class = content><div class = numbers>9</div></div></button><button class = clear_button id = ""ClearButton"" onclick = ""clearResponse()"">Clear</button><p><u><b>Current Answer:</b></u></p><div id=echoed_txt style=""font-size: 6rem; color:blue;""><b></b></div></div><br><br><br><br><br><br><br>",enter,fwdspan,response,EIpUSW220LVK3oJklKaQcfyi2J52,html-keyboard-response,64,545742,0.0-7.0-2.4-0.4-3.4,7.0,"[7,3,5,1,6,8,2]","[7,3,5,1,6,8,2]",1.0,"[3, 4, 5, 6, 7, 8, 8, 7, 7, 6, 7, 7]",,5db0561428bb350014e1b707,11:22:42,15/01/2024
,,,fwdspan,update_span,EIpUSW220LVK3oJklKaQcfyi2J52,call-function,65,545997,0.0-7.0-2.4-0.4-4.4,,,,,,,5db0561428bb350014e1b707,11:22:42,15/01/2024
8291.900000035763,"<p style=""font-size:3rem"">Trial 6 of 12</p><br><br><br>",0,fwdspan,start_trial,EIpUSW220LVK3oJklKaQcfyi2J52,html-button-response,66,554289,0.0-7.0-2.5-0.5-0.5,,,,,,,5db0561428bb350014e1b707,11:22:42,15/01/2024
,"<p style=""font-size:14rem;font-weight:400;"">3</p>",,fwdspan,number,EIpUSW220LVK3oJklKaQcfyi2J52,html-keyboard-response,67,555302,0.0-7.0-2.5-0.5-1.25-0.25,,,,,,,5db0561428bb350014e1b707,11:22:42,15/01/2024
,"<p style=""font-size:14rem;font-weight:400;"">1</p>",,fwdspan,number,EIpUSW220LVK3oJklKaQcfyi2J52,html-keyboard-response,68,556322,0.0-7.0-2.5-0.5-1.26-0.26,,,,,,,5db0561428bb350014e1b707,11:22:42,15/01/2024
,"<p style=""font-size:14rem;font-weight:400;"">7</p>",,fwdspan,number,EIpUSW220LVK3oJklKaQcfyi2J52,html-keyboard-response,69,557339,0.0-7.0-2.5-0.5-1.27-0.27,,,,,,,5db0561428bb350014e1b707,11:22:42,15/01/2024
,"<p style=""font-size:14rem;font-weight:400;"">4</p>",,fwdspan,number,EIpUSW220LVK3oJklKaQcfyi2J52,html-keyboard-response,70,558354,0.0-7.0-2.5-0.5-1.28-0.28,,,,,,,5db0561428bb350014e1b707,11:22:42,15/01/2024
,"<p style=""font-size:14rem;font-weight:400;"">2</p>",,fwdspan,number,EIpUSW220LVK3oJklKaQcfyi2J52,html-keyboard-response,71,559367,0.0-7.0-2.5-0.5-1.29-0.29,,,,,,,5db0561428bb350014e1b707,11:22:42,15/01/2024
,"<p style=""font-size:14rem;font-weight:400;"">8</p>",,fwdspan,number,EIpUSW220LVK3oJklKaQcfyi2J52,html-keyboard-response,72,560384,0.0-7.0-2.5-0.5-1.30-0.30,,,,,,,5db0561428bb350014e1b707,11:22:42,15/01/2024
,"<p style=""font-size:14rem;font-weight:400;"">5</p>",,fwdspan,number,EIpUSW220LVK3oJklKaQcfyi2J52,html-keyboard-response,73,561388,0.0-7.0-2.5-0.5-1.31-0.31,,,,,,,5db0561428bb350014e1b707,11:22:42,15/01/2024
,"<p style=""font-size:14rem;font-weight:400;"">6</p>",,fwdspan,number,EIpUSW220LVK3oJklKaQcfyi2J52,html-keyboard-response,74,562405,0.0-7.0-2.5-0.5-1.32-0.32,,,,,,,5db0561428bb350014e1b707,11:22:42,15/01/2024
,[],,fwdspan,delay,EIpUSW220LVK3oJklKaQcfyi2J52,html-keyboard-response,75,562982,0.0-7.0-2.5-0.5-2.5,,,,,,,5db0561428bb350014e1b707,11:22:42,15/01/2024
10348.0,"<div class = numbox><p style=""font-size:2.5rem"">What were the numbers <b>in order</b>?<br>(When you are ready to lock in your answer, press <b>ENTER</b>)</p><button id = button_1 class = ""square num-button"" onclick = ""recordClick(this)""><div class = content><div class = numbers>1</div></div></button><button id = button_2 class = ""square num-button"" onclick = ""recordClick(this)""><div class = content><div class = numbers>2</div></div></button><button id = button_3 class = ""square num-button"" onclick = ""recordClick(this)""><div class = content><div class = numbers>3</div></div></button><button id = button_4 class = ""square num-button"" onclick = ""recordClick(this)""><div class = content><div class = numbers>4</div></div></button><button id = button_5 class = ""square num-button"" onclick = ""recordClick(this)""><div class = content><div class = numbers>5</div></div></button><button id = button_6 class = ""square num-button"" onclick = ""recordClick(this)""><div class = content><div class = numbers>6</div></div></button><button id = button_7 class = ""square num-button"" onclick = ""recordClick(this)""><div class = content><div class = numbers>7</div></div></button><button id = button_8 class = ""square num-button"" onclick = ""recordClick(this)""><div class = content><div class = numbers>8</div></div></button><button id = button_9 class = ""square num-button"" onclick = ""recordClick(this)""><div class = content><div class = numbers>9</div></div></button><button class = clear_button id = ""ClearButton"" onclick = ""clearResponse()"">Clear</button><p><u><b>Current Answer:</b></u></p><div id=echoed_txt style=""font-size: 6rem; color:blue;""><b></b></div></div><br><br><br><br><br><br><br>",enter,fwdspan,response,EIpUSW220LVK3oJklKaQcfyi2J52,html-keyboard-response,76,573331,0.0-7.0-2.5-0.5-3.5,8.0,"[3,1,7,4,8,5,6]","[3,1,7,4,2,8,5,6]",0.0,"[3, 4, 5, 6, 7, 8, 8, 7, 7, 6, 7, 7]",,5db0561428bb350014e1b707,11:22:42,15/01/2024
,,,fwdspan,update_span,EIpUSW220LVK3oJklKaQcfyi2J52,call-function,77,573599,0.0-7.0-2.5-0.5-4.5,,,,,,,5db0561428bb350014e1b707,11:22:42,15/01/2024
4741.599999964237,"<p style=""font-size:3rem"">Trial 7 of 12</p><br><br><br>",0,fwdspan,start_trial,EIpUSW220LVK3oJklKaQcfyi2J52,html-button-response,78,578342,0.0-7.0-2.6-0.6-0.6,,,,,,,5db0561428bb350014e1b707,11:22:42,15/01/2024
,"<p style=""font-size:14rem;font-weight:400;"">3</p>",,fwdspan,number,EIpUSW220LVK3oJklKaQcfyi2J52,html-keyboard-response,79,579349,0.0-7.0-2.6-0.6-1.33-0.33,,,,,,,5db0561428bb350014e1b707,11:22:42,15/01/2024
,"<p style=""font-size:14rem;font-weight:400;"">1</p>",,fwdspan,number,EIpUSW220LVK3oJklKaQcfyi2J52,html-keyboard-response,80,580353,0.0-7.0-2.6-0.6-1.34-0.34,,,,,,,5db0561428bb350014e1b707,11:22:42,15/01/2024
,"<p style=""font-size:14rem;font-weight:400;"">5</p>",,fwdspan,number,EIpUSW220LVK3oJklKaQcfyi2J52,html-keyboard-response,81,581382,0.0-7.0-2.6-0.6-1.35-0.35,,,,,,,5db0561428bb350014e1b707,11:22:42,15/01/2024
,"<p style=""font-size:14rem;font-weight:400;"">4</p>",,fwdspan,number,EIpUSW220LVK3oJklKaQcfyi2J52,html-keyboard-response,82,582396,0.0-7.0-2.6-0.6-1.36-0.36,,,,,,,5db0561428bb350014e1b707,11:22:42,15/01/2024
,"<p style=""font-size:14rem;font-weight:400;"">7</p>",,fwdspan,number,EIpUSW220LVK3oJklKaQcfyi2J52,html-keyboard-response,83,583399,0.0-7.0-2.6-0.6-1.37-0.37,,,,,,,5db0561428bb350014e1b707,11:22:42,15/01/2024
,"<p style=""font-size:14rem;font-weight:400;"">8</p>",,fwdspan,number,EIpUSW220LVK3oJklKaQcfyi2J52,html-keyboard-response,84,584431,0.0-7.0-2.6-0.6-1.38-0.38,,,,,,,5db0561428bb350014e1b707,11:22:42,15/01/2024
,"<p style=""font-size:14rem;font-weight:400;"">6</p>",,fwdspan,number,EIpUSW220LVK3oJklKaQcfyi2J52,html-keyboard-response,85,585451,0.0-7.0-2.6-0.6-1.39-0.39,,,,,,,5db0561428bb350014e1b707,11:22:42,15/01/2024
,"<p style=""font-size:14rem;font-weight:400;"">9</p>",,fwdspan,number,EIpUSW220LVK3oJklKaQcfyi2J52,html-keyboard-response,86,586465,0.0-7.0-2.6-0.6-1.40-0.40,,,,,,,5db0561428bb350014e1b707,11:22:42,15/01/2024
,[],,fwdspan,delay,EIpUSW220LVK3oJklKaQcfyi2J52,html-keyboard-response,87,587040,0.0-7.0-2.6-0.6-2.6,,,,,,,5db0561428bb350014e1b707,11:22:42,15/01/2024
9360.400000035763,"<div class = numbox><p style=""font-size:2.5rem"">What were the numbers <b>in order</b>?<br>(When you are ready to lock in your answer, press <b>ENTER</b>)</p><button id = button_1 class = ""square num-button"" onclick = ""recordClick(this)""><div class = content><div class = numbers>1</div></div></button><button id = button_2 class = ""square num-button"" onclick = ""recordClick(this)""><div class = content><div class = numbers>2</div></div></button><button id = button_3 class = ""square num-button"" onclick = ""recordClick(this)""><div class = content><div class = numbers>3</div></div></button><button id = button_4 class = ""square num-button"" onclick = ""recordClick(this)""><div class = content><div class = numbers>4</div></div></button><button id = button_5 class = ""square num-button"" onclick = ""recordClick(this)""><div class = content><div class = numbers>5</div></div></button><button id = button_6 class = ""square num-button"" onclick = ""recordClick(this)""><div class = content><div class = numbers>6</div></div></button><button id = button_7 class = ""square num-button"" onclick = ""recordClick(this)""><div class = content><div class = numbers>7</div></div></button><button id = button_8 class = ""square num-button"" onclick = ""recordClick(this)""><div class = content><div class = numbers>8</div></div></button><button id = button_9 class = ""square num-button"" onclick = ""recordClick(this)""><div class = content><div class = numbers>9</div></div></button><button class = clear_button id = ""ClearButton"" onclick = ""clearResponse()"">Clear</button><p><u><b>Current Answer:</b></u></p><div id=echoed_txt style=""font-size: 6rem; color:blue;""><b></b></div></div><br><br><br><br><br><br><br>",enter,fwdspan,response,EIpUSW220LVK3oJklKaQcfyi2J52,html-keyboard-response,88,596402,0.0-7.0-2.6-0.6-3.6,8.0,"[3,1,5,4,7,8,9]","[3,1,5,4,7,8,6,9]",0.0,"[3, 4, 5, 6, 7, 8, 8, 7, 7, 6, 7, 7]",,5db0561428bb350014e1b707,11:22:42,15/01/2024
,,,fwdspan,update_span,EIpUSW220LVK3oJklKaQcfyi2J52,call-function,89,596661,0.0-7.0-2.6-0.6-4.6,,,,,,,5db0561428bb350014e1b707,11:22:42,15/01/2024
2464.199999988079,"<p style=""font-size:3rem"">Trial 8 of 12</p><br><br><br>",0,fwdspan,start_trial,EIpUSW220LVK3oJklKaQcfyi2J52,html-button-response,90,599126,0.0-7.0-2.7-0.7-0.7,,,,,,,5db0561428bb350014e1b707,11:22:42,15/01/2024
,"<p style=""font-size:14rem;font-weight:400;"">2</p>",,fwdspan,number,EIpUSW220LVK3oJklKaQcfyi2J52,html-keyboard-response,91,600155,0.0-7.0-2.7-0.7-1.41-0.41,,,,,,,5db0561428bb350014e1b707,11:22:42,15/01/2024
,"<p style=""font-size:14rem;font-weight:400;"">3</p>",,fwdspan,number,EIpUSW220LVK3oJklKaQcfyi2J52,html-keyboard-response,92,601177,0.0-7.0-2.7-0.7-1.42-0.42,,,,,,,5db0561428bb350014e1b707,11:22:42,15/01/2024
,"<p style=""font-size:14rem;font-weight:400;"">1</p>",,fwdspan,number,EIpUSW220LVK3oJklKaQcfyi2J52,html-keyboard-response,93,602192,0.0-7.0-2.7-0.7-1.43-0.43,,,,,,,5db0561428bb350014e1b707,11:22:42,15/01/2024
,"<p style=""font-size:14rem;font-weight:400;"">9</p>",,fwdspan,number,EIpUSW220LVK3oJklKaQcfyi2J52,html-keyboard-response,94,603206,0.0-7.0-2.7-0.7-1.44-0.44,,,,,,,5db0561428bb350014e1b707,11:22:42,15/01/2024
,"<p style=""font-size:14rem;font-weight:400;"">7</p>",,fwdspan,number,EIpUSW220LVK3oJklKaQcfyi2J52,html-keyboard-response,95,604226,0.0-7.0-2.7-0.7-1.45-0.45,,,,,,,5db0561428bb350014e1b707,11:22:42,15/01/2024
,"<p style=""font-size:14rem;font-weight:400;"">5</p>",,fwdspan,number,EIpUSW220LVK3oJklKaQcfyi2J52,html-keyboard-response,96,605247,0.0-7.0-2.7-0.7-1.46-0.46,,,,,,,5db0561428bb350014e1b707,11:22:42,15/01/2024
,"<p style=""font-size:14rem;font-weight:400;"">6</p>",,fwdspan,number,EIpUSW220LVK3oJklKaQcfyi2J52,html-keyboard-response,97,606260,0.0-7.0-2.7-0.7-1.47-0.47,,,,,,,5db0561428bb350014e1b707,11:22:42,15/01/2024
,[],,fwdspan,delay,EIpUSW220LVK3oJklKaQcfyi2J52,html-keyboard-response,98,606818,0.0-7.0-2.7-0.7-2.7,,,,,,,5db0561428bb350014e1b707,11:22:42,15/01/2024
8126.0,"<div class = numbox><p style=""font-size:2.5rem"">What were the numbers <b>in order</b>?<br>(When you are ready to lock in your answer, press <b>ENTER</b>)</p><button id = button_1 class = ""square num-button"" onclick = ""recordClick(this)""><div class = content><div class = numbers>1</div></div></button><button id = button_2 class = ""square num-button"" onclick = ""recordClick(this)""><div class = content><div class = numbers>2</div></div></button><button id = button_3 class = ""square num-button"" onclick = ""recordClick(this)""><div class = content><div class = numbers>3</div></div></button><button id = button_4 class = ""square num-button"" onclick = ""recordClick(this)""><div class = content><div class = numbers>4</div></div></button><button id = button_5 class = ""square num-button"" onclick = ""recordClick(this)""><div class = content><div class = numbers>5</div></div></button><button id = button_6 class = ""square num-button"" onclick = ""recordClick(this)""><div class = content><div class = numbers>6</div></div></button><button id = button_7 class = ""square num-button"" onclick = ""recordClick(this)""><div class = content><div class = numbers>7</div></div></button><button id = button_8 class = ""square num-button"" onclick = ""recordClick(this)""><div class = content><div class = numbers>8</div></div></button><button id = button_9 class = ""square num-button"" onclick = ""recordClick(this)""><div class = content><div class = numbers>9</div></div></button><button class = clear_button id = ""ClearButton"" onclick = ""clearResponse()"">Clear</button><p><u><b>Current Answer:</b></u></p><div id=echoed_txt style=""font-size: 6rem; color:blue;""><b></b></div></div><br><br><br><br><br><br><br>",enter,fwdspan,response,EIpUSW220LVK3oJklKaQcfyi2J52,html-keyboard-response,99,614947,0.0-7.0-2.7-0.7-3.7,7.0,"[2,3,1,9,7,8,5]","[2,3,1,9,7,5,6]",0.0,"[3, 4, 5, 6, 7, 8, 8, 7, 7, 6, 7, 7]",,5db0561428bb350014e1b707,11:22:42,15/01/2024
,,,fwdspan,update_span,EIpUSW220LVK3oJklKaQcfyi2J52,call-function,100,615209,0.0-7.0-2.7-0.7-4.7,,,,,,,5db0561428bb350014e1b707,11:22:42,15/01/2024
8917.400000035763,"<p style=""font-size:3rem"">Trial 9 of 12</p><br><br><br>",0,fwdspan,start_trial,EIpUSW220LVK3oJklKaQcfyi2J52,html-button-response,101,624128,0.0-7.0-2.8-0.8-0.8,,,,,,,5db0561428bb350014e1b707,11:22:42,15/01/2024
,"<p style=""font-size:14rem;font-weight:400;"">4</p>",,fwdspan,number,EIpUSW220LVK3oJklKaQcfyi2J52,html-keyboard-response,102,625145,0.0-7.0-2.8-0.8-1.48-0.48,,,,,,,5db0561428bb350014e1b707,11:22:42,15/01/2024
,"<p style=""font-size:14rem;font-weight:400;"">5</p>",,fwdspan,number,EIpUSW220LVK3oJklKaQcfyi2J52,html-keyboard-response,103,626164,0.0-7.0-2.8-0.8-1.49-0.49,,,,,,,5db0561428bb350014e1b707,11:22:42,15/01/2024
,"<p style=""font-size:14rem;font-weight:400;"">8</p>",,fwdspan,number,EIpUSW220LVK3oJklKaQcfyi2J52,html-keyboard-response,104,627180,0.0-7.0-2.8-0.8-1.50-0.50,,,,,,,5db0561428bb350014e1b707,11:22:42,15/01/2024
,"<p style=""font-size:14rem;font-weight:400;"">6</p>",,fwdspan,number,EIpUSW220LVK3oJklKaQcfyi2J52,html-keyboard-response,105,628192,0.0-7.0-2.8-0.8-1.51-0.51,,,,,,,5db0561428bb350014e1b707,11:22:42,15/01/2024
,"<p style=""font-size:14rem;font-weight:400;"">3</p>",,fwdspan,number,EIpUSW220LVK3oJklKaQcfyi2J52,html-keyboard-response,106,629204,0.0-7.0-2.8-0.8-1.52-0.52,,,,,,,5db0561428bb350014e1b707,11:22:42,15/01/2024
,"<p style=""font-size:14rem;font-weight:400;"">7</p>",,fwdspan,number,EIpUSW220LVK3oJklKaQcfyi2J52,html-keyboard-response,107,630212,0.0-7.0-2.8-0.8-1.53-0.53,,,,,,,5db0561428bb350014e1b707,11:22:42,15/01/2024
,"<p style=""font-size:14rem;font-weight:400;"">2</p>",,fwdspan,number,EIpUSW220LVK3oJklKaQcfyi2J52,html-keyboard-response,108,631229,0.0-7.0-2.8-0.8-1.54-0.54,,,,,,,5db0561428bb350014e1b707,11:22:42,15/01/2024
,[],,fwdspan,delay,EIpUSW220LVK3oJklKaQcfyi2J52,html-keyboard-response,109,631794,0.0-7.0-2.8-0.8-2.8,,,,,,,5db0561428bb350014e1b707,11:22:42,15/01/2024
6850.399999976158,"<div class = numbox><p style=""font-size:2.5rem"">What were the numbers <b>in order</b>?<br>(When you are ready to lock in your answer, press <b>ENTER</b>)</p><button id = button_1 class = ""square num-button"" onclick = ""recordClick(this)""><div class = content><div class = numbers>1</div></div></button><button id = button_2 class = ""square num-button"" onclick = ""recordClick(this)""><div class = content><div class = numbers>2</div></div></button><button id = button_3 class = ""square num-button"" onclick = ""recordClick(this)""><div class = content><div class = numbers>3</div></div></button><button id = button_4 class = ""square num-button"" onclick = ""recordClick(this)""><div class = content><div class = numbers>4</div></div></button><button id = button_5 class = ""square num-button"" onclick = ""recordClick(this)""><div class = content><div class = numbers>5</div></div></button><button id = button_6 class = ""square num-button"" onclick = ""recordClick(this)""><div class = content><div class = numbers>6</div></div></button><button id = button_7 class = ""square num-button"" onclick = ""recordClick(this)""><div class = content><div class = numbers>7</div></div></button><button id = button_8 class = ""square num-button"" onclick = ""recordClick(this)""><div class = content><div class = numbers>8</div></div></button><button id = button_9 class = ""square num-button"" onclick = ""recordClick(this)""><div class = content><div class = numbers>9</div></div></button><button class = clear_button id = ""ClearButton"" onclick = ""clearResponse()"">Clear</button><p><u><b>Current Answer:</b></u></p><div id=echoed_txt style=""font-size: 6rem; color:blue;""><b></b></div></div><br><br><br><br><br><br><br>",enter,fwdspan,response,EIpUSW220LVK3oJklKaQcfyi2J52,html-keyboard-response,110,638646,0.0-7.0-2.8-0.8-3.8,7.0,"[4,5,8,3,6,7,2]","[4,5,8,6,3,7,2]",0.0,"[3, 4, 5, 6, 7, 8, 8, 7, 7, 6, 7, 7]",,5db0561428bb350014e1b707,11:22:42,15/01/2024
,,,fwdspan,update_span,EIpUSW220LVK3oJklKaQcfyi2J52,call-function,111,638901,0.0-7.0-2.8-0.8-4.8,,,,,,,5db0561428bb350014e1b707,11:22:42,15/01/2024
1188.699999988079,"<p style=""font-size:3rem"">Trial 10 of 12</p><br><br><br>",0,fwdspan,start_trial,EIpUSW220LVK3oJklKaQcfyi2J52,html-button-response,112,640092,0.0-7.0-2.9-0.9-0.9,,,,,,,5db0561428bb350014e1b707,11:22:42,15/01/2024
,"<p style=""font-size:14rem;font-weight:400;"">3</p>",,fwdspan,number,EIpUSW220LVK3oJklKaQcfyi2J52,html-keyboard-response,113,641113,0.0-7.0-2.9-0.9-1.55-0.55,,,,,,,5db0561428bb350014e1b707,11:22:42,15/01/2024
,"<p style=""font-size:14rem;font-weight:400;"">6</p>",,fwdspan,number,EIpUSW220LVK3oJklKaQcfyi2J52,html-keyboard-response,114,642125,0.0-7.0-2.9-0.9-1.56-0.56,,,,,,,5db0561428bb350014e1b707,11:22:42,15/01/2024
,"<p style=""font-size:14rem;font-weight:400;"">8</p>",,fwdspan,number,EIpUSW220LVK3oJklKaQcfyi2J52,html-keyboard-response,115,643137,0.0-7.0-2.9-0.9-1.57-0.57,,,,,,,5db0561428bb350014e1b707,11:22:42,15/01/2024
,"<p style=""font-size:14rem;font-weight:400;"">4</p>",,fwdspan,number,EIpUSW220LVK3oJklKaQcfyi2J52,html-keyboard-response,116,644149,0.0-7.0-2.9-0.9-1.58-0.58,,,,,,,5db0561428bb350014e1b707,11:22:42,15/01/2024
,"<p style=""font-size:14rem;font-weight:400;"">7</p>",,fwdspan,number,EIpUSW220LVK3oJklKaQcfyi2J52,html-keyboard-response,117,645168,0.0-7.0-2.9-0.9-1.59-0.59,,,,,,,5db0561428bb350014e1b707,11:22:42,15/01/2024
,"<p style=""font-size:14rem;font-weight:400;"">5</p>",,fwdspan,number,EIpUSW220LVK3oJklKaQcfyi2J52,html-keyboard-response,118,646191,0.0-7.0-2.9-0.9-1.60-0.60,,,,,,,5db0561428bb350014e1b707,11:22:42,15/01/2024
,[],,fwdspan,delay,EIpUSW220LVK3oJklKaQcfyi2J52,html-keyboard-response,119,646761,0.0-7.0-2.9-0.9-2.9,,,,,,,5db0561428bb350014e1b707,11:22:42,15/01/2024
6410.199999988079,"<div class = numbox><p style=""font-size:2.5rem"">What were the numbers <b>in order</b>?<br>(When you are ready to lock in your answer, press <b>ENTER</b>)</p><button id = button_1 class = ""square num-button"" onclick = ""recordClick(this)""><div class = content><div class = numbers>1</div></div></button><button id = button_2 class = ""square num-button"" onclick = ""recordClick(this)""><div class = content><div class = numbers>2</div></div></button><button id = button_3 class = ""square num-button"" onclick = ""recordClick(this)""><div class = content><div class = numbers>3</div></div></button><button id = button_4 class = ""square num-button"" onclick = ""recordClick(this)""><div class = content><div class = numbers>4</div></div></button><button id = button_5 class = ""square num-button"" onclick = ""recordClick(this)""><div class = content><div class = numbers>5</div></div></button><button id = button_6 class = ""square num-button"" onclick = ""recordClick(this)""><div class = content><div class = numbers>6</div></div></button><button id = button_7 class = ""square num-button"" onclick = ""recordClick(this)""><div class = content><div class = numbers>7</div></div></button><button id = button_8 class = ""square num-button"" onclick = ""recordClick(this)""><div class = content><div class = numbers>8</div></div></button><button id = button_9 class = ""square num-button"" onclick = ""recordClick(this)""><div class = content><div class = numbers>9</div></div></button><button class = clear_button id = ""ClearButton"" onclick = ""clearResponse()"">Clear</button><p><u><b>Current Answer:</b></u></p><div id=echoed_txt style=""font-size: 6rem; color:blue;""><b></b></div></div><br><br><br><br><br><br><br>",enter,fwdspan,response,EIpUSW220LVK3oJklKaQcfyi2J52,html-keyboard-response,120,653173,0.0-7.0-2.9-0.9-3.9,6.0,"[3,6,8,4,7,5]","[3,6,8,4,7,5]",1.0,"[3, 4, 5, 6, 7, 8, 8, 7, 7, 6, 7, 7]",,5db0561428bb350014e1b707,11:22:42,15/01/2024
,,,fwdspan,update_span,EIpUSW220LVK3oJklKaQcfyi2J52,call-function,121,653439,0.0-7.0-2.9-0.9-4.9,,,,,,,5db0561428bb350014e1b707,11:22:42,15/01/2024
10254.899999976158,"<p style=""font-size:3rem"">Trial 11 of 12</p><br><br><br>",0,fwdspan,start_trial,EIpUSW220LVK3oJklKaQcfyi2J52,html-button-response,122,663696,0.0-7.0-2.10-0.10-0.10,,,,,,,5db0561428bb350014e1b707,11:22:42,15/01/2024
,"<p style=""font-size:14rem;font-weight:400;"">5</p>",,fwdspan,number,EIpUSW220LVK3oJklKaQcfyi2J52,html-keyboard-response,123,664721,0.0-7.0-2.10-0.10-1.61-0.61,,,,,,,5db0561428bb350014e1b707,11:22:42,15/01/2024
,"<p style=""font-size:14rem;font-weight:400;"">8</p>",,fwdspan,number,EIpUSW220LVK3oJklKaQcfyi2J52,html-keyboard-response,124,665740,0.0-7.0-2.10-0.10-1.62-0.62,,,,,,,5db0561428bb350014e1b707,11:22:42,15/01/2024
,"<p style=""font-size:14rem;font-weight:400;"">6</p>",,fwdspan,number,EIpUSW220LVK3oJklKaQcfyi2J52,html-keyboard-response,125,666762,0.0-7.0-2.10-0.10-1.63-0.63,,,,,,,5db0561428bb350014e1b707,11:22:42,15/01/2024
,"<p style=""font-size:14rem;font-weight:400;"">9</p>",,fwdspan,number,EIpUSW220LVK3oJklKaQcfyi2J52,html-keyboard-response,126,667793,0.0-7.0-2.10-0.10-1.64-0.64,,,,,,,5db0561428bb350014e1b707,11:22:42,15/01/2024
,"<p style=""font-size:14rem;font-weight:400;"">2</p>",,fwdspan,number,EIpUSW220LVK3oJklKaQcfyi2J52,html-keyboard-response,127,668815,0.0-7.0-2.10-0.10-1.65-0.65,,,,,,,5db0561428bb350014e1b707,11:22:42,15/01/2024
,"<p style=""font-size:14rem;font-weight:400;"">3</p>",,fwdspan,number,EIpUSW220LVK3oJklKaQcfyi2J52,html-keyboard-response,128,669834,0.0-7.0-2.10-0.10-1.66-0.66,,,,,,,5db0561428bb350014e1b707,11:22:42,15/01/2024
,"<p style=""font-size:14rem;font-weight:400;"">1</p>",,fwdspan,number,EIpUSW220LVK3oJklKaQcfyi2J52,html-keyboard-response,129,670864,0.0-7.0-2.10-0.10-1.67-0.67,,,,,,,5db0561428bb350014e1b707,11:22:42,15/01/2024
,[],,fwdspan,delay,EIpUSW220LVK3oJklKaQcfyi2J52,html-keyboard-response,130,671433,0.0-7.0-2.10-0.10-2.10,,,,,,,5db0561428bb350014e1b707,11:22:42,15/01/2024
9745.100000023842,"<div class = numbox><p style=""font-size:2.5rem"">What were the numbers <b>in order</b>?<br>(When you are ready to lock in your answer, press <b>ENTER</b>)</p><button id = button_1 class = ""square num-button"" onclick = ""recordClick(this)""><div class = content><div class = numbers>1</div></div></button><button id = button_2 class = ""square num-button"" onclick = ""recordClick(this)""><div class = content><div class = numbers>2</div></div></button><button id = button_3 class = ""square num-button"" onclick = ""recordClick(this)""><div class = content><div class = numbers>3</div></div></button><button id = button_4 class = ""square num-button"" onclick = ""recordClick(this)""><div class = content><div class = numbers>4</div></div></button><button id = button_5 class = ""square num-button"" onclick = ""recordClick(this)""><div class = content><div class = numbers>5</div></div></button><button id = button_6 class = ""square num-button"" onclick = ""recordClick(this)""><div class = content><div class = numbers>6</div></div></button><button id = button_7 class = ""square num-button"" onclick = ""recordClick(this)""><div class = content><div class = numbers>7</div></div></button><button id = button_8 class = ""square num-button"" onclick = ""recordClick(this)""><div class = content><div class = numbers>8</div></div></button><button id = button_9 class = ""square num-button"" onclick = ""recordClick(this)""><div class = content><div class = numbers>9</div></div></button><button class = clear_button id = ""ClearButton"" onclick = ""clearResponse()"">Clear</button><p><u><b>Current Answer:</b></u></p><div id=echoed_txt style=""font-size: 6rem; color:blue;""><b></b></div></div><br><br><br><br><br><br><br>",enter,fwdspan,response,EIpUSW220LVK3oJklKaQcfyi2J52,html-keyboard-response,131,681180,0.0-7.0-2.10-0.10-3.10,7.0,"[5,6,7,9,2,8,1]","[5,8,6,9,2,3,1]",0.0,"[3, 4, 5, 6, 7, 8, 8, 7, 7, 6, 7, 7]",,5db0561428bb350014e1b707,11:22:42,15/01/2024
,,,fwdspan,update_span,EIpUSW220LVK3oJklKaQcfyi2J52,call-function,132,681447,0.0-7.0-2.10-0.10-4.10,,,,,,,5db0561428bb350014e1b707,11:22:42,15/01/2024
1212.300000011921,"<p style=""font-size:3rem"">Trial 12 of 12</p><br><br><br>",0,fwdspan,start_trial,EIpUSW220LVK3oJklKaQcfyi2J52,html-button-response,133,682661,0.0-7.0-2.11-0.11-0.11,,,,,,,5db0561428bb350014e1b707,11:22:42,15/01/2024
,"<p style=""font-size:14rem;font-weight:400;"">9</p>",,fwdspan,number,EIpUSW220LVK3oJklKaQcfyi2J52,html-keyboard-response,134,683680,0.0-7.0-2.11-0.11-1.68-0.68,,,,,,,5db0561428bb350014e1b707,11:22:42,15/01/2024
,"<p style=""font-size:14rem;font-weight:400;"">5</p>",,fwdspan,number,EIpUSW220LVK3oJklKaQcfyi2J52,html-keyboard-response,135,684702,0.0-7.0-2.11-0.11-1.69-0.69,,,,,,,5db0561428bb350014e1b707,11:22:42,15/01/2024
,"<p style=""font-size:14rem;font-weight:400;"">2</p>",,fwdspan,number,EIpUSW220LVK3oJklKaQcfyi2J52,html-keyboard-response,136,685729,0.0-7.0-2.11-0.11-1.70-0.70,,,,,,,5db0561428bb350014e1b707,11:22:42,15/01/2024
,"<p style=""font-size:14rem;font-weight:400;"">1</p>",,fwdspan,number,EIpUSW220LVK3oJklKaQcfyi2J52,html-keyboard-response,137,686742,0.0-7.0-2.11-0.11-1.71-0.71,,,,,,,5db0561428bb350014e1b707,11:22:42,15/01/2024
,"<p style=""font-size:14rem;font-weight:400;"">8</p>",,fwdspan,number,EIpUSW220LVK3oJklKaQcfyi2J52,html-keyboard-response,138,687763,0.0-7.0-2.11-0.11-1.72-0.72,,,,,,,5db0561428bb350014e1b707,11:22:42,15/01/2024
,"<p style=""font-size:14rem;font-weight:400;"">6</p>",,fwdspan,number,EIpUSW220LVK3oJklKaQcfyi2J52,html-keyboard-response,139,688771,0.0-7.0-2.11-0.11-1.73-0.73,,,,,,,5db0561428bb350014e1b707,11:22:42,15/01/2024
,"<p style=""font-size:14rem;font-weight:400;"">4</p>",,fwdspan,number,EIpUSW220LVK3oJklKaQcfyi2J52,html-keyboard-response,140,689792,0.0-7.0-2.11-0.11-1.74-0.74,,,,,,,5db0561428bb350014e1b707,11:22:42,15/01/2024
,[],,fwdspan,delay,EIpUSW220LVK3oJklKaQcfyi2J52,html-keyboard-response,141,690366,0.0-7.0-2.11-0.11-2.11,,,,,,,5db0561428bb350014e1b707,11:22:42,15/01/2024
8332.099999964237,"<div class = numbox><p style=""font-size:2.5rem"">What were the numbers <b>in order</b>?<br>(When you are ready to lock in your answer, press <b>ENTER</b>)</p><button id = button_1 class = ""square num-button"" onclick = ""recordClick(this)""><div class = content><div class = numbers>1</div></div></button><button id = button_2 class = ""square num-button"" onclick = ""recordClick(this)""><div class = content><div class = numbers>2</div></div></button><button id = button_3 class = ""square num-button"" onclick = ""recordClick(this)""><div class = content><div class = numbers>3</div></div></button><button id = button_4 class = ""square num-button"" onclick = ""recordClick(this)""><div class = content><div class = numbers>4</div></div></button><button id = button_5 class = ""square num-button"" onclick = ""recordClick(this)""><div class = content><div class = numbers>5</div></div></button><button id = button_6 class = ""square num-button"" onclick = ""recordClick(this)""><div class = content><div class = numbers>6</div></div></button><button id = button_7 class = ""square num-button"" onclick = ""recordClick(this)""><div class = content><div class = numbers>7</div></div></button><button id = button_8 class = ""square num-button"" onclick = ""recordClick(this)""><div class = content><div class = numbers>8</div></div></button><button id = button_9 class = ""square num-button"" onclick = ""recordClick(this)""><div class = content><div class = numbers>9</div></div></button><button class = clear_button id = ""ClearButton"" onclick = ""clearResponse()"">Clear</button><p><u><b>Current Answer:</b></u></p><div id=echoed_txt style=""font-size: 6rem; color:blue;""><b></b></div></div><br><br><br><br><br><br><br>",enter,fwdspan,response,EIpUSW220LVK3oJklKaQcfyi2J52,html-keyboard-response,142,698700,0.0-7.0-2.11-0.11-3.11,7.0,"[9,5,2,1,6,7,4]","[9,5,2,1,8,6,4]",0.0,"[3, 4, 5, 6, 7, 8, 8, 7, 7, 6, 7, 7]",,5db0561428bb350014e1b707,11:22:42,15/01/2024
,,,fwdspan,update_span,EIpUSW220LVK3oJklKaQcfyi2J52,call-function,143,698957,0.0-7.0-2.11-0.11-4.11,,,,,,,5db0561428bb350014e1b707,11:22:42,15/01/2024
34169.69999998808,,{'Q0': 'Mental health questions were a little hard-going...'},fwdspan,survey,EIpUSW220LVK3oJklKaQcfyi2J52,lmdlab-survey-text,144,733885,0.0-7.0-3.0,,,,,,EIpUSW220LVK3oJklKaQcfyi2J52,5db0561428bb350014e1b707,11:22:42,15/01/2024
1357.800000011921,<p><p style='font-size: 3rem'>Great work!<br><br>This completes the digit span task.</p><br><br><br>,0,fwdspan,finish,EIpUSW220LVK3oJklKaQcfyi2J52,html-button-response,145,735247,0.0-7.0-4.0,,,,,,,5db0561428bb350014e1b707,11:22:42,15/01/2024
