rt,stimulus,response,exp_name,exp_stage,subjectID,trial_type,trial_index,time_elapsed,internal_node_id,span,answer,correct,correct_full,span_history,databaseID,prolificID,start_time,date
5653.0,"<p style=""font-size:4rem""><br><br>In the next part today, we have a completely different short task.<br><br><br>This part involves keeping numbers in you mind. Participation takes around 5 minutes.<br><br><br></p>",0,fwdspan,instruct,Eq2ZignGQZgEjJDpilw50KNCV7A3,html-button-response,19,559332,0.0-7.0-0.0,,,,,,,5d7e1d2db5bd580017d11cec,11:24:21,15/01/2024
20537.0,"<p style=""font-size:5rem"">Welcome to the <b>digit span task</b>!<br><br></p><p style=""font-size:3.4rem""><br>On each trial, you will see a sequence of digits, followed by a delay.</p><p style=""font-size:3.4rem""><br>Then you will be asked to type them back in the same order in which they were seen.</p><p style=""font-size:3.4rem""><br><br><br>For example, if you saw the digits <b style=""color:blue;"">1</b>, <b style=""color:blue;"">2</b>, <b style=""color:blue;"">3</b>, you would respond with <b style=""color:blue;"">1</b>, <b style=""color:blue;"">2</b>, <b style=""color:blue;"">3</b></p><p style=""font-size:3.4rem""><br><br><br>To ensure the best measure of true performance for our study,<br><br>it is very important that you do not use any memory aid (e.g., pen and paper).<br><br>Please do the task solely in your head.</p><p style=""font-size:3.4rem""><br><br><br>There will be 12 total trials. Participation takes around 5 minutes.</p><br><br><br>",0,fwdspan,instruct,Eq2ZignGQZgEjJDpilw50KNCV7A3,html-button-response,20,579869,0.0-7.0-1.0,,,,,,,5d7e1d2db5bd580017d11cec,11:24:21,15/01/2024
1580.0,"<p style=""font-size:3rem"">Trial 1 of 12</p><br><br><br>",0,fwdspan,start_trial,Eq2ZignGQZgEjJDpilw50KNCV7A3,html-button-response,21,581453,0.0-7.0-2.0-0.0-0.0,,,,,,,5d7e1d2db5bd580017d11cec,11:24:21,15/01/2024
,"<p style=""font-size:14rem;font-weight:400;"">9</p>",,fwdspan,number,Eq2ZignGQZgEjJDpilw50KNCV7A3,html-keyboard-response,22,582474,0.0-7.0-2.0-0.0-1.0-0.0,,,,,,,5d7e1d2db5bd580017d11cec,11:24:21,15/01/2024
,"<p style=""font-size:14rem;font-weight:400;"">8</p>",,fwdspan,number,Eq2ZignGQZgEjJDpilw50KNCV7A3,html-keyboard-response,23,583480,0.0-7.0-2.0-0.0-1.1-0.1,,,,,,,5d7e1d2db5bd580017d11cec,11:24:21,15/01/2024
,"<p style=""font-size:14rem;font-weight:400;"">4</p>",,fwdspan,number,Eq2ZignGQZgEjJDpilw50KNCV7A3,html-keyboard-response,24,584485,0.0-7.0-2.0-0.0-1.2-0.2,,,,,,,5d7e1d2db5bd580017d11cec,11:24:21,15/01/2024
,[],,fwdspan,delay,Eq2ZignGQZgEjJDpilw50KNCV7A3,html-keyboard-response,25,585040,0.0-7.0-2.0-0.0-2.0,,,,,,,5d7e1d2db5bd580017d11cec,11:24:21,15/01/2024
5036.0,"<div class = numbox><p style=""font-size:2.5rem"">What were the numbers <b>in order</b>?<br>(When you are ready to lock in your answer, press <b>ENTER</b>)</p><button id = button_1 class = ""square num-button"" onclick = ""recordClick(this)""><div class = content><div class = numbers>1</div></div></button><button id = button_2 class = ""square num-button"" onclick = ""recordClick(this)""><div class = content><div class = numbers>2</div></div></button><button id = button_3 class = ""square num-button"" onclick = ""recordClick(this)""><div class = content><div class = numbers>3</div></div></button><button id = button_4 class = ""square num-button"" onclick = ""recordClick(this)""><div class = content><div class = numbers>4</div></div></button><button id = button_5 class = ""square num-button"" onclick = ""recordClick(this)""><div class = content><div class = numbers>5</div></div></button><button id = button_6 class = ""square num-button"" onclick = ""recordClick(this)""><div class = content><div class = numbers>6</div></div></button><button id = button_7 class = ""square num-button"" onclick = ""recordClick(this)""><div class = content><div class = numbers>7</div></div></button><button id = button_8 class = ""square num-button"" onclick = ""recordClick(this)""><div class = content><div class = numbers>8</div></div></button><button id = button_9 class = ""square num-button"" onclick = ""recordClick(this)""><div class = content><div class = numbers>9</div></div></button><button class = clear_button id = ""ClearButton"" onclick = ""clearResponse()"">Clear</button><p><u><b>Current Answer:</b></u></p><div id=echoed_txt style=""font-size: 6rem; color:blue;""><b></b></div></div><br><br><br><br><br><br><br>",enter,fwdspan,response,Eq2ZignGQZgEjJDpilw50KNCV7A3,html-keyboard-response,26,590076,0.0-7.0-2.0-0.0-3.0,3.0,"[9,8,4]","[9,8,4]",1.0,"[3, 4, 5, 5, 6, 6, 7, 7, 6, 7, 7, 6]",,5d7e1d2db5bd580017d11cec,11:24:21,15/01/2024
,,,fwdspan,update_span,Eq2ZignGQZgEjJDpilw50KNCV7A3,call-function,27,590328,0.0-7.0-2.0-0.0-4.0,,,,,,,5d7e1d2db5bd580017d11cec,11:24:21,15/01/2024
2109.0,"<p style=""font-size:3rem"">Trial 2 of 12</p><br><br><br>",0,fwdspan,start_trial,Eq2ZignGQZgEjJDpilw50KNCV7A3,html-button-response,28,592454,0.0-7.0-2.1-0.1-0.1,,,,,,,5d7e1d2db5bd580017d11cec,11:24:21,15/01/2024
,"<p style=""font-size:14rem;font-weight:400;"">1</p>",,fwdspan,number,Eq2ZignGQZgEjJDpilw50KNCV7A3,html-keyboard-response,29,593459,0.0-7.0-2.1-0.1-1.3-0.3,,,,,,,5d7e1d2db5bd580017d11cec,11:24:21,15/01/2024
,"<p style=""font-size:14rem;font-weight:400;"">9</p>",,fwdspan,number,Eq2ZignGQZgEjJDpilw50KNCV7A3,html-keyboard-response,30,594467,0.0-7.0-2.1-0.1-1.4-0.4,,,,,,,5d7e1d2db5bd580017d11cec,11:24:21,15/01/2024
,"<p style=""font-size:14rem;font-weight:400;"">4</p>",,fwdspan,number,Eq2ZignGQZgEjJDpilw50KNCV7A3,html-keyboard-response,31,595472,0.0-7.0-2.1-0.1-1.5-0.5,,,,,,,5d7e1d2db5bd580017d11cec,11:24:21,15/01/2024
,"<p style=""font-size:14rem;font-weight:400;"">6</p>",,fwdspan,number,Eq2ZignGQZgEjJDpilw50KNCV7A3,html-keyboard-response,32,596477,0.0-7.0-2.1-0.1-1.6-0.6,,,,,,,5d7e1d2db5bd580017d11cec,11:24:21,15/01/2024
,[],,fwdspan,delay,Eq2ZignGQZgEjJDpilw50KNCV7A3,html-keyboard-response,33,597036,0.0-7.0-2.1-0.1-2.1,,,,,,,5d7e1d2db5bd580017d11cec,11:24:21,15/01/2024
4752.0,"<div class = numbox><p style=""font-size:2.5rem"">What were the numbers <b>in order</b>?<br>(When you are ready to lock in your answer, press <b>ENTER</b>)</p><button id = button_1 class = ""square num-button"" onclick = ""recordClick(this)""><div class = content><div class = numbers>1</div></div></button><button id = button_2 class = ""square num-button"" onclick = ""recordClick(this)""><div class = content><div class = numbers>2</div></div></button><button id = button_3 class = ""square num-button"" onclick = ""recordClick(this)""><div class = content><div class = numbers>3</div></div></button><button id = button_4 class = ""square num-button"" onclick = ""recordClick(this)""><div class = content><div class = numbers>4</div></div></button><button id = button_5 class = ""square num-button"" onclick = ""recordClick(this)""><div class = content><div class = numbers>5</div></div></button><button id = button_6 class = ""square num-button"" onclick = ""recordClick(this)""><div class = content><div class = numbers>6</div></div></button><button id = button_7 class = ""square num-button"" onclick = ""recordClick(this)""><div class = content><div class = numbers>7</div></div></button><button id = button_8 class = ""square num-button"" onclick = ""recordClick(this)""><div class = content><div class = numbers>8</div></div></button><button id = button_9 class = ""square num-button"" onclick = ""recordClick(this)""><div class = content><div class = numbers>9</div></div></button><button class = clear_button id = ""ClearButton"" onclick = ""clearResponse()"">Clear</button><p><u><b>Current Answer:</b></u></p><div id=echoed_txt style=""font-size: 6rem; color:blue;""><b></b></div></div><br><br><br><br><br><br><br>",enter,fwdspan,response,Eq2ZignGQZgEjJDpilw50KNCV7A3,html-keyboard-response,34,601794,0.0-7.0-2.1-0.1-3.1,4.0,"[1,9,4,6]","[1,9,4,6]",1.0,"[3, 4, 5, 5, 6, 6, 7, 7, 6, 7, 7, 6]",,5d7e1d2db5bd580017d11cec,11:24:21,15/01/2024
,,,fwdspan,update_span,Eq2ZignGQZgEjJDpilw50KNCV7A3,call-function,35,602051,0.0-7.0-2.1-0.1-4.1,,,,,,,5d7e1d2db5bd580017d11cec,11:24:21,15/01/2024
1183.0,"<p style=""font-size:3rem"">Trial 3 of 12</p><br><br><br>",0,fwdspan,start_trial,Eq2ZignGQZgEjJDpilw50KNCV7A3,html-button-response,36,603236,0.0-7.0-2.2-0.2-0.2,,,,,,,5d7e1d2db5bd580017d11cec,11:24:21,15/01/2024
,"<p style=""font-size:14rem;font-weight:400;"">8</p>",,fwdspan,number,Eq2ZignGQZgEjJDpilw50KNCV7A3,html-keyboard-response,37,604254,0.0-7.0-2.2-0.2-1.7-0.7,,,,,,,5d7e1d2db5bd580017d11cec,11:24:21,15/01/2024
,"<p style=""font-size:14rem;font-weight:400;"">9</p>",,fwdspan,number,Eq2ZignGQZgEjJDpilw50KNCV7A3,html-keyboard-response,38,605264,0.0-7.0-2.2-0.2-1.8-0.8,,,,,,,5d7e1d2db5bd580017d11cec,11:24:21,15/01/2024
,"<p style=""font-size:14rem;font-weight:400;"">2</p>",,fwdspan,number,Eq2ZignGQZgEjJDpilw50KNCV7A3,html-keyboard-response,39,606275,0.0-7.0-2.2-0.2-1.9-0.9,,,,,,,5d7e1d2db5bd580017d11cec,11:24:21,15/01/2024
,"<p style=""font-size:14rem;font-weight:400;"">4</p>",,fwdspan,number,Eq2ZignGQZgEjJDpilw50KNCV7A3,html-keyboard-response,40,607279,0.0-7.0-2.2-0.2-1.10-0.10,,,,,,,5d7e1d2db5bd580017d11cec,11:24:21,15/01/2024
,"<p style=""font-size:14rem;font-weight:400;"">7</p>",,fwdspan,number,Eq2ZignGQZgEjJDpilw50KNCV7A3,html-keyboard-response,41,608286,0.0-7.0-2.2-0.2-1.11-0.11,,,,,,,5d7e1d2db5bd580017d11cec,11:24:21,15/01/2024
,[],,fwdspan,delay,Eq2ZignGQZgEjJDpilw50KNCV7A3,html-keyboard-response,42,608848,0.0-7.0-2.2-0.2-2.2,,,,,,,5d7e1d2db5bd580017d11cec,11:24:21,15/01/2024
4038.0,"<div class = numbox><p style=""font-size:2.5rem"">What were the numbers <b>in order</b>?<br>(When you are ready to lock in your answer, press <b>ENTER</b>)</p><button id = button_1 class = ""square num-button"" onclick = ""recordClick(this)""><div class = content><div class = numbers>1</div></div></button><button id = button_2 class = ""square num-button"" onclick = ""recordClick(this)""><div class = content><div class = numbers>2</div></div></button><button id = button_3 class = ""square num-button"" onclick = ""recordClick(this)""><div class = content><div class = numbers>3</div></div></button><button id = button_4 class = ""square num-button"" onclick = ""recordClick(this)""><div class = content><div class = numbers>4</div></div></button><button id = button_5 class = ""square num-button"" onclick = ""recordClick(this)""><div class = content><div class = numbers>5</div></div></button><button id = button_6 class = ""square num-button"" onclick = ""recordClick(this)""><div class = content><div class = numbers>6</div></div></button><button id = button_7 class = ""square num-button"" onclick = ""recordClick(this)""><div class = content><div class = numbers>7</div></div></button><button id = button_8 class = ""square num-button"" onclick = ""recordClick(this)""><div class = content><div class = numbers>8</div></div></button><button id = button_9 class = ""square num-button"" onclick = ""recordClick(this)""><div class = content><div class = numbers>9</div></div></button><button class = clear_button id = ""ClearButton"" onclick = ""clearResponse()"">Clear</button><p><u><b>Current Answer:</b></u></p><div id=echoed_txt style=""font-size: 6rem; color:blue;""><b></b></div></div><br><br><br><br><br><br><br>",enter,fwdspan,response,Eq2ZignGQZgEjJDpilw50KNCV7A3,html-keyboard-response,43,612890,0.0-7.0-2.2-0.2-3.2,5.0,"[8,9,4,2,7]","[8,9,2,4,7]",0.0,"[3, 4, 5, 5, 6, 6, 7, 7, 6, 7, 7, 6]",,5d7e1d2db5bd580017d11cec,11:24:21,15/01/2024
,,,fwdspan,update_span,Eq2ZignGQZgEjJDpilw50KNCV7A3,call-function,44,613144,0.0-7.0-2.2-0.2-4.2,,,,,,,5d7e1d2db5bd580017d11cec,11:24:21,15/01/2024
2300.0,"<p style=""font-size:3rem"">Trial 4 of 12</p><br><br><br>",0,fwdspan,start_trial,Eq2ZignGQZgEjJDpilw50KNCV7A3,html-button-response,45,615444,0.0-7.0-2.3-0.3-0.3,,,,,,,5d7e1d2db5bd580017d11cec,11:24:21,15/01/2024
,"<p style=""font-size:14rem;font-weight:400;"">1</p>",,fwdspan,number,Eq2ZignGQZgEjJDpilw50KNCV7A3,html-keyboard-response,46,616450,0.0-7.0-2.3-0.3-1.12-0.12,,,,,,,5d7e1d2db5bd580017d11cec,11:24:21,15/01/2024
,"<p style=""font-size:14rem;font-weight:400;"">4</p>",,fwdspan,number,Eq2ZignGQZgEjJDpilw50KNCV7A3,html-keyboard-response,47,617463,0.0-7.0-2.3-0.3-1.13-0.13,,,,,,,5d7e1d2db5bd580017d11cec,11:24:21,15/01/2024
,"<p style=""font-size:14rem;font-weight:400;"">2</p>",,fwdspan,number,Eq2ZignGQZgEjJDpilw50KNCV7A3,html-keyboard-response,48,618469,0.0-7.0-2.3-0.3-1.14-0.14,,,,,,,5d7e1d2db5bd580017d11cec,11:24:21,15/01/2024
,"<p style=""font-size:14rem;font-weight:400;"">7</p>",,fwdspan,number,Eq2ZignGQZgEjJDpilw50KNCV7A3,html-keyboard-response,49,619475,0.0-7.0-2.3-0.3-1.15-0.15,,,,,,,5d7e1d2db5bd580017d11cec,11:24:21,15/01/2024
,"<p style=""font-size:14rem;font-weight:400;"">8</p>",,fwdspan,number,Eq2ZignGQZgEjJDpilw50KNCV7A3,html-keyboard-response,50,620481,0.0-7.0-2.3-0.3-1.16-0.16,,,,,,,5d7e1d2db5bd580017d11cec,11:24:21,15/01/2024
,[],,fwdspan,delay,Eq2ZignGQZgEjJDpilw50KNCV7A3,html-keyboard-response,51,621044,0.0-7.0-2.3-0.3-2.3,,,,,,,5d7e1d2db5bd580017d11cec,11:24:21,15/01/2024
4840.0,"<div class = numbox><p style=""font-size:2.5rem"">What were the numbers <b>in order</b>?<br>(When you are ready to lock in your answer, press <b>ENTER</b>)</p><button id = button_1 class = ""square num-button"" onclick = ""recordClick(this)""><div class = content><div class = numbers>1</div></div></button><button id = button_2 class = ""square num-button"" onclick = ""recordClick(this)""><div class = content><div class = numbers>2</div></div></button><button id = button_3 class = ""square num-button"" onclick = ""recordClick(this)""><div class = content><div class = numbers>3</div></div></button><button id = button_4 class = ""square num-button"" onclick = ""recordClick(this)""><div class = content><div class = numbers>4</div></div></button><button id = button_5 class = ""square num-button"" onclick = ""recordClick(this)""><div class = content><div class = numbers>5</div></div></button><button id = button_6 class = ""square num-button"" onclick = ""recordClick(this)""><div class = content><div class = numbers>6</div></div></button><button id = button_7 class = ""square num-button"" onclick = ""recordClick(this)""><div class = content><div class = numbers>7</div></div></button><button id = button_8 class = ""square num-button"" onclick = ""recordClick(this)""><div class = content><div class = numbers>8</div></div></button><button id = button_9 class = ""square num-button"" onclick = ""recordClick(this)""><div class = content><div class = numbers>9</div></div></button><button class = clear_button id = ""ClearButton"" onclick = ""clearResponse()"">Clear</button><p><u><b>Current Answer:</b></u></p><div id=echoed_txt style=""font-size: 6rem; color:blue;""><b></b></div></div><br><br><br><br><br><br><br>",enter,fwdspan,response,Eq2ZignGQZgEjJDpilw50KNCV7A3,html-keyboard-response,52,625899,0.0-7.0-2.3-0.3-3.3,5.0,"[1,4,2,7,8]","[1,4,2,7,8]",1.0,"[3, 4, 5, 5, 6, 6, 7, 7, 6, 7, 7, 6]",,5d7e1d2db5bd580017d11cec,11:24:21,15/01/2024
,,,fwdspan,update_span,Eq2ZignGQZgEjJDpilw50KNCV7A3,call-function,53,626157,0.0-7.0-2.3-0.3-4.3,,,,,,,5d7e1d2db5bd580017d11cec,11:24:21,15/01/2024
1185.0,"<p style=""font-size:3rem"">Trial 5 of 12</p><br><br><br>",0,fwdspan,start_trial,Eq2ZignGQZgEjJDpilw50KNCV7A3,html-button-response,54,627347,0.0-7.0-2.4-0.4-0.4,,,,,,,5d7e1d2db5bd580017d11cec,11:24:21,15/01/2024
,"<p style=""font-size:14rem;font-weight:400;"">4</p>",,fwdspan,number,Eq2ZignGQZgEjJDpilw50KNCV7A3,html-keyboard-response,55,628354,0.0-7.0-2.4-0.4-1.17-0.17,,,,,,,5d7e1d2db5bd580017d11cec,11:24:21,15/01/2024
,"<p style=""font-size:14rem;font-weight:400;"">1</p>",,fwdspan,number,Eq2ZignGQZgEjJDpilw50KNCV7A3,html-keyboard-response,56,629361,0.0-7.0-2.4-0.4-1.18-0.18,,,,,,,5d7e1d2db5bd580017d11cec,11:24:21,15/01/2024
,"<p style=""font-size:14rem;font-weight:400;"">7</p>",,fwdspan,number,Eq2ZignGQZgEjJDpilw50KNCV7A3,html-keyboard-response,57,630368,0.0-7.0-2.4-0.4-1.19-0.19,,,,,,,5d7e1d2db5bd580017d11cec,11:24:21,15/01/2024
,"<p style=""font-size:14rem;font-weight:400;"">9</p>",,fwdspan,number,Eq2ZignGQZgEjJDpilw50KNCV7A3,html-keyboard-response,58,631374,0.0-7.0-2.4-0.4-1.20-0.20,,,,,,,5d7e1d2db5bd580017d11cec,11:24:21,15/01/2024
,"<p style=""font-size:14rem;font-weight:400;"">2</p>",,fwdspan,number,Eq2ZignGQZgEjJDpilw50KNCV7A3,html-keyboard-response,59,632381,0.0-7.0-2.4-0.4-1.21-0.21,,,,,,,5d7e1d2db5bd580017d11cec,11:24:21,15/01/2024
,"<p style=""font-size:14rem;font-weight:400;"">5</p>",,fwdspan,number,Eq2ZignGQZgEjJDpilw50KNCV7A3,html-keyboard-response,60,633388,0.0-7.0-2.4-0.4-1.22-0.22,,,,,,,5d7e1d2db5bd580017d11cec,11:24:21,15/01/2024
,[],,fwdspan,delay,Eq2ZignGQZgEjJDpilw50KNCV7A3,html-keyboard-response,61,633955,0.0-7.0-2.4-0.4-2.4,,,,,,,5d7e1d2db5bd580017d11cec,11:24:21,15/01/2024
3676.0,"<div class = numbox><p style=""font-size:2.5rem"">What were the numbers <b>in order</b>?<br>(When you are ready to lock in your answer, press <b>ENTER</b>)</p><button id = button_1 class = ""square num-button"" onclick = ""recordClick(this)""><div class = content><div class = numbers>1</div></div></button><button id = button_2 class = ""square num-button"" onclick = ""recordClick(this)""><div class = content><div class = numbers>2</div></div></button><button id = button_3 class = ""square num-button"" onclick = ""recordClick(this)""><div class = content><div class = numbers>3</div></div></button><button id = button_4 class = ""square num-button"" onclick = ""recordClick(this)""><div class = content><div class = numbers>4</div></div></button><button id = button_5 class = ""square num-button"" onclick = ""recordClick(this)""><div class = content><div class = numbers>5</div></div></button><button id = button_6 class = ""square num-button"" onclick = ""recordClick(this)""><div class = content><div class = numbers>6</div></div></button><button id = button_7 class = ""square num-button"" onclick = ""recordClick(this)""><div class = content><div class = numbers>7</div></div></button><button id = button_8 class = ""square num-button"" onclick = ""recordClick(this)""><div class = content><div class = numbers>8</div></div></button><button id = button_9 class = ""square num-button"" onclick = ""recordClick(this)""><div class = content><div class = numbers>9</div></div></button><button class = clear_button id = ""ClearButton"" onclick = ""clearResponse()"">Clear</button><p><u><b>Current Answer:</b></u></p><div id=echoed_txt style=""font-size: 6rem; color:blue;""><b></b></div></div><br><br><br><br><br><br><br>",enter,fwdspan,response,Eq2ZignGQZgEjJDpilw50KNCV7A3,html-keyboard-response,62,637643,0.0-7.0-2.4-0.4-3.4,6.0,"[4,1,2,7,5]","[4,1,7,9,2,5]",0.0,"[3, 4, 5, 5, 6, 6, 7, 7, 6, 7, 7, 6]",,5d7e1d2db5bd580017d11cec,11:24:21,15/01/2024
,,,fwdspan,update_span,Eq2ZignGQZgEjJDpilw50KNCV7A3,call-function,63,637904,0.0-7.0-2.4-0.4-4.4,,,,,,,5d7e1d2db5bd580017d11cec,11:24:21,15/01/2024
1035.0,"<p style=""font-size:3rem"">Trial 6 of 12</p><br><br><br>",0,fwdspan,start_trial,Eq2ZignGQZgEjJDpilw50KNCV7A3,html-button-response,64,638951,0.0-7.0-2.5-0.5-0.5,,,,,,,5d7e1d2db5bd580017d11cec,11:24:21,15/01/2024
,"<p style=""font-size:14rem;font-weight:400;"">9</p>",,fwdspan,number,Eq2ZignGQZgEjJDpilw50KNCV7A3,html-keyboard-response,65,639960,0.0-7.0-2.5-0.5-1.23-0.23,,,,,,,5d7e1d2db5bd580017d11cec,11:24:21,15/01/2024
,"<p style=""font-size:14rem;font-weight:400;"">1</p>",,fwdspan,number,Eq2ZignGQZgEjJDpilw50KNCV7A3,html-keyboard-response,66,640978,0.0-7.0-2.5-0.5-1.24-0.24,,,,,,,5d7e1d2db5bd580017d11cec,11:24:21,15/01/2024
,"<p style=""font-size:14rem;font-weight:400;"">8</p>",,fwdspan,number,Eq2ZignGQZgEjJDpilw50KNCV7A3,html-keyboard-response,67,641990,0.0-7.0-2.5-0.5-1.25-0.25,,,,,,,5d7e1d2db5bd580017d11cec,11:24:21,15/01/2024
,"<p style=""font-size:14rem;font-weight:400;"">7</p>",,fwdspan,number,Eq2ZignGQZgEjJDpilw50KNCV7A3,html-keyboard-response,68,643012,0.0-7.0-2.5-0.5-1.26-0.26,,,,,,,5d7e1d2db5bd580017d11cec,11:24:21,15/01/2024
,"<p style=""font-size:14rem;font-weight:400;"">6</p>",,fwdspan,number,Eq2ZignGQZgEjJDpilw50KNCV7A3,html-keyboard-response,69,644018,0.0-7.0-2.5-0.5-1.27-0.27,,,,,,,5d7e1d2db5bd580017d11cec,11:24:21,15/01/2024
,"<p style=""font-size:14rem;font-weight:400;"">3</p>",,fwdspan,number,Eq2ZignGQZgEjJDpilw50KNCV7A3,html-keyboard-response,70,645022,0.0-7.0-2.5-0.5-1.28-0.28,,,,,,,5d7e1d2db5bd580017d11cec,11:24:21,15/01/2024
,[],,fwdspan,delay,Eq2ZignGQZgEjJDpilw50KNCV7A3,html-keyboard-response,71,645573,0.0-7.0-2.5-0.5-2.5,,,,,,,5d7e1d2db5bd580017d11cec,11:24:21,15/01/2024
3838.0,"<div class = numbox><p style=""font-size:2.5rem"">What were the numbers <b>in order</b>?<br>(When you are ready to lock in your answer, press <b>ENTER</b>)</p><button id = button_1 class = ""square num-button"" onclick = ""recordClick(this)""><div class = content><div class = numbers>1</div></div></button><button id = button_2 class = ""square num-button"" onclick = ""recordClick(this)""><div class = content><div class = numbers>2</div></div></button><button id = button_3 class = ""square num-button"" onclick = ""recordClick(this)""><div class = content><div class = numbers>3</div></div></button><button id = button_4 class = ""square num-button"" onclick = ""recordClick(this)""><div class = content><div class = numbers>4</div></div></button><button id = button_5 class = ""square num-button"" onclick = ""recordClick(this)""><div class = content><div class = numbers>5</div></div></button><button id = button_6 class = ""square num-button"" onclick = ""recordClick(this)""><div class = content><div class = numbers>6</div></div></button><button id = button_7 class = ""square num-button"" onclick = ""recordClick(this)""><div class = content><div class = numbers>7</div></div></button><button id = button_8 class = ""square num-button"" onclick = ""recordClick(this)""><div class = content><div class = numbers>8</div></div></button><button id = button_9 class = ""square num-button"" onclick = ""recordClick(this)""><div class = content><div class = numbers>9</div></div></button><button class = clear_button id = ""ClearButton"" onclick = ""clearResponse()"">Clear</button><p><u><b>Current Answer:</b></u></p><div id=echoed_txt style=""font-size: 6rem; color:blue;""><b></b></div></div><br><br><br><br><br><br><br>",enter,fwdspan,response,Eq2ZignGQZgEjJDpilw50KNCV7A3,html-keyboard-response,72,649419,0.0-7.0-2.5-0.5-3.5,6.0,"[9,1,8,7,6,3]","[9,1,8,7,6,3]",1.0,"[3, 4, 5, 5, 6, 6, 7, 7, 6, 7, 7, 6]",,5d7e1d2db5bd580017d11cec,11:24:21,15/01/2024
,,,fwdspan,update_span,Eq2ZignGQZgEjJDpilw50KNCV7A3,call-function,73,649685,0.0-7.0-2.5-0.5-4.5,,,,,,,5d7e1d2db5bd580017d11cec,11:24:21,15/01/2024
1325.0,"<p style=""font-size:3rem"">Trial 7 of 12</p><br><br><br>",0,fwdspan,start_trial,Eq2ZignGQZgEjJDpilw50KNCV7A3,html-button-response,74,651011,0.0-7.0-2.6-0.6-0.6,,,,,,,5d7e1d2db5bd580017d11cec,11:24:21,15/01/2024
,"<p style=""font-size:14rem;font-weight:400;"">8</p>",,fwdspan,number,Eq2ZignGQZgEjJDpilw50KNCV7A3,html-keyboard-response,75,652028,0.0-7.0-2.6-0.6-1.29-0.29,,,,,,,5d7e1d2db5bd580017d11cec,11:24:21,15/01/2024
,"<p style=""font-size:14rem;font-weight:400;"">5</p>",,fwdspan,number,Eq2ZignGQZgEjJDpilw50KNCV7A3,html-keyboard-response,76,653033,0.0-7.0-2.6-0.6-1.30-0.30,,,,,,,5d7e1d2db5bd580017d11cec,11:24:21,15/01/2024
,"<p style=""font-size:14rem;font-weight:400;"">9</p>",,fwdspan,number,Eq2ZignGQZgEjJDpilw50KNCV7A3,html-keyboard-response,77,654039,0.0-7.0-2.6-0.6-1.31-0.31,,,,,,,5d7e1d2db5bd580017d11cec,11:24:21,15/01/2024
,"<p style=""font-size:14rem;font-weight:400;"">6</p>",,fwdspan,number,Eq2ZignGQZgEjJDpilw50KNCV7A3,html-keyboard-response,78,655051,0.0-7.0-2.6-0.6-1.32-0.32,,,,,,,5d7e1d2db5bd580017d11cec,11:24:21,15/01/2024
,"<p style=""font-size:14rem;font-weight:400;"">4</p>",,fwdspan,number,Eq2ZignGQZgEjJDpilw50KNCV7A3,html-keyboard-response,79,656056,0.0-7.0-2.6-0.6-1.33-0.33,,,,,,,5d7e1d2db5bd580017d11cec,11:24:21,15/01/2024
,"<p style=""font-size:14rem;font-weight:400;"">1</p>",,fwdspan,number,Eq2ZignGQZgEjJDpilw50KNCV7A3,html-keyboard-response,80,657064,0.0-7.0-2.6-0.6-1.34-0.34,,,,,,,5d7e1d2db5bd580017d11cec,11:24:21,15/01/2024
,"<p style=""font-size:14rem;font-weight:400;"">3</p>",,fwdspan,number,Eq2ZignGQZgEjJDpilw50KNCV7A3,html-keyboard-response,81,658082,0.0-7.0-2.6-0.6-1.35-0.35,,,,,,,5d7e1d2db5bd580017d11cec,11:24:21,15/01/2024
,[],,fwdspan,delay,Eq2ZignGQZgEjJDpilw50KNCV7A3,html-keyboard-response,82,658648,0.0-7.0-2.6-0.6-2.6,,,,,,,5d7e1d2db5bd580017d11cec,11:24:21,15/01/2024
4559.0,"<div class = numbox><p style=""font-size:2.5rem"">What were the numbers <b>in order</b>?<br>(When you are ready to lock in your answer, press <b>ENTER</b>)</p><button id = button_1 class = ""square num-button"" onclick = ""recordClick(this)""><div class = content><div class = numbers>1</div></div></button><button id = button_2 class = ""square num-button"" onclick = ""recordClick(this)""><div class = content><div class = numbers>2</div></div></button><button id = button_3 class = ""square num-button"" onclick = ""recordClick(this)""><div class = content><div class = numbers>3</div></div></button><button id = button_4 class = ""square num-button"" onclick = ""recordClick(this)""><div class = content><div class = numbers>4</div></div></button><button id = button_5 class = ""square num-button"" onclick = ""recordClick(this)""><div class = content><div class = numbers>5</div></div></button><button id = button_6 class = ""square num-button"" onclick = ""recordClick(this)""><div class = content><div class = numbers>6</div></div></button><button id = button_7 class = ""square num-button"" onclick = ""recordClick(this)""><div class = content><div class = numbers>7</div></div></button><button id = button_8 class = ""square num-button"" onclick = ""recordClick(this)""><div class = content><div class = numbers>8</div></div></button><button id = button_9 class = ""square num-button"" onclick = ""recordClick(this)""><div class = content><div class = numbers>9</div></div></button><button class = clear_button id = ""ClearButton"" onclick = ""clearResponse()"">Clear</button><p><u><b>Current Answer:</b></u></p><div id=echoed_txt style=""font-size: 6rem; color:blue;""><b></b></div></div><br><br><br><br><br><br><br>",enter,fwdspan,response,Eq2ZignGQZgEjJDpilw50KNCV7A3,html-keyboard-response,83,663212,0.0-7.0-2.6-0.6-3.6,7.0,"[8,4,9,6,3,1]","[8,5,9,6,4,1,3]",0.0,"[3, 4, 5, 5, 6, 6, 7, 7, 6, 7, 7, 6]",,5d7e1d2db5bd580017d11cec,11:24:21,15/01/2024
,,,fwdspan,update_span,Eq2ZignGQZgEjJDpilw50KNCV7A3,call-function,84,663467,0.0-7.0-2.6-0.6-4.6,,,,,,,5d7e1d2db5bd580017d11cec,11:24:21,15/01/2024
730.0,"<p style=""font-size:3rem"">Trial 8 of 12</p><br><br><br>",0,fwdspan,start_trial,Eq2ZignGQZgEjJDpilw50KNCV7A3,html-button-response,85,664200,0.0-7.0-2.7-0.7-0.7,,,,,,,5d7e1d2db5bd580017d11cec,11:24:21,15/01/2024
,"<p style=""font-size:14rem;font-weight:400;"">2</p>",,fwdspan,number,Eq2ZignGQZgEjJDpilw50KNCV7A3,html-keyboard-response,86,665225,0.0-7.0-2.7-0.7-1.36-0.36,,,,,,,5d7e1d2db5bd580017d11cec,11:24:21,15/01/2024
,"<p style=""font-size:14rem;font-weight:400;"">7</p>",,fwdspan,number,Eq2ZignGQZgEjJDpilw50KNCV7A3,html-keyboard-response,87,666237,0.0-7.0-2.7-0.7-1.37-0.37,,,,,,,5d7e1d2db5bd580017d11cec,11:24:21,15/01/2024
,"<p style=""font-size:14rem;font-weight:400;"">8</p>",,fwdspan,number,Eq2ZignGQZgEjJDpilw50KNCV7A3,html-keyboard-response,88,667249,0.0-7.0-2.7-0.7-1.38-0.38,,,,,,,5d7e1d2db5bd580017d11cec,11:24:21,15/01/2024
,"<p style=""font-size:14rem;font-weight:400;"">5</p>",,fwdspan,number,Eq2ZignGQZgEjJDpilw50KNCV7A3,html-keyboard-response,89,668263,0.0-7.0-2.7-0.7-1.39-0.39,,,,,,,5d7e1d2db5bd580017d11cec,11:24:21,15/01/2024
,"<p style=""font-size:14rem;font-weight:400;"">6</p>",,fwdspan,number,Eq2ZignGQZgEjJDpilw50KNCV7A3,html-keyboard-response,90,669270,0.0-7.0-2.7-0.7-1.40-0.40,,,,,,,5d7e1d2db5bd580017d11cec,11:24:21,15/01/2024
,"<p style=""font-size:14rem;font-weight:400;"">9</p>",,fwdspan,number,Eq2ZignGQZgEjJDpilw50KNCV7A3,html-keyboard-response,91,670281,0.0-7.0-2.7-0.7-1.41-0.41,,,,,,,5d7e1d2db5bd580017d11cec,11:24:21,15/01/2024
,"<p style=""font-size:14rem;font-weight:400;"">3</p>",,fwdspan,number,Eq2ZignGQZgEjJDpilw50KNCV7A3,html-keyboard-response,92,671285,0.0-7.0-2.7-0.7-1.42-0.42,,,,,,,5d7e1d2db5bd580017d11cec,11:24:21,15/01/2024
,[],,fwdspan,delay,Eq2ZignGQZgEjJDpilw50KNCV7A3,html-keyboard-response,93,671842,0.0-7.0-2.7-0.7-2.7,,,,,,,5d7e1d2db5bd580017d11cec,11:24:21,15/01/2024
5179.0,"<div class = numbox><p style=""font-size:2.5rem"">What were the numbers <b>in order</b>?<br>(When you are ready to lock in your answer, press <b>ENTER</b>)</p><button id = button_1 class = ""square num-button"" onclick = ""recordClick(this)""><div class = content><div class = numbers>1</div></div></button><button id = button_2 class = ""square num-button"" onclick = ""recordClick(this)""><div class = content><div class = numbers>2</div></div></button><button id = button_3 class = ""square num-button"" onclick = ""recordClick(this)""><div class = content><div class = numbers>3</div></div></button><button id = button_4 class = ""square num-button"" onclick = ""recordClick(this)""><div class = content><div class = numbers>4</div></div></button><button id = button_5 class = ""square num-button"" onclick = ""recordClick(this)""><div class = content><div class = numbers>5</div></div></button><button id = button_6 class = ""square num-button"" onclick = ""recordClick(this)""><div class = content><div class = numbers>6</div></div></button><button id = button_7 class = ""square num-button"" onclick = ""recordClick(this)""><div class = content><div class = numbers>7</div></div></button><button id = button_8 class = ""square num-button"" onclick = ""recordClick(this)""><div class = content><div class = numbers>8</div></div></button><button id = button_9 class = ""square num-button"" onclick = ""recordClick(this)""><div class = content><div class = numbers>9</div></div></button><button class = clear_button id = ""ClearButton"" onclick = ""clearResponse()"">Clear</button><p><u><b>Current Answer:</b></u></p><div id=echoed_txt style=""font-size: 6rem; color:blue;""><b></b></div></div><br><br><br><br><br><br><br>",enter,fwdspan,response,Eq2ZignGQZgEjJDpilw50KNCV7A3,html-keyboard-response,94,677028,0.0-7.0-2.7-0.7-3.7,7.0,"[2,4,8,6,9,4]","[2,7,8,5,6,9,3]",0.0,"[3, 4, 5, 5, 6, 6, 7, 7, 6, 7, 7, 6]",,5d7e1d2db5bd580017d11cec,11:24:21,15/01/2024
,,,fwdspan,update_span,Eq2ZignGQZgEjJDpilw50KNCV7A3,call-function,95,677280,0.0-7.0-2.7-0.7-4.7,,,,,,,5d7e1d2db5bd580017d11cec,11:24:21,15/01/2024
813.0,"<p style=""font-size:3rem"">Trial 9 of 12</p><br><br><br>",0,fwdspan,start_trial,Eq2ZignGQZgEjJDpilw50KNCV7A3,html-button-response,96,678108,0.0-7.0-2.8-0.8-0.8,,,,,,,5d7e1d2db5bd580017d11cec,11:24:21,15/01/2024
,"<p style=""font-size:14rem;font-weight:400;"">3</p>",,fwdspan,number,Eq2ZignGQZgEjJDpilw50KNCV7A3,html-keyboard-response,97,679128,0.0-7.0-2.8-0.8-1.43-0.43,,,,,,,5d7e1d2db5bd580017d11cec,11:24:21,15/01/2024
,"<p style=""font-size:14rem;font-weight:400;"">9</p>",,fwdspan,number,Eq2ZignGQZgEjJDpilw50KNCV7A3,html-keyboard-response,98,680136,0.0-7.0-2.8-0.8-1.44-0.44,,,,,,,5d7e1d2db5bd580017d11cec,11:24:21,15/01/2024
,"<p style=""font-size:14rem;font-weight:400;"">4</p>",,fwdspan,number,Eq2ZignGQZgEjJDpilw50KNCV7A3,html-keyboard-response,99,681142,0.0-7.0-2.8-0.8-1.45-0.45,,,,,,,5d7e1d2db5bd580017d11cec,11:24:21,15/01/2024
,"<p style=""font-size:14rem;font-weight:400;"">8</p>",,fwdspan,number,Eq2ZignGQZgEjJDpilw50KNCV7A3,html-keyboard-response,100,682148,0.0-7.0-2.8-0.8-1.46-0.46,,,,,,,5d7e1d2db5bd580017d11cec,11:24:21,15/01/2024
,"<p style=""font-size:14rem;font-weight:400;"">7</p>",,fwdspan,number,Eq2ZignGQZgEjJDpilw50KNCV7A3,html-keyboard-response,101,683154,0.0-7.0-2.8-0.8-1.47-0.47,,,,,,,5d7e1d2db5bd580017d11cec,11:24:21,15/01/2024
,"<p style=""font-size:14rem;font-weight:400;"">1</p>",,fwdspan,number,Eq2ZignGQZgEjJDpilw50KNCV7A3,html-keyboard-response,102,684160,0.0-7.0-2.8-0.8-1.48-0.48,,,,,,,5d7e1d2db5bd580017d11cec,11:24:21,15/01/2024
,[],,fwdspan,delay,Eq2ZignGQZgEjJDpilw50KNCV7A3,html-keyboard-response,103,684722,0.0-7.0-2.8-0.8-2.8,,,,,,,5d7e1d2db5bd580017d11cec,11:24:21,15/01/2024
6162.0,"<div class = numbox><p style=""font-size:2.5rem"">What were the numbers <b>in order</b>?<br>(When you are ready to lock in your answer, press <b>ENTER</b>)</p><button id = button_1 class = ""square num-button"" onclick = ""recordClick(this)""><div class = content><div class = numbers>1</div></div></button><button id = button_2 class = ""square num-button"" onclick = ""recordClick(this)""><div class = content><div class = numbers>2</div></div></button><button id = button_3 class = ""square num-button"" onclick = ""recordClick(this)""><div class = content><div class = numbers>3</div></div></button><button id = button_4 class = ""square num-button"" onclick = ""recordClick(this)""><div class = content><div class = numbers>4</div></div></button><button id = button_5 class = ""square num-button"" onclick = ""recordClick(this)""><div class = content><div class = numbers>5</div></div></button><button id = button_6 class = ""square num-button"" onclick = ""recordClick(this)""><div class = content><div class = numbers>6</div></div></button><button id = button_7 class = ""square num-button"" onclick = ""recordClick(this)""><div class = content><div class = numbers>7</div></div></button><button id = button_8 class = ""square num-button"" onclick = ""recordClick(this)""><div class = content><div class = numbers>8</div></div></button><button id = button_9 class = ""square num-button"" onclick = ""recordClick(this)""><div class = content><div class = numbers>9</div></div></button><button class = clear_button id = ""ClearButton"" onclick = ""clearResponse()"">Clear</button><p><u><b>Current Answer:</b></u></p><div id=echoed_txt style=""font-size: 6rem; color:blue;""><b></b></div></div><br><br><br><br><br><br><br>",enter,fwdspan,response,Eq2ZignGQZgEjJDpilw50KNCV7A3,html-keyboard-response,104,690884,0.0-7.0-2.8-0.8-3.8,6.0,"[3,9,4,8,7,1]","[3,9,4,8,7,1]",1.0,"[3, 4, 5, 5, 6, 6, 7, 7, 6, 7, 7, 6]",,5d7e1d2db5bd580017d11cec,11:24:21,15/01/2024
,,,fwdspan,update_span,Eq2ZignGQZgEjJDpilw50KNCV7A3,call-function,105,691141,0.0-7.0-2.8-0.8-4.8,,,,,,,5d7e1d2db5bd580017d11cec,11:24:21,15/01/2024
1062.0,"<p style=""font-size:3rem"">Trial 10 of 12</p><br><br><br>",0,fwdspan,start_trial,Eq2ZignGQZgEjJDpilw50KNCV7A3,html-button-response,106,692209,0.0-7.0-2.9-0.9-0.9,,,,,,,5d7e1d2db5bd580017d11cec,11:24:21,15/01/2024
,"<p style=""font-size:14rem;font-weight:400;"">1</p>",,fwdspan,number,Eq2ZignGQZgEjJDpilw50KNCV7A3,html-keyboard-response,107,693213,0.0-7.0-2.9-0.9-1.49-0.49,,,,,,,5d7e1d2db5bd580017d11cec,11:24:21,15/01/2024
,"<p style=""font-size:14rem;font-weight:400;"">2</p>",,fwdspan,number,Eq2ZignGQZgEjJDpilw50KNCV7A3,html-keyboard-response,108,694220,0.0-7.0-2.9-0.9-1.50-0.50,,,,,,,5d7e1d2db5bd580017d11cec,11:24:21,15/01/2024
,"<p style=""font-size:14rem;font-weight:400;"">9</p>",,fwdspan,number,Eq2ZignGQZgEjJDpilw50KNCV7A3,html-keyboard-response,109,695226,0.0-7.0-2.9-0.9-1.51-0.51,,,,,,,5d7e1d2db5bd580017d11cec,11:24:21,15/01/2024
,"<p style=""font-size:14rem;font-weight:400;"">5</p>",,fwdspan,number,Eq2ZignGQZgEjJDpilw50KNCV7A3,html-keyboard-response,110,696234,0.0-7.0-2.9-0.9-1.52-0.52,,,,,,,5d7e1d2db5bd580017d11cec,11:24:21,15/01/2024
,"<p style=""font-size:14rem;font-weight:400;"">7</p>",,fwdspan,number,Eq2ZignGQZgEjJDpilw50KNCV7A3,html-keyboard-response,111,697238,0.0-7.0-2.9-0.9-1.53-0.53,,,,,,,5d7e1d2db5bd580017d11cec,11:24:21,15/01/2024
,"<p style=""font-size:14rem;font-weight:400;"">4</p>",,fwdspan,number,Eq2ZignGQZgEjJDpilw50KNCV7A3,html-keyboard-response,112,698245,0.0-7.0-2.9-0.9-1.54-0.54,,,,,,,5d7e1d2db5bd580017d11cec,11:24:21,15/01/2024
,"<p style=""font-size:14rem;font-weight:400;"">6</p>",,fwdspan,number,Eq2ZignGQZgEjJDpilw50KNCV7A3,html-keyboard-response,113,699251,0.0-7.0-2.9-0.9-1.55-0.55,,,,,,,5d7e1d2db5bd580017d11cec,11:24:21,15/01/2024
,[],,fwdspan,delay,Eq2ZignGQZgEjJDpilw50KNCV7A3,html-keyboard-response,114,699815,0.0-7.0-2.9-0.9-2.9,,,,,,,5d7e1d2db5bd580017d11cec,11:24:21,15/01/2024
5413.0,"<div class = numbox><p style=""font-size:2.5rem"">What were the numbers <b>in order</b>?<br>(When you are ready to lock in your answer, press <b>ENTER</b>)</p><button id = button_1 class = ""square num-button"" onclick = ""recordClick(this)""><div class = content><div class = numbers>1</div></div></button><button id = button_2 class = ""square num-button"" onclick = ""recordClick(this)""><div class = content><div class = numbers>2</div></div></button><button id = button_3 class = ""square num-button"" onclick = ""recordClick(this)""><div class = content><div class = numbers>3</div></div></button><button id = button_4 class = ""square num-button"" onclick = ""recordClick(this)""><div class = content><div class = numbers>4</div></div></button><button id = button_5 class = ""square num-button"" onclick = ""recordClick(this)""><div class = content><div class = numbers>5</div></div></button><button id = button_6 class = ""square num-button"" onclick = ""recordClick(this)""><div class = content><div class = numbers>6</div></div></button><button id = button_7 class = ""square num-button"" onclick = ""recordClick(this)""><div class = content><div class = numbers>7</div></div></button><button id = button_8 class = ""square num-button"" onclick = ""recordClick(this)""><div class = content><div class = numbers>8</div></div></button><button id = button_9 class = ""square num-button"" onclick = ""recordClick(this)""><div class = content><div class = numbers>9</div></div></button><button class = clear_button id = ""ClearButton"" onclick = ""clearResponse()"">Clear</button><p><u><b>Current Answer:</b></u></p><div id=echoed_txt style=""font-size: 6rem; color:blue;""><b></b></div></div><br><br><br><br><br><br><br>",enter,fwdspan,response,Eq2ZignGQZgEjJDpilw50KNCV7A3,html-keyboard-response,115,705237,0.0-7.0-2.9-0.9-3.9,7.0,"[1,2,9,5,7,6,1]","[1,2,9,5,7,4,6]",0.0,"[3, 4, 5, 5, 6, 6, 7, 7, 6, 7, 7, 6]",,5d7e1d2db5bd580017d11cec,11:24:21,15/01/2024
,,,fwdspan,update_span,Eq2ZignGQZgEjJDpilw50KNCV7A3,call-function,116,705489,0.0-7.0-2.9-0.9-4.9,,,,,,,5d7e1d2db5bd580017d11cec,11:24:21,15/01/2024
816.0,"<p style=""font-size:3rem"">Trial 11 of 12</p><br><br><br>",0,fwdspan,start_trial,Eq2ZignGQZgEjJDpilw50KNCV7A3,html-button-response,117,706305,0.0-7.0-2.10-0.10-0.10,,,,,,,5d7e1d2db5bd580017d11cec,11:24:21,15/01/2024
,"<p style=""font-size:14rem;font-weight:400;"">5</p>",,fwdspan,number,Eq2ZignGQZgEjJDpilw50KNCV7A3,html-keyboard-response,118,707323,0.0-7.0-2.10-0.10-1.56-0.56,,,,,,,5d7e1d2db5bd580017d11cec,11:24:21,15/01/2024
,"<p style=""font-size:14rem;font-weight:400;"">9</p>",,fwdspan,number,Eq2ZignGQZgEjJDpilw50KNCV7A3,html-keyboard-response,119,708335,0.0-7.0-2.10-0.10-1.57-0.57,,,,,,,5d7e1d2db5bd580017d11cec,11:24:21,15/01/2024
,"<p style=""font-size:14rem;font-weight:400;"">8</p>",,fwdspan,number,Eq2ZignGQZgEjJDpilw50KNCV7A3,html-keyboard-response,120,709344,0.0-7.0-2.10-0.10-1.58-0.58,,,,,,,5d7e1d2db5bd580017d11cec,11:24:21,15/01/2024
,"<p style=""font-size:14rem;font-weight:400;"">1</p>",,fwdspan,number,Eq2ZignGQZgEjJDpilw50KNCV7A3,html-keyboard-response,121,710349,0.0-7.0-2.10-0.10-1.59-0.59,,,,,,,5d7e1d2db5bd580017d11cec,11:24:21,15/01/2024
,"<p style=""font-size:14rem;font-weight:400;"">6</p>",,fwdspan,number,Eq2ZignGQZgEjJDpilw50KNCV7A3,html-keyboard-response,122,711358,0.0-7.0-2.10-0.10-1.60-0.60,,,,,,,5d7e1d2db5bd580017d11cec,11:24:21,15/01/2024
,"<p style=""font-size:14rem;font-weight:400;"">2</p>",,fwdspan,number,Eq2ZignGQZgEjJDpilw50KNCV7A3,html-keyboard-response,123,712364,0.0-7.0-2.10-0.10-1.61-0.61,,,,,,,5d7e1d2db5bd580017d11cec,11:24:21,15/01/2024
,"<p style=""font-size:14rem;font-weight:400;"">7</p>",,fwdspan,number,Eq2ZignGQZgEjJDpilw50KNCV7A3,html-keyboard-response,124,713368,0.0-7.0-2.10-0.10-1.62-0.62,,,,,,,5d7e1d2db5bd580017d11cec,11:24:21,15/01/2024
,[],,fwdspan,delay,Eq2ZignGQZgEjJDpilw50KNCV7A3,html-keyboard-response,125,713927,0.0-7.0-2.10-0.10-2.10,,,,,,,5d7e1d2db5bd580017d11cec,11:24:21,15/01/2024
6526.0,"<div class = numbox><p style=""font-size:2.5rem"">What were the numbers <b>in order</b>?<br>(When you are ready to lock in your answer, press <b>ENTER</b>)</p><button id = button_1 class = ""square num-button"" onclick = ""recordClick(this)""><div class = content><div class = numbers>1</div></div></button><button id = button_2 class = ""square num-button"" onclick = ""recordClick(this)""><div class = content><div class = numbers>2</div></div></button><button id = button_3 class = ""square num-button"" onclick = ""recordClick(this)""><div class = content><div class = numbers>3</div></div></button><button id = button_4 class = ""square num-button"" onclick = ""recordClick(this)""><div class = content><div class = numbers>4</div></div></button><button id = button_5 class = ""square num-button"" onclick = ""recordClick(this)""><div class = content><div class = numbers>5</div></div></button><button id = button_6 class = ""square num-button"" onclick = ""recordClick(this)""><div class = content><div class = numbers>6</div></div></button><button id = button_7 class = ""square num-button"" onclick = ""recordClick(this)""><div class = content><div class = numbers>7</div></div></button><button id = button_8 class = ""square num-button"" onclick = ""recordClick(this)""><div class = content><div class = numbers>8</div></div></button><button id = button_9 class = ""square num-button"" onclick = ""recordClick(this)""><div class = content><div class = numbers>9</div></div></button><button class = clear_button id = ""ClearButton"" onclick = ""clearResponse()"">Clear</button><p><u><b>Current Answer:</b></u></p><div id=echoed_txt style=""font-size: 6rem; color:blue;""><b></b></div></div><br><br><br><br><br><br><br>",enter,fwdspan,response,Eq2ZignGQZgEjJDpilw50KNCV7A3,html-keyboard-response,126,720470,0.0-7.0-2.10-0.10-3.10,7.0,"[5,9,8,7,6,2,1]","[5,9,8,1,6,2,7]",0.0,"[3, 4, 5, 5, 6, 6, 7, 7, 6, 7, 7, 6]",,5d7e1d2db5bd580017d11cec,11:24:21,15/01/2024
,,,fwdspan,update_span,Eq2ZignGQZgEjJDpilw50KNCV7A3,call-function,127,720730,0.0-7.0-2.10-0.10-4.10,,,,,,,5d7e1d2db5bd580017d11cec,11:24:21,15/01/2024
1047.0,"<p style=""font-size:3rem"">Trial 12 of 12</p><br><br><br>",0,fwdspan,start_trial,Eq2ZignGQZgEjJDpilw50KNCV7A3,html-button-response,128,721780,0.0-7.0-2.11-0.11-0.11,,,,,,,5d7e1d2db5bd580017d11cec,11:24:21,15/01/2024
,"<p style=""font-size:14rem;font-weight:400;"">2</p>",,fwdspan,number,Eq2ZignGQZgEjJDpilw50KNCV7A3,html-keyboard-response,129,722795,0.0-7.0-2.11-0.11-1.63-0.63,,,,,,,5d7e1d2db5bd580017d11cec,11:24:21,15/01/2024
,"<p style=""font-size:14rem;font-weight:400;"">1</p>",,fwdspan,number,Eq2ZignGQZgEjJDpilw50KNCV7A3,html-keyboard-response,130,723812,0.0-7.0-2.11-0.11-1.64-0.64,,,,,,,5d7e1d2db5bd580017d11cec,11:24:21,15/01/2024
,"<p style=""font-size:14rem;font-weight:400;"">3</p>",,fwdspan,number,Eq2ZignGQZgEjJDpilw50KNCV7A3,html-keyboard-response,131,724829,0.0-7.0-2.11-0.11-1.65-0.65,,,,,,,5d7e1d2db5bd580017d11cec,11:24:21,15/01/2024
,"<p style=""font-size:14rem;font-weight:400;"">4</p>",,fwdspan,number,Eq2ZignGQZgEjJDpilw50KNCV7A3,html-keyboard-response,132,725835,0.0-7.0-2.11-0.11-1.66-0.66,,,,,,,5d7e1d2db5bd580017d11cec,11:24:21,15/01/2024
,"<p style=""font-size:14rem;font-weight:400;"">8</p>",,fwdspan,number,Eq2ZignGQZgEjJDpilw50KNCV7A3,html-keyboard-response,133,726843,0.0-7.0-2.11-0.11-1.67-0.67,,,,,,,5d7e1d2db5bd580017d11cec,11:24:21,15/01/2024
,"<p style=""font-size:14rem;font-weight:400;"">7</p>",,fwdspan,number,Eq2ZignGQZgEjJDpilw50KNCV7A3,html-keyboard-response,134,727851,0.0-7.0-2.11-0.11-1.68-0.68,,,,,,,5d7e1d2db5bd580017d11cec,11:24:21,15/01/2024
,[],,fwdspan,delay,Eq2ZignGQZgEjJDpilw50KNCV7A3,html-keyboard-response,135,728405,0.0-7.0-2.11-0.11-2.11,,,,,,,5d7e1d2db5bd580017d11cec,11:24:21,15/01/2024
6305.0,"<div class = numbox><p style=""font-size:2.5rem"">What were the numbers <b>in order</b>?<br>(When you are ready to lock in your answer, press <b>ENTER</b>)</p><button id = button_1 class = ""square num-button"" onclick = ""recordClick(this)""><div class = content><div class = numbers>1</div></div></button><button id = button_2 class = ""square num-button"" onclick = ""recordClick(this)""><div class = content><div class = numbers>2</div></div></button><button id = button_3 class = ""square num-button"" onclick = ""recordClick(this)""><div class = content><div class = numbers>3</div></div></button><button id = button_4 class = ""square num-button"" onclick = ""recordClick(this)""><div class = content><div class = numbers>4</div></div></button><button id = button_5 class = ""square num-button"" onclick = ""recordClick(this)""><div class = content><div class = numbers>5</div></div></button><button id = button_6 class = ""square num-button"" onclick = ""recordClick(this)""><div class = content><div class = numbers>6</div></div></button><button id = button_7 class = ""square num-button"" onclick = ""recordClick(this)""><div class = content><div class = numbers>7</div></div></button><button id = button_8 class = ""square num-button"" onclick = ""recordClick(this)""><div class = content><div class = numbers>8</div></div></button><button id = button_9 class = ""square num-button"" onclick = ""recordClick(this)""><div class = content><div class = numbers>9</div></div></button><button class = clear_button id = ""ClearButton"" onclick = ""clearResponse()"">Clear</button><p><u><b>Current Answer:</b></u></p><div id=echoed_txt style=""font-size: 6rem; color:blue;""><b></b></div></div><br><br><br><br><br><br><br>",enter,fwdspan,response,Eq2ZignGQZgEjJDpilw50KNCV7A3,html-keyboard-response,136,734710,0.0-7.0-2.11-0.11-3.11,6.0,"[2,1,4,7,8,1]","[2,1,3,4,8,7]",0.0,"[3, 4, 5, 5, 6, 6, 7, 7, 6, 7, 7, 6]",,5d7e1d2db5bd580017d11cec,11:24:21,15/01/2024
,,,fwdspan,update_span,Eq2ZignGQZgEjJDpilw50KNCV7A3,call-function,137,734964,0.0-7.0-2.11-0.11-4.11,,,,,,,5d7e1d2db5bd580017d11cec,11:24:21,15/01/2024
41316.0,,"{'Q0': 'I probably would have been able to type out the numbers to help my memory, rather than pressing numbers.'}",fwdspan,survey,Eq2ZignGQZgEjJDpilw50KNCV7A3,lmdlab-survey-text,138,777034,0.0-7.0-3.0,,,,,,Eq2ZignGQZgEjJDpilw50KNCV7A3,5d7e1d2db5bd580017d11cec,11:24:21,15/01/2024
3168.0,<p><p style='font-size: 3rem'>Great work!<br><br>This completes the digit span task.</p><br><br><br>,0,fwdspan,finish,Eq2ZignGQZgEjJDpilw50KNCV7A3,html-button-response,139,780206,0.0-7.0-4.0,,,,,,,5d7e1d2db5bd580017d11cec,11:24:21,15/01/2024
