rt,stimulus,response,exp_name,exp_stage,subjectID,trial_type,trial_index,time_elapsed,internal_node_id,span,answer,correct,correct_full,span_history,databaseID,prolificID,start_time,date
42451.40000000596,"<p style=""font-size:4rem""><br><br>In the next part today, we have a completely different short task.<br><br><br>This part involves keeping numbers in you mind. Participation takes around 5 minutes.<br><br><br></p>",0,fwdspan,instruct,RGzZrhe9TQY4kGAMCZD903PcGn22,html-button-response,19,1167418,0.0-7.0-0.0,,,,,,,654e50a500a9557b35bd590a,11:33:57,15/01/2024
8466.5,"<p style=""font-size:5rem"">Welcome to the <b>digit span task</b>!<br><br></p><p style=""font-size:3.4rem""><br>On each trial, you will see a sequence of digits, followed by a delay.</p><p style=""font-size:3.4rem""><br>Then you will be asked to type them back in the same order in which they were seen.</p><p style=""font-size:3.4rem""><br><br><br>For example, if you saw the digits <b style=""color:blue;"">1</b>, <b style=""color:blue;"">2</b>, <b style=""color:blue;"">3</b>, you would respond with <b style=""color:blue;"">1</b>, <b style=""color:blue;"">2</b>, <b style=""color:blue;"">3</b></p><p style=""font-size:3.4rem""><br><br><br>To ensure the best measure of true performance for our study,<br><br>it is very important that you do not use any memory aid (e.g., pen and paper).<br><br>Please do the task solely in your head.</p><p style=""font-size:3.4rem""><br><br><br>There will be 12 total trials. Participation takes around 5 minutes.</p><br><br><br>",0,fwdspan,instruct,RGzZrhe9TQY4kGAMCZD903PcGn22,html-button-response,20,1175888,0.0-7.0-1.0,,,,,,,654e50a500a9557b35bd590a,11:33:57,15/01/2024
1704.6000000238419,"<p style=""font-size:3rem"">Trial 1 of 12</p><br><br><br>",0,fwdspan,start_trial,RGzZrhe9TQY4kGAMCZD903PcGn22,html-button-response,21,1177595,0.0-7.0-2.0-0.0-0.0,,,,,,,654e50a500a9557b35bd590a,11:33:57,15/01/2024
,"<p style=""font-size:14rem;font-weight:400;"">2</p>",,fwdspan,number,RGzZrhe9TQY4kGAMCZD903PcGn22,html-keyboard-response,22,1178616,0.0-7.0-2.0-0.0-1.0-0.0,,,,,,,654e50a500a9557b35bd590a,11:33:57,15/01/2024
,"<p style=""font-size:14rem;font-weight:400;"">8</p>",,fwdspan,number,RGzZrhe9TQY4kGAMCZD903PcGn22,html-keyboard-response,23,1179641,0.0-7.0-2.0-0.0-1.1-0.1,,,,,,,654e50a500a9557b35bd590a,11:33:57,15/01/2024
,"<p style=""font-size:14rem;font-weight:400;"">7</p>",,fwdspan,number,RGzZrhe9TQY4kGAMCZD903PcGn22,html-keyboard-response,24,1180659,0.0-7.0-2.0-0.0-1.2-0.2,,,,,,,654e50a500a9557b35bd590a,11:33:57,15/01/2024
,[],,fwdspan,delay,RGzZrhe9TQY4kGAMCZD903PcGn22,html-keyboard-response,25,1182970,0.0-7.0-2.0-0.0-2.0,,,,,,,654e50a500a9557b35bd590a,11:33:57,15/01/2024
5302.5,"<div class = numbox><p style=""font-size:2.5rem"">What were the numbers <b>in order</b>?<br>(When you are ready to lock in your answer, press <b>ENTER</b>)</p><button id = button_1 class = ""square num-button"" onclick = ""recordClick(this)""><div class = content><div class = numbers>1</div></div></button><button id = button_2 class = ""square num-button"" onclick = ""recordClick(this)""><div class = content><div class = numbers>2</div></div></button><button id = button_3 class = ""square num-button"" onclick = ""recordClick(this)""><div class = content><div class = numbers>3</div></div></button><button id = button_4 class = ""square num-button"" onclick = ""recordClick(this)""><div class = content><div class = numbers>4</div></div></button><button id = button_5 class = ""square num-button"" onclick = ""recordClick(this)""><div class = content><div class = numbers>5</div></div></button><button id = button_6 class = ""square num-button"" onclick = ""recordClick(this)""><div class = content><div class = numbers>6</div></div></button><button id = button_7 class = ""square num-button"" onclick = ""recordClick(this)""><div class = content><div class = numbers>7</div></div></button><button id = button_8 class = ""square num-button"" onclick = ""recordClick(this)""><div class = content><div class = numbers>8</div></div></button><button id = button_9 class = ""square num-button"" onclick = ""recordClick(this)""><div class = content><div class = numbers>9</div></div></button><button class = clear_button id = ""ClearButton"" onclick = ""clearResponse()"">Clear</button><p><u><b>Current Answer:</b></u></p><div id=echoed_txt style=""font-size: 6rem; color:blue;""><b></b></div></div><br><br><br><br><br><br><br>",enter,fwdspan,response,RGzZrhe9TQY4kGAMCZD903PcGn22,html-keyboard-response,26,1188276,0.0-7.0-2.0-0.0-3.0,3.0,"[2,8,7]","[2,8,7]",1.0,"[3, 4, 5, 6, 6, 5, 6, 6, 7, 8, 8, 7]",,654e50a500a9557b35bd590a,11:33:57,15/01/2024
,,,fwdspan,update_span,RGzZrhe9TQY4kGAMCZD903PcGn22,call-function,27,1188536,0.0-7.0-2.0-0.0-4.0,,,,,,,654e50a500a9557b35bd590a,11:33:57,15/01/2024
1184.5999999940395,"<p style=""font-size:3rem"">Trial 2 of 12</p><br><br><br>",0,fwdspan,start_trial,RGzZrhe9TQY4kGAMCZD903PcGn22,html-button-response,28,1189722,0.0-7.0-2.1-0.1-0.1,,,,,,,654e50a500a9557b35bd590a,11:33:57,15/01/2024
,"<p style=""font-size:14rem;font-weight:400;"">9</p>",,fwdspan,number,RGzZrhe9TQY4kGAMCZD903PcGn22,html-keyboard-response,29,1190745,0.0-7.0-2.1-0.1-1.3-0.3,,,,,,,654e50a500a9557b35bd590a,11:33:57,15/01/2024
,"<p style=""font-size:14rem;font-weight:400;"">7</p>",,fwdspan,number,RGzZrhe9TQY4kGAMCZD903PcGn22,html-keyboard-response,30,1191768,0.0-7.0-2.1-0.1-1.4-0.4,,,,,,,654e50a500a9557b35bd590a,11:33:57,15/01/2024
,"<p style=""font-size:14rem;font-weight:400;"">3</p>",,fwdspan,number,RGzZrhe9TQY4kGAMCZD903PcGn22,html-keyboard-response,31,1192782,0.0-7.0-2.1-0.1-1.5-0.5,,,,,,,654e50a500a9557b35bd590a,11:33:57,15/01/2024
,"<p style=""font-size:14rem;font-weight:400;"">8</p>",,fwdspan,number,RGzZrhe9TQY4kGAMCZD903PcGn22,html-keyboard-response,32,1193800,0.0-7.0-2.1-0.1-1.6-0.6,,,,,,,654e50a500a9557b35bd590a,11:33:57,15/01/2024
,[],,fwdspan,delay,RGzZrhe9TQY4kGAMCZD903PcGn22,html-keyboard-response,33,1194366,0.0-7.0-2.1-0.1-2.1,,,,,,,654e50a500a9557b35bd590a,11:33:57,15/01/2024
5079.4000000059605,"<div class = numbox><p style=""font-size:2.5rem"">What were the numbers <b>in order</b>?<br>(When you are ready to lock in your answer, press <b>ENTER</b>)</p><button id = button_1 class = ""square num-button"" onclick = ""recordClick(this)""><div class = content><div class = numbers>1</div></div></button><button id = button_2 class = ""square num-button"" onclick = ""recordClick(this)""><div class = content><div class = numbers>2</div></div></button><button id = button_3 class = ""square num-button"" onclick = ""recordClick(this)""><div class = content><div class = numbers>3</div></div></button><button id = button_4 class = ""square num-button"" onclick = ""recordClick(this)""><div class = content><div class = numbers>4</div></div></button><button id = button_5 class = ""square num-button"" onclick = ""recordClick(this)""><div class = content><div class = numbers>5</div></div></button><button id = button_6 class = ""square num-button"" onclick = ""recordClick(this)""><div class = content><div class = numbers>6</div></div></button><button id = button_7 class = ""square num-button"" onclick = ""recordClick(this)""><div class = content><div class = numbers>7</div></div></button><button id = button_8 class = ""square num-button"" onclick = ""recordClick(this)""><div class = content><div class = numbers>8</div></div></button><button id = button_9 class = ""square num-button"" onclick = ""recordClick(this)""><div class = content><div class = numbers>9</div></div></button><button class = clear_button id = ""ClearButton"" onclick = ""clearResponse()"">Clear</button><p><u><b>Current Answer:</b></u></p><div id=echoed_txt style=""font-size: 6rem; color:blue;""><b></b></div></div><br><br><br><br><br><br><br>",enter,fwdspan,response,RGzZrhe9TQY4kGAMCZD903PcGn22,html-keyboard-response,34,1199447,0.0-7.0-2.1-0.1-3.1,4.0,"[9,7,3,8]","[9,7,3,8]",1.0,"[3, 4, 5, 6, 6, 5, 6, 6, 7, 8, 8, 7]",,654e50a500a9557b35bd590a,11:33:57,15/01/2024
,,,fwdspan,update_span,RGzZrhe9TQY4kGAMCZD903PcGn22,call-function,35,1199703,0.0-7.0-2.1-0.1-4.1,,,,,,,654e50a500a9557b35bd590a,11:33:57,15/01/2024
985.6000000238419,"<p style=""font-size:3rem"">Trial 3 of 12</p><br><br><br>",0,fwdspan,start_trial,RGzZrhe9TQY4kGAMCZD903PcGn22,html-button-response,36,1200691,0.0-7.0-2.2-0.2-0.2,,,,,,,654e50a500a9557b35bd590a,11:33:57,15/01/2024
,"<p style=""font-size:14rem;font-weight:400;"">7</p>",,fwdspan,number,RGzZrhe9TQY4kGAMCZD903PcGn22,html-keyboard-response,37,1202967,0.0-7.0-2.2-0.2-1.7-0.7,,,,,,,654e50a500a9557b35bd590a,11:33:57,15/01/2024
,"<p style=""font-size:14rem;font-weight:400;"">5</p>",,fwdspan,number,RGzZrhe9TQY4kGAMCZD903PcGn22,html-keyboard-response,38,1204961,0.0-7.0-2.2-0.2-1.8-0.8,,,,,,,654e50a500a9557b35bd590a,11:33:57,15/01/2024
,"<p style=""font-size:14rem;font-weight:400;"">1</p>",,fwdspan,number,RGzZrhe9TQY4kGAMCZD903PcGn22,html-keyboard-response,39,1206970,0.0-7.0-2.2-0.2-1.9-0.9,,,,,,,654e50a500a9557b35bd590a,11:33:57,15/01/2024
,"<p style=""font-size:14rem;font-weight:400;"">6</p>",,fwdspan,number,RGzZrhe9TQY4kGAMCZD903PcGn22,html-keyboard-response,40,1208964,0.0-7.0-2.2-0.2-1.10-0.10,,,,,,,654e50a500a9557b35bd590a,11:33:57,15/01/2024
,"<p style=""font-size:14rem;font-weight:400;"">2</p>",,fwdspan,number,RGzZrhe9TQY4kGAMCZD903PcGn22,html-keyboard-response,41,1210973,0.0-7.0-2.2-0.2-1.11-0.11,,,,,,,654e50a500a9557b35bd590a,11:33:57,15/01/2024
,[],,fwdspan,delay,RGzZrhe9TQY4kGAMCZD903PcGn22,html-keyboard-response,42,1212961,0.0-7.0-2.2-0.2-2.2,,,,,,,654e50a500a9557b35bd590a,11:33:57,15/01/2024
4701.5,"<div class = numbox><p style=""font-size:2.5rem"">What were the numbers <b>in order</b>?<br>(When you are ready to lock in your answer, press <b>ENTER</b>)</p><button id = button_1 class = ""square num-button"" onclick = ""recordClick(this)""><div class = content><div class = numbers>1</div></div></button><button id = button_2 class = ""square num-button"" onclick = ""recordClick(this)""><div class = content><div class = numbers>2</div></div></button><button id = button_3 class = ""square num-button"" onclick = ""recordClick(this)""><div class = content><div class = numbers>3</div></div></button><button id = button_4 class = ""square num-button"" onclick = ""recordClick(this)""><div class = content><div class = numbers>4</div></div></button><button id = button_5 class = ""square num-button"" onclick = ""recordClick(this)""><div class = content><div class = numbers>5</div></div></button><button id = button_6 class = ""square num-button"" onclick = ""recordClick(this)""><div class = content><div class = numbers>6</div></div></button><button id = button_7 class = ""square num-button"" onclick = ""recordClick(this)""><div class = content><div class = numbers>7</div></div></button><button id = button_8 class = ""square num-button"" onclick = ""recordClick(this)""><div class = content><div class = numbers>8</div></div></button><button id = button_9 class = ""square num-button"" onclick = ""recordClick(this)""><div class = content><div class = numbers>9</div></div></button><button class = clear_button id = ""ClearButton"" onclick = ""clearResponse()"">Clear</button><p><u><b>Current Answer:</b></u></p><div id=echoed_txt style=""font-size: 6rem; color:blue;""><b></b></div></div><br><br><br><br><br><br><br>",enter,fwdspan,response,RGzZrhe9TQY4kGAMCZD903PcGn22,html-keyboard-response,43,1217664,0.0-7.0-2.2-0.2-3.2,5.0,"[7,5,1,6,2]","[7,5,1,6,2]",1.0,"[3, 4, 5, 6, 6, 5, 6, 6, 7, 8, 8, 7]",,654e50a500a9557b35bd590a,11:33:57,15/01/2024
,,,fwdspan,update_span,RGzZrhe9TQY4kGAMCZD903PcGn22,call-function,44,1217924,0.0-7.0-2.2-0.2-4.2,,,,,,,654e50a500a9557b35bd590a,11:33:57,15/01/2024
728.9000000059605,"<p style=""font-size:3rem"">Trial 4 of 12</p><br><br><br>",0,fwdspan,start_trial,RGzZrhe9TQY4kGAMCZD903PcGn22,html-button-response,45,1218655,0.0-7.0-2.3-0.3-0.3,,,,,,,654e50a500a9557b35bd590a,11:33:57,15/01/2024
,"<p style=""font-size:14rem;font-weight:400;"">5</p>",,fwdspan,number,RGzZrhe9TQY4kGAMCZD903PcGn22,html-keyboard-response,46,1219972,0.0-7.0-2.3-0.3-1.12-0.12,,,,,,,654e50a500a9557b35bd590a,11:33:57,15/01/2024
,"<p style=""font-size:14rem;font-weight:400;"">9</p>",,fwdspan,number,RGzZrhe9TQY4kGAMCZD903PcGn22,html-keyboard-response,47,1221972,0.0-7.0-2.3-0.3-1.13-0.13,,,,,,,654e50a500a9557b35bd590a,11:33:57,15/01/2024
,"<p style=""font-size:14rem;font-weight:400;"">1</p>",,fwdspan,number,RGzZrhe9TQY4kGAMCZD903PcGn22,html-keyboard-response,48,1223958,0.0-7.0-2.3-0.3-1.14-0.14,,,,,,,654e50a500a9557b35bd590a,11:33:57,15/01/2024
,"<p style=""font-size:14rem;font-weight:400;"">3</p>",,fwdspan,number,RGzZrhe9TQY4kGAMCZD903PcGn22,html-keyboard-response,49,1225972,0.0-7.0-2.3-0.3-1.15-0.15,,,,,,,654e50a500a9557b35bd590a,11:33:57,15/01/2024
,"<p style=""font-size:14rem;font-weight:400;"">6</p>",,fwdspan,number,RGzZrhe9TQY4kGAMCZD903PcGn22,html-keyboard-response,50,1227970,0.0-7.0-2.3-0.3-1.16-0.16,,,,,,,654e50a500a9557b35bd590a,11:33:57,15/01/2024
,"<p style=""font-size:14rem;font-weight:400;"">7</p>",,fwdspan,number,RGzZrhe9TQY4kGAMCZD903PcGn22,html-keyboard-response,51,1229972,0.0-7.0-2.3-0.3-1.17-0.17,,,,,,,654e50a500a9557b35bd590a,11:33:57,15/01/2024
,[],,fwdspan,delay,RGzZrhe9TQY4kGAMCZD903PcGn22,html-keyboard-response,52,1231968,0.0-7.0-2.3-0.3-2.3,,,,,,,654e50a500a9557b35bd590a,11:33:57,15/01/2024
9117.100000023842,"<div class = numbox><p style=""font-size:2.5rem"">What were the numbers <b>in order</b>?<br>(When you are ready to lock in your answer, press <b>ENTER</b>)</p><button id = button_1 class = ""square num-button"" onclick = ""recordClick(this)""><div class = content><div class = numbers>1</div></div></button><button id = button_2 class = ""square num-button"" onclick = ""recordClick(this)""><div class = content><div class = numbers>2</div></div></button><button id = button_3 class = ""square num-button"" onclick = ""recordClick(this)""><div class = content><div class = numbers>3</div></div></button><button id = button_4 class = ""square num-button"" onclick = ""recordClick(this)""><div class = content><div class = numbers>4</div></div></button><button id = button_5 class = ""square num-button"" onclick = ""recordClick(this)""><div class = content><div class = numbers>5</div></div></button><button id = button_6 class = ""square num-button"" onclick = ""recordClick(this)""><div class = content><div class = numbers>6</div></div></button><button id = button_7 class = ""square num-button"" onclick = ""recordClick(this)""><div class = content><div class = numbers>7</div></div></button><button id = button_8 class = ""square num-button"" onclick = ""recordClick(this)""><div class = content><div class = numbers>8</div></div></button><button id = button_9 class = ""square num-button"" onclick = ""recordClick(this)""><div class = content><div class = numbers>9</div></div></button><button class = clear_button id = ""ClearButton"" onclick = ""clearResponse()"">Clear</button><p><u><b>Current Answer:</b></u></p><div id=echoed_txt style=""font-size: 6rem; color:blue;""><b></b></div></div><br><br><br><br><br><br><br>",enter,fwdspan,response,RGzZrhe9TQY4kGAMCZD903PcGn22,html-keyboard-response,53,1241088,0.0-7.0-2.3-0.3-3.3,6.0,"[5,3,1,3,6,7]","[5,9,1,3,6,7]",0.0,"[3, 4, 5, 6, 6, 5, 6, 6, 7, 8, 8, 7]",,654e50a500a9557b35bd590a,11:33:57,15/01/2024
,,,fwdspan,update_span,RGzZrhe9TQY4kGAMCZD903PcGn22,call-function,54,1241353,0.0-7.0-2.3-0.3-4.3,,,,,,,654e50a500a9557b35bd590a,11:33:57,15/01/2024
1260.5,"<p style=""font-size:3rem"">Trial 5 of 12</p><br><br><br>",0,fwdspan,start_trial,RGzZrhe9TQY4kGAMCZD903PcGn22,html-button-response,55,1242616,0.0-7.0-2.4-0.4-0.4,,,,,,,654e50a500a9557b35bd590a,11:33:57,15/01/2024
,"<p style=""font-size:14rem;font-weight:400;"">3</p>",,fwdspan,number,RGzZrhe9TQY4kGAMCZD903PcGn22,html-keyboard-response,56,1243969,0.0-7.0-2.4-0.4-1.18-0.18,,,,,,,654e50a500a9557b35bd590a,11:33:57,15/01/2024
,"<p style=""font-size:14rem;font-weight:400;"">4</p>",,fwdspan,number,RGzZrhe9TQY4kGAMCZD903PcGn22,html-keyboard-response,57,1245967,0.0-7.0-2.4-0.4-1.19-0.19,,,,,,,654e50a500a9557b35bd590a,11:33:57,15/01/2024
,"<p style=""font-size:14rem;font-weight:400;"">7</p>",,fwdspan,number,RGzZrhe9TQY4kGAMCZD903PcGn22,html-keyboard-response,58,1247959,0.0-7.0-2.4-0.4-1.20-0.20,,,,,,,654e50a500a9557b35bd590a,11:33:57,15/01/2024
,"<p style=""font-size:14rem;font-weight:400;"">2</p>",,fwdspan,number,RGzZrhe9TQY4kGAMCZD903PcGn22,html-keyboard-response,59,1249966,0.0-7.0-2.4-0.4-1.21-0.21,,,,,,,654e50a500a9557b35bd590a,11:33:57,15/01/2024
,"<p style=""font-size:14rem;font-weight:400;"">5</p>",,fwdspan,number,RGzZrhe9TQY4kGAMCZD903PcGn22,html-keyboard-response,60,1251966,0.0-7.0-2.4-0.4-1.22-0.22,,,,,,,654e50a500a9557b35bd590a,11:33:57,15/01/2024
,"<p style=""font-size:14rem;font-weight:400;"">6</p>",,fwdspan,number,RGzZrhe9TQY4kGAMCZD903PcGn22,html-keyboard-response,61,1253966,0.0-7.0-2.4-0.4-1.23-0.23,,,,,,,654e50a500a9557b35bd590a,11:33:57,15/01/2024
,[],,fwdspan,delay,RGzZrhe9TQY4kGAMCZD903PcGn22,html-keyboard-response,62,1255963,0.0-7.0-2.4-0.4-2.4,,,,,,,654e50a500a9557b35bd590a,11:33:57,15/01/2024
12533.200000017881,"<div class = numbox><p style=""font-size:2.5rem"">What were the numbers <b>in order</b>?<br>(When you are ready to lock in your answer, press <b>ENTER</b>)</p><button id = button_1 class = ""square num-button"" onclick = ""recordClick(this)""><div class = content><div class = numbers>1</div></div></button><button id = button_2 class = ""square num-button"" onclick = ""recordClick(this)""><div class = content><div class = numbers>2</div></div></button><button id = button_3 class = ""square num-button"" onclick = ""recordClick(this)""><div class = content><div class = numbers>3</div></div></button><button id = button_4 class = ""square num-button"" onclick = ""recordClick(this)""><div class = content><div class = numbers>4</div></div></button><button id = button_5 class = ""square num-button"" onclick = ""recordClick(this)""><div class = content><div class = numbers>5</div></div></button><button id = button_6 class = ""square num-button"" onclick = ""recordClick(this)""><div class = content><div class = numbers>6</div></div></button><button id = button_7 class = ""square num-button"" onclick = ""recordClick(this)""><div class = content><div class = numbers>7</div></div></button><button id = button_8 class = ""square num-button"" onclick = ""recordClick(this)""><div class = content><div class = numbers>8</div></div></button><button id = button_9 class = ""square num-button"" onclick = ""recordClick(this)""><div class = content><div class = numbers>9</div></div></button><button class = clear_button id = ""ClearButton"" onclick = ""clearResponse()"">Clear</button><p><u><b>Current Answer:</b></u></p><div id=echoed_txt style=""font-size: 6rem; color:blue;""><b></b></div></div><br><br><br><br><br><br><br>",enter,fwdspan,response,RGzZrhe9TQY4kGAMCZD903PcGn22,html-keyboard-response,63,1268499,0.0-7.0-2.4-0.4-3.4,6.0,"[3,2,7,5,2,6]","[3,4,7,2,5,6]",0.0,"[3, 4, 5, 6, 6, 5, 6, 6, 7, 8, 8, 7]",,654e50a500a9557b35bd590a,11:33:57,15/01/2024
,,,fwdspan,update_span,RGzZrhe9TQY4kGAMCZD903PcGn22,call-function,64,1268764,0.0-7.0-2.4-0.4-4.4,,,,,,,654e50a500a9557b35bd590a,11:33:57,15/01/2024
1715.5,"<p style=""font-size:3rem"">Trial 6 of 12</p><br><br><br>",0,fwdspan,start_trial,RGzZrhe9TQY4kGAMCZD903PcGn22,html-button-response,65,1270481,0.0-7.0-2.5-0.5-0.5,,,,,,,654e50a500a9557b35bd590a,11:33:57,15/01/2024
,"<p style=""font-size:14rem;font-weight:400;"">4</p>",,fwdspan,number,RGzZrhe9TQY4kGAMCZD903PcGn22,html-keyboard-response,66,1271505,0.0-7.0-2.5-0.5-1.24-0.24,,,,,,,654e50a500a9557b35bd590a,11:33:57,15/01/2024
,"<p style=""font-size:14rem;font-weight:400;"">9</p>",,fwdspan,number,RGzZrhe9TQY4kGAMCZD903PcGn22,html-keyboard-response,67,1272512,0.0-7.0-2.5-0.5-1.25-0.25,,,,,,,654e50a500a9557b35bd590a,11:33:57,15/01/2024
,"<p style=""font-size:14rem;font-weight:400;"">7</p>",,fwdspan,number,RGzZrhe9TQY4kGAMCZD903PcGn22,html-keyboard-response,68,1273959,0.0-7.0-2.5-0.5-1.26-0.26,,,,,,,654e50a500a9557b35bd590a,11:33:57,15/01/2024
,"<p style=""font-size:14rem;font-weight:400;"">2</p>",,fwdspan,number,RGzZrhe9TQY4kGAMCZD903PcGn22,html-keyboard-response,69,1275970,0.0-7.0-2.5-0.5-1.27-0.27,,,,,,,654e50a500a9557b35bd590a,11:33:57,15/01/2024
,"<p style=""font-size:14rem;font-weight:400;"">8</p>",,fwdspan,number,RGzZrhe9TQY4kGAMCZD903PcGn22,html-keyboard-response,70,1277972,0.0-7.0-2.5-0.5-1.28-0.28,,,,,,,654e50a500a9557b35bd590a,11:33:57,15/01/2024
,[],,fwdspan,delay,RGzZrhe9TQY4kGAMCZD903PcGn22,html-keyboard-response,71,1279972,0.0-7.0-2.5-0.5-2.5,,,,,,,654e50a500a9557b35bd590a,11:33:57,15/01/2024
4853.699999988079,"<div class = numbox><p style=""font-size:2.5rem"">What were the numbers <b>in order</b>?<br>(When you are ready to lock in your answer, press <b>ENTER</b>)</p><button id = button_1 class = ""square num-button"" onclick = ""recordClick(this)""><div class = content><div class = numbers>1</div></div></button><button id = button_2 class = ""square num-button"" onclick = ""recordClick(this)""><div class = content><div class = numbers>2</div></div></button><button id = button_3 class = ""square num-button"" onclick = ""recordClick(this)""><div class = content><div class = numbers>3</div></div></button><button id = button_4 class = ""square num-button"" onclick = ""recordClick(this)""><div class = content><div class = numbers>4</div></div></button><button id = button_5 class = ""square num-button"" onclick = ""recordClick(this)""><div class = content><div class = numbers>5</div></div></button><button id = button_6 class = ""square num-button"" onclick = ""recordClick(this)""><div class = content><div class = numbers>6</div></div></button><button id = button_7 class = ""square num-button"" onclick = ""recordClick(this)""><div class = content><div class = numbers>7</div></div></button><button id = button_8 class = ""square num-button"" onclick = ""recordClick(this)""><div class = content><div class = numbers>8</div></div></button><button id = button_9 class = ""square num-button"" onclick = ""recordClick(this)""><div class = content><div class = numbers>9</div></div></button><button class = clear_button id = ""ClearButton"" onclick = ""clearResponse()"">Clear</button><p><u><b>Current Answer:</b></u></p><div id=echoed_txt style=""font-size: 6rem; color:blue;""><b></b></div></div><br><br><br><br><br><br><br>",enter,fwdspan,response,RGzZrhe9TQY4kGAMCZD903PcGn22,html-keyboard-response,72,1284828,0.0-7.0-2.5-0.5-3.5,5.0,"[4,9,7,2,8]","[4,9,7,2,8]",1.0,"[3, 4, 5, 6, 6, 5, 6, 6, 7, 8, 8, 7]",,654e50a500a9557b35bd590a,11:33:57,15/01/2024
,,,fwdspan,update_span,RGzZrhe9TQY4kGAMCZD903PcGn22,call-function,73,1285090,0.0-7.0-2.5-0.5-4.5,,,,,,,654e50a500a9557b35bd590a,11:33:57,15/01/2024
1853.800000011921,"<p style=""font-size:3rem"">Trial 7 of 12</p><br><br><br>",0,fwdspan,start_trial,RGzZrhe9TQY4kGAMCZD903PcGn22,html-button-response,74,1286945,0.0-7.0-2.6-0.6-0.6,,,,,,,654e50a500a9557b35bd590a,11:33:57,15/01/2024
,"<p style=""font-size:14rem;font-weight:400;"">6</p>",,fwdspan,number,RGzZrhe9TQY4kGAMCZD903PcGn22,html-keyboard-response,75,1287958,0.0-7.0-2.6-0.6-1.29-0.29,,,,,,,654e50a500a9557b35bd590a,11:33:57,15/01/2024
,"<p style=""font-size:14rem;font-weight:400;"">2</p>",,fwdspan,number,RGzZrhe9TQY4kGAMCZD903PcGn22,html-keyboard-response,76,1288974,0.0-7.0-2.6-0.6-1.30-0.30,,,,,,,654e50a500a9557b35bd590a,11:33:57,15/01/2024
,"<p style=""font-size:14rem;font-weight:400;"">8</p>",,fwdspan,number,RGzZrhe9TQY4kGAMCZD903PcGn22,html-keyboard-response,77,1289980,0.0-7.0-2.6-0.6-1.31-0.31,,,,,,,654e50a500a9557b35bd590a,11:33:57,15/01/2024
,"<p style=""font-size:14rem;font-weight:400;"">5</p>",,fwdspan,number,RGzZrhe9TQY4kGAMCZD903PcGn22,html-keyboard-response,78,1290996,0.0-7.0-2.6-0.6-1.32-0.32,,,,,,,654e50a500a9557b35bd590a,11:33:57,15/01/2024
,"<p style=""font-size:14rem;font-weight:400;"">9</p>",,fwdspan,number,RGzZrhe9TQY4kGAMCZD903PcGn22,html-keyboard-response,79,1292970,0.0-7.0-2.6-0.6-1.33-0.33,,,,,,,654e50a500a9557b35bd590a,11:33:57,15/01/2024
,"<p style=""font-size:14rem;font-weight:400;"">4</p>",,fwdspan,number,RGzZrhe9TQY4kGAMCZD903PcGn22,html-keyboard-response,80,1294964,0.0-7.0-2.6-0.6-1.34-0.34,,,,,,,654e50a500a9557b35bd590a,11:33:57,15/01/2024
,[],,fwdspan,delay,RGzZrhe9TQY4kGAMCZD903PcGn22,html-keyboard-response,81,1296965,0.0-7.0-2.6-0.6-2.6,,,,,,,654e50a500a9557b35bd590a,11:33:57,15/01/2024
5115.300000011921,"<div class = numbox><p style=""font-size:2.5rem"">What were the numbers <b>in order</b>?<br>(When you are ready to lock in your answer, press <b>ENTER</b>)</p><button id = button_1 class = ""square num-button"" onclick = ""recordClick(this)""><div class = content><div class = numbers>1</div></div></button><button id = button_2 class = ""square num-button"" onclick = ""recordClick(this)""><div class = content><div class = numbers>2</div></div></button><button id = button_3 class = ""square num-button"" onclick = ""recordClick(this)""><div class = content><div class = numbers>3</div></div></button><button id = button_4 class = ""square num-button"" onclick = ""recordClick(this)""><div class = content><div class = numbers>4</div></div></button><button id = button_5 class = ""square num-button"" onclick = ""recordClick(this)""><div class = content><div class = numbers>5</div></div></button><button id = button_6 class = ""square num-button"" onclick = ""recordClick(this)""><div class = content><div class = numbers>6</div></div></button><button id = button_7 class = ""square num-button"" onclick = ""recordClick(this)""><div class = content><div class = numbers>7</div></div></button><button id = button_8 class = ""square num-button"" onclick = ""recordClick(this)""><div class = content><div class = numbers>8</div></div></button><button id = button_9 class = ""square num-button"" onclick = ""recordClick(this)""><div class = content><div class = numbers>9</div></div></button><button class = clear_button id = ""ClearButton"" onclick = ""clearResponse()"">Clear</button><p><u><b>Current Answer:</b></u></p><div id=echoed_txt style=""font-size: 6rem; color:blue;""><b></b></div></div><br><br><br><br><br><br><br>",enter,fwdspan,response,RGzZrhe9TQY4kGAMCZD903PcGn22,html-keyboard-response,82,1302083,0.0-7.0-2.6-0.6-3.6,6.0,"[6,5,8,2,9,4]","[6,2,8,5,9,4]",0.0,"[3, 4, 5, 6, 6, 5, 6, 6, 7, 8, 8, 7]",,654e50a500a9557b35bd590a,11:33:57,15/01/2024
,,,fwdspan,update_span,RGzZrhe9TQY4kGAMCZD903PcGn22,call-function,83,1302343,0.0-7.0-2.6-0.6-4.6,,,,,,,654e50a500a9557b35bd590a,11:33:57,15/01/2024
1333.5999999940395,"<p style=""font-size:3rem"">Trial 8 of 12</p><br><br><br>",0,fwdspan,start_trial,RGzZrhe9TQY4kGAMCZD903PcGn22,html-button-response,84,1303678,0.0-7.0-2.7-0.7-0.7,,,,,,,654e50a500a9557b35bd590a,11:33:57,15/01/2024
,"<p style=""font-size:14rem;font-weight:400;"">7</p>",,fwdspan,number,RGzZrhe9TQY4kGAMCZD903PcGn22,html-keyboard-response,85,1304692,0.0-7.0-2.7-0.7-1.35-0.35,,,,,,,654e50a500a9557b35bd590a,11:33:57,15/01/2024
,"<p style=""font-size:14rem;font-weight:400;"">8</p>",,fwdspan,number,RGzZrhe9TQY4kGAMCZD903PcGn22,html-keyboard-response,86,1305712,0.0-7.0-2.7-0.7-1.36-0.36,,,,,,,654e50a500a9557b35bd590a,11:33:57,15/01/2024
,"<p style=""font-size:14rem;font-weight:400;"">3</p>",,fwdspan,number,RGzZrhe9TQY4kGAMCZD903PcGn22,html-keyboard-response,87,1306737,0.0-7.0-2.7-0.7-1.37-0.37,,,,,,,654e50a500a9557b35bd590a,11:33:57,15/01/2024
,"<p style=""font-size:14rem;font-weight:400;"">4</p>",,fwdspan,number,RGzZrhe9TQY4kGAMCZD903PcGn22,html-keyboard-response,88,1307761,0.0-7.0-2.7-0.7-1.38-0.38,,,,,,,654e50a500a9557b35bd590a,11:33:57,15/01/2024
,"<p style=""font-size:14rem;font-weight:400;"">9</p>",,fwdspan,number,RGzZrhe9TQY4kGAMCZD903PcGn22,html-keyboard-response,89,1308967,0.0-7.0-2.7-0.7-1.39-0.39,,,,,,,654e50a500a9557b35bd590a,11:33:57,15/01/2024
,"<p style=""font-size:14rem;font-weight:400;"">1</p>",,fwdspan,number,RGzZrhe9TQY4kGAMCZD903PcGn22,html-keyboard-response,90,1310967,0.0-7.0-2.7-0.7-1.40-0.40,,,,,,,654e50a500a9557b35bd590a,11:33:57,15/01/2024
,[],,fwdspan,delay,RGzZrhe9TQY4kGAMCZD903PcGn22,html-keyboard-response,91,1312966,0.0-7.0-2.7-0.7-2.7,,,,,,,654e50a500a9557b35bd590a,11:33:57,15/01/2024
5117.600000023842,"<div class = numbox><p style=""font-size:2.5rem"">What were the numbers <b>in order</b>?<br>(When you are ready to lock in your answer, press <b>ENTER</b>)</p><button id = button_1 class = ""square num-button"" onclick = ""recordClick(this)""><div class = content><div class = numbers>1</div></div></button><button id = button_2 class = ""square num-button"" onclick = ""recordClick(this)""><div class = content><div class = numbers>2</div></div></button><button id = button_3 class = ""square num-button"" onclick = ""recordClick(this)""><div class = content><div class = numbers>3</div></div></button><button id = button_4 class = ""square num-button"" onclick = ""recordClick(this)""><div class = content><div class = numbers>4</div></div></button><button id = button_5 class = ""square num-button"" onclick = ""recordClick(this)""><div class = content><div class = numbers>5</div></div></button><button id = button_6 class = ""square num-button"" onclick = ""recordClick(this)""><div class = content><div class = numbers>6</div></div></button><button id = button_7 class = ""square num-button"" onclick = ""recordClick(this)""><div class = content><div class = numbers>7</div></div></button><button id = button_8 class = ""square num-button"" onclick = ""recordClick(this)""><div class = content><div class = numbers>8</div></div></button><button id = button_9 class = ""square num-button"" onclick = ""recordClick(this)""><div class = content><div class = numbers>9</div></div></button><button class = clear_button id = ""ClearButton"" onclick = ""clearResponse()"">Clear</button><p><u><b>Current Answer:</b></u></p><div id=echoed_txt style=""font-size: 6rem; color:blue;""><b></b></div></div><br><br><br><br><br><br><br>",enter,fwdspan,response,RGzZrhe9TQY4kGAMCZD903PcGn22,html-keyboard-response,92,1318086,0.0-7.0-2.7-0.7-3.7,6.0,"[7,8,3,4,9,1]","[7,8,3,4,9,1]",1.0,"[3, 4, 5, 6, 6, 5, 6, 6, 7, 8, 8, 7]",,654e50a500a9557b35bd590a,11:33:57,15/01/2024
,,,fwdspan,update_span,RGzZrhe9TQY4kGAMCZD903PcGn22,call-function,93,1318352,0.0-7.0-2.7-0.7-4.7,,,,,,,654e50a500a9557b35bd590a,11:33:57,15/01/2024
1437.0,"<p style=""font-size:3rem"">Trial 9 of 12</p><br><br><br>",0,fwdspan,start_trial,RGzZrhe9TQY4kGAMCZD903PcGn22,html-button-response,94,1319790,0.0-7.0-2.8-0.8-0.8,,,,,,,654e50a500a9557b35bd590a,11:33:57,15/01/2024
,"<p style=""font-size:14rem;font-weight:400;"">2</p>",,fwdspan,number,RGzZrhe9TQY4kGAMCZD903PcGn22,html-keyboard-response,95,1320801,0.0-7.0-2.8-0.8-1.41-0.41,,,,,,,654e50a500a9557b35bd590a,11:33:57,15/01/2024
,"<p style=""font-size:14rem;font-weight:400;"">1</p>",,fwdspan,number,RGzZrhe9TQY4kGAMCZD903PcGn22,html-keyboard-response,96,1321807,0.0-7.0-2.8-0.8-1.42-0.42,,,,,,,654e50a500a9557b35bd590a,11:33:57,15/01/2024
,"<p style=""font-size:14rem;font-weight:400;"">9</p>",,fwdspan,number,RGzZrhe9TQY4kGAMCZD903PcGn22,html-keyboard-response,97,1322823,0.0-7.0-2.8-0.8-1.43-0.43,,,,,,,654e50a500a9557b35bd590a,11:33:57,15/01/2024
,"<p style=""font-size:14rem;font-weight:400;"">4</p>",,fwdspan,number,RGzZrhe9TQY4kGAMCZD903PcGn22,html-keyboard-response,98,1323836,0.0-7.0-2.8-0.8-1.44-0.44,,,,,,,654e50a500a9557b35bd590a,11:33:57,15/01/2024
,"<p style=""font-size:14rem;font-weight:400;"">3</p>",,fwdspan,number,RGzZrhe9TQY4kGAMCZD903PcGn22,html-keyboard-response,99,1324960,0.0-7.0-2.8-0.8-1.45-0.45,,,,,,,654e50a500a9557b35bd590a,11:33:57,15/01/2024
,"<p style=""font-size:14rem;font-weight:400;"">7</p>",,fwdspan,number,RGzZrhe9TQY4kGAMCZD903PcGn22,html-keyboard-response,100,1326968,0.0-7.0-2.8-0.8-1.46-0.46,,,,,,,654e50a500a9557b35bd590a,11:33:57,15/01/2024
,"<p style=""font-size:14rem;font-weight:400;"">6</p>",,fwdspan,number,RGzZrhe9TQY4kGAMCZD903PcGn22,html-keyboard-response,101,1328970,0.0-7.0-2.8-0.8-1.47-0.47,,,,,,,654e50a500a9557b35bd590a,11:33:57,15/01/2024
,[],,fwdspan,delay,RGzZrhe9TQY4kGAMCZD903PcGn22,html-keyboard-response,102,1330962,0.0-7.0-2.8-0.8-2.8,,,,,,,654e50a500a9557b35bd590a,11:33:57,15/01/2024
7119.0999999940395,"<div class = numbox><p style=""font-size:2.5rem"">What were the numbers <b>in order</b>?<br>(When you are ready to lock in your answer, press <b>ENTER</b>)</p><button id = button_1 class = ""square num-button"" onclick = ""recordClick(this)""><div class = content><div class = numbers>1</div></div></button><button id = button_2 class = ""square num-button"" onclick = ""recordClick(this)""><div class = content><div class = numbers>2</div></div></button><button id = button_3 class = ""square num-button"" onclick = ""recordClick(this)""><div class = content><div class = numbers>3</div></div></button><button id = button_4 class = ""square num-button"" onclick = ""recordClick(this)""><div class = content><div class = numbers>4</div></div></button><button id = button_5 class = ""square num-button"" onclick = ""recordClick(this)""><div class = content><div class = numbers>5</div></div></button><button id = button_6 class = ""square num-button"" onclick = ""recordClick(this)""><div class = content><div class = numbers>6</div></div></button><button id = button_7 class = ""square num-button"" onclick = ""recordClick(this)""><div class = content><div class = numbers>7</div></div></button><button id = button_8 class = ""square num-button"" onclick = ""recordClick(this)""><div class = content><div class = numbers>8</div></div></button><button id = button_9 class = ""square num-button"" onclick = ""recordClick(this)""><div class = content><div class = numbers>9</div></div></button><button class = clear_button id = ""ClearButton"" onclick = ""clearResponse()"">Clear</button><p><u><b>Current Answer:</b></u></p><div id=echoed_txt style=""font-size: 6rem; color:blue;""><b></b></div></div><br><br><br><br><br><br><br>",enter,fwdspan,response,RGzZrhe9TQY4kGAMCZD903PcGn22,html-keyboard-response,103,1338084,0.0-7.0-2.8-0.8-3.8,7.0,"[2,1,9,4,3,7,6]","[2,1,9,4,3,7,6]",1.0,"[3, 4, 5, 6, 6, 5, 6, 6, 7, 8, 8, 7]",,654e50a500a9557b35bd590a,11:33:57,15/01/2024
,,,fwdspan,update_span,RGzZrhe9TQY4kGAMCZD903PcGn22,call-function,104,1338343,0.0-7.0-2.8-0.8-4.8,,,,,,,654e50a500a9557b35bd590a,11:33:57,15/01/2024
2233.5,"<p style=""font-size:3rem"">Trial 10 of 12</p><br><br><br>",0,fwdspan,start_trial,RGzZrhe9TQY4kGAMCZD903PcGn22,html-button-response,105,1340578,0.0-7.0-2.9-0.9-0.9,,,,,,,654e50a500a9557b35bd590a,11:33:57,15/01/2024
,"<p style=""font-size:14rem;font-weight:400;"">4</p>",,fwdspan,number,RGzZrhe9TQY4kGAMCZD903PcGn22,html-keyboard-response,106,1341598,0.0-7.0-2.9-0.9-1.48-0.48,,,,,,,654e50a500a9557b35bd590a,11:33:57,15/01/2024
,"<p style=""font-size:14rem;font-weight:400;"">5</p>",,fwdspan,number,RGzZrhe9TQY4kGAMCZD903PcGn22,html-keyboard-response,107,1342620,0.0-7.0-2.9-0.9-1.49-0.49,,,,,,,654e50a500a9557b35bd590a,11:33:57,15/01/2024
,"<p style=""font-size:14rem;font-weight:400;"">2</p>",,fwdspan,number,RGzZrhe9TQY4kGAMCZD903PcGn22,html-keyboard-response,108,1344963,0.0-7.0-2.9-0.9-1.50-0.50,,,,,,,654e50a500a9557b35bd590a,11:33:57,15/01/2024
,"<p style=""font-size:14rem;font-weight:400;"">7</p>",,fwdspan,number,RGzZrhe9TQY4kGAMCZD903PcGn22,html-keyboard-response,109,1346963,0.0-7.0-2.9-0.9-1.51-0.51,,,,,,,654e50a500a9557b35bd590a,11:33:57,15/01/2024
,"<p style=""font-size:14rem;font-weight:400;"">3</p>",,fwdspan,number,RGzZrhe9TQY4kGAMCZD903PcGn22,html-keyboard-response,110,1348969,0.0-7.0-2.9-0.9-1.52-0.52,,,,,,,654e50a500a9557b35bd590a,11:33:57,15/01/2024
,"<p style=""font-size:14rem;font-weight:400;"">1</p>",,fwdspan,number,RGzZrhe9TQY4kGAMCZD903PcGn22,html-keyboard-response,111,1350962,0.0-7.0-2.9-0.9-1.53-0.53,,,,,,,654e50a500a9557b35bd590a,11:33:57,15/01/2024
,"<p style=""font-size:14rem;font-weight:400;"">9</p>",,fwdspan,number,RGzZrhe9TQY4kGAMCZD903PcGn22,html-keyboard-response,112,1352962,0.0-7.0-2.9-0.9-1.54-0.54,,,,,,,654e50a500a9557b35bd590a,11:33:57,15/01/2024
,"<p style=""font-size:14rem;font-weight:400;"">6</p>",,fwdspan,number,RGzZrhe9TQY4kGAMCZD903PcGn22,html-keyboard-response,113,1354965,0.0-7.0-2.9-0.9-1.55-0.55,,,,,,,654e50a500a9557b35bd590a,11:33:57,15/01/2024
,[],,fwdspan,delay,RGzZrhe9TQY4kGAMCZD903PcGn22,html-keyboard-response,114,1356967,0.0-7.0-2.9-0.9-2.9,,,,,,,654e50a500a9557b35bd590a,11:33:57,15/01/2024
6520.199999988079,"<div class = numbox><p style=""font-size:2.5rem"">What were the numbers <b>in order</b>?<br>(When you are ready to lock in your answer, press <b>ENTER</b>)</p><button id = button_1 class = ""square num-button"" onclick = ""recordClick(this)""><div class = content><div class = numbers>1</div></div></button><button id = button_2 class = ""square num-button"" onclick = ""recordClick(this)""><div class = content><div class = numbers>2</div></div></button><button id = button_3 class = ""square num-button"" onclick = ""recordClick(this)""><div class = content><div class = numbers>3</div></div></button><button id = button_4 class = ""square num-button"" onclick = ""recordClick(this)""><div class = content><div class = numbers>4</div></div></button><button id = button_5 class = ""square num-button"" onclick = ""recordClick(this)""><div class = content><div class = numbers>5</div></div></button><button id = button_6 class = ""square num-button"" onclick = ""recordClick(this)""><div class = content><div class = numbers>6</div></div></button><button id = button_7 class = ""square num-button"" onclick = ""recordClick(this)""><div class = content><div class = numbers>7</div></div></button><button id = button_8 class = ""square num-button"" onclick = ""recordClick(this)""><div class = content><div class = numbers>8</div></div></button><button id = button_9 class = ""square num-button"" onclick = ""recordClick(this)""><div class = content><div class = numbers>9</div></div></button><button class = clear_button id = ""ClearButton"" onclick = ""clearResponse()"">Clear</button><p><u><b>Current Answer:</b></u></p><div id=echoed_txt style=""font-size: 6rem; color:blue;""><b></b></div></div><br><br><br><br><br><br><br>",enter,fwdspan,response,RGzZrhe9TQY4kGAMCZD903PcGn22,html-keyboard-response,115,1363489,0.0-7.0-2.9-0.9-3.9,8.0,"[4,5,2,7,3,1,9,4]","[4,5,2,7,3,1,9,6]",0.0,"[3, 4, 5, 6, 6, 5, 6, 6, 7, 8, 8, 7]",,654e50a500a9557b35bd590a,11:33:57,15/01/2024
,,,fwdspan,update_span,RGzZrhe9TQY4kGAMCZD903PcGn22,call-function,116,1363747,0.0-7.0-2.9-0.9-4.9,,,,,,,654e50a500a9557b35bd590a,11:33:57,15/01/2024
1396.5999999940395,"<p style=""font-size:3rem"">Trial 11 of 12</p><br><br><br>",0,fwdspan,start_trial,RGzZrhe9TQY4kGAMCZD903PcGn22,html-button-response,117,1365145,0.0-7.0-2.10-0.10-0.10,,,,,,,654e50a500a9557b35bd590a,11:33:57,15/01/2024
,"<p style=""font-size:14rem;font-weight:400;"">6</p>",,fwdspan,number,RGzZrhe9TQY4kGAMCZD903PcGn22,html-keyboard-response,118,1366166,0.0-7.0-2.10-0.10-1.56-0.56,,,,,,,654e50a500a9557b35bd590a,11:33:57,15/01/2024
,"<p style=""font-size:14rem;font-weight:400;"">3</p>",,fwdspan,number,RGzZrhe9TQY4kGAMCZD903PcGn22,html-keyboard-response,119,1367175,0.0-7.0-2.10-0.10-1.57-0.57,,,,,,,654e50a500a9557b35bd590a,11:33:57,15/01/2024
,"<p style=""font-size:14rem;font-weight:400;"">4</p>",,fwdspan,number,RGzZrhe9TQY4kGAMCZD903PcGn22,html-keyboard-response,120,1368192,0.0-7.0-2.10-0.10-1.58-0.58,,,,,,,654e50a500a9557b35bd590a,11:33:57,15/01/2024
,"<p style=""font-size:14rem;font-weight:400;"">7</p>",,fwdspan,number,RGzZrhe9TQY4kGAMCZD903PcGn22,html-keyboard-response,121,1369972,0.0-7.0-2.10-0.10-1.59-0.59,,,,,,,654e50a500a9557b35bd590a,11:33:57,15/01/2024
,"<p style=""font-size:14rem;font-weight:400;"">5</p>",,fwdspan,number,RGzZrhe9TQY4kGAMCZD903PcGn22,html-keyboard-response,122,1371959,0.0-7.0-2.10-0.10-1.60-0.60,,,,,,,654e50a500a9557b35bd590a,11:33:57,15/01/2024
,"<p style=""font-size:14rem;font-weight:400;"">9</p>",,fwdspan,number,RGzZrhe9TQY4kGAMCZD903PcGn22,html-keyboard-response,123,1373973,0.0-7.0-2.10-0.10-1.61-0.61,,,,,,,654e50a500a9557b35bd590a,11:33:57,15/01/2024
,"<p style=""font-size:14rem;font-weight:400;"">2</p>",,fwdspan,number,RGzZrhe9TQY4kGAMCZD903PcGn22,html-keyboard-response,124,1375959,0.0-7.0-2.10-0.10-1.62-0.62,,,,,,,654e50a500a9557b35bd590a,11:33:57,15/01/2024
,"<p style=""font-size:14rem;font-weight:400;"">8</p>",,fwdspan,number,RGzZrhe9TQY4kGAMCZD903PcGn22,html-keyboard-response,125,1377965,0.0-7.0-2.10-0.10-1.63-0.63,,,,,,,654e50a500a9557b35bd590a,11:33:57,15/01/2024
,[],,fwdspan,delay,RGzZrhe9TQY4kGAMCZD903PcGn22,html-keyboard-response,126,1379966,0.0-7.0-2.10-0.10-2.10,,,,,,,654e50a500a9557b35bd590a,11:33:57,15/01/2024
8697.899999976158,"<div class = numbox><p style=""font-size:2.5rem"">What were the numbers <b>in order</b>?<br>(When you are ready to lock in your answer, press <b>ENTER</b>)</p><button id = button_1 class = ""square num-button"" onclick = ""recordClick(this)""><div class = content><div class = numbers>1</div></div></button><button id = button_2 class = ""square num-button"" onclick = ""recordClick(this)""><div class = content><div class = numbers>2</div></div></button><button id = button_3 class = ""square num-button"" onclick = ""recordClick(this)""><div class = content><div class = numbers>3</div></div></button><button id = button_4 class = ""square num-button"" onclick = ""recordClick(this)""><div class = content><div class = numbers>4</div></div></button><button id = button_5 class = ""square num-button"" onclick = ""recordClick(this)""><div class = content><div class = numbers>5</div></div></button><button id = button_6 class = ""square num-button"" onclick = ""recordClick(this)""><div class = content><div class = numbers>6</div></div></button><button id = button_7 class = ""square num-button"" onclick = ""recordClick(this)""><div class = content><div class = numbers>7</div></div></button><button id = button_8 class = ""square num-button"" onclick = ""recordClick(this)""><div class = content><div class = numbers>8</div></div></button><button id = button_9 class = ""square num-button"" onclick = ""recordClick(this)""><div class = content><div class = numbers>9</div></div></button><button class = clear_button id = ""ClearButton"" onclick = ""clearResponse()"">Clear</button><p><u><b>Current Answer:</b></u></p><div id=echoed_txt style=""font-size: 6rem; color:blue;""><b></b></div></div><br><br><br><br><br><br><br>",enter,fwdspan,response,RGzZrhe9TQY4kGAMCZD903PcGn22,html-keyboard-response,127,1388666,0.0-7.0-2.10-0.10-3.10,8.0,"[6,3,4,7,5,9,2,3]","[6,3,4,7,5,9,2,8]",0.0,"[3, 4, 5, 6, 6, 5, 6, 6, 7, 8, 8, 7]",,654e50a500a9557b35bd590a,11:33:57,15/01/2024
,,,fwdspan,update_span,RGzZrhe9TQY4kGAMCZD903PcGn22,call-function,128,1388925,0.0-7.0-2.10-0.10-4.10,,,,,,,654e50a500a9557b35bd590a,11:33:57,15/01/2024
2029.4000000059605,"<p style=""font-size:3rem"">Trial 12 of 12</p><br><br><br>",0,fwdspan,start_trial,RGzZrhe9TQY4kGAMCZD903PcGn22,html-button-response,129,1390956,0.0-7.0-2.11-0.11-0.11,,,,,,,654e50a500a9557b35bd590a,11:33:57,15/01/2024
,"<p style=""font-size:14rem;font-weight:400;"">1</p>",,fwdspan,number,RGzZrhe9TQY4kGAMCZD903PcGn22,html-keyboard-response,130,1392969,0.0-7.0-2.11-0.11-1.64-0.64,,,,,,,654e50a500a9557b35bd590a,11:33:57,15/01/2024
,"<p style=""font-size:14rem;font-weight:400;"">5</p>",,fwdspan,number,RGzZrhe9TQY4kGAMCZD903PcGn22,html-keyboard-response,131,1394964,0.0-7.0-2.11-0.11-1.65-0.65,,,,,,,654e50a500a9557b35bd590a,11:33:57,15/01/2024
,"<p style=""font-size:14rem;font-weight:400;"">3</p>",,fwdspan,number,RGzZrhe9TQY4kGAMCZD903PcGn22,html-keyboard-response,132,1396963,0.0-7.0-2.11-0.11-1.66-0.66,,,,,,,654e50a500a9557b35bd590a,11:33:57,15/01/2024
,"<p style=""font-size:14rem;font-weight:400;"">2</p>",,fwdspan,number,RGzZrhe9TQY4kGAMCZD903PcGn22,html-keyboard-response,133,1398966,0.0-7.0-2.11-0.11-1.67-0.67,,,,,,,654e50a500a9557b35bd590a,11:33:57,15/01/2024
,"<p style=""font-size:14rem;font-weight:400;"">8</p>",,fwdspan,number,RGzZrhe9TQY4kGAMCZD903PcGn22,html-keyboard-response,134,1400962,0.0-7.0-2.11-0.11-1.68-0.68,,,,,,,654e50a500a9557b35bd590a,11:33:57,15/01/2024
,"<p style=""font-size:14rem;font-weight:400;"">7</p>",,fwdspan,number,RGzZrhe9TQY4kGAMCZD903PcGn22,html-keyboard-response,135,1402968,0.0-7.0-2.11-0.11-1.69-0.69,,,,,,,654e50a500a9557b35bd590a,11:33:57,15/01/2024
,"<p style=""font-size:14rem;font-weight:400;"">4</p>",,fwdspan,number,RGzZrhe9TQY4kGAMCZD903PcGn22,html-keyboard-response,136,1404964,0.0-7.0-2.11-0.11-1.70-0.70,,,,,,,654e50a500a9557b35bd590a,11:33:57,15/01/2024
,[],,fwdspan,delay,RGzZrhe9TQY4kGAMCZD903PcGn22,html-keyboard-response,137,1406966,0.0-7.0-2.11-0.11-2.11,,,,,,,654e50a500a9557b35bd590a,11:33:57,15/01/2024
6019.0999999940395,"<div class = numbox><p style=""font-size:2.5rem"">What were the numbers <b>in order</b>?<br>(When you are ready to lock in your answer, press <b>ENTER</b>)</p><button id = button_1 class = ""square num-button"" onclick = ""recordClick(this)""><div class = content><div class = numbers>1</div></div></button><button id = button_2 class = ""square num-button"" onclick = ""recordClick(this)""><div class = content><div class = numbers>2</div></div></button><button id = button_3 class = ""square num-button"" onclick = ""recordClick(this)""><div class = content><div class = numbers>3</div></div></button><button id = button_4 class = ""square num-button"" onclick = ""recordClick(this)""><div class = content><div class = numbers>4</div></div></button><button id = button_5 class = ""square num-button"" onclick = ""recordClick(this)""><div class = content><div class = numbers>5</div></div></button><button id = button_6 class = ""square num-button"" onclick = ""recordClick(this)""><div class = content><div class = numbers>6</div></div></button><button id = button_7 class = ""square num-button"" onclick = ""recordClick(this)""><div class = content><div class = numbers>7</div></div></button><button id = button_8 class = ""square num-button"" onclick = ""recordClick(this)""><div class = content><div class = numbers>8</div></div></button><button id = button_9 class = ""square num-button"" onclick = ""recordClick(this)""><div class = content><div class = numbers>9</div></div></button><button class = clear_button id = ""ClearButton"" onclick = ""clearResponse()"">Clear</button><p><u><b>Current Answer:</b></u></p><div id=echoed_txt style=""font-size: 6rem; color:blue;""><b></b></div></div><br><br><br><br><br><br><br>",enter,fwdspan,response,RGzZrhe9TQY4kGAMCZD903PcGn22,html-keyboard-response,138,1412988,0.0-7.0-2.11-0.11-3.11,7.0,"[1,5,3,7,8,2,4]","[1,5,3,2,8,7,4]",0.0,"[3, 4, 5, 6, 6, 5, 6, 6, 7, 8, 8, 7]",,654e50a500a9557b35bd590a,11:33:57,15/01/2024
,,,fwdspan,update_span,RGzZrhe9TQY4kGAMCZD903PcGn22,call-function,139,1413247,0.0-7.0-2.11-0.11-4.11,,,,,,,654e50a500a9557b35bd590a,11:33:57,15/01/2024
14508.899999976158,,{'Q0': 'I enjoyed the number task!'},fwdspan,survey,RGzZrhe9TQY4kGAMCZD903PcGn22,lmdlab-survey-text,140,1428518,0.0-7.0-3.0,,,,,,RGzZrhe9TQY4kGAMCZD903PcGn22,654e50a500a9557b35bd590a,11:33:57,15/01/2024
1673.3999999761581,<p><p style='font-size: 3rem'>Great work!<br><br>This completes the digit span task.</p><br><br><br>,0,fwdspan,finish,RGzZrhe9TQY4kGAMCZD903PcGn22,html-button-response,141,1430196,0.0-7.0-4.0,,,,,,,654e50a500a9557b35bd590a,11:33:57,15/01/2024
