rt,stimulus,response,exp_name,exp_stage,subjectID,trial_type,trial_index,time_elapsed,internal_node_id,span,answer,correct,correct_full,span_history,databaseID,prolificID,start_time,date
5620.4000000059605,"<p style=""font-size:4rem""><br><br>In the next part today, we have a completely different short task.<br><br><br>This part involves keeping numbers in you mind. Participation takes around 5 minutes.<br><br><br></p>",0,fwdspan,instruct,qWCP2REP6aOVuO6aSmWiI52txdf1,html-button-response,19,282394,0.0-7.0-0.0,,,,,,,5e9375259c9687000b26ec11,11:19:12,15/01/2024
15766.20000000298,"<p style=""font-size:5rem"">Welcome to the <b>digit span task</b>!<br><br></p><p style=""font-size:3.4rem""><br>On each trial, you will see a sequence of digits, followed by a delay.</p><p style=""font-size:3.4rem""><br>Then you will be asked to type them back in the same order in which they were seen.</p><p style=""font-size:3.4rem""><br><br><br>For example, if you saw the digits <b style=""color:blue;"">1</b>, <b style=""color:blue;"">2</b>, <b style=""color:blue;"">3</b>, you would respond with <b style=""color:blue;"">1</b>, <b style=""color:blue;"">2</b>, <b style=""color:blue;"">3</b></p><p style=""font-size:3.4rem""><br><br><br>To ensure the best measure of true performance for our study,<br><br>it is very important that you do not use any memory aid (e.g., pen and paper).<br><br>Please do the task solely in your head.</p><p style=""font-size:3.4rem""><br><br><br>There will be 12 total trials. Participation takes around 5 minutes.</p><br><br><br>",0,fwdspan,instruct,qWCP2REP6aOVuO6aSmWiI52txdf1,html-button-response,20,298092,0.0-7.0-1.0,,,,,,,5e9375259c9687000b26ec11,11:19:12,15/01/2024
2115.7999999970198,"<p style=""font-size:3rem"">Trial 1 of 12</p><br><br><br>",0,fwdspan,start_trial,qWCP2REP6aOVuO6aSmWiI52txdf1,html-button-response,21,300210,0.0-7.0-2.0-0.0-0.0,,,,,,,5e9375259c9687000b26ec11,11:19:12,15/01/2024
,"<p style=""font-size:14rem;font-weight:400;"">8</p>",,fwdspan,number,qWCP2REP6aOVuO6aSmWiI52txdf1,html-keyboard-response,22,301214,0.0-7.0-2.0-0.0-1.0-0.0,,,,,,,5e9375259c9687000b26ec11,11:19:12,15/01/2024
,"<p style=""font-size:14rem;font-weight:400;"">7</p>",,fwdspan,number,qWCP2REP6aOVuO6aSmWiI52txdf1,html-keyboard-response,23,302220,0.0-7.0-2.0-0.0-1.1-0.1,,,,,,,5e9375259c9687000b26ec11,11:19:12,15/01/2024
,"<p style=""font-size:14rem;font-weight:400;"">5</p>",,fwdspan,number,qWCP2REP6aOVuO6aSmWiI52txdf1,html-keyboard-response,24,303223,0.0-7.0-2.0-0.0-1.2-0.2,,,,,,,5e9375259c9687000b26ec11,11:19:12,15/01/2024
,[],,fwdspan,delay,qWCP2REP6aOVuO6aSmWiI52txdf1,html-keyboard-response,25,303777,0.0-7.0-2.0-0.0-2.0,,,,,,,5e9375259c9687000b26ec11,11:19:12,15/01/2024
4089.2000000029802,"<div class = numbox><p style=""font-size:2.5rem"">What were the numbers <b>in order</b>?<br>(When you are ready to lock in your answer, press <b>ENTER</b>)</p><button id = button_1 class = ""square num-button"" onclick = ""recordClick(this)""><div class = content><div class = numbers>1</div></div></button><button id = button_2 class = ""square num-button"" onclick = ""recordClick(this)""><div class = content><div class = numbers>2</div></div></button><button id = button_3 class = ""square num-button"" onclick = ""recordClick(this)""><div class = content><div class = numbers>3</div></div></button><button id = button_4 class = ""square num-button"" onclick = ""recordClick(this)""><div class = content><div class = numbers>4</div></div></button><button id = button_5 class = ""square num-button"" onclick = ""recordClick(this)""><div class = content><div class = numbers>5</div></div></button><button id = button_6 class = ""square num-button"" onclick = ""recordClick(this)""><div class = content><div class = numbers>6</div></div></button><button id = button_7 class = ""square num-button"" onclick = ""recordClick(this)""><div class = content><div class = numbers>7</div></div></button><button id = button_8 class = ""square num-button"" onclick = ""recordClick(this)""><div class = content><div class = numbers>8</div></div></button><button id = button_9 class = ""square num-button"" onclick = ""recordClick(this)""><div class = content><div class = numbers>9</div></div></button><button class = clear_button id = ""ClearButton"" onclick = ""clearResponse()"">Clear</button><p><u><b>Current Answer:</b></u></p><div id=echoed_txt style=""font-size: 6rem; color:blue;""><b></b></div></div><br><br><br><br><br><br><br>",enter,fwdspan,response,qWCP2REP6aOVuO6aSmWiI52txdf1,html-keyboard-response,26,307868,0.0-7.0-2.0-0.0-3.0,3.0,"[8,7,5]","[8,7,5]",1.0,"[3, 4, 5, 5, 4, 4, 5, 5, 4, 5, 6, 6]",,5e9375259c9687000b26ec11,11:19:12,15/01/2024
,,,fwdspan,update_span,qWCP2REP6aOVuO6aSmWiI52txdf1,call-function,27,308122,0.0-7.0-2.0-0.0-4.0,,,,,,,5e9375259c9687000b26ec11,11:19:12,15/01/2024
2005.5999999940395,"<p style=""font-size:3rem"">Trial 2 of 12</p><br><br><br>",0,fwdspan,start_trial,qWCP2REP6aOVuO6aSmWiI52txdf1,html-button-response,28,310129,0.0-7.0-2.1-0.1-0.1,,,,,,,5e9375259c9687000b26ec11,11:19:12,15/01/2024
,"<p style=""font-size:14rem;font-weight:400;"">9</p>",,fwdspan,number,qWCP2REP6aOVuO6aSmWiI52txdf1,html-keyboard-response,29,311131,0.0-7.0-2.1-0.1-1.3-0.3,,,,,,,5e9375259c9687000b26ec11,11:19:12,15/01/2024
,"<p style=""font-size:14rem;font-weight:400;"">2</p>",,fwdspan,number,qWCP2REP6aOVuO6aSmWiI52txdf1,html-keyboard-response,30,312135,0.0-7.0-2.1-0.1-1.4-0.4,,,,,,,5e9375259c9687000b26ec11,11:19:12,15/01/2024
,"<p style=""font-size:14rem;font-weight:400;"">1</p>",,fwdspan,number,qWCP2REP6aOVuO6aSmWiI52txdf1,html-keyboard-response,31,313138,0.0-7.0-2.1-0.1-1.5-0.5,,,,,,,5e9375259c9687000b26ec11,11:19:12,15/01/2024
,"<p style=""font-size:14rem;font-weight:400;"">3</p>",,fwdspan,number,qWCP2REP6aOVuO6aSmWiI52txdf1,html-keyboard-response,32,314140,0.0-7.0-2.1-0.1-1.6-0.6,,,,,,,5e9375259c9687000b26ec11,11:19:12,15/01/2024
,[],,fwdspan,delay,qWCP2REP6aOVuO6aSmWiI52txdf1,html-keyboard-response,33,314694,0.0-7.0-2.1-0.1-2.1,,,,,,,5e9375259c9687000b26ec11,11:19:12,15/01/2024
4016.699999988079,"<div class = numbox><p style=""font-size:2.5rem"">What were the numbers <b>in order</b>?<br>(When you are ready to lock in your answer, press <b>ENTER</b>)</p><button id = button_1 class = ""square num-button"" onclick = ""recordClick(this)""><div class = content><div class = numbers>1</div></div></button><button id = button_2 class = ""square num-button"" onclick = ""recordClick(this)""><div class = content><div class = numbers>2</div></div></button><button id = button_3 class = ""square num-button"" onclick = ""recordClick(this)""><div class = content><div class = numbers>3</div></div></button><button id = button_4 class = ""square num-button"" onclick = ""recordClick(this)""><div class = content><div class = numbers>4</div></div></button><button id = button_5 class = ""square num-button"" onclick = ""recordClick(this)""><div class = content><div class = numbers>5</div></div></button><button id = button_6 class = ""square num-button"" onclick = ""recordClick(this)""><div class = content><div class = numbers>6</div></div></button><button id = button_7 class = ""square num-button"" onclick = ""recordClick(this)""><div class = content><div class = numbers>7</div></div></button><button id = button_8 class = ""square num-button"" onclick = ""recordClick(this)""><div class = content><div class = numbers>8</div></div></button><button id = button_9 class = ""square num-button"" onclick = ""recordClick(this)""><div class = content><div class = numbers>9</div></div></button><button class = clear_button id = ""ClearButton"" onclick = ""clearResponse()"">Clear</button><p><u><b>Current Answer:</b></u></p><div id=echoed_txt style=""font-size: 6rem; color:blue;""><b></b></div></div><br><br><br><br><br><br><br>",enter,fwdspan,response,qWCP2REP6aOVuO6aSmWiI52txdf1,html-keyboard-response,34,318712,0.0-7.0-2.1-0.1-3.1,4.0,"[9,2,1,3]","[9,2,1,3]",1.0,"[3, 4, 5, 5, 4, 4, 5, 5, 4, 5, 6, 6]",,5e9375259c9687000b26ec11,11:19:12,15/01/2024
,,,fwdspan,update_span,qWCP2REP6aOVuO6aSmWiI52txdf1,call-function,35,318965,0.0-7.0-2.1-0.1-4.1,,,,,,,5e9375259c9687000b26ec11,11:19:12,15/01/2024
1308.7999999970198,"<p style=""font-size:3rem"">Trial 3 of 12</p><br><br><br>",0,fwdspan,start_trial,qWCP2REP6aOVuO6aSmWiI52txdf1,html-button-response,36,320274,0.0-7.0-2.2-0.2-0.2,,,,,,,5e9375259c9687000b26ec11,11:19:12,15/01/2024
,"<p style=""font-size:14rem;font-weight:400;"">7</p>",,fwdspan,number,qWCP2REP6aOVuO6aSmWiI52txdf1,html-keyboard-response,37,321278,0.0-7.0-2.2-0.2-1.7-0.7,,,,,,,5e9375259c9687000b26ec11,11:19:12,15/01/2024
,"<p style=""font-size:14rem;font-weight:400;"">6</p>",,fwdspan,number,qWCP2REP6aOVuO6aSmWiI52txdf1,html-keyboard-response,38,322282,0.0-7.0-2.2-0.2-1.8-0.8,,,,,,,5e9375259c9687000b26ec11,11:19:12,15/01/2024
,"<p style=""font-size:14rem;font-weight:400;"">3</p>",,fwdspan,number,qWCP2REP6aOVuO6aSmWiI52txdf1,html-keyboard-response,39,323291,0.0-7.0-2.2-0.2-1.9-0.9,,,,,,,5e9375259c9687000b26ec11,11:19:12,15/01/2024
,"<p style=""font-size:14rem;font-weight:400;"">1</p>",,fwdspan,number,qWCP2REP6aOVuO6aSmWiI52txdf1,html-keyboard-response,40,324295,0.0-7.0-2.2-0.2-1.10-0.10,,,,,,,5e9375259c9687000b26ec11,11:19:12,15/01/2024
,"<p style=""font-size:14rem;font-weight:400;"">5</p>",,fwdspan,number,qWCP2REP6aOVuO6aSmWiI52txdf1,html-keyboard-response,41,325298,0.0-7.0-2.2-0.2-1.11-0.11,,,,,,,5e9375259c9687000b26ec11,11:19:12,15/01/2024
,[],,fwdspan,delay,qWCP2REP6aOVuO6aSmWiI52txdf1,html-keyboard-response,42,325851,0.0-7.0-2.2-0.2-2.2,,,,,,,5e9375259c9687000b26ec11,11:19:12,15/01/2024
5268.70000000298,"<div class = numbox><p style=""font-size:2.5rem"">What were the numbers <b>in order</b>?<br>(When you are ready to lock in your answer, press <b>ENTER</b>)</p><button id = button_1 class = ""square num-button"" onclick = ""recordClick(this)""><div class = content><div class = numbers>1</div></div></button><button id = button_2 class = ""square num-button"" onclick = ""recordClick(this)""><div class = content><div class = numbers>2</div></div></button><button id = button_3 class = ""square num-button"" onclick = ""recordClick(this)""><div class = content><div class = numbers>3</div></div></button><button id = button_4 class = ""square num-button"" onclick = ""recordClick(this)""><div class = content><div class = numbers>4</div></div></button><button id = button_5 class = ""square num-button"" onclick = ""recordClick(this)""><div class = content><div class = numbers>5</div></div></button><button id = button_6 class = ""square num-button"" onclick = ""recordClick(this)""><div class = content><div class = numbers>6</div></div></button><button id = button_7 class = ""square num-button"" onclick = ""recordClick(this)""><div class = content><div class = numbers>7</div></div></button><button id = button_8 class = ""square num-button"" onclick = ""recordClick(this)""><div class = content><div class = numbers>8</div></div></button><button id = button_9 class = ""square num-button"" onclick = ""recordClick(this)""><div class = content><div class = numbers>9</div></div></button><button class = clear_button id = ""ClearButton"" onclick = ""clearResponse()"">Clear</button><p><u><b>Current Answer:</b></u></p><div id=echoed_txt style=""font-size: 6rem; color:blue;""><b></b></div></div><br><br><br><br><br><br><br>",enter,fwdspan,response,qWCP2REP6aOVuO6aSmWiI52txdf1,html-keyboard-response,43,331122,0.0-7.0-2.2-0.2-3.2,5.0,"[7,6,5,1,3]","[7,6,3,1,5]",0.0,"[3, 4, 5, 5, 4, 4, 5, 5, 4, 5, 6, 6]",,5e9375259c9687000b26ec11,11:19:12,15/01/2024
,,,fwdspan,update_span,qWCP2REP6aOVuO6aSmWiI52txdf1,call-function,44,331375,0.0-7.0-2.2-0.2-4.2,,,,,,,5e9375259c9687000b26ec11,11:19:12,15/01/2024
2004.0,"<p style=""font-size:3rem"">Trial 4 of 12</p><br><br><br>",0,fwdspan,start_trial,qWCP2REP6aOVuO6aSmWiI52txdf1,html-button-response,45,333380,0.0-7.0-2.3-0.3-0.3,,,,,,,5e9375259c9687000b26ec11,11:19:12,15/01/2024
,"<p style=""font-size:14rem;font-weight:400;"">9</p>",,fwdspan,number,qWCP2REP6aOVuO6aSmWiI52txdf1,html-keyboard-response,46,334383,0.0-7.0-2.3-0.3-1.12-0.12,,,,,,,5e9375259c9687000b26ec11,11:19:12,15/01/2024
,"<p style=""font-size:14rem;font-weight:400;"">3</p>",,fwdspan,number,qWCP2REP6aOVuO6aSmWiI52txdf1,html-keyboard-response,47,335386,0.0-7.0-2.3-0.3-1.13-0.13,,,,,,,5e9375259c9687000b26ec11,11:19:12,15/01/2024
,"<p style=""font-size:14rem;font-weight:400;"">7</p>",,fwdspan,number,qWCP2REP6aOVuO6aSmWiI52txdf1,html-keyboard-response,48,336388,0.0-7.0-2.3-0.3-1.14-0.14,,,,,,,5e9375259c9687000b26ec11,11:19:12,15/01/2024
,"<p style=""font-size:14rem;font-weight:400;"">5</p>",,fwdspan,number,qWCP2REP6aOVuO6aSmWiI52txdf1,html-keyboard-response,49,337390,0.0-7.0-2.3-0.3-1.15-0.15,,,,,,,5e9375259c9687000b26ec11,11:19:12,15/01/2024
,"<p style=""font-size:14rem;font-weight:400;"">1</p>",,fwdspan,number,qWCP2REP6aOVuO6aSmWiI52txdf1,html-keyboard-response,50,338393,0.0-7.0-2.3-0.3-1.16-0.16,,,,,,,5e9375259c9687000b26ec11,11:19:12,15/01/2024
,[],,fwdspan,delay,qWCP2REP6aOVuO6aSmWiI52txdf1,html-keyboard-response,51,338946,0.0-7.0-2.3-0.3-2.3,,,,,,,5e9375259c9687000b26ec11,11:19:12,15/01/2024
9278.40000000596,"<div class = numbox><p style=""font-size:2.5rem"">What were the numbers <b>in order</b>?<br>(When you are ready to lock in your answer, press <b>ENTER</b>)</p><button id = button_1 class = ""square num-button"" onclick = ""recordClick(this)""><div class = content><div class = numbers>1</div></div></button><button id = button_2 class = ""square num-button"" onclick = ""recordClick(this)""><div class = content><div class = numbers>2</div></div></button><button id = button_3 class = ""square num-button"" onclick = ""recordClick(this)""><div class = content><div class = numbers>3</div></div></button><button id = button_4 class = ""square num-button"" onclick = ""recordClick(this)""><div class = content><div class = numbers>4</div></div></button><button id = button_5 class = ""square num-button"" onclick = ""recordClick(this)""><div class = content><div class = numbers>5</div></div></button><button id = button_6 class = ""square num-button"" onclick = ""recordClick(this)""><div class = content><div class = numbers>6</div></div></button><button id = button_7 class = ""square num-button"" onclick = ""recordClick(this)""><div class = content><div class = numbers>7</div></div></button><button id = button_8 class = ""square num-button"" onclick = ""recordClick(this)""><div class = content><div class = numbers>8</div></div></button><button id = button_9 class = ""square num-button"" onclick = ""recordClick(this)""><div class = content><div class = numbers>9</div></div></button><button class = clear_button id = ""ClearButton"" onclick = ""clearResponse()"">Clear</button><p><u><b>Current Answer:</b></u></p><div id=echoed_txt style=""font-size: 6rem; color:blue;""><b></b></div></div><br><br><br><br><br><br><br>",enter,fwdspan,response,qWCP2REP6aOVuO6aSmWiI52txdf1,html-keyboard-response,52,348226,0.0-7.0-2.3-0.3-3.3,5.0,"[9,7,1,3,5]","[9,3,7,5,1]",0.0,"[3, 4, 5, 5, 4, 4, 5, 5, 4, 5, 6, 6]",,5e9375259c9687000b26ec11,11:19:12,15/01/2024
,,,fwdspan,update_span,qWCP2REP6aOVuO6aSmWiI52txdf1,call-function,53,348479,0.0-7.0-2.3-0.3-4.3,,,,,,,5e9375259c9687000b26ec11,11:19:12,15/01/2024
3652.5,"<p style=""font-size:3rem"">Trial 5 of 12</p><br><br><br>",0,fwdspan,start_trial,qWCP2REP6aOVuO6aSmWiI52txdf1,html-button-response,54,352133,0.0-7.0-2.4-0.4-0.4,,,,,,,5e9375259c9687000b26ec11,11:19:12,15/01/2024
,"<p style=""font-size:14rem;font-weight:400;"">9</p>",,fwdspan,number,qWCP2REP6aOVuO6aSmWiI52txdf1,html-keyboard-response,55,353136,0.0-7.0-2.4-0.4-1.17-0.17,,,,,,,5e9375259c9687000b26ec11,11:19:12,15/01/2024
,"<p style=""font-size:14rem;font-weight:400;"">1</p>",,fwdspan,number,qWCP2REP6aOVuO6aSmWiI52txdf1,html-keyboard-response,56,354139,0.0-7.0-2.4-0.4-1.18-0.18,,,,,,,5e9375259c9687000b26ec11,11:19:12,15/01/2024
,"<p style=""font-size:14rem;font-weight:400;"">3</p>",,fwdspan,number,qWCP2REP6aOVuO6aSmWiI52txdf1,html-keyboard-response,57,355142,0.0-7.0-2.4-0.4-1.19-0.19,,,,,,,5e9375259c9687000b26ec11,11:19:12,15/01/2024
,"<p style=""font-size:14rem;font-weight:400;"">7</p>",,fwdspan,number,qWCP2REP6aOVuO6aSmWiI52txdf1,html-keyboard-response,58,356145,0.0-7.0-2.4-0.4-1.20-0.20,,,,,,,5e9375259c9687000b26ec11,11:19:12,15/01/2024
,[],,fwdspan,delay,qWCP2REP6aOVuO6aSmWiI52txdf1,html-keyboard-response,59,356698,0.0-7.0-2.4-0.4-2.4,,,,,,,5e9375259c9687000b26ec11,11:19:12,15/01/2024
10715.5,"<div class = numbox><p style=""font-size:2.5rem"">What were the numbers <b>in order</b>?<br>(When you are ready to lock in your answer, press <b>ENTER</b>)</p><button id = button_1 class = ""square num-button"" onclick = ""recordClick(this)""><div class = content><div class = numbers>1</div></div></button><button id = button_2 class = ""square num-button"" onclick = ""recordClick(this)""><div class = content><div class = numbers>2</div></div></button><button id = button_3 class = ""square num-button"" onclick = ""recordClick(this)""><div class = content><div class = numbers>3</div></div></button><button id = button_4 class = ""square num-button"" onclick = ""recordClick(this)""><div class = content><div class = numbers>4</div></div></button><button id = button_5 class = ""square num-button"" onclick = ""recordClick(this)""><div class = content><div class = numbers>5</div></div></button><button id = button_6 class = ""square num-button"" onclick = ""recordClick(this)""><div class = content><div class = numbers>6</div></div></button><button id = button_7 class = ""square num-button"" onclick = ""recordClick(this)""><div class = content><div class = numbers>7</div></div></button><button id = button_8 class = ""square num-button"" onclick = ""recordClick(this)""><div class = content><div class = numbers>8</div></div></button><button id = button_9 class = ""square num-button"" onclick = ""recordClick(this)""><div class = content><div class = numbers>9</div></div></button><button class = clear_button id = ""ClearButton"" onclick = ""clearResponse()"">Clear</button><p><u><b>Current Answer:</b></u></p><div id=echoed_txt style=""font-size: 6rem; color:blue;""><b></b></div></div><br><br><br><br><br><br><br>",enter,fwdspan,response,qWCP2REP6aOVuO6aSmWiI52txdf1,html-keyboard-response,60,367416,0.0-7.0-2.4-0.4-3.4,4.0,"[9,1,3,5]","[9,1,3,7]",0.0,"[3, 4, 5, 5, 4, 4, 5, 5, 4, 5, 6, 6]",,5e9375259c9687000b26ec11,11:19:12,15/01/2024
,,,fwdspan,update_span,qWCP2REP6aOVuO6aSmWiI52txdf1,call-function,61,367669,0.0-7.0-2.4-0.4-4.4,,,,,,,5e9375259c9687000b26ec11,11:19:12,15/01/2024
1114.7999999970198,"<p style=""font-size:3rem"">Trial 6 of 12</p><br><br><br>",0,fwdspan,start_trial,qWCP2REP6aOVuO6aSmWiI52txdf1,html-button-response,62,368785,0.0-7.0-2.5-0.5-0.5,,,,,,,5e9375259c9687000b26ec11,11:19:12,15/01/2024
,"<p style=""font-size:14rem;font-weight:400;"">8</p>",,fwdspan,number,qWCP2REP6aOVuO6aSmWiI52txdf1,html-keyboard-response,63,369789,0.0-7.0-2.5-0.5-1.21-0.21,,,,,,,5e9375259c9687000b26ec11,11:19:12,15/01/2024
,"<p style=""font-size:14rem;font-weight:400;"">9</p>",,fwdspan,number,qWCP2REP6aOVuO6aSmWiI52txdf1,html-keyboard-response,64,370792,0.0-7.0-2.5-0.5-1.22-0.22,,,,,,,5e9375259c9687000b26ec11,11:19:12,15/01/2024
,"<p style=""font-size:14rem;font-weight:400;"">5</p>",,fwdspan,number,qWCP2REP6aOVuO6aSmWiI52txdf1,html-keyboard-response,65,371794,0.0-7.0-2.5-0.5-1.23-0.23,,,,,,,5e9375259c9687000b26ec11,11:19:12,15/01/2024
,"<p style=""font-size:14rem;font-weight:400;"">1</p>",,fwdspan,number,qWCP2REP6aOVuO6aSmWiI52txdf1,html-keyboard-response,66,372798,0.0-7.0-2.5-0.5-1.24-0.24,,,,,,,5e9375259c9687000b26ec11,11:19:12,15/01/2024
,[],,fwdspan,delay,qWCP2REP6aOVuO6aSmWiI52txdf1,html-keyboard-response,67,373352,0.0-7.0-2.5-0.5-2.5,,,,,,,5e9375259c9687000b26ec11,11:19:12,15/01/2024
4777.899999991059,"<div class = numbox><p style=""font-size:2.5rem"">What were the numbers <b>in order</b>?<br>(When you are ready to lock in your answer, press <b>ENTER</b>)</p><button id = button_1 class = ""square num-button"" onclick = ""recordClick(this)""><div class = content><div class = numbers>1</div></div></button><button id = button_2 class = ""square num-button"" onclick = ""recordClick(this)""><div class = content><div class = numbers>2</div></div></button><button id = button_3 class = ""square num-button"" onclick = ""recordClick(this)""><div class = content><div class = numbers>3</div></div></button><button id = button_4 class = ""square num-button"" onclick = ""recordClick(this)""><div class = content><div class = numbers>4</div></div></button><button id = button_5 class = ""square num-button"" onclick = ""recordClick(this)""><div class = content><div class = numbers>5</div></div></button><button id = button_6 class = ""square num-button"" onclick = ""recordClick(this)""><div class = content><div class = numbers>6</div></div></button><button id = button_7 class = ""square num-button"" onclick = ""recordClick(this)""><div class = content><div class = numbers>7</div></div></button><button id = button_8 class = ""square num-button"" onclick = ""recordClick(this)""><div class = content><div class = numbers>8</div></div></button><button id = button_9 class = ""square num-button"" onclick = ""recordClick(this)""><div class = content><div class = numbers>9</div></div></button><button class = clear_button id = ""ClearButton"" onclick = ""clearResponse()"">Clear</button><p><u><b>Current Answer:</b></u></p><div id=echoed_txt style=""font-size: 6rem; color:blue;""><b></b></div></div><br><br><br><br><br><br><br>",enter,fwdspan,response,qWCP2REP6aOVuO6aSmWiI52txdf1,html-keyboard-response,68,378131,0.0-7.0-2.5-0.5-3.5,4.0,"[8,9,5,1]","[8,9,5,1]",1.0,"[3, 4, 5, 5, 4, 4, 5, 5, 4, 5, 6, 6]",,5e9375259c9687000b26ec11,11:19:12,15/01/2024
,,,fwdspan,update_span,qWCP2REP6aOVuO6aSmWiI52txdf1,call-function,69,378384,0.0-7.0-2.5-0.5-4.5,,,,,,,5e9375259c9687000b26ec11,11:19:12,15/01/2024
1278.5999999940395,"<p style=""font-size:3rem"">Trial 7 of 12</p><br><br><br>",0,fwdspan,start_trial,qWCP2REP6aOVuO6aSmWiI52txdf1,html-button-response,70,379664,0.0-7.0-2.6-0.6-0.6,,,,,,,5e9375259c9687000b26ec11,11:19:12,15/01/2024
,"<p style=""font-size:14rem;font-weight:400;"">7</p>",,fwdspan,number,qWCP2REP6aOVuO6aSmWiI52txdf1,html-keyboard-response,71,380667,0.0-7.0-2.6-0.6-1.25-0.25,,,,,,,5e9375259c9687000b26ec11,11:19:12,15/01/2024
,"<p style=""font-size:14rem;font-weight:400;"">6</p>",,fwdspan,number,qWCP2REP6aOVuO6aSmWiI52txdf1,html-keyboard-response,72,381670,0.0-7.0-2.6-0.6-1.26-0.26,,,,,,,5e9375259c9687000b26ec11,11:19:12,15/01/2024
,"<p style=""font-size:14rem;font-weight:400;"">2</p>",,fwdspan,number,qWCP2REP6aOVuO6aSmWiI52txdf1,html-keyboard-response,73,382673,0.0-7.0-2.6-0.6-1.27-0.27,,,,,,,5e9375259c9687000b26ec11,11:19:12,15/01/2024
,"<p style=""font-size:14rem;font-weight:400;"">5</p>",,fwdspan,number,qWCP2REP6aOVuO6aSmWiI52txdf1,html-keyboard-response,74,383675,0.0-7.0-2.6-0.6-1.28-0.28,,,,,,,5e9375259c9687000b26ec11,11:19:12,15/01/2024
,"<p style=""font-size:14rem;font-weight:400;"">4</p>",,fwdspan,number,qWCP2REP6aOVuO6aSmWiI52txdf1,html-keyboard-response,75,384678,0.0-7.0-2.6-0.6-1.29-0.29,,,,,,,5e9375259c9687000b26ec11,11:19:12,15/01/2024
,[],,fwdspan,delay,qWCP2REP6aOVuO6aSmWiI52txdf1,html-keyboard-response,76,385230,0.0-7.0-2.6-0.6-2.6,,,,,,,5e9375259c9687000b26ec11,11:19:12,15/01/2024
8423.29999999702,"<div class = numbox><p style=""font-size:2.5rem"">What were the numbers <b>in order</b>?<br>(When you are ready to lock in your answer, press <b>ENTER</b>)</p><button id = button_1 class = ""square num-button"" onclick = ""recordClick(this)""><div class = content><div class = numbers>1</div></div></button><button id = button_2 class = ""square num-button"" onclick = ""recordClick(this)""><div class = content><div class = numbers>2</div></div></button><button id = button_3 class = ""square num-button"" onclick = ""recordClick(this)""><div class = content><div class = numbers>3</div></div></button><button id = button_4 class = ""square num-button"" onclick = ""recordClick(this)""><div class = content><div class = numbers>4</div></div></button><button id = button_5 class = ""square num-button"" onclick = ""recordClick(this)""><div class = content><div class = numbers>5</div></div></button><button id = button_6 class = ""square num-button"" onclick = ""recordClick(this)""><div class = content><div class = numbers>6</div></div></button><button id = button_7 class = ""square num-button"" onclick = ""recordClick(this)""><div class = content><div class = numbers>7</div></div></button><button id = button_8 class = ""square num-button"" onclick = ""recordClick(this)""><div class = content><div class = numbers>8</div></div></button><button id = button_9 class = ""square num-button"" onclick = ""recordClick(this)""><div class = content><div class = numbers>9</div></div></button><button class = clear_button id = ""ClearButton"" onclick = ""clearResponse()"">Clear</button><p><u><b>Current Answer:</b></u></p><div id=echoed_txt style=""font-size: 6rem; color:blue;""><b></b></div></div><br><br><br><br><br><br><br>",enter,fwdspan,response,qWCP2REP6aOVuO6aSmWiI52txdf1,html-keyboard-response,77,393655,0.0-7.0-2.6-0.6-3.6,5.0,"[7,6,2,5]","[7,6,2,5,4]",0.0,"[3, 4, 5, 5, 4, 4, 5, 5, 4, 5, 6, 6]",,5e9375259c9687000b26ec11,11:19:12,15/01/2024
,,,fwdspan,update_span,qWCP2REP6aOVuO6aSmWiI52txdf1,call-function,78,393909,0.0-7.0-2.6-0.6-4.6,,,,,,,5e9375259c9687000b26ec11,11:19:12,15/01/2024
4669.600000008941,"<p style=""font-size:3rem"">Trial 8 of 12</p><br><br><br>",0,fwdspan,start_trial,qWCP2REP6aOVuO6aSmWiI52txdf1,html-button-response,79,398580,0.0-7.0-2.7-0.7-0.7,,,,,,,5e9375259c9687000b26ec11,11:19:12,15/01/2024
,"<p style=""font-size:14rem;font-weight:400;"">8</p>",,fwdspan,number,qWCP2REP6aOVuO6aSmWiI52txdf1,html-keyboard-response,80,399583,0.0-7.0-2.7-0.7-1.30-0.30,,,,,,,5e9375259c9687000b26ec11,11:19:12,15/01/2024
,"<p style=""font-size:14rem;font-weight:400;"">1</p>",,fwdspan,number,qWCP2REP6aOVuO6aSmWiI52txdf1,html-keyboard-response,81,400587,0.0-7.0-2.7-0.7-1.31-0.31,,,,,,,5e9375259c9687000b26ec11,11:19:12,15/01/2024
,"<p style=""font-size:14rem;font-weight:400;"">7</p>",,fwdspan,number,qWCP2REP6aOVuO6aSmWiI52txdf1,html-keyboard-response,82,401590,0.0-7.0-2.7-0.7-1.32-0.32,,,,,,,5e9375259c9687000b26ec11,11:19:12,15/01/2024
,"<p style=""font-size:14rem;font-weight:400;"">6</p>",,fwdspan,number,qWCP2REP6aOVuO6aSmWiI52txdf1,html-keyboard-response,83,402593,0.0-7.0-2.7-0.7-1.33-0.33,,,,,,,5e9375259c9687000b26ec11,11:19:12,15/01/2024
,"<p style=""font-size:14rem;font-weight:400;"">4</p>",,fwdspan,number,qWCP2REP6aOVuO6aSmWiI52txdf1,html-keyboard-response,84,403596,0.0-7.0-2.7-0.7-1.34-0.34,,,,,,,5e9375259c9687000b26ec11,11:19:12,15/01/2024
,[],,fwdspan,delay,qWCP2REP6aOVuO6aSmWiI52txdf1,html-keyboard-response,85,404149,0.0-7.0-2.7-0.7-2.7,,,,,,,5e9375259c9687000b26ec11,11:19:12,15/01/2024
6948.0,"<div class = numbox><p style=""font-size:2.5rem"">What were the numbers <b>in order</b>?<br>(When you are ready to lock in your answer, press <b>ENTER</b>)</p><button id = button_1 class = ""square num-button"" onclick = ""recordClick(this)""><div class = content><div class = numbers>1</div></div></button><button id = button_2 class = ""square num-button"" onclick = ""recordClick(this)""><div class = content><div class = numbers>2</div></div></button><button id = button_3 class = ""square num-button"" onclick = ""recordClick(this)""><div class = content><div class = numbers>3</div></div></button><button id = button_4 class = ""square num-button"" onclick = ""recordClick(this)""><div class = content><div class = numbers>4</div></div></button><button id = button_5 class = ""square num-button"" onclick = ""recordClick(this)""><div class = content><div class = numbers>5</div></div></button><button id = button_6 class = ""square num-button"" onclick = ""recordClick(this)""><div class = content><div class = numbers>6</div></div></button><button id = button_7 class = ""square num-button"" onclick = ""recordClick(this)""><div class = content><div class = numbers>7</div></div></button><button id = button_8 class = ""square num-button"" onclick = ""recordClick(this)""><div class = content><div class = numbers>8</div></div></button><button id = button_9 class = ""square num-button"" onclick = ""recordClick(this)""><div class = content><div class = numbers>9</div></div></button><button class = clear_button id = ""ClearButton"" onclick = ""clearResponse()"">Clear</button><p><u><b>Current Answer:</b></u></p><div id=echoed_txt style=""font-size: 6rem; color:blue;""><b></b></div></div><br><br><br><br><br><br><br>",enter,fwdspan,response,qWCP2REP6aOVuO6aSmWiI52txdf1,html-keyboard-response,86,411099,0.0-7.0-2.7-0.7-3.7,5.0,"[8,1,7,6,5]","[8,1,7,6,4]",0.0,"[3, 4, 5, 5, 4, 4, 5, 5, 4, 5, 6, 6]",,5e9375259c9687000b26ec11,11:19:12,15/01/2024
,,,fwdspan,update_span,qWCP2REP6aOVuO6aSmWiI52txdf1,call-function,87,411352,0.0-7.0-2.7-0.7-4.7,,,,,,,5e9375259c9687000b26ec11,11:19:12,15/01/2024
2285.9000000059605,"<p style=""font-size:3rem"">Trial 9 of 12</p><br><br><br>",0,fwdspan,start_trial,qWCP2REP6aOVuO6aSmWiI52txdf1,html-button-response,88,413639,0.0-7.0-2.8-0.8-0.8,,,,,,,5e9375259c9687000b26ec11,11:19:12,15/01/2024
,"<p style=""font-size:14rem;font-weight:400;"">9</p>",,fwdspan,number,qWCP2REP6aOVuO6aSmWiI52txdf1,html-keyboard-response,89,414642,0.0-7.0-2.8-0.8-1.35-0.35,,,,,,,5e9375259c9687000b26ec11,11:19:12,15/01/2024
,"<p style=""font-size:14rem;font-weight:400;"">3</p>",,fwdspan,number,qWCP2REP6aOVuO6aSmWiI52txdf1,html-keyboard-response,90,415647,0.0-7.0-2.8-0.8-1.36-0.36,,,,,,,5e9375259c9687000b26ec11,11:19:12,15/01/2024
,"<p style=""font-size:14rem;font-weight:400;"">2</p>",,fwdspan,number,qWCP2REP6aOVuO6aSmWiI52txdf1,html-keyboard-response,91,416649,0.0-7.0-2.8-0.8-1.37-0.37,,,,,,,5e9375259c9687000b26ec11,11:19:12,15/01/2024
,"<p style=""font-size:14rem;font-weight:400;"">8</p>",,fwdspan,number,qWCP2REP6aOVuO6aSmWiI52txdf1,html-keyboard-response,92,417653,0.0-7.0-2.8-0.8-1.38-0.38,,,,,,,5e9375259c9687000b26ec11,11:19:12,15/01/2024
,[],,fwdspan,delay,qWCP2REP6aOVuO6aSmWiI52txdf1,html-keyboard-response,93,418206,0.0-7.0-2.8-0.8-2.8,,,,,,,5e9375259c9687000b26ec11,11:19:12,15/01/2024
3883.5999999940395,"<div class = numbox><p style=""font-size:2.5rem"">What were the numbers <b>in order</b>?<br>(When you are ready to lock in your answer, press <b>ENTER</b>)</p><button id = button_1 class = ""square num-button"" onclick = ""recordClick(this)""><div class = content><div class = numbers>1</div></div></button><button id = button_2 class = ""square num-button"" onclick = ""recordClick(this)""><div class = content><div class = numbers>2</div></div></button><button id = button_3 class = ""square num-button"" onclick = ""recordClick(this)""><div class = content><div class = numbers>3</div></div></button><button id = button_4 class = ""square num-button"" onclick = ""recordClick(this)""><div class = content><div class = numbers>4</div></div></button><button id = button_5 class = ""square num-button"" onclick = ""recordClick(this)""><div class = content><div class = numbers>5</div></div></button><button id = button_6 class = ""square num-button"" onclick = ""recordClick(this)""><div class = content><div class = numbers>6</div></div></button><button id = button_7 class = ""square num-button"" onclick = ""recordClick(this)""><div class = content><div class = numbers>7</div></div></button><button id = button_8 class = ""square num-button"" onclick = ""recordClick(this)""><div class = content><div class = numbers>8</div></div></button><button id = button_9 class = ""square num-button"" onclick = ""recordClick(this)""><div class = content><div class = numbers>9</div></div></button><button class = clear_button id = ""ClearButton"" onclick = ""clearResponse()"">Clear</button><p><u><b>Current Answer:</b></u></p><div id=echoed_txt style=""font-size: 6rem; color:blue;""><b></b></div></div><br><br><br><br><br><br><br>",enter,fwdspan,response,qWCP2REP6aOVuO6aSmWiI52txdf1,html-keyboard-response,94,422091,0.0-7.0-2.8-0.8-3.8,4.0,"[9,3,2,8]","[9,3,2,8]",1.0,"[3, 4, 5, 5, 4, 4, 5, 5, 4, 5, 6, 6]",,5e9375259c9687000b26ec11,11:19:12,15/01/2024
,,,fwdspan,update_span,qWCP2REP6aOVuO6aSmWiI52txdf1,call-function,95,422345,0.0-7.0-2.8-0.8-4.8,,,,,,,5e9375259c9687000b26ec11,11:19:12,15/01/2024
2330.5,"<p style=""font-size:3rem"">Trial 10 of 12</p><br><br><br>",0,fwdspan,start_trial,qWCP2REP6aOVuO6aSmWiI52txdf1,html-button-response,96,424677,0.0-7.0-2.9-0.9-0.9,,,,,,,5e9375259c9687000b26ec11,11:19:12,15/01/2024
,"<p style=""font-size:14rem;font-weight:400;"">5</p>",,fwdspan,number,qWCP2REP6aOVuO6aSmWiI52txdf1,html-keyboard-response,97,425680,0.0-7.0-2.9-0.9-1.39-0.39,,,,,,,5e9375259c9687000b26ec11,11:19:12,15/01/2024
,"<p style=""font-size:14rem;font-weight:400;"">1</p>",,fwdspan,number,qWCP2REP6aOVuO6aSmWiI52txdf1,html-keyboard-response,98,426684,0.0-7.0-2.9-0.9-1.40-0.40,,,,,,,5e9375259c9687000b26ec11,11:19:12,15/01/2024
,"<p style=""font-size:14rem;font-weight:400;"">7</p>",,fwdspan,number,qWCP2REP6aOVuO6aSmWiI52txdf1,html-keyboard-response,99,427687,0.0-7.0-2.9-0.9-1.41-0.41,,,,,,,5e9375259c9687000b26ec11,11:19:12,15/01/2024
,"<p style=""font-size:14rem;font-weight:400;"">4</p>",,fwdspan,number,qWCP2REP6aOVuO6aSmWiI52txdf1,html-keyboard-response,100,428690,0.0-7.0-2.9-0.9-1.42-0.42,,,,,,,5e9375259c9687000b26ec11,11:19:12,15/01/2024
,"<p style=""font-size:14rem;font-weight:400;"">3</p>",,fwdspan,number,qWCP2REP6aOVuO6aSmWiI52txdf1,html-keyboard-response,101,429694,0.0-7.0-2.9-0.9-1.43-0.43,,,,,,,5e9375259c9687000b26ec11,11:19:12,15/01/2024
,[],,fwdspan,delay,qWCP2REP6aOVuO6aSmWiI52txdf1,html-keyboard-response,102,430248,0.0-7.0-2.9-0.9-2.9,,,,,,,5e9375259c9687000b26ec11,11:19:12,15/01/2024
5800.0999999940395,"<div class = numbox><p style=""font-size:2.5rem"">What were the numbers <b>in order</b>?<br>(When you are ready to lock in your answer, press <b>ENTER</b>)</p><button id = button_1 class = ""square num-button"" onclick = ""recordClick(this)""><div class = content><div class = numbers>1</div></div></button><button id = button_2 class = ""square num-button"" onclick = ""recordClick(this)""><div class = content><div class = numbers>2</div></div></button><button id = button_3 class = ""square num-button"" onclick = ""recordClick(this)""><div class = content><div class = numbers>3</div></div></button><button id = button_4 class = ""square num-button"" onclick = ""recordClick(this)""><div class = content><div class = numbers>4</div></div></button><button id = button_5 class = ""square num-button"" onclick = ""recordClick(this)""><div class = content><div class = numbers>5</div></div></button><button id = button_6 class = ""square num-button"" onclick = ""recordClick(this)""><div class = content><div class = numbers>6</div></div></button><button id = button_7 class = ""square num-button"" onclick = ""recordClick(this)""><div class = content><div class = numbers>7</div></div></button><button id = button_8 class = ""square num-button"" onclick = ""recordClick(this)""><div class = content><div class = numbers>8</div></div></button><button id = button_9 class = ""square num-button"" onclick = ""recordClick(this)""><div class = content><div class = numbers>9</div></div></button><button class = clear_button id = ""ClearButton"" onclick = ""clearResponse()"">Clear</button><p><u><b>Current Answer:</b></u></p><div id=echoed_txt style=""font-size: 6rem; color:blue;""><b></b></div></div><br><br><br><br><br><br><br>",enter,fwdspan,response,qWCP2REP6aOVuO6aSmWiI52txdf1,html-keyboard-response,103,436050,0.0-7.0-2.9-0.9-3.9,5.0,"[5,1,7,4,3]","[5,1,7,4,3]",1.0,"[3, 4, 5, 5, 4, 4, 5, 5, 4, 5, 6, 6]",,5e9375259c9687000b26ec11,11:19:12,15/01/2024
,,,fwdspan,update_span,qWCP2REP6aOVuO6aSmWiI52txdf1,call-function,104,436303,0.0-7.0-2.9-0.9-4.9,,,,,,,5e9375259c9687000b26ec11,11:19:12,15/01/2024
1232.5999999940395,"<p style=""font-size:3rem"">Trial 11 of 12</p><br><br><br>",0,fwdspan,start_trial,qWCP2REP6aOVuO6aSmWiI52txdf1,html-button-response,105,437537,0.0-7.0-2.10-0.10-0.10,,,,,,,5e9375259c9687000b26ec11,11:19:12,15/01/2024
,"<p style=""font-size:14rem;font-weight:400;"">5</p>",,fwdspan,number,qWCP2REP6aOVuO6aSmWiI52txdf1,html-keyboard-response,106,438540,0.0-7.0-2.10-0.10-1.44-0.44,,,,,,,5e9375259c9687000b26ec11,11:19:12,15/01/2024
,"<p style=""font-size:14rem;font-weight:400;"">8</p>",,fwdspan,number,qWCP2REP6aOVuO6aSmWiI52txdf1,html-keyboard-response,107,439544,0.0-7.0-2.10-0.10-1.45-0.45,,,,,,,5e9375259c9687000b26ec11,11:19:12,15/01/2024
,"<p style=""font-size:14rem;font-weight:400;"">2</p>",,fwdspan,number,qWCP2REP6aOVuO6aSmWiI52txdf1,html-keyboard-response,108,440548,0.0-7.0-2.10-0.10-1.46-0.46,,,,,,,5e9375259c9687000b26ec11,11:19:12,15/01/2024
,"<p style=""font-size:14rem;font-weight:400;"">9</p>",,fwdspan,number,qWCP2REP6aOVuO6aSmWiI52txdf1,html-keyboard-response,109,441552,0.0-7.0-2.10-0.10-1.47-0.47,,,,,,,5e9375259c9687000b26ec11,11:19:12,15/01/2024
,"<p style=""font-size:14rem;font-weight:400;"">6</p>",,fwdspan,number,qWCP2REP6aOVuO6aSmWiI52txdf1,html-keyboard-response,110,442555,0.0-7.0-2.10-0.10-1.48-0.48,,,,,,,5e9375259c9687000b26ec11,11:19:12,15/01/2024
,"<p style=""font-size:14rem;font-weight:400;"">7</p>",,fwdspan,number,qWCP2REP6aOVuO6aSmWiI52txdf1,html-keyboard-response,111,443558,0.0-7.0-2.10-0.10-1.49-0.49,,,,,,,5e9375259c9687000b26ec11,11:19:12,15/01/2024
,[],,fwdspan,delay,qWCP2REP6aOVuO6aSmWiI52txdf1,html-keyboard-response,112,444112,0.0-7.0-2.10-0.10-2.10,,,,,,,5e9375259c9687000b26ec11,11:19:12,15/01/2024
6603.70000000298,"<div class = numbox><p style=""font-size:2.5rem"">What were the numbers <b>in order</b>?<br>(When you are ready to lock in your answer, press <b>ENTER</b>)</p><button id = button_1 class = ""square num-button"" onclick = ""recordClick(this)""><div class = content><div class = numbers>1</div></div></button><button id = button_2 class = ""square num-button"" onclick = ""recordClick(this)""><div class = content><div class = numbers>2</div></div></button><button id = button_3 class = ""square num-button"" onclick = ""recordClick(this)""><div class = content><div class = numbers>3</div></div></button><button id = button_4 class = ""square num-button"" onclick = ""recordClick(this)""><div class = content><div class = numbers>4</div></div></button><button id = button_5 class = ""square num-button"" onclick = ""recordClick(this)""><div class = content><div class = numbers>5</div></div></button><button id = button_6 class = ""square num-button"" onclick = ""recordClick(this)""><div class = content><div class = numbers>6</div></div></button><button id = button_7 class = ""square num-button"" onclick = ""recordClick(this)""><div class = content><div class = numbers>7</div></div></button><button id = button_8 class = ""square num-button"" onclick = ""recordClick(this)""><div class = content><div class = numbers>8</div></div></button><button id = button_9 class = ""square num-button"" onclick = ""recordClick(this)""><div class = content><div class = numbers>9</div></div></button><button class = clear_button id = ""ClearButton"" onclick = ""clearResponse()"">Clear</button><p><u><b>Current Answer:</b></u></p><div id=echoed_txt style=""font-size: 6rem; color:blue;""><b></b></div></div><br><br><br><br><br><br><br>",enter,fwdspan,response,qWCP2REP6aOVuO6aSmWiI52txdf1,html-keyboard-response,113,450717,0.0-7.0-2.10-0.10-3.10,6.0,"[5,8,2,9,1]","[5,8,2,9,6,7]",0.0,"[3, 4, 5, 5, 4, 4, 5, 5, 4, 5, 6, 6]",,5e9375259c9687000b26ec11,11:19:12,15/01/2024
,,,fwdspan,update_span,qWCP2REP6aOVuO6aSmWiI52txdf1,call-function,114,450971,0.0-7.0-2.10-0.10-4.10,,,,,,,5e9375259c9687000b26ec11,11:19:12,15/01/2024
1106.5999999940395,"<p style=""font-size:3rem"">Trial 12 of 12</p><br><br><br>",0,fwdspan,start_trial,qWCP2REP6aOVuO6aSmWiI52txdf1,html-button-response,115,452079,0.0-7.0-2.11-0.11-0.11,,,,,,,5e9375259c9687000b26ec11,11:19:12,15/01/2024
,"<p style=""font-size:14rem;font-weight:400;"">4</p>",,fwdspan,number,qWCP2REP6aOVuO6aSmWiI52txdf1,html-keyboard-response,116,453082,0.0-7.0-2.11-0.11-1.50-0.50,,,,,,,5e9375259c9687000b26ec11,11:19:12,15/01/2024
,"<p style=""font-size:14rem;font-weight:400;"">2</p>",,fwdspan,number,qWCP2REP6aOVuO6aSmWiI52txdf1,html-keyboard-response,117,454086,0.0-7.0-2.11-0.11-1.51-0.51,,,,,,,5e9375259c9687000b26ec11,11:19:12,15/01/2024
,"<p style=""font-size:14rem;font-weight:400;"">9</p>",,fwdspan,number,qWCP2REP6aOVuO6aSmWiI52txdf1,html-keyboard-response,118,455089,0.0-7.0-2.11-0.11-1.52-0.52,,,,,,,5e9375259c9687000b26ec11,11:19:12,15/01/2024
,"<p style=""font-size:14rem;font-weight:400;"">3</p>",,fwdspan,number,qWCP2REP6aOVuO6aSmWiI52txdf1,html-keyboard-response,119,456092,0.0-7.0-2.11-0.11-1.53-0.53,,,,,,,5e9375259c9687000b26ec11,11:19:12,15/01/2024
,"<p style=""font-size:14rem;font-weight:400;"">7</p>",,fwdspan,number,qWCP2REP6aOVuO6aSmWiI52txdf1,html-keyboard-response,120,457096,0.0-7.0-2.11-0.11-1.54-0.54,,,,,,,5e9375259c9687000b26ec11,11:19:12,15/01/2024
,"<p style=""font-size:14rem;font-weight:400;"">5</p>",,fwdspan,number,qWCP2REP6aOVuO6aSmWiI52txdf1,html-keyboard-response,121,458099,0.0-7.0-2.11-0.11-1.55-0.55,,,,,,,5e9375259c9687000b26ec11,11:19:12,15/01/2024
,[],,fwdspan,delay,qWCP2REP6aOVuO6aSmWiI52txdf1,html-keyboard-response,122,458653,0.0-7.0-2.11-0.11-2.11,,,,,,,5e9375259c9687000b26ec11,11:19:12,15/01/2024
5325.79999999702,"<div class = numbox><p style=""font-size:2.5rem"">What were the numbers <b>in order</b>?<br>(When you are ready to lock in your answer, press <b>ENTER</b>)</p><button id = button_1 class = ""square num-button"" onclick = ""recordClick(this)""><div class = content><div class = numbers>1</div></div></button><button id = button_2 class = ""square num-button"" onclick = ""recordClick(this)""><div class = content><div class = numbers>2</div></div></button><button id = button_3 class = ""square num-button"" onclick = ""recordClick(this)""><div class = content><div class = numbers>3</div></div></button><button id = button_4 class = ""square num-button"" onclick = ""recordClick(this)""><div class = content><div class = numbers>4</div></div></button><button id = button_5 class = ""square num-button"" onclick = ""recordClick(this)""><div class = content><div class = numbers>5</div></div></button><button id = button_6 class = ""square num-button"" onclick = ""recordClick(this)""><div class = content><div class = numbers>6</div></div></button><button id = button_7 class = ""square num-button"" onclick = ""recordClick(this)""><div class = content><div class = numbers>7</div></div></button><button id = button_8 class = ""square num-button"" onclick = ""recordClick(this)""><div class = content><div class = numbers>8</div></div></button><button id = button_9 class = ""square num-button"" onclick = ""recordClick(this)""><div class = content><div class = numbers>9</div></div></button><button class = clear_button id = ""ClearButton"" onclick = ""clearResponse()"">Clear</button><p><u><b>Current Answer:</b></u></p><div id=echoed_txt style=""font-size: 6rem; color:blue;""><b></b></div></div><br><br><br><br><br><br><br>",enter,fwdspan,response,qWCP2REP6aOVuO6aSmWiI52txdf1,html-keyboard-response,123,463981,0.0-7.0-2.11-0.11-3.11,6.0,"[4,2,9,3,5]","[4,2,9,3,7,5]",0.0,"[3, 4, 5, 5, 4, 4, 5, 5, 4, 5, 6, 6]",,5e9375259c9687000b26ec11,11:19:12,15/01/2024
,,,fwdspan,update_span,qWCP2REP6aOVuO6aSmWiI52txdf1,call-function,124,464234,0.0-7.0-2.11-0.11-4.11,,,,,,,5e9375259c9687000b26ec11,11:19:12,15/01/2024
27315.20000000298,,{'Q0': 'I liked it when there was lees numbers to remember'},fwdspan,survey,qWCP2REP6aOVuO6aSmWiI52txdf1,lmdlab-survey-text,125,492303,0.0-7.0-3.0,,,,,,qWCP2REP6aOVuO6aSmWiI52txdf1,5e9375259c9687000b26ec11,11:19:12,15/01/2024
2885.800000011921,<p><p style='font-size: 3rem'>Great work!<br><br>This completes the digit span task.</p><br><br><br>,0,fwdspan,finish,qWCP2REP6aOVuO6aSmWiI52txdf1,html-button-response,126,495191,0.0-7.0-4.0,,,,,,,5e9375259c9687000b26ec11,11:19:12,15/01/2024
