rt,stimulus,response,exp_name,exp_stage,subjectID,trial_type,trial_index,time_elapsed,internal_node_id,span,answer,correct,correct_full,span_history,databaseID,prolificID,start_time,date
4042.2999999523163,"<p style=""font-size:4rem""><br><br>In the next part today, we have a completely different short task.<br><br><br>This part involves keeping numbers in you mind. Participation takes around 5 minutes.<br><br><br></p>",0,fwdspan,instruct,PLM02iXzNxTT6Kekwuq7VPPObJj2,html-button-response,19,517161,0.0-7.0-0.0,,,,,,,5bead56b5324b10001c2551c,11:21:59 AM,1/15/2024
7092.799999952316,"<p style=""font-size:5rem"">Welcome to the <b>digit span task</b>!<br><br></p><p style=""font-size:3.4rem""><br>On each trial, you will see a sequence of digits, followed by a delay.</p><p style=""font-size:3.4rem""><br>Then you will be asked to type them back in the same order in which they were seen.</p><p style=""font-size:3.4rem""><br><br><br>For example, if you saw the digits <b style=""color:blue;"">1</b>, <b style=""color:blue;"">2</b>, <b style=""color:blue;"">3</b>, you would respond with <b style=""color:blue;"">1</b>, <b style=""color:blue;"">2</b>, <b style=""color:blue;"">3</b></p><p style=""font-size:3.4rem""><br><br><br>To ensure the best measure of true performance for our study,<br><br>it is very important that you do not use any memory aid (e.g., pen and paper).<br><br>Please do the task solely in your head.</p><p style=""font-size:3.4rem""><br><br><br>There will be 12 total trials. Participation takes around 5 minutes.</p><br><br><br>",0,fwdspan,instruct,PLM02iXzNxTT6Kekwuq7VPPObJj2,html-button-response,20,524254,0.0-7.0-1.0,,,,,,,5bead56b5324b10001c2551c,11:21:59 AM,1/15/2024
1888.2000000476837,"<p style=""font-size:3rem"">Trial 1 of 12</p><br><br><br>",0,fwdspan,start_trial,PLM02iXzNxTT6Kekwuq7VPPObJj2,html-button-response,21,526144,0.0-7.0-2.0-0.0-0.0,,,,,,,5bead56b5324b10001c2551c,11:21:59 AM,1/15/2024
,"<p style=""font-size:14rem;font-weight:400;"">7</p>",,fwdspan,number,PLM02iXzNxTT6Kekwuq7VPPObJj2,html-keyboard-response,22,527147,0.0-7.0-2.0-0.0-1.0-0.0,,,,,,,5bead56b5324b10001c2551c,11:21:59 AM,1/15/2024
,"<p style=""font-size:14rem;font-weight:400;"">9</p>",,fwdspan,number,PLM02iXzNxTT6Kekwuq7VPPObJj2,html-keyboard-response,23,528151,0.0-7.0-2.0-0.0-1.1-0.1,,,,,,,5bead56b5324b10001c2551c,11:21:59 AM,1/15/2024
,"<p style=""font-size:14rem;font-weight:400;"">2</p>",,fwdspan,number,PLM02iXzNxTT6Kekwuq7VPPObJj2,html-keyboard-response,24,529154,0.0-7.0-2.0-0.0-1.2-0.2,,,,,,,5bead56b5324b10001c2551c,11:21:59 AM,1/15/2024
,[],,fwdspan,delay,PLM02iXzNxTT6Kekwuq7VPPObJj2,html-keyboard-response,25,529706,0.0-7.0-2.0-0.0-2.0,,,,,,,5bead56b5324b10001c2551c,11:21:59 AM,1/15/2024
8109.400000095367,"<div class = numbox><p style=""font-size:2.5rem"">What were the numbers <b>in order</b>?<br>(When you are ready to lock in your answer, press <b>ENTER</b>)</p><button id = button_1 class = ""square num-button"" onclick = ""recordClick(this)""><div class = content><div class = numbers>1</div></div></button><button id = button_2 class = ""square num-button"" onclick = ""recordClick(this)""><div class = content><div class = numbers>2</div></div></button><button id = button_3 class = ""square num-button"" onclick = ""recordClick(this)""><div class = content><div class = numbers>3</div></div></button><button id = button_4 class = ""square num-button"" onclick = ""recordClick(this)""><div class = content><div class = numbers>4</div></div></button><button id = button_5 class = ""square num-button"" onclick = ""recordClick(this)""><div class = content><div class = numbers>5</div></div></button><button id = button_6 class = ""square num-button"" onclick = ""recordClick(this)""><div class = content><div class = numbers>6</div></div></button><button id = button_7 class = ""square num-button"" onclick = ""recordClick(this)""><div class = content><div class = numbers>7</div></div></button><button id = button_8 class = ""square num-button"" onclick = ""recordClick(this)""><div class = content><div class = numbers>8</div></div></button><button id = button_9 class = ""square num-button"" onclick = ""recordClick(this)""><div class = content><div class = numbers>9</div></div></button><button class = clear_button id = ""ClearButton"" onclick = ""clearResponse()"">Clear</button><p><u><b>Current Answer:</b></u></p><div id=echoed_txt style=""font-size: 6rem; color:blue;""><b></b></div></div><br><br><br><br><br><br><br>",enter,fwdspan,response,PLM02iXzNxTT6Kekwuq7VPPObJj2,html-keyboard-response,26,537816,0.0-7.0-2.0-0.0-3.0,3.0,"[7,9,2]","[7,9,2]",1.0,"[3, 4, 5, 6, 7, 8, 9, 10, 10, 9, 9, 8]",,5bead56b5324b10001c2551c,11:21:59 AM,1/15/2024
,,,fwdspan,update_span,PLM02iXzNxTT6Kekwuq7VPPObJj2,call-function,27,538067,0.0-7.0-2.0-0.0-4.0,,,,,,,5bead56b5324b10001c2551c,11:21:59 AM,1/15/2024
2548.899999856949,"<p style=""font-size:3rem"">Trial 2 of 12</p><br><br><br>",0,fwdspan,start_trial,PLM02iXzNxTT6Kekwuq7VPPObJj2,html-button-response,28,540617,0.0-7.0-2.1-0.1-0.1,,,,,,,5bead56b5324b10001c2551c,11:21:59 AM,1/15/2024
,"<p style=""font-size:14rem;font-weight:400;"">2</p>",,fwdspan,number,PLM02iXzNxTT6Kekwuq7VPPObJj2,html-keyboard-response,29,541619,0.0-7.0-2.1-0.1-1.3-0.3,,,,,,,5bead56b5324b10001c2551c,11:21:59 AM,1/15/2024
,"<p style=""font-size:14rem;font-weight:400;"">6</p>",,fwdspan,number,PLM02iXzNxTT6Kekwuq7VPPObJj2,html-keyboard-response,30,542622,0.0-7.0-2.1-0.1-1.4-0.4,,,,,,,5bead56b5324b10001c2551c,11:21:59 AM,1/15/2024
,"<p style=""font-size:14rem;font-weight:400;"">8</p>",,fwdspan,number,PLM02iXzNxTT6Kekwuq7VPPObJj2,html-keyboard-response,31,543626,0.0-7.0-2.1-0.1-1.5-0.5,,,,,,,5bead56b5324b10001c2551c,11:21:59 AM,1/15/2024
,"<p style=""font-size:14rem;font-weight:400;"">3</p>",,fwdspan,number,PLM02iXzNxTT6Kekwuq7VPPObJj2,html-keyboard-response,32,544629,0.0-7.0-2.1-0.1-1.6-0.6,,,,,,,5bead56b5324b10001c2551c,11:21:59 AM,1/15/2024
,[],,fwdspan,delay,PLM02iXzNxTT6Kekwuq7VPPObJj2,html-keyboard-response,33,545182,0.0-7.0-2.1-0.1-2.1,,,,,,,5bead56b5324b10001c2551c,11:21:59 AM,1/15/2024
3481.2999999523163,"<div class = numbox><p style=""font-size:2.5rem"">What were the numbers <b>in order</b>?<br>(When you are ready to lock in your answer, press <b>ENTER</b>)</p><button id = button_1 class = ""square num-button"" onclick = ""recordClick(this)""><div class = content><div class = numbers>1</div></div></button><button id = button_2 class = ""square num-button"" onclick = ""recordClick(this)""><div class = content><div class = numbers>2</div></div></button><button id = button_3 class = ""square num-button"" onclick = ""recordClick(this)""><div class = content><div class = numbers>3</div></div></button><button id = button_4 class = ""square num-button"" onclick = ""recordClick(this)""><div class = content><div class = numbers>4</div></div></button><button id = button_5 class = ""square num-button"" onclick = ""recordClick(this)""><div class = content><div class = numbers>5</div></div></button><button id = button_6 class = ""square num-button"" onclick = ""recordClick(this)""><div class = content><div class = numbers>6</div></div></button><button id = button_7 class = ""square num-button"" onclick = ""recordClick(this)""><div class = content><div class = numbers>7</div></div></button><button id = button_8 class = ""square num-button"" onclick = ""recordClick(this)""><div class = content><div class = numbers>8</div></div></button><button id = button_9 class = ""square num-button"" onclick = ""recordClick(this)""><div class = content><div class = numbers>9</div></div></button><button class = clear_button id = ""ClearButton"" onclick = ""clearResponse()"">Clear</button><p><u><b>Current Answer:</b></u></p><div id=echoed_txt style=""font-size: 6rem; color:blue;""><b></b></div></div><br><br><br><br><br><br><br>",enter,fwdspan,response,PLM02iXzNxTT6Kekwuq7VPPObJj2,html-keyboard-response,34,548664,0.0-7.0-2.1-0.1-3.1,4.0,"[2,6,8,3]","[2,6,8,3]",1.0,"[3, 4, 5, 6, 7, 8, 9, 10, 10, 9, 9, 8]",,5bead56b5324b10001c2551c,11:21:59 AM,1/15/2024
,,,fwdspan,update_span,PLM02iXzNxTT6Kekwuq7VPPObJj2,call-function,35,548916,0.0-7.0-2.1-0.1-4.1,,,,,,,5bead56b5324b10001c2551c,11:21:59 AM,1/15/2024
1066.7999999523163,"<p style=""font-size:3rem"">Trial 3 of 12</p><br><br><br>",0,fwdspan,start_trial,PLM02iXzNxTT6Kekwuq7VPPObJj2,html-button-response,36,549984,0.0-7.0-2.2-0.2-0.2,,,,,,,5bead56b5324b10001c2551c,11:21:59 AM,1/15/2024
,"<p style=""font-size:14rem;font-weight:400;"">8</p>",,fwdspan,number,PLM02iXzNxTT6Kekwuq7VPPObJj2,html-keyboard-response,37,550985,0.0-7.0-2.2-0.2-1.7-0.7,,,,,,,5bead56b5324b10001c2551c,11:21:59 AM,1/15/2024
,"<p style=""font-size:14rem;font-weight:400;"">6</p>",,fwdspan,number,PLM02iXzNxTT6Kekwuq7VPPObJj2,html-keyboard-response,38,551987,0.0-7.0-2.2-0.2-1.8-0.8,,,,,,,5bead56b5324b10001c2551c,11:21:59 AM,1/15/2024
,"<p style=""font-size:14rem;font-weight:400;"">9</p>",,fwdspan,number,PLM02iXzNxTT6Kekwuq7VPPObJj2,html-keyboard-response,39,552991,0.0-7.0-2.2-0.2-1.9-0.9,,,,,,,5bead56b5324b10001c2551c,11:21:59 AM,1/15/2024
,"<p style=""font-size:14rem;font-weight:400;"">1</p>",,fwdspan,number,PLM02iXzNxTT6Kekwuq7VPPObJj2,html-keyboard-response,40,553994,0.0-7.0-2.2-0.2-1.10-0.10,,,,,,,5bead56b5324b10001c2551c,11:21:59 AM,1/15/2024
,"<p style=""font-size:14rem;font-weight:400;"">5</p>",,fwdspan,number,PLM02iXzNxTT6Kekwuq7VPPObJj2,html-keyboard-response,41,554996,0.0-7.0-2.2-0.2-1.11-0.11,,,,,,,5bead56b5324b10001c2551c,11:21:59 AM,1/15/2024
,[],,fwdspan,delay,PLM02iXzNxTT6Kekwuq7VPPObJj2,html-keyboard-response,42,555549,0.0-7.0-2.2-0.2-2.2,,,,,,,5bead56b5324b10001c2551c,11:21:59 AM,1/15/2024
3410.399999856949,"<div class = numbox><p style=""font-size:2.5rem"">What were the numbers <b>in order</b>?<br>(When you are ready to lock in your answer, press <b>ENTER</b>)</p><button id = button_1 class = ""square num-button"" onclick = ""recordClick(this)""><div class = content><div class = numbers>1</div></div></button><button id = button_2 class = ""square num-button"" onclick = ""recordClick(this)""><div class = content><div class = numbers>2</div></div></button><button id = button_3 class = ""square num-button"" onclick = ""recordClick(this)""><div class = content><div class = numbers>3</div></div></button><button id = button_4 class = ""square num-button"" onclick = ""recordClick(this)""><div class = content><div class = numbers>4</div></div></button><button id = button_5 class = ""square num-button"" onclick = ""recordClick(this)""><div class = content><div class = numbers>5</div></div></button><button id = button_6 class = ""square num-button"" onclick = ""recordClick(this)""><div class = content><div class = numbers>6</div></div></button><button id = button_7 class = ""square num-button"" onclick = ""recordClick(this)""><div class = content><div class = numbers>7</div></div></button><button id = button_8 class = ""square num-button"" onclick = ""recordClick(this)""><div class = content><div class = numbers>8</div></div></button><button id = button_9 class = ""square num-button"" onclick = ""recordClick(this)""><div class = content><div class = numbers>9</div></div></button><button class = clear_button id = ""ClearButton"" onclick = ""clearResponse()"">Clear</button><p><u><b>Current Answer:</b></u></p><div id=echoed_txt style=""font-size: 6rem; color:blue;""><b></b></div></div><br><br><br><br><br><br><br>",enter,fwdspan,response,PLM02iXzNxTT6Kekwuq7VPPObJj2,html-keyboard-response,43,558960,0.0-7.0-2.2-0.2-3.2,5.0,"[8,6,9,1,5]","[8,6,9,1,5]",1.0,"[3, 4, 5, 6, 7, 8, 9, 10, 10, 9, 9, 8]",,5bead56b5324b10001c2551c,11:21:59 AM,1/15/2024
,,,fwdspan,update_span,PLM02iXzNxTT6Kekwuq7VPPObJj2,call-function,44,559213,0.0-7.0-2.2-0.2-4.2,,,,,,,5bead56b5324b10001c2551c,11:21:59 AM,1/15/2024
6107.299999952316,"<p style=""font-size:3rem"">Trial 4 of 12</p><br><br><br>",0,fwdspan,start_trial,PLM02iXzNxTT6Kekwuq7VPPObJj2,html-button-response,45,565321,0.0-7.0-2.3-0.3-0.3,,,,,,,5bead56b5324b10001c2551c,11:21:59 AM,1/15/2024
,"<p style=""font-size:14rem;font-weight:400;"">4</p>",,fwdspan,number,PLM02iXzNxTT6Kekwuq7VPPObJj2,html-keyboard-response,46,566325,0.0-7.0-2.3-0.3-1.12-0.12,,,,,,,5bead56b5324b10001c2551c,11:21:59 AM,1/15/2024
,"<p style=""font-size:14rem;font-weight:400;"">2</p>",,fwdspan,number,PLM02iXzNxTT6Kekwuq7VPPObJj2,html-keyboard-response,47,567327,0.0-7.0-2.3-0.3-1.13-0.13,,,,,,,5bead56b5324b10001c2551c,11:21:59 AM,1/15/2024
,"<p style=""font-size:14rem;font-weight:400;"">1</p>",,fwdspan,number,PLM02iXzNxTT6Kekwuq7VPPObJj2,html-keyboard-response,48,568330,0.0-7.0-2.3-0.3-1.14-0.14,,,,,,,5bead56b5324b10001c2551c,11:21:59 AM,1/15/2024
,"<p style=""font-size:14rem;font-weight:400;"">7</p>",,fwdspan,number,PLM02iXzNxTT6Kekwuq7VPPObJj2,html-keyboard-response,49,569332,0.0-7.0-2.3-0.3-1.15-0.15,,,,,,,5bead56b5324b10001c2551c,11:21:59 AM,1/15/2024
,"<p style=""font-size:14rem;font-weight:400;"">3</p>",,fwdspan,number,PLM02iXzNxTT6Kekwuq7VPPObJj2,html-keyboard-response,50,570334,0.0-7.0-2.3-0.3-1.16-0.16,,,,,,,5bead56b5324b10001c2551c,11:21:59 AM,1/15/2024
,"<p style=""font-size:14rem;font-weight:400;"">9</p>",,fwdspan,number,PLM02iXzNxTT6Kekwuq7VPPObJj2,html-keyboard-response,51,571336,0.0-7.0-2.3-0.3-1.17-0.17,,,,,,,5bead56b5324b10001c2551c,11:21:59 AM,1/15/2024
,[],,fwdspan,delay,PLM02iXzNxTT6Kekwuq7VPPObJj2,html-keyboard-response,52,571888,0.0-7.0-2.3-0.3-2.3,,,,,,,5bead56b5324b10001c2551c,11:21:59 AM,1/15/2024
5102.5,"<div class = numbox><p style=""font-size:2.5rem"">What were the numbers <b>in order</b>?<br>(When you are ready to lock in your answer, press <b>ENTER</b>)</p><button id = button_1 class = ""square num-button"" onclick = ""recordClick(this)""><div class = content><div class = numbers>1</div></div></button><button id = button_2 class = ""square num-button"" onclick = ""recordClick(this)""><div class = content><div class = numbers>2</div></div></button><button id = button_3 class = ""square num-button"" onclick = ""recordClick(this)""><div class = content><div class = numbers>3</div></div></button><button id = button_4 class = ""square num-button"" onclick = ""recordClick(this)""><div class = content><div class = numbers>4</div></div></button><button id = button_5 class = ""square num-button"" onclick = ""recordClick(this)""><div class = content><div class = numbers>5</div></div></button><button id = button_6 class = ""square num-button"" onclick = ""recordClick(this)""><div class = content><div class = numbers>6</div></div></button><button id = button_7 class = ""square num-button"" onclick = ""recordClick(this)""><div class = content><div class = numbers>7</div></div></button><button id = button_8 class = ""square num-button"" onclick = ""recordClick(this)""><div class = content><div class = numbers>8</div></div></button><button id = button_9 class = ""square num-button"" onclick = ""recordClick(this)""><div class = content><div class = numbers>9</div></div></button><button class = clear_button id = ""ClearButton"" onclick = ""clearResponse()"">Clear</button><p><u><b>Current Answer:</b></u></p><div id=echoed_txt style=""font-size: 6rem; color:blue;""><b></b></div></div><br><br><br><br><br><br><br>",enter,fwdspan,response,PLM02iXzNxTT6Kekwuq7VPPObJj2,html-keyboard-response,53,576992,0.0-7.0-2.3-0.3-3.3,6.0,"[4,2,1,7,3,9]","[4,2,1,7,3,9]",1.0,"[3, 4, 5, 6, 7, 8, 9, 10, 10, 9, 9, 8]",,5bead56b5324b10001c2551c,11:21:59 AM,1/15/2024
,,,fwdspan,update_span,PLM02iXzNxTT6Kekwuq7VPPObJj2,call-function,54,577244,0.0-7.0-2.3-0.3-4.3,,,,,,,5bead56b5324b10001c2551c,11:21:59 AM,1/15/2024
6586.400000095367,"<p style=""font-size:3rem"">Trial 5 of 12</p><br><br><br>",0,fwdspan,start_trial,PLM02iXzNxTT6Kekwuq7VPPObJj2,html-button-response,55,583831,0.0-7.0-2.4-0.4-0.4,,,,,,,5bead56b5324b10001c2551c,11:21:59 AM,1/15/2024
,"<p style=""font-size:14rem;font-weight:400;"">3</p>",,fwdspan,number,PLM02iXzNxTT6Kekwuq7VPPObJj2,html-keyboard-response,56,584835,0.0-7.0-2.4-0.4-1.18-0.18,,,,,,,5bead56b5324b10001c2551c,11:21:59 AM,1/15/2024
,"<p style=""font-size:14rem;font-weight:400;"">4</p>",,fwdspan,number,PLM02iXzNxTT6Kekwuq7VPPObJj2,html-keyboard-response,57,585836,0.0-7.0-2.4-0.4-1.19-0.19,,,,,,,5bead56b5324b10001c2551c,11:21:59 AM,1/15/2024
,"<p style=""font-size:14rem;font-weight:400;"">1</p>",,fwdspan,number,PLM02iXzNxTT6Kekwuq7VPPObJj2,html-keyboard-response,58,586839,0.0-7.0-2.4-0.4-1.20-0.20,,,,,,,5bead56b5324b10001c2551c,11:21:59 AM,1/15/2024
,"<p style=""font-size:14rem;font-weight:400;"">8</p>",,fwdspan,number,PLM02iXzNxTT6Kekwuq7VPPObJj2,html-keyboard-response,59,587842,0.0-7.0-2.4-0.4-1.21-0.21,,,,,,,5bead56b5324b10001c2551c,11:21:59 AM,1/15/2024
,"<p style=""font-size:14rem;font-weight:400;"">6</p>",,fwdspan,number,PLM02iXzNxTT6Kekwuq7VPPObJj2,html-keyboard-response,60,588844,0.0-7.0-2.4-0.4-1.22-0.22,,,,,,,5bead56b5324b10001c2551c,11:21:59 AM,1/15/2024
,"<p style=""font-size:14rem;font-weight:400;"">7</p>",,fwdspan,number,PLM02iXzNxTT6Kekwuq7VPPObJj2,html-keyboard-response,61,589846,0.0-7.0-2.4-0.4-1.23-0.23,,,,,,,5bead56b5324b10001c2551c,11:21:59 AM,1/15/2024
,"<p style=""font-size:14rem;font-weight:400;"">5</p>",,fwdspan,number,PLM02iXzNxTT6Kekwuq7VPPObJj2,html-keyboard-response,62,590849,0.0-7.0-2.4-0.4-1.24-0.24,,,,,,,5bead56b5324b10001c2551c,11:21:59 AM,1/15/2024
,[],,fwdspan,delay,PLM02iXzNxTT6Kekwuq7VPPObJj2,html-keyboard-response,63,591400,0.0-7.0-2.4-0.4-2.4,,,,,,,5bead56b5324b10001c2551c,11:21:59 AM,1/15/2024
5366.799999952316,"<div class = numbox><p style=""font-size:2.5rem"">What were the numbers <b>in order</b>?<br>(When you are ready to lock in your answer, press <b>ENTER</b>)</p><button id = button_1 class = ""square num-button"" onclick = ""recordClick(this)""><div class = content><div class = numbers>1</div></div></button><button id = button_2 class = ""square num-button"" onclick = ""recordClick(this)""><div class = content><div class = numbers>2</div></div></button><button id = button_3 class = ""square num-button"" onclick = ""recordClick(this)""><div class = content><div class = numbers>3</div></div></button><button id = button_4 class = ""square num-button"" onclick = ""recordClick(this)""><div class = content><div class = numbers>4</div></div></button><button id = button_5 class = ""square num-button"" onclick = ""recordClick(this)""><div class = content><div class = numbers>5</div></div></button><button id = button_6 class = ""square num-button"" onclick = ""recordClick(this)""><div class = content><div class = numbers>6</div></div></button><button id = button_7 class = ""square num-button"" onclick = ""recordClick(this)""><div class = content><div class = numbers>7</div></div></button><button id = button_8 class = ""square num-button"" onclick = ""recordClick(this)""><div class = content><div class = numbers>8</div></div></button><button id = button_9 class = ""square num-button"" onclick = ""recordClick(this)""><div class = content><div class = numbers>9</div></div></button><button class = clear_button id = ""ClearButton"" onclick = ""clearResponse()"">Clear</button><p><u><b>Current Answer:</b></u></p><div id=echoed_txt style=""font-size: 6rem; color:blue;""><b></b></div></div><br><br><br><br><br><br><br>",enter,fwdspan,response,PLM02iXzNxTT6Kekwuq7VPPObJj2,html-keyboard-response,64,596768,0.0-7.0-2.4-0.4-3.4,7.0,"[3,4,1,8,6,7,5]","[3,4,1,8,6,7,5]",1.0,"[3, 4, 5, 6, 7, 8, 9, 10, 10, 9, 9, 8]",,5bead56b5324b10001c2551c,11:21:59 AM,1/15/2024
,,,fwdspan,update_span,PLM02iXzNxTT6Kekwuq7VPPObJj2,call-function,65,597020,0.0-7.0-2.4-0.4-4.4,,,,,,,5bead56b5324b10001c2551c,11:21:59 AM,1/15/2024
4593.0,"<p style=""font-size:3rem"">Trial 6 of 12</p><br><br><br>",0,fwdspan,start_trial,PLM02iXzNxTT6Kekwuq7VPPObJj2,html-button-response,66,601614,0.0-7.0-2.5-0.5-0.5,,,,,,,5bead56b5324b10001c2551c,11:21:59 AM,1/15/2024
,"<p style=""font-size:14rem;font-weight:400;"">6</p>",,fwdspan,number,PLM02iXzNxTT6Kekwuq7VPPObJj2,html-keyboard-response,67,602615,0.0-7.0-2.5-0.5-1.25-0.25,,,,,,,5bead56b5324b10001c2551c,11:21:59 AM,1/15/2024
,"<p style=""font-size:14rem;font-weight:400;"">5</p>",,fwdspan,number,PLM02iXzNxTT6Kekwuq7VPPObJj2,html-keyboard-response,68,603618,0.0-7.0-2.5-0.5-1.26-0.26,,,,,,,5bead56b5324b10001c2551c,11:21:59 AM,1/15/2024
,"<p style=""font-size:14rem;font-weight:400;"">8</p>",,fwdspan,number,PLM02iXzNxTT6Kekwuq7VPPObJj2,html-keyboard-response,69,604620,0.0-7.0-2.5-0.5-1.27-0.27,,,,,,,5bead56b5324b10001c2551c,11:21:59 AM,1/15/2024
,"<p style=""font-size:14rem;font-weight:400;"">4</p>",,fwdspan,number,PLM02iXzNxTT6Kekwuq7VPPObJj2,html-keyboard-response,70,605623,0.0-7.0-2.5-0.5-1.28-0.28,,,,,,,5bead56b5324b10001c2551c,11:21:59 AM,1/15/2024
,"<p style=""font-size:14rem;font-weight:400;"">2</p>",,fwdspan,number,PLM02iXzNxTT6Kekwuq7VPPObJj2,html-keyboard-response,71,606625,0.0-7.0-2.5-0.5-1.29-0.29,,,,,,,5bead56b5324b10001c2551c,11:21:59 AM,1/15/2024
,"<p style=""font-size:14rem;font-weight:400;"">7</p>",,fwdspan,number,PLM02iXzNxTT6Kekwuq7VPPObJj2,html-keyboard-response,72,607629,0.0-7.0-2.5-0.5-1.30-0.30,,,,,,,5bead56b5324b10001c2551c,11:21:59 AM,1/15/2024
,"<p style=""font-size:14rem;font-weight:400;"">1</p>",,fwdspan,number,PLM02iXzNxTT6Kekwuq7VPPObJj2,html-keyboard-response,73,608631,0.0-7.0-2.5-0.5-1.31-0.31,,,,,,,5bead56b5324b10001c2551c,11:21:59 AM,1/15/2024
,"<p style=""font-size:14rem;font-weight:400;"">9</p>",,fwdspan,number,PLM02iXzNxTT6Kekwuq7VPPObJj2,html-keyboard-response,74,609634,0.0-7.0-2.5-0.5-1.32-0.32,,,,,,,5bead56b5324b10001c2551c,11:21:59 AM,1/15/2024
,[],,fwdspan,delay,PLM02iXzNxTT6Kekwuq7VPPObJj2,html-keyboard-response,75,610187,0.0-7.0-2.5-0.5-2.5,,,,,,,5bead56b5324b10001c2551c,11:21:59 AM,1/15/2024
5500.299999952316,"<div class = numbox><p style=""font-size:2.5rem"">What were the numbers <b>in order</b>?<br>(When you are ready to lock in your answer, press <b>ENTER</b>)</p><button id = button_1 class = ""square num-button"" onclick = ""recordClick(this)""><div class = content><div class = numbers>1</div></div></button><button id = button_2 class = ""square num-button"" onclick = ""recordClick(this)""><div class = content><div class = numbers>2</div></div></button><button id = button_3 class = ""square num-button"" onclick = ""recordClick(this)""><div class = content><div class = numbers>3</div></div></button><button id = button_4 class = ""square num-button"" onclick = ""recordClick(this)""><div class = content><div class = numbers>4</div></div></button><button id = button_5 class = ""square num-button"" onclick = ""recordClick(this)""><div class = content><div class = numbers>5</div></div></button><button id = button_6 class = ""square num-button"" onclick = ""recordClick(this)""><div class = content><div class = numbers>6</div></div></button><button id = button_7 class = ""square num-button"" onclick = ""recordClick(this)""><div class = content><div class = numbers>7</div></div></button><button id = button_8 class = ""square num-button"" onclick = ""recordClick(this)""><div class = content><div class = numbers>8</div></div></button><button id = button_9 class = ""square num-button"" onclick = ""recordClick(this)""><div class = content><div class = numbers>9</div></div></button><button class = clear_button id = ""ClearButton"" onclick = ""clearResponse()"">Clear</button><p><u><b>Current Answer:</b></u></p><div id=echoed_txt style=""font-size: 6rem; color:blue;""><b></b></div></div><br><br><br><br><br><br><br>",enter,fwdspan,response,PLM02iXzNxTT6Kekwuq7VPPObJj2,html-keyboard-response,76,615688,0.0-7.0-2.5-0.5-3.5,8.0,"[6,5,8,4,2,7,1,9]","[6,5,8,4,2,7,1,9]",1.0,"[3, 4, 5, 6, 7, 8, 9, 10, 10, 9, 9, 8]",,5bead56b5324b10001c2551c,11:21:59 AM,1/15/2024
,,,fwdspan,update_span,PLM02iXzNxTT6Kekwuq7VPPObJj2,call-function,77,615940,0.0-7.0-2.5-0.5-4.5,,,,,,,5bead56b5324b10001c2551c,11:21:59 AM,1/15/2024
1145.6999998092651,"<p style=""font-size:3rem"">Trial 7 of 12</p><br><br><br>",0,fwdspan,start_trial,PLM02iXzNxTT6Kekwuq7VPPObJj2,html-button-response,78,617086,0.0-7.0-2.6-0.6-0.6,,,,,,,5bead56b5324b10001c2551c,11:21:59 AM,1/15/2024
,"<p style=""font-size:14rem;font-weight:400;"">6</p>",,fwdspan,number,PLM02iXzNxTT6Kekwuq7VPPObJj2,html-keyboard-response,79,618087,0.0-7.0-2.6-0.6-1.33-0.33,,,,,,,5bead56b5324b10001c2551c,11:21:59 AM,1/15/2024
,"<p style=""font-size:14rem;font-weight:400;"">9</p>",,fwdspan,number,PLM02iXzNxTT6Kekwuq7VPPObJj2,html-keyboard-response,80,619089,0.0-7.0-2.6-0.6-1.34-0.34,,,,,,,5bead56b5324b10001c2551c,11:21:59 AM,1/15/2024
,"<p style=""font-size:14rem;font-weight:400;"">7</p>",,fwdspan,number,PLM02iXzNxTT6Kekwuq7VPPObJj2,html-keyboard-response,81,620092,0.0-7.0-2.6-0.6-1.35-0.35,,,,,,,5bead56b5324b10001c2551c,11:21:59 AM,1/15/2024
,"<p style=""font-size:14rem;font-weight:400;"">5</p>",,fwdspan,number,PLM02iXzNxTT6Kekwuq7VPPObJj2,html-keyboard-response,82,621095,0.0-7.0-2.6-0.6-1.36-0.36,,,,,,,5bead56b5324b10001c2551c,11:21:59 AM,1/15/2024
,"<p style=""font-size:14rem;font-weight:400;"">4</p>",,fwdspan,number,PLM02iXzNxTT6Kekwuq7VPPObJj2,html-keyboard-response,83,622098,0.0-7.0-2.6-0.6-1.37-0.37,,,,,,,5bead56b5324b10001c2551c,11:21:59 AM,1/15/2024
,"<p style=""font-size:14rem;font-weight:400;"">1</p>",,fwdspan,number,PLM02iXzNxTT6Kekwuq7VPPObJj2,html-keyboard-response,84,623100,0.0-7.0-2.6-0.6-1.38-0.38,,,,,,,5bead56b5324b10001c2551c,11:21:59 AM,1/15/2024
,"<p style=""font-size:14rem;font-weight:400;"">2</p>",,fwdspan,number,PLM02iXzNxTT6Kekwuq7VPPObJj2,html-keyboard-response,85,624104,0.0-7.0-2.6-0.6-1.39-0.39,,,,,,,5bead56b5324b10001c2551c,11:21:59 AM,1/15/2024
,"<p style=""font-size:14rem;font-weight:400;"">8</p>",,fwdspan,number,PLM02iXzNxTT6Kekwuq7VPPObJj2,html-keyboard-response,86,625107,0.0-7.0-2.6-0.6-1.40-0.40,,,,,,,5bead56b5324b10001c2551c,11:21:59 AM,1/15/2024
,"<p style=""font-size:14rem;font-weight:400;"">3</p>",,fwdspan,number,PLM02iXzNxTT6Kekwuq7VPPObJj2,html-keyboard-response,87,626110,0.0-7.0-2.6-0.6-1.41-0.41,,,,,,,5bead56b5324b10001c2551c,11:21:59 AM,1/15/2024
,[],,fwdspan,delay,PLM02iXzNxTT6Kekwuq7VPPObJj2,html-keyboard-response,88,626663,0.0-7.0-2.6-0.6-2.6,,,,,,,5bead56b5324b10001c2551c,11:21:59 AM,1/15/2024
8855.299999952316,"<div class = numbox><p style=""font-size:2.5rem"">What were the numbers <b>in order</b>?<br>(When you are ready to lock in your answer, press <b>ENTER</b>)</p><button id = button_1 class = ""square num-button"" onclick = ""recordClick(this)""><div class = content><div class = numbers>1</div></div></button><button id = button_2 class = ""square num-button"" onclick = ""recordClick(this)""><div class = content><div class = numbers>2</div></div></button><button id = button_3 class = ""square num-button"" onclick = ""recordClick(this)""><div class = content><div class = numbers>3</div></div></button><button id = button_4 class = ""square num-button"" onclick = ""recordClick(this)""><div class = content><div class = numbers>4</div></div></button><button id = button_5 class = ""square num-button"" onclick = ""recordClick(this)""><div class = content><div class = numbers>5</div></div></button><button id = button_6 class = ""square num-button"" onclick = ""recordClick(this)""><div class = content><div class = numbers>6</div></div></button><button id = button_7 class = ""square num-button"" onclick = ""recordClick(this)""><div class = content><div class = numbers>7</div></div></button><button id = button_8 class = ""square num-button"" onclick = ""recordClick(this)""><div class = content><div class = numbers>8</div></div></button><button id = button_9 class = ""square num-button"" onclick = ""recordClick(this)""><div class = content><div class = numbers>9</div></div></button><button class = clear_button id = ""ClearButton"" onclick = ""clearResponse()"">Clear</button><p><u><b>Current Answer:</b></u></p><div id=echoed_txt style=""font-size: 6rem; color:blue;""><b></b></div></div><br><br><br><br><br><br><br>",enter,fwdspan,response,PLM02iXzNxTT6Kekwuq7VPPObJj2,html-keyboard-response,89,635520,0.0-7.0-2.6-0.6-3.6,9.0,"[6,9,7,5,4,1,2,8,3]","[6,9,7,5,4,1,2,8,3]",1.0,"[3, 4, 5, 6, 7, 8, 9, 10, 10, 9, 9, 8]",,5bead56b5324b10001c2551c,11:21:59 AM,1/15/2024
,,,fwdspan,update_span,PLM02iXzNxTT6Kekwuq7VPPObJj2,call-function,90,635771,0.0-7.0-2.6-0.6-4.6,,,,,,,5bead56b5324b10001c2551c,11:21:59 AM,1/15/2024
3880.0,"<p style=""font-size:3rem"">Trial 8 of 12</p><br><br><br>",0,fwdspan,start_trial,PLM02iXzNxTT6Kekwuq7VPPObJj2,html-button-response,91,639651,0.0-7.0-2.7-0.7-0.7,,,,,,,5bead56b5324b10001c2551c,11:21:59 AM,1/15/2024
,"<p style=""font-size:14rem;font-weight:400;"">5</p>",,fwdspan,number,PLM02iXzNxTT6Kekwuq7VPPObJj2,html-keyboard-response,92,640653,0.0-7.0-2.7-0.7-1.42-0.42,,,,,,,5bead56b5324b10001c2551c,11:21:59 AM,1/15/2024
,"<p style=""font-size:14rem;font-weight:400;"">7</p>",,fwdspan,number,PLM02iXzNxTT6Kekwuq7VPPObJj2,html-keyboard-response,93,641656,0.0-7.0-2.7-0.7-1.43-0.43,,,,,,,5bead56b5324b10001c2551c,11:21:59 AM,1/15/2024
,"<p style=""font-size:14rem;font-weight:400;"">3</p>",,fwdspan,number,PLM02iXzNxTT6Kekwuq7VPPObJj2,html-keyboard-response,94,642658,0.0-7.0-2.7-0.7-1.44-0.44,,,,,,,5bead56b5324b10001c2551c,11:21:59 AM,1/15/2024
,"<p style=""font-size:14rem;font-weight:400;"">4</p>",,fwdspan,number,PLM02iXzNxTT6Kekwuq7VPPObJj2,html-keyboard-response,95,643660,0.0-7.0-2.7-0.7-1.45-0.45,,,,,,,5bead56b5324b10001c2551c,11:21:59 AM,1/15/2024
,"<p style=""font-size:14rem;font-weight:400;"">8</p>",,fwdspan,number,PLM02iXzNxTT6Kekwuq7VPPObJj2,html-keyboard-response,96,644661,0.0-7.0-2.7-0.7-1.46-0.46,,,,,,,5bead56b5324b10001c2551c,11:21:59 AM,1/15/2024
,"<p style=""font-size:14rem;font-weight:400;"">1</p>",,fwdspan,number,PLM02iXzNxTT6Kekwuq7VPPObJj2,html-keyboard-response,97,645664,0.0-7.0-2.7-0.7-1.47-0.47,,,,,,,5bead56b5324b10001c2551c,11:21:59 AM,1/15/2024
,"<p style=""font-size:14rem;font-weight:400;"">6</p>",,fwdspan,number,PLM02iXzNxTT6Kekwuq7VPPObJj2,html-keyboard-response,98,646666,0.0-7.0-2.7-0.7-1.48-0.48,,,,,,,5bead56b5324b10001c2551c,11:21:59 AM,1/15/2024
,"<p style=""font-size:14rem;font-weight:400;"">9</p>",,fwdspan,number,PLM02iXzNxTT6Kekwuq7VPPObJj2,html-keyboard-response,99,647669,0.0-7.0-2.7-0.7-1.49-0.49,,,,,,,5bead56b5324b10001c2551c,11:21:59 AM,1/15/2024
,"<p style=""font-size:14rem;font-weight:400;"">2</p>",,fwdspan,number,PLM02iXzNxTT6Kekwuq7VPPObJj2,html-keyboard-response,100,648671,0.0-7.0-2.7-0.7-1.50-0.50,,,,,,,5bead56b5324b10001c2551c,11:21:59 AM,1/15/2024
,"<p style=""font-size:14rem;font-weight:400;"">8</p>",,fwdspan,number,PLM02iXzNxTT6Kekwuq7VPPObJj2,html-keyboard-response,101,649673,0.0-7.0-2.7-0.7-1.51-0.51,,,,,,,5bead56b5324b10001c2551c,11:21:59 AM,1/15/2024
,[],,fwdspan,delay,PLM02iXzNxTT6Kekwuq7VPPObJj2,html-keyboard-response,102,650227,0.0-7.0-2.7-0.7-2.7,,,,,,,5bead56b5324b10001c2551c,11:21:59 AM,1/15/2024
10979.900000095367,"<div class = numbox><p style=""font-size:2.5rem"">What were the numbers <b>in order</b>?<br>(When you are ready to lock in your answer, press <b>ENTER</b>)</p><button id = button_1 class = ""square num-button"" onclick = ""recordClick(this)""><div class = content><div class = numbers>1</div></div></button><button id = button_2 class = ""square num-button"" onclick = ""recordClick(this)""><div class = content><div class = numbers>2</div></div></button><button id = button_3 class = ""square num-button"" onclick = ""recordClick(this)""><div class = content><div class = numbers>3</div></div></button><button id = button_4 class = ""square num-button"" onclick = ""recordClick(this)""><div class = content><div class = numbers>4</div></div></button><button id = button_5 class = ""square num-button"" onclick = ""recordClick(this)""><div class = content><div class = numbers>5</div></div></button><button id = button_6 class = ""square num-button"" onclick = ""recordClick(this)""><div class = content><div class = numbers>6</div></div></button><button id = button_7 class = ""square num-button"" onclick = ""recordClick(this)""><div class = content><div class = numbers>7</div></div></button><button id = button_8 class = ""square num-button"" onclick = ""recordClick(this)""><div class = content><div class = numbers>8</div></div></button><button id = button_9 class = ""square num-button"" onclick = ""recordClick(this)""><div class = content><div class = numbers>9</div></div></button><button class = clear_button id = ""ClearButton"" onclick = ""clearResponse()"">Clear</button><p><u><b>Current Answer:</b></u></p><div id=echoed_txt style=""font-size: 6rem; color:blue;""><b></b></div></div><br><br><br><br><br><br><br>",enter,fwdspan,response,PLM02iXzNxTT6Kekwuq7VPPObJj2,html-keyboard-response,103,661208,0.0-7.0-2.7-0.7-3.7,10.0,"[5,7,6,4,3,9,2,1,8]","[5,7,3,4,8,1,6,9,2,8]",0.0,"[3, 4, 5, 6, 7, 8, 9, 10, 10, 9, 9, 8]",,5bead56b5324b10001c2551c,11:21:59 AM,1/15/2024
,,,fwdspan,update_span,PLM02iXzNxTT6Kekwuq7VPPObJj2,call-function,104,661460,0.0-7.0-2.7-0.7-4.7,,,,,,,5bead56b5324b10001c2551c,11:21:59 AM,1/15/2024
1631.3999998569489,"<p style=""font-size:3rem"">Trial 9 of 12</p><br><br><br>",0,fwdspan,start_trial,PLM02iXzNxTT6Kekwuq7VPPObJj2,html-button-response,105,663092,0.0-7.0-2.8-0.8-0.8,,,,,,,5bead56b5324b10001c2551c,11:21:59 AM,1/15/2024
,"<p style=""font-size:14rem;font-weight:400;"">5</p>",,fwdspan,number,PLM02iXzNxTT6Kekwuq7VPPObJj2,html-keyboard-response,106,664096,0.0-7.0-2.8-0.8-1.52-0.52,,,,,,,5bead56b5324b10001c2551c,11:21:59 AM,1/15/2024
,"<p style=""font-size:14rem;font-weight:400;"">2</p>",,fwdspan,number,PLM02iXzNxTT6Kekwuq7VPPObJj2,html-keyboard-response,107,665099,0.0-7.0-2.8-0.8-1.53-0.53,,,,,,,5bead56b5324b10001c2551c,11:21:59 AM,1/15/2024
,"<p style=""font-size:14rem;font-weight:400;"">6</p>",,fwdspan,number,PLM02iXzNxTT6Kekwuq7VPPObJj2,html-keyboard-response,108,666102,0.0-7.0-2.8-0.8-1.54-0.54,,,,,,,5bead56b5324b10001c2551c,11:21:59 AM,1/15/2024
,"<p style=""font-size:14rem;font-weight:400;"">9</p>",,fwdspan,number,PLM02iXzNxTT6Kekwuq7VPPObJj2,html-keyboard-response,109,667103,0.0-7.0-2.8-0.8-1.55-0.55,,,,,,,5bead56b5324b10001c2551c,11:21:59 AM,1/15/2024
,"<p style=""font-size:14rem;font-weight:400;"">7</p>",,fwdspan,number,PLM02iXzNxTT6Kekwuq7VPPObJj2,html-keyboard-response,110,668106,0.0-7.0-2.8-0.8-1.56-0.56,,,,,,,5bead56b5324b10001c2551c,11:21:59 AM,1/15/2024
,"<p style=""font-size:14rem;font-weight:400;"">8</p>",,fwdspan,number,PLM02iXzNxTT6Kekwuq7VPPObJj2,html-keyboard-response,111,669110,0.0-7.0-2.8-0.8-1.57-0.57,,,,,,,5bead56b5324b10001c2551c,11:21:59 AM,1/15/2024
,"<p style=""font-size:14rem;font-weight:400;"">3</p>",,fwdspan,number,PLM02iXzNxTT6Kekwuq7VPPObJj2,html-keyboard-response,112,670112,0.0-7.0-2.8-0.8-1.58-0.58,,,,,,,5bead56b5324b10001c2551c,11:21:59 AM,1/15/2024
,"<p style=""font-size:14rem;font-weight:400;"">1</p>",,fwdspan,number,PLM02iXzNxTT6Kekwuq7VPPObJj2,html-keyboard-response,113,671114,0.0-7.0-2.8-0.8-1.59-0.59,,,,,,,5bead56b5324b10001c2551c,11:21:59 AM,1/15/2024
,"<p style=""font-size:14rem;font-weight:400;"">4</p>",,fwdspan,number,PLM02iXzNxTT6Kekwuq7VPPObJj2,html-keyboard-response,114,672117,0.0-7.0-2.8-0.8-1.60-0.60,,,,,,,5bead56b5324b10001c2551c,11:21:59 AM,1/15/2024
,"<p style=""font-size:14rem;font-weight:400;"">3</p>",,fwdspan,number,PLM02iXzNxTT6Kekwuq7VPPObJj2,html-keyboard-response,115,673120,0.0-7.0-2.8-0.8-1.61-0.61,,,,,,,5bead56b5324b10001c2551c,11:21:59 AM,1/15/2024
,[],,fwdspan,delay,PLM02iXzNxTT6Kekwuq7VPPObJj2,html-keyboard-response,116,673671,0.0-7.0-2.8-0.8-2.8,,,,,,,5bead56b5324b10001c2551c,11:21:59 AM,1/15/2024
5263.899999856949,"<div class = numbox><p style=""font-size:2.5rem"">What were the numbers <b>in order</b>?<br>(When you are ready to lock in your answer, press <b>ENTER</b>)</p><button id = button_1 class = ""square num-button"" onclick = ""recordClick(this)""><div class = content><div class = numbers>1</div></div></button><button id = button_2 class = ""square num-button"" onclick = ""recordClick(this)""><div class = content><div class = numbers>2</div></div></button><button id = button_3 class = ""square num-button"" onclick = ""recordClick(this)""><div class = content><div class = numbers>3</div></div></button><button id = button_4 class = ""square num-button"" onclick = ""recordClick(this)""><div class = content><div class = numbers>4</div></div></button><button id = button_5 class = ""square num-button"" onclick = ""recordClick(this)""><div class = content><div class = numbers>5</div></div></button><button id = button_6 class = ""square num-button"" onclick = ""recordClick(this)""><div class = content><div class = numbers>6</div></div></button><button id = button_7 class = ""square num-button"" onclick = ""recordClick(this)""><div class = content><div class = numbers>7</div></div></button><button id = button_8 class = ""square num-button"" onclick = ""recordClick(this)""><div class = content><div class = numbers>8</div></div></button><button id = button_9 class = ""square num-button"" onclick = ""recordClick(this)""><div class = content><div class = numbers>9</div></div></button><button class = clear_button id = ""ClearButton"" onclick = ""clearResponse()"">Clear</button><p><u><b>Current Answer:</b></u></p><div id=echoed_txt style=""font-size: 6rem; color:blue;""><b></b></div></div><br><br><br><br><br><br><br>",enter,fwdspan,response,PLM02iXzNxTT6Kekwuq7VPPObJj2,html-keyboard-response,117,678936,0.0-7.0-2.8-0.8-3.8,10.0,"[5,2,6,8,7,9,1,3]","[5,2,6,9,7,8,3,1,4,3]",0.0,"[3, 4, 5, 6, 7, 8, 9, 10, 10, 9, 9, 8]",,5bead56b5324b10001c2551c,11:21:59 AM,1/15/2024
,,,fwdspan,update_span,PLM02iXzNxTT6Kekwuq7VPPObJj2,call-function,118,679187,0.0-7.0-2.8-0.8-4.8,,,,,,,5bead56b5324b10001c2551c,11:21:59 AM,1/15/2024
1046.9000000953674,"<p style=""font-size:3rem"">Trial 10 of 12</p><br><br><br>",0,fwdspan,start_trial,PLM02iXzNxTT6Kekwuq7VPPObJj2,html-button-response,119,680234,0.0-7.0-2.9-0.9-0.9,,,,,,,5bead56b5324b10001c2551c,11:21:59 AM,1/15/2024
,"<p style=""font-size:14rem;font-weight:400;"">9</p>",,fwdspan,number,PLM02iXzNxTT6Kekwuq7VPPObJj2,html-keyboard-response,120,681237,0.0-7.0-2.9-0.9-1.62-0.62,,,,,,,5bead56b5324b10001c2551c,11:21:59 AM,1/15/2024
,"<p style=""font-size:14rem;font-weight:400;"">3</p>",,fwdspan,number,PLM02iXzNxTT6Kekwuq7VPPObJj2,html-keyboard-response,121,682240,0.0-7.0-2.9-0.9-1.63-0.63,,,,,,,5bead56b5324b10001c2551c,11:21:59 AM,1/15/2024
,"<p style=""font-size:14rem;font-weight:400;"">6</p>",,fwdspan,number,PLM02iXzNxTT6Kekwuq7VPPObJj2,html-keyboard-response,122,683243,0.0-7.0-2.9-0.9-1.64-0.64,,,,,,,5bead56b5324b10001c2551c,11:21:59 AM,1/15/2024
,"<p style=""font-size:14rem;font-weight:400;"">5</p>",,fwdspan,number,PLM02iXzNxTT6Kekwuq7VPPObJj2,html-keyboard-response,123,684246,0.0-7.0-2.9-0.9-1.65-0.65,,,,,,,5bead56b5324b10001c2551c,11:21:59 AM,1/15/2024
,"<p style=""font-size:14rem;font-weight:400;"">2</p>",,fwdspan,number,PLM02iXzNxTT6Kekwuq7VPPObJj2,html-keyboard-response,124,685250,0.0-7.0-2.9-0.9-1.66-0.66,,,,,,,5bead56b5324b10001c2551c,11:21:59 AM,1/15/2024
,"<p style=""font-size:14rem;font-weight:400;"">1</p>",,fwdspan,number,PLM02iXzNxTT6Kekwuq7VPPObJj2,html-keyboard-response,125,686253,0.0-7.0-2.9-0.9-1.67-0.67,,,,,,,5bead56b5324b10001c2551c,11:21:59 AM,1/15/2024
,"<p style=""font-size:14rem;font-weight:400;"">4</p>",,fwdspan,number,PLM02iXzNxTT6Kekwuq7VPPObJj2,html-keyboard-response,126,687256,0.0-7.0-2.9-0.9-1.68-0.68,,,,,,,5bead56b5324b10001c2551c,11:21:59 AM,1/15/2024
,"<p style=""font-size:14rem;font-weight:400;"">8</p>",,fwdspan,number,PLM02iXzNxTT6Kekwuq7VPPObJj2,html-keyboard-response,127,688258,0.0-7.0-2.9-0.9-1.69-0.69,,,,,,,5bead56b5324b10001c2551c,11:21:59 AM,1/15/2024
,"<p style=""font-size:14rem;font-weight:400;"">7</p>",,fwdspan,number,PLM02iXzNxTT6Kekwuq7VPPObJj2,html-keyboard-response,128,689261,0.0-7.0-2.9-0.9-1.70-0.70,,,,,,,5bead56b5324b10001c2551c,11:21:59 AM,1/15/2024
,[],,fwdspan,delay,PLM02iXzNxTT6Kekwuq7VPPObJj2,html-keyboard-response,129,689813,0.0-7.0-2.9-0.9-2.9,,,,,,,5bead56b5324b10001c2551c,11:21:59 AM,1/15/2024
6345.899999856949,"<div class = numbox><p style=""font-size:2.5rem"">What were the numbers <b>in order</b>?<br>(When you are ready to lock in your answer, press <b>ENTER</b>)</p><button id = button_1 class = ""square num-button"" onclick = ""recordClick(this)""><div class = content><div class = numbers>1</div></div></button><button id = button_2 class = ""square num-button"" onclick = ""recordClick(this)""><div class = content><div class = numbers>2</div></div></button><button id = button_3 class = ""square num-button"" onclick = ""recordClick(this)""><div class = content><div class = numbers>3</div></div></button><button id = button_4 class = ""square num-button"" onclick = ""recordClick(this)""><div class = content><div class = numbers>4</div></div></button><button id = button_5 class = ""square num-button"" onclick = ""recordClick(this)""><div class = content><div class = numbers>5</div></div></button><button id = button_6 class = ""square num-button"" onclick = ""recordClick(this)""><div class = content><div class = numbers>6</div></div></button><button id = button_7 class = ""square num-button"" onclick = ""recordClick(this)""><div class = content><div class = numbers>7</div></div></button><button id = button_8 class = ""square num-button"" onclick = ""recordClick(this)""><div class = content><div class = numbers>8</div></div></button><button id = button_9 class = ""square num-button"" onclick = ""recordClick(this)""><div class = content><div class = numbers>9</div></div></button><button class = clear_button id = ""ClearButton"" onclick = ""clearResponse()"">Clear</button><p><u><b>Current Answer:</b></u></p><div id=echoed_txt style=""font-size: 6rem; color:blue;""><b></b></div></div><br><br><br><br><br><br><br>",enter,fwdspan,response,PLM02iXzNxTT6Kekwuq7VPPObJj2,html-keyboard-response,130,696159,0.0-7.0-2.9-0.9-3.9,9.0,"[9,3,6,5,7,1,2,4,8]","[9,3,6,5,2,1,4,8,7]",0.0,"[3, 4, 5, 6, 7, 8, 9, 10, 10, 9, 9, 8]",,5bead56b5324b10001c2551c,11:21:59 AM,1/15/2024
,,,fwdspan,update_span,PLM02iXzNxTT6Kekwuq7VPPObJj2,call-function,131,696411,0.0-7.0-2.9-0.9-4.9,,,,,,,5bead56b5324b10001c2551c,11:21:59 AM,1/15/2024
4252.800000190735,"<p style=""font-size:3rem"">Trial 11 of 12</p><br><br><br>",0,fwdspan,start_trial,PLM02iXzNxTT6Kekwuq7VPPObJj2,html-button-response,132,700664,0.0-7.0-2.10-0.10-0.10,,,,,,,5bead56b5324b10001c2551c,11:21:59 AM,1/15/2024
,"<p style=""font-size:14rem;font-weight:400;"">3</p>",,fwdspan,number,PLM02iXzNxTT6Kekwuq7VPPObJj2,html-keyboard-response,133,701666,0.0-7.0-2.10-0.10-1.71-0.71,,,,,,,5bead56b5324b10001c2551c,11:21:59 AM,1/15/2024
,"<p style=""font-size:14rem;font-weight:400;"">2</p>",,fwdspan,number,PLM02iXzNxTT6Kekwuq7VPPObJj2,html-keyboard-response,134,702669,0.0-7.0-2.10-0.10-1.72-0.72,,,,,,,5bead56b5324b10001c2551c,11:21:59 AM,1/15/2024
,"<p style=""font-size:14rem;font-weight:400;"">7</p>",,fwdspan,number,PLM02iXzNxTT6Kekwuq7VPPObJj2,html-keyboard-response,135,703670,0.0-7.0-2.10-0.10-1.73-0.73,,,,,,,5bead56b5324b10001c2551c,11:21:59 AM,1/15/2024
,"<p style=""font-size:14rem;font-weight:400;"">5</p>",,fwdspan,number,PLM02iXzNxTT6Kekwuq7VPPObJj2,html-keyboard-response,136,704673,0.0-7.0-2.10-0.10-1.74-0.74,,,,,,,5bead56b5324b10001c2551c,11:21:59 AM,1/15/2024
,"<p style=""font-size:14rem;font-weight:400;"">9</p>",,fwdspan,number,PLM02iXzNxTT6Kekwuq7VPPObJj2,html-keyboard-response,137,705676,0.0-7.0-2.10-0.10-1.75-0.75,,,,,,,5bead56b5324b10001c2551c,11:21:59 AM,1/15/2024
,"<p style=""font-size:14rem;font-weight:400;"">1</p>",,fwdspan,number,PLM02iXzNxTT6Kekwuq7VPPObJj2,html-keyboard-response,138,706677,0.0-7.0-2.10-0.10-1.76-0.76,,,,,,,5bead56b5324b10001c2551c,11:21:59 AM,1/15/2024
,"<p style=""font-size:14rem;font-weight:400;"">6</p>",,fwdspan,number,PLM02iXzNxTT6Kekwuq7VPPObJj2,html-keyboard-response,139,707678,0.0-7.0-2.10-0.10-1.77-0.77,,,,,,,5bead56b5324b10001c2551c,11:21:59 AM,1/15/2024
,"<p style=""font-size:14rem;font-weight:400;"">8</p>",,fwdspan,number,PLM02iXzNxTT6Kekwuq7VPPObJj2,html-keyboard-response,140,708680,0.0-7.0-2.10-0.10-1.78-0.78,,,,,,,5bead56b5324b10001c2551c,11:21:59 AM,1/15/2024
,"<p style=""font-size:14rem;font-weight:400;"">4</p>",,fwdspan,number,PLM02iXzNxTT6Kekwuq7VPPObJj2,html-keyboard-response,141,709683,0.0-7.0-2.10-0.10-1.79-0.79,,,,,,,5bead56b5324b10001c2551c,11:21:59 AM,1/15/2024
,[],,fwdspan,delay,PLM02iXzNxTT6Kekwuq7VPPObJj2,html-keyboard-response,142,710236,0.0-7.0-2.10-0.10-2.10,,,,,,,5bead56b5324b10001c2551c,11:21:59 AM,1/15/2024
5746.200000047684,"<div class = numbox><p style=""font-size:2.5rem"">What were the numbers <b>in order</b>?<br>(When you are ready to lock in your answer, press <b>ENTER</b>)</p><button id = button_1 class = ""square num-button"" onclick = ""recordClick(this)""><div class = content><div class = numbers>1</div></div></button><button id = button_2 class = ""square num-button"" onclick = ""recordClick(this)""><div class = content><div class = numbers>2</div></div></button><button id = button_3 class = ""square num-button"" onclick = ""recordClick(this)""><div class = content><div class = numbers>3</div></div></button><button id = button_4 class = ""square num-button"" onclick = ""recordClick(this)""><div class = content><div class = numbers>4</div></div></button><button id = button_5 class = ""square num-button"" onclick = ""recordClick(this)""><div class = content><div class = numbers>5</div></div></button><button id = button_6 class = ""square num-button"" onclick = ""recordClick(this)""><div class = content><div class = numbers>6</div></div></button><button id = button_7 class = ""square num-button"" onclick = ""recordClick(this)""><div class = content><div class = numbers>7</div></div></button><button id = button_8 class = ""square num-button"" onclick = ""recordClick(this)""><div class = content><div class = numbers>8</div></div></button><button id = button_9 class = ""square num-button"" onclick = ""recordClick(this)""><div class = content><div class = numbers>9</div></div></button><button class = clear_button id = ""ClearButton"" onclick = ""clearResponse()"">Clear</button><p><u><b>Current Answer:</b></u></p><div id=echoed_txt style=""font-size: 6rem; color:blue;""><b></b></div></div><br><br><br><br><br><br><br>",enter,fwdspan,response,PLM02iXzNxTT6Kekwuq7VPPObJj2,html-keyboard-response,143,715983,0.0-7.0-2.10-0.10-3.10,9.0,"[3,2,7,9,5,1,6,4]","[3,2,7,5,9,1,6,8,4]",0.0,"[3, 4, 5, 6, 7, 8, 9, 10, 10, 9, 9, 8]",,5bead56b5324b10001c2551c,11:21:59 AM,1/15/2024
,,,fwdspan,update_span,PLM02iXzNxTT6Kekwuq7VPPObJj2,call-function,144,716236,0.0-7.0-2.10-0.10-4.10,,,,,,,5bead56b5324b10001c2551c,11:21:59 AM,1/15/2024
2324.0999999046326,"<p style=""font-size:3rem"">Trial 12 of 12</p><br><br><br>",0,fwdspan,start_trial,PLM02iXzNxTT6Kekwuq7VPPObJj2,html-button-response,145,718560,0.0-7.0-2.11-0.11-0.11,,,,,,,5bead56b5324b10001c2551c,11:21:59 AM,1/15/2024
,"<p style=""font-size:14rem;font-weight:400;"">6</p>",,fwdspan,number,PLM02iXzNxTT6Kekwuq7VPPObJj2,html-keyboard-response,146,719563,0.0-7.0-2.11-0.11-1.80-0.80,,,,,,,5bead56b5324b10001c2551c,11:21:59 AM,1/15/2024
,"<p style=""font-size:14rem;font-weight:400;"">5</p>",,fwdspan,number,PLM02iXzNxTT6Kekwuq7VPPObJj2,html-keyboard-response,147,720564,0.0-7.0-2.11-0.11-1.81-0.81,,,,,,,5bead56b5324b10001c2551c,11:21:59 AM,1/15/2024
,"<p style=""font-size:14rem;font-weight:400;"">9</p>",,fwdspan,number,PLM02iXzNxTT6Kekwuq7VPPObJj2,html-keyboard-response,148,721567,0.0-7.0-2.11-0.11-1.82-0.82,,,,,,,5bead56b5324b10001c2551c,11:21:59 AM,1/15/2024
,"<p style=""font-size:14rem;font-weight:400;"">7</p>",,fwdspan,number,PLM02iXzNxTT6Kekwuq7VPPObJj2,html-keyboard-response,149,722569,0.0-7.0-2.11-0.11-1.83-0.83,,,,,,,5bead56b5324b10001c2551c,11:21:59 AM,1/15/2024
,"<p style=""font-size:14rem;font-weight:400;"">4</p>",,fwdspan,number,PLM02iXzNxTT6Kekwuq7VPPObJj2,html-keyboard-response,150,723573,0.0-7.0-2.11-0.11-1.84-0.84,,,,,,,5bead56b5324b10001c2551c,11:21:59 AM,1/15/2024
,"<p style=""font-size:14rem;font-weight:400;"">1</p>",,fwdspan,number,PLM02iXzNxTT6Kekwuq7VPPObJj2,html-keyboard-response,151,724576,0.0-7.0-2.11-0.11-1.85-0.85,,,,,,,5bead56b5324b10001c2551c,11:21:59 AM,1/15/2024
,"<p style=""font-size:14rem;font-weight:400;"">3</p>",,fwdspan,number,PLM02iXzNxTT6Kekwuq7VPPObJj2,html-keyboard-response,152,725580,0.0-7.0-2.11-0.11-1.86-0.86,,,,,,,5bead56b5324b10001c2551c,11:21:59 AM,1/15/2024
,"<p style=""font-size:14rem;font-weight:400;"">2</p>",,fwdspan,number,PLM02iXzNxTT6Kekwuq7VPPObJj2,html-keyboard-response,153,726582,0.0-7.0-2.11-0.11-1.87-0.87,,,,,,,5bead56b5324b10001c2551c,11:21:59 AM,1/15/2024
,[],,fwdspan,delay,PLM02iXzNxTT6Kekwuq7VPPObJj2,html-keyboard-response,154,727135,0.0-7.0-2.11-0.11-2.11,,,,,,,5bead56b5324b10001c2551c,11:21:59 AM,1/15/2024
5191.599999904633,"<div class = numbox><p style=""font-size:2.5rem"">What were the numbers <b>in order</b>?<br>(When you are ready to lock in your answer, press <b>ENTER</b>)</p><button id = button_1 class = ""square num-button"" onclick = ""recordClick(this)""><div class = content><div class = numbers>1</div></div></button><button id = button_2 class = ""square num-button"" onclick = ""recordClick(this)""><div class = content><div class = numbers>2</div></div></button><button id = button_3 class = ""square num-button"" onclick = ""recordClick(this)""><div class = content><div class = numbers>3</div></div></button><button id = button_4 class = ""square num-button"" onclick = ""recordClick(this)""><div class = content><div class = numbers>4</div></div></button><button id = button_5 class = ""square num-button"" onclick = ""recordClick(this)""><div class = content><div class = numbers>5</div></div></button><button id = button_6 class = ""square num-button"" onclick = ""recordClick(this)""><div class = content><div class = numbers>6</div></div></button><button id = button_7 class = ""square num-button"" onclick = ""recordClick(this)""><div class = content><div class = numbers>7</div></div></button><button id = button_8 class = ""square num-button"" onclick = ""recordClick(this)""><div class = content><div class = numbers>8</div></div></button><button id = button_9 class = ""square num-button"" onclick = ""recordClick(this)""><div class = content><div class = numbers>9</div></div></button><button class = clear_button id = ""ClearButton"" onclick = ""clearResponse()"">Clear</button><p><u><b>Current Answer:</b></u></p><div id=echoed_txt style=""font-size: 6rem; color:blue;""><b></b></div></div><br><br><br><br><br><br><br>",enter,fwdspan,response,PLM02iXzNxTT6Kekwuq7VPPObJj2,html-keyboard-response,155,732328,0.0-7.0-2.11-0.11-3.11,8.0,"[6,5,9,7,4,1,3,2]","[6,5,9,7,4,1,3,2]",1.0,"[3, 4, 5, 6, 7, 8, 9, 10, 10, 9, 9, 8]",,5bead56b5324b10001c2551c,11:21:59 AM,1/15/2024
,,,fwdspan,update_span,PLM02iXzNxTT6Kekwuq7VPPObJj2,call-function,156,732579,0.0-7.0-2.11-0.11-4.11,,,,,,,5bead56b5324b10001c2551c,11:21:59 AM,1/15/2024
20407.89999985695,,{'Q0': 'the instructions were clear and I had no issues'},fwdspan,survey,PLM02iXzNxTT6Kekwuq7VPPObJj2,lmdlab-survey-text,157,753739,0.0-7.0-3.0,,,,,,PLM02iXzNxTT6Kekwuq7VPPObJj2,5bead56b5324b10001c2551c,11:21:59 AM,1/15/2024
1388.0,<p><p style='font-size: 3rem'>Great work!<br><br>This completes the digit span task.</p><br><br><br>,0,fwdspan,finish,PLM02iXzNxTT6Kekwuq7VPPObJj2,html-button-response,158,755128,0.0-7.0-4.0,,,,,,,5bead56b5324b10001c2551c,11:21:59 AM,1/15/2024
