rt,stimulus,response,exp_name,exp_stage,subjectID,trial_type,trial_index,time_elapsed,internal_node_id,span,answer,correct,correct_full,span_history,databaseID,prolificID,start_time,date
7027.200000047684,"<p style=""font-size:4rem""><br><br>In the next part today, we have a completely different short task.<br><br><br>This part involves keeping numbers in you mind. Participation takes around 5 minutes.<br><br><br></p>",0,fwdspan,instruct,Q7m9SW31boNTiDnlZCxV8l0Up1v1,html-button-response,19,318445,0.0-7.0-0.0,,,,,,,6560ae7968dae6508fe4d420,11:20:41,15/01/2024
12323.799999952316,"<p style=""font-size:5rem"">Welcome to the <b>digit span task</b>!<br><br></p><p style=""font-size:3.4rem""><br>On each trial, you will see a sequence of digits, followed by a delay.</p><p style=""font-size:3.4rem""><br>Then you will be asked to type them back in the same order in which they were seen.</p><p style=""font-size:3.4rem""><br><br><br>For example, if you saw the digits <b style=""color:blue;"">1</b>, <b style=""color:blue;"">2</b>, <b style=""color:blue;"">3</b>, you would respond with <b style=""color:blue;"">1</b>, <b style=""color:blue;"">2</b>, <b style=""color:blue;"">3</b></p><p style=""font-size:3.4rem""><br><br><br>To ensure the best measure of true performance for our study,<br><br>it is very important that you do not use any memory aid (e.g., pen and paper).<br><br>Please do the task solely in your head.</p><p style=""font-size:3.4rem""><br><br><br>There will be 12 total trials. Participation takes around 5 minutes.</p><br><br><br>",0,fwdspan,instruct,Q7m9SW31boNTiDnlZCxV8l0Up1v1,html-button-response,20,330771,0.0-7.0-1.0,,,,,,,6560ae7968dae6508fe4d420,11:20:41,15/01/2024
1395.6000000238419,"<p style=""font-size:3rem"">Trial 1 of 12</p><br><br><br>",0,fwdspan,start_trial,Q7m9SW31boNTiDnlZCxV8l0Up1v1,html-button-response,21,332172,0.0-7.0-2.0-0.0-0.0,,,,,,,6560ae7968dae6508fe4d420,11:20:41,15/01/2024
,"<p style=""font-size:14rem;font-weight:400;"">5</p>",,fwdspan,number,Q7m9SW31boNTiDnlZCxV8l0Up1v1,html-keyboard-response,22,333175,0.0-7.0-2.0-0.0-1.0-0.0,,,,,,,6560ae7968dae6508fe4d420,11:20:41,15/01/2024
,"<p style=""font-size:14rem;font-weight:400;"">3</p>",,fwdspan,number,Q7m9SW31boNTiDnlZCxV8l0Up1v1,html-keyboard-response,23,334183,0.0-7.0-2.0-0.0-1.1-0.1,,,,,,,6560ae7968dae6508fe4d420,11:20:41,15/01/2024
,"<p style=""font-size:14rem;font-weight:400;"">1</p>",,fwdspan,number,Q7m9SW31boNTiDnlZCxV8l0Up1v1,html-keyboard-response,24,335193,0.0-7.0-2.0-0.0-1.2-0.2,,,,,,,6560ae7968dae6508fe4d420,11:20:41,15/01/2024
,[],,fwdspan,delay,Q7m9SW31boNTiDnlZCxV8l0Up1v1,html-keyboard-response,25,335753,0.0-7.0-2.0-0.0-2.0,,,,,,,6560ae7968dae6508fe4d420,11:20:41,15/01/2024
7215.800000071526,"<div class = numbox><p style=""font-size:2.5rem"">What were the numbers <b>in order</b>?<br>(When you are ready to lock in your answer, press <b>ENTER</b>)</p><button id = button_1 class = ""square num-button"" onclick = ""recordClick(this)""><div class = content><div class = numbers>1</div></div></button><button id = button_2 class = ""square num-button"" onclick = ""recordClick(this)""><div class = content><div class = numbers>2</div></div></button><button id = button_3 class = ""square num-button"" onclick = ""recordClick(this)""><div class = content><div class = numbers>3</div></div></button><button id = button_4 class = ""square num-button"" onclick = ""recordClick(this)""><div class = content><div class = numbers>4</div></div></button><button id = button_5 class = ""square num-button"" onclick = ""recordClick(this)""><div class = content><div class = numbers>5</div></div></button><button id = button_6 class = ""square num-button"" onclick = ""recordClick(this)""><div class = content><div class = numbers>6</div></div></button><button id = button_7 class = ""square num-button"" onclick = ""recordClick(this)""><div class = content><div class = numbers>7</div></div></button><button id = button_8 class = ""square num-button"" onclick = ""recordClick(this)""><div class = content><div class = numbers>8</div></div></button><button id = button_9 class = ""square num-button"" onclick = ""recordClick(this)""><div class = content><div class = numbers>9</div></div></button><button class = clear_button id = ""ClearButton"" onclick = ""clearResponse()"">Clear</button><p><u><b>Current Answer:</b></u></p><div id=echoed_txt style=""font-size: 6rem; color:blue;""><b></b></div></div><br><br><br><br><br><br><br>",enter,fwdspan,response,Q7m9SW31boNTiDnlZCxV8l0Up1v1,html-keyboard-response,26,342970,0.0-7.0-2.0-0.0-3.0,3.0,"[5,3,1]","[5,3,1]",1.0,"[3, 4, 5, 6, 6, 7, 8, 8, 7, 8, 8, 7]",,6560ae7968dae6508fe4d420,11:20:41,15/01/2024
,,,fwdspan,update_span,Q7m9SW31boNTiDnlZCxV8l0Up1v1,call-function,27,343224,0.0-7.0-2.0-0.0-4.0,,,,,,,6560ae7968dae6508fe4d420,11:20:41,15/01/2024
1378.6000000238419,"<p style=""font-size:3rem"">Trial 2 of 12</p><br><br><br>",0,fwdspan,start_trial,Q7m9SW31boNTiDnlZCxV8l0Up1v1,html-button-response,28,344603,0.0-7.0-2.1-0.1-0.1,,,,,,,6560ae7968dae6508fe4d420,11:20:41,15/01/2024
,"<p style=""font-size:14rem;font-weight:400;"">8</p>",,fwdspan,number,Q7m9SW31boNTiDnlZCxV8l0Up1v1,html-keyboard-response,29,345607,0.0-7.0-2.1-0.1-1.3-0.3,,,,,,,6560ae7968dae6508fe4d420,11:20:41,15/01/2024
,"<p style=""font-size:14rem;font-weight:400;"">9</p>",,fwdspan,number,Q7m9SW31boNTiDnlZCxV8l0Up1v1,html-keyboard-response,30,346611,0.0-7.0-2.1-0.1-1.4-0.4,,,,,,,6560ae7968dae6508fe4d420,11:20:41,15/01/2024
,"<p style=""font-size:14rem;font-weight:400;"">1</p>",,fwdspan,number,Q7m9SW31boNTiDnlZCxV8l0Up1v1,html-keyboard-response,31,347614,0.0-7.0-2.1-0.1-1.5-0.5,,,,,,,6560ae7968dae6508fe4d420,11:20:41,15/01/2024
,"<p style=""font-size:14rem;font-weight:400;"">4</p>",,fwdspan,number,Q7m9SW31boNTiDnlZCxV8l0Up1v1,html-keyboard-response,32,348619,0.0-7.0-2.1-0.1-1.6-0.6,,,,,,,6560ae7968dae6508fe4d420,11:20:41,15/01/2024
,[],,fwdspan,delay,Q7m9SW31boNTiDnlZCxV8l0Up1v1,html-keyboard-response,33,349178,0.0-7.0-2.1-0.1-2.1,,,,,,,6560ae7968dae6508fe4d420,11:20:41,15/01/2024
3531.7000000476837,"<div class = numbox><p style=""font-size:2.5rem"">What were the numbers <b>in order</b>?<br>(When you are ready to lock in your answer, press <b>ENTER</b>)</p><button id = button_1 class = ""square num-button"" onclick = ""recordClick(this)""><div class = content><div class = numbers>1</div></div></button><button id = button_2 class = ""square num-button"" onclick = ""recordClick(this)""><div class = content><div class = numbers>2</div></div></button><button id = button_3 class = ""square num-button"" onclick = ""recordClick(this)""><div class = content><div class = numbers>3</div></div></button><button id = button_4 class = ""square num-button"" onclick = ""recordClick(this)""><div class = content><div class = numbers>4</div></div></button><button id = button_5 class = ""square num-button"" onclick = ""recordClick(this)""><div class = content><div class = numbers>5</div></div></button><button id = button_6 class = ""square num-button"" onclick = ""recordClick(this)""><div class = content><div class = numbers>6</div></div></button><button id = button_7 class = ""square num-button"" onclick = ""recordClick(this)""><div class = content><div class = numbers>7</div></div></button><button id = button_8 class = ""square num-button"" onclick = ""recordClick(this)""><div class = content><div class = numbers>8</div></div></button><button id = button_9 class = ""square num-button"" onclick = ""recordClick(this)""><div class = content><div class = numbers>9</div></div></button><button class = clear_button id = ""ClearButton"" onclick = ""clearResponse()"">Clear</button><p><u><b>Current Answer:</b></u></p><div id=echoed_txt style=""font-size: 6rem; color:blue;""><b></b></div></div><br><br><br><br><br><br><br>",enter,fwdspan,response,Q7m9SW31boNTiDnlZCxV8l0Up1v1,html-keyboard-response,34,352712,0.0-7.0-2.1-0.1-3.1,4.0,"[8,9,1,4]","[8,9,1,4]",1.0,"[3, 4, 5, 6, 6, 7, 8, 8, 7, 8, 8, 7]",,6560ae7968dae6508fe4d420,11:20:41,15/01/2024
,,,fwdspan,update_span,Q7m9SW31boNTiDnlZCxV8l0Up1v1,call-function,35,352969,0.0-7.0-2.1-0.1-4.1,,,,,,,6560ae7968dae6508fe4d420,11:20:41,15/01/2024
935.7999999523163,"<p style=""font-size:3rem"">Trial 3 of 12</p><br><br><br>",0,fwdspan,start_trial,Q7m9SW31boNTiDnlZCxV8l0Up1v1,html-button-response,36,353906,0.0-7.0-2.2-0.2-0.2,,,,,,,6560ae7968dae6508fe4d420,11:20:41,15/01/2024
,"<p style=""font-size:14rem;font-weight:400;"">9</p>",,fwdspan,number,Q7m9SW31boNTiDnlZCxV8l0Up1v1,html-keyboard-response,37,354908,0.0-7.0-2.2-0.2-1.7-0.7,,,,,,,6560ae7968dae6508fe4d420,11:20:41,15/01/2024
,"<p style=""font-size:14rem;font-weight:400;"">5</p>",,fwdspan,number,Q7m9SW31boNTiDnlZCxV8l0Up1v1,html-keyboard-response,38,355914,0.0-7.0-2.2-0.2-1.8-0.8,,,,,,,6560ae7968dae6508fe4d420,11:20:41,15/01/2024
,"<p style=""font-size:14rem;font-weight:400;"">2</p>",,fwdspan,number,Q7m9SW31boNTiDnlZCxV8l0Up1v1,html-keyboard-response,39,356922,0.0-7.0-2.2-0.2-1.9-0.9,,,,,,,6560ae7968dae6508fe4d420,11:20:41,15/01/2024
,"<p style=""font-size:14rem;font-weight:400;"">4</p>",,fwdspan,number,Q7m9SW31boNTiDnlZCxV8l0Up1v1,html-keyboard-response,40,357926,0.0-7.0-2.2-0.2-1.10-0.10,,,,,,,6560ae7968dae6508fe4d420,11:20:41,15/01/2024
,"<p style=""font-size:14rem;font-weight:400;"">3</p>",,fwdspan,number,Q7m9SW31boNTiDnlZCxV8l0Up1v1,html-keyboard-response,41,358928,0.0-7.0-2.2-0.2-1.11-0.11,,,,,,,6560ae7968dae6508fe4d420,11:20:41,15/01/2024
,[],,fwdspan,delay,Q7m9SW31boNTiDnlZCxV8l0Up1v1,html-keyboard-response,42,359481,0.0-7.0-2.2-0.2-2.2,,,,,,,6560ae7968dae6508fe4d420,11:20:41,15/01/2024
4896.5,"<div class = numbox><p style=""font-size:2.5rem"">What were the numbers <b>in order</b>?<br>(When you are ready to lock in your answer, press <b>ENTER</b>)</p><button id = button_1 class = ""square num-button"" onclick = ""recordClick(this)""><div class = content><div class = numbers>1</div></div></button><button id = button_2 class = ""square num-button"" onclick = ""recordClick(this)""><div class = content><div class = numbers>2</div></div></button><button id = button_3 class = ""square num-button"" onclick = ""recordClick(this)""><div class = content><div class = numbers>3</div></div></button><button id = button_4 class = ""square num-button"" onclick = ""recordClick(this)""><div class = content><div class = numbers>4</div></div></button><button id = button_5 class = ""square num-button"" onclick = ""recordClick(this)""><div class = content><div class = numbers>5</div></div></button><button id = button_6 class = ""square num-button"" onclick = ""recordClick(this)""><div class = content><div class = numbers>6</div></div></button><button id = button_7 class = ""square num-button"" onclick = ""recordClick(this)""><div class = content><div class = numbers>7</div></div></button><button id = button_8 class = ""square num-button"" onclick = ""recordClick(this)""><div class = content><div class = numbers>8</div></div></button><button id = button_9 class = ""square num-button"" onclick = ""recordClick(this)""><div class = content><div class = numbers>9</div></div></button><button class = clear_button id = ""ClearButton"" onclick = ""clearResponse()"">Clear</button><p><u><b>Current Answer:</b></u></p><div id=echoed_txt style=""font-size: 6rem; color:blue;""><b></b></div></div><br><br><br><br><br><br><br>",enter,fwdspan,response,Q7m9SW31boNTiDnlZCxV8l0Up1v1,html-keyboard-response,43,364379,0.0-7.0-2.2-0.2-3.2,5.0,"[9,5,2,4,3]","[9,5,2,4,3]",1.0,"[3, 4, 5, 6, 6, 7, 8, 8, 7, 8, 8, 7]",,6560ae7968dae6508fe4d420,11:20:41,15/01/2024
,,,fwdspan,update_span,Q7m9SW31boNTiDnlZCxV8l0Up1v1,call-function,44,364631,0.0-7.0-2.2-0.2-4.2,,,,,,,6560ae7968dae6508fe4d420,11:20:41,15/01/2024
969.5,"<p style=""font-size:3rem"">Trial 4 of 12</p><br><br><br>",0,fwdspan,start_trial,Q7m9SW31boNTiDnlZCxV8l0Up1v1,html-button-response,45,365602,0.0-7.0-2.3-0.3-0.3,,,,,,,6560ae7968dae6508fe4d420,11:20:41,15/01/2024
,"<p style=""font-size:14rem;font-weight:400;"">3</p>",,fwdspan,number,Q7m9SW31boNTiDnlZCxV8l0Up1v1,html-keyboard-response,46,366604,0.0-7.0-2.3-0.3-1.12-0.12,,,,,,,6560ae7968dae6508fe4d420,11:20:41,15/01/2024
,"<p style=""font-size:14rem;font-weight:400;"">6</p>",,fwdspan,number,Q7m9SW31boNTiDnlZCxV8l0Up1v1,html-keyboard-response,47,367612,0.0-7.0-2.3-0.3-1.13-0.13,,,,,,,6560ae7968dae6508fe4d420,11:20:41,15/01/2024
,"<p style=""font-size:14rem;font-weight:400;"">9</p>",,fwdspan,number,Q7m9SW31boNTiDnlZCxV8l0Up1v1,html-keyboard-response,48,368615,0.0-7.0-2.3-0.3-1.14-0.14,,,,,,,6560ae7968dae6508fe4d420,11:20:41,15/01/2024
,"<p style=""font-size:14rem;font-weight:400;"">5</p>",,fwdspan,number,Q7m9SW31boNTiDnlZCxV8l0Up1v1,html-keyboard-response,49,369618,0.0-7.0-2.3-0.3-1.15-0.15,,,,,,,6560ae7968dae6508fe4d420,11:20:41,15/01/2024
,"<p style=""font-size:14rem;font-weight:400;"">1</p>",,fwdspan,number,Q7m9SW31boNTiDnlZCxV8l0Up1v1,html-keyboard-response,50,370620,0.0-7.0-2.3-0.3-1.16-0.16,,,,,,,6560ae7968dae6508fe4d420,11:20:41,15/01/2024
,"<p style=""font-size:14rem;font-weight:400;"">7</p>",,fwdspan,number,Q7m9SW31boNTiDnlZCxV8l0Up1v1,html-keyboard-response,51,371626,0.0-7.0-2.3-0.3-1.17-0.17,,,,,,,6560ae7968dae6508fe4d420,11:20:41,15/01/2024
,[],,fwdspan,delay,Q7m9SW31boNTiDnlZCxV8l0Up1v1,html-keyboard-response,52,372184,0.0-7.0-2.3-0.3-2.3,,,,,,,6560ae7968dae6508fe4d420,11:20:41,15/01/2024
11574.199999928474,"<div class = numbox><p style=""font-size:2.5rem"">What were the numbers <b>in order</b>?<br>(When you are ready to lock in your answer, press <b>ENTER</b>)</p><button id = button_1 class = ""square num-button"" onclick = ""recordClick(this)""><div class = content><div class = numbers>1</div></div></button><button id = button_2 class = ""square num-button"" onclick = ""recordClick(this)""><div class = content><div class = numbers>2</div></div></button><button id = button_3 class = ""square num-button"" onclick = ""recordClick(this)""><div class = content><div class = numbers>3</div></div></button><button id = button_4 class = ""square num-button"" onclick = ""recordClick(this)""><div class = content><div class = numbers>4</div></div></button><button id = button_5 class = ""square num-button"" onclick = ""recordClick(this)""><div class = content><div class = numbers>5</div></div></button><button id = button_6 class = ""square num-button"" onclick = ""recordClick(this)""><div class = content><div class = numbers>6</div></div></button><button id = button_7 class = ""square num-button"" onclick = ""recordClick(this)""><div class = content><div class = numbers>7</div></div></button><button id = button_8 class = ""square num-button"" onclick = ""recordClick(this)""><div class = content><div class = numbers>8</div></div></button><button id = button_9 class = ""square num-button"" onclick = ""recordClick(this)""><div class = content><div class = numbers>9</div></div></button><button class = clear_button id = ""ClearButton"" onclick = ""clearResponse()"">Clear</button><p><u><b>Current Answer:</b></u></p><div id=echoed_txt style=""font-size: 6rem; color:blue;""><b></b></div></div><br><br><br><br><br><br><br>",enter,fwdspan,response,Q7m9SW31boNTiDnlZCxV8l0Up1v1,html-keyboard-response,53,383759,0.0-7.0-2.3-0.3-3.3,6.0,"[3,6,9,5,2,7]","[3,6,9,5,1,7]",0.0,"[3, 4, 5, 6, 6, 7, 8, 8, 7, 8, 8, 7]",,6560ae7968dae6508fe4d420,11:20:41,15/01/2024
,,,fwdspan,update_span,Q7m9SW31boNTiDnlZCxV8l0Up1v1,call-function,54,384012,0.0-7.0-2.3-0.3-4.3,,,,,,,6560ae7968dae6508fe4d420,11:20:41,15/01/2024
1113.1999999284744,"<p style=""font-size:3rem"">Trial 5 of 12</p><br><br><br>",0,fwdspan,start_trial,Q7m9SW31boNTiDnlZCxV8l0Up1v1,html-button-response,55,385126,0.0-7.0-2.4-0.4-0.4,,,,,,,6560ae7968dae6508fe4d420,11:20:41,15/01/2024
,"<p style=""font-size:14rem;font-weight:400;"">6</p>",,fwdspan,number,Q7m9SW31boNTiDnlZCxV8l0Up1v1,html-keyboard-response,56,386128,0.0-7.0-2.4-0.4-1.18-0.18,,,,,,,6560ae7968dae6508fe4d420,11:20:41,15/01/2024
,"<p style=""font-size:14rem;font-weight:400;"">7</p>",,fwdspan,number,Q7m9SW31boNTiDnlZCxV8l0Up1v1,html-keyboard-response,57,387133,0.0-7.0-2.4-0.4-1.19-0.19,,,,,,,6560ae7968dae6508fe4d420,11:20:41,15/01/2024
,"<p style=""font-size:14rem;font-weight:400;"">9</p>",,fwdspan,number,Q7m9SW31boNTiDnlZCxV8l0Up1v1,html-keyboard-response,58,388136,0.0-7.0-2.4-0.4-1.20-0.20,,,,,,,6560ae7968dae6508fe4d420,11:20:41,15/01/2024
,"<p style=""font-size:14rem;font-weight:400;"">1</p>",,fwdspan,number,Q7m9SW31boNTiDnlZCxV8l0Up1v1,html-keyboard-response,59,389138,0.0-7.0-2.4-0.4-1.21-0.21,,,,,,,6560ae7968dae6508fe4d420,11:20:41,15/01/2024
,"<p style=""font-size:14rem;font-weight:400;"">2</p>",,fwdspan,number,Q7m9SW31boNTiDnlZCxV8l0Up1v1,html-keyboard-response,60,390141,0.0-7.0-2.4-0.4-1.22-0.22,,,,,,,6560ae7968dae6508fe4d420,11:20:41,15/01/2024
,"<p style=""font-size:14rem;font-weight:400;"">3</p>",,fwdspan,number,Q7m9SW31boNTiDnlZCxV8l0Up1v1,html-keyboard-response,61,391147,0.0-7.0-2.4-0.4-1.23-0.23,,,,,,,6560ae7968dae6508fe4d420,11:20:41,15/01/2024
,[],,fwdspan,delay,Q7m9SW31boNTiDnlZCxV8l0Up1v1,html-keyboard-response,62,391703,0.0-7.0-2.4-0.4-2.4,,,,,,,6560ae7968dae6508fe4d420,11:20:41,15/01/2024
5083.5,"<div class = numbox><p style=""font-size:2.5rem"">What were the numbers <b>in order</b>?<br>(When you are ready to lock in your answer, press <b>ENTER</b>)</p><button id = button_1 class = ""square num-button"" onclick = ""recordClick(this)""><div class = content><div class = numbers>1</div></div></button><button id = button_2 class = ""square num-button"" onclick = ""recordClick(this)""><div class = content><div class = numbers>2</div></div></button><button id = button_3 class = ""square num-button"" onclick = ""recordClick(this)""><div class = content><div class = numbers>3</div></div></button><button id = button_4 class = ""square num-button"" onclick = ""recordClick(this)""><div class = content><div class = numbers>4</div></div></button><button id = button_5 class = ""square num-button"" onclick = ""recordClick(this)""><div class = content><div class = numbers>5</div></div></button><button id = button_6 class = ""square num-button"" onclick = ""recordClick(this)""><div class = content><div class = numbers>6</div></div></button><button id = button_7 class = ""square num-button"" onclick = ""recordClick(this)""><div class = content><div class = numbers>7</div></div></button><button id = button_8 class = ""square num-button"" onclick = ""recordClick(this)""><div class = content><div class = numbers>8</div></div></button><button id = button_9 class = ""square num-button"" onclick = ""recordClick(this)""><div class = content><div class = numbers>9</div></div></button><button class = clear_button id = ""ClearButton"" onclick = ""clearResponse()"">Clear</button><p><u><b>Current Answer:</b></u></p><div id=echoed_txt style=""font-size: 6rem; color:blue;""><b></b></div></div><br><br><br><br><br><br><br>",enter,fwdspan,response,Q7m9SW31boNTiDnlZCxV8l0Up1v1,html-keyboard-response,63,396788,0.0-7.0-2.4-0.4-3.4,6.0,"[6,7,9,1,2,3]","[6,7,9,1,2,3]",1.0,"[3, 4, 5, 6, 6, 7, 8, 8, 7, 8, 8, 7]",,6560ae7968dae6508fe4d420,11:20:41,15/01/2024
,,,fwdspan,update_span,Q7m9SW31boNTiDnlZCxV8l0Up1v1,call-function,64,397040,0.0-7.0-2.4-0.4-4.4,,,,,,,6560ae7968dae6508fe4d420,11:20:41,15/01/2024
2041.6000000238419,"<p style=""font-size:3rem"">Trial 6 of 12</p><br><br><br>",0,fwdspan,start_trial,Q7m9SW31boNTiDnlZCxV8l0Up1v1,html-button-response,65,399083,0.0-7.0-2.5-0.5-0.5,,,,,,,6560ae7968dae6508fe4d420,11:20:41,15/01/2024
,"<p style=""font-size:14rem;font-weight:400;"">9</p>",,fwdspan,number,Q7m9SW31boNTiDnlZCxV8l0Up1v1,html-keyboard-response,66,400088,0.0-7.0-2.5-0.5-1.24-0.24,,,,,,,6560ae7968dae6508fe4d420,11:20:41,15/01/2024
,"<p style=""font-size:14rem;font-weight:400;"">2</p>",,fwdspan,number,Q7m9SW31boNTiDnlZCxV8l0Up1v1,html-keyboard-response,67,401092,0.0-7.0-2.5-0.5-1.25-0.25,,,,,,,6560ae7968dae6508fe4d420,11:20:41,15/01/2024
,"<p style=""font-size:14rem;font-weight:400;"">4</p>",,fwdspan,number,Q7m9SW31boNTiDnlZCxV8l0Up1v1,html-keyboard-response,68,402100,0.0-7.0-2.5-0.5-1.26-0.26,,,,,,,6560ae7968dae6508fe4d420,11:20:41,15/01/2024
,"<p style=""font-size:14rem;font-weight:400;"">7</p>",,fwdspan,number,Q7m9SW31boNTiDnlZCxV8l0Up1v1,html-keyboard-response,69,403102,0.0-7.0-2.5-0.5-1.27-0.27,,,,,,,6560ae7968dae6508fe4d420,11:20:41,15/01/2024
,"<p style=""font-size:14rem;font-weight:400;"">3</p>",,fwdspan,number,Q7m9SW31boNTiDnlZCxV8l0Up1v1,html-keyboard-response,70,404106,0.0-7.0-2.5-0.5-1.28-0.28,,,,,,,6560ae7968dae6508fe4d420,11:20:41,15/01/2024
,"<p style=""font-size:14rem;font-weight:400;"">8</p>",,fwdspan,number,Q7m9SW31boNTiDnlZCxV8l0Up1v1,html-keyboard-response,71,405110,0.0-7.0-2.5-0.5-1.29-0.29,,,,,,,6560ae7968dae6508fe4d420,11:20:41,15/01/2024
,"<p style=""font-size:14rem;font-weight:400;"">6</p>",,fwdspan,number,Q7m9SW31boNTiDnlZCxV8l0Up1v1,html-keyboard-response,72,406116,0.0-7.0-2.5-0.5-1.30-0.30,,,,,,,6560ae7968dae6508fe4d420,11:20:41,15/01/2024
,[],,fwdspan,delay,Q7m9SW31boNTiDnlZCxV8l0Up1v1,html-keyboard-response,73,406669,0.0-7.0-2.5-0.5-2.5,,,,,,,6560ae7968dae6508fe4d420,11:20:41,15/01/2024
5096.699999928474,"<div class = numbox><p style=""font-size:2.5rem"">What were the numbers <b>in order</b>?<br>(When you are ready to lock in your answer, press <b>ENTER</b>)</p><button id = button_1 class = ""square num-button"" onclick = ""recordClick(this)""><div class = content><div class = numbers>1</div></div></button><button id = button_2 class = ""square num-button"" onclick = ""recordClick(this)""><div class = content><div class = numbers>2</div></div></button><button id = button_3 class = ""square num-button"" onclick = ""recordClick(this)""><div class = content><div class = numbers>3</div></div></button><button id = button_4 class = ""square num-button"" onclick = ""recordClick(this)""><div class = content><div class = numbers>4</div></div></button><button id = button_5 class = ""square num-button"" onclick = ""recordClick(this)""><div class = content><div class = numbers>5</div></div></button><button id = button_6 class = ""square num-button"" onclick = ""recordClick(this)""><div class = content><div class = numbers>6</div></div></button><button id = button_7 class = ""square num-button"" onclick = ""recordClick(this)""><div class = content><div class = numbers>7</div></div></button><button id = button_8 class = ""square num-button"" onclick = ""recordClick(this)""><div class = content><div class = numbers>8</div></div></button><button id = button_9 class = ""square num-button"" onclick = ""recordClick(this)""><div class = content><div class = numbers>9</div></div></button><button class = clear_button id = ""ClearButton"" onclick = ""clearResponse()"">Clear</button><p><u><b>Current Answer:</b></u></p><div id=echoed_txt style=""font-size: 6rem; color:blue;""><b></b></div></div><br><br><br><br><br><br><br>",enter,fwdspan,response,Q7m9SW31boNTiDnlZCxV8l0Up1v1,html-keyboard-response,74,411766,0.0-7.0-2.5-0.5-3.5,7.0,"[9,2,4,7,3,8,6]","[9,2,4,7,3,8,6]",1.0,"[3, 4, 5, 6, 6, 7, 8, 8, 7, 8, 8, 7]",,6560ae7968dae6508fe4d420,11:20:41,15/01/2024
,,,fwdspan,update_span,Q7m9SW31boNTiDnlZCxV8l0Up1v1,call-function,75,412023,0.0-7.0-2.5-0.5-4.5,,,,,,,6560ae7968dae6508fe4d420,11:20:41,15/01/2024
866.3999999761581,"<p style=""font-size:3rem"">Trial 7 of 12</p><br><br><br>",0,fwdspan,start_trial,Q7m9SW31boNTiDnlZCxV8l0Up1v1,html-button-response,76,412891,0.0-7.0-2.6-0.6-0.6,,,,,,,6560ae7968dae6508fe4d420,11:20:41,15/01/2024
,"<p style=""font-size:14rem;font-weight:400;"">8</p>",,fwdspan,number,Q7m9SW31boNTiDnlZCxV8l0Up1v1,html-keyboard-response,77,413895,0.0-7.0-2.6-0.6-1.31-0.31,,,,,,,6560ae7968dae6508fe4d420,11:20:41,15/01/2024
,"<p style=""font-size:14rem;font-weight:400;"">4</p>",,fwdspan,number,Q7m9SW31boNTiDnlZCxV8l0Up1v1,html-keyboard-response,78,414898,0.0-7.0-2.6-0.6-1.32-0.32,,,,,,,6560ae7968dae6508fe4d420,11:20:41,15/01/2024
,"<p style=""font-size:14rem;font-weight:400;"">7</p>",,fwdspan,number,Q7m9SW31boNTiDnlZCxV8l0Up1v1,html-keyboard-response,79,415904,0.0-7.0-2.6-0.6-1.33-0.33,,,,,,,6560ae7968dae6508fe4d420,11:20:41,15/01/2024
,"<p style=""font-size:14rem;font-weight:400;"">6</p>",,fwdspan,number,Q7m9SW31boNTiDnlZCxV8l0Up1v1,html-keyboard-response,80,416921,0.0-7.0-2.6-0.6-1.34-0.34,,,,,,,6560ae7968dae6508fe4d420,11:20:41,15/01/2024
,"<p style=""font-size:14rem;font-weight:400;"">5</p>",,fwdspan,number,Q7m9SW31boNTiDnlZCxV8l0Up1v1,html-keyboard-response,81,417931,0.0-7.0-2.6-0.6-1.35-0.35,,,,,,,6560ae7968dae6508fe4d420,11:20:41,15/01/2024
,"<p style=""font-size:14rem;font-weight:400;"">9</p>",,fwdspan,number,Q7m9SW31boNTiDnlZCxV8l0Up1v1,html-keyboard-response,82,418937,0.0-7.0-2.6-0.6-1.36-0.36,,,,,,,6560ae7968dae6508fe4d420,11:20:41,15/01/2024
,"<p style=""font-size:14rem;font-weight:400;"">1</p>",,fwdspan,number,Q7m9SW31boNTiDnlZCxV8l0Up1v1,html-keyboard-response,83,419942,0.0-7.0-2.6-0.6-1.37-0.37,,,,,,,6560ae7968dae6508fe4d420,11:20:41,15/01/2024
,"<p style=""font-size:14rem;font-weight:400;"">3</p>",,fwdspan,number,Q7m9SW31boNTiDnlZCxV8l0Up1v1,html-keyboard-response,84,420945,0.0-7.0-2.6-0.6-1.38-0.38,,,,,,,6560ae7968dae6508fe4d420,11:20:41,15/01/2024
,[],,fwdspan,delay,Q7m9SW31boNTiDnlZCxV8l0Up1v1,html-keyboard-response,85,421498,0.0-7.0-2.6-0.6-2.6,,,,,,,6560ae7968dae6508fe4d420,11:20:41,15/01/2024
4665.799999952316,"<div class = numbox><p style=""font-size:2.5rem"">What were the numbers <b>in order</b>?<br>(When you are ready to lock in your answer, press <b>ENTER</b>)</p><button id = button_1 class = ""square num-button"" onclick = ""recordClick(this)""><div class = content><div class = numbers>1</div></div></button><button id = button_2 class = ""square num-button"" onclick = ""recordClick(this)""><div class = content><div class = numbers>2</div></div></button><button id = button_3 class = ""square num-button"" onclick = ""recordClick(this)""><div class = content><div class = numbers>3</div></div></button><button id = button_4 class = ""square num-button"" onclick = ""recordClick(this)""><div class = content><div class = numbers>4</div></div></button><button id = button_5 class = ""square num-button"" onclick = ""recordClick(this)""><div class = content><div class = numbers>5</div></div></button><button id = button_6 class = ""square num-button"" onclick = ""recordClick(this)""><div class = content><div class = numbers>6</div></div></button><button id = button_7 class = ""square num-button"" onclick = ""recordClick(this)""><div class = content><div class = numbers>7</div></div></button><button id = button_8 class = ""square num-button"" onclick = ""recordClick(this)""><div class = content><div class = numbers>8</div></div></button><button id = button_9 class = ""square num-button"" onclick = ""recordClick(this)""><div class = content><div class = numbers>9</div></div></button><button class = clear_button id = ""ClearButton"" onclick = ""clearResponse()"">Clear</button><p><u><b>Current Answer:</b></u></p><div id=echoed_txt style=""font-size: 6rem; color:blue;""><b></b></div></div><br><br><br><br><br><br><br>",enter,fwdspan,response,Q7m9SW31boNTiDnlZCxV8l0Up1v1,html-keyboard-response,86,426164,0.0-7.0-2.6-0.6-3.6,8.0,"[8,4,7,6,5,9,1]","[8,4,7,6,5,9,1,3]",0.0,"[3, 4, 5, 6, 6, 7, 8, 8, 7, 8, 8, 7]",,6560ae7968dae6508fe4d420,11:20:41,15/01/2024
,,,fwdspan,update_span,Q7m9SW31boNTiDnlZCxV8l0Up1v1,call-function,87,426417,0.0-7.0-2.6-0.6-4.6,,,,,,,6560ae7968dae6508fe4d420,11:20:41,15/01/2024
706.0,"<p style=""font-size:3rem"">Trial 8 of 12</p><br><br><br>",0,fwdspan,start_trial,Q7m9SW31boNTiDnlZCxV8l0Up1v1,html-button-response,88,427124,0.0-7.0-2.7-0.7-0.7,,,,,,,6560ae7968dae6508fe4d420,11:20:41,15/01/2024
,"<p style=""font-size:14rem;font-weight:400;"">2</p>",,fwdspan,number,Q7m9SW31boNTiDnlZCxV8l0Up1v1,html-keyboard-response,89,428131,0.0-7.0-2.7-0.7-1.39-0.39,,,,,,,6560ae7968dae6508fe4d420,11:20:41,15/01/2024
,"<p style=""font-size:14rem;font-weight:400;"">3</p>",,fwdspan,number,Q7m9SW31boNTiDnlZCxV8l0Up1v1,html-keyboard-response,90,429136,0.0-7.0-2.7-0.7-1.40-0.40,,,,,,,6560ae7968dae6508fe4d420,11:20:41,15/01/2024
,"<p style=""font-size:14rem;font-weight:400;"">5</p>",,fwdspan,number,Q7m9SW31boNTiDnlZCxV8l0Up1v1,html-keyboard-response,91,430143,0.0-7.0-2.7-0.7-1.41-0.41,,,,,,,6560ae7968dae6508fe4d420,11:20:41,15/01/2024
,"<p style=""font-size:14rem;font-weight:400;"">9</p>",,fwdspan,number,Q7m9SW31boNTiDnlZCxV8l0Up1v1,html-keyboard-response,92,431145,0.0-7.0-2.7-0.7-1.42-0.42,,,,,,,6560ae7968dae6508fe4d420,11:20:41,15/01/2024
,"<p style=""font-size:14rem;font-weight:400;"">6</p>",,fwdspan,number,Q7m9SW31boNTiDnlZCxV8l0Up1v1,html-keyboard-response,93,432152,0.0-7.0-2.7-0.7-1.43-0.43,,,,,,,6560ae7968dae6508fe4d420,11:20:41,15/01/2024
,"<p style=""font-size:14rem;font-weight:400;"">4</p>",,fwdspan,number,Q7m9SW31boNTiDnlZCxV8l0Up1v1,html-keyboard-response,94,433161,0.0-7.0-2.7-0.7-1.44-0.44,,,,,,,6560ae7968dae6508fe4d420,11:20:41,15/01/2024
,"<p style=""font-size:14rem;font-weight:400;"">1</p>",,fwdspan,number,Q7m9SW31boNTiDnlZCxV8l0Up1v1,html-keyboard-response,95,434165,0.0-7.0-2.7-0.7-1.45-0.45,,,,,,,6560ae7968dae6508fe4d420,11:20:41,15/01/2024
,"<p style=""font-size:14rem;font-weight:400;"">7</p>",,fwdspan,number,Q7m9SW31boNTiDnlZCxV8l0Up1v1,html-keyboard-response,96,435172,0.0-7.0-2.7-0.7-1.46-0.46,,,,,,,6560ae7968dae6508fe4d420,11:20:41,15/01/2024
,[],,fwdspan,delay,Q7m9SW31boNTiDnlZCxV8l0Up1v1,html-keyboard-response,97,435729,0.0-7.0-2.7-0.7-2.7,,,,,,,6560ae7968dae6508fe4d420,11:20:41,15/01/2024
7752.400000095367,"<div class = numbox><p style=""font-size:2.5rem"">What were the numbers <b>in order</b>?<br>(When you are ready to lock in your answer, press <b>ENTER</b>)</p><button id = button_1 class = ""square num-button"" onclick = ""recordClick(this)""><div class = content><div class = numbers>1</div></div></button><button id = button_2 class = ""square num-button"" onclick = ""recordClick(this)""><div class = content><div class = numbers>2</div></div></button><button id = button_3 class = ""square num-button"" onclick = ""recordClick(this)""><div class = content><div class = numbers>3</div></div></button><button id = button_4 class = ""square num-button"" onclick = ""recordClick(this)""><div class = content><div class = numbers>4</div></div></button><button id = button_5 class = ""square num-button"" onclick = ""recordClick(this)""><div class = content><div class = numbers>5</div></div></button><button id = button_6 class = ""square num-button"" onclick = ""recordClick(this)""><div class = content><div class = numbers>6</div></div></button><button id = button_7 class = ""square num-button"" onclick = ""recordClick(this)""><div class = content><div class = numbers>7</div></div></button><button id = button_8 class = ""square num-button"" onclick = ""recordClick(this)""><div class = content><div class = numbers>8</div></div></button><button id = button_9 class = ""square num-button"" onclick = ""recordClick(this)""><div class = content><div class = numbers>9</div></div></button><button class = clear_button id = ""ClearButton"" onclick = ""clearResponse()"">Clear</button><p><u><b>Current Answer:</b></u></p><div id=echoed_txt style=""font-size: 6rem; color:blue;""><b></b></div></div><br><br><br><br><br><br><br>",enter,fwdspan,response,Q7m9SW31boNTiDnlZCxV8l0Up1v1,html-keyboard-response,98,443483,0.0-7.0-2.7-0.7-3.7,8.0,"[2,3,5,9,6,4,7,1]","[2,3,5,9,6,4,1,7]",0.0,"[3, 4, 5, 6, 6, 7, 8, 8, 7, 8, 8, 7]",,6560ae7968dae6508fe4d420,11:20:41,15/01/2024
,,,fwdspan,update_span,Q7m9SW31boNTiDnlZCxV8l0Up1v1,call-function,99,443738,0.0-7.0-2.7-0.7-4.7,,,,,,,6560ae7968dae6508fe4d420,11:20:41,15/01/2024
1065.7000000476837,"<p style=""font-size:3rem"">Trial 9 of 12</p><br><br><br>",0,fwdspan,start_trial,Q7m9SW31boNTiDnlZCxV8l0Up1v1,html-button-response,100,444805,0.0-7.0-2.8-0.8-0.8,,,,,,,6560ae7968dae6508fe4d420,11:20:41,15/01/2024
,"<p style=""font-size:14rem;font-weight:400;"">8</p>",,fwdspan,number,Q7m9SW31boNTiDnlZCxV8l0Up1v1,html-keyboard-response,101,445810,0.0-7.0-2.8-0.8-1.47-0.47,,,,,,,6560ae7968dae6508fe4d420,11:20:41,15/01/2024
,"<p style=""font-size:14rem;font-weight:400;"">2</p>",,fwdspan,number,Q7m9SW31boNTiDnlZCxV8l0Up1v1,html-keyboard-response,102,446813,0.0-7.0-2.8-0.8-1.48-0.48,,,,,,,6560ae7968dae6508fe4d420,11:20:41,15/01/2024
,"<p style=""font-size:14rem;font-weight:400;"">3</p>",,fwdspan,number,Q7m9SW31boNTiDnlZCxV8l0Up1v1,html-keyboard-response,103,447817,0.0-7.0-2.8-0.8-1.49-0.49,,,,,,,6560ae7968dae6508fe4d420,11:20:41,15/01/2024
,"<p style=""font-size:14rem;font-weight:400;"">7</p>",,fwdspan,number,Q7m9SW31boNTiDnlZCxV8l0Up1v1,html-keyboard-response,104,448820,0.0-7.0-2.8-0.8-1.50-0.50,,,,,,,6560ae7968dae6508fe4d420,11:20:41,15/01/2024
,"<p style=""font-size:14rem;font-weight:400;"">6</p>",,fwdspan,number,Q7m9SW31boNTiDnlZCxV8l0Up1v1,html-keyboard-response,105,449822,0.0-7.0-2.8-0.8-1.51-0.51,,,,,,,6560ae7968dae6508fe4d420,11:20:41,15/01/2024
,"<p style=""font-size:14rem;font-weight:400;"">1</p>",,fwdspan,number,Q7m9SW31boNTiDnlZCxV8l0Up1v1,html-keyboard-response,106,450827,0.0-7.0-2.8-0.8-1.52-0.52,,,,,,,6560ae7968dae6508fe4d420,11:20:41,15/01/2024
,"<p style=""font-size:14rem;font-weight:400;"">4</p>",,fwdspan,number,Q7m9SW31boNTiDnlZCxV8l0Up1v1,html-keyboard-response,107,451838,0.0-7.0-2.8-0.8-1.53-0.53,,,,,,,6560ae7968dae6508fe4d420,11:20:41,15/01/2024
,[],,fwdspan,delay,Q7m9SW31boNTiDnlZCxV8l0Up1v1,html-keyboard-response,108,452391,0.0-7.0-2.8-0.8-2.8,,,,,,,6560ae7968dae6508fe4d420,11:20:41,15/01/2024
16053.099999904633,"<div class = numbox><p style=""font-size:2.5rem"">What were the numbers <b>in order</b>?<br>(When you are ready to lock in your answer, press <b>ENTER</b>)</p><button id = button_1 class = ""square num-button"" onclick = ""recordClick(this)""><div class = content><div class = numbers>1</div></div></button><button id = button_2 class = ""square num-button"" onclick = ""recordClick(this)""><div class = content><div class = numbers>2</div></div></button><button id = button_3 class = ""square num-button"" onclick = ""recordClick(this)""><div class = content><div class = numbers>3</div></div></button><button id = button_4 class = ""square num-button"" onclick = ""recordClick(this)""><div class = content><div class = numbers>4</div></div></button><button id = button_5 class = ""square num-button"" onclick = ""recordClick(this)""><div class = content><div class = numbers>5</div></div></button><button id = button_6 class = ""square num-button"" onclick = ""recordClick(this)""><div class = content><div class = numbers>6</div></div></button><button id = button_7 class = ""square num-button"" onclick = ""recordClick(this)""><div class = content><div class = numbers>7</div></div></button><button id = button_8 class = ""square num-button"" onclick = ""recordClick(this)""><div class = content><div class = numbers>8</div></div></button><button id = button_9 class = ""square num-button"" onclick = ""recordClick(this)""><div class = content><div class = numbers>9</div></div></button><button class = clear_button id = ""ClearButton"" onclick = ""clearResponse()"">Clear</button><p><u><b>Current Answer:</b></u></p><div id=echoed_txt style=""font-size: 6rem; color:blue;""><b></b></div></div><br><br><br><br><br><br><br>",enter,fwdspan,response,Q7m9SW31boNTiDnlZCxV8l0Up1v1,html-keyboard-response,109,468445,0.0-7.0-2.8-0.8-3.8,7.0,"[8,2,3,7,6,1,4]","[8,2,3,7,6,1,4]",1.0,"[3, 4, 5, 6, 6, 7, 8, 8, 7, 8, 8, 7]",,6560ae7968dae6508fe4d420,11:20:41,15/01/2024
,,,fwdspan,update_span,Q7m9SW31boNTiDnlZCxV8l0Up1v1,call-function,110,468703,0.0-7.0-2.8-0.8-4.8,,,,,,,6560ae7968dae6508fe4d420,11:20:41,15/01/2024
908.3000000715256,"<p style=""font-size:3rem"">Trial 10 of 12</p><br><br><br>",0,fwdspan,start_trial,Q7m9SW31boNTiDnlZCxV8l0Up1v1,html-button-response,111,469613,0.0-7.0-2.9-0.9-0.9,,,,,,,6560ae7968dae6508fe4d420,11:20:41,15/01/2024
,"<p style=""font-size:14rem;font-weight:400;"">6</p>",,fwdspan,number,Q7m9SW31boNTiDnlZCxV8l0Up1v1,html-keyboard-response,112,470619,0.0-7.0-2.9-0.9-1.54-0.54,,,,,,,6560ae7968dae6508fe4d420,11:20:41,15/01/2024
,"<p style=""font-size:14rem;font-weight:400;"">7</p>",,fwdspan,number,Q7m9SW31boNTiDnlZCxV8l0Up1v1,html-keyboard-response,113,471623,0.0-7.0-2.9-0.9-1.55-0.55,,,,,,,6560ae7968dae6508fe4d420,11:20:41,15/01/2024
,"<p style=""font-size:14rem;font-weight:400;"">5</p>",,fwdspan,number,Q7m9SW31boNTiDnlZCxV8l0Up1v1,html-keyboard-response,114,472630,0.0-7.0-2.9-0.9-1.56-0.56,,,,,,,6560ae7968dae6508fe4d420,11:20:41,15/01/2024
,"<p style=""font-size:14rem;font-weight:400;"">1</p>",,fwdspan,number,Q7m9SW31boNTiDnlZCxV8l0Up1v1,html-keyboard-response,115,473635,0.0-7.0-2.9-0.9-1.57-0.57,,,,,,,6560ae7968dae6508fe4d420,11:20:41,15/01/2024
,"<p style=""font-size:14rem;font-weight:400;"">8</p>",,fwdspan,number,Q7m9SW31boNTiDnlZCxV8l0Up1v1,html-keyboard-response,116,474638,0.0-7.0-2.9-0.9-1.58-0.58,,,,,,,6560ae7968dae6508fe4d420,11:20:41,15/01/2024
,"<p style=""font-size:14rem;font-weight:400;"">4</p>",,fwdspan,number,Q7m9SW31boNTiDnlZCxV8l0Up1v1,html-keyboard-response,117,475641,0.0-7.0-2.9-0.9-1.59-0.59,,,,,,,6560ae7968dae6508fe4d420,11:20:41,15/01/2024
,"<p style=""font-size:14rem;font-weight:400;"">3</p>",,fwdspan,number,Q7m9SW31boNTiDnlZCxV8l0Up1v1,html-keyboard-response,118,476643,0.0-7.0-2.9-0.9-1.60-0.60,,,,,,,6560ae7968dae6508fe4d420,11:20:41,15/01/2024
,"<p style=""font-size:14rem;font-weight:400;"">2</p>",,fwdspan,number,Q7m9SW31boNTiDnlZCxV8l0Up1v1,html-keyboard-response,119,477647,0.0-7.0-2.9-0.9-1.61-0.61,,,,,,,6560ae7968dae6508fe4d420,11:20:41,15/01/2024
,[],,fwdspan,delay,Q7m9SW31boNTiDnlZCxV8l0Up1v1,html-keyboard-response,120,478200,0.0-7.0-2.9-0.9-2.9,,,,,,,6560ae7968dae6508fe4d420,11:20:41,15/01/2024
7880.699999928474,"<div class = numbox><p style=""font-size:2.5rem"">What were the numbers <b>in order</b>?<br>(When you are ready to lock in your answer, press <b>ENTER</b>)</p><button id = button_1 class = ""square num-button"" onclick = ""recordClick(this)""><div class = content><div class = numbers>1</div></div></button><button id = button_2 class = ""square num-button"" onclick = ""recordClick(this)""><div class = content><div class = numbers>2</div></div></button><button id = button_3 class = ""square num-button"" onclick = ""recordClick(this)""><div class = content><div class = numbers>3</div></div></button><button id = button_4 class = ""square num-button"" onclick = ""recordClick(this)""><div class = content><div class = numbers>4</div></div></button><button id = button_5 class = ""square num-button"" onclick = ""recordClick(this)""><div class = content><div class = numbers>5</div></div></button><button id = button_6 class = ""square num-button"" onclick = ""recordClick(this)""><div class = content><div class = numbers>6</div></div></button><button id = button_7 class = ""square num-button"" onclick = ""recordClick(this)""><div class = content><div class = numbers>7</div></div></button><button id = button_8 class = ""square num-button"" onclick = ""recordClick(this)""><div class = content><div class = numbers>8</div></div></button><button id = button_9 class = ""square num-button"" onclick = ""recordClick(this)""><div class = content><div class = numbers>9</div></div></button><button class = clear_button id = ""ClearButton"" onclick = ""clearResponse()"">Clear</button><p><u><b>Current Answer:</b></u></p><div id=echoed_txt style=""font-size: 6rem; color:blue;""><b></b></div></div><br><br><br><br><br><br><br>",enter,fwdspan,response,Q7m9SW31boNTiDnlZCxV8l0Up1v1,html-keyboard-response,121,486082,0.0-7.0-2.9-0.9-3.9,8.0,"[6,4,8,5,1,2]","[6,7,5,1,8,4,3,2]",0.0,"[3, 4, 5, 6, 6, 7, 8, 8, 7, 8, 8, 7]",,6560ae7968dae6508fe4d420,11:20:41,15/01/2024
,,,fwdspan,update_span,Q7m9SW31boNTiDnlZCxV8l0Up1v1,call-function,122,486335,0.0-7.0-2.9-0.9-4.9,,,,,,,6560ae7968dae6508fe4d420,11:20:41,15/01/2024
1732.6000000238419,"<p style=""font-size:3rem"">Trial 11 of 12</p><br><br><br>",0,fwdspan,start_trial,Q7m9SW31boNTiDnlZCxV8l0Up1v1,html-button-response,123,488069,0.0-7.0-2.10-0.10-0.10,,,,,,,6560ae7968dae6508fe4d420,11:20:41,15/01/2024
,"<p style=""font-size:14rem;font-weight:400;"">5</p>",,fwdspan,number,Q7m9SW31boNTiDnlZCxV8l0Up1v1,html-keyboard-response,124,489073,0.0-7.0-2.10-0.10-1.62-0.62,,,,,,,6560ae7968dae6508fe4d420,11:20:41,15/01/2024
,"<p style=""font-size:14rem;font-weight:400;"">4</p>",,fwdspan,number,Q7m9SW31boNTiDnlZCxV8l0Up1v1,html-keyboard-response,125,490078,0.0-7.0-2.10-0.10-1.63-0.63,,,,,,,6560ae7968dae6508fe4d420,11:20:41,15/01/2024
,"<p style=""font-size:14rem;font-weight:400;"">9</p>",,fwdspan,number,Q7m9SW31boNTiDnlZCxV8l0Up1v1,html-keyboard-response,126,491081,0.0-7.0-2.10-0.10-1.64-0.64,,,,,,,6560ae7968dae6508fe4d420,11:20:41,15/01/2024
,"<p style=""font-size:14rem;font-weight:400;"">2</p>",,fwdspan,number,Q7m9SW31boNTiDnlZCxV8l0Up1v1,html-keyboard-response,127,492084,0.0-7.0-2.10-0.10-1.65-0.65,,,,,,,6560ae7968dae6508fe4d420,11:20:41,15/01/2024
,"<p style=""font-size:14rem;font-weight:400;"">1</p>",,fwdspan,number,Q7m9SW31boNTiDnlZCxV8l0Up1v1,html-keyboard-response,128,493087,0.0-7.0-2.10-0.10-1.66-0.66,,,,,,,6560ae7968dae6508fe4d420,11:20:41,15/01/2024
,"<p style=""font-size:14rem;font-weight:400;"">6</p>",,fwdspan,number,Q7m9SW31boNTiDnlZCxV8l0Up1v1,html-keyboard-response,129,494092,0.0-7.0-2.10-0.10-1.67-0.67,,,,,,,6560ae7968dae6508fe4d420,11:20:41,15/01/2024
,"<p style=""font-size:14rem;font-weight:400;"">8</p>",,fwdspan,number,Q7m9SW31boNTiDnlZCxV8l0Up1v1,html-keyboard-response,130,495099,0.0-7.0-2.10-0.10-1.68-0.68,,,,,,,6560ae7968dae6508fe4d420,11:20:41,15/01/2024
,"<p style=""font-size:14rem;font-weight:400;"">3</p>",,fwdspan,number,Q7m9SW31boNTiDnlZCxV8l0Up1v1,html-keyboard-response,131,496101,0.0-7.0-2.10-0.10-1.69-0.69,,,,,,,6560ae7968dae6508fe4d420,11:20:41,15/01/2024
,[],,fwdspan,delay,Q7m9SW31boNTiDnlZCxV8l0Up1v1,html-keyboard-response,132,496655,0.0-7.0-2.10-0.10-2.10,,,,,,,6560ae7968dae6508fe4d420,11:20:41,15/01/2024
17311.0,"<div class = numbox><p style=""font-size:2.5rem"">What were the numbers <b>in order</b>?<br>(When you are ready to lock in your answer, press <b>ENTER</b>)</p><button id = button_1 class = ""square num-button"" onclick = ""recordClick(this)""><div class = content><div class = numbers>1</div></div></button><button id = button_2 class = ""square num-button"" onclick = ""recordClick(this)""><div class = content><div class = numbers>2</div></div></button><button id = button_3 class = ""square num-button"" onclick = ""recordClick(this)""><div class = content><div class = numbers>3</div></div></button><button id = button_4 class = ""square num-button"" onclick = ""recordClick(this)""><div class = content><div class = numbers>4</div></div></button><button id = button_5 class = ""square num-button"" onclick = ""recordClick(this)""><div class = content><div class = numbers>5</div></div></button><button id = button_6 class = ""square num-button"" onclick = ""recordClick(this)""><div class = content><div class = numbers>6</div></div></button><button id = button_7 class = ""square num-button"" onclick = ""recordClick(this)""><div class = content><div class = numbers>7</div></div></button><button id = button_8 class = ""square num-button"" onclick = ""recordClick(this)""><div class = content><div class = numbers>8</div></div></button><button id = button_9 class = ""square num-button"" onclick = ""recordClick(this)""><div class = content><div class = numbers>9</div></div></button><button class = clear_button id = ""ClearButton"" onclick = ""clearResponse()"">Clear</button><p><u><b>Current Answer:</b></u></p><div id=echoed_txt style=""font-size: 6rem; color:blue;""><b></b></div></div><br><br><br><br><br><br><br>",enter,fwdspan,response,Q7m9SW31boNTiDnlZCxV8l0Up1v1,html-keyboard-response,133,513967,0.0-7.0-2.10-0.10-3.10,8.0,"[5,4,1,2,9,6,8]","[5,4,9,2,1,6,8,3]",0.0,"[3, 4, 5, 6, 6, 7, 8, 8, 7, 8, 8, 7]",,6560ae7968dae6508fe4d420,11:20:41,15/01/2024
,,,fwdspan,update_span,Q7m9SW31boNTiDnlZCxV8l0Up1v1,call-function,134,514222,0.0-7.0-2.10-0.10-4.10,,,,,,,6560ae7968dae6508fe4d420,11:20:41,15/01/2024
1183.8999999761581,"<p style=""font-size:3rem"">Trial 12 of 12</p><br><br><br>",0,fwdspan,start_trial,Q7m9SW31boNTiDnlZCxV8l0Up1v1,html-button-response,135,515406,0.0-7.0-2.11-0.11-0.11,,,,,,,6560ae7968dae6508fe4d420,11:20:41,15/01/2024
,"<p style=""font-size:14rem;font-weight:400;"">3</p>",,fwdspan,number,Q7m9SW31boNTiDnlZCxV8l0Up1v1,html-keyboard-response,136,516410,0.0-7.0-2.11-0.11-1.70-0.70,,,,,,,6560ae7968dae6508fe4d420,11:20:41,15/01/2024
,"<p style=""font-size:14rem;font-weight:400;"">2</p>",,fwdspan,number,Q7m9SW31boNTiDnlZCxV8l0Up1v1,html-keyboard-response,137,517416,0.0-7.0-2.11-0.11-1.71-0.71,,,,,,,6560ae7968dae6508fe4d420,11:20:41,15/01/2024
,"<p style=""font-size:14rem;font-weight:400;"">1</p>",,fwdspan,number,Q7m9SW31boNTiDnlZCxV8l0Up1v1,html-keyboard-response,138,518421,0.0-7.0-2.11-0.11-1.72-0.72,,,,,,,6560ae7968dae6508fe4d420,11:20:41,15/01/2024
,"<p style=""font-size:14rem;font-weight:400;"">5</p>",,fwdspan,number,Q7m9SW31boNTiDnlZCxV8l0Up1v1,html-keyboard-response,139,519423,0.0-7.0-2.11-0.11-1.73-0.73,,,,,,,6560ae7968dae6508fe4d420,11:20:41,15/01/2024
,"<p style=""font-size:14rem;font-weight:400;"">8</p>",,fwdspan,number,Q7m9SW31boNTiDnlZCxV8l0Up1v1,html-keyboard-response,140,520427,0.0-7.0-2.11-0.11-1.74-0.74,,,,,,,6560ae7968dae6508fe4d420,11:20:41,15/01/2024
,"<p style=""font-size:14rem;font-weight:400;"">9</p>",,fwdspan,number,Q7m9SW31boNTiDnlZCxV8l0Up1v1,html-keyboard-response,141,521429,0.0-7.0-2.11-0.11-1.75-0.75,,,,,,,6560ae7968dae6508fe4d420,11:20:41,15/01/2024
,"<p style=""font-size:14rem;font-weight:400;"">7</p>",,fwdspan,number,Q7m9SW31boNTiDnlZCxV8l0Up1v1,html-keyboard-response,142,522432,0.0-7.0-2.11-0.11-1.76-0.76,,,,,,,6560ae7968dae6508fe4d420,11:20:41,15/01/2024
,[],,fwdspan,delay,Q7m9SW31boNTiDnlZCxV8l0Up1v1,html-keyboard-response,143,522986,0.0-7.0-2.11-0.11-2.11,,,,,,,6560ae7968dae6508fe4d420,11:20:41,15/01/2024
5207.299999952316,"<div class = numbox><p style=""font-size:2.5rem"">What were the numbers <b>in order</b>?<br>(When you are ready to lock in your answer, press <b>ENTER</b>)</p><button id = button_1 class = ""square num-button"" onclick = ""recordClick(this)""><div class = content><div class = numbers>1</div></div></button><button id = button_2 class = ""square num-button"" onclick = ""recordClick(this)""><div class = content><div class = numbers>2</div></div></button><button id = button_3 class = ""square num-button"" onclick = ""recordClick(this)""><div class = content><div class = numbers>3</div></div></button><button id = button_4 class = ""square num-button"" onclick = ""recordClick(this)""><div class = content><div class = numbers>4</div></div></button><button id = button_5 class = ""square num-button"" onclick = ""recordClick(this)""><div class = content><div class = numbers>5</div></div></button><button id = button_6 class = ""square num-button"" onclick = ""recordClick(this)""><div class = content><div class = numbers>6</div></div></button><button id = button_7 class = ""square num-button"" onclick = ""recordClick(this)""><div class = content><div class = numbers>7</div></div></button><button id = button_8 class = ""square num-button"" onclick = ""recordClick(this)""><div class = content><div class = numbers>8</div></div></button><button id = button_9 class = ""square num-button"" onclick = ""recordClick(this)""><div class = content><div class = numbers>9</div></div></button><button class = clear_button id = ""ClearButton"" onclick = ""clearResponse()"">Clear</button><p><u><b>Current Answer:</b></u></p><div id=echoed_txt style=""font-size: 6rem; color:blue;""><b></b></div></div><br><br><br><br><br><br><br>",enter,fwdspan,response,Q7m9SW31boNTiDnlZCxV8l0Up1v1,html-keyboard-response,144,528195,0.0-7.0-2.11-0.11-3.11,7.0,"[3,2,1,5,8,9,7]","[3,2,1,5,8,9,7]",1.0,"[3, 4, 5, 6, 6, 7, 8, 8, 7, 8, 8, 7]",,6560ae7968dae6508fe4d420,11:20:41,15/01/2024
,,,fwdspan,update_span,Q7m9SW31boNTiDnlZCxV8l0Up1v1,call-function,145,528448,0.0-7.0-2.11-0.11-4.11,,,,,,,6560ae7968dae6508fe4d420,11:20:41,15/01/2024
28592.5,,"{'Q0': ""Enjoyed the task because it's not too challenging but not too easy as well""}",fwdspan,survey,Q7m9SW31boNTiDnlZCxV8l0Up1v1,lmdlab-survey-text,146,557793,0.0-7.0-3.0,,,,,,Q7m9SW31boNTiDnlZCxV8l0Up1v1,6560ae7968dae6508fe4d420,11:20:41,15/01/2024
1468.6000000238419,<p><p style='font-size: 3rem'>Great work!<br><br>This completes the digit span task.</p><br><br><br>,0,fwdspan,finish,Q7m9SW31boNTiDnlZCxV8l0Up1v1,html-button-response,147,559264,0.0-7.0-4.0,,,,,,,6560ae7968dae6508fe4d420,11:20:41,15/01/2024
