rt,stimulus,response,exp_name,exp_stage,subjectID,trial_type,trial_index,time_elapsed,internal_node_id,span,answer,correct,correct_full,span_history,databaseID,prolificID,start_time,date
1391.0,"<p style=""font-size:4rem""><br><br>In the next part today, we have a completely different short task.<br><br><br>This part involves keeping numbers in you mind. Participation takes around 5 minutes.<br><br><br></p>",0,fwdspan,instruct,2oBlNN4mFyOxeOM8uijz74bEaly1,html-button-response,19,540669,0.0-7.0-0.0,,,,,,,65a2a75121e5c36aa719a3fd,11:23:20,15/01/2024
13050.0,"<p style=""font-size:5rem"">Welcome to the <b>digit span task</b>!<br><br></p><p style=""font-size:3.4rem""><br>On each trial, you will see a sequence of digits, followed by a delay.</p><p style=""font-size:3.4rem""><br>Then you will be asked to type them back in the same order in which they were seen.</p><p style=""font-size:3.4rem""><br><br><br>For example, if you saw the digits <b style=""color:blue;"">1</b>, <b style=""color:blue;"">2</b>, <b style=""color:blue;"">3</b>, you would respond with <b style=""color:blue;"">1</b>, <b style=""color:blue;"">2</b>, <b style=""color:blue;"">3</b></p><p style=""font-size:3.4rem""><br><br><br>To ensure the best measure of true performance for our study,<br><br>it is very important that you do not use any memory aid (e.g., pen and paper).<br><br>Please do the task solely in your head.</p><p style=""font-size:3.4rem""><br><br><br>There will be 12 total trials. Participation takes around 5 minutes.</p><br><br><br>",0,fwdspan,instruct,2oBlNN4mFyOxeOM8uijz74bEaly1,html-button-response,20,553720,0.0-7.0-1.0,,,,,,,65a2a75121e5c36aa719a3fd,11:23:20,15/01/2024
1595.0,"<p style=""font-size:3rem"">Trial 1 of 12</p><br><br><br>",0,fwdspan,start_trial,2oBlNN4mFyOxeOM8uijz74bEaly1,html-button-response,21,555318,0.0-7.0-2.0-0.0-0.0,,,,,,,65a2a75121e5c36aa719a3fd,11:23:20,15/01/2024
,"<p style=""font-size:14rem;font-weight:400;"">1</p>",,fwdspan,number,2oBlNN4mFyOxeOM8uijz74bEaly1,html-keyboard-response,22,556364,0.0-7.0-2.0-0.0-1.0-0.0,,,,,,,65a2a75121e5c36aa719a3fd,11:23:20,15/01/2024
,"<p style=""font-size:14rem;font-weight:400;"">2</p>",,fwdspan,number,2oBlNN4mFyOxeOM8uijz74bEaly1,html-keyboard-response,23,557376,0.0-7.0-2.0-0.0-1.1-0.1,,,,,,,65a2a75121e5c36aa719a3fd,11:23:20,15/01/2024
,"<p style=""font-size:14rem;font-weight:400;"">8</p>",,fwdspan,number,2oBlNN4mFyOxeOM8uijz74bEaly1,html-keyboard-response,24,558389,0.0-7.0-2.0-0.0-1.2-0.2,,,,,,,65a2a75121e5c36aa719a3fd,11:23:20,15/01/2024
,[],,fwdspan,delay,2oBlNN4mFyOxeOM8uijz74bEaly1,html-keyboard-response,25,558958,0.0-7.0-2.0-0.0-2.0,,,,,,,65a2a75121e5c36aa719a3fd,11:23:20,15/01/2024
4929.0,"<div class = numbox><p style=""font-size:2.5rem"">What were the numbers <b>in order</b>?<br>(When you are ready to lock in your answer, press <b>ENTER</b>)</p><button id = button_1 class = ""square num-button"" onclick = ""recordClick(this)""><div class = content><div class = numbers>1</div></div></button><button id = button_2 class = ""square num-button"" onclick = ""recordClick(this)""><div class = content><div class = numbers>2</div></div></button><button id = button_3 class = ""square num-button"" onclick = ""recordClick(this)""><div class = content><div class = numbers>3</div></div></button><button id = button_4 class = ""square num-button"" onclick = ""recordClick(this)""><div class = content><div class = numbers>4</div></div></button><button id = button_5 class = ""square num-button"" onclick = ""recordClick(this)""><div class = content><div class = numbers>5</div></div></button><button id = button_6 class = ""square num-button"" onclick = ""recordClick(this)""><div class = content><div class = numbers>6</div></div></button><button id = button_7 class = ""square num-button"" onclick = ""recordClick(this)""><div class = content><div class = numbers>7</div></div></button><button id = button_8 class = ""square num-button"" onclick = ""recordClick(this)""><div class = content><div class = numbers>8</div></div></button><button id = button_9 class = ""square num-button"" onclick = ""recordClick(this)""><div class = content><div class = numbers>9</div></div></button><button class = clear_button id = ""ClearButton"" onclick = ""clearResponse()"">Clear</button><p><u><b>Current Answer:</b></u></p><div id=echoed_txt style=""font-size: 6rem; color:blue;""><b></b></div></div><br><br><br><br><br><br><br>",enter,fwdspan,response,2oBlNN4mFyOxeOM8uijz74bEaly1,html-keyboard-response,26,563888,0.0-7.0-2.0-0.0-3.0,3.0,"[1,2,8]","[1,2,8]",1.0,"[3, 4, 5, 5, 6, 7, 7, 6, 6, 7, 7, 6]",,65a2a75121e5c36aa719a3fd,11:23:20,15/01/2024
,,,fwdspan,update_span,2oBlNN4mFyOxeOM8uijz74bEaly1,call-function,27,564153,0.0-7.0-2.0-0.0-4.0,,,,,,,65a2a75121e5c36aa719a3fd,11:23:20,15/01/2024
1207.0,"<p style=""font-size:3rem"">Trial 2 of 12</p><br><br><br>",0,fwdspan,start_trial,2oBlNN4mFyOxeOM8uijz74bEaly1,html-button-response,28,565360,0.0-7.0-2.1-0.1-0.1,,,,,,,65a2a75121e5c36aa719a3fd,11:23:20,15/01/2024
,"<p style=""font-size:14rem;font-weight:400;"">3</p>",,fwdspan,number,2oBlNN4mFyOxeOM8uijz74bEaly1,html-keyboard-response,29,566397,0.0-7.0-2.1-0.1-1.3-0.3,,,,,,,65a2a75121e5c36aa719a3fd,11:23:20,15/01/2024
,"<p style=""font-size:14rem;font-weight:400;"">2</p>",,fwdspan,number,2oBlNN4mFyOxeOM8uijz74bEaly1,html-keyboard-response,30,567428,0.0-7.0-2.1-0.1-1.4-0.4,,,,,,,65a2a75121e5c36aa719a3fd,11:23:20,15/01/2024
,"<p style=""font-size:14rem;font-weight:400;"">9</p>",,fwdspan,number,2oBlNN4mFyOxeOM8uijz74bEaly1,html-keyboard-response,31,568503,0.0-7.0-2.1-0.1-1.5-0.5,,,,,,,65a2a75121e5c36aa719a3fd,11:23:20,15/01/2024
,"<p style=""font-size:14rem;font-weight:400;"">6</p>",,fwdspan,number,2oBlNN4mFyOxeOM8uijz74bEaly1,html-keyboard-response,32,569517,0.0-7.0-2.1-0.1-1.6-0.6,,,,,,,65a2a75121e5c36aa719a3fd,11:23:20,15/01/2024
,[],,fwdspan,delay,2oBlNN4mFyOxeOM8uijz74bEaly1,html-keyboard-response,33,570085,0.0-7.0-2.1-0.1-2.1,,,,,,,65a2a75121e5c36aa719a3fd,11:23:20,15/01/2024
4093.0,"<div class = numbox><p style=""font-size:2.5rem"">What were the numbers <b>in order</b>?<br>(When you are ready to lock in your answer, press <b>ENTER</b>)</p><button id = button_1 class = ""square num-button"" onclick = ""recordClick(this)""><div class = content><div class = numbers>1</div></div></button><button id = button_2 class = ""square num-button"" onclick = ""recordClick(this)""><div class = content><div class = numbers>2</div></div></button><button id = button_3 class = ""square num-button"" onclick = ""recordClick(this)""><div class = content><div class = numbers>3</div></div></button><button id = button_4 class = ""square num-button"" onclick = ""recordClick(this)""><div class = content><div class = numbers>4</div></div></button><button id = button_5 class = ""square num-button"" onclick = ""recordClick(this)""><div class = content><div class = numbers>5</div></div></button><button id = button_6 class = ""square num-button"" onclick = ""recordClick(this)""><div class = content><div class = numbers>6</div></div></button><button id = button_7 class = ""square num-button"" onclick = ""recordClick(this)""><div class = content><div class = numbers>7</div></div></button><button id = button_8 class = ""square num-button"" onclick = ""recordClick(this)""><div class = content><div class = numbers>8</div></div></button><button id = button_9 class = ""square num-button"" onclick = ""recordClick(this)""><div class = content><div class = numbers>9</div></div></button><button class = clear_button id = ""ClearButton"" onclick = ""clearResponse()"">Clear</button><p><u><b>Current Answer:</b></u></p><div id=echoed_txt style=""font-size: 6rem; color:blue;""><b></b></div></div><br><br><br><br><br><br><br>",enter,fwdspan,response,2oBlNN4mFyOxeOM8uijz74bEaly1,html-keyboard-response,34,574180,0.0-7.0-2.1-0.1-3.1,4.0,"[3,2,9,6]","[3,2,9,6]",1.0,"[3, 4, 5, 5, 6, 7, 7, 6, 6, 7, 7, 6]",,65a2a75121e5c36aa719a3fd,11:23:20,15/01/2024
,,,fwdspan,update_span,2oBlNN4mFyOxeOM8uijz74bEaly1,call-function,35,574447,0.0-7.0-2.1-0.1-4.1,,,,,,,65a2a75121e5c36aa719a3fd,11:23:20,15/01/2024
976.0,"<p style=""font-size:3rem"">Trial 3 of 12</p><br><br><br>",0,fwdspan,start_trial,2oBlNN4mFyOxeOM8uijz74bEaly1,html-button-response,36,575425,0.0-7.0-2.2-0.2-0.2,,,,,,,65a2a75121e5c36aa719a3fd,11:23:20,15/01/2024
,"<p style=""font-size:14rem;font-weight:400;"">2</p>",,fwdspan,number,2oBlNN4mFyOxeOM8uijz74bEaly1,html-keyboard-response,37,576443,0.0-7.0-2.2-0.2-1.7-0.7,,,,,,,65a2a75121e5c36aa719a3fd,11:23:20,15/01/2024
,"<p style=""font-size:14rem;font-weight:400;"">6</p>",,fwdspan,number,2oBlNN4mFyOxeOM8uijz74bEaly1,html-keyboard-response,38,577456,0.0-7.0-2.2-0.2-1.8-0.8,,,,,,,65a2a75121e5c36aa719a3fd,11:23:20,15/01/2024
,"<p style=""font-size:14rem;font-weight:400;"">5</p>",,fwdspan,number,2oBlNN4mFyOxeOM8uijz74bEaly1,html-keyboard-response,39,578486,0.0-7.0-2.2-0.2-1.9-0.9,,,,,,,65a2a75121e5c36aa719a3fd,11:23:20,15/01/2024
,"<p style=""font-size:14rem;font-weight:400;"">4</p>",,fwdspan,number,2oBlNN4mFyOxeOM8uijz74bEaly1,html-keyboard-response,40,579499,0.0-7.0-2.2-0.2-1.10-0.10,,,,,,,65a2a75121e5c36aa719a3fd,11:23:20,15/01/2024
,"<p style=""font-size:14rem;font-weight:400;"">8</p>",,fwdspan,number,2oBlNN4mFyOxeOM8uijz74bEaly1,html-keyboard-response,41,580514,0.0-7.0-2.2-0.2-1.11-0.11,,,,,,,65a2a75121e5c36aa719a3fd,11:23:20,15/01/2024
,[],,fwdspan,delay,2oBlNN4mFyOxeOM8uijz74bEaly1,html-keyboard-response,42,581079,0.0-7.0-2.2-0.2-2.2,,,,,,,65a2a75121e5c36aa719a3fd,11:23:20,15/01/2024
3552.0,"<div class = numbox><p style=""font-size:2.5rem"">What were the numbers <b>in order</b>?<br>(When you are ready to lock in your answer, press <b>ENTER</b>)</p><button id = button_1 class = ""square num-button"" onclick = ""recordClick(this)""><div class = content><div class = numbers>1</div></div></button><button id = button_2 class = ""square num-button"" onclick = ""recordClick(this)""><div class = content><div class = numbers>2</div></div></button><button id = button_3 class = ""square num-button"" onclick = ""recordClick(this)""><div class = content><div class = numbers>3</div></div></button><button id = button_4 class = ""square num-button"" onclick = ""recordClick(this)""><div class = content><div class = numbers>4</div></div></button><button id = button_5 class = ""square num-button"" onclick = ""recordClick(this)""><div class = content><div class = numbers>5</div></div></button><button id = button_6 class = ""square num-button"" onclick = ""recordClick(this)""><div class = content><div class = numbers>6</div></div></button><button id = button_7 class = ""square num-button"" onclick = ""recordClick(this)""><div class = content><div class = numbers>7</div></div></button><button id = button_8 class = ""square num-button"" onclick = ""recordClick(this)""><div class = content><div class = numbers>8</div></div></button><button id = button_9 class = ""square num-button"" onclick = ""recordClick(this)""><div class = content><div class = numbers>9</div></div></button><button class = clear_button id = ""ClearButton"" onclick = ""clearResponse()"">Clear</button><p><u><b>Current Answer:</b></u></p><div id=echoed_txt style=""font-size: 6rem; color:blue;""><b></b></div></div><br><br><br><br><br><br><br>",enter,fwdspan,response,2oBlNN4mFyOxeOM8uijz74bEaly1,html-keyboard-response,43,584632,0.0-7.0-2.2-0.2-3.2,5.0,"[5,6,2,4,8]","[2,6,5,4,8]",0.0,"[3, 4, 5, 5, 6, 7, 7, 6, 6, 7, 7, 6]",,65a2a75121e5c36aa719a3fd,11:23:20,15/01/2024
,,,fwdspan,update_span,2oBlNN4mFyOxeOM8uijz74bEaly1,call-function,44,584897,0.0-7.0-2.2-0.2-4.2,,,,,,,65a2a75121e5c36aa719a3fd,11:23:20,15/01/2024
756.0,"<p style=""font-size:3rem"">Trial 4 of 12</p><br><br><br>",0,fwdspan,start_trial,2oBlNN4mFyOxeOM8uijz74bEaly1,html-button-response,45,585654,0.0-7.0-2.3-0.3-0.3,,,,,,,65a2a75121e5c36aa719a3fd,11:23:20,15/01/2024
,"<p style=""font-size:14rem;font-weight:400;"">8</p>",,fwdspan,number,2oBlNN4mFyOxeOM8uijz74bEaly1,html-keyboard-response,46,586665,0.0-7.0-2.3-0.3-1.12-0.12,,,,,,,65a2a75121e5c36aa719a3fd,11:23:20,15/01/2024
,"<p style=""font-size:14rem;font-weight:400;"">5</p>",,fwdspan,number,2oBlNN4mFyOxeOM8uijz74bEaly1,html-keyboard-response,47,587677,0.0-7.0-2.3-0.3-1.13-0.13,,,,,,,65a2a75121e5c36aa719a3fd,11:23:20,15/01/2024
,"<p style=""font-size:14rem;font-weight:400;"">9</p>",,fwdspan,number,2oBlNN4mFyOxeOM8uijz74bEaly1,html-keyboard-response,48,588690,0.0-7.0-2.3-0.3-1.14-0.14,,,,,,,65a2a75121e5c36aa719a3fd,11:23:20,15/01/2024
,"<p style=""font-size:14rem;font-weight:400;"">4</p>",,fwdspan,number,2oBlNN4mFyOxeOM8uijz74bEaly1,html-keyboard-response,49,589702,0.0-7.0-2.3-0.3-1.15-0.15,,,,,,,65a2a75121e5c36aa719a3fd,11:23:20,15/01/2024
,"<p style=""font-size:14rem;font-weight:400;"">1</p>",,fwdspan,number,2oBlNN4mFyOxeOM8uijz74bEaly1,html-keyboard-response,50,590714,0.0-7.0-2.3-0.3-1.16-0.16,,,,,,,65a2a75121e5c36aa719a3fd,11:23:20,15/01/2024
,[],,fwdspan,delay,2oBlNN4mFyOxeOM8uijz74bEaly1,html-keyboard-response,51,591281,0.0-7.0-2.3-0.3-2.3,,,,,,,65a2a75121e5c36aa719a3fd,11:23:20,15/01/2024
3766.0,"<div class = numbox><p style=""font-size:2.5rem"">What were the numbers <b>in order</b>?<br>(When you are ready to lock in your answer, press <b>ENTER</b>)</p><button id = button_1 class = ""square num-button"" onclick = ""recordClick(this)""><div class = content><div class = numbers>1</div></div></button><button id = button_2 class = ""square num-button"" onclick = ""recordClick(this)""><div class = content><div class = numbers>2</div></div></button><button id = button_3 class = ""square num-button"" onclick = ""recordClick(this)""><div class = content><div class = numbers>3</div></div></button><button id = button_4 class = ""square num-button"" onclick = ""recordClick(this)""><div class = content><div class = numbers>4</div></div></button><button id = button_5 class = ""square num-button"" onclick = ""recordClick(this)""><div class = content><div class = numbers>5</div></div></button><button id = button_6 class = ""square num-button"" onclick = ""recordClick(this)""><div class = content><div class = numbers>6</div></div></button><button id = button_7 class = ""square num-button"" onclick = ""recordClick(this)""><div class = content><div class = numbers>7</div></div></button><button id = button_8 class = ""square num-button"" onclick = ""recordClick(this)""><div class = content><div class = numbers>8</div></div></button><button id = button_9 class = ""square num-button"" onclick = ""recordClick(this)""><div class = content><div class = numbers>9</div></div></button><button class = clear_button id = ""ClearButton"" onclick = ""clearResponse()"">Clear</button><p><u><b>Current Answer:</b></u></p><div id=echoed_txt style=""font-size: 6rem; color:blue;""><b></b></div></div><br><br><br><br><br><br><br>",enter,fwdspan,response,2oBlNN4mFyOxeOM8uijz74bEaly1,html-keyboard-response,52,595048,0.0-7.0-2.3-0.3-3.3,5.0,"[8,5,9,4,1]","[8,5,9,4,1]",1.0,"[3, 4, 5, 5, 6, 7, 7, 6, 6, 7, 7, 6]",,65a2a75121e5c36aa719a3fd,11:23:20,15/01/2024
,,,fwdspan,update_span,2oBlNN4mFyOxeOM8uijz74bEaly1,call-function,53,595309,0.0-7.0-2.3-0.3-4.3,,,,,,,65a2a75121e5c36aa719a3fd,11:23:20,15/01/2024
753.0,"<p style=""font-size:3rem"">Trial 5 of 12</p><br><br><br>",0,fwdspan,start_trial,2oBlNN4mFyOxeOM8uijz74bEaly1,html-button-response,54,596063,0.0-7.0-2.4-0.4-0.4,,,,,,,65a2a75121e5c36aa719a3fd,11:23:20,15/01/2024
,"<p style=""font-size:14rem;font-weight:400;"">4</p>",,fwdspan,number,2oBlNN4mFyOxeOM8uijz74bEaly1,html-keyboard-response,55,597077,0.0-7.0-2.4-0.4-1.17-0.17,,,,,,,65a2a75121e5c36aa719a3fd,11:23:20,15/01/2024
,"<p style=""font-size:14rem;font-weight:400;"">9</p>",,fwdspan,number,2oBlNN4mFyOxeOM8uijz74bEaly1,html-keyboard-response,56,598090,0.0-7.0-2.4-0.4-1.18-0.18,,,,,,,65a2a75121e5c36aa719a3fd,11:23:20,15/01/2024
,"<p style=""font-size:14rem;font-weight:400;"">1</p>",,fwdspan,number,2oBlNN4mFyOxeOM8uijz74bEaly1,html-keyboard-response,57,599102,0.0-7.0-2.4-0.4-1.19-0.19,,,,,,,65a2a75121e5c36aa719a3fd,11:23:20,15/01/2024
,"<p style=""font-size:14rem;font-weight:400;"">6</p>",,fwdspan,number,2oBlNN4mFyOxeOM8uijz74bEaly1,html-keyboard-response,58,600114,0.0-7.0-2.4-0.4-1.20-0.20,,,,,,,65a2a75121e5c36aa719a3fd,11:23:20,15/01/2024
,"<p style=""font-size:14rem;font-weight:400;"">8</p>",,fwdspan,number,2oBlNN4mFyOxeOM8uijz74bEaly1,html-keyboard-response,59,601127,0.0-7.0-2.4-0.4-1.21-0.21,,,,,,,65a2a75121e5c36aa719a3fd,11:23:20,15/01/2024
,"<p style=""font-size:14rem;font-weight:400;"">5</p>",,fwdspan,number,2oBlNN4mFyOxeOM8uijz74bEaly1,html-keyboard-response,60,602139,0.0-7.0-2.4-0.4-1.22-0.22,,,,,,,65a2a75121e5c36aa719a3fd,11:23:20,15/01/2024
,[],,fwdspan,delay,2oBlNN4mFyOxeOM8uijz74bEaly1,html-keyboard-response,61,602710,0.0-7.0-2.4-0.4-2.4,,,,,,,65a2a75121e5c36aa719a3fd,11:23:20,15/01/2024
5960.0,"<div class = numbox><p style=""font-size:2.5rem"">What were the numbers <b>in order</b>?<br>(When you are ready to lock in your answer, press <b>ENTER</b>)</p><button id = button_1 class = ""square num-button"" onclick = ""recordClick(this)""><div class = content><div class = numbers>1</div></div></button><button id = button_2 class = ""square num-button"" onclick = ""recordClick(this)""><div class = content><div class = numbers>2</div></div></button><button id = button_3 class = ""square num-button"" onclick = ""recordClick(this)""><div class = content><div class = numbers>3</div></div></button><button id = button_4 class = ""square num-button"" onclick = ""recordClick(this)""><div class = content><div class = numbers>4</div></div></button><button id = button_5 class = ""square num-button"" onclick = ""recordClick(this)""><div class = content><div class = numbers>5</div></div></button><button id = button_6 class = ""square num-button"" onclick = ""recordClick(this)""><div class = content><div class = numbers>6</div></div></button><button id = button_7 class = ""square num-button"" onclick = ""recordClick(this)""><div class = content><div class = numbers>7</div></div></button><button id = button_8 class = ""square num-button"" onclick = ""recordClick(this)""><div class = content><div class = numbers>8</div></div></button><button id = button_9 class = ""square num-button"" onclick = ""recordClick(this)""><div class = content><div class = numbers>9</div></div></button><button class = clear_button id = ""ClearButton"" onclick = ""clearResponse()"">Clear</button><p><u><b>Current Answer:</b></u></p><div id=echoed_txt style=""font-size: 6rem; color:blue;""><b></b></div></div><br><br><br><br><br><br><br>",enter,fwdspan,response,2oBlNN4mFyOxeOM8uijz74bEaly1,html-keyboard-response,62,608671,0.0-7.0-2.4-0.4-3.4,6.0,"[4,9,1,6,8,5]","[4,9,1,6,8,5]",1.0,"[3, 4, 5, 5, 6, 7, 7, 6, 6, 7, 7, 6]",,65a2a75121e5c36aa719a3fd,11:23:20,15/01/2024
,,,fwdspan,update_span,2oBlNN4mFyOxeOM8uijz74bEaly1,call-function,63,608937,0.0-7.0-2.4-0.4-4.4,,,,,,,65a2a75121e5c36aa719a3fd,11:23:20,15/01/2024
853.0,"<p style=""font-size:3rem"">Trial 6 of 12</p><br><br><br>",0,fwdspan,start_trial,2oBlNN4mFyOxeOM8uijz74bEaly1,html-button-response,64,609791,0.0-7.0-2.5-0.5-0.5,,,,,,,65a2a75121e5c36aa719a3fd,11:23:20,15/01/2024
,"<p style=""font-size:14rem;font-weight:400;"">6</p>",,fwdspan,number,2oBlNN4mFyOxeOM8uijz74bEaly1,html-keyboard-response,65,610809,0.0-7.0-2.5-0.5-1.23-0.23,,,,,,,65a2a75121e5c36aa719a3fd,11:23:20,15/01/2024
,"<p style=""font-size:14rem;font-weight:400;"">9</p>",,fwdspan,number,2oBlNN4mFyOxeOM8uijz74bEaly1,html-keyboard-response,66,611851,0.0-7.0-2.5-0.5-1.24-0.24,,,,,,,65a2a75121e5c36aa719a3fd,11:23:20,15/01/2024
,"<p style=""font-size:14rem;font-weight:400;"">5</p>",,fwdspan,number,2oBlNN4mFyOxeOM8uijz74bEaly1,html-keyboard-response,67,612863,0.0-7.0-2.5-0.5-1.25-0.25,,,,,,,65a2a75121e5c36aa719a3fd,11:23:20,15/01/2024
,"<p style=""font-size:14rem;font-weight:400;"">1</p>",,fwdspan,number,2oBlNN4mFyOxeOM8uijz74bEaly1,html-keyboard-response,68,613909,0.0-7.0-2.5-0.5-1.26-0.26,,,,,,,65a2a75121e5c36aa719a3fd,11:23:20,15/01/2024
,"<p style=""font-size:14rem;font-weight:400;"">3</p>",,fwdspan,number,2oBlNN4mFyOxeOM8uijz74bEaly1,html-keyboard-response,69,614920,0.0-7.0-2.5-0.5-1.27-0.27,,,,,,,65a2a75121e5c36aa719a3fd,11:23:20,15/01/2024
,"<p style=""font-size:14rem;font-weight:400;"">7</p>",,fwdspan,number,2oBlNN4mFyOxeOM8uijz74bEaly1,html-keyboard-response,70,615931,0.0-7.0-2.5-0.5-1.28-0.28,,,,,,,65a2a75121e5c36aa719a3fd,11:23:20,15/01/2024
,"<p style=""font-size:14rem;font-weight:400;"">2</p>",,fwdspan,number,2oBlNN4mFyOxeOM8uijz74bEaly1,html-keyboard-response,71,616944,0.0-7.0-2.5-0.5-1.29-0.29,,,,,,,65a2a75121e5c36aa719a3fd,11:23:20,15/01/2024
,[],,fwdspan,delay,2oBlNN4mFyOxeOM8uijz74bEaly1,html-keyboard-response,72,617512,0.0-7.0-2.5-0.5-2.5,,,,,,,65a2a75121e5c36aa719a3fd,11:23:20,15/01/2024
5770.0,"<div class = numbox><p style=""font-size:2.5rem"">What were the numbers <b>in order</b>?<br>(When you are ready to lock in your answer, press <b>ENTER</b>)</p><button id = button_1 class = ""square num-button"" onclick = ""recordClick(this)""><div class = content><div class = numbers>1</div></div></button><button id = button_2 class = ""square num-button"" onclick = ""recordClick(this)""><div class = content><div class = numbers>2</div></div></button><button id = button_3 class = ""square num-button"" onclick = ""recordClick(this)""><div class = content><div class = numbers>3</div></div></button><button id = button_4 class = ""square num-button"" onclick = ""recordClick(this)""><div class = content><div class = numbers>4</div></div></button><button id = button_5 class = ""square num-button"" onclick = ""recordClick(this)""><div class = content><div class = numbers>5</div></div></button><button id = button_6 class = ""square num-button"" onclick = ""recordClick(this)""><div class = content><div class = numbers>6</div></div></button><button id = button_7 class = ""square num-button"" onclick = ""recordClick(this)""><div class = content><div class = numbers>7</div></div></button><button id = button_8 class = ""square num-button"" onclick = ""recordClick(this)""><div class = content><div class = numbers>8</div></div></button><button id = button_9 class = ""square num-button"" onclick = ""recordClick(this)""><div class = content><div class = numbers>9</div></div></button><button class = clear_button id = ""ClearButton"" onclick = ""clearResponse()"">Clear</button><p><u><b>Current Answer:</b></u></p><div id=echoed_txt style=""font-size: 6rem; color:blue;""><b></b></div></div><br><br><br><br><br><br><br>",enter,fwdspan,response,2oBlNN4mFyOxeOM8uijz74bEaly1,html-keyboard-response,73,623282,0.0-7.0-2.5-0.5-3.5,7.0,"[6,9,5,1,3,7]","[6,9,5,1,3,7,2]",0.0,"[3, 4, 5, 5, 6, 7, 7, 6, 6, 7, 7, 6]",,65a2a75121e5c36aa719a3fd,11:23:20,15/01/2024
,,,fwdspan,update_span,2oBlNN4mFyOxeOM8uijz74bEaly1,call-function,74,623543,0.0-7.0-2.5-0.5-4.5,,,,,,,65a2a75121e5c36aa719a3fd,11:23:20,15/01/2024
1159.0,"<p style=""font-size:3rem"">Trial 7 of 12</p><br><br><br>",0,fwdspan,start_trial,2oBlNN4mFyOxeOM8uijz74bEaly1,html-button-response,75,624704,0.0-7.0-2.6-0.6-0.6,,,,,,,65a2a75121e5c36aa719a3fd,11:23:20,15/01/2024
,"<p style=""font-size:14rem;font-weight:400;"">1</p>",,fwdspan,number,2oBlNN4mFyOxeOM8uijz74bEaly1,html-keyboard-response,76,625726,0.0-7.0-2.6-0.6-1.30-0.30,,,,,,,65a2a75121e5c36aa719a3fd,11:23:20,15/01/2024
,"<p style=""font-size:14rem;font-weight:400;"">7</p>",,fwdspan,number,2oBlNN4mFyOxeOM8uijz74bEaly1,html-keyboard-response,77,626738,0.0-7.0-2.6-0.6-1.31-0.31,,,,,,,65a2a75121e5c36aa719a3fd,11:23:20,15/01/2024
,"<p style=""font-size:14rem;font-weight:400;"">9</p>",,fwdspan,number,2oBlNN4mFyOxeOM8uijz74bEaly1,html-keyboard-response,78,627749,0.0-7.0-2.6-0.6-1.32-0.32,,,,,,,65a2a75121e5c36aa719a3fd,11:23:20,15/01/2024
,"<p style=""font-size:14rem;font-weight:400;"">4</p>",,fwdspan,number,2oBlNN4mFyOxeOM8uijz74bEaly1,html-keyboard-response,79,628760,0.0-7.0-2.6-0.6-1.33-0.33,,,,,,,65a2a75121e5c36aa719a3fd,11:23:20,15/01/2024
,"<p style=""font-size:14rem;font-weight:400;"">6</p>",,fwdspan,number,2oBlNN4mFyOxeOM8uijz74bEaly1,html-keyboard-response,80,629834,0.0-7.0-2.6-0.6-1.34-0.34,,,,,,,65a2a75121e5c36aa719a3fd,11:23:20,15/01/2024
,"<p style=""font-size:14rem;font-weight:400;"">3</p>",,fwdspan,number,2oBlNN4mFyOxeOM8uijz74bEaly1,html-keyboard-response,81,630863,0.0-7.0-2.6-0.6-1.35-0.35,,,,,,,65a2a75121e5c36aa719a3fd,11:23:20,15/01/2024
,"<p style=""font-size:14rem;font-weight:400;"">8</p>",,fwdspan,number,2oBlNN4mFyOxeOM8uijz74bEaly1,html-keyboard-response,82,631878,0.0-7.0-2.6-0.6-1.36-0.36,,,,,,,65a2a75121e5c36aa719a3fd,11:23:20,15/01/2024
,[],,fwdspan,delay,2oBlNN4mFyOxeOM8uijz74bEaly1,html-keyboard-response,83,632448,0.0-7.0-2.6-0.6-2.6,,,,,,,65a2a75121e5c36aa719a3fd,11:23:20,15/01/2024
5723.0,"<div class = numbox><p style=""font-size:2.5rem"">What were the numbers <b>in order</b>?<br>(When you are ready to lock in your answer, press <b>ENTER</b>)</p><button id = button_1 class = ""square num-button"" onclick = ""recordClick(this)""><div class = content><div class = numbers>1</div></div></button><button id = button_2 class = ""square num-button"" onclick = ""recordClick(this)""><div class = content><div class = numbers>2</div></div></button><button id = button_3 class = ""square num-button"" onclick = ""recordClick(this)""><div class = content><div class = numbers>3</div></div></button><button id = button_4 class = ""square num-button"" onclick = ""recordClick(this)""><div class = content><div class = numbers>4</div></div></button><button id = button_5 class = ""square num-button"" onclick = ""recordClick(this)""><div class = content><div class = numbers>5</div></div></button><button id = button_6 class = ""square num-button"" onclick = ""recordClick(this)""><div class = content><div class = numbers>6</div></div></button><button id = button_7 class = ""square num-button"" onclick = ""recordClick(this)""><div class = content><div class = numbers>7</div></div></button><button id = button_8 class = ""square num-button"" onclick = ""recordClick(this)""><div class = content><div class = numbers>8</div></div></button><button id = button_9 class = ""square num-button"" onclick = ""recordClick(this)""><div class = content><div class = numbers>9</div></div></button><button class = clear_button id = ""ClearButton"" onclick = ""clearResponse()"">Clear</button><p><u><b>Current Answer:</b></u></p><div id=echoed_txt style=""font-size: 6rem; color:blue;""><b></b></div></div><br><br><br><br><br><br><br>",enter,fwdspan,response,2oBlNN4mFyOxeOM8uijz74bEaly1,html-keyboard-response,84,638173,0.0-7.0-2.6-0.6-3.6,7.0,"[1,7,4,3,9,6,8,1]","[1,7,9,4,6,3,8]",0.0,"[3, 4, 5, 5, 6, 7, 7, 6, 6, 7, 7, 6]",,65a2a75121e5c36aa719a3fd,11:23:20,15/01/2024
,,,fwdspan,update_span,2oBlNN4mFyOxeOM8uijz74bEaly1,call-function,85,638430,0.0-7.0-2.6-0.6-4.6,,,,,,,65a2a75121e5c36aa719a3fd,11:23:20,15/01/2024
723.0,"<p style=""font-size:3rem"">Trial 8 of 12</p><br><br><br>",0,fwdspan,start_trial,2oBlNN4mFyOxeOM8uijz74bEaly1,html-button-response,86,639155,0.0-7.0-2.7-0.7-0.7,,,,,,,65a2a75121e5c36aa719a3fd,11:23:20,15/01/2024
,"<p style=""font-size:14rem;font-weight:400;"">8</p>",,fwdspan,number,2oBlNN4mFyOxeOM8uijz74bEaly1,html-keyboard-response,87,640183,0.0-7.0-2.7-0.7-1.37-0.37,,,,,,,65a2a75121e5c36aa719a3fd,11:23:20,15/01/2024
,"<p style=""font-size:14rem;font-weight:400;"">3</p>",,fwdspan,number,2oBlNN4mFyOxeOM8uijz74bEaly1,html-keyboard-response,88,641225,0.0-7.0-2.7-0.7-1.38-0.38,,,,,,,65a2a75121e5c36aa719a3fd,11:23:20,15/01/2024
,"<p style=""font-size:14rem;font-weight:400;"">5</p>",,fwdspan,number,2oBlNN4mFyOxeOM8uijz74bEaly1,html-keyboard-response,89,642238,0.0-7.0-2.7-0.7-1.39-0.39,,,,,,,65a2a75121e5c36aa719a3fd,11:23:20,15/01/2024
,"<p style=""font-size:14rem;font-weight:400;"">4</p>",,fwdspan,number,2oBlNN4mFyOxeOM8uijz74bEaly1,html-keyboard-response,90,643251,0.0-7.0-2.7-0.7-1.40-0.40,,,,,,,65a2a75121e5c36aa719a3fd,11:23:20,15/01/2024
,"<p style=""font-size:14rem;font-weight:400;"">9</p>",,fwdspan,number,2oBlNN4mFyOxeOM8uijz74bEaly1,html-keyboard-response,91,644265,0.0-7.0-2.7-0.7-1.41-0.41,,,,,,,65a2a75121e5c36aa719a3fd,11:23:20,15/01/2024
,"<p style=""font-size:14rem;font-weight:400;"">7</p>",,fwdspan,number,2oBlNN4mFyOxeOM8uijz74bEaly1,html-keyboard-response,92,645279,0.0-7.0-2.7-0.7-1.42-0.42,,,,,,,65a2a75121e5c36aa719a3fd,11:23:20,15/01/2024
,[],,fwdspan,delay,2oBlNN4mFyOxeOM8uijz74bEaly1,html-keyboard-response,93,645845,0.0-7.0-2.7-0.7-2.7,,,,,,,65a2a75121e5c36aa719a3fd,11:23:20,15/01/2024
10161.0,"<div class = numbox><p style=""font-size:2.5rem"">What were the numbers <b>in order</b>?<br>(When you are ready to lock in your answer, press <b>ENTER</b>)</p><button id = button_1 class = ""square num-button"" onclick = ""recordClick(this)""><div class = content><div class = numbers>1</div></div></button><button id = button_2 class = ""square num-button"" onclick = ""recordClick(this)""><div class = content><div class = numbers>2</div></div></button><button id = button_3 class = ""square num-button"" onclick = ""recordClick(this)""><div class = content><div class = numbers>3</div></div></button><button id = button_4 class = ""square num-button"" onclick = ""recordClick(this)""><div class = content><div class = numbers>4</div></div></button><button id = button_5 class = ""square num-button"" onclick = ""recordClick(this)""><div class = content><div class = numbers>5</div></div></button><button id = button_6 class = ""square num-button"" onclick = ""recordClick(this)""><div class = content><div class = numbers>6</div></div></button><button id = button_7 class = ""square num-button"" onclick = ""recordClick(this)""><div class = content><div class = numbers>7</div></div></button><button id = button_8 class = ""square num-button"" onclick = ""recordClick(this)""><div class = content><div class = numbers>8</div></div></button><button id = button_9 class = ""square num-button"" onclick = ""recordClick(this)""><div class = content><div class = numbers>9</div></div></button><button class = clear_button id = ""ClearButton"" onclick = ""clearResponse()"">Clear</button><p><u><b>Current Answer:</b></u></p><div id=echoed_txt style=""font-size: 6rem; color:blue;""><b></b></div></div><br><br><br><br><br><br><br>",enter,fwdspan,response,2oBlNN4mFyOxeOM8uijz74bEaly1,html-keyboard-response,94,656007,0.0-7.0-2.7-0.7-3.7,6.0,"[8,9,3,4,5,7]","[8,3,5,4,9,7]",0.0,"[3, 4, 5, 5, 6, 7, 7, 6, 6, 7, 7, 6]",,65a2a75121e5c36aa719a3fd,11:23:20,15/01/2024
,,,fwdspan,update_span,2oBlNN4mFyOxeOM8uijz74bEaly1,call-function,95,656272,0.0-7.0-2.7-0.7-4.7,,,,,,,65a2a75121e5c36aa719a3fd,11:23:20,15/01/2024
694.0,"<p style=""font-size:3rem"">Trial 9 of 12</p><br><br><br>",0,fwdspan,start_trial,2oBlNN4mFyOxeOM8uijz74bEaly1,html-button-response,96,656966,0.0-7.0-2.8-0.8-0.8,,,,,,,65a2a75121e5c36aa719a3fd,11:23:20,15/01/2024
,"<p style=""font-size:14rem;font-weight:400;"">6</p>",,fwdspan,number,2oBlNN4mFyOxeOM8uijz74bEaly1,html-keyboard-response,97,657981,0.0-7.0-2.8-0.8-1.43-0.43,,,,,,,65a2a75121e5c36aa719a3fd,11:23:20,15/01/2024
,"<p style=""font-size:14rem;font-weight:400;"">7</p>",,fwdspan,number,2oBlNN4mFyOxeOM8uijz74bEaly1,html-keyboard-response,98,659011,0.0-7.0-2.8-0.8-1.44-0.44,,,,,,,65a2a75121e5c36aa719a3fd,11:23:20,15/01/2024
,"<p style=""font-size:14rem;font-weight:400;"">8</p>",,fwdspan,number,2oBlNN4mFyOxeOM8uijz74bEaly1,html-keyboard-response,99,660055,0.0-7.0-2.8-0.8-1.45-0.45,,,,,,,65a2a75121e5c36aa719a3fd,11:23:20,15/01/2024
,"<p style=""font-size:14rem;font-weight:400;"">5</p>",,fwdspan,number,2oBlNN4mFyOxeOM8uijz74bEaly1,html-keyboard-response,100,661070,0.0-7.0-2.8-0.8-1.46-0.46,,,,,,,65a2a75121e5c36aa719a3fd,11:23:20,15/01/2024
,"<p style=""font-size:14rem;font-weight:400;"">3</p>",,fwdspan,number,2oBlNN4mFyOxeOM8uijz74bEaly1,html-keyboard-response,101,662080,0.0-7.0-2.8-0.8-1.47-0.47,,,,,,,65a2a75121e5c36aa719a3fd,11:23:20,15/01/2024
,"<p style=""font-size:14rem;font-weight:400;"">2</p>",,fwdspan,number,2oBlNN4mFyOxeOM8uijz74bEaly1,html-keyboard-response,102,663093,0.0-7.0-2.8-0.8-1.48-0.48,,,,,,,65a2a75121e5c36aa719a3fd,11:23:20,15/01/2024
,[],,fwdspan,delay,2oBlNN4mFyOxeOM8uijz74bEaly1,html-keyboard-response,103,663662,0.0-7.0-2.8-0.8-2.8,,,,,,,65a2a75121e5c36aa719a3fd,11:23:20,15/01/2024
5847.0,"<div class = numbox><p style=""font-size:2.5rem"">What were the numbers <b>in order</b>?<br>(When you are ready to lock in your answer, press <b>ENTER</b>)</p><button id = button_1 class = ""square num-button"" onclick = ""recordClick(this)""><div class = content><div class = numbers>1</div></div></button><button id = button_2 class = ""square num-button"" onclick = ""recordClick(this)""><div class = content><div class = numbers>2</div></div></button><button id = button_3 class = ""square num-button"" onclick = ""recordClick(this)""><div class = content><div class = numbers>3</div></div></button><button id = button_4 class = ""square num-button"" onclick = ""recordClick(this)""><div class = content><div class = numbers>4</div></div></button><button id = button_5 class = ""square num-button"" onclick = ""recordClick(this)""><div class = content><div class = numbers>5</div></div></button><button id = button_6 class = ""square num-button"" onclick = ""recordClick(this)""><div class = content><div class = numbers>6</div></div></button><button id = button_7 class = ""square num-button"" onclick = ""recordClick(this)""><div class = content><div class = numbers>7</div></div></button><button id = button_8 class = ""square num-button"" onclick = ""recordClick(this)""><div class = content><div class = numbers>8</div></div></button><button id = button_9 class = ""square num-button"" onclick = ""recordClick(this)""><div class = content><div class = numbers>9</div></div></button><button class = clear_button id = ""ClearButton"" onclick = ""clearResponse()"">Clear</button><p><u><b>Current Answer:</b></u></p><div id=echoed_txt style=""font-size: 6rem; color:blue;""><b></b></div></div><br><br><br><br><br><br><br>",enter,fwdspan,response,2oBlNN4mFyOxeOM8uijz74bEaly1,html-keyboard-response,104,669510,0.0-7.0-2.8-0.8-3.8,6.0,"[6,7,8,5,3,2]","[6,7,8,5,3,2]",1.0,"[3, 4, 5, 5, 6, 7, 7, 6, 6, 7, 7, 6]",,65a2a75121e5c36aa719a3fd,11:23:20,15/01/2024
,,,fwdspan,update_span,2oBlNN4mFyOxeOM8uijz74bEaly1,call-function,105,669769,0.0-7.0-2.8-0.8-4.8,,,,,,,65a2a75121e5c36aa719a3fd,11:23:20,15/01/2024
980.0,"<p style=""font-size:3rem"">Trial 10 of 12</p><br><br><br>",0,fwdspan,start_trial,2oBlNN4mFyOxeOM8uijz74bEaly1,html-button-response,106,670750,0.0-7.0-2.9-0.9-0.9,,,,,,,65a2a75121e5c36aa719a3fd,11:23:20,15/01/2024
,"<p style=""font-size:14rem;font-weight:400;"">4</p>",,fwdspan,number,2oBlNN4mFyOxeOM8uijz74bEaly1,html-keyboard-response,107,671762,0.0-7.0-2.9-0.9-1.49-0.49,,,,,,,65a2a75121e5c36aa719a3fd,11:23:20,15/01/2024
,"<p style=""font-size:14rem;font-weight:400;"">5</p>",,fwdspan,number,2oBlNN4mFyOxeOM8uijz74bEaly1,html-keyboard-response,108,672775,0.0-7.0-2.9-0.9-1.50-0.50,,,,,,,65a2a75121e5c36aa719a3fd,11:23:20,15/01/2024
,"<p style=""font-size:14rem;font-weight:400;"">2</p>",,fwdspan,number,2oBlNN4mFyOxeOM8uijz74bEaly1,html-keyboard-response,109,673788,0.0-7.0-2.9-0.9-1.51-0.51,,,,,,,65a2a75121e5c36aa719a3fd,11:23:20,15/01/2024
,"<p style=""font-size:14rem;font-weight:400;"">3</p>",,fwdspan,number,2oBlNN4mFyOxeOM8uijz74bEaly1,html-keyboard-response,110,674801,0.0-7.0-2.9-0.9-1.52-0.52,,,,,,,65a2a75121e5c36aa719a3fd,11:23:20,15/01/2024
,"<p style=""font-size:14rem;font-weight:400;"">6</p>",,fwdspan,number,2oBlNN4mFyOxeOM8uijz74bEaly1,html-keyboard-response,111,675814,0.0-7.0-2.9-0.9-1.53-0.53,,,,,,,65a2a75121e5c36aa719a3fd,11:23:20,15/01/2024
,"<p style=""font-size:14rem;font-weight:400;"">7</p>",,fwdspan,number,2oBlNN4mFyOxeOM8uijz74bEaly1,html-keyboard-response,112,676827,0.0-7.0-2.9-0.9-1.54-0.54,,,,,,,65a2a75121e5c36aa719a3fd,11:23:20,15/01/2024
,"<p style=""font-size:14rem;font-weight:400;"">8</p>",,fwdspan,number,2oBlNN4mFyOxeOM8uijz74bEaly1,html-keyboard-response,113,677838,0.0-7.0-2.9-0.9-1.55-0.55,,,,,,,65a2a75121e5c36aa719a3fd,11:23:20,15/01/2024
,[],,fwdspan,delay,2oBlNN4mFyOxeOM8uijz74bEaly1,html-keyboard-response,114,678407,0.0-7.0-2.9-0.9-2.9,,,,,,,65a2a75121e5c36aa719a3fd,11:23:20,15/01/2024
7706.0,"<div class = numbox><p style=""font-size:2.5rem"">What were the numbers <b>in order</b>?<br>(When you are ready to lock in your answer, press <b>ENTER</b>)</p><button id = button_1 class = ""square num-button"" onclick = ""recordClick(this)""><div class = content><div class = numbers>1</div></div></button><button id = button_2 class = ""square num-button"" onclick = ""recordClick(this)""><div class = content><div class = numbers>2</div></div></button><button id = button_3 class = ""square num-button"" onclick = ""recordClick(this)""><div class = content><div class = numbers>3</div></div></button><button id = button_4 class = ""square num-button"" onclick = ""recordClick(this)""><div class = content><div class = numbers>4</div></div></button><button id = button_5 class = ""square num-button"" onclick = ""recordClick(this)""><div class = content><div class = numbers>5</div></div></button><button id = button_6 class = ""square num-button"" onclick = ""recordClick(this)""><div class = content><div class = numbers>6</div></div></button><button id = button_7 class = ""square num-button"" onclick = ""recordClick(this)""><div class = content><div class = numbers>7</div></div></button><button id = button_8 class = ""square num-button"" onclick = ""recordClick(this)""><div class = content><div class = numbers>8</div></div></button><button id = button_9 class = ""square num-button"" onclick = ""recordClick(this)""><div class = content><div class = numbers>9</div></div></button><button class = clear_button id = ""ClearButton"" onclick = ""clearResponse()"">Clear</button><p><u><b>Current Answer:</b></u></p><div id=echoed_txt style=""font-size: 6rem; color:blue;""><b></b></div></div><br><br><br><br><br><br><br>",enter,fwdspan,response,2oBlNN4mFyOxeOM8uijz74bEaly1,html-keyboard-response,115,686115,0.0-7.0-2.9-0.9-3.9,7.0,"[4,5,2,3,7,8,9]","[4,5,2,3,6,7,8]",0.0,"[3, 4, 5, 5, 6, 7, 7, 6, 6, 7, 7, 6]",,65a2a75121e5c36aa719a3fd,11:23:20,15/01/2024
,,,fwdspan,update_span,2oBlNN4mFyOxeOM8uijz74bEaly1,call-function,116,686371,0.0-7.0-2.9-0.9-4.9,,,,,,,65a2a75121e5c36aa719a3fd,11:23:20,15/01/2024
924.0,"<p style=""font-size:3rem"">Trial 11 of 12</p><br><br><br>",0,fwdspan,start_trial,2oBlNN4mFyOxeOM8uijz74bEaly1,html-button-response,117,687298,0.0-7.0-2.10-0.10-0.10,,,,,,,65a2a75121e5c36aa719a3fd,11:23:20,15/01/2024
,"<p style=""font-size:14rem;font-weight:400;"">5</p>",,fwdspan,number,2oBlNN4mFyOxeOM8uijz74bEaly1,html-keyboard-response,118,688306,0.0-7.0-2.10-0.10-1.56-0.56,,,,,,,65a2a75121e5c36aa719a3fd,11:23:20,15/01/2024
,"<p style=""font-size:14rem;font-weight:400;"">9</p>",,fwdspan,number,2oBlNN4mFyOxeOM8uijz74bEaly1,html-keyboard-response,119,689319,0.0-7.0-2.10-0.10-1.57-0.57,,,,,,,65a2a75121e5c36aa719a3fd,11:23:20,15/01/2024
,"<p style=""font-size:14rem;font-weight:400;"">1</p>",,fwdspan,number,2oBlNN4mFyOxeOM8uijz74bEaly1,html-keyboard-response,120,690335,0.0-7.0-2.10-0.10-1.58-0.58,,,,,,,65a2a75121e5c36aa719a3fd,11:23:20,15/01/2024
,"<p style=""font-size:14rem;font-weight:400;"">6</p>",,fwdspan,number,2oBlNN4mFyOxeOM8uijz74bEaly1,html-keyboard-response,121,691349,0.0-7.0-2.10-0.10-1.59-0.59,,,,,,,65a2a75121e5c36aa719a3fd,11:23:20,15/01/2024
,"<p style=""font-size:14rem;font-weight:400;"">4</p>",,fwdspan,number,2oBlNN4mFyOxeOM8uijz74bEaly1,html-keyboard-response,122,692361,0.0-7.0-2.10-0.10-1.60-0.60,,,,,,,65a2a75121e5c36aa719a3fd,11:23:20,15/01/2024
,"<p style=""font-size:14rem;font-weight:400;"">2</p>",,fwdspan,number,2oBlNN4mFyOxeOM8uijz74bEaly1,html-keyboard-response,123,693375,0.0-7.0-2.10-0.10-1.61-0.61,,,,,,,65a2a75121e5c36aa719a3fd,11:23:20,15/01/2024
,"<p style=""font-size:14rem;font-weight:400;"">7</p>",,fwdspan,number,2oBlNN4mFyOxeOM8uijz74bEaly1,html-keyboard-response,124,694390,0.0-7.0-2.10-0.10-1.62-0.62,,,,,,,65a2a75121e5c36aa719a3fd,11:23:20,15/01/2024
,[],,fwdspan,delay,2oBlNN4mFyOxeOM8uijz74bEaly1,html-keyboard-response,125,694959,0.0-7.0-2.10-0.10-2.10,,,,,,,65a2a75121e5c36aa719a3fd,11:23:20,15/01/2024
8055.0,"<div class = numbox><p style=""font-size:2.5rem"">What were the numbers <b>in order</b>?<br>(When you are ready to lock in your answer, press <b>ENTER</b>)</p><button id = button_1 class = ""square num-button"" onclick = ""recordClick(this)""><div class = content><div class = numbers>1</div></div></button><button id = button_2 class = ""square num-button"" onclick = ""recordClick(this)""><div class = content><div class = numbers>2</div></div></button><button id = button_3 class = ""square num-button"" onclick = ""recordClick(this)""><div class = content><div class = numbers>3</div></div></button><button id = button_4 class = ""square num-button"" onclick = ""recordClick(this)""><div class = content><div class = numbers>4</div></div></button><button id = button_5 class = ""square num-button"" onclick = ""recordClick(this)""><div class = content><div class = numbers>5</div></div></button><button id = button_6 class = ""square num-button"" onclick = ""recordClick(this)""><div class = content><div class = numbers>6</div></div></button><button id = button_7 class = ""square num-button"" onclick = ""recordClick(this)""><div class = content><div class = numbers>7</div></div></button><button id = button_8 class = ""square num-button"" onclick = ""recordClick(this)""><div class = content><div class = numbers>8</div></div></button><button id = button_9 class = ""square num-button"" onclick = ""recordClick(this)""><div class = content><div class = numbers>9</div></div></button><button class = clear_button id = ""ClearButton"" onclick = ""clearResponse()"">Clear</button><p><u><b>Current Answer:</b></u></p><div id=echoed_txt style=""font-size: 6rem; color:blue;""><b></b></div></div><br><br><br><br><br><br><br>",enter,fwdspan,response,2oBlNN4mFyOxeOM8uijz74bEaly1,html-keyboard-response,126,703015,0.0-7.0-2.10-0.10-3.10,7.0,"[5,6,9,4,3,1,7]","[5,9,1,6,4,2,7]",0.0,"[3, 4, 5, 5, 6, 7, 7, 6, 6, 7, 7, 6]",,65a2a75121e5c36aa719a3fd,11:23:20,15/01/2024
,,,fwdspan,update_span,2oBlNN4mFyOxeOM8uijz74bEaly1,call-function,127,703280,0.0-7.0-2.10-0.10-4.10,,,,,,,65a2a75121e5c36aa719a3fd,11:23:20,15/01/2024
649.0,"<p style=""font-size:3rem"">Trial 12 of 12</p><br><br><br>",0,fwdspan,start_trial,2oBlNN4mFyOxeOM8uijz74bEaly1,html-button-response,128,703929,0.0-7.0-2.11-0.11-0.11,,,,,,,65a2a75121e5c36aa719a3fd,11:23:20,15/01/2024
,"<p style=""font-size:14rem;font-weight:400;"">6</p>",,fwdspan,number,2oBlNN4mFyOxeOM8uijz74bEaly1,html-keyboard-response,129,704942,0.0-7.0-2.11-0.11-1.63-0.63,,,,,,,65a2a75121e5c36aa719a3fd,11:23:20,15/01/2024
,"<p style=""font-size:14rem;font-weight:400;"">8</p>",,fwdspan,number,2oBlNN4mFyOxeOM8uijz74bEaly1,html-keyboard-response,130,705957,0.0-7.0-2.11-0.11-1.64-0.64,,,,,,,65a2a75121e5c36aa719a3fd,11:23:20,15/01/2024
,"<p style=""font-size:14rem;font-weight:400;"">2</p>",,fwdspan,number,2oBlNN4mFyOxeOM8uijz74bEaly1,html-keyboard-response,131,706969,0.0-7.0-2.11-0.11-1.65-0.65,,,,,,,65a2a75121e5c36aa719a3fd,11:23:20,15/01/2024
,"<p style=""font-size:14rem;font-weight:400;"">5</p>",,fwdspan,number,2oBlNN4mFyOxeOM8uijz74bEaly1,html-keyboard-response,132,707980,0.0-7.0-2.11-0.11-1.66-0.66,,,,,,,65a2a75121e5c36aa719a3fd,11:23:20,15/01/2024
,"<p style=""font-size:14rem;font-weight:400;"">1</p>",,fwdspan,number,2oBlNN4mFyOxeOM8uijz74bEaly1,html-keyboard-response,133,708993,0.0-7.0-2.11-0.11-1.67-0.67,,,,,,,65a2a75121e5c36aa719a3fd,11:23:20,15/01/2024
,"<p style=""font-size:14rem;font-weight:400;"">9</p>",,fwdspan,number,2oBlNN4mFyOxeOM8uijz74bEaly1,html-keyboard-response,134,710005,0.0-7.0-2.11-0.11-1.68-0.68,,,,,,,65a2a75121e5c36aa719a3fd,11:23:20,15/01/2024
,[],,fwdspan,delay,2oBlNN4mFyOxeOM8uijz74bEaly1,html-keyboard-response,135,710571,0.0-7.0-2.11-0.11-2.11,,,,,,,65a2a75121e5c36aa719a3fd,11:23:20,15/01/2024
6242.0,"<div class = numbox><p style=""font-size:2.5rem"">What were the numbers <b>in order</b>?<br>(When you are ready to lock in your answer, press <b>ENTER</b>)</p><button id = button_1 class = ""square num-button"" onclick = ""recordClick(this)""><div class = content><div class = numbers>1</div></div></button><button id = button_2 class = ""square num-button"" onclick = ""recordClick(this)""><div class = content><div class = numbers>2</div></div></button><button id = button_3 class = ""square num-button"" onclick = ""recordClick(this)""><div class = content><div class = numbers>3</div></div></button><button id = button_4 class = ""square num-button"" onclick = ""recordClick(this)""><div class = content><div class = numbers>4</div></div></button><button id = button_5 class = ""square num-button"" onclick = ""recordClick(this)""><div class = content><div class = numbers>5</div></div></button><button id = button_6 class = ""square num-button"" onclick = ""recordClick(this)""><div class = content><div class = numbers>6</div></div></button><button id = button_7 class = ""square num-button"" onclick = ""recordClick(this)""><div class = content><div class = numbers>7</div></div></button><button id = button_8 class = ""square num-button"" onclick = ""recordClick(this)""><div class = content><div class = numbers>8</div></div></button><button id = button_9 class = ""square num-button"" onclick = ""recordClick(this)""><div class = content><div class = numbers>9</div></div></button><button class = clear_button id = ""ClearButton"" onclick = ""clearResponse()"">Clear</button><p><u><b>Current Answer:</b></u></p><div id=echoed_txt style=""font-size: 6rem; color:blue;""><b></b></div></div><br><br><br><br><br><br><br>",enter,fwdspan,response,2oBlNN4mFyOxeOM8uijz74bEaly1,html-keyboard-response,136,716814,0.0-7.0-2.11-0.11-3.11,6.0,"[6,2,5,8,7,3]","[6,8,2,5,1,9]",0.0,"[3, 4, 5, 5, 6, 7, 7, 6, 6, 7, 7, 6]",,65a2a75121e5c36aa719a3fd,11:23:20,15/01/2024
,,,fwdspan,update_span,2oBlNN4mFyOxeOM8uijz74bEaly1,call-function,137,717081,0.0-7.0-2.11-0.11-4.11,,,,,,,65a2a75121e5c36aa719a3fd,11:23:20,15/01/2024
19245.0,,{'Q0': 'Was fun and engaging'},fwdspan,survey,2oBlNN4mFyOxeOM8uijz74bEaly1,lmdlab-survey-text,138,737163,0.0-7.0-3.0,,,,,,2oBlNN4mFyOxeOM8uijz74bEaly1,65a2a75121e5c36aa719a3fd,11:23:20,15/01/2024
1023.0,<p><p style='font-size: 3rem'>Great work!<br><br>This completes the digit span task.</p><br><br><br>,0,fwdspan,finish,2oBlNN4mFyOxeOM8uijz74bEaly1,html-button-response,139,738191,0.0-7.0-4.0,,,,,,,65a2a75121e5c36aa719a3fd,11:23:20,15/01/2024
