rt,stimulus,response,exp_name,exp_stage,subjectID,trial_type,trial_index,time_elapsed,internal_node_id,span,answer,correct,correct_full,span_history,databaseID,prolificID,start_time,date
7322.5,"<p style=""font-size:4rem""><br><br>In the next part today, we have a completely different short task.<br><br><br>This part involves keeping numbers in you mind. Participation takes around 5 minutes.<br><br><br></p>",0,fwdspan,instruct,kkvdQEGzluePbbc71Hw706Mt4Bt2,html-button-response,19,452318,0.0-7.0-0.0,,,,,,,61017941304cf7ac38c2e110,15:51:42,15/01/2024
132455.5,"<p style=""font-size:5rem"">Welcome to the <b>digit span task</b>!<br><br></p><p style=""font-size:3.4rem""><br>On each trial, you will see a sequence of digits, followed by a delay.</p><p style=""font-size:3.4rem""><br>Then you will be asked to type them back in the same order in which they were seen.</p><p style=""font-size:3.4rem""><br><br><br>For example, if you saw the digits <b style=""color:blue;"">1</b>, <b style=""color:blue;"">2</b>, <b style=""color:blue;"">3</b>, you would respond with <b style=""color:blue;"">1</b>, <b style=""color:blue;"">2</b>, <b style=""color:blue;"">3</b></p><p style=""font-size:3.4rem""><br><br><br>To ensure the best measure of true performance for our study,<br><br>it is very important that you do not use any memory aid (e.g., pen and paper).<br><br>Please do the task solely in your head.</p><p style=""font-size:3.4rem""><br><br><br>There will be 12 total trials. Participation takes around 5 minutes.</p><br><br><br>",0,fwdspan,instruct,kkvdQEGzluePbbc71Hw706Mt4Bt2,html-button-response,20,584780,0.0-7.0-1.0,,,,,,,61017941304cf7ac38c2e110,15:51:42,15/01/2024
1543.699999988079,"<p style=""font-size:3rem"">Trial 1 of 12</p><br><br><br>",0,fwdspan,start_trial,kkvdQEGzluePbbc71Hw706Mt4Bt2,html-button-response,21,586326,0.0-7.0-2.0-0.0-0.0,,,,,,,61017941304cf7ac38c2e110,15:51:42,15/01/2024
,"<p style=""font-size:14rem;font-weight:400;"">7</p>",,fwdspan,number,kkvdQEGzluePbbc71Hw706Mt4Bt2,html-keyboard-response,22,587334,0.0-7.0-2.0-0.0-1.0-0.0,,,,,,,61017941304cf7ac38c2e110,15:51:42,15/01/2024
,"<p style=""font-size:14rem;font-weight:400;"">4</p>",,fwdspan,number,kkvdQEGzluePbbc71Hw706Mt4Bt2,html-keyboard-response,23,588351,0.0-7.0-2.0-0.0-1.1-0.1,,,,,,,61017941304cf7ac38c2e110,15:51:42,15/01/2024
,"<p style=""font-size:14rem;font-weight:400;"">1</p>",,fwdspan,number,kkvdQEGzluePbbc71Hw706Mt4Bt2,html-keyboard-response,24,589355,0.0-7.0-2.0-0.0-1.2-0.2,,,,,,,61017941304cf7ac38c2e110,15:51:42,15/01/2024
,[],,fwdspan,delay,kkvdQEGzluePbbc71Hw706Mt4Bt2,html-keyboard-response,25,589910,0.0-7.0-2.0-0.0-2.0,,,,,,,61017941304cf7ac38c2e110,15:51:42,15/01/2024
6904.0,"<div class = numbox><p style=""font-size:2.5rem"">What were the numbers <b>in order</b>?<br>(When you are ready to lock in your answer, press <b>ENTER</b>)</p><button id = button_1 class = ""square num-button"" onclick = ""recordClick(this)""><div class = content><div class = numbers>1</div></div></button><button id = button_2 class = ""square num-button"" onclick = ""recordClick(this)""><div class = content><div class = numbers>2</div></div></button><button id = button_3 class = ""square num-button"" onclick = ""recordClick(this)""><div class = content><div class = numbers>3</div></div></button><button id = button_4 class = ""square num-button"" onclick = ""recordClick(this)""><div class = content><div class = numbers>4</div></div></button><button id = button_5 class = ""square num-button"" onclick = ""recordClick(this)""><div class = content><div class = numbers>5</div></div></button><button id = button_6 class = ""square num-button"" onclick = ""recordClick(this)""><div class = content><div class = numbers>6</div></div></button><button id = button_7 class = ""square num-button"" onclick = ""recordClick(this)""><div class = content><div class = numbers>7</div></div></button><button id = button_8 class = ""square num-button"" onclick = ""recordClick(this)""><div class = content><div class = numbers>8</div></div></button><button id = button_9 class = ""square num-button"" onclick = ""recordClick(this)""><div class = content><div class = numbers>9</div></div></button><button class = clear_button id = ""ClearButton"" onclick = ""clearResponse()"">Clear</button><p><u><b>Current Answer:</b></u></p><div id=echoed_txt style=""font-size: 6rem; color:blue;""><b></b></div></div><br><br><br><br><br><br><br>",enter,fwdspan,response,kkvdQEGzluePbbc71Hw706Mt4Bt2,html-keyboard-response,26,596816,0.0-7.0-2.0-0.0-3.0,3.0,"[7,4,1]","[7,4,1]",1.0,"[3, 4, 5, 6, 7, 8, 9, 9, 8, 8, 7, 7]",,61017941304cf7ac38c2e110,15:51:42,15/01/2024
,,,fwdspan,update_span,kkvdQEGzluePbbc71Hw706Mt4Bt2,call-function,27,597070,0.0-7.0-2.0-0.0-4.0,,,,,,,61017941304cf7ac38c2e110,15:51:42,15/01/2024
7234.100000023842,"<p style=""font-size:3rem"">Trial 2 of 12</p><br><br><br>",0,fwdspan,start_trial,kkvdQEGzluePbbc71Hw706Mt4Bt2,html-button-response,28,604305,0.0-7.0-2.1-0.1-0.1,,,,,,,61017941304cf7ac38c2e110,15:51:42,15/01/2024
,"<p style=""font-size:14rem;font-weight:400;"">1</p>",,fwdspan,number,kkvdQEGzluePbbc71Hw706Mt4Bt2,html-keyboard-response,29,605313,0.0-7.0-2.1-0.1-1.3-0.3,,,,,,,61017941304cf7ac38c2e110,15:51:42,15/01/2024
,"<p style=""font-size:14rem;font-weight:400;"">6</p>",,fwdspan,number,kkvdQEGzluePbbc71Hw706Mt4Bt2,html-keyboard-response,30,606322,0.0-7.0-2.1-0.1-1.4-0.4,,,,,,,61017941304cf7ac38c2e110,15:51:42,15/01/2024
,"<p style=""font-size:14rem;font-weight:400;"">4</p>",,fwdspan,number,kkvdQEGzluePbbc71Hw706Mt4Bt2,html-keyboard-response,31,607330,0.0-7.0-2.1-0.1-1.5-0.5,,,,,,,61017941304cf7ac38c2e110,15:51:42,15/01/2024
,"<p style=""font-size:14rem;font-weight:400;"">3</p>",,fwdspan,number,kkvdQEGzluePbbc71Hw706Mt4Bt2,html-keyboard-response,32,608336,0.0-7.0-2.1-0.1-1.6-0.6,,,,,,,61017941304cf7ac38c2e110,15:51:42,15/01/2024
,[],,fwdspan,delay,kkvdQEGzluePbbc71Hw706Mt4Bt2,html-keyboard-response,33,608889,0.0-7.0-2.1-0.1-2.1,,,,,,,61017941304cf7ac38c2e110,15:51:42,15/01/2024
3723.2000000178814,"<div class = numbox><p style=""font-size:2.5rem"">What were the numbers <b>in order</b>?<br>(When you are ready to lock in your answer, press <b>ENTER</b>)</p><button id = button_1 class = ""square num-button"" onclick = ""recordClick(this)""><div class = content><div class = numbers>1</div></div></button><button id = button_2 class = ""square num-button"" onclick = ""recordClick(this)""><div class = content><div class = numbers>2</div></div></button><button id = button_3 class = ""square num-button"" onclick = ""recordClick(this)""><div class = content><div class = numbers>3</div></div></button><button id = button_4 class = ""square num-button"" onclick = ""recordClick(this)""><div class = content><div class = numbers>4</div></div></button><button id = button_5 class = ""square num-button"" onclick = ""recordClick(this)""><div class = content><div class = numbers>5</div></div></button><button id = button_6 class = ""square num-button"" onclick = ""recordClick(this)""><div class = content><div class = numbers>6</div></div></button><button id = button_7 class = ""square num-button"" onclick = ""recordClick(this)""><div class = content><div class = numbers>7</div></div></button><button id = button_8 class = ""square num-button"" onclick = ""recordClick(this)""><div class = content><div class = numbers>8</div></div></button><button id = button_9 class = ""square num-button"" onclick = ""recordClick(this)""><div class = content><div class = numbers>9</div></div></button><button class = clear_button id = ""ClearButton"" onclick = ""clearResponse()"">Clear</button><p><u><b>Current Answer:</b></u></p><div id=echoed_txt style=""font-size: 6rem; color:blue;""><b></b></div></div><br><br><br><br><br><br><br>",enter,fwdspan,response,kkvdQEGzluePbbc71Hw706Mt4Bt2,html-keyboard-response,34,612614,0.0-7.0-2.1-0.1-3.1,4.0,"[1,6,4,3]","[1,6,4,3]",1.0,"[3, 4, 5, 6, 7, 8, 9, 9, 8, 8, 7, 7]",,61017941304cf7ac38c2e110,15:51:42,15/01/2024
,,,fwdspan,update_span,kkvdQEGzluePbbc71Hw706Mt4Bt2,call-function,35,612868,0.0-7.0-2.1-0.1-4.1,,,,,,,61017941304cf7ac38c2e110,15:51:42,15/01/2024
1134.0999999940395,"<p style=""font-size:3rem"">Trial 3 of 12</p><br><br><br>",0,fwdspan,start_trial,kkvdQEGzluePbbc71Hw706Mt4Bt2,html-button-response,36,614003,0.0-7.0-2.2-0.2-0.2,,,,,,,61017941304cf7ac38c2e110,15:51:42,15/01/2024
,"<p style=""font-size:14rem;font-weight:400;"">1</p>",,fwdspan,number,kkvdQEGzluePbbc71Hw706Mt4Bt2,html-keyboard-response,37,615009,0.0-7.0-2.2-0.2-1.7-0.7,,,,,,,61017941304cf7ac38c2e110,15:51:42,15/01/2024
,"<p style=""font-size:14rem;font-weight:400;"">8</p>",,fwdspan,number,kkvdQEGzluePbbc71Hw706Mt4Bt2,html-keyboard-response,38,616020,0.0-7.0-2.2-0.2-1.8-0.8,,,,,,,61017941304cf7ac38c2e110,15:51:42,15/01/2024
,"<p style=""font-size:14rem;font-weight:400;"">4</p>",,fwdspan,number,kkvdQEGzluePbbc71Hw706Mt4Bt2,html-keyboard-response,39,617023,0.0-7.0-2.2-0.2-1.9-0.9,,,,,,,61017941304cf7ac38c2e110,15:51:42,15/01/2024
,"<p style=""font-size:14rem;font-weight:400;"">3</p>",,fwdspan,number,kkvdQEGzluePbbc71Hw706Mt4Bt2,html-keyboard-response,40,618030,0.0-7.0-2.2-0.2-1.10-0.10,,,,,,,61017941304cf7ac38c2e110,15:51:42,15/01/2024
,"<p style=""font-size:14rem;font-weight:400;"">2</p>",,fwdspan,number,kkvdQEGzluePbbc71Hw706Mt4Bt2,html-keyboard-response,41,619033,0.0-7.0-2.2-0.2-1.11-0.11,,,,,,,61017941304cf7ac38c2e110,15:51:42,15/01/2024
,[],,fwdspan,delay,kkvdQEGzluePbbc71Hw706Mt4Bt2,html-keyboard-response,42,619588,0.0-7.0-2.2-0.2-2.2,,,,,,,61017941304cf7ac38c2e110,15:51:42,15/01/2024
6321.199999988079,"<div class = numbox><p style=""font-size:2.5rem"">What were the numbers <b>in order</b>?<br>(When you are ready to lock in your answer, press <b>ENTER</b>)</p><button id = button_1 class = ""square num-button"" onclick = ""recordClick(this)""><div class = content><div class = numbers>1</div></div></button><button id = button_2 class = ""square num-button"" onclick = ""recordClick(this)""><div class = content><div class = numbers>2</div></div></button><button id = button_3 class = ""square num-button"" onclick = ""recordClick(this)""><div class = content><div class = numbers>3</div></div></button><button id = button_4 class = ""square num-button"" onclick = ""recordClick(this)""><div class = content><div class = numbers>4</div></div></button><button id = button_5 class = ""square num-button"" onclick = ""recordClick(this)""><div class = content><div class = numbers>5</div></div></button><button id = button_6 class = ""square num-button"" onclick = ""recordClick(this)""><div class = content><div class = numbers>6</div></div></button><button id = button_7 class = ""square num-button"" onclick = ""recordClick(this)""><div class = content><div class = numbers>7</div></div></button><button id = button_8 class = ""square num-button"" onclick = ""recordClick(this)""><div class = content><div class = numbers>8</div></div></button><button id = button_9 class = ""square num-button"" onclick = ""recordClick(this)""><div class = content><div class = numbers>9</div></div></button><button class = clear_button id = ""ClearButton"" onclick = ""clearResponse()"">Clear</button><p><u><b>Current Answer:</b></u></p><div id=echoed_txt style=""font-size: 6rem; color:blue;""><b></b></div></div><br><br><br><br><br><br><br>",enter,fwdspan,response,kkvdQEGzluePbbc71Hw706Mt4Bt2,html-keyboard-response,43,625911,0.0-7.0-2.2-0.2-3.2,5.0,"[1,8,4,3,2]","[1,8,4,3,2]",1.0,"[3, 4, 5, 6, 7, 8, 9, 9, 8, 8, 7, 7]",,61017941304cf7ac38c2e110,15:51:42,15/01/2024
,,,fwdspan,update_span,kkvdQEGzluePbbc71Hw706Mt4Bt2,call-function,44,626163,0.0-7.0-2.2-0.2-4.2,,,,,,,61017941304cf7ac38c2e110,15:51:42,15/01/2024
1723.7000000178814,"<p style=""font-size:3rem"">Trial 4 of 12</p><br><br><br>",0,fwdspan,start_trial,kkvdQEGzluePbbc71Hw706Mt4Bt2,html-button-response,45,627888,0.0-7.0-2.3-0.3-0.3,,,,,,,61017941304cf7ac38c2e110,15:51:42,15/01/2024
,"<p style=""font-size:14rem;font-weight:400;"">1</p>",,fwdspan,number,kkvdQEGzluePbbc71Hw706Mt4Bt2,html-keyboard-response,46,628893,0.0-7.0-2.3-0.3-1.12-0.12,,,,,,,61017941304cf7ac38c2e110,15:51:42,15/01/2024
,"<p style=""font-size:14rem;font-weight:400;"">9</p>",,fwdspan,number,kkvdQEGzluePbbc71Hw706Mt4Bt2,html-keyboard-response,47,629900,0.0-7.0-2.3-0.3-1.13-0.13,,,,,,,61017941304cf7ac38c2e110,15:51:42,15/01/2024
,"<p style=""font-size:14rem;font-weight:400;"">7</p>",,fwdspan,number,kkvdQEGzluePbbc71Hw706Mt4Bt2,html-keyboard-response,48,630909,0.0-7.0-2.3-0.3-1.14-0.14,,,,,,,61017941304cf7ac38c2e110,15:51:42,15/01/2024
,"<p style=""font-size:14rem;font-weight:400;"">3</p>",,fwdspan,number,kkvdQEGzluePbbc71Hw706Mt4Bt2,html-keyboard-response,49,631917,0.0-7.0-2.3-0.3-1.15-0.15,,,,,,,61017941304cf7ac38c2e110,15:51:42,15/01/2024
,"<p style=""font-size:14rem;font-weight:400;"">5</p>",,fwdspan,number,kkvdQEGzluePbbc71Hw706Mt4Bt2,html-keyboard-response,50,632927,0.0-7.0-2.3-0.3-1.16-0.16,,,,,,,61017941304cf7ac38c2e110,15:51:42,15/01/2024
,"<p style=""font-size:14rem;font-weight:400;"">2</p>",,fwdspan,number,kkvdQEGzluePbbc71Hw706Mt4Bt2,html-keyboard-response,51,633931,0.0-7.0-2.3-0.3-1.17-0.17,,,,,,,61017941304cf7ac38c2e110,15:51:42,15/01/2024
,[],,fwdspan,delay,kkvdQEGzluePbbc71Hw706Mt4Bt2,html-keyboard-response,52,634488,0.0-7.0-2.3-0.3-2.3,,,,,,,61017941304cf7ac38c2e110,15:51:42,15/01/2024
4790.200000017881,"<div class = numbox><p style=""font-size:2.5rem"">What were the numbers <b>in order</b>?<br>(When you are ready to lock in your answer, press <b>ENTER</b>)</p><button id = button_1 class = ""square num-button"" onclick = ""recordClick(this)""><div class = content><div class = numbers>1</div></div></button><button id = button_2 class = ""square num-button"" onclick = ""recordClick(this)""><div class = content><div class = numbers>2</div></div></button><button id = button_3 class = ""square num-button"" onclick = ""recordClick(this)""><div class = content><div class = numbers>3</div></div></button><button id = button_4 class = ""square num-button"" onclick = ""recordClick(this)""><div class = content><div class = numbers>4</div></div></button><button id = button_5 class = ""square num-button"" onclick = ""recordClick(this)""><div class = content><div class = numbers>5</div></div></button><button id = button_6 class = ""square num-button"" onclick = ""recordClick(this)""><div class = content><div class = numbers>6</div></div></button><button id = button_7 class = ""square num-button"" onclick = ""recordClick(this)""><div class = content><div class = numbers>7</div></div></button><button id = button_8 class = ""square num-button"" onclick = ""recordClick(this)""><div class = content><div class = numbers>8</div></div></button><button id = button_9 class = ""square num-button"" onclick = ""recordClick(this)""><div class = content><div class = numbers>9</div></div></button><button class = clear_button id = ""ClearButton"" onclick = ""clearResponse()"">Clear</button><p><u><b>Current Answer:</b></u></p><div id=echoed_txt style=""font-size: 6rem; color:blue;""><b></b></div></div><br><br><br><br><br><br><br>",enter,fwdspan,response,kkvdQEGzluePbbc71Hw706Mt4Bt2,html-keyboard-response,53,639279,0.0-7.0-2.3-0.3-3.3,6.0,"[1,9,7,3,5,2]","[1,9,7,3,5,2]",1.0,"[3, 4, 5, 6, 7, 8, 9, 9, 8, 8, 7, 7]",,61017941304cf7ac38c2e110,15:51:42,15/01/2024
,,,fwdspan,update_span,kkvdQEGzluePbbc71Hw706Mt4Bt2,call-function,54,639531,0.0-7.0-2.3-0.3-4.3,,,,,,,61017941304cf7ac38c2e110,15:51:42,15/01/2024
1426.199999988079,"<p style=""font-size:3rem"">Trial 5 of 12</p><br><br><br>",0,fwdspan,start_trial,kkvdQEGzluePbbc71Hw706Mt4Bt2,html-button-response,55,640958,0.0-7.0-2.4-0.4-0.4,,,,,,,61017941304cf7ac38c2e110,15:51:42,15/01/2024
,"<p style=""font-size:14rem;font-weight:400;"">3</p>",,fwdspan,number,kkvdQEGzluePbbc71Hw706Mt4Bt2,html-keyboard-response,56,641964,0.0-7.0-2.4-0.4-1.18-0.18,,,,,,,61017941304cf7ac38c2e110,15:51:42,15/01/2024
,"<p style=""font-size:14rem;font-weight:400;"">5</p>",,fwdspan,number,kkvdQEGzluePbbc71Hw706Mt4Bt2,html-keyboard-response,57,642969,0.0-7.0-2.4-0.4-1.19-0.19,,,,,,,61017941304cf7ac38c2e110,15:51:42,15/01/2024
,"<p style=""font-size:14rem;font-weight:400;"">8</p>",,fwdspan,number,kkvdQEGzluePbbc71Hw706Mt4Bt2,html-keyboard-response,58,643971,0.0-7.0-2.4-0.4-1.20-0.20,,,,,,,61017941304cf7ac38c2e110,15:51:42,15/01/2024
,"<p style=""font-size:14rem;font-weight:400;"">1</p>",,fwdspan,number,kkvdQEGzluePbbc71Hw706Mt4Bt2,html-keyboard-response,59,644978,0.0-7.0-2.4-0.4-1.21-0.21,,,,,,,61017941304cf7ac38c2e110,15:51:42,15/01/2024
,"<p style=""font-size:14rem;font-weight:400;"">7</p>",,fwdspan,number,kkvdQEGzluePbbc71Hw706Mt4Bt2,html-keyboard-response,60,645981,0.0-7.0-2.4-0.4-1.22-0.22,,,,,,,61017941304cf7ac38c2e110,15:51:42,15/01/2024
,"<p style=""font-size:14rem;font-weight:400;"">2</p>",,fwdspan,number,kkvdQEGzluePbbc71Hw706Mt4Bt2,html-keyboard-response,61,646988,0.0-7.0-2.4-0.4-1.23-0.23,,,,,,,61017941304cf7ac38c2e110,15:51:42,15/01/2024
,"<p style=""font-size:14rem;font-weight:400;"">9</p>",,fwdspan,number,kkvdQEGzluePbbc71Hw706Mt4Bt2,html-keyboard-response,62,647993,0.0-7.0-2.4-0.4-1.24-0.24,,,,,,,61017941304cf7ac38c2e110,15:51:42,15/01/2024
,[],,fwdspan,delay,kkvdQEGzluePbbc71Hw706Mt4Bt2,html-keyboard-response,63,648549,0.0-7.0-2.4-0.4-2.4,,,,,,,61017941304cf7ac38c2e110,15:51:42,15/01/2024
9528.0,"<div class = numbox><p style=""font-size:2.5rem"">What were the numbers <b>in order</b>?<br>(When you are ready to lock in your answer, press <b>ENTER</b>)</p><button id = button_1 class = ""square num-button"" onclick = ""recordClick(this)""><div class = content><div class = numbers>1</div></div></button><button id = button_2 class = ""square num-button"" onclick = ""recordClick(this)""><div class = content><div class = numbers>2</div></div></button><button id = button_3 class = ""square num-button"" onclick = ""recordClick(this)""><div class = content><div class = numbers>3</div></div></button><button id = button_4 class = ""square num-button"" onclick = ""recordClick(this)""><div class = content><div class = numbers>4</div></div></button><button id = button_5 class = ""square num-button"" onclick = ""recordClick(this)""><div class = content><div class = numbers>5</div></div></button><button id = button_6 class = ""square num-button"" onclick = ""recordClick(this)""><div class = content><div class = numbers>6</div></div></button><button id = button_7 class = ""square num-button"" onclick = ""recordClick(this)""><div class = content><div class = numbers>7</div></div></button><button id = button_8 class = ""square num-button"" onclick = ""recordClick(this)""><div class = content><div class = numbers>8</div></div></button><button id = button_9 class = ""square num-button"" onclick = ""recordClick(this)""><div class = content><div class = numbers>9</div></div></button><button class = clear_button id = ""ClearButton"" onclick = ""clearResponse()"">Clear</button><p><u><b>Current Answer:</b></u></p><div id=echoed_txt style=""font-size: 6rem; color:blue;""><b></b></div></div><br><br><br><br><br><br><br>",enter,fwdspan,response,kkvdQEGzluePbbc71Hw706Mt4Bt2,html-keyboard-response,64,658078,0.0-7.0-2.4-0.4-3.4,7.0,"[3,5,8,1,7,2,9]","[3,5,8,1,7,2,9]",1.0,"[3, 4, 5, 6, 7, 8, 9, 9, 8, 8, 7, 7]",,61017941304cf7ac38c2e110,15:51:42,15/01/2024
,,,fwdspan,update_span,kkvdQEGzluePbbc71Hw706Mt4Bt2,call-function,65,658329,0.0-7.0-2.4-0.4-4.4,,,,,,,61017941304cf7ac38c2e110,15:51:42,15/01/2024
1354.5,"<p style=""font-size:3rem"">Trial 6 of 12</p><br><br><br>",0,fwdspan,start_trial,kkvdQEGzluePbbc71Hw706Mt4Bt2,html-button-response,66,659685,0.0-7.0-2.5-0.5-0.5,,,,,,,61017941304cf7ac38c2e110,15:51:42,15/01/2024
,"<p style=""font-size:14rem;font-weight:400;"">7</p>",,fwdspan,number,kkvdQEGzluePbbc71Hw706Mt4Bt2,html-keyboard-response,67,660692,0.0-7.0-2.5-0.5-1.25-0.25,,,,,,,61017941304cf7ac38c2e110,15:51:42,15/01/2024
,"<p style=""font-size:14rem;font-weight:400;"">1</p>",,fwdspan,number,kkvdQEGzluePbbc71Hw706Mt4Bt2,html-keyboard-response,68,661695,0.0-7.0-2.5-0.5-1.26-0.26,,,,,,,61017941304cf7ac38c2e110,15:51:42,15/01/2024
,"<p style=""font-size:14rem;font-weight:400;"">4</p>",,fwdspan,number,kkvdQEGzluePbbc71Hw706Mt4Bt2,html-keyboard-response,69,662701,0.0-7.0-2.5-0.5-1.27-0.27,,,,,,,61017941304cf7ac38c2e110,15:51:42,15/01/2024
,"<p style=""font-size:14rem;font-weight:400;"">3</p>",,fwdspan,number,kkvdQEGzluePbbc71Hw706Mt4Bt2,html-keyboard-response,70,663704,0.0-7.0-2.5-0.5-1.28-0.28,,,,,,,61017941304cf7ac38c2e110,15:51:42,15/01/2024
,"<p style=""font-size:14rem;font-weight:400;"">9</p>",,fwdspan,number,kkvdQEGzluePbbc71Hw706Mt4Bt2,html-keyboard-response,71,664710,0.0-7.0-2.5-0.5-1.29-0.29,,,,,,,61017941304cf7ac38c2e110,15:51:42,15/01/2024
,"<p style=""font-size:14rem;font-weight:400;"">8</p>",,fwdspan,number,kkvdQEGzluePbbc71Hw706Mt4Bt2,html-keyboard-response,72,665717,0.0-7.0-2.5-0.5-1.30-0.30,,,,,,,61017941304cf7ac38c2e110,15:51:42,15/01/2024
,"<p style=""font-size:14rem;font-weight:400;"">5</p>",,fwdspan,number,kkvdQEGzluePbbc71Hw706Mt4Bt2,html-keyboard-response,73,666724,0.0-7.0-2.5-0.5-1.31-0.31,,,,,,,61017941304cf7ac38c2e110,15:51:42,15/01/2024
,"<p style=""font-size:14rem;font-weight:400;"">6</p>",,fwdspan,number,kkvdQEGzluePbbc71Hw706Mt4Bt2,html-keyboard-response,74,667729,0.0-7.0-2.5-0.5-1.32-0.32,,,,,,,61017941304cf7ac38c2e110,15:51:42,15/01/2024
,[],,fwdspan,delay,kkvdQEGzluePbbc71Hw706Mt4Bt2,html-keyboard-response,75,668286,0.0-7.0-2.5-0.5-2.5,,,,,,,61017941304cf7ac38c2e110,15:51:42,15/01/2024
9593.300000011921,"<div class = numbox><p style=""font-size:2.5rem"">What were the numbers <b>in order</b>?<br>(When you are ready to lock in your answer, press <b>ENTER</b>)</p><button id = button_1 class = ""square num-button"" onclick = ""recordClick(this)""><div class = content><div class = numbers>1</div></div></button><button id = button_2 class = ""square num-button"" onclick = ""recordClick(this)""><div class = content><div class = numbers>2</div></div></button><button id = button_3 class = ""square num-button"" onclick = ""recordClick(this)""><div class = content><div class = numbers>3</div></div></button><button id = button_4 class = ""square num-button"" onclick = ""recordClick(this)""><div class = content><div class = numbers>4</div></div></button><button id = button_5 class = ""square num-button"" onclick = ""recordClick(this)""><div class = content><div class = numbers>5</div></div></button><button id = button_6 class = ""square num-button"" onclick = ""recordClick(this)""><div class = content><div class = numbers>6</div></div></button><button id = button_7 class = ""square num-button"" onclick = ""recordClick(this)""><div class = content><div class = numbers>7</div></div></button><button id = button_8 class = ""square num-button"" onclick = ""recordClick(this)""><div class = content><div class = numbers>8</div></div></button><button id = button_9 class = ""square num-button"" onclick = ""recordClick(this)""><div class = content><div class = numbers>9</div></div></button><button class = clear_button id = ""ClearButton"" onclick = ""clearResponse()"">Clear</button><p><u><b>Current Answer:</b></u></p><div id=echoed_txt style=""font-size: 6rem; color:blue;""><b></b></div></div><br><br><br><br><br><br><br>",enter,fwdspan,response,kkvdQEGzluePbbc71Hw706Mt4Bt2,html-keyboard-response,76,677881,0.0-7.0-2.5-0.5-3.5,8.0,"[7,1,4,3,9,8,5,6]","[7,1,4,3,9,8,5,6]",1.0,"[3, 4, 5, 6, 7, 8, 9, 9, 8, 8, 7, 7]",,61017941304cf7ac38c2e110,15:51:42,15/01/2024
,,,fwdspan,update_span,kkvdQEGzluePbbc71Hw706Mt4Bt2,call-function,77,678135,0.0-7.0-2.5-0.5-4.5,,,,,,,61017941304cf7ac38c2e110,15:51:42,15/01/2024
1300.0,"<p style=""font-size:3rem"">Trial 7 of 12</p><br><br><br>",0,fwdspan,start_trial,kkvdQEGzluePbbc71Hw706Mt4Bt2,html-button-response,78,679436,0.0-7.0-2.6-0.6-0.6,,,,,,,61017941304cf7ac38c2e110,15:51:42,15/01/2024
,"<p style=""font-size:14rem;font-weight:400;"">6</p>",,fwdspan,number,kkvdQEGzluePbbc71Hw706Mt4Bt2,html-keyboard-response,79,680443,0.0-7.0-2.6-0.6-1.33-0.33,,,,,,,61017941304cf7ac38c2e110,15:51:42,15/01/2024
,"<p style=""font-size:14rem;font-weight:400;"">8</p>",,fwdspan,number,kkvdQEGzluePbbc71Hw706Mt4Bt2,html-keyboard-response,80,681449,0.0-7.0-2.6-0.6-1.34-0.34,,,,,,,61017941304cf7ac38c2e110,15:51:42,15/01/2024
,"<p style=""font-size:14rem;font-weight:400;"">5</p>",,fwdspan,number,kkvdQEGzluePbbc71Hw706Mt4Bt2,html-keyboard-response,81,682454,0.0-7.0-2.6-0.6-1.35-0.35,,,,,,,61017941304cf7ac38c2e110,15:51:42,15/01/2024
,"<p style=""font-size:14rem;font-weight:400;"">9</p>",,fwdspan,number,kkvdQEGzluePbbc71Hw706Mt4Bt2,html-keyboard-response,82,683460,0.0-7.0-2.6-0.6-1.36-0.36,,,,,,,61017941304cf7ac38c2e110,15:51:42,15/01/2024
,"<p style=""font-size:14rem;font-weight:400;"">1</p>",,fwdspan,number,kkvdQEGzluePbbc71Hw706Mt4Bt2,html-keyboard-response,83,684467,0.0-7.0-2.6-0.6-1.37-0.37,,,,,,,61017941304cf7ac38c2e110,15:51:42,15/01/2024
,"<p style=""font-size:14rem;font-weight:400;"">4</p>",,fwdspan,number,kkvdQEGzluePbbc71Hw706Mt4Bt2,html-keyboard-response,84,685475,0.0-7.0-2.6-0.6-1.38-0.38,,,,,,,61017941304cf7ac38c2e110,15:51:42,15/01/2024
,"<p style=""font-size:14rem;font-weight:400;"">7</p>",,fwdspan,number,kkvdQEGzluePbbc71Hw706Mt4Bt2,html-keyboard-response,85,686485,0.0-7.0-2.6-0.6-1.39-0.39,,,,,,,61017941304cf7ac38c2e110,15:51:42,15/01/2024
,"<p style=""font-size:14rem;font-weight:400;"">2</p>",,fwdspan,number,kkvdQEGzluePbbc71Hw706Mt4Bt2,html-keyboard-response,86,687493,0.0-7.0-2.6-0.6-1.40-0.40,,,,,,,61017941304cf7ac38c2e110,15:51:42,15/01/2024
,"<p style=""font-size:14rem;font-weight:400;"">3</p>",,fwdspan,number,kkvdQEGzluePbbc71Hw706Mt4Bt2,html-keyboard-response,87,688501,0.0-7.0-2.6-0.6-1.41-0.41,,,,,,,61017941304cf7ac38c2e110,15:51:42,15/01/2024
,[],,fwdspan,delay,kkvdQEGzluePbbc71Hw706Mt4Bt2,html-keyboard-response,88,689059,0.0-7.0-2.6-0.6-2.6,,,,,,,61017941304cf7ac38c2e110,15:51:42,15/01/2024
10524.40000000596,"<div class = numbox><p style=""font-size:2.5rem"">What were the numbers <b>in order</b>?<br>(When you are ready to lock in your answer, press <b>ENTER</b>)</p><button id = button_1 class = ""square num-button"" onclick = ""recordClick(this)""><div class = content><div class = numbers>1</div></div></button><button id = button_2 class = ""square num-button"" onclick = ""recordClick(this)""><div class = content><div class = numbers>2</div></div></button><button id = button_3 class = ""square num-button"" onclick = ""recordClick(this)""><div class = content><div class = numbers>3</div></div></button><button id = button_4 class = ""square num-button"" onclick = ""recordClick(this)""><div class = content><div class = numbers>4</div></div></button><button id = button_5 class = ""square num-button"" onclick = ""recordClick(this)""><div class = content><div class = numbers>5</div></div></button><button id = button_6 class = ""square num-button"" onclick = ""recordClick(this)""><div class = content><div class = numbers>6</div></div></button><button id = button_7 class = ""square num-button"" onclick = ""recordClick(this)""><div class = content><div class = numbers>7</div></div></button><button id = button_8 class = ""square num-button"" onclick = ""recordClick(this)""><div class = content><div class = numbers>8</div></div></button><button id = button_9 class = ""square num-button"" onclick = ""recordClick(this)""><div class = content><div class = numbers>9</div></div></button><button class = clear_button id = ""ClearButton"" onclick = ""clearResponse()"">Clear</button><p><u><b>Current Answer:</b></u></p><div id=echoed_txt style=""font-size: 6rem; color:blue;""><b></b></div></div><br><br><br><br><br><br><br>",enter,fwdspan,response,kkvdQEGzluePbbc71Hw706Mt4Bt2,html-keyboard-response,89,699585,0.0-7.0-2.6-0.6-3.6,9.0,"[6,8,5,9,1,7,4,3]","[6,8,5,9,1,4,7,2,3]",0.0,"[3, 4, 5, 6, 7, 8, 9, 9, 8, 8, 7, 7]",,61017941304cf7ac38c2e110,15:51:42,15/01/2024
,,,fwdspan,update_span,kkvdQEGzluePbbc71Hw706Mt4Bt2,call-function,90,699842,0.0-7.0-2.6-0.6-4.6,,,,,,,61017941304cf7ac38c2e110,15:51:42,15/01/2024
1522.7999999821186,"<p style=""font-size:3rem"">Trial 8 of 12</p><br><br><br>",0,fwdspan,start_trial,kkvdQEGzluePbbc71Hw706Mt4Bt2,html-button-response,91,701372,0.0-7.0-2.7-0.7-0.7,,,,,,,61017941304cf7ac38c2e110,15:51:42,15/01/2024
,"<p style=""font-size:14rem;font-weight:400;"">7</p>",,fwdspan,number,kkvdQEGzluePbbc71Hw706Mt4Bt2,html-keyboard-response,92,702380,0.0-7.0-2.7-0.7-1.42-0.42,,,,,,,61017941304cf7ac38c2e110,15:51:42,15/01/2024
,"<p style=""font-size:14rem;font-weight:400;"">3</p>",,fwdspan,number,kkvdQEGzluePbbc71Hw706Mt4Bt2,html-keyboard-response,93,703391,0.0-7.0-2.7-0.7-1.43-0.43,,,,,,,61017941304cf7ac38c2e110,15:51:42,15/01/2024
,"<p style=""font-size:14rem;font-weight:400;"">8</p>",,fwdspan,number,kkvdQEGzluePbbc71Hw706Mt4Bt2,html-keyboard-response,94,704399,0.0-7.0-2.7-0.7-1.44-0.44,,,,,,,61017941304cf7ac38c2e110,15:51:42,15/01/2024
,"<p style=""font-size:14rem;font-weight:400;"">9</p>",,fwdspan,number,kkvdQEGzluePbbc71Hw706Mt4Bt2,html-keyboard-response,95,705410,0.0-7.0-2.7-0.7-1.45-0.45,,,,,,,61017941304cf7ac38c2e110,15:51:42,15/01/2024
,"<p style=""font-size:14rem;font-weight:400;"">6</p>",,fwdspan,number,kkvdQEGzluePbbc71Hw706Mt4Bt2,html-keyboard-response,96,706420,0.0-7.0-2.7-0.7-1.46-0.46,,,,,,,61017941304cf7ac38c2e110,15:51:42,15/01/2024
,"<p style=""font-size:14rem;font-weight:400;"">5</p>",,fwdspan,number,kkvdQEGzluePbbc71Hw706Mt4Bt2,html-keyboard-response,97,707431,0.0-7.0-2.7-0.7-1.47-0.47,,,,,,,61017941304cf7ac38c2e110,15:51:42,15/01/2024
,"<p style=""font-size:14rem;font-weight:400;"">4</p>",,fwdspan,number,kkvdQEGzluePbbc71Hw706Mt4Bt2,html-keyboard-response,98,708438,0.0-7.0-2.7-0.7-1.48-0.48,,,,,,,61017941304cf7ac38c2e110,15:51:42,15/01/2024
,"<p style=""font-size:14rem;font-weight:400;"">2</p>",,fwdspan,number,kkvdQEGzluePbbc71Hw706Mt4Bt2,html-keyboard-response,99,709450,0.0-7.0-2.7-0.7-1.49-0.49,,,,,,,61017941304cf7ac38c2e110,15:51:42,15/01/2024
,"<p style=""font-size:14rem;font-weight:400;"">1</p>",,fwdspan,number,kkvdQEGzluePbbc71Hw706Mt4Bt2,html-keyboard-response,100,710458,0.0-7.0-2.7-0.7-1.50-0.50,,,,,,,61017941304cf7ac38c2e110,15:51:42,15/01/2024
,[],,fwdspan,delay,kkvdQEGzluePbbc71Hw706Mt4Bt2,html-keyboard-response,101,711016,0.0-7.0-2.7-0.7-2.7,,,,,,,61017941304cf7ac38c2e110,15:51:42,15/01/2024
15000.300000011921,"<div class = numbox><p style=""font-size:2.5rem"">What were the numbers <b>in order</b>?<br>(When you are ready to lock in your answer, press <b>ENTER</b>)</p><button id = button_1 class = ""square num-button"" onclick = ""recordClick(this)""><div class = content><div class = numbers>1</div></div></button><button id = button_2 class = ""square num-button"" onclick = ""recordClick(this)""><div class = content><div class = numbers>2</div></div></button><button id = button_3 class = ""square num-button"" onclick = ""recordClick(this)""><div class = content><div class = numbers>3</div></div></button><button id = button_4 class = ""square num-button"" onclick = ""recordClick(this)""><div class = content><div class = numbers>4</div></div></button><button id = button_5 class = ""square num-button"" onclick = ""recordClick(this)""><div class = content><div class = numbers>5</div></div></button><button id = button_6 class = ""square num-button"" onclick = ""recordClick(this)""><div class = content><div class = numbers>6</div></div></button><button id = button_7 class = ""square num-button"" onclick = ""recordClick(this)""><div class = content><div class = numbers>7</div></div></button><button id = button_8 class = ""square num-button"" onclick = ""recordClick(this)""><div class = content><div class = numbers>8</div></div></button><button id = button_9 class = ""square num-button"" onclick = ""recordClick(this)""><div class = content><div class = numbers>9</div></div></button><button class = clear_button id = ""ClearButton"" onclick = ""clearResponse()"">Clear</button><p><u><b>Current Answer:</b></u></p><div id=echoed_txt style=""font-size: 6rem; color:blue;""><b></b></div></div><br><br><br><br><br><br><br>",enter,fwdspan,response,kkvdQEGzluePbbc71Hw706Mt4Bt2,html-keyboard-response,102,726018,0.0-7.0-2.7-0.7-3.7,9.0,"[7,3,8,5,9,4,2,1]","[7,3,8,9,6,5,4,2,1]",0.0,"[3, 4, 5, 6, 7, 8, 9, 9, 8, 8, 7, 7]",,61017941304cf7ac38c2e110,15:51:42,15/01/2024
,,,fwdspan,update_span,kkvdQEGzluePbbc71Hw706Mt4Bt2,call-function,103,726275,0.0-7.0-2.7-0.7-4.7,,,,,,,61017941304cf7ac38c2e110,15:51:42,15/01/2024
1098.5999999940395,"<p style=""font-size:3rem"">Trial 9 of 12</p><br><br><br>",0,fwdspan,start_trial,kkvdQEGzluePbbc71Hw706Mt4Bt2,html-button-response,104,727375,0.0-7.0-2.8-0.8-0.8,,,,,,,61017941304cf7ac38c2e110,15:51:42,15/01/2024
,"<p style=""font-size:14rem;font-weight:400;"">8</p>",,fwdspan,number,kkvdQEGzluePbbc71Hw706Mt4Bt2,html-keyboard-response,105,728382,0.0-7.0-2.8-0.8-1.51-0.51,,,,,,,61017941304cf7ac38c2e110,15:51:42,15/01/2024
,"<p style=""font-size:14rem;font-weight:400;"">3</p>",,fwdspan,number,kkvdQEGzluePbbc71Hw706Mt4Bt2,html-keyboard-response,106,729391,0.0-7.0-2.8-0.8-1.52-0.52,,,,,,,61017941304cf7ac38c2e110,15:51:42,15/01/2024
,"<p style=""font-size:14rem;font-weight:400;"">5</p>",,fwdspan,number,kkvdQEGzluePbbc71Hw706Mt4Bt2,html-keyboard-response,107,730400,0.0-7.0-2.8-0.8-1.53-0.53,,,,,,,61017941304cf7ac38c2e110,15:51:42,15/01/2024
,"<p style=""font-size:14rem;font-weight:400;"">1</p>",,fwdspan,number,kkvdQEGzluePbbc71Hw706Mt4Bt2,html-keyboard-response,108,731411,0.0-7.0-2.8-0.8-1.54-0.54,,,,,,,61017941304cf7ac38c2e110,15:51:42,15/01/2024
,"<p style=""font-size:14rem;font-weight:400;"">2</p>",,fwdspan,number,kkvdQEGzluePbbc71Hw706Mt4Bt2,html-keyboard-response,109,732416,0.0-7.0-2.8-0.8-1.55-0.55,,,,,,,61017941304cf7ac38c2e110,15:51:42,15/01/2024
,"<p style=""font-size:14rem;font-weight:400;"">7</p>",,fwdspan,number,kkvdQEGzluePbbc71Hw706Mt4Bt2,html-keyboard-response,110,733425,0.0-7.0-2.8-0.8-1.56-0.56,,,,,,,61017941304cf7ac38c2e110,15:51:42,15/01/2024
,"<p style=""font-size:14rem;font-weight:400;"">6</p>",,fwdspan,number,kkvdQEGzluePbbc71Hw706Mt4Bt2,html-keyboard-response,111,734434,0.0-7.0-2.8-0.8-1.57-0.57,,,,,,,61017941304cf7ac38c2e110,15:51:42,15/01/2024
,"<p style=""font-size:14rem;font-weight:400;"">9</p>",,fwdspan,number,kkvdQEGzluePbbc71Hw706Mt4Bt2,html-keyboard-response,112,735437,0.0-7.0-2.8-0.8-1.58-0.58,,,,,,,61017941304cf7ac38c2e110,15:51:42,15/01/2024
,[],,fwdspan,delay,kkvdQEGzluePbbc71Hw706Mt4Bt2,html-keyboard-response,113,735996,0.0-7.0-2.8-0.8-2.8,,,,,,,61017941304cf7ac38c2e110,15:51:42,15/01/2024
11645.100000023842,"<div class = numbox><p style=""font-size:2.5rem"">What were the numbers <b>in order</b>?<br>(When you are ready to lock in your answer, press <b>ENTER</b>)</p><button id = button_1 class = ""square num-button"" onclick = ""recordClick(this)""><div class = content><div class = numbers>1</div></div></button><button id = button_2 class = ""square num-button"" onclick = ""recordClick(this)""><div class = content><div class = numbers>2</div></div></button><button id = button_3 class = ""square num-button"" onclick = ""recordClick(this)""><div class = content><div class = numbers>3</div></div></button><button id = button_4 class = ""square num-button"" onclick = ""recordClick(this)""><div class = content><div class = numbers>4</div></div></button><button id = button_5 class = ""square num-button"" onclick = ""recordClick(this)""><div class = content><div class = numbers>5</div></div></button><button id = button_6 class = ""square num-button"" onclick = ""recordClick(this)""><div class = content><div class = numbers>6</div></div></button><button id = button_7 class = ""square num-button"" onclick = ""recordClick(this)""><div class = content><div class = numbers>7</div></div></button><button id = button_8 class = ""square num-button"" onclick = ""recordClick(this)""><div class = content><div class = numbers>8</div></div></button><button id = button_9 class = ""square num-button"" onclick = ""recordClick(this)""><div class = content><div class = numbers>9</div></div></button><button class = clear_button id = ""ClearButton"" onclick = ""clearResponse()"">Clear</button><p><u><b>Current Answer:</b></u></p><div id=echoed_txt style=""font-size: 6rem; color:blue;""><b></b></div></div><br><br><br><br><br><br><br>",enter,fwdspan,response,kkvdQEGzluePbbc71Hw706Mt4Bt2,html-keyboard-response,114,747643,0.0-7.0-2.8-0.8-3.8,8.0,"[8,3,5,9,7,6,1]","[8,3,5,1,2,7,6,9]",0.0,"[3, 4, 5, 6, 7, 8, 9, 9, 8, 8, 7, 7]",,61017941304cf7ac38c2e110,15:51:42,15/01/2024
,,,fwdspan,update_span,kkvdQEGzluePbbc71Hw706Mt4Bt2,call-function,115,747899,0.0-7.0-2.8-0.8-4.8,,,,,,,61017941304cf7ac38c2e110,15:51:42,15/01/2024
19205.09999999404,"<p style=""font-size:3rem"">Trial 10 of 12</p><br><br><br>",0,fwdspan,start_trial,kkvdQEGzluePbbc71Hw706Mt4Bt2,html-button-response,116,767106,0.0-7.0-2.9-0.9-0.9,,,,,,,61017941304cf7ac38c2e110,15:51:42,15/01/2024
,"<p style=""font-size:14rem;font-weight:400;"">5</p>",,fwdspan,number,kkvdQEGzluePbbc71Hw706Mt4Bt2,html-keyboard-response,117,768109,0.0-7.0-2.9-0.9-1.59-0.59,,,,,,,61017941304cf7ac38c2e110,15:51:42,15/01/2024
,"<p style=""font-size:14rem;font-weight:400;"">7</p>",,fwdspan,number,kkvdQEGzluePbbc71Hw706Mt4Bt2,html-keyboard-response,118,769112,0.0-7.0-2.9-0.9-1.60-0.60,,,,,,,61017941304cf7ac38c2e110,15:51:42,15/01/2024
,"<p style=""font-size:14rem;font-weight:400;"">4</p>",,fwdspan,number,kkvdQEGzluePbbc71Hw706Mt4Bt2,html-keyboard-response,119,770121,0.0-7.0-2.9-0.9-1.61-0.61,,,,,,,61017941304cf7ac38c2e110,15:51:42,15/01/2024
,"<p style=""font-size:14rem;font-weight:400;"">2</p>",,fwdspan,number,kkvdQEGzluePbbc71Hw706Mt4Bt2,html-keyboard-response,120,771126,0.0-7.0-2.9-0.9-1.62-0.62,,,,,,,61017941304cf7ac38c2e110,15:51:42,15/01/2024
,"<p style=""font-size:14rem;font-weight:400;"">1</p>",,fwdspan,number,kkvdQEGzluePbbc71Hw706Mt4Bt2,html-keyboard-response,121,772129,0.0-7.0-2.9-0.9-1.63-0.63,,,,,,,61017941304cf7ac38c2e110,15:51:42,15/01/2024
,"<p style=""font-size:14rem;font-weight:400;"">9</p>",,fwdspan,number,kkvdQEGzluePbbc71Hw706Mt4Bt2,html-keyboard-response,122,773134,0.0-7.0-2.9-0.9-1.64-0.64,,,,,,,61017941304cf7ac38c2e110,15:51:42,15/01/2024
,"<p style=""font-size:14rem;font-weight:400;"">3</p>",,fwdspan,number,kkvdQEGzluePbbc71Hw706Mt4Bt2,html-keyboard-response,123,774137,0.0-7.0-2.9-0.9-1.65-0.65,,,,,,,61017941304cf7ac38c2e110,15:51:42,15/01/2024
,"<p style=""font-size:14rem;font-weight:400;"">8</p>",,fwdspan,number,kkvdQEGzluePbbc71Hw706Mt4Bt2,html-keyboard-response,124,775142,0.0-7.0-2.9-0.9-1.66-0.66,,,,,,,61017941304cf7ac38c2e110,15:51:42,15/01/2024
,[],,fwdspan,delay,kkvdQEGzluePbbc71Hw706Mt4Bt2,html-keyboard-response,125,775694,0.0-7.0-2.9-0.9-2.9,,,,,,,61017941304cf7ac38c2e110,15:51:42,15/01/2024
7363.9000000059605,"<div class = numbox><p style=""font-size:2.5rem"">What were the numbers <b>in order</b>?<br>(When you are ready to lock in your answer, press <b>ENTER</b>)</p><button id = button_1 class = ""square num-button"" onclick = ""recordClick(this)""><div class = content><div class = numbers>1</div></div></button><button id = button_2 class = ""square num-button"" onclick = ""recordClick(this)""><div class = content><div class = numbers>2</div></div></button><button id = button_3 class = ""square num-button"" onclick = ""recordClick(this)""><div class = content><div class = numbers>3</div></div></button><button id = button_4 class = ""square num-button"" onclick = ""recordClick(this)""><div class = content><div class = numbers>4</div></div></button><button id = button_5 class = ""square num-button"" onclick = ""recordClick(this)""><div class = content><div class = numbers>5</div></div></button><button id = button_6 class = ""square num-button"" onclick = ""recordClick(this)""><div class = content><div class = numbers>6</div></div></button><button id = button_7 class = ""square num-button"" onclick = ""recordClick(this)""><div class = content><div class = numbers>7</div></div></button><button id = button_8 class = ""square num-button"" onclick = ""recordClick(this)""><div class = content><div class = numbers>8</div></div></button><button id = button_9 class = ""square num-button"" onclick = ""recordClick(this)""><div class = content><div class = numbers>9</div></div></button><button class = clear_button id = ""ClearButton"" onclick = ""clearResponse()"">Clear</button><p><u><b>Current Answer:</b></u></p><div id=echoed_txt style=""font-size: 6rem; color:blue;""><b></b></div></div><br><br><br><br><br><br><br>",enter,fwdspan,response,kkvdQEGzluePbbc71Hw706Mt4Bt2,html-keyboard-response,126,783059,0.0-7.0-2.9-0.9-3.9,8.0,"[5,7,1,9,4,3,2,8]","[5,7,4,2,1,9,3,8]",0.0,"[3, 4, 5, 6, 7, 8, 9, 9, 8, 8, 7, 7]",,61017941304cf7ac38c2e110,15:51:42,15/01/2024
,,,fwdspan,update_span,kkvdQEGzluePbbc71Hw706Mt4Bt2,call-function,127,783311,0.0-7.0-2.9-0.9-4.9,,,,,,,61017941304cf7ac38c2e110,15:51:42,15/01/2024
1164.0,"<p style=""font-size:3rem"">Trial 11 of 12</p><br><br><br>",0,fwdspan,start_trial,kkvdQEGzluePbbc71Hw706Mt4Bt2,html-button-response,128,784476,0.0-7.0-2.10-0.10-0.10,,,,,,,61017941304cf7ac38c2e110,15:51:42,15/01/2024
,"<p style=""font-size:14rem;font-weight:400;"">7</p>",,fwdspan,number,kkvdQEGzluePbbc71Hw706Mt4Bt2,html-keyboard-response,129,785478,0.0-7.0-2.10-0.10-1.67-0.67,,,,,,,61017941304cf7ac38c2e110,15:51:42,15/01/2024
,"<p style=""font-size:14rem;font-weight:400;"">5</p>",,fwdspan,number,kkvdQEGzluePbbc71Hw706Mt4Bt2,html-keyboard-response,130,786488,0.0-7.0-2.10-0.10-1.68-0.68,,,,,,,61017941304cf7ac38c2e110,15:51:42,15/01/2024
,"<p style=""font-size:14rem;font-weight:400;"">8</p>",,fwdspan,number,kkvdQEGzluePbbc71Hw706Mt4Bt2,html-keyboard-response,131,787491,0.0-7.0-2.10-0.10-1.69-0.69,,,,,,,61017941304cf7ac38c2e110,15:51:42,15/01/2024
,"<p style=""font-size:14rem;font-weight:400;"">3</p>",,fwdspan,number,kkvdQEGzluePbbc71Hw706Mt4Bt2,html-keyboard-response,132,788499,0.0-7.0-2.10-0.10-1.70-0.70,,,,,,,61017941304cf7ac38c2e110,15:51:42,15/01/2024
,"<p style=""font-size:14rem;font-weight:400;"">6</p>",,fwdspan,number,kkvdQEGzluePbbc71Hw706Mt4Bt2,html-keyboard-response,133,789503,0.0-7.0-2.10-0.10-1.71-0.71,,,,,,,61017941304cf7ac38c2e110,15:51:42,15/01/2024
,"<p style=""font-size:14rem;font-weight:400;"">9</p>",,fwdspan,number,kkvdQEGzluePbbc71Hw706Mt4Bt2,html-keyboard-response,134,790505,0.0-7.0-2.10-0.10-1.72-0.72,,,,,,,61017941304cf7ac38c2e110,15:51:42,15/01/2024
,"<p style=""font-size:14rem;font-weight:400;"">1</p>",,fwdspan,number,kkvdQEGzluePbbc71Hw706Mt4Bt2,html-keyboard-response,135,791509,0.0-7.0-2.10-0.10-1.73-0.73,,,,,,,61017941304cf7ac38c2e110,15:51:42,15/01/2024
,[],,fwdspan,delay,kkvdQEGzluePbbc71Hw706Mt4Bt2,html-keyboard-response,136,792064,0.0-7.0-2.10-0.10-2.10,,,,,,,61017941304cf7ac38c2e110,15:51:42,15/01/2024
6931.800000011921,"<div class = numbox><p style=""font-size:2.5rem"">What were the numbers <b>in order</b>?<br>(When you are ready to lock in your answer, press <b>ENTER</b>)</p><button id = button_1 class = ""square num-button"" onclick = ""recordClick(this)""><div class = content><div class = numbers>1</div></div></button><button id = button_2 class = ""square num-button"" onclick = ""recordClick(this)""><div class = content><div class = numbers>2</div></div></button><button id = button_3 class = ""square num-button"" onclick = ""recordClick(this)""><div class = content><div class = numbers>3</div></div></button><button id = button_4 class = ""square num-button"" onclick = ""recordClick(this)""><div class = content><div class = numbers>4</div></div></button><button id = button_5 class = ""square num-button"" onclick = ""recordClick(this)""><div class = content><div class = numbers>5</div></div></button><button id = button_6 class = ""square num-button"" onclick = ""recordClick(this)""><div class = content><div class = numbers>6</div></div></button><button id = button_7 class = ""square num-button"" onclick = ""recordClick(this)""><div class = content><div class = numbers>7</div></div></button><button id = button_8 class = ""square num-button"" onclick = ""recordClick(this)""><div class = content><div class = numbers>8</div></div></button><button id = button_9 class = ""square num-button"" onclick = ""recordClick(this)""><div class = content><div class = numbers>9</div></div></button><button class = clear_button id = ""ClearButton"" onclick = ""clearResponse()"">Clear</button><p><u><b>Current Answer:</b></u></p><div id=echoed_txt style=""font-size: 6rem; color:blue;""><b></b></div></div><br><br><br><br><br><br><br>",enter,fwdspan,response,kkvdQEGzluePbbc71Hw706Mt4Bt2,html-keyboard-response,137,798997,0.0-7.0-2.10-0.10-3.10,7.0,"[7,5,8,3,6,9,2,1]","[7,5,8,3,6,9,1]",0.0,"[3, 4, 5, 6, 7, 8, 9, 9, 8, 8, 7, 7]",,61017941304cf7ac38c2e110,15:51:42,15/01/2024
,,,fwdspan,update_span,kkvdQEGzluePbbc71Hw706Mt4Bt2,call-function,138,799253,0.0-7.0-2.10-0.10-4.10,,,,,,,61017941304cf7ac38c2e110,15:51:42,15/01/2024
1346.300000011921,"<p style=""font-size:3rem"">Trial 12 of 12</p><br><br><br>",0,fwdspan,start_trial,kkvdQEGzluePbbc71Hw706Mt4Bt2,html-button-response,139,800600,0.0-7.0-2.11-0.11-0.11,,,,,,,61017941304cf7ac38c2e110,15:51:42,15/01/2024
,"<p style=""font-size:14rem;font-weight:400;"">3</p>",,fwdspan,number,kkvdQEGzluePbbc71Hw706Mt4Bt2,html-keyboard-response,140,801610,0.0-7.0-2.11-0.11-1.74-0.74,,,,,,,61017941304cf7ac38c2e110,15:51:42,15/01/2024
,"<p style=""font-size:14rem;font-weight:400;"">4</p>",,fwdspan,number,kkvdQEGzluePbbc71Hw706Mt4Bt2,html-keyboard-response,141,802614,0.0-7.0-2.11-0.11-1.75-0.75,,,,,,,61017941304cf7ac38c2e110,15:51:42,15/01/2024
,"<p style=""font-size:14rem;font-weight:400;"">2</p>",,fwdspan,number,kkvdQEGzluePbbc71Hw706Mt4Bt2,html-keyboard-response,142,803621,0.0-7.0-2.11-0.11-1.76-0.76,,,,,,,61017941304cf7ac38c2e110,15:51:42,15/01/2024
,"<p style=""font-size:14rem;font-weight:400;"">6</p>",,fwdspan,number,kkvdQEGzluePbbc71Hw706Mt4Bt2,html-keyboard-response,143,804626,0.0-7.0-2.11-0.11-1.77-0.77,,,,,,,61017941304cf7ac38c2e110,15:51:42,15/01/2024
,"<p style=""font-size:14rem;font-weight:400;"">7</p>",,fwdspan,number,kkvdQEGzluePbbc71Hw706Mt4Bt2,html-keyboard-response,144,805633,0.0-7.0-2.11-0.11-1.78-0.78,,,,,,,61017941304cf7ac38c2e110,15:51:42,15/01/2024
,"<p style=""font-size:14rem;font-weight:400;"">1</p>",,fwdspan,number,kkvdQEGzluePbbc71Hw706Mt4Bt2,html-keyboard-response,145,806639,0.0-7.0-2.11-0.11-1.79-0.79,,,,,,,61017941304cf7ac38c2e110,15:51:42,15/01/2024
,"<p style=""font-size:14rem;font-weight:400;"">8</p>",,fwdspan,number,kkvdQEGzluePbbc71Hw706Mt4Bt2,html-keyboard-response,146,807646,0.0-7.0-2.11-0.11-1.80-0.80,,,,,,,61017941304cf7ac38c2e110,15:51:42,15/01/2024
,[],,fwdspan,delay,kkvdQEGzluePbbc71Hw706Mt4Bt2,html-keyboard-response,147,808208,0.0-7.0-2.11-0.11-2.11,,,,,,,61017941304cf7ac38c2e110,15:51:42,15/01/2024
6435.4000000059605,"<div class = numbox><p style=""font-size:2.5rem"">What were the numbers <b>in order</b>?<br>(When you are ready to lock in your answer, press <b>ENTER</b>)</p><button id = button_1 class = ""square num-button"" onclick = ""recordClick(this)""><div class = content><div class = numbers>1</div></div></button><button id = button_2 class = ""square num-button"" onclick = ""recordClick(this)""><div class = content><div class = numbers>2</div></div></button><button id = button_3 class = ""square num-button"" onclick = ""recordClick(this)""><div class = content><div class = numbers>3</div></div></button><button id = button_4 class = ""square num-button"" onclick = ""recordClick(this)""><div class = content><div class = numbers>4</div></div></button><button id = button_5 class = ""square num-button"" onclick = ""recordClick(this)""><div class = content><div class = numbers>5</div></div></button><button id = button_6 class = ""square num-button"" onclick = ""recordClick(this)""><div class = content><div class = numbers>6</div></div></button><button id = button_7 class = ""square num-button"" onclick = ""recordClick(this)""><div class = content><div class = numbers>7</div></div></button><button id = button_8 class = ""square num-button"" onclick = ""recordClick(this)""><div class = content><div class = numbers>8</div></div></button><button id = button_9 class = ""square num-button"" onclick = ""recordClick(this)""><div class = content><div class = numbers>9</div></div></button><button class = clear_button id = ""ClearButton"" onclick = ""clearResponse()"">Clear</button><p><u><b>Current Answer:</b></u></p><div id=echoed_txt style=""font-size: 6rem; color:blue;""><b></b></div></div><br><br><br><br><br><br><br>",enter,fwdspan,response,kkvdQEGzluePbbc71Hw706Mt4Bt2,html-keyboard-response,148,814644,0.0-7.0-2.11-0.11-3.11,7.0,"[3,4,2,6,7,1,8]","[3,4,2,6,7,1,8]",1.0,"[3, 4, 5, 6, 7, 8, 9, 9, 8, 8, 7, 7]",,61017941304cf7ac38c2e110,15:51:42,15/01/2024
,,,fwdspan,update_span,kkvdQEGzluePbbc71Hw706Mt4Bt2,call-function,149,814900,0.0-7.0-2.11-0.11-4.11,,,,,,,61017941304cf7ac38c2e110,15:51:42,15/01/2024
22824.19999998808,,{'Q0': 'I enjoyed keeping the numbers in my head and testing my memory.'},fwdspan,survey,kkvdQEGzluePbbc71Hw706Mt4Bt2,lmdlab-survey-text,150,838482,0.0-7.0-3.0,,,,,,kkvdQEGzluePbbc71Hw706Mt4Bt2,61017941304cf7ac38c2e110,15:51:42,15/01/2024
2294.4000000059605,<p><p style='font-size: 3rem'>Great work!<br><br>This completes the digit span task.</p><br><br><br>,0,fwdspan,finish,kkvdQEGzluePbbc71Hw706Mt4Bt2,html-button-response,151,840781,0.0-7.0-4.0,,,,,,,61017941304cf7ac38c2e110,15:51:42,15/01/2024
