rt,stimulus,response,exp_name,exp_stage,subjectID,trial_type,trial_index,time_elapsed,internal_node_id,span,answer,correct,correct_full,span_history,databaseID,prolificID,start_time,date
18143.0,"<p style=""font-size:4rem""><br><br>In the next part today, we have a completely different short task.<br><br><br>This part involves keeping numbers in you mind. Participation takes around 5 minutes.<br><br><br></p>",0,fwdspan,instruct,KOMu6UQ4YmOBUUArf2GeRCgJFce2,html-button-response,19,296928,0.0-7.0-0.0,,,,,,,62909d7551844220ac3125a5,12:56:54,15/01/2024
7404.5999999996275,"<p style=""font-size:5rem"">Welcome to the <b>digit span task</b>!<br><br></p><p style=""font-size:3.4rem""><br>On each trial, you will see a sequence of digits, followed by a delay.</p><p style=""font-size:3.4rem""><br>Then you will be asked to type them back in the same order in which they were seen.</p><p style=""font-size:3.4rem""><br><br><br>For example, if you saw the digits <b style=""color:blue;"">1</b>, <b style=""color:blue;"">2</b>, <b style=""color:blue;"">3</b>, you would respond with <b style=""color:blue;"">1</b>, <b style=""color:blue;"">2</b>, <b style=""color:blue;"">3</b></p><p style=""font-size:3.4rem""><br><br><br>To ensure the best measure of true performance for our study,<br><br>it is very important that you do not use any memory aid (e.g., pen and paper).<br><br>Please do the task solely in your head.</p><p style=""font-size:3.4rem""><br><br><br>There will be 12 total trials. Participation takes around 5 minutes.</p><br><br><br>",0,fwdspan,instruct,KOMu6UQ4YmOBUUArf2GeRCgJFce2,html-button-response,20,304337,0.0-7.0-1.0,,,,,,,62909d7551844220ac3125a5,12:56:54,15/01/2024
1260.0,"<p style=""font-size:3rem"">Trial 1 of 12</p><br><br><br>",0,fwdspan,start_trial,KOMu6UQ4YmOBUUArf2GeRCgJFce2,html-button-response,21,305601,0.0-7.0-2.0-0.0-0.0,,,,,,,62909d7551844220ac3125a5,12:56:54,15/01/2024
,"<p style=""font-size:14rem;font-weight:400;"">5</p>",,fwdspan,number,KOMu6UQ4YmOBUUArf2GeRCgJFce2,html-keyboard-response,22,306607,0.0-7.0-2.0-0.0-1.0-0.0,,,,,,,62909d7551844220ac3125a5,12:56:54,15/01/2024
,"<p style=""font-size:14rem;font-weight:400;"">4</p>",,fwdspan,number,KOMu6UQ4YmOBUUArf2GeRCgJFce2,html-keyboard-response,23,307616,0.0-7.0-2.0-0.0-1.1-0.1,,,,,,,62909d7551844220ac3125a5,12:56:54,15/01/2024
,"<p style=""font-size:14rem;font-weight:400;"">8</p>",,fwdspan,number,KOMu6UQ4YmOBUUArf2GeRCgJFce2,html-keyboard-response,24,308621,0.0-7.0-2.0-0.0-1.2-0.2,,,,,,,62909d7551844220ac3125a5,12:56:54,15/01/2024
,[],,fwdspan,delay,KOMu6UQ4YmOBUUArf2GeRCgJFce2,html-keyboard-response,25,309178,0.0-7.0-2.0-0.0-2.0,,,,,,,62909d7551844220ac3125a5,12:56:54,15/01/2024
4676.5,"<div class = numbox><p style=""font-size:2.5rem"">What were the numbers <b>in order</b>?<br>(When you are ready to lock in your answer, press <b>ENTER</b>)</p><button id = button_1 class = ""square num-button"" onclick = ""recordClick(this)""><div class = content><div class = numbers>1</div></div></button><button id = button_2 class = ""square num-button"" onclick = ""recordClick(this)""><div class = content><div class = numbers>2</div></div></button><button id = button_3 class = ""square num-button"" onclick = ""recordClick(this)""><div class = content><div class = numbers>3</div></div></button><button id = button_4 class = ""square num-button"" onclick = ""recordClick(this)""><div class = content><div class = numbers>4</div></div></button><button id = button_5 class = ""square num-button"" onclick = ""recordClick(this)""><div class = content><div class = numbers>5</div></div></button><button id = button_6 class = ""square num-button"" onclick = ""recordClick(this)""><div class = content><div class = numbers>6</div></div></button><button id = button_7 class = ""square num-button"" onclick = ""recordClick(this)""><div class = content><div class = numbers>7</div></div></button><button id = button_8 class = ""square num-button"" onclick = ""recordClick(this)""><div class = content><div class = numbers>8</div></div></button><button id = button_9 class = ""square num-button"" onclick = ""recordClick(this)""><div class = content><div class = numbers>9</div></div></button><button class = clear_button id = ""ClearButton"" onclick = ""clearResponse()"">Clear</button><p><u><b>Current Answer:</b></u></p><div id=echoed_txt style=""font-size: 6rem; color:blue;""><b></b></div></div><br><br><br><br><br><br><br>",enter,fwdspan,response,KOMu6UQ4YmOBUUArf2GeRCgJFce2,html-keyboard-response,26,313857,0.0-7.0-2.0-0.0-3.0,3.0,"[5,4,8]","[5,4,8]",1.0,"[3, 4, 5, 6, 7, 8, 9, 9, 8, 9, 9, 8]",,62909d7551844220ac3125a5,12:56:54,15/01/2024
,,,fwdspan,update_span,KOMu6UQ4YmOBUUArf2GeRCgJFce2,call-function,27,314112,0.0-7.0-2.0-0.0-4.0,,,,,,,62909d7551844220ac3125a5,12:56:54,15/01/2024
1388.9000000003725,"<p style=""font-size:3rem"">Trial 2 of 12</p><br><br><br>",0,fwdspan,start_trial,KOMu6UQ4YmOBUUArf2GeRCgJFce2,html-button-response,28,315503,0.0-7.0-2.1-0.1-0.1,,,,,,,62909d7551844220ac3125a5,12:56:54,15/01/2024
,"<p style=""font-size:14rem;font-weight:400;"">8</p>",,fwdspan,number,KOMu6UQ4YmOBUUArf2GeRCgJFce2,html-keyboard-response,29,316506,0.0-7.0-2.1-0.1-1.3-0.3,,,,,,,62909d7551844220ac3125a5,12:56:54,15/01/2024
,"<p style=""font-size:14rem;font-weight:400;"">7</p>",,fwdspan,number,KOMu6UQ4YmOBUUArf2GeRCgJFce2,html-keyboard-response,30,317511,0.0-7.0-2.1-0.1-1.4-0.4,,,,,,,62909d7551844220ac3125a5,12:56:54,15/01/2024
,"<p style=""font-size:14rem;font-weight:400;"">3</p>",,fwdspan,number,KOMu6UQ4YmOBUUArf2GeRCgJFce2,html-keyboard-response,31,318516,0.0-7.0-2.1-0.1-1.5-0.5,,,,,,,62909d7551844220ac3125a5,12:56:54,15/01/2024
,"<p style=""font-size:14rem;font-weight:400;"">5</p>",,fwdspan,number,KOMu6UQ4YmOBUUArf2GeRCgJFce2,html-keyboard-response,32,319524,0.0-7.0-2.1-0.1-1.6-0.6,,,,,,,62909d7551844220ac3125a5,12:56:54,15/01/2024
,[],,fwdspan,delay,KOMu6UQ4YmOBUUArf2GeRCgJFce2,html-keyboard-response,33,320081,0.0-7.0-2.1-0.1-2.1,,,,,,,62909d7551844220ac3125a5,12:56:54,15/01/2024
3549.2000000011176,"<div class = numbox><p style=""font-size:2.5rem"">What were the numbers <b>in order</b>?<br>(When you are ready to lock in your answer, press <b>ENTER</b>)</p><button id = button_1 class = ""square num-button"" onclick = ""recordClick(this)""><div class = content><div class = numbers>1</div></div></button><button id = button_2 class = ""square num-button"" onclick = ""recordClick(this)""><div class = content><div class = numbers>2</div></div></button><button id = button_3 class = ""square num-button"" onclick = ""recordClick(this)""><div class = content><div class = numbers>3</div></div></button><button id = button_4 class = ""square num-button"" onclick = ""recordClick(this)""><div class = content><div class = numbers>4</div></div></button><button id = button_5 class = ""square num-button"" onclick = ""recordClick(this)""><div class = content><div class = numbers>5</div></div></button><button id = button_6 class = ""square num-button"" onclick = ""recordClick(this)""><div class = content><div class = numbers>6</div></div></button><button id = button_7 class = ""square num-button"" onclick = ""recordClick(this)""><div class = content><div class = numbers>7</div></div></button><button id = button_8 class = ""square num-button"" onclick = ""recordClick(this)""><div class = content><div class = numbers>8</div></div></button><button id = button_9 class = ""square num-button"" onclick = ""recordClick(this)""><div class = content><div class = numbers>9</div></div></button><button class = clear_button id = ""ClearButton"" onclick = ""clearResponse()"">Clear</button><p><u><b>Current Answer:</b></u></p><div id=echoed_txt style=""font-size: 6rem; color:blue;""><b></b></div></div><br><br><br><br><br><br><br>",enter,fwdspan,response,KOMu6UQ4YmOBUUArf2GeRCgJFce2,html-keyboard-response,34,323632,0.0-7.0-2.1-0.1-3.1,4.0,"[8,7,3,5]","[8,7,3,5]",1.0,"[3, 4, 5, 6, 7, 8, 9, 9, 8, 9, 9, 8]",,62909d7551844220ac3125a5,12:56:54,15/01/2024
,,,fwdspan,update_span,KOMu6UQ4YmOBUUArf2GeRCgJFce2,call-function,35,323886,0.0-7.0-2.1-0.1-4.1,,,,,,,62909d7551844220ac3125a5,12:56:54,15/01/2024
1181.4000000003725,"<p style=""font-size:3rem"">Trial 3 of 12</p><br><br><br>",0,fwdspan,start_trial,KOMu6UQ4YmOBUUArf2GeRCgJFce2,html-button-response,36,325069,0.0-7.0-2.2-0.2-0.2,,,,,,,62909d7551844220ac3125a5,12:56:54,15/01/2024
,"<p style=""font-size:14rem;font-weight:400;"">5</p>",,fwdspan,number,KOMu6UQ4YmOBUUArf2GeRCgJFce2,html-keyboard-response,37,326075,0.0-7.0-2.2-0.2-1.7-0.7,,,,,,,62909d7551844220ac3125a5,12:56:54,15/01/2024
,"<p style=""font-size:14rem;font-weight:400;"">9</p>",,fwdspan,number,KOMu6UQ4YmOBUUArf2GeRCgJFce2,html-keyboard-response,38,327080,0.0-7.0-2.2-0.2-1.8-0.8,,,,,,,62909d7551844220ac3125a5,12:56:54,15/01/2024
,"<p style=""font-size:14rem;font-weight:400;"">4</p>",,fwdspan,number,KOMu6UQ4YmOBUUArf2GeRCgJFce2,html-keyboard-response,39,328085,0.0-7.0-2.2-0.2-1.9-0.9,,,,,,,62909d7551844220ac3125a5,12:56:54,15/01/2024
,"<p style=""font-size:14rem;font-weight:400;"">7</p>",,fwdspan,number,KOMu6UQ4YmOBUUArf2GeRCgJFce2,html-keyboard-response,40,329092,0.0-7.0-2.2-0.2-1.10-0.10,,,,,,,62909d7551844220ac3125a5,12:56:54,15/01/2024
,"<p style=""font-size:14rem;font-weight:400;"">6</p>",,fwdspan,number,KOMu6UQ4YmOBUUArf2GeRCgJFce2,html-keyboard-response,41,330102,0.0-7.0-2.2-0.2-1.11-0.11,,,,,,,62909d7551844220ac3125a5,12:56:54,15/01/2024
,[],,fwdspan,delay,KOMu6UQ4YmOBUUArf2GeRCgJFce2,html-keyboard-response,42,330658,0.0-7.0-2.2-0.2-2.2,,,,,,,62909d7551844220ac3125a5,12:56:54,15/01/2024
5823.299999998882,"<div class = numbox><p style=""font-size:2.5rem"">What were the numbers <b>in order</b>?<br>(When you are ready to lock in your answer, press <b>ENTER</b>)</p><button id = button_1 class = ""square num-button"" onclick = ""recordClick(this)""><div class = content><div class = numbers>1</div></div></button><button id = button_2 class = ""square num-button"" onclick = ""recordClick(this)""><div class = content><div class = numbers>2</div></div></button><button id = button_3 class = ""square num-button"" onclick = ""recordClick(this)""><div class = content><div class = numbers>3</div></div></button><button id = button_4 class = ""square num-button"" onclick = ""recordClick(this)""><div class = content><div class = numbers>4</div></div></button><button id = button_5 class = ""square num-button"" onclick = ""recordClick(this)""><div class = content><div class = numbers>5</div></div></button><button id = button_6 class = ""square num-button"" onclick = ""recordClick(this)""><div class = content><div class = numbers>6</div></div></button><button id = button_7 class = ""square num-button"" onclick = ""recordClick(this)""><div class = content><div class = numbers>7</div></div></button><button id = button_8 class = ""square num-button"" onclick = ""recordClick(this)""><div class = content><div class = numbers>8</div></div></button><button id = button_9 class = ""square num-button"" onclick = ""recordClick(this)""><div class = content><div class = numbers>9</div></div></button><button class = clear_button id = ""ClearButton"" onclick = ""clearResponse()"">Clear</button><p><u><b>Current Answer:</b></u></p><div id=echoed_txt style=""font-size: 6rem; color:blue;""><b></b></div></div><br><br><br><br><br><br><br>",enter,fwdspan,response,KOMu6UQ4YmOBUUArf2GeRCgJFce2,html-keyboard-response,43,336484,0.0-7.0-2.2-0.2-3.2,5.0,"[5,9,4,7,6]","[5,9,4,7,6]",1.0,"[3, 4, 5, 6, 7, 8, 9, 9, 8, 9, 9, 8]",,62909d7551844220ac3125a5,12:56:54,15/01/2024
,,,fwdspan,update_span,KOMu6UQ4YmOBUUArf2GeRCgJFce2,call-function,44,336739,0.0-7.0-2.2-0.2-4.2,,,,,,,62909d7551844220ac3125a5,12:56:54,15/01/2024
1372.0,"<p style=""font-size:3rem"">Trial 4 of 12</p><br><br><br>",0,fwdspan,start_trial,KOMu6UQ4YmOBUUArf2GeRCgJFce2,html-button-response,45,338113,0.0-7.0-2.3-0.3-0.3,,,,,,,62909d7551844220ac3125a5,12:56:54,15/01/2024
,"<p style=""font-size:14rem;font-weight:400;"">6</p>",,fwdspan,number,KOMu6UQ4YmOBUUArf2GeRCgJFce2,html-keyboard-response,46,339119,0.0-7.0-2.3-0.3-1.12-0.12,,,,,,,62909d7551844220ac3125a5,12:56:54,15/01/2024
,"<p style=""font-size:14rem;font-weight:400;"">7</p>",,fwdspan,number,KOMu6UQ4YmOBUUArf2GeRCgJFce2,html-keyboard-response,47,340125,0.0-7.0-2.3-0.3-1.13-0.13,,,,,,,62909d7551844220ac3125a5,12:56:54,15/01/2024
,"<p style=""font-size:14rem;font-weight:400;"">2</p>",,fwdspan,number,KOMu6UQ4YmOBUUArf2GeRCgJFce2,html-keyboard-response,48,341133,0.0-7.0-2.3-0.3-1.14-0.14,,,,,,,62909d7551844220ac3125a5,12:56:54,15/01/2024
,"<p style=""font-size:14rem;font-weight:400;"">4</p>",,fwdspan,number,KOMu6UQ4YmOBUUArf2GeRCgJFce2,html-keyboard-response,49,342140,0.0-7.0-2.3-0.3-1.15-0.15,,,,,,,62909d7551844220ac3125a5,12:56:54,15/01/2024
,"<p style=""font-size:14rem;font-weight:400;"">8</p>",,fwdspan,number,KOMu6UQ4YmOBUUArf2GeRCgJFce2,html-keyboard-response,50,343144,0.0-7.0-2.3-0.3-1.16-0.16,,,,,,,62909d7551844220ac3125a5,12:56:54,15/01/2024
,"<p style=""font-size:14rem;font-weight:400;"">5</p>",,fwdspan,number,KOMu6UQ4YmOBUUArf2GeRCgJFce2,html-keyboard-response,51,344154,0.0-7.0-2.3-0.3-1.17-0.17,,,,,,,62909d7551844220ac3125a5,12:56:54,15/01/2024
,[],,fwdspan,delay,KOMu6UQ4YmOBUUArf2GeRCgJFce2,html-keyboard-response,52,344712,0.0-7.0-2.3-0.3-2.3,,,,,,,62909d7551844220ac3125a5,12:56:54,15/01/2024
5878.5999999996275,"<div class = numbox><p style=""font-size:2.5rem"">What were the numbers <b>in order</b>?<br>(When you are ready to lock in your answer, press <b>ENTER</b>)</p><button id = button_1 class = ""square num-button"" onclick = ""recordClick(this)""><div class = content><div class = numbers>1</div></div></button><button id = button_2 class = ""square num-button"" onclick = ""recordClick(this)""><div class = content><div class = numbers>2</div></div></button><button id = button_3 class = ""square num-button"" onclick = ""recordClick(this)""><div class = content><div class = numbers>3</div></div></button><button id = button_4 class = ""square num-button"" onclick = ""recordClick(this)""><div class = content><div class = numbers>4</div></div></button><button id = button_5 class = ""square num-button"" onclick = ""recordClick(this)""><div class = content><div class = numbers>5</div></div></button><button id = button_6 class = ""square num-button"" onclick = ""recordClick(this)""><div class = content><div class = numbers>6</div></div></button><button id = button_7 class = ""square num-button"" onclick = ""recordClick(this)""><div class = content><div class = numbers>7</div></div></button><button id = button_8 class = ""square num-button"" onclick = ""recordClick(this)""><div class = content><div class = numbers>8</div></div></button><button id = button_9 class = ""square num-button"" onclick = ""recordClick(this)""><div class = content><div class = numbers>9</div></div></button><button class = clear_button id = ""ClearButton"" onclick = ""clearResponse()"">Clear</button><p><u><b>Current Answer:</b></u></p><div id=echoed_txt style=""font-size: 6rem; color:blue;""><b></b></div></div><br><br><br><br><br><br><br>",enter,fwdspan,response,KOMu6UQ4YmOBUUArf2GeRCgJFce2,html-keyboard-response,53,350593,0.0-7.0-2.3-0.3-3.3,6.0,"[6,7,2,4,8,5]","[6,7,2,4,8,5]",1.0,"[3, 4, 5, 6, 7, 8, 9, 9, 8, 9, 9, 8]",,62909d7551844220ac3125a5,12:56:54,15/01/2024
,,,fwdspan,update_span,KOMu6UQ4YmOBUUArf2GeRCgJFce2,call-function,54,350848,0.0-7.0-2.3-0.3-4.3,,,,,,,62909d7551844220ac3125a5,12:56:54,15/01/2024
1130.0999999996275,"<p style=""font-size:3rem"">Trial 5 of 12</p><br><br><br>",0,fwdspan,start_trial,KOMu6UQ4YmOBUUArf2GeRCgJFce2,html-button-response,55,351980,0.0-7.0-2.4-0.4-0.4,,,,,,,62909d7551844220ac3125a5,12:56:54,15/01/2024
,"<p style=""font-size:14rem;font-weight:400;"">6</p>",,fwdspan,number,KOMu6UQ4YmOBUUArf2GeRCgJFce2,html-keyboard-response,56,352983,0.0-7.0-2.4-0.4-1.18-0.18,,,,,,,62909d7551844220ac3125a5,12:56:54,15/01/2024
,"<p style=""font-size:14rem;font-weight:400;"">8</p>",,fwdspan,number,KOMu6UQ4YmOBUUArf2GeRCgJFce2,html-keyboard-response,57,353992,0.0-7.0-2.4-0.4-1.19-0.19,,,,,,,62909d7551844220ac3125a5,12:56:54,15/01/2024
,"<p style=""font-size:14rem;font-weight:400;"">4</p>",,fwdspan,number,KOMu6UQ4YmOBUUArf2GeRCgJFce2,html-keyboard-response,58,355001,0.0-7.0-2.4-0.4-1.20-0.20,,,,,,,62909d7551844220ac3125a5,12:56:54,15/01/2024
,"<p style=""font-size:14rem;font-weight:400;"">7</p>",,fwdspan,number,KOMu6UQ4YmOBUUArf2GeRCgJFce2,html-keyboard-response,59,356012,0.0-7.0-2.4-0.4-1.21-0.21,,,,,,,62909d7551844220ac3125a5,12:56:54,15/01/2024
,"<p style=""font-size:14rem;font-weight:400;"">2</p>",,fwdspan,number,KOMu6UQ4YmOBUUArf2GeRCgJFce2,html-keyboard-response,60,357019,0.0-7.0-2.4-0.4-1.22-0.22,,,,,,,62909d7551844220ac3125a5,12:56:54,15/01/2024
,"<p style=""font-size:14rem;font-weight:400;"">1</p>",,fwdspan,number,KOMu6UQ4YmOBUUArf2GeRCgJFce2,html-keyboard-response,61,358028,0.0-7.0-2.4-0.4-1.23-0.23,,,,,,,62909d7551844220ac3125a5,12:56:54,15/01/2024
,"<p style=""font-size:14rem;font-weight:400;"">3</p>",,fwdspan,number,KOMu6UQ4YmOBUUArf2GeRCgJFce2,html-keyboard-response,62,359038,0.0-7.0-2.4-0.4-1.24-0.24,,,,,,,62909d7551844220ac3125a5,12:56:54,15/01/2024
,[],,fwdspan,delay,KOMu6UQ4YmOBUUArf2GeRCgJFce2,html-keyboard-response,63,359599,0.0-7.0-2.4-0.4-2.4,,,,,,,62909d7551844220ac3125a5,12:56:54,15/01/2024
7372.300000000745,"<div class = numbox><p style=""font-size:2.5rem"">What were the numbers <b>in order</b>?<br>(When you are ready to lock in your answer, press <b>ENTER</b>)</p><button id = button_1 class = ""square num-button"" onclick = ""recordClick(this)""><div class = content><div class = numbers>1</div></div></button><button id = button_2 class = ""square num-button"" onclick = ""recordClick(this)""><div class = content><div class = numbers>2</div></div></button><button id = button_3 class = ""square num-button"" onclick = ""recordClick(this)""><div class = content><div class = numbers>3</div></div></button><button id = button_4 class = ""square num-button"" onclick = ""recordClick(this)""><div class = content><div class = numbers>4</div></div></button><button id = button_5 class = ""square num-button"" onclick = ""recordClick(this)""><div class = content><div class = numbers>5</div></div></button><button id = button_6 class = ""square num-button"" onclick = ""recordClick(this)""><div class = content><div class = numbers>6</div></div></button><button id = button_7 class = ""square num-button"" onclick = ""recordClick(this)""><div class = content><div class = numbers>7</div></div></button><button id = button_8 class = ""square num-button"" onclick = ""recordClick(this)""><div class = content><div class = numbers>8</div></div></button><button id = button_9 class = ""square num-button"" onclick = ""recordClick(this)""><div class = content><div class = numbers>9</div></div></button><button class = clear_button id = ""ClearButton"" onclick = ""clearResponse()"">Clear</button><p><u><b>Current Answer:</b></u></p><div id=echoed_txt style=""font-size: 6rem; color:blue;""><b></b></div></div><br><br><br><br><br><br><br>",enter,fwdspan,response,KOMu6UQ4YmOBUUArf2GeRCgJFce2,html-keyboard-response,64,366973,0.0-7.0-2.4-0.4-3.4,7.0,"[6,8,4,7,2,1,3]","[6,8,4,7,2,1,3]",1.0,"[3, 4, 5, 6, 7, 8, 9, 9, 8, 9, 9, 8]",,62909d7551844220ac3125a5,12:56:54,15/01/2024
,,,fwdspan,update_span,KOMu6UQ4YmOBUUArf2GeRCgJFce2,call-function,65,367228,0.0-7.0-2.4-0.4-4.4,,,,,,,62909d7551844220ac3125a5,12:56:54,15/01/2024
1785.9000000003725,"<p style=""font-size:3rem"">Trial 6 of 12</p><br><br><br>",0,fwdspan,start_trial,KOMu6UQ4YmOBUUArf2GeRCgJFce2,html-button-response,66,369016,0.0-7.0-2.5-0.5-0.5,,,,,,,62909d7551844220ac3125a5,12:56:54,15/01/2024
,"<p style=""font-size:14rem;font-weight:400;"">9</p>",,fwdspan,number,KOMu6UQ4YmOBUUArf2GeRCgJFce2,html-keyboard-response,67,370022,0.0-7.0-2.5-0.5-1.25-0.25,,,,,,,62909d7551844220ac3125a5,12:56:54,15/01/2024
,"<p style=""font-size:14rem;font-weight:400;"">7</p>",,fwdspan,number,KOMu6UQ4YmOBUUArf2GeRCgJFce2,html-keyboard-response,68,371031,0.0-7.0-2.5-0.5-1.26-0.26,,,,,,,62909d7551844220ac3125a5,12:56:54,15/01/2024
,"<p style=""font-size:14rem;font-weight:400;"">6</p>",,fwdspan,number,KOMu6UQ4YmOBUUArf2GeRCgJFce2,html-keyboard-response,69,372039,0.0-7.0-2.5-0.5-1.27-0.27,,,,,,,62909d7551844220ac3125a5,12:56:54,15/01/2024
,"<p style=""font-size:14rem;font-weight:400;"">5</p>",,fwdspan,number,KOMu6UQ4YmOBUUArf2GeRCgJFce2,html-keyboard-response,70,373042,0.0-7.0-2.5-0.5-1.28-0.28,,,,,,,62909d7551844220ac3125a5,12:56:54,15/01/2024
,"<p style=""font-size:14rem;font-weight:400;"">3</p>",,fwdspan,number,KOMu6UQ4YmOBUUArf2GeRCgJFce2,html-keyboard-response,71,374047,0.0-7.0-2.5-0.5-1.29-0.29,,,,,,,62909d7551844220ac3125a5,12:56:54,15/01/2024
,"<p style=""font-size:14rem;font-weight:400;"">2</p>",,fwdspan,number,KOMu6UQ4YmOBUUArf2GeRCgJFce2,html-keyboard-response,72,375054,0.0-7.0-2.5-0.5-1.30-0.30,,,,,,,62909d7551844220ac3125a5,12:56:54,15/01/2024
,"<p style=""font-size:14rem;font-weight:400;"">8</p>",,fwdspan,number,KOMu6UQ4YmOBUUArf2GeRCgJFce2,html-keyboard-response,73,376060,0.0-7.0-2.5-0.5-1.31-0.31,,,,,,,62909d7551844220ac3125a5,12:56:54,15/01/2024
,"<p style=""font-size:14rem;font-weight:400;"">1</p>",,fwdspan,number,KOMu6UQ4YmOBUUArf2GeRCgJFce2,html-keyboard-response,74,377070,0.0-7.0-2.5-0.5-1.32-0.32,,,,,,,62909d7551844220ac3125a5,12:56:54,15/01/2024
,[],,fwdspan,delay,KOMu6UQ4YmOBUUArf2GeRCgJFce2,html-keyboard-response,75,377630,0.0-7.0-2.5-0.5-2.5,,,,,,,62909d7551844220ac3125a5,12:56:54,15/01/2024
8039.9000000003725,"<div class = numbox><p style=""font-size:2.5rem"">What were the numbers <b>in order</b>?<br>(When you are ready to lock in your answer, press <b>ENTER</b>)</p><button id = button_1 class = ""square num-button"" onclick = ""recordClick(this)""><div class = content><div class = numbers>1</div></div></button><button id = button_2 class = ""square num-button"" onclick = ""recordClick(this)""><div class = content><div class = numbers>2</div></div></button><button id = button_3 class = ""square num-button"" onclick = ""recordClick(this)""><div class = content><div class = numbers>3</div></div></button><button id = button_4 class = ""square num-button"" onclick = ""recordClick(this)""><div class = content><div class = numbers>4</div></div></button><button id = button_5 class = ""square num-button"" onclick = ""recordClick(this)""><div class = content><div class = numbers>5</div></div></button><button id = button_6 class = ""square num-button"" onclick = ""recordClick(this)""><div class = content><div class = numbers>6</div></div></button><button id = button_7 class = ""square num-button"" onclick = ""recordClick(this)""><div class = content><div class = numbers>7</div></div></button><button id = button_8 class = ""square num-button"" onclick = ""recordClick(this)""><div class = content><div class = numbers>8</div></div></button><button id = button_9 class = ""square num-button"" onclick = ""recordClick(this)""><div class = content><div class = numbers>9</div></div></button><button class = clear_button id = ""ClearButton"" onclick = ""clearResponse()"">Clear</button><p><u><b>Current Answer:</b></u></p><div id=echoed_txt style=""font-size: 6rem; color:blue;""><b></b></div></div><br><br><br><br><br><br><br>",enter,fwdspan,response,KOMu6UQ4YmOBUUArf2GeRCgJFce2,html-keyboard-response,76,385672,0.0-7.0-2.5-0.5-3.5,8.0,"[9,7,6,5,3,2,8,1]","[9,7,6,5,3,2,8,1]",1.0,"[3, 4, 5, 6, 7, 8, 9, 9, 8, 9, 9, 8]",,62909d7551844220ac3125a5,12:56:54,15/01/2024
,,,fwdspan,update_span,KOMu6UQ4YmOBUUArf2GeRCgJFce2,call-function,77,385928,0.0-7.0-2.5-0.5-4.5,,,,,,,62909d7551844220ac3125a5,12:56:54,15/01/2024
732.4000000003725,"<p style=""font-size:3rem"">Trial 7 of 12</p><br><br><br>",0,fwdspan,start_trial,KOMu6UQ4YmOBUUArf2GeRCgJFce2,html-button-response,78,386662,0.0-7.0-2.6-0.6-0.6,,,,,,,62909d7551844220ac3125a5,12:56:54,15/01/2024
,"<p style=""font-size:14rem;font-weight:400;"">8</p>",,fwdspan,number,KOMu6UQ4YmOBUUArf2GeRCgJFce2,html-keyboard-response,79,387665,0.0-7.0-2.6-0.6-1.33-0.33,,,,,,,62909d7551844220ac3125a5,12:56:54,15/01/2024
,"<p style=""font-size:14rem;font-weight:400;"">6</p>",,fwdspan,number,KOMu6UQ4YmOBUUArf2GeRCgJFce2,html-keyboard-response,80,388674,0.0-7.0-2.6-0.6-1.34-0.34,,,,,,,62909d7551844220ac3125a5,12:56:54,15/01/2024
,"<p style=""font-size:14rem;font-weight:400;"">3</p>",,fwdspan,number,KOMu6UQ4YmOBUUArf2GeRCgJFce2,html-keyboard-response,81,389680,0.0-7.0-2.6-0.6-1.35-0.35,,,,,,,62909d7551844220ac3125a5,12:56:54,15/01/2024
,"<p style=""font-size:14rem;font-weight:400;"">9</p>",,fwdspan,number,KOMu6UQ4YmOBUUArf2GeRCgJFce2,html-keyboard-response,82,390692,0.0-7.0-2.6-0.6-1.36-0.36,,,,,,,62909d7551844220ac3125a5,12:56:54,15/01/2024
,"<p style=""font-size:14rem;font-weight:400;"">5</p>",,fwdspan,number,KOMu6UQ4YmOBUUArf2GeRCgJFce2,html-keyboard-response,83,391700,0.0-7.0-2.6-0.6-1.37-0.37,,,,,,,62909d7551844220ac3125a5,12:56:54,15/01/2024
,"<p style=""font-size:14rem;font-weight:400;"">4</p>",,fwdspan,number,KOMu6UQ4YmOBUUArf2GeRCgJFce2,html-keyboard-response,84,392706,0.0-7.0-2.6-0.6-1.38-0.38,,,,,,,62909d7551844220ac3125a5,12:56:54,15/01/2024
,"<p style=""font-size:14rem;font-weight:400;"">1</p>",,fwdspan,number,KOMu6UQ4YmOBUUArf2GeRCgJFce2,html-keyboard-response,85,393711,0.0-7.0-2.6-0.6-1.39-0.39,,,,,,,62909d7551844220ac3125a5,12:56:54,15/01/2024
,"<p style=""font-size:14rem;font-weight:400;"">7</p>",,fwdspan,number,KOMu6UQ4YmOBUUArf2GeRCgJFce2,html-keyboard-response,86,394721,0.0-7.0-2.6-0.6-1.40-0.40,,,,,,,62909d7551844220ac3125a5,12:56:54,15/01/2024
,"<p style=""font-size:14rem;font-weight:400;"">2</p>",,fwdspan,number,KOMu6UQ4YmOBUUArf2GeRCgJFce2,html-keyboard-response,87,395730,0.0-7.0-2.6-0.6-1.41-0.41,,,,,,,62909d7551844220ac3125a5,12:56:54,15/01/2024
,[],,fwdspan,delay,KOMu6UQ4YmOBUUArf2GeRCgJFce2,html-keyboard-response,88,396289,0.0-7.0-2.6-0.6-2.6,,,,,,,62909d7551844220ac3125a5,12:56:54,15/01/2024
25232.199999999255,"<div class = numbox><p style=""font-size:2.5rem"">What were the numbers <b>in order</b>?<br>(When you are ready to lock in your answer, press <b>ENTER</b>)</p><button id = button_1 class = ""square num-button"" onclick = ""recordClick(this)""><div class = content><div class = numbers>1</div></div></button><button id = button_2 class = ""square num-button"" onclick = ""recordClick(this)""><div class = content><div class = numbers>2</div></div></button><button id = button_3 class = ""square num-button"" onclick = ""recordClick(this)""><div class = content><div class = numbers>3</div></div></button><button id = button_4 class = ""square num-button"" onclick = ""recordClick(this)""><div class = content><div class = numbers>4</div></div></button><button id = button_5 class = ""square num-button"" onclick = ""recordClick(this)""><div class = content><div class = numbers>5</div></div></button><button id = button_6 class = ""square num-button"" onclick = ""recordClick(this)""><div class = content><div class = numbers>6</div></div></button><button id = button_7 class = ""square num-button"" onclick = ""recordClick(this)""><div class = content><div class = numbers>7</div></div></button><button id = button_8 class = ""square num-button"" onclick = ""recordClick(this)""><div class = content><div class = numbers>8</div></div></button><button id = button_9 class = ""square num-button"" onclick = ""recordClick(this)""><div class = content><div class = numbers>9</div></div></button><button class = clear_button id = ""ClearButton"" onclick = ""clearResponse()"">Clear</button><p><u><b>Current Answer:</b></u></p><div id=echoed_txt style=""font-size: 6rem; color:blue;""><b></b></div></div><br><br><br><br><br><br><br>",enter,fwdspan,response,KOMu6UQ4YmOBUUArf2GeRCgJFce2,html-keyboard-response,89,421524,0.0-7.0-2.6-0.6-3.6,9.0,"[8,3,6,4,5,8,2]","[8,6,3,9,5,4,1,7,2]",0.0,"[3, 4, 5, 6, 7, 8, 9, 9, 8, 9, 9, 8]",,62909d7551844220ac3125a5,12:56:54,15/01/2024
,,,fwdspan,update_span,KOMu6UQ4YmOBUUArf2GeRCgJFce2,call-function,90,421782,0.0-7.0-2.6-0.6-4.6,,,,,,,62909d7551844220ac3125a5,12:56:54,15/01/2024
1450.699999999255,"<p style=""font-size:3rem"">Trial 8 of 12</p><br><br><br>",0,fwdspan,start_trial,KOMu6UQ4YmOBUUArf2GeRCgJFce2,html-button-response,91,423235,0.0-7.0-2.7-0.7-0.7,,,,,,,62909d7551844220ac3125a5,12:56:54,15/01/2024
,"<p style=""font-size:14rem;font-weight:400;"">1</p>",,fwdspan,number,KOMu6UQ4YmOBUUArf2GeRCgJFce2,html-keyboard-response,92,424238,0.0-7.0-2.7-0.7-1.42-0.42,,,,,,,62909d7551844220ac3125a5,12:56:54,15/01/2024
,"<p style=""font-size:14rem;font-weight:400;"">5</p>",,fwdspan,number,KOMu6UQ4YmOBUUArf2GeRCgJFce2,html-keyboard-response,93,425243,0.0-7.0-2.7-0.7-1.43-0.43,,,,,,,62909d7551844220ac3125a5,12:56:54,15/01/2024
,"<p style=""font-size:14rem;font-weight:400;"">4</p>",,fwdspan,number,KOMu6UQ4YmOBUUArf2GeRCgJFce2,html-keyboard-response,94,426253,0.0-7.0-2.7-0.7-1.44-0.44,,,,,,,62909d7551844220ac3125a5,12:56:54,15/01/2024
,"<p style=""font-size:14rem;font-weight:400;"">2</p>",,fwdspan,number,KOMu6UQ4YmOBUUArf2GeRCgJFce2,html-keyboard-response,95,427262,0.0-7.0-2.7-0.7-1.45-0.45,,,,,,,62909d7551844220ac3125a5,12:56:54,15/01/2024
,"<p style=""font-size:14rem;font-weight:400;"">6</p>",,fwdspan,number,KOMu6UQ4YmOBUUArf2GeRCgJFce2,html-keyboard-response,96,428270,0.0-7.0-2.7-0.7-1.46-0.46,,,,,,,62909d7551844220ac3125a5,12:56:54,15/01/2024
,"<p style=""font-size:14rem;font-weight:400;"">7</p>",,fwdspan,number,KOMu6UQ4YmOBUUArf2GeRCgJFce2,html-keyboard-response,97,429278,0.0-7.0-2.7-0.7-1.47-0.47,,,,,,,62909d7551844220ac3125a5,12:56:54,15/01/2024
,"<p style=""font-size:14rem;font-weight:400;"">8</p>",,fwdspan,number,KOMu6UQ4YmOBUUArf2GeRCgJFce2,html-keyboard-response,98,430288,0.0-7.0-2.7-0.7-1.48-0.48,,,,,,,62909d7551844220ac3125a5,12:56:54,15/01/2024
,"<p style=""font-size:14rem;font-weight:400;"">9</p>",,fwdspan,number,KOMu6UQ4YmOBUUArf2GeRCgJFce2,html-keyboard-response,99,431298,0.0-7.0-2.7-0.7-1.49-0.49,,,,,,,62909d7551844220ac3125a5,12:56:54,15/01/2024
,"<p style=""font-size:14rem;font-weight:400;"">3</p>",,fwdspan,number,KOMu6UQ4YmOBUUArf2GeRCgJFce2,html-keyboard-response,100,432307,0.0-7.0-2.7-0.7-1.50-0.50,,,,,,,62909d7551844220ac3125a5,12:56:54,15/01/2024
,[],,fwdspan,delay,KOMu6UQ4YmOBUUArf2GeRCgJFce2,html-keyboard-response,101,432862,0.0-7.0-2.7-0.7-2.7,,,,,,,62909d7551844220ac3125a5,12:56:54,15/01/2024
8720.099999999627,"<div class = numbox><p style=""font-size:2.5rem"">What were the numbers <b>in order</b>?<br>(When you are ready to lock in your answer, press <b>ENTER</b>)</p><button id = button_1 class = ""square num-button"" onclick = ""recordClick(this)""><div class = content><div class = numbers>1</div></div></button><button id = button_2 class = ""square num-button"" onclick = ""recordClick(this)""><div class = content><div class = numbers>2</div></div></button><button id = button_3 class = ""square num-button"" onclick = ""recordClick(this)""><div class = content><div class = numbers>3</div></div></button><button id = button_4 class = ""square num-button"" onclick = ""recordClick(this)""><div class = content><div class = numbers>4</div></div></button><button id = button_5 class = ""square num-button"" onclick = ""recordClick(this)""><div class = content><div class = numbers>5</div></div></button><button id = button_6 class = ""square num-button"" onclick = ""recordClick(this)""><div class = content><div class = numbers>6</div></div></button><button id = button_7 class = ""square num-button"" onclick = ""recordClick(this)""><div class = content><div class = numbers>7</div></div></button><button id = button_8 class = ""square num-button"" onclick = ""recordClick(this)""><div class = content><div class = numbers>8</div></div></button><button id = button_9 class = ""square num-button"" onclick = ""recordClick(this)""><div class = content><div class = numbers>9</div></div></button><button class = clear_button id = ""ClearButton"" onclick = ""clearResponse()"">Clear</button><p><u><b>Current Answer:</b></u></p><div id=echoed_txt style=""font-size: 6rem; color:blue;""><b></b></div></div><br><br><br><br><br><br><br>",enter,fwdspan,response,KOMu6UQ4YmOBUUArf2GeRCgJFce2,html-keyboard-response,102,441584,0.0-7.0-2.7-0.7-3.7,9.0,"[1,5,4,2,6,7,8,3]","[1,5,4,2,6,7,8,9,3]",0.0,"[3, 4, 5, 6, 7, 8, 9, 9, 8, 9, 9, 8]",,62909d7551844220ac3125a5,12:56:54,15/01/2024
,,,fwdspan,update_span,KOMu6UQ4YmOBUUArf2GeRCgJFce2,call-function,103,441838,0.0-7.0-2.7-0.7-4.7,,,,,,,62909d7551844220ac3125a5,12:56:54,15/01/2024
1820.7999999988824,"<p style=""font-size:3rem"">Trial 9 of 12</p><br><br><br>",0,fwdspan,start_trial,KOMu6UQ4YmOBUUArf2GeRCgJFce2,html-button-response,104,443661,0.0-7.0-2.8-0.8-0.8,,,,,,,62909d7551844220ac3125a5,12:56:54,15/01/2024
,"<p style=""font-size:14rem;font-weight:400;"">4</p>",,fwdspan,number,KOMu6UQ4YmOBUUArf2GeRCgJFce2,html-keyboard-response,105,444666,0.0-7.0-2.8-0.8-1.51-0.51,,,,,,,62909d7551844220ac3125a5,12:56:54,15/01/2024
,"<p style=""font-size:14rem;font-weight:400;"">5</p>",,fwdspan,number,KOMu6UQ4YmOBUUArf2GeRCgJFce2,html-keyboard-response,106,445673,0.0-7.0-2.8-0.8-1.52-0.52,,,,,,,62909d7551844220ac3125a5,12:56:54,15/01/2024
,"<p style=""font-size:14rem;font-weight:400;"">7</p>",,fwdspan,number,KOMu6UQ4YmOBUUArf2GeRCgJFce2,html-keyboard-response,107,446677,0.0-7.0-2.8-0.8-1.53-0.53,,,,,,,62909d7551844220ac3125a5,12:56:54,15/01/2024
,"<p style=""font-size:14rem;font-weight:400;"">3</p>",,fwdspan,number,KOMu6UQ4YmOBUUArf2GeRCgJFce2,html-keyboard-response,108,447685,0.0-7.0-2.8-0.8-1.54-0.54,,,,,,,62909d7551844220ac3125a5,12:56:54,15/01/2024
,"<p style=""font-size:14rem;font-weight:400;"">1</p>",,fwdspan,number,KOMu6UQ4YmOBUUArf2GeRCgJFce2,html-keyboard-response,109,448691,0.0-7.0-2.8-0.8-1.55-0.55,,,,,,,62909d7551844220ac3125a5,12:56:54,15/01/2024
,"<p style=""font-size:14rem;font-weight:400;"">8</p>",,fwdspan,number,KOMu6UQ4YmOBUUArf2GeRCgJFce2,html-keyboard-response,110,449698,0.0-7.0-2.8-0.8-1.56-0.56,,,,,,,62909d7551844220ac3125a5,12:56:54,15/01/2024
,"<p style=""font-size:14rem;font-weight:400;"">6</p>",,fwdspan,number,KOMu6UQ4YmOBUUArf2GeRCgJFce2,html-keyboard-response,111,450706,0.0-7.0-2.8-0.8-1.57-0.57,,,,,,,62909d7551844220ac3125a5,12:56:54,15/01/2024
,"<p style=""font-size:14rem;font-weight:400;"">2</p>",,fwdspan,number,KOMu6UQ4YmOBUUArf2GeRCgJFce2,html-keyboard-response,112,451712,0.0-7.0-2.8-0.8-1.58-0.58,,,,,,,62909d7551844220ac3125a5,12:56:54,15/01/2024
,[],,fwdspan,delay,KOMu6UQ4YmOBUUArf2GeRCgJFce2,html-keyboard-response,113,452270,0.0-7.0-2.8-0.8-2.8,,,,,,,62909d7551844220ac3125a5,12:56:54,15/01/2024
9388.5,"<div class = numbox><p style=""font-size:2.5rem"">What were the numbers <b>in order</b>?<br>(When you are ready to lock in your answer, press <b>ENTER</b>)</p><button id = button_1 class = ""square num-button"" onclick = ""recordClick(this)""><div class = content><div class = numbers>1</div></div></button><button id = button_2 class = ""square num-button"" onclick = ""recordClick(this)""><div class = content><div class = numbers>2</div></div></button><button id = button_3 class = ""square num-button"" onclick = ""recordClick(this)""><div class = content><div class = numbers>3</div></div></button><button id = button_4 class = ""square num-button"" onclick = ""recordClick(this)""><div class = content><div class = numbers>4</div></div></button><button id = button_5 class = ""square num-button"" onclick = ""recordClick(this)""><div class = content><div class = numbers>5</div></div></button><button id = button_6 class = ""square num-button"" onclick = ""recordClick(this)""><div class = content><div class = numbers>6</div></div></button><button id = button_7 class = ""square num-button"" onclick = ""recordClick(this)""><div class = content><div class = numbers>7</div></div></button><button id = button_8 class = ""square num-button"" onclick = ""recordClick(this)""><div class = content><div class = numbers>8</div></div></button><button id = button_9 class = ""square num-button"" onclick = ""recordClick(this)""><div class = content><div class = numbers>9</div></div></button><button class = clear_button id = ""ClearButton"" onclick = ""clearResponse()"">Clear</button><p><u><b>Current Answer:</b></u></p><div id=echoed_txt style=""font-size: 6rem; color:blue;""><b></b></div></div><br><br><br><br><br><br><br>",enter,fwdspan,response,KOMu6UQ4YmOBUUArf2GeRCgJFce2,html-keyboard-response,114,461661,0.0-7.0-2.8-0.8-3.8,8.0,"[4,5,7,3,1,8,6,2]","[4,5,7,3,1,8,6,2]",1.0,"[3, 4, 5, 6, 7, 8, 9, 9, 8, 9, 9, 8]",,62909d7551844220ac3125a5,12:56:54,15/01/2024
,,,fwdspan,update_span,KOMu6UQ4YmOBUUArf2GeRCgJFce2,call-function,115,461917,0.0-7.0-2.8-0.8-4.8,,,,,,,62909d7551844220ac3125a5,12:56:54,15/01/2024
1557.4000000003725,"<p style=""font-size:3rem"">Trial 10 of 12</p><br><br><br>",0,fwdspan,start_trial,KOMu6UQ4YmOBUUArf2GeRCgJFce2,html-button-response,116,463476,0.0-7.0-2.9-0.9-0.9,,,,,,,62909d7551844220ac3125a5,12:56:54,15/01/2024
,"<p style=""font-size:14rem;font-weight:400;"">3</p>",,fwdspan,number,KOMu6UQ4YmOBUUArf2GeRCgJFce2,html-keyboard-response,117,464480,0.0-7.0-2.9-0.9-1.59-0.59,,,,,,,62909d7551844220ac3125a5,12:56:54,15/01/2024
,"<p style=""font-size:14rem;font-weight:400;"">6</p>",,fwdspan,number,KOMu6UQ4YmOBUUArf2GeRCgJFce2,html-keyboard-response,118,465487,0.0-7.0-2.9-0.9-1.60-0.60,,,,,,,62909d7551844220ac3125a5,12:56:54,15/01/2024
,"<p style=""font-size:14rem;font-weight:400;"">7</p>",,fwdspan,number,KOMu6UQ4YmOBUUArf2GeRCgJFce2,html-keyboard-response,119,466494,0.0-7.0-2.9-0.9-1.61-0.61,,,,,,,62909d7551844220ac3125a5,12:56:54,15/01/2024
,"<p style=""font-size:14rem;font-weight:400;"">5</p>",,fwdspan,number,KOMu6UQ4YmOBUUArf2GeRCgJFce2,html-keyboard-response,120,467502,0.0-7.0-2.9-0.9-1.62-0.62,,,,,,,62909d7551844220ac3125a5,12:56:54,15/01/2024
,"<p style=""font-size:14rem;font-weight:400;"">1</p>",,fwdspan,number,KOMu6UQ4YmOBUUArf2GeRCgJFce2,html-keyboard-response,121,468505,0.0-7.0-2.9-0.9-1.63-0.63,,,,,,,62909d7551844220ac3125a5,12:56:54,15/01/2024
,"<p style=""font-size:14rem;font-weight:400;"">2</p>",,fwdspan,number,KOMu6UQ4YmOBUUArf2GeRCgJFce2,html-keyboard-response,122,469512,0.0-7.0-2.9-0.9-1.64-0.64,,,,,,,62909d7551844220ac3125a5,12:56:54,15/01/2024
,"<p style=""font-size:14rem;font-weight:400;"">8</p>",,fwdspan,number,KOMu6UQ4YmOBUUArf2GeRCgJFce2,html-keyboard-response,123,470516,0.0-7.0-2.9-0.9-1.65-0.65,,,,,,,62909d7551844220ac3125a5,12:56:54,15/01/2024
,"<p style=""font-size:14rem;font-weight:400;"">4</p>",,fwdspan,number,KOMu6UQ4YmOBUUArf2GeRCgJFce2,html-keyboard-response,124,471523,0.0-7.0-2.9-0.9-1.66-0.66,,,,,,,62909d7551844220ac3125a5,12:56:54,15/01/2024
,"<p style=""font-size:14rem;font-weight:400;"">9</p>",,fwdspan,number,KOMu6UQ4YmOBUUArf2GeRCgJFce2,html-keyboard-response,125,472530,0.0-7.0-2.9-0.9-1.67-0.67,,,,,,,62909d7551844220ac3125a5,12:56:54,15/01/2024
,[],,fwdspan,delay,KOMu6UQ4YmOBUUArf2GeRCgJFce2,html-keyboard-response,126,473090,0.0-7.0-2.9-0.9-2.9,,,,,,,62909d7551844220ac3125a5,12:56:54,15/01/2024
9542.099999999627,"<div class = numbox><p style=""font-size:2.5rem"">What were the numbers <b>in order</b>?<br>(When you are ready to lock in your answer, press <b>ENTER</b>)</p><button id = button_1 class = ""square num-button"" onclick = ""recordClick(this)""><div class = content><div class = numbers>1</div></div></button><button id = button_2 class = ""square num-button"" onclick = ""recordClick(this)""><div class = content><div class = numbers>2</div></div></button><button id = button_3 class = ""square num-button"" onclick = ""recordClick(this)""><div class = content><div class = numbers>3</div></div></button><button id = button_4 class = ""square num-button"" onclick = ""recordClick(this)""><div class = content><div class = numbers>4</div></div></button><button id = button_5 class = ""square num-button"" onclick = ""recordClick(this)""><div class = content><div class = numbers>5</div></div></button><button id = button_6 class = ""square num-button"" onclick = ""recordClick(this)""><div class = content><div class = numbers>6</div></div></button><button id = button_7 class = ""square num-button"" onclick = ""recordClick(this)""><div class = content><div class = numbers>7</div></div></button><button id = button_8 class = ""square num-button"" onclick = ""recordClick(this)""><div class = content><div class = numbers>8</div></div></button><button id = button_9 class = ""square num-button"" onclick = ""recordClick(this)""><div class = content><div class = numbers>9</div></div></button><button class = clear_button id = ""ClearButton"" onclick = ""clearResponse()"">Clear</button><p><u><b>Current Answer:</b></u></p><div id=echoed_txt style=""font-size: 6rem; color:blue;""><b></b></div></div><br><br><br><br><br><br><br>",enter,fwdspan,response,KOMu6UQ4YmOBUUArf2GeRCgJFce2,html-keyboard-response,127,482634,0.0-7.0-2.9-0.9-3.9,9.0,"[3,6,7,5,1,2,8,4,6]","[3,6,7,5,1,2,8,4,9]",0.0,"[3, 4, 5, 6, 7, 8, 9, 9, 8, 9, 9, 8]",,62909d7551844220ac3125a5,12:56:54,15/01/2024
,,,fwdspan,update_span,KOMu6UQ4YmOBUUArf2GeRCgJFce2,call-function,128,482891,0.0-7.0-2.9-0.9-4.9,,,,,,,62909d7551844220ac3125a5,12:56:54,15/01/2024
1058.9000000003725,"<p style=""font-size:3rem"">Trial 11 of 12</p><br><br><br>",0,fwdspan,start_trial,KOMu6UQ4YmOBUUArf2GeRCgJFce2,html-button-response,129,483952,0.0-7.0-2.10-0.10-0.10,,,,,,,62909d7551844220ac3125a5,12:56:54,15/01/2024
,"<p style=""font-size:14rem;font-weight:400;"">3</p>",,fwdspan,number,KOMu6UQ4YmOBUUArf2GeRCgJFce2,html-keyboard-response,130,484961,0.0-7.0-2.10-0.10-1.68-0.68,,,,,,,62909d7551844220ac3125a5,12:56:54,15/01/2024
,"<p style=""font-size:14rem;font-weight:400;"">8</p>",,fwdspan,number,KOMu6UQ4YmOBUUArf2GeRCgJFce2,html-keyboard-response,131,485968,0.0-7.0-2.10-0.10-1.69-0.69,,,,,,,62909d7551844220ac3125a5,12:56:54,15/01/2024
,"<p style=""font-size:14rem;font-weight:400;"">7</p>",,fwdspan,number,KOMu6UQ4YmOBUUArf2GeRCgJFce2,html-keyboard-response,132,486972,0.0-7.0-2.10-0.10-1.70-0.70,,,,,,,62909d7551844220ac3125a5,12:56:54,15/01/2024
,"<p style=""font-size:14rem;font-weight:400;"">2</p>",,fwdspan,number,KOMu6UQ4YmOBUUArf2GeRCgJFce2,html-keyboard-response,133,487977,0.0-7.0-2.10-0.10-1.71-0.71,,,,,,,62909d7551844220ac3125a5,12:56:54,15/01/2024
,"<p style=""font-size:14rem;font-weight:400;"">4</p>",,fwdspan,number,KOMu6UQ4YmOBUUArf2GeRCgJFce2,html-keyboard-response,134,488983,0.0-7.0-2.10-0.10-1.72-0.72,,,,,,,62909d7551844220ac3125a5,12:56:54,15/01/2024
,"<p style=""font-size:14rem;font-weight:400;"">5</p>",,fwdspan,number,KOMu6UQ4YmOBUUArf2GeRCgJFce2,html-keyboard-response,135,489990,0.0-7.0-2.10-0.10-1.73-0.73,,,,,,,62909d7551844220ac3125a5,12:56:54,15/01/2024
,"<p style=""font-size:14rem;font-weight:400;"">1</p>",,fwdspan,number,KOMu6UQ4YmOBUUArf2GeRCgJFce2,html-keyboard-response,136,490997,0.0-7.0-2.10-0.10-1.74-0.74,,,,,,,62909d7551844220ac3125a5,12:56:54,15/01/2024
,"<p style=""font-size:14rem;font-weight:400;"">6</p>",,fwdspan,number,KOMu6UQ4YmOBUUArf2GeRCgJFce2,html-keyboard-response,137,492005,0.0-7.0-2.10-0.10-1.75-0.75,,,,,,,62909d7551844220ac3125a5,12:56:54,15/01/2024
,"<p style=""font-size:14rem;font-weight:400;"">9</p>",,fwdspan,number,KOMu6UQ4YmOBUUArf2GeRCgJFce2,html-keyboard-response,138,493016,0.0-7.0-2.10-0.10-1.76-0.76,,,,,,,62909d7551844220ac3125a5,12:56:54,15/01/2024
,[],,fwdspan,delay,KOMu6UQ4YmOBUUArf2GeRCgJFce2,html-keyboard-response,139,493571,0.0-7.0-2.10-0.10-2.10,,,,,,,62909d7551844220ac3125a5,12:56:54,15/01/2024
9006.099999999627,"<div class = numbox><p style=""font-size:2.5rem"">What were the numbers <b>in order</b>?<br>(When you are ready to lock in your answer, press <b>ENTER</b>)</p><button id = button_1 class = ""square num-button"" onclick = ""recordClick(this)""><div class = content><div class = numbers>1</div></div></button><button id = button_2 class = ""square num-button"" onclick = ""recordClick(this)""><div class = content><div class = numbers>2</div></div></button><button id = button_3 class = ""square num-button"" onclick = ""recordClick(this)""><div class = content><div class = numbers>3</div></div></button><button id = button_4 class = ""square num-button"" onclick = ""recordClick(this)""><div class = content><div class = numbers>4</div></div></button><button id = button_5 class = ""square num-button"" onclick = ""recordClick(this)""><div class = content><div class = numbers>5</div></div></button><button id = button_6 class = ""square num-button"" onclick = ""recordClick(this)""><div class = content><div class = numbers>6</div></div></button><button id = button_7 class = ""square num-button"" onclick = ""recordClick(this)""><div class = content><div class = numbers>7</div></div></button><button id = button_8 class = ""square num-button"" onclick = ""recordClick(this)""><div class = content><div class = numbers>8</div></div></button><button id = button_9 class = ""square num-button"" onclick = ""recordClick(this)""><div class = content><div class = numbers>9</div></div></button><button class = clear_button id = ""ClearButton"" onclick = ""clearResponse()"">Clear</button><p><u><b>Current Answer:</b></u></p><div id=echoed_txt style=""font-size: 6rem; color:blue;""><b></b></div></div><br><br><br><br><br><br><br>",enter,fwdspan,response,KOMu6UQ4YmOBUUArf2GeRCgJFce2,html-keyboard-response,140,502580,0.0-7.0-2.10-0.10-3.10,9.0,"[3,8,7,2,4,6,1,9]","[3,8,7,2,4,5,1,6,9]",0.0,"[3, 4, 5, 6, 7, 8, 9, 9, 8, 9, 9, 8]",,62909d7551844220ac3125a5,12:56:54,15/01/2024
,,,fwdspan,update_span,KOMu6UQ4YmOBUUArf2GeRCgJFce2,call-function,141,502833,0.0-7.0-2.10-0.10-4.10,,,,,,,62909d7551844220ac3125a5,12:56:54,15/01/2024
972.8000000007451,"<p style=""font-size:3rem"">Trial 12 of 12</p><br><br><br>",0,fwdspan,start_trial,KOMu6UQ4YmOBUUArf2GeRCgJFce2,html-button-response,142,503807,0.0-7.0-2.11-0.11-0.11,,,,,,,62909d7551844220ac3125a5,12:56:54,15/01/2024
,"<p style=""font-size:14rem;font-weight:400;"">3</p>",,fwdspan,number,KOMu6UQ4YmOBUUArf2GeRCgJFce2,html-keyboard-response,143,504813,0.0-7.0-2.11-0.11-1.77-0.77,,,,,,,62909d7551844220ac3125a5,12:56:54,15/01/2024
,"<p style=""font-size:14rem;font-weight:400;"">8</p>",,fwdspan,number,KOMu6UQ4YmOBUUArf2GeRCgJFce2,html-keyboard-response,144,505821,0.0-7.0-2.11-0.11-1.78-0.78,,,,,,,62909d7551844220ac3125a5,12:56:54,15/01/2024
,"<p style=""font-size:14rem;font-weight:400;"">7</p>",,fwdspan,number,KOMu6UQ4YmOBUUArf2GeRCgJFce2,html-keyboard-response,145,506828,0.0-7.0-2.11-0.11-1.79-0.79,,,,,,,62909d7551844220ac3125a5,12:56:54,15/01/2024
,"<p style=""font-size:14rem;font-weight:400;"">1</p>",,fwdspan,number,KOMu6UQ4YmOBUUArf2GeRCgJFce2,html-keyboard-response,146,507838,0.0-7.0-2.11-0.11-1.80-0.80,,,,,,,62909d7551844220ac3125a5,12:56:54,15/01/2024
,"<p style=""font-size:14rem;font-weight:400;"">5</p>",,fwdspan,number,KOMu6UQ4YmOBUUArf2GeRCgJFce2,html-keyboard-response,147,508844,0.0-7.0-2.11-0.11-1.81-0.81,,,,,,,62909d7551844220ac3125a5,12:56:54,15/01/2024
,"<p style=""font-size:14rem;font-weight:400;"">6</p>",,fwdspan,number,KOMu6UQ4YmOBUUArf2GeRCgJFce2,html-keyboard-response,148,509854,0.0-7.0-2.11-0.11-1.82-0.82,,,,,,,62909d7551844220ac3125a5,12:56:54,15/01/2024
,"<p style=""font-size:14rem;font-weight:400;"">2</p>",,fwdspan,number,KOMu6UQ4YmOBUUArf2GeRCgJFce2,html-keyboard-response,149,510859,0.0-7.0-2.11-0.11-1.83-0.83,,,,,,,62909d7551844220ac3125a5,12:56:54,15/01/2024
,"<p style=""font-size:14rem;font-weight:400;"">4</p>",,fwdspan,number,KOMu6UQ4YmOBUUArf2GeRCgJFce2,html-keyboard-response,150,511865,0.0-7.0-2.11-0.11-1.84-0.84,,,,,,,62909d7551844220ac3125a5,12:56:54,15/01/2024
,[],,fwdspan,delay,KOMu6UQ4YmOBUUArf2GeRCgJFce2,html-keyboard-response,151,512422,0.0-7.0-2.11-0.11-2.11,,,,,,,62909d7551844220ac3125a5,12:56:54,15/01/2024
7008.4000000003725,"<div class = numbox><p style=""font-size:2.5rem"">What were the numbers <b>in order</b>?<br>(When you are ready to lock in your answer, press <b>ENTER</b>)</p><button id = button_1 class = ""square num-button"" onclick = ""recordClick(this)""><div class = content><div class = numbers>1</div></div></button><button id = button_2 class = ""square num-button"" onclick = ""recordClick(this)""><div class = content><div class = numbers>2</div></div></button><button id = button_3 class = ""square num-button"" onclick = ""recordClick(this)""><div class = content><div class = numbers>3</div></div></button><button id = button_4 class = ""square num-button"" onclick = ""recordClick(this)""><div class = content><div class = numbers>4</div></div></button><button id = button_5 class = ""square num-button"" onclick = ""recordClick(this)""><div class = content><div class = numbers>5</div></div></button><button id = button_6 class = ""square num-button"" onclick = ""recordClick(this)""><div class = content><div class = numbers>6</div></div></button><button id = button_7 class = ""square num-button"" onclick = ""recordClick(this)""><div class = content><div class = numbers>7</div></div></button><button id = button_8 class = ""square num-button"" onclick = ""recordClick(this)""><div class = content><div class = numbers>8</div></div></button><button id = button_9 class = ""square num-button"" onclick = ""recordClick(this)""><div class = content><div class = numbers>9</div></div></button><button class = clear_button id = ""ClearButton"" onclick = ""clearResponse()"">Clear</button><p><u><b>Current Answer:</b></u></p><div id=echoed_txt style=""font-size: 6rem; color:blue;""><b></b></div></div><br><br><br><br><br><br><br>",enter,fwdspan,response,KOMu6UQ4YmOBUUArf2GeRCgJFce2,html-keyboard-response,152,519433,0.0-7.0-2.11-0.11-3.11,8.0,"[3,8,7,1,5,6,2,4]","[3,8,7,1,5,6,2,4]",1.0,"[3, 4, 5, 6, 7, 8, 9, 9, 8, 9, 9, 8]",,62909d7551844220ac3125a5,12:56:54,15/01/2024
,,,fwdspan,update_span,KOMu6UQ4YmOBUUArf2GeRCgJFce2,call-function,153,519690,0.0-7.0-2.11-0.11-4.11,,,,,,,62909d7551844220ac3125a5,12:56:54,15/01/2024
15015.799999998882,,{'Q0': 'It was difficult not knowing how many numbers were going to show.'},fwdspan,survey,KOMu6UQ4YmOBUUArf2GeRCgJFce2,lmdlab-survey-text,154,535463,0.0-7.0-3.0,,,,,,KOMu6UQ4YmOBUUArf2GeRCgJFce2,62909d7551844220ac3125a5,12:56:54,15/01/2024
1550.0999999996275,<p><p style='font-size: 3rem'>Great work!<br><br>This completes the digit span task.</p><br><br><br>,0,fwdspan,finish,KOMu6UQ4YmOBUUArf2GeRCgJFce2,html-button-response,155,537017,0.0-7.0-4.0,,,,,,,62909d7551844220ac3125a5,12:56:54,15/01/2024
