rt,stimulus,response,exp_name,exp_stage,subjectID,trial_type,trial_index,time_elapsed,internal_node_id,span,answer,correct,correct_full,span_history,prolificID,start_time,date
5815.70000000298,"<p style=""font-size:4rem""><br><br>In the next part today, we have a completely different short task.<br><br><br>This part involves keeping numbers in you mind. Participation takes around 5 minutes.<br><br><br></p>",0,fwdspan,instruct,c1nK8qpkSJfxFY0UOHJkTQILY8w1,html-button-response,19,496400,0.0-7.0-0.0,,,,,,608da9dd3e630867a6efd9b2,11:23:42,15/01/2024
29168.89999999106,"<p style=""font-size:5rem"">Welcome to the <b>digit span task</b>!<br><br></p><p style=""font-size:3.4rem""><br>On each trial, you will see a sequence of digits, followed by a delay.</p><p style=""font-size:3.4rem""><br>Then you will be asked to type them back in the same order in which they were seen.</p><p style=""font-size:3.4rem""><br><br><br>For example, if you saw the digits <b style=""color:blue;"">1</b>, <b style=""color:blue;"">2</b>, <b style=""color:blue;"">3</b>, you would respond with <b style=""color:blue;"">1</b>, <b style=""color:blue;"">2</b>, <b style=""color:blue;"">3</b></p><p style=""font-size:3.4rem""><br><br><br>To ensure the best measure of true performance for our study,<br><br>it is very important that you do not use any memory aid (e.g., pen and paper).<br><br>Please do the task solely in your head.</p><p style=""font-size:3.4rem""><br><br><br>There will be 12 total trials. Participation takes around 5 minutes.</p><br><br><br>",0,fwdspan,instruct,c1nK8qpkSJfxFY0UOHJkTQILY8w1,html-button-response,20,525571,0.0-7.0-1.0,,,,,,608da9dd3e630867a6efd9b2,11:23:42,15/01/2024
1918.7000000029802,"<p style=""font-size:3rem"">Trial 1 of 12</p><br><br><br>",0,fwdspan,start_trial,c1nK8qpkSJfxFY0UOHJkTQILY8w1,html-button-response,21,527495,0.0-7.0-2.0-0.0-0.0,,,,,,608da9dd3e630867a6efd9b2,11:23:42,15/01/2024
,"<p style=""font-size:14rem;font-weight:400;"">4</p>",,fwdspan,number,c1nK8qpkSJfxFY0UOHJkTQILY8w1,html-keyboard-response,22,528509,0.0-7.0-2.0-0.0-1.0-0.0,,,,,,608da9dd3e630867a6efd9b2,11:23:42,15/01/2024
,"<p style=""font-size:14rem;font-weight:400;"">5</p>",,fwdspan,number,c1nK8qpkSJfxFY0UOHJkTQILY8w1,html-keyboard-response,23,529528,0.0-7.0-2.0-0.0-1.1-0.1,,,,,,608da9dd3e630867a6efd9b2,11:23:42,15/01/2024
,"<p style=""font-size:14rem;font-weight:400;"">3</p>",,fwdspan,number,c1nK8qpkSJfxFY0UOHJkTQILY8w1,html-keyboard-response,24,530558,0.0-7.0-2.0-0.0-1.2-0.2,,,,,,608da9dd3e630867a6efd9b2,11:23:42,15/01/2024
,[],,fwdspan,delay,c1nK8qpkSJfxFY0UOHJkTQILY8w1,html-keyboard-response,25,531167,0.0-7.0-2.0-0.0-2.0,,,,,,608da9dd3e630867a6efd9b2,11:23:42,15/01/2024
6928.5,"<div class = numbox><p style=""font-size:2.5rem"">What were the numbers <b>in order</b>?<br>(When you are ready to lock in your answer, press <b>ENTER</b>)</p><button id = button_1 class = ""square num-button"" onclick = ""recordClick(this)""><div class = content><div class = numbers>1</div></div></button><button id = button_2 class = ""square num-button"" onclick = ""recordClick(this)""><div class = content><div class = numbers>2</div></div></button><button id = button_3 class = ""square num-button"" onclick = ""recordClick(this)""><div class = content><div class = numbers>3</div></div></button><button id = button_4 class = ""square num-button"" onclick = ""recordClick(this)""><div class = content><div class = numbers>4</div></div></button><button id = button_5 class = ""square num-button"" onclick = ""recordClick(this)""><div class = content><div class = numbers>5</div></div></button><button id = button_6 class = ""square num-button"" onclick = ""recordClick(this)""><div class = content><div class = numbers>6</div></div></button><button id = button_7 class = ""square num-button"" onclick = ""recordClick(this)""><div class = content><div class = numbers>7</div></div></button><button id = button_8 class = ""square num-button"" onclick = ""recordClick(this)""><div class = content><div class = numbers>8</div></div></button><button id = button_9 class = ""square num-button"" onclick = ""recordClick(this)""><div class = content><div class = numbers>9</div></div></button><button class = clear_button id = ""ClearButton"" onclick = ""clearResponse()"">Clear</button><p><u><b>Current Answer:</b></u></p><div id=echoed_txt style=""font-size: 6rem; color:blue;""><b></b></div></div><br><br><br><br><br><br><br>",enter,fwdspan,response,c1nK8qpkSJfxFY0UOHJkTQILY8w1,html-keyboard-response,26,538098,0.0-7.0-2.0-0.0-3.0,3.0,"[4,5,3]","[4,5,3]",1.0,"[3, 4, 5, 6, 7, 8, 8, 7, 8]",608da9dd3e630867a6efd9b2,11:23:42,15/01/2024
,,,fwdspan,update_span,c1nK8qpkSJfxFY0UOHJkTQILY8w1,call-function,27,538355,0.0-7.0-2.0-0.0-4.0,,,,,,608da9dd3e630867a6efd9b2,11:23:42,15/01/2024
1510.8999999910593,"<p style=""font-size:3rem"">Trial 2 of 12</p><br><br><br>",0,fwdspan,start_trial,c1nK8qpkSJfxFY0UOHJkTQILY8w1,html-button-response,28,539867,0.0-7.0-2.1-0.1-0.1,,,,,,608da9dd3e630867a6efd9b2,11:23:42,15/01/2024
,"<p style=""font-size:14rem;font-weight:400;"">6</p>",,fwdspan,number,c1nK8qpkSJfxFY0UOHJkTQILY8w1,html-keyboard-response,29,540884,0.0-7.0-2.1-0.1-1.3-0.3,,,,,,608da9dd3e630867a6efd9b2,11:23:42,15/01/2024
,"<p style=""font-size:14rem;font-weight:400;"">8</p>",,fwdspan,number,c1nK8qpkSJfxFY0UOHJkTQILY8w1,html-keyboard-response,30,541900,0.0-7.0-2.1-0.1-1.4-0.4,,,,,,608da9dd3e630867a6efd9b2,11:23:42,15/01/2024
,"<p style=""font-size:14rem;font-weight:400;"">9</p>",,fwdspan,number,c1nK8qpkSJfxFY0UOHJkTQILY8w1,html-keyboard-response,31,542920,0.0-7.0-2.1-0.1-1.5-0.5,,,,,,608da9dd3e630867a6efd9b2,11:23:42,15/01/2024
,"<p style=""font-size:14rem;font-weight:400;"">3</p>",,fwdspan,number,c1nK8qpkSJfxFY0UOHJkTQILY8w1,html-keyboard-response,32,543969,0.0-7.0-2.1-0.1-1.6-0.6,,,,,,608da9dd3e630867a6efd9b2,11:23:42,15/01/2024
,[],,fwdspan,delay,c1nK8qpkSJfxFY0UOHJkTQILY8w1,html-keyboard-response,33,544568,0.0-7.0-2.1-0.1-2.1,,,,,,608da9dd3e630867a6efd9b2,11:23:42,15/01/2024
4826.70000000298,"<div class = numbox><p style=""font-size:2.5rem"">What were the numbers <b>in order</b>?<br>(When you are ready to lock in your answer, press <b>ENTER</b>)</p><button id = button_1 class = ""square num-button"" onclick = ""recordClick(this)""><div class = content><div class = numbers>1</div></div></button><button id = button_2 class = ""square num-button"" onclick = ""recordClick(this)""><div class = content><div class = numbers>2</div></div></button><button id = button_3 class = ""square num-button"" onclick = ""recordClick(this)""><div class = content><div class = numbers>3</div></div></button><button id = button_4 class = ""square num-button"" onclick = ""recordClick(this)""><div class = content><div class = numbers>4</div></div></button><button id = button_5 class = ""square num-button"" onclick = ""recordClick(this)""><div class = content><div class = numbers>5</div></div></button><button id = button_6 class = ""square num-button"" onclick = ""recordClick(this)""><div class = content><div class = numbers>6</div></div></button><button id = button_7 class = ""square num-button"" onclick = ""recordClick(this)""><div class = content><div class = numbers>7</div></div></button><button id = button_8 class = ""square num-button"" onclick = ""recordClick(this)""><div class = content><div class = numbers>8</div></div></button><button id = button_9 class = ""square num-button"" onclick = ""recordClick(this)""><div class = content><div class = numbers>9</div></div></button><button class = clear_button id = ""ClearButton"" onclick = ""clearResponse()"">Clear</button><p><u><b>Current Answer:</b></u></p><div id=echoed_txt style=""font-size: 6rem; color:blue;""><b></b></div></div><br><br><br><br><br><br><br>",enter,fwdspan,response,c1nK8qpkSJfxFY0UOHJkTQILY8w1,html-keyboard-response,34,549396,0.0-7.0-2.1-0.1-3.1,4.0,"[6,8,9,3]","[6,8,9,3]",1.0,"[3, 4, 5, 6, 7, 8, 8, 7, 8]",608da9dd3e630867a6efd9b2,11:23:42,15/01/2024
,,,fwdspan,update_span,c1nK8qpkSJfxFY0UOHJkTQILY8w1,call-function,35,549658,0.0-7.0-2.1-0.1-4.1,,,,,,608da9dd3e630867a6efd9b2,11:23:42,15/01/2024
1284.4000000059605,"<p style=""font-size:3rem"">Trial 3 of 12</p><br><br><br>",0,fwdspan,start_trial,c1nK8qpkSJfxFY0UOHJkTQILY8w1,html-button-response,36,550943,0.0-7.0-2.2-0.2-0.2,,,,,,608da9dd3e630867a6efd9b2,11:23:42,15/01/2024
,"<p style=""font-size:14rem;font-weight:400;"">7</p>",,fwdspan,number,c1nK8qpkSJfxFY0UOHJkTQILY8w1,html-keyboard-response,37,551973,0.0-7.0-2.2-0.2-1.7-0.7,,,,,,608da9dd3e630867a6efd9b2,11:23:42,15/01/2024
,"<p style=""font-size:14rem;font-weight:400;"">3</p>",,fwdspan,number,c1nK8qpkSJfxFY0UOHJkTQILY8w1,html-keyboard-response,38,552989,0.0-7.0-2.2-0.2-1.8-0.8,,,,,,608da9dd3e630867a6efd9b2,11:23:42,15/01/2024
,"<p style=""font-size:14rem;font-weight:400;"">4</p>",,fwdspan,number,c1nK8qpkSJfxFY0UOHJkTQILY8w1,html-keyboard-response,39,554005,0.0-7.0-2.2-0.2-1.9-0.9,,,,,,608da9dd3e630867a6efd9b2,11:23:42,15/01/2024
,"<p style=""font-size:14rem;font-weight:400;"">9</p>",,fwdspan,number,c1nK8qpkSJfxFY0UOHJkTQILY8w1,html-keyboard-response,40,555036,0.0-7.0-2.2-0.2-1.10-0.10,,,,,,608da9dd3e630867a6efd9b2,11:23:42,15/01/2024
,"<p style=""font-size:14rem;font-weight:400;"">5</p>",,fwdspan,number,c1nK8qpkSJfxFY0UOHJkTQILY8w1,html-keyboard-response,41,556067,0.0-7.0-2.2-0.2-1.11-0.11,,,,,,608da9dd3e630867a6efd9b2,11:23:42,15/01/2024
,[],,fwdspan,delay,c1nK8qpkSJfxFY0UOHJkTQILY8w1,html-keyboard-response,42,556663,0.0-7.0-2.2-0.2-2.2,,,,,,608da9dd3e630867a6efd9b2,11:23:42,15/01/2024
6283.399999991059,"<div class = numbox><p style=""font-size:2.5rem"">What were the numbers <b>in order</b>?<br>(When you are ready to lock in your answer, press <b>ENTER</b>)</p><button id = button_1 class = ""square num-button"" onclick = ""recordClick(this)""><div class = content><div class = numbers>1</div></div></button><button id = button_2 class = ""square num-button"" onclick = ""recordClick(this)""><div class = content><div class = numbers>2</div></div></button><button id = button_3 class = ""square num-button"" onclick = ""recordClick(this)""><div class = content><div class = numbers>3</div></div></button><button id = button_4 class = ""square num-button"" onclick = ""recordClick(this)""><div class = content><div class = numbers>4</div></div></button><button id = button_5 class = ""square num-button"" onclick = ""recordClick(this)""><div class = content><div class = numbers>5</div></div></button><button id = button_6 class = ""square num-button"" onclick = ""recordClick(this)""><div class = content><div class = numbers>6</div></div></button><button id = button_7 class = ""square num-button"" onclick = ""recordClick(this)""><div class = content><div class = numbers>7</div></div></button><button id = button_8 class = ""square num-button"" onclick = ""recordClick(this)""><div class = content><div class = numbers>8</div></div></button><button id = button_9 class = ""square num-button"" onclick = ""recordClick(this)""><div class = content><div class = numbers>9</div></div></button><button class = clear_button id = ""ClearButton"" onclick = ""clearResponse()"">Clear</button><p><u><b>Current Answer:</b></u></p><div id=echoed_txt style=""font-size: 6rem; color:blue;""><b></b></div></div><br><br><br><br><br><br><br>",enter,fwdspan,response,c1nK8qpkSJfxFY0UOHJkTQILY8w1,html-keyboard-response,43,562949,0.0-7.0-2.2-0.2-3.2,5.0,"[7,3,4,9,5]","[7,3,4,9,5]",1.0,"[3, 4, 5, 6, 7, 8, 8, 7, 8]",608da9dd3e630867a6efd9b2,11:23:42,15/01/2024
,,,fwdspan,update_span,c1nK8qpkSJfxFY0UOHJkTQILY8w1,call-function,44,563206,0.0-7.0-2.2-0.2-4.2,,,,,,608da9dd3e630867a6efd9b2,11:23:42,15/01/2024
1238.0999999940395,"<p style=""font-size:3rem"">Trial 4 of 12</p><br><br><br>",0,fwdspan,start_trial,c1nK8qpkSJfxFY0UOHJkTQILY8w1,html-button-response,45,564445,0.0-7.0-2.3-0.3-0.3,,,,,,608da9dd3e630867a6efd9b2,11:23:42,15/01/2024
,"<p style=""font-size:14rem;font-weight:400;"">7</p>",,fwdspan,number,c1nK8qpkSJfxFY0UOHJkTQILY8w1,html-keyboard-response,46,565461,0.0-7.0-2.3-0.3-1.12-0.12,,,,,,608da9dd3e630867a6efd9b2,11:23:42,15/01/2024
,"<p style=""font-size:14rem;font-weight:400;"">3</p>",,fwdspan,number,c1nK8qpkSJfxFY0UOHJkTQILY8w1,html-keyboard-response,47,566484,0.0-7.0-2.3-0.3-1.13-0.13,,,,,,608da9dd3e630867a6efd9b2,11:23:42,15/01/2024
,"<p style=""font-size:14rem;font-weight:400;"">6</p>",,fwdspan,number,c1nK8qpkSJfxFY0UOHJkTQILY8w1,html-keyboard-response,48,567493,0.0-7.0-2.3-0.3-1.14-0.14,,,,,,608da9dd3e630867a6efd9b2,11:23:42,15/01/2024
,"<p style=""font-size:14rem;font-weight:400;"">2</p>",,fwdspan,number,c1nK8qpkSJfxFY0UOHJkTQILY8w1,html-keyboard-response,49,568509,0.0-7.0-2.3-0.3-1.15-0.15,,,,,,608da9dd3e630867a6efd9b2,11:23:42,15/01/2024
,"<p style=""font-size:14rem;font-weight:400;"">5</p>",,fwdspan,number,c1nK8qpkSJfxFY0UOHJkTQILY8w1,html-keyboard-response,50,569555,0.0-7.0-2.3-0.3-1.16-0.16,,,,,,608da9dd3e630867a6efd9b2,11:23:42,15/01/2024
,"<p style=""font-size:14rem;font-weight:400;"">9</p>",,fwdspan,number,c1nK8qpkSJfxFY0UOHJkTQILY8w1,html-keyboard-response,51,570573,0.0-7.0-2.3-0.3-1.17-0.17,,,,,,608da9dd3e630867a6efd9b2,11:23:42,15/01/2024
,[],,fwdspan,delay,c1nK8qpkSJfxFY0UOHJkTQILY8w1,html-keyboard-response,52,571145,0.0-7.0-2.3-0.3-2.3,,,,,,608da9dd3e630867a6efd9b2,11:23:42,15/01/2024
6161.29999999702,"<div class = numbox><p style=""font-size:2.5rem"">What were the numbers <b>in order</b>?<br>(When you are ready to lock in your answer, press <b>ENTER</b>)</p><button id = button_1 class = ""square num-button"" onclick = ""recordClick(this)""><div class = content><div class = numbers>1</div></div></button><button id = button_2 class = ""square num-button"" onclick = ""recordClick(this)""><div class = content><div class = numbers>2</div></div></button><button id = button_3 class = ""square num-button"" onclick = ""recordClick(this)""><div class = content><div class = numbers>3</div></div></button><button id = button_4 class = ""square num-button"" onclick = ""recordClick(this)""><div class = content><div class = numbers>4</div></div></button><button id = button_5 class = ""square num-button"" onclick = ""recordClick(this)""><div class = content><div class = numbers>5</div></div></button><button id = button_6 class = ""square num-button"" onclick = ""recordClick(this)""><div class = content><div class = numbers>6</div></div></button><button id = button_7 class = ""square num-button"" onclick = ""recordClick(this)""><div class = content><div class = numbers>7</div></div></button><button id = button_8 class = ""square num-button"" onclick = ""recordClick(this)""><div class = content><div class = numbers>8</div></div></button><button id = button_9 class = ""square num-button"" onclick = ""recordClick(this)""><div class = content><div class = numbers>9</div></div></button><button class = clear_button id = ""ClearButton"" onclick = ""clearResponse()"">Clear</button><p><u><b>Current Answer:</b></u></p><div id=echoed_txt style=""font-size: 6rem; color:blue;""><b></b></div></div><br><br><br><br><br><br><br>",enter,fwdspan,response,c1nK8qpkSJfxFY0UOHJkTQILY8w1,html-keyboard-response,53,577308,0.0-7.0-2.3-0.3-3.3,6.0,"[7,3,6,2,5,9]","[7,3,6,2,5,9]",1.0,"[3, 4, 5, 6, 7, 8, 8, 7, 8]",608da9dd3e630867a6efd9b2,11:23:42,15/01/2024
,,,fwdspan,update_span,c1nK8qpkSJfxFY0UOHJkTQILY8w1,call-function,54,577574,0.0-7.0-2.3-0.3-4.3,,,,,,608da9dd3e630867a6efd9b2,11:23:42,15/01/2024
1261.1000000089407,"<p style=""font-size:3rem"">Trial 5 of 12</p><br><br><br>",0,fwdspan,start_trial,c1nK8qpkSJfxFY0UOHJkTQILY8w1,html-button-response,55,578836,0.0-7.0-2.4-0.4-0.4,,,,,,608da9dd3e630867a6efd9b2,11:23:42,15/01/2024
,"<p style=""font-size:14rem;font-weight:400;"">7</p>",,fwdspan,number,c1nK8qpkSJfxFY0UOHJkTQILY8w1,html-keyboard-response,56,579864,0.0-7.0-2.4-0.4-1.18-0.18,,,,,,608da9dd3e630867a6efd9b2,11:23:42,15/01/2024
,"<p style=""font-size:14rem;font-weight:400;"">6</p>",,fwdspan,number,c1nK8qpkSJfxFY0UOHJkTQILY8w1,html-keyboard-response,57,580878,0.0-7.0-2.4-0.4-1.19-0.19,,,,,,608da9dd3e630867a6efd9b2,11:23:42,15/01/2024
,"<p style=""font-size:14rem;font-weight:400;"">8</p>",,fwdspan,number,c1nK8qpkSJfxFY0UOHJkTQILY8w1,html-keyboard-response,58,581894,0.0-7.0-2.4-0.4-1.20-0.20,,,,,,608da9dd3e630867a6efd9b2,11:23:42,15/01/2024
,"<p style=""font-size:14rem;font-weight:400;"">3</p>",,fwdspan,number,c1nK8qpkSJfxFY0UOHJkTQILY8w1,html-keyboard-response,59,582909,0.0-7.0-2.4-0.4-1.21-0.21,,,,,,608da9dd3e630867a6efd9b2,11:23:42,15/01/2024
,"<p style=""font-size:14rem;font-weight:400;"">4</p>",,fwdspan,number,c1nK8qpkSJfxFY0UOHJkTQILY8w1,html-keyboard-response,60,583926,0.0-7.0-2.4-0.4-1.22-0.22,,,,,,608da9dd3e630867a6efd9b2,11:23:42,15/01/2024
,"<p style=""font-size:14rem;font-weight:400;"">5</p>",,fwdspan,number,c1nK8qpkSJfxFY0UOHJkTQILY8w1,html-keyboard-response,61,584982,0.0-7.0-2.4-0.4-1.23-0.23,,,,,,608da9dd3e630867a6efd9b2,11:23:42,15/01/2024
,"<p style=""font-size:14rem;font-weight:400;"">1</p>",,fwdspan,number,c1nK8qpkSJfxFY0UOHJkTQILY8w1,html-keyboard-response,62,585994,0.0-7.0-2.4-0.4-1.24-0.24,,,,,,608da9dd3e630867a6efd9b2,11:23:42,15/01/2024
,[],,fwdspan,delay,c1nK8qpkSJfxFY0UOHJkTQILY8w1,html-keyboard-response,63,586578,0.0-7.0-2.4-0.4-2.4,,,,,,608da9dd3e630867a6efd9b2,11:23:42,15/01/2024
7860.800000011921,"<div class = numbox><p style=""font-size:2.5rem"">What were the numbers <b>in order</b>?<br>(When you are ready to lock in your answer, press <b>ENTER</b>)</p><button id = button_1 class = ""square num-button"" onclick = ""recordClick(this)""><div class = content><div class = numbers>1</div></div></button><button id = button_2 class = ""square num-button"" onclick = ""recordClick(this)""><div class = content><div class = numbers>2</div></div></button><button id = button_3 class = ""square num-button"" onclick = ""recordClick(this)""><div class = content><div class = numbers>3</div></div></button><button id = button_4 class = ""square num-button"" onclick = ""recordClick(this)""><div class = content><div class = numbers>4</div></div></button><button id = button_5 class = ""square num-button"" onclick = ""recordClick(this)""><div class = content><div class = numbers>5</div></div></button><button id = button_6 class = ""square num-button"" onclick = ""recordClick(this)""><div class = content><div class = numbers>6</div></div></button><button id = button_7 class = ""square num-button"" onclick = ""recordClick(this)""><div class = content><div class = numbers>7</div></div></button><button id = button_8 class = ""square num-button"" onclick = ""recordClick(this)""><div class = content><div class = numbers>8</div></div></button><button id = button_9 class = ""square num-button"" onclick = ""recordClick(this)""><div class = content><div class = numbers>9</div></div></button><button class = clear_button id = ""ClearButton"" onclick = ""clearResponse()"">Clear</button><p><u><b>Current Answer:</b></u></p><div id=echoed_txt style=""font-size: 6rem; color:blue;""><b></b></div></div><br><br><br><br><br><br><br>",enter,fwdspan,response,c1nK8qpkSJfxFY0UOHJkTQILY8w1,html-keyboard-response,64,594440,0.0-7.0-2.4-0.4-3.4,7.0,"[7,6,8,3,4,5,1]","[7,6,8,3,4,5,1]",1.0,"[3, 4, 5, 6, 7, 8, 8, 7, 8]",608da9dd3e630867a6efd9b2,11:23:42,15/01/2024
,,,fwdspan,update_span,c1nK8qpkSJfxFY0UOHJkTQILY8w1,call-function,65,594702,0.0-7.0-2.4-0.4-4.4,,,,,,608da9dd3e630867a6efd9b2,11:23:42,15/01/2024
1169.7999999970198,"<p style=""font-size:3rem"">Trial 6 of 12</p><br><br><br>",0,fwdspan,start_trial,c1nK8qpkSJfxFY0UOHJkTQILY8w1,html-button-response,66,595873,0.0-7.0-2.5-0.5-0.5,,,,,,608da9dd3e630867a6efd9b2,11:23:42,15/01/2024
,"<p style=""font-size:14rem;font-weight:400;"">1</p>",,fwdspan,number,c1nK8qpkSJfxFY0UOHJkTQILY8w1,html-keyboard-response,67,596897,0.0-7.0-2.5-0.5-1.25-0.25,,,,,,608da9dd3e630867a6efd9b2,11:23:42,15/01/2024
,"<p style=""font-size:14rem;font-weight:400;"">2</p>",,fwdspan,number,c1nK8qpkSJfxFY0UOHJkTQILY8w1,html-keyboard-response,68,597915,0.0-7.0-2.5-0.5-1.26-0.26,,,,,,608da9dd3e630867a6efd9b2,11:23:42,15/01/2024
,"<p style=""font-size:14rem;font-weight:400;"">5</p>",,fwdspan,number,c1nK8qpkSJfxFY0UOHJkTQILY8w1,html-keyboard-response,69,598962,0.0-7.0-2.5-0.5-1.27-0.27,,,,,,608da9dd3e630867a6efd9b2,11:23:42,15/01/2024
,"<p style=""font-size:14rem;font-weight:400;"">9</p>",,fwdspan,number,c1nK8qpkSJfxFY0UOHJkTQILY8w1,html-keyboard-response,70,600010,0.0-7.0-2.5-0.5-1.28-0.28,,,,,,608da9dd3e630867a6efd9b2,11:23:42,15/01/2024
,"<p style=""font-size:14rem;font-weight:400;"">4</p>",,fwdspan,number,c1nK8qpkSJfxFY0UOHJkTQILY8w1,html-keyboard-response,71,601059,0.0-7.0-2.5-0.5-1.29-0.29,,,,,,608da9dd3e630867a6efd9b2,11:23:42,15/01/2024
,"<p style=""font-size:14rem;font-weight:400;"">8</p>",,fwdspan,number,c1nK8qpkSJfxFY0UOHJkTQILY8w1,html-keyboard-response,72,602108,0.0-7.0-2.5-0.5-1.30-0.30,,,,,,608da9dd3e630867a6efd9b2,11:23:42,15/01/2024
,"<p style=""font-size:14rem;font-weight:400;"">7</p>",,fwdspan,number,c1nK8qpkSJfxFY0UOHJkTQILY8w1,html-keyboard-response,73,603127,0.0-7.0-2.5-0.5-1.31-0.31,,,,,,608da9dd3e630867a6efd9b2,11:23:42,15/01/2024
,"<p style=""font-size:14rem;font-weight:400;"">3</p>",,fwdspan,number,c1nK8qpkSJfxFY0UOHJkTQILY8w1,html-keyboard-response,74,604157,0.0-7.0-2.5-0.5-1.32-0.32,,,,,,608da9dd3e630867a6efd9b2,11:23:42,15/01/2024
,[],,fwdspan,delay,c1nK8qpkSJfxFY0UOHJkTQILY8w1,html-keyboard-response,75,604751,0.0-7.0-2.5-0.5-2.5,,,,,,608da9dd3e630867a6efd9b2,11:23:42,15/01/2024
8212.5,"<div class = numbox><p style=""font-size:2.5rem"">What were the numbers <b>in order</b>?<br>(When you are ready to lock in your answer, press <b>ENTER</b>)</p><button id = button_1 class = ""square num-button"" onclick = ""recordClick(this)""><div class = content><div class = numbers>1</div></div></button><button id = button_2 class = ""square num-button"" onclick = ""recordClick(this)""><div class = content><div class = numbers>2</div></div></button><button id = button_3 class = ""square num-button"" onclick = ""recordClick(this)""><div class = content><div class = numbers>3</div></div></button><button id = button_4 class = ""square num-button"" onclick = ""recordClick(this)""><div class = content><div class = numbers>4</div></div></button><button id = button_5 class = ""square num-button"" onclick = ""recordClick(this)""><div class = content><div class = numbers>5</div></div></button><button id = button_6 class = ""square num-button"" onclick = ""recordClick(this)""><div class = content><div class = numbers>6</div></div></button><button id = button_7 class = ""square num-button"" onclick = ""recordClick(this)""><div class = content><div class = numbers>7</div></div></button><button id = button_8 class = ""square num-button"" onclick = ""recordClick(this)""><div class = content><div class = numbers>8</div></div></button><button id = button_9 class = ""square num-button"" onclick = ""recordClick(this)""><div class = content><div class = numbers>9</div></div></button><button class = clear_button id = ""ClearButton"" onclick = ""clearResponse()"">Clear</button><p><u><b>Current Answer:</b></u></p><div id=echoed_txt style=""font-size: 6rem; color:blue;""><b></b></div></div><br><br><br><br><br><br><br>",enter,fwdspan,response,c1nK8qpkSJfxFY0UOHJkTQILY8w1,html-keyboard-response,76,612966,0.0-7.0-2.5-0.5-3.5,8.0,"[1,2,5,9,4,6,7,1]","[1,2,5,9,4,8,7,3]",0.0,"[3, 4, 5, 6, 7, 8, 8, 7, 8]",608da9dd3e630867a6efd9b2,11:23:42,15/01/2024
,,,fwdspan,update_span,c1nK8qpkSJfxFY0UOHJkTQILY8w1,call-function,77,613224,0.0-7.0-2.5-0.5-4.5,,,,,,608da9dd3e630867a6efd9b2,11:23:42,15/01/2024
1364.6000000089407,"<p style=""font-size:3rem"">Trial 7 of 12</p><br><br><br>",0,fwdspan,start_trial,c1nK8qpkSJfxFY0UOHJkTQILY8w1,html-button-response,78,614590,0.0-7.0-2.6-0.6-0.6,,,,,,608da9dd3e630867a6efd9b2,11:23:42,15/01/2024
,"<p style=""font-size:14rem;font-weight:400;"">7</p>",,fwdspan,number,c1nK8qpkSJfxFY0UOHJkTQILY8w1,html-keyboard-response,79,615614,0.0-7.0-2.6-0.6-1.33-0.33,,,,,,608da9dd3e630867a6efd9b2,11:23:42,15/01/2024
,"<p style=""font-size:14rem;font-weight:400;"">2</p>",,fwdspan,number,c1nK8qpkSJfxFY0UOHJkTQILY8w1,html-keyboard-response,80,616636,0.0-7.0-2.6-0.6-1.34-0.34,,,,,,608da9dd3e630867a6efd9b2,11:23:42,15/01/2024
,"<p style=""font-size:14rem;font-weight:400;"">4</p>",,fwdspan,number,c1nK8qpkSJfxFY0UOHJkTQILY8w1,html-keyboard-response,81,617709,0.0-7.0-2.6-0.6-1.35-0.35,,,,,,608da9dd3e630867a6efd9b2,11:23:42,15/01/2024
,"<p style=""font-size:14rem;font-weight:400;"">5</p>",,fwdspan,number,c1nK8qpkSJfxFY0UOHJkTQILY8w1,html-keyboard-response,82,618729,0.0-7.0-2.6-0.6-1.36-0.36,,,,,,608da9dd3e630867a6efd9b2,11:23:42,15/01/2024
,"<p style=""font-size:14rem;font-weight:400;"">3</p>",,fwdspan,number,c1nK8qpkSJfxFY0UOHJkTQILY8w1,html-keyboard-response,83,619745,0.0-7.0-2.6-0.6-1.37-0.37,,,,,,608da9dd3e630867a6efd9b2,11:23:42,15/01/2024
,"<p style=""font-size:14rem;font-weight:400;"">9</p>",,fwdspan,number,c1nK8qpkSJfxFY0UOHJkTQILY8w1,html-keyboard-response,84,620776,0.0-7.0-2.6-0.6-1.38-0.38,,,,,,608da9dd3e630867a6efd9b2,11:23:42,15/01/2024
,"<p style=""font-size:14rem;font-weight:400;"">6</p>",,fwdspan,number,c1nK8qpkSJfxFY0UOHJkTQILY8w1,html-keyboard-response,85,621823,0.0-7.0-2.6-0.6-1.39-0.39,,,,,,608da9dd3e630867a6efd9b2,11:23:42,15/01/2024
,"<p style=""font-size:14rem;font-weight:400;"">1</p>",,fwdspan,number,c1nK8qpkSJfxFY0UOHJkTQILY8w1,html-keyboard-response,86,622873,0.0-7.0-2.6-0.6-1.40-0.40,,,,,,608da9dd3e630867a6efd9b2,11:23:42,15/01/2024
,[],,fwdspan,delay,c1nK8qpkSJfxFY0UOHJkTQILY8w1,html-keyboard-response,87,623434,0.0-7.0-2.6-0.6-2.6,,,,,,608da9dd3e630867a6efd9b2,11:23:42,15/01/2024
6595.600000008941,"<div class = numbox><p style=""font-size:2.5rem"">What were the numbers <b>in order</b>?<br>(When you are ready to lock in your answer, press <b>ENTER</b>)</p><button id = button_1 class = ""square num-button"" onclick = ""recordClick(this)""><div class = content><div class = numbers>1</div></div></button><button id = button_2 class = ""square num-button"" onclick = ""recordClick(this)""><div class = content><div class = numbers>2</div></div></button><button id = button_3 class = ""square num-button"" onclick = ""recordClick(this)""><div class = content><div class = numbers>3</div></div></button><button id = button_4 class = ""square num-button"" onclick = ""recordClick(this)""><div class = content><div class = numbers>4</div></div></button><button id = button_5 class = ""square num-button"" onclick = ""recordClick(this)""><div class = content><div class = numbers>5</div></div></button><button id = button_6 class = ""square num-button"" onclick = ""recordClick(this)""><div class = content><div class = numbers>6</div></div></button><button id = button_7 class = ""square num-button"" onclick = ""recordClick(this)""><div class = content><div class = numbers>7</div></div></button><button id = button_8 class = ""square num-button"" onclick = ""recordClick(this)""><div class = content><div class = numbers>8</div></div></button><button id = button_9 class = ""square num-button"" onclick = ""recordClick(this)""><div class = content><div class = numbers>9</div></div></button><button class = clear_button id = ""ClearButton"" onclick = ""clearResponse()"">Clear</button><p><u><b>Current Answer:</b></u></p><div id=echoed_txt style=""font-size: 6rem; color:blue;""><b></b></div></div><br><br><br><br><br><br><br>",enter,fwdspan,response,c1nK8qpkSJfxFY0UOHJkTQILY8w1,html-keyboard-response,88,630031,0.0-7.0-2.6-0.6-3.6,8.0,"[7,2,4,5,6,9,1]","[7,2,4,5,3,9,6,1]",0.0,"[3, 4, 5, 6, 7, 8, 8, 7, 8]",608da9dd3e630867a6efd9b2,11:23:42,15/01/2024
,,,fwdspan,update_span,c1nK8qpkSJfxFY0UOHJkTQILY8w1,call-function,89,630284,0.0-7.0-2.6-0.6-4.6,,,,,,608da9dd3e630867a6efd9b2,11:23:42,15/01/2024
1169.4000000059605,"<p style=""font-size:3rem"">Trial 8 of 12</p><br><br><br>",0,fwdspan,start_trial,c1nK8qpkSJfxFY0UOHJkTQILY8w1,html-button-response,90,631455,0.0-7.0-2.7-0.7-0.7,,,,,,608da9dd3e630867a6efd9b2,11:23:42,15/01/2024
,"<p style=""font-size:14rem;font-weight:400;"">4</p>",,fwdspan,number,c1nK8qpkSJfxFY0UOHJkTQILY8w1,html-keyboard-response,91,632480,0.0-7.0-2.7-0.7-1.41-0.41,,,,,,608da9dd3e630867a6efd9b2,11:23:42,15/01/2024
,"<p style=""font-size:14rem;font-weight:400;"">9</p>",,fwdspan,number,c1nK8qpkSJfxFY0UOHJkTQILY8w1,html-keyboard-response,92,633496,0.0-7.0-2.7-0.7-1.42-0.42,,,,,,608da9dd3e630867a6efd9b2,11:23:42,15/01/2024
,"<p style=""font-size:14rem;font-weight:400;"">6</p>",,fwdspan,number,c1nK8qpkSJfxFY0UOHJkTQILY8w1,html-keyboard-response,93,634512,0.0-7.0-2.7-0.7-1.43-0.43,,,,,,608da9dd3e630867a6efd9b2,11:23:42,15/01/2024
,"<p style=""font-size:14rem;font-weight:400;"">2</p>",,fwdspan,number,c1nK8qpkSJfxFY0UOHJkTQILY8w1,html-keyboard-response,94,635527,0.0-7.0-2.7-0.7-1.44-0.44,,,,,,608da9dd3e630867a6efd9b2,11:23:42,15/01/2024
,"<p style=""font-size:14rem;font-weight:400;"">8</p>",,fwdspan,number,c1nK8qpkSJfxFY0UOHJkTQILY8w1,html-keyboard-response,95,636577,0.0-7.0-2.7-0.7-1.45-0.45,,,,,,608da9dd3e630867a6efd9b2,11:23:42,15/01/2024
,"<p style=""font-size:14rem;font-weight:400;"">1</p>",,fwdspan,number,c1nK8qpkSJfxFY0UOHJkTQILY8w1,html-keyboard-response,96,637608,0.0-7.0-2.7-0.7-1.46-0.46,,,,,,608da9dd3e630867a6efd9b2,11:23:42,15/01/2024
,"<p style=""font-size:14rem;font-weight:400;"">7</p>",,fwdspan,number,c1nK8qpkSJfxFY0UOHJkTQILY8w1,html-keyboard-response,97,638644,0.0-7.0-2.7-0.7-1.47-0.47,,,,,,608da9dd3e630867a6efd9b2,11:23:42,15/01/2024
,[],,fwdspan,delay,c1nK8qpkSJfxFY0UOHJkTQILY8w1,html-keyboard-response,98,639220,0.0-7.0-2.7-0.7-2.7,,,,,,608da9dd3e630867a6efd9b2,11:23:42,15/01/2024
7375.199999988079,"<div class = numbox><p style=""font-size:2.5rem"">What were the numbers <b>in order</b>?<br>(When you are ready to lock in your answer, press <b>ENTER</b>)</p><button id = button_1 class = ""square num-button"" onclick = ""recordClick(this)""><div class = content><div class = numbers>1</div></div></button><button id = button_2 class = ""square num-button"" onclick = ""recordClick(this)""><div class = content><div class = numbers>2</div></div></button><button id = button_3 class = ""square num-button"" onclick = ""recordClick(this)""><div class = content><div class = numbers>3</div></div></button><button id = button_4 class = ""square num-button"" onclick = ""recordClick(this)""><div class = content><div class = numbers>4</div></div></button><button id = button_5 class = ""square num-button"" onclick = ""recordClick(this)""><div class = content><div class = numbers>5</div></div></button><button id = button_6 class = ""square num-button"" onclick = ""recordClick(this)""><div class = content><div class = numbers>6</div></div></button><button id = button_7 class = ""square num-button"" onclick = ""recordClick(this)""><div class = content><div class = numbers>7</div></div></button><button id = button_8 class = ""square num-button"" onclick = ""recordClick(this)""><div class = content><div class = numbers>8</div></div></button><button id = button_9 class = ""square num-button"" onclick = ""recordClick(this)""><div class = content><div class = numbers>9</div></div></button><button class = clear_button id = ""ClearButton"" onclick = ""clearResponse()"">Clear</button><p><u><b>Current Answer:</b></u></p><div id=echoed_txt style=""font-size: 6rem; color:blue;""><b></b></div></div><br><br><br><br><br><br><br>",enter,fwdspan,response,c1nK8qpkSJfxFY0UOHJkTQILY8w1,html-keyboard-response,99,646596,0.0-7.0-2.7-0.7-3.7,7.0,"[4,9,6,2,8,1,7]","[4,9,6,2,8,1,7]",1.0,"[3, 4, 5, 6, 7, 8, 8, 7, 8]",608da9dd3e630867a6efd9b2,11:23:42,15/01/2024
,,,fwdspan,update_span,c1nK8qpkSJfxFY0UOHJkTQILY8w1,call-function,100,646853,0.0-7.0-2.7-0.7-4.7,,,,,,608da9dd3e630867a6efd9b2,11:23:42,15/01/2024
1396.9000000059605,"<p style=""font-size:3rem"">Trial 9 of 12</p><br><br><br>",0,fwdspan,start_trial,c1nK8qpkSJfxFY0UOHJkTQILY8w1,html-button-response,101,648252,0.0-7.0-2.8-0.8-0.8,,,,,,608da9dd3e630867a6efd9b2,11:23:42,15/01/2024
,"<p style=""font-size:14rem;font-weight:400;"">1</p>",,fwdspan,number,c1nK8qpkSJfxFY0UOHJkTQILY8w1,html-keyboard-response,102,649274,0.0-7.0-2.8-0.8-1.48-0.48,,,,,,608da9dd3e630867a6efd9b2,11:23:42,15/01/2024
,"<p style=""font-size:14rem;font-weight:400;"">4</p>",,fwdspan,number,c1nK8qpkSJfxFY0UOHJkTQILY8w1,html-keyboard-response,103,650296,0.0-7.0-2.8-0.8-1.49-0.49,,,,,,608da9dd3e630867a6efd9b2,11:23:42,15/01/2024
,"<p style=""font-size:14rem;font-weight:400;"">3</p>",,fwdspan,number,c1nK8qpkSJfxFY0UOHJkTQILY8w1,html-keyboard-response,104,651298,0.0-7.0-2.8-0.8-1.50-0.50,,,,,,608da9dd3e630867a6efd9b2,11:23:42,15/01/2024
,"<p style=""font-size:14rem;font-weight:400;"">5</p>",,fwdspan,number,c1nK8qpkSJfxFY0UOHJkTQILY8w1,html-keyboard-response,105,652330,0.0-7.0-2.8-0.8-1.51-0.51,,,,,,608da9dd3e630867a6efd9b2,11:23:42,15/01/2024
,"<p style=""font-size:14rem;font-weight:400;"">9</p>",,fwdspan,number,c1nK8qpkSJfxFY0UOHJkTQILY8w1,html-keyboard-response,106,653377,0.0-7.0-2.8-0.8-1.52-0.52,,,,,,608da9dd3e630867a6efd9b2,11:23:42,15/01/2024
,"<p style=""font-size:14rem;font-weight:400;"">2</p>",,fwdspan,number,c1nK8qpkSJfxFY0UOHJkTQILY8w1,html-keyboard-response,107,654425,0.0-7.0-2.8-0.8-1.53-0.53,,,,,,608da9dd3e630867a6efd9b2,11:23:42,15/01/2024
,"<p style=""font-size:14rem;font-weight:400;"">8</p>",,fwdspan,number,c1nK8qpkSJfxFY0UOHJkTQILY8w1,html-keyboard-response,108,655474,0.0-7.0-2.8-0.8-1.54-0.54,,,,,,608da9dd3e630867a6efd9b2,11:23:42,15/01/2024
,"<p style=""font-size:14rem;font-weight:400;"">7</p>",,fwdspan,number,c1nK8qpkSJfxFY0UOHJkTQILY8w1,html-keyboard-response,109,656506,0.0-7.0-2.8-0.8-1.55-0.55,,,,,,608da9dd3e630867a6efd9b2,11:23:42,15/01/2024
,[],,fwdspan,delay,c1nK8qpkSJfxFY0UOHJkTQILY8w1,html-keyboard-response,110,657103,0.0-7.0-2.8-0.8-2.8,,,,,,608da9dd3e630867a6efd9b2,11:23:42,15/01/2024
7990.5999999940395,"<div class = numbox><p style=""font-size:2.5rem"">What were the numbers <b>in order</b>?<br>(When you are ready to lock in your answer, press <b>ENTER</b>)</p><button id = button_1 class = ""square num-button"" onclick = ""recordClick(this)""><div class = content><div class = numbers>1</div></div></button><button id = button_2 class = ""square num-button"" onclick = ""recordClick(this)""><div class = content><div class = numbers>2</div></div></button><button id = button_3 class = ""square num-button"" onclick = ""recordClick(this)""><div class = content><div class = numbers>3</div></div></button><button id = button_4 class = ""square num-button"" onclick = ""recordClick(this)""><div class = content><div class = numbers>4</div></div></button><button id = button_5 class = ""square num-button"" onclick = ""recordClick(this)""><div class = content><div class = numbers>5</div></div></button><button id = button_6 class = ""square num-button"" onclick = ""recordClick(this)""><div class = content><div class = numbers>6</div></div></button><button id = button_7 class = ""square num-button"" onclick = ""recordClick(this)""><div class = content><div class = numbers>7</div></div></button><button id = button_8 class = ""square num-button"" onclick = ""recordClick(this)""><div class = content><div class = numbers>8</div></div></button><button id = button_9 class = ""square num-button"" onclick = ""recordClick(this)""><div class = content><div class = numbers>9</div></div></button><button class = clear_button id = ""ClearButton"" onclick = ""clearResponse()"">Clear</button><p><u><b>Current Answer:</b></u></p><div id=echoed_txt style=""font-size: 6rem; color:blue;""><b></b></div></div><br><br><br><br><br><br><br>",enter,fwdspan,response,c1nK8qpkSJfxFY0UOHJkTQILY8w1,html-keyboard-response,111,665096,0.0-7.0-2.8-0.8-3.8,8.0,"[1,4,3,5,9,2,8,7]","[1,4,3,5,9,2,8,7]",1.0,"[3, 4, 5, 6, 7, 8, 8, 7, 8]",608da9dd3e630867a6efd9b2,11:23:42,15/01/2024
