rt,stimulus,response,exp_name,exp_stage,subjectID,trial_type,trial_index,time_elapsed,internal_node_id,span,answer,correct,correct_full,span_history,databaseID,prolificID,start_time,date
7064.60000000149,"<p style=""font-size:4rem""><br><br>In the next part today, we have a completely different short task.<br><br><br>This part involves keeping numbers in you mind. Participation takes around 5 minutes.<br><br><br></p>",0,fwdspan,instruct,GxfubOWloJeHxXBPpHpGnMTKMtJ2,html-button-response,19,331327,0.0-7.0-0.0,,,,,,,571a720a6a1c6300134b8d2c,11:19:44,15/01/2024
5952.4000000003725,"<p style=""font-size:5rem"">Welcome to the <b>digit span task</b>!<br><br></p><p style=""font-size:3.4rem""><br>On each trial, you will see a sequence of digits, followed by a delay.</p><p style=""font-size:3.4rem""><br>Then you will be asked to type them back in the same order in which they were seen.</p><p style=""font-size:3.4rem""><br><br><br>For example, if you saw the digits <b style=""color:blue;"">1</b>, <b style=""color:blue;"">2</b>, <b style=""color:blue;"">3</b>, you would respond with <b style=""color:blue;"">1</b>, <b style=""color:blue;"">2</b>, <b style=""color:blue;"">3</b></p><p style=""font-size:3.4rem""><br><br><br>To ensure the best measure of true performance for our study,<br><br>it is very important that you do not use any memory aid (e.g., pen and paper).<br><br>Please do the task solely in your head.</p><p style=""font-size:3.4rem""><br><br><br>There will be 12 total trials. Participation takes around 5 minutes.</p><br><br><br>",0,fwdspan,instruct,GxfubOWloJeHxXBPpHpGnMTKMtJ2,html-button-response,20,337281,0.0-7.0-1.0,,,,,,,571a720a6a1c6300134b8d2c,11:19:44,15/01/2024
826.5,"<p style=""font-size:3rem"">Trial 1 of 12</p><br><br><br>",0,fwdspan,start_trial,GxfubOWloJeHxXBPpHpGnMTKMtJ2,html-button-response,21,338111,0.0-7.0-2.0-0.0-0.0,,,,,,,571a720a6a1c6300134b8d2c,11:19:44,15/01/2024
,"<p style=""font-size:14rem;font-weight:400;"">3</p>",,fwdspan,number,GxfubOWloJeHxXBPpHpGnMTKMtJ2,html-keyboard-response,22,339135,0.0-7.0-2.0-0.0-1.0-0.0,,,,,,,571a720a6a1c6300134b8d2c,11:19:44,15/01/2024
,"<p style=""font-size:14rem;font-weight:400;"">9</p>",,fwdspan,number,GxfubOWloJeHxXBPpHpGnMTKMtJ2,html-keyboard-response,23,340154,0.0-7.0-2.0-0.0-1.1-0.1,,,,,,,571a720a6a1c6300134b8d2c,11:19:44,15/01/2024
,"<p style=""font-size:14rem;font-weight:400;"">8</p>",,fwdspan,number,GxfubOWloJeHxXBPpHpGnMTKMtJ2,html-keyboard-response,24,341178,0.0-7.0-2.0-0.0-1.2-0.2,,,,,,,571a720a6a1c6300134b8d2c,11:19:44,15/01/2024
,[],,fwdspan,delay,GxfubOWloJeHxXBPpHpGnMTKMtJ2,html-keyboard-response,25,341731,0.0-7.0-2.0-0.0-2.0,,,,,,,571a720a6a1c6300134b8d2c,11:19:44,15/01/2024
4640.0999999996275,"<div class = numbox><p style=""font-size:2.5rem"">What were the numbers <b>in order</b>?<br>(When you are ready to lock in your answer, press <b>ENTER</b>)</p><button id = button_1 class = ""square num-button"" onclick = ""recordClick(this)""><div class = content><div class = numbers>1</div></div></button><button id = button_2 class = ""square num-button"" onclick = ""recordClick(this)""><div class = content><div class = numbers>2</div></div></button><button id = button_3 class = ""square num-button"" onclick = ""recordClick(this)""><div class = content><div class = numbers>3</div></div></button><button id = button_4 class = ""square num-button"" onclick = ""recordClick(this)""><div class = content><div class = numbers>4</div></div></button><button id = button_5 class = ""square num-button"" onclick = ""recordClick(this)""><div class = content><div class = numbers>5</div></div></button><button id = button_6 class = ""square num-button"" onclick = ""recordClick(this)""><div class = content><div class = numbers>6</div></div></button><button id = button_7 class = ""square num-button"" onclick = ""recordClick(this)""><div class = content><div class = numbers>7</div></div></button><button id = button_8 class = ""square num-button"" onclick = ""recordClick(this)""><div class = content><div class = numbers>8</div></div></button><button id = button_9 class = ""square num-button"" onclick = ""recordClick(this)""><div class = content><div class = numbers>9</div></div></button><button class = clear_button id = ""ClearButton"" onclick = ""clearResponse()"">Clear</button><p><u><b>Current Answer:</b></u></p><div id=echoed_txt style=""font-size: 6rem; color:blue;""><b></b></div></div><br><br><br><br><br><br><br>",enter,fwdspan,response,GxfubOWloJeHxXBPpHpGnMTKMtJ2,html-keyboard-response,26,346372,0.0-7.0-2.0-0.0-3.0,3.0,"[3,9,8]","[3,9,8]",1.0,"[3, 4, 5, 6, 7, 8, 9, 10, 10, 9, 10, 10]",,571a720a6a1c6300134b8d2c,11:19:44,15/01/2024
,,,fwdspan,update_span,GxfubOWloJeHxXBPpHpGnMTKMtJ2,call-function,27,346636,0.0-7.0-2.0-0.0-4.0,,,,,,,571a720a6a1c6300134b8d2c,11:19:44,15/01/2024
1339.7999999988824,"<p style=""font-size:3rem"">Trial 2 of 12</p><br><br><br>",0,fwdspan,start_trial,GxfubOWloJeHxXBPpHpGnMTKMtJ2,html-button-response,28,347977,0.0-7.0-2.1-0.1-0.1,,,,,,,571a720a6a1c6300134b8d2c,11:19:44,15/01/2024
,"<p style=""font-size:14rem;font-weight:400;"">8</p>",,fwdspan,number,GxfubOWloJeHxXBPpHpGnMTKMtJ2,html-keyboard-response,29,348980,0.0-7.0-2.1-0.1-1.3-0.3,,,,,,,571a720a6a1c6300134b8d2c,11:19:44,15/01/2024
,"<p style=""font-size:14rem;font-weight:400;"">6</p>",,fwdspan,number,GxfubOWloJeHxXBPpHpGnMTKMtJ2,html-keyboard-response,30,349994,0.0-7.0-2.1-0.1-1.4-0.4,,,,,,,571a720a6a1c6300134b8d2c,11:19:44,15/01/2024
,"<p style=""font-size:14rem;font-weight:400;"">9</p>",,fwdspan,number,GxfubOWloJeHxXBPpHpGnMTKMtJ2,html-keyboard-response,31,350995,0.0-7.0-2.1-0.1-1.5-0.5,,,,,,,571a720a6a1c6300134b8d2c,11:19:44,15/01/2024
,"<p style=""font-size:14rem;font-weight:400;"">4</p>",,fwdspan,number,GxfubOWloJeHxXBPpHpGnMTKMtJ2,html-keyboard-response,32,351999,0.0-7.0-2.1-0.1-1.6-0.6,,,,,,,571a720a6a1c6300134b8d2c,11:19:44,15/01/2024
,[],,fwdspan,delay,GxfubOWloJeHxXBPpHpGnMTKMtJ2,html-keyboard-response,33,352580,0.0-7.0-2.1-0.1-2.1,,,,,,,571a720a6a1c6300134b8d2c,11:19:44,15/01/2024
8615.0,"<div class = numbox><p style=""font-size:2.5rem"">What were the numbers <b>in order</b>?<br>(When you are ready to lock in your answer, press <b>ENTER</b>)</p><button id = button_1 class = ""square num-button"" onclick = ""recordClick(this)""><div class = content><div class = numbers>1</div></div></button><button id = button_2 class = ""square num-button"" onclick = ""recordClick(this)""><div class = content><div class = numbers>2</div></div></button><button id = button_3 class = ""square num-button"" onclick = ""recordClick(this)""><div class = content><div class = numbers>3</div></div></button><button id = button_4 class = ""square num-button"" onclick = ""recordClick(this)""><div class = content><div class = numbers>4</div></div></button><button id = button_5 class = ""square num-button"" onclick = ""recordClick(this)""><div class = content><div class = numbers>5</div></div></button><button id = button_6 class = ""square num-button"" onclick = ""recordClick(this)""><div class = content><div class = numbers>6</div></div></button><button id = button_7 class = ""square num-button"" onclick = ""recordClick(this)""><div class = content><div class = numbers>7</div></div></button><button id = button_8 class = ""square num-button"" onclick = ""recordClick(this)""><div class = content><div class = numbers>8</div></div></button><button id = button_9 class = ""square num-button"" onclick = ""recordClick(this)""><div class = content><div class = numbers>9</div></div></button><button class = clear_button id = ""ClearButton"" onclick = ""clearResponse()"">Clear</button><p><u><b>Current Answer:</b></u></p><div id=echoed_txt style=""font-size: 6rem; color:blue;""><b></b></div></div><br><br><br><br><br><br><br>",enter,fwdspan,response,GxfubOWloJeHxXBPpHpGnMTKMtJ2,html-keyboard-response,34,361197,0.0-7.0-2.1-0.1-3.1,4.0,"[8,6,9,4]","[8,6,9,4]",1.0,"[3, 4, 5, 6, 7, 8, 9, 10, 10, 9, 10, 10]",,571a720a6a1c6300134b8d2c,11:19:44,15/01/2024
,,,fwdspan,update_span,GxfubOWloJeHxXBPpHpGnMTKMtJ2,call-function,35,361459,0.0-7.0-2.1-0.1-4.1,,,,,,,571a720a6a1c6300134b8d2c,11:19:44,15/01/2024
934.4000000003725,"<p style=""font-size:3rem"">Trial 3 of 12</p><br><br><br>",0,fwdspan,start_trial,GxfubOWloJeHxXBPpHpGnMTKMtJ2,html-button-response,36,362394,0.0-7.0-2.2-0.2-0.2,,,,,,,571a720a6a1c6300134b8d2c,11:19:44,15/01/2024
,"<p style=""font-size:14rem;font-weight:400;"">5</p>",,fwdspan,number,GxfubOWloJeHxXBPpHpGnMTKMtJ2,html-keyboard-response,37,363396,0.0-7.0-2.2-0.2-1.7-0.7,,,,,,,571a720a6a1c6300134b8d2c,11:19:44,15/01/2024
,"<p style=""font-size:14rem;font-weight:400;"">9</p>",,fwdspan,number,GxfubOWloJeHxXBPpHpGnMTKMtJ2,html-keyboard-response,38,364414,0.0-7.0-2.2-0.2-1.8-0.8,,,,,,,571a720a6a1c6300134b8d2c,11:19:44,15/01/2024
,"<p style=""font-size:14rem;font-weight:400;"">6</p>",,fwdspan,number,GxfubOWloJeHxXBPpHpGnMTKMtJ2,html-keyboard-response,39,365447,0.0-7.0-2.2-0.2-1.9-0.9,,,,,,,571a720a6a1c6300134b8d2c,11:19:44,15/01/2024
,"<p style=""font-size:14rem;font-weight:400;"">8</p>",,fwdspan,number,GxfubOWloJeHxXBPpHpGnMTKMtJ2,html-keyboard-response,40,366451,0.0-7.0-2.2-0.2-1.10-0.10,,,,,,,571a720a6a1c6300134b8d2c,11:19:44,15/01/2024
,"<p style=""font-size:14rem;font-weight:400;"">7</p>",,fwdspan,number,GxfubOWloJeHxXBPpHpGnMTKMtJ2,html-keyboard-response,41,367454,0.0-7.0-2.2-0.2-1.11-0.11,,,,,,,571a720a6a1c6300134b8d2c,11:19:44,15/01/2024
,[],,fwdspan,delay,GxfubOWloJeHxXBPpHpGnMTKMtJ2,html-keyboard-response,42,368014,0.0-7.0-2.2-0.2-2.2,,,,,,,571a720a6a1c6300134b8d2c,11:19:44,15/01/2024
3403.4000000003725,"<div class = numbox><p style=""font-size:2.5rem"">What were the numbers <b>in order</b>?<br>(When you are ready to lock in your answer, press <b>ENTER</b>)</p><button id = button_1 class = ""square num-button"" onclick = ""recordClick(this)""><div class = content><div class = numbers>1</div></div></button><button id = button_2 class = ""square num-button"" onclick = ""recordClick(this)""><div class = content><div class = numbers>2</div></div></button><button id = button_3 class = ""square num-button"" onclick = ""recordClick(this)""><div class = content><div class = numbers>3</div></div></button><button id = button_4 class = ""square num-button"" onclick = ""recordClick(this)""><div class = content><div class = numbers>4</div></div></button><button id = button_5 class = ""square num-button"" onclick = ""recordClick(this)""><div class = content><div class = numbers>5</div></div></button><button id = button_6 class = ""square num-button"" onclick = ""recordClick(this)""><div class = content><div class = numbers>6</div></div></button><button id = button_7 class = ""square num-button"" onclick = ""recordClick(this)""><div class = content><div class = numbers>7</div></div></button><button id = button_8 class = ""square num-button"" onclick = ""recordClick(this)""><div class = content><div class = numbers>8</div></div></button><button id = button_9 class = ""square num-button"" onclick = ""recordClick(this)""><div class = content><div class = numbers>9</div></div></button><button class = clear_button id = ""ClearButton"" onclick = ""clearResponse()"">Clear</button><p><u><b>Current Answer:</b></u></p><div id=echoed_txt style=""font-size: 6rem; color:blue;""><b></b></div></div><br><br><br><br><br><br><br>",enter,fwdspan,response,GxfubOWloJeHxXBPpHpGnMTKMtJ2,html-keyboard-response,43,371419,0.0-7.0-2.2-0.2-3.2,5.0,"[5,9,6,8,7]","[5,9,6,8,7]",1.0,"[3, 4, 5, 6, 7, 8, 9, 10, 10, 9, 10, 10]",,571a720a6a1c6300134b8d2c,11:19:44,15/01/2024
,,,fwdspan,update_span,GxfubOWloJeHxXBPpHpGnMTKMtJ2,call-function,44,371673,0.0-7.0-2.2-0.2-4.2,,,,,,,571a720a6a1c6300134b8d2c,11:19:44,15/01/2024
727.9000000003725,"<p style=""font-size:3rem"">Trial 4 of 12</p><br><br><br>",0,fwdspan,start_trial,GxfubOWloJeHxXBPpHpGnMTKMtJ2,html-button-response,45,372403,0.0-7.0-2.3-0.3-0.3,,,,,,,571a720a6a1c6300134b8d2c,11:19:44,15/01/2024
,"<p style=""font-size:14rem;font-weight:400;"">1</p>",,fwdspan,number,GxfubOWloJeHxXBPpHpGnMTKMtJ2,html-keyboard-response,46,373433,0.0-7.0-2.3-0.3-1.12-0.12,,,,,,,571a720a6a1c6300134b8d2c,11:19:44,15/01/2024
,"<p style=""font-size:14rem;font-weight:400;"">7</p>",,fwdspan,number,GxfubOWloJeHxXBPpHpGnMTKMtJ2,html-keyboard-response,47,374449,0.0-7.0-2.3-0.3-1.13-0.13,,,,,,,571a720a6a1c6300134b8d2c,11:19:44,15/01/2024
,"<p style=""font-size:14rem;font-weight:400;"">5</p>",,fwdspan,number,GxfubOWloJeHxXBPpHpGnMTKMtJ2,html-keyboard-response,48,375473,0.0-7.0-2.3-0.3-1.14-0.14,,,,,,,571a720a6a1c6300134b8d2c,11:19:44,15/01/2024
,"<p style=""font-size:14rem;font-weight:400;"">3</p>",,fwdspan,number,GxfubOWloJeHxXBPpHpGnMTKMtJ2,html-keyboard-response,49,376478,0.0-7.0-2.3-0.3-1.15-0.15,,,,,,,571a720a6a1c6300134b8d2c,11:19:44,15/01/2024
,"<p style=""font-size:14rem;font-weight:400;"">4</p>",,fwdspan,number,GxfubOWloJeHxXBPpHpGnMTKMtJ2,html-keyboard-response,50,377482,0.0-7.0-2.3-0.3-1.16-0.16,,,,,,,571a720a6a1c6300134b8d2c,11:19:44,15/01/2024
,"<p style=""font-size:14rem;font-weight:400;"">6</p>",,fwdspan,number,GxfubOWloJeHxXBPpHpGnMTKMtJ2,html-keyboard-response,51,378513,0.0-7.0-2.3-0.3-1.17-0.17,,,,,,,571a720a6a1c6300134b8d2c,11:19:44,15/01/2024
,[],,fwdspan,delay,GxfubOWloJeHxXBPpHpGnMTKMtJ2,html-keyboard-response,52,379082,0.0-7.0-2.3-0.3-2.3,,,,,,,571a720a6a1c6300134b8d2c,11:19:44,15/01/2024
4318.9000000003725,"<div class = numbox><p style=""font-size:2.5rem"">What were the numbers <b>in order</b>?<br>(When you are ready to lock in your answer, press <b>ENTER</b>)</p><button id = button_1 class = ""square num-button"" onclick = ""recordClick(this)""><div class = content><div class = numbers>1</div></div></button><button id = button_2 class = ""square num-button"" onclick = ""recordClick(this)""><div class = content><div class = numbers>2</div></div></button><button id = button_3 class = ""square num-button"" onclick = ""recordClick(this)""><div class = content><div class = numbers>3</div></div></button><button id = button_4 class = ""square num-button"" onclick = ""recordClick(this)""><div class = content><div class = numbers>4</div></div></button><button id = button_5 class = ""square num-button"" onclick = ""recordClick(this)""><div class = content><div class = numbers>5</div></div></button><button id = button_6 class = ""square num-button"" onclick = ""recordClick(this)""><div class = content><div class = numbers>6</div></div></button><button id = button_7 class = ""square num-button"" onclick = ""recordClick(this)""><div class = content><div class = numbers>7</div></div></button><button id = button_8 class = ""square num-button"" onclick = ""recordClick(this)""><div class = content><div class = numbers>8</div></div></button><button id = button_9 class = ""square num-button"" onclick = ""recordClick(this)""><div class = content><div class = numbers>9</div></div></button><button class = clear_button id = ""ClearButton"" onclick = ""clearResponse()"">Clear</button><p><u><b>Current Answer:</b></u></p><div id=echoed_txt style=""font-size: 6rem; color:blue;""><b></b></div></div><br><br><br><br><br><br><br>",enter,fwdspan,response,GxfubOWloJeHxXBPpHpGnMTKMtJ2,html-keyboard-response,53,383402,0.0-7.0-2.3-0.3-3.3,6.0,"[1,7,5,3,4,6]","[1,7,5,3,4,6]",1.0,"[3, 4, 5, 6, 7, 8, 9, 10, 10, 9, 10, 10]",,571a720a6a1c6300134b8d2c,11:19:44,15/01/2024
,,,fwdspan,update_span,GxfubOWloJeHxXBPpHpGnMTKMtJ2,call-function,54,383665,0.0-7.0-2.3-0.3-4.3,,,,,,,571a720a6a1c6300134b8d2c,11:19:44,15/01/2024
894.0,"<p style=""font-size:3rem"">Trial 5 of 12</p><br><br><br>",0,fwdspan,start_trial,GxfubOWloJeHxXBPpHpGnMTKMtJ2,html-button-response,55,384560,0.0-7.0-2.4-0.4-0.4,,,,,,,571a720a6a1c6300134b8d2c,11:19:44,15/01/2024
,"<p style=""font-size:14rem;font-weight:400;"">1</p>",,fwdspan,number,GxfubOWloJeHxXBPpHpGnMTKMtJ2,html-keyboard-response,56,385595,0.0-7.0-2.4-0.4-1.18-0.18,,,,,,,571a720a6a1c6300134b8d2c,11:19:44,15/01/2024
,"<p style=""font-size:14rem;font-weight:400;"">9</p>",,fwdspan,number,GxfubOWloJeHxXBPpHpGnMTKMtJ2,html-keyboard-response,57,386601,0.0-7.0-2.4-0.4-1.19-0.19,,,,,,,571a720a6a1c6300134b8d2c,11:19:44,15/01/2024
,"<p style=""font-size:14rem;font-weight:400;"">8</p>",,fwdspan,number,GxfubOWloJeHxXBPpHpGnMTKMtJ2,html-keyboard-response,58,387625,0.0-7.0-2.4-0.4-1.20-0.20,,,,,,,571a720a6a1c6300134b8d2c,11:19:44,15/01/2024
,"<p style=""font-size:14rem;font-weight:400;"">7</p>",,fwdspan,number,GxfubOWloJeHxXBPpHpGnMTKMtJ2,html-keyboard-response,59,388636,0.0-7.0-2.4-0.4-1.21-0.21,,,,,,,571a720a6a1c6300134b8d2c,11:19:44,15/01/2024
,"<p style=""font-size:14rem;font-weight:400;"">4</p>",,fwdspan,number,GxfubOWloJeHxXBPpHpGnMTKMtJ2,html-keyboard-response,60,389648,0.0-7.0-2.4-0.4-1.22-0.22,,,,,,,571a720a6a1c6300134b8d2c,11:19:44,15/01/2024
,"<p style=""font-size:14rem;font-weight:400;"">6</p>",,fwdspan,number,GxfubOWloJeHxXBPpHpGnMTKMtJ2,html-keyboard-response,61,390663,0.0-7.0-2.4-0.4-1.23-0.23,,,,,,,571a720a6a1c6300134b8d2c,11:19:44,15/01/2024
,"<p style=""font-size:14rem;font-weight:400;"">2</p>",,fwdspan,number,GxfubOWloJeHxXBPpHpGnMTKMtJ2,html-keyboard-response,62,391666,0.0-7.0-2.4-0.4-1.24-0.24,,,,,,,571a720a6a1c6300134b8d2c,11:19:44,15/01/2024
,[],,fwdspan,delay,GxfubOWloJeHxXBPpHpGnMTKMtJ2,html-keyboard-response,63,392231,0.0-7.0-2.4-0.4-2.4,,,,,,,571a720a6a1c6300134b8d2c,11:19:44,15/01/2024
4901.699999999255,"<div class = numbox><p style=""font-size:2.5rem"">What were the numbers <b>in order</b>?<br>(When you are ready to lock in your answer, press <b>ENTER</b>)</p><button id = button_1 class = ""square num-button"" onclick = ""recordClick(this)""><div class = content><div class = numbers>1</div></div></button><button id = button_2 class = ""square num-button"" onclick = ""recordClick(this)""><div class = content><div class = numbers>2</div></div></button><button id = button_3 class = ""square num-button"" onclick = ""recordClick(this)""><div class = content><div class = numbers>3</div></div></button><button id = button_4 class = ""square num-button"" onclick = ""recordClick(this)""><div class = content><div class = numbers>4</div></div></button><button id = button_5 class = ""square num-button"" onclick = ""recordClick(this)""><div class = content><div class = numbers>5</div></div></button><button id = button_6 class = ""square num-button"" onclick = ""recordClick(this)""><div class = content><div class = numbers>6</div></div></button><button id = button_7 class = ""square num-button"" onclick = ""recordClick(this)""><div class = content><div class = numbers>7</div></div></button><button id = button_8 class = ""square num-button"" onclick = ""recordClick(this)""><div class = content><div class = numbers>8</div></div></button><button id = button_9 class = ""square num-button"" onclick = ""recordClick(this)""><div class = content><div class = numbers>9</div></div></button><button class = clear_button id = ""ClearButton"" onclick = ""clearResponse()"">Clear</button><p><u><b>Current Answer:</b></u></p><div id=echoed_txt style=""font-size: 6rem; color:blue;""><b></b></div></div><br><br><br><br><br><br><br>",enter,fwdspan,response,GxfubOWloJeHxXBPpHpGnMTKMtJ2,html-keyboard-response,64,397134,0.0-7.0-2.4-0.4-3.4,7.0,"[1,9,8,7,4,6,2]","[1,9,8,7,4,6,2]",1.0,"[3, 4, 5, 6, 7, 8, 9, 10, 10, 9, 10, 10]",,571a720a6a1c6300134b8d2c,11:19:44,15/01/2024
,,,fwdspan,update_span,GxfubOWloJeHxXBPpHpGnMTKMtJ2,call-function,65,397390,0.0-7.0-2.4-0.4-4.4,,,,,,,571a720a6a1c6300134b8d2c,11:19:44,15/01/2024
790.1999999992549,"<p style=""font-size:3rem"">Trial 6 of 12</p><br><br><br>",0,fwdspan,start_trial,GxfubOWloJeHxXBPpHpGnMTKMtJ2,html-button-response,66,398181,0.0-7.0-2.5-0.5-0.5,,,,,,,571a720a6a1c6300134b8d2c,11:19:44,15/01/2024
,"<p style=""font-size:14rem;font-weight:400;"">2</p>",,fwdspan,number,GxfubOWloJeHxXBPpHpGnMTKMtJ2,html-keyboard-response,67,399198,0.0-7.0-2.5-0.5-1.25-0.25,,,,,,,571a720a6a1c6300134b8d2c,11:19:44,15/01/2024
,"<p style=""font-size:14rem;font-weight:400;"">8</p>",,fwdspan,number,GxfubOWloJeHxXBPpHpGnMTKMtJ2,html-keyboard-response,68,400214,0.0-7.0-2.5-0.5-1.26-0.26,,,,,,,571a720a6a1c6300134b8d2c,11:19:44,15/01/2024
,"<p style=""font-size:14rem;font-weight:400;"">3</p>",,fwdspan,number,GxfubOWloJeHxXBPpHpGnMTKMtJ2,html-keyboard-response,69,401232,0.0-7.0-2.5-0.5-1.27-0.27,,,,,,,571a720a6a1c6300134b8d2c,11:19:44,15/01/2024
,"<p style=""font-size:14rem;font-weight:400;"">1</p>",,fwdspan,number,GxfubOWloJeHxXBPpHpGnMTKMtJ2,html-keyboard-response,70,402235,0.0-7.0-2.5-0.5-1.28-0.28,,,,,,,571a720a6a1c6300134b8d2c,11:19:44,15/01/2024
,"<p style=""font-size:14rem;font-weight:400;"">5</p>",,fwdspan,number,GxfubOWloJeHxXBPpHpGnMTKMtJ2,html-keyboard-response,71,403264,0.0-7.0-2.5-0.5-1.29-0.29,,,,,,,571a720a6a1c6300134b8d2c,11:19:44,15/01/2024
,"<p style=""font-size:14rem;font-weight:400;"">4</p>",,fwdspan,number,GxfubOWloJeHxXBPpHpGnMTKMtJ2,html-keyboard-response,72,404282,0.0-7.0-2.5-0.5-1.30-0.30,,,,,,,571a720a6a1c6300134b8d2c,11:19:44,15/01/2024
,"<p style=""font-size:14rem;font-weight:400;"">6</p>",,fwdspan,number,GxfubOWloJeHxXBPpHpGnMTKMtJ2,html-keyboard-response,73,405289,0.0-7.0-2.5-0.5-1.31-0.31,,,,,,,571a720a6a1c6300134b8d2c,11:19:44,15/01/2024
,"<p style=""font-size:14rem;font-weight:400;"">7</p>",,fwdspan,number,GxfubOWloJeHxXBPpHpGnMTKMtJ2,html-keyboard-response,74,406308,0.0-7.0-2.5-0.5-1.32-0.32,,,,,,,571a720a6a1c6300134b8d2c,11:19:44,15/01/2024
,[],,fwdspan,delay,GxfubOWloJeHxXBPpHpGnMTKMtJ2,html-keyboard-response,75,406865,0.0-7.0-2.5-0.5-2.5,,,,,,,571a720a6a1c6300134b8d2c,11:19:44,15/01/2024
4858.60000000149,"<div class = numbox><p style=""font-size:2.5rem"">What were the numbers <b>in order</b>?<br>(When you are ready to lock in your answer, press <b>ENTER</b>)</p><button id = button_1 class = ""square num-button"" onclick = ""recordClick(this)""><div class = content><div class = numbers>1</div></div></button><button id = button_2 class = ""square num-button"" onclick = ""recordClick(this)""><div class = content><div class = numbers>2</div></div></button><button id = button_3 class = ""square num-button"" onclick = ""recordClick(this)""><div class = content><div class = numbers>3</div></div></button><button id = button_4 class = ""square num-button"" onclick = ""recordClick(this)""><div class = content><div class = numbers>4</div></div></button><button id = button_5 class = ""square num-button"" onclick = ""recordClick(this)""><div class = content><div class = numbers>5</div></div></button><button id = button_6 class = ""square num-button"" onclick = ""recordClick(this)""><div class = content><div class = numbers>6</div></div></button><button id = button_7 class = ""square num-button"" onclick = ""recordClick(this)""><div class = content><div class = numbers>7</div></div></button><button id = button_8 class = ""square num-button"" onclick = ""recordClick(this)""><div class = content><div class = numbers>8</div></div></button><button id = button_9 class = ""square num-button"" onclick = ""recordClick(this)""><div class = content><div class = numbers>9</div></div></button><button class = clear_button id = ""ClearButton"" onclick = ""clearResponse()"">Clear</button><p><u><b>Current Answer:</b></u></p><div id=echoed_txt style=""font-size: 6rem; color:blue;""><b></b></div></div><br><br><br><br><br><br><br>",enter,fwdspan,response,GxfubOWloJeHxXBPpHpGnMTKMtJ2,html-keyboard-response,76,411726,0.0-7.0-2.5-0.5-3.5,8.0,"[2,8,3,1,5,4,6,7]","[2,8,3,1,5,4,6,7]",1.0,"[3, 4, 5, 6, 7, 8, 9, 10, 10, 9, 10, 10]",,571a720a6a1c6300134b8d2c,11:19:44,15/01/2024
,,,fwdspan,update_span,GxfubOWloJeHxXBPpHpGnMTKMtJ2,call-function,77,411983,0.0-7.0-2.5-0.5-4.5,,,,,,,571a720a6a1c6300134b8d2c,11:19:44,15/01/2024
981.0,"<p style=""font-size:3rem"">Trial 7 of 12</p><br><br><br>",0,fwdspan,start_trial,GxfubOWloJeHxXBPpHpGnMTKMtJ2,html-button-response,78,412965,0.0-7.0-2.6-0.6-0.6,,,,,,,571a720a6a1c6300134b8d2c,11:19:44,15/01/2024
,"<p style=""font-size:14rem;font-weight:400;"">2</p>",,fwdspan,number,GxfubOWloJeHxXBPpHpGnMTKMtJ2,html-keyboard-response,79,413982,0.0-7.0-2.6-0.6-1.33-0.33,,,,,,,571a720a6a1c6300134b8d2c,11:19:44,15/01/2024
,"<p style=""font-size:14rem;font-weight:400;"">4</p>",,fwdspan,number,GxfubOWloJeHxXBPpHpGnMTKMtJ2,html-keyboard-response,80,415014,0.0-7.0-2.6-0.6-1.34-0.34,,,,,,,571a720a6a1c6300134b8d2c,11:19:44,15/01/2024
,"<p style=""font-size:14rem;font-weight:400;"">7</p>",,fwdspan,number,GxfubOWloJeHxXBPpHpGnMTKMtJ2,html-keyboard-response,81,416017,0.0-7.0-2.6-0.6-1.35-0.35,,,,,,,571a720a6a1c6300134b8d2c,11:19:44,15/01/2024
,"<p style=""font-size:14rem;font-weight:400;"">9</p>",,fwdspan,number,GxfubOWloJeHxXBPpHpGnMTKMtJ2,html-keyboard-response,82,417033,0.0-7.0-2.6-0.6-1.36-0.36,,,,,,,571a720a6a1c6300134b8d2c,11:19:44,15/01/2024
,"<p style=""font-size:14rem;font-weight:400;"">3</p>",,fwdspan,number,GxfubOWloJeHxXBPpHpGnMTKMtJ2,html-keyboard-response,83,418036,0.0-7.0-2.6-0.6-1.37-0.37,,,,,,,571a720a6a1c6300134b8d2c,11:19:44,15/01/2024
,"<p style=""font-size:14rem;font-weight:400;"">1</p>",,fwdspan,number,GxfubOWloJeHxXBPpHpGnMTKMtJ2,html-keyboard-response,84,419048,0.0-7.0-2.6-0.6-1.38-0.38,,,,,,,571a720a6a1c6300134b8d2c,11:19:44,15/01/2024
,"<p style=""font-size:14rem;font-weight:400;"">6</p>",,fwdspan,number,GxfubOWloJeHxXBPpHpGnMTKMtJ2,html-keyboard-response,85,420074,0.0-7.0-2.6-0.6-1.39-0.39,,,,,,,571a720a6a1c6300134b8d2c,11:19:44,15/01/2024
,"<p style=""font-size:14rem;font-weight:400;"">8</p>",,fwdspan,number,GxfubOWloJeHxXBPpHpGnMTKMtJ2,html-keyboard-response,86,421082,0.0-7.0-2.6-0.6-1.40-0.40,,,,,,,571a720a6a1c6300134b8d2c,11:19:44,15/01/2024
,"<p style=""font-size:14rem;font-weight:400;"">5</p>",,fwdspan,number,GxfubOWloJeHxXBPpHpGnMTKMtJ2,html-keyboard-response,87,422095,0.0-7.0-2.6-0.6-1.41-0.41,,,,,,,571a720a6a1c6300134b8d2c,11:19:44,15/01/2024
,[],,fwdspan,delay,GxfubOWloJeHxXBPpHpGnMTKMtJ2,html-keyboard-response,88,422650,0.0-7.0-2.6-0.6-2.6,,,,,,,571a720a6a1c6300134b8d2c,11:19:44,15/01/2024
6365.0999999996275,"<div class = numbox><p style=""font-size:2.5rem"">What were the numbers <b>in order</b>?<br>(When you are ready to lock in your answer, press <b>ENTER</b>)</p><button id = button_1 class = ""square num-button"" onclick = ""recordClick(this)""><div class = content><div class = numbers>1</div></div></button><button id = button_2 class = ""square num-button"" onclick = ""recordClick(this)""><div class = content><div class = numbers>2</div></div></button><button id = button_3 class = ""square num-button"" onclick = ""recordClick(this)""><div class = content><div class = numbers>3</div></div></button><button id = button_4 class = ""square num-button"" onclick = ""recordClick(this)""><div class = content><div class = numbers>4</div></div></button><button id = button_5 class = ""square num-button"" onclick = ""recordClick(this)""><div class = content><div class = numbers>5</div></div></button><button id = button_6 class = ""square num-button"" onclick = ""recordClick(this)""><div class = content><div class = numbers>6</div></div></button><button id = button_7 class = ""square num-button"" onclick = ""recordClick(this)""><div class = content><div class = numbers>7</div></div></button><button id = button_8 class = ""square num-button"" onclick = ""recordClick(this)""><div class = content><div class = numbers>8</div></div></button><button id = button_9 class = ""square num-button"" onclick = ""recordClick(this)""><div class = content><div class = numbers>9</div></div></button><button class = clear_button id = ""ClearButton"" onclick = ""clearResponse()"">Clear</button><p><u><b>Current Answer:</b></u></p><div id=echoed_txt style=""font-size: 6rem; color:blue;""><b></b></div></div><br><br><br><br><br><br><br>",enter,fwdspan,response,GxfubOWloJeHxXBPpHpGnMTKMtJ2,html-keyboard-response,89,429017,0.0-7.0-2.6-0.6-3.6,9.0,"[2,4,7,9,3,1,6,8,5]","[2,4,7,9,3,1,6,8,5]",1.0,"[3, 4, 5, 6, 7, 8, 9, 10, 10, 9, 10, 10]",,571a720a6a1c6300134b8d2c,11:19:44,15/01/2024
,,,fwdspan,update_span,GxfubOWloJeHxXBPpHpGnMTKMtJ2,call-function,90,429284,0.0-7.0-2.6-0.6-4.6,,,,,,,571a720a6a1c6300134b8d2c,11:19:44,15/01/2024
1149.9000000003725,"<p style=""font-size:3rem"">Trial 8 of 12</p><br><br><br>",0,fwdspan,start_trial,GxfubOWloJeHxXBPpHpGnMTKMtJ2,html-button-response,91,430435,0.0-7.0-2.7-0.7-0.7,,,,,,,571a720a6a1c6300134b8d2c,11:19:44,15/01/2024
,"<p style=""font-size:14rem;font-weight:400;"">2</p>",,fwdspan,number,GxfubOWloJeHxXBPpHpGnMTKMtJ2,html-keyboard-response,92,431464,0.0-7.0-2.7-0.7-1.42-0.42,,,,,,,571a720a6a1c6300134b8d2c,11:19:44,15/01/2024
,"<p style=""font-size:14rem;font-weight:400;"">6</p>",,fwdspan,number,GxfubOWloJeHxXBPpHpGnMTKMtJ2,html-keyboard-response,93,432467,0.0-7.0-2.7-0.7-1.43-0.43,,,,,,,571a720a6a1c6300134b8d2c,11:19:44,15/01/2024
,"<p style=""font-size:14rem;font-weight:400;"">4</p>",,fwdspan,number,GxfubOWloJeHxXBPpHpGnMTKMtJ2,html-keyboard-response,94,433484,0.0-7.0-2.7-0.7-1.44-0.44,,,,,,,571a720a6a1c6300134b8d2c,11:19:44,15/01/2024
,"<p style=""font-size:14rem;font-weight:400;"">3</p>",,fwdspan,number,GxfubOWloJeHxXBPpHpGnMTKMtJ2,html-keyboard-response,95,434505,0.0-7.0-2.7-0.7-1.45-0.45,,,,,,,571a720a6a1c6300134b8d2c,11:19:44,15/01/2024
,"<p style=""font-size:14rem;font-weight:400;"">1</p>",,fwdspan,number,GxfubOWloJeHxXBPpHpGnMTKMtJ2,html-keyboard-response,96,435507,0.0-7.0-2.7-0.7-1.46-0.46,,,,,,,571a720a6a1c6300134b8d2c,11:19:44,15/01/2024
,"<p style=""font-size:14rem;font-weight:400;"">7</p>",,fwdspan,number,GxfubOWloJeHxXBPpHpGnMTKMtJ2,html-keyboard-response,97,436516,0.0-7.0-2.7-0.7-1.47-0.47,,,,,,,571a720a6a1c6300134b8d2c,11:19:44,15/01/2024
,"<p style=""font-size:14rem;font-weight:400;"">8</p>",,fwdspan,number,GxfubOWloJeHxXBPpHpGnMTKMtJ2,html-keyboard-response,98,437517,0.0-7.0-2.7-0.7-1.48-0.48,,,,,,,571a720a6a1c6300134b8d2c,11:19:44,15/01/2024
,"<p style=""font-size:14rem;font-weight:400;"">9</p>",,fwdspan,number,GxfubOWloJeHxXBPpHpGnMTKMtJ2,html-keyboard-response,99,438545,0.0-7.0-2.7-0.7-1.49-0.49,,,,,,,571a720a6a1c6300134b8d2c,11:19:44,15/01/2024
,"<p style=""font-size:14rem;font-weight:400;"">5</p>",,fwdspan,number,GxfubOWloJeHxXBPpHpGnMTKMtJ2,html-keyboard-response,100,439563,0.0-7.0-2.7-0.7-1.50-0.50,,,,,,,571a720a6a1c6300134b8d2c,11:19:44,15/01/2024
,"<p style=""font-size:14rem;font-weight:400;"">4</p>",,fwdspan,number,GxfubOWloJeHxXBPpHpGnMTKMtJ2,html-keyboard-response,101,440580,0.0-7.0-2.7-0.7-1.51-0.51,,,,,,,571a720a6a1c6300134b8d2c,11:19:44,15/01/2024
,[],,fwdspan,delay,GxfubOWloJeHxXBPpHpGnMTKMtJ2,html-keyboard-response,102,441149,0.0-7.0-2.7-0.7-2.7,,,,,,,571a720a6a1c6300134b8d2c,11:19:44,15/01/2024
6830.5,"<div class = numbox><p style=""font-size:2.5rem"">What were the numbers <b>in order</b>?<br>(When you are ready to lock in your answer, press <b>ENTER</b>)</p><button id = button_1 class = ""square num-button"" onclick = ""recordClick(this)""><div class = content><div class = numbers>1</div></div></button><button id = button_2 class = ""square num-button"" onclick = ""recordClick(this)""><div class = content><div class = numbers>2</div></div></button><button id = button_3 class = ""square num-button"" onclick = ""recordClick(this)""><div class = content><div class = numbers>3</div></div></button><button id = button_4 class = ""square num-button"" onclick = ""recordClick(this)""><div class = content><div class = numbers>4</div></div></button><button id = button_5 class = ""square num-button"" onclick = ""recordClick(this)""><div class = content><div class = numbers>5</div></div></button><button id = button_6 class = ""square num-button"" onclick = ""recordClick(this)""><div class = content><div class = numbers>6</div></div></button><button id = button_7 class = ""square num-button"" onclick = ""recordClick(this)""><div class = content><div class = numbers>7</div></div></button><button id = button_8 class = ""square num-button"" onclick = ""recordClick(this)""><div class = content><div class = numbers>8</div></div></button><button id = button_9 class = ""square num-button"" onclick = ""recordClick(this)""><div class = content><div class = numbers>9</div></div></button><button class = clear_button id = ""ClearButton"" onclick = ""clearResponse()"">Clear</button><p><u><b>Current Answer:</b></u></p><div id=echoed_txt style=""font-size: 6rem; color:blue;""><b></b></div></div><br><br><br><br><br><br><br>",enter,fwdspan,response,GxfubOWloJeHxXBPpHpGnMTKMtJ2,html-keyboard-response,103,447981,0.0-7.0-2.7-0.7-3.7,10.0,"[2,6,4,3,9,7,8,5,4]","[2,6,4,3,1,7,8,9,5,4]",0.0,"[3, 4, 5, 6, 7, 8, 9, 10, 10, 9, 10, 10]",,571a720a6a1c6300134b8d2c,11:19:44,15/01/2024
,,,fwdspan,update_span,GxfubOWloJeHxXBPpHpGnMTKMtJ2,call-function,104,448249,0.0-7.0-2.7-0.7-4.7,,,,,,,571a720a6a1c6300134b8d2c,11:19:44,15/01/2024
1142.0,"<p style=""font-size:3rem"">Trial 9 of 12</p><br><br><br>",0,fwdspan,start_trial,GxfubOWloJeHxXBPpHpGnMTKMtJ2,html-button-response,105,449392,0.0-7.0-2.8-0.8-0.8,,,,,,,571a720a6a1c6300134b8d2c,11:19:44,15/01/2024
,"<p style=""font-size:14rem;font-weight:400;"">5</p>",,fwdspan,number,GxfubOWloJeHxXBPpHpGnMTKMtJ2,html-keyboard-response,106,450403,0.0-7.0-2.8-0.8-1.52-0.52,,,,,,,571a720a6a1c6300134b8d2c,11:19:44,15/01/2024
,"<p style=""font-size:14rem;font-weight:400;"">1</p>",,fwdspan,number,GxfubOWloJeHxXBPpHpGnMTKMtJ2,html-keyboard-response,107,451417,0.0-7.0-2.8-0.8-1.53-0.53,,,,,,,571a720a6a1c6300134b8d2c,11:19:44,15/01/2024
,"<p style=""font-size:14rem;font-weight:400;"">6</p>",,fwdspan,number,GxfubOWloJeHxXBPpHpGnMTKMtJ2,html-keyboard-response,108,452440,0.0-7.0-2.8-0.8-1.54-0.54,,,,,,,571a720a6a1c6300134b8d2c,11:19:44,15/01/2024
,"<p style=""font-size:14rem;font-weight:400;"">4</p>",,fwdspan,number,GxfubOWloJeHxXBPpHpGnMTKMtJ2,html-keyboard-response,109,453450,0.0-7.0-2.8-0.8-1.55-0.55,,,,,,,571a720a6a1c6300134b8d2c,11:19:44,15/01/2024
,"<p style=""font-size:14rem;font-weight:400;"">3</p>",,fwdspan,number,GxfubOWloJeHxXBPpHpGnMTKMtJ2,html-keyboard-response,110,454460,0.0-7.0-2.8-0.8-1.56-0.56,,,,,,,571a720a6a1c6300134b8d2c,11:19:44,15/01/2024
,"<p style=""font-size:14rem;font-weight:400;"">2</p>",,fwdspan,number,GxfubOWloJeHxXBPpHpGnMTKMtJ2,html-keyboard-response,111,455479,0.0-7.0-2.8-0.8-1.57-0.57,,,,,,,571a720a6a1c6300134b8d2c,11:19:44,15/01/2024
,"<p style=""font-size:14rem;font-weight:400;"">8</p>",,fwdspan,number,GxfubOWloJeHxXBPpHpGnMTKMtJ2,html-keyboard-response,112,456483,0.0-7.0-2.8-0.8-1.58-0.58,,,,,,,571a720a6a1c6300134b8d2c,11:19:44,15/01/2024
,"<p style=""font-size:14rem;font-weight:400;"">7</p>",,fwdspan,number,GxfubOWloJeHxXBPpHpGnMTKMtJ2,html-keyboard-response,113,457498,0.0-7.0-2.8-0.8-1.59-0.59,,,,,,,571a720a6a1c6300134b8d2c,11:19:44,15/01/2024
,"<p style=""font-size:14rem;font-weight:400;"">9</p>",,fwdspan,number,GxfubOWloJeHxXBPpHpGnMTKMtJ2,html-keyboard-response,114,458516,0.0-7.0-2.8-0.8-1.60-0.60,,,,,,,571a720a6a1c6300134b8d2c,11:19:44,15/01/2024
,"<p style=""font-size:14rem;font-weight:400;"">7</p>",,fwdspan,number,GxfubOWloJeHxXBPpHpGnMTKMtJ2,html-keyboard-response,115,459520,0.0-7.0-2.8-0.8-1.61-0.61,,,,,,,571a720a6a1c6300134b8d2c,11:19:44,15/01/2024
,[],,fwdspan,delay,GxfubOWloJeHxXBPpHpGnMTKMtJ2,html-keyboard-response,116,460084,0.0-7.0-2.8-0.8-2.8,,,,,,,571a720a6a1c6300134b8d2c,11:19:44,15/01/2024
7618.200000001118,"<div class = numbox><p style=""font-size:2.5rem"">What were the numbers <b>in order</b>?<br>(When you are ready to lock in your answer, press <b>ENTER</b>)</p><button id = button_1 class = ""square num-button"" onclick = ""recordClick(this)""><div class = content><div class = numbers>1</div></div></button><button id = button_2 class = ""square num-button"" onclick = ""recordClick(this)""><div class = content><div class = numbers>2</div></div></button><button id = button_3 class = ""square num-button"" onclick = ""recordClick(this)""><div class = content><div class = numbers>3</div></div></button><button id = button_4 class = ""square num-button"" onclick = ""recordClick(this)""><div class = content><div class = numbers>4</div></div></button><button id = button_5 class = ""square num-button"" onclick = ""recordClick(this)""><div class = content><div class = numbers>5</div></div></button><button id = button_6 class = ""square num-button"" onclick = ""recordClick(this)""><div class = content><div class = numbers>6</div></div></button><button id = button_7 class = ""square num-button"" onclick = ""recordClick(this)""><div class = content><div class = numbers>7</div></div></button><button id = button_8 class = ""square num-button"" onclick = ""recordClick(this)""><div class = content><div class = numbers>8</div></div></button><button id = button_9 class = ""square num-button"" onclick = ""recordClick(this)""><div class = content><div class = numbers>9</div></div></button><button class = clear_button id = ""ClearButton"" onclick = ""clearResponse()"">Clear</button><p><u><b>Current Answer:</b></u></p><div id=echoed_txt style=""font-size: 6rem; color:blue;""><b></b></div></div><br><br><br><br><br><br><br>",enter,fwdspan,response,GxfubOWloJeHxXBPpHpGnMTKMtJ2,html-keyboard-response,117,467704,0.0-7.0-2.8-0.8-3.8,10.0,"[5,1,6,4,3,2,8,7,9,4]","[5,1,6,4,3,2,8,7,9,7]",0.0,"[3, 4, 5, 6, 7, 8, 9, 10, 10, 9, 10, 10]",,571a720a6a1c6300134b8d2c,11:19:44,15/01/2024
,,,fwdspan,update_span,GxfubOWloJeHxXBPpHpGnMTKMtJ2,call-function,118,467967,0.0-7.0-2.8-0.8-4.8,,,,,,,571a720a6a1c6300134b8d2c,11:19:44,15/01/2024
904.0999999996275,"<p style=""font-size:3rem"">Trial 10 of 12</p><br><br><br>",0,fwdspan,start_trial,GxfubOWloJeHxXBPpHpGnMTKMtJ2,html-button-response,119,468872,0.0-7.0-2.9-0.9-0.9,,,,,,,571a720a6a1c6300134b8d2c,11:19:44,15/01/2024
,"<p style=""font-size:14rem;font-weight:400;"">5</p>",,fwdspan,number,GxfubOWloJeHxXBPpHpGnMTKMtJ2,html-keyboard-response,120,469884,0.0-7.0-2.9-0.9-1.62-0.62,,,,,,,571a720a6a1c6300134b8d2c,11:19:44,15/01/2024
,"<p style=""font-size:14rem;font-weight:400;"">3</p>",,fwdspan,number,GxfubOWloJeHxXBPpHpGnMTKMtJ2,html-keyboard-response,121,470908,0.0-7.0-2.9-0.9-1.63-0.63,,,,,,,571a720a6a1c6300134b8d2c,11:19:44,15/01/2024
,"<p style=""font-size:14rem;font-weight:400;"">2</p>",,fwdspan,number,GxfubOWloJeHxXBPpHpGnMTKMtJ2,html-keyboard-response,122,471926,0.0-7.0-2.9-0.9-1.64-0.64,,,,,,,571a720a6a1c6300134b8d2c,11:19:44,15/01/2024
,"<p style=""font-size:14rem;font-weight:400;"">7</p>",,fwdspan,number,GxfubOWloJeHxXBPpHpGnMTKMtJ2,html-keyboard-response,123,472948,0.0-7.0-2.9-0.9-1.65-0.65,,,,,,,571a720a6a1c6300134b8d2c,11:19:44,15/01/2024
,"<p style=""font-size:14rem;font-weight:400;"">4</p>",,fwdspan,number,GxfubOWloJeHxXBPpHpGnMTKMtJ2,html-keyboard-response,124,473950,0.0-7.0-2.9-0.9-1.66-0.66,,,,,,,571a720a6a1c6300134b8d2c,11:19:44,15/01/2024
,"<p style=""font-size:14rem;font-weight:400;"">1</p>",,fwdspan,number,GxfubOWloJeHxXBPpHpGnMTKMtJ2,html-keyboard-response,125,474967,0.0-7.0-2.9-0.9-1.67-0.67,,,,,,,571a720a6a1c6300134b8d2c,11:19:44,15/01/2024
,"<p style=""font-size:14rem;font-weight:400;"">6</p>",,fwdspan,number,GxfubOWloJeHxXBPpHpGnMTKMtJ2,html-keyboard-response,126,475989,0.0-7.0-2.9-0.9-1.68-0.68,,,,,,,571a720a6a1c6300134b8d2c,11:19:44,15/01/2024
,"<p style=""font-size:14rem;font-weight:400;"">9</p>",,fwdspan,number,GxfubOWloJeHxXBPpHpGnMTKMtJ2,html-keyboard-response,127,476991,0.0-7.0-2.9-0.9-1.69-0.69,,,,,,,571a720a6a1c6300134b8d2c,11:19:44,15/01/2024
,"<p style=""font-size:14rem;font-weight:400;"">8</p>",,fwdspan,number,GxfubOWloJeHxXBPpHpGnMTKMtJ2,html-keyboard-response,128,477993,0.0-7.0-2.9-0.9-1.70-0.70,,,,,,,571a720a6a1c6300134b8d2c,11:19:44,15/01/2024
,[],,fwdspan,delay,GxfubOWloJeHxXBPpHpGnMTKMtJ2,html-keyboard-response,129,478566,0.0-7.0-2.9-0.9-2.9,,,,,,,571a720a6a1c6300134b8d2c,11:19:44,15/01/2024
6369.0,"<div class = numbox><p style=""font-size:2.5rem"">What were the numbers <b>in order</b>?<br>(When you are ready to lock in your answer, press <b>ENTER</b>)</p><button id = button_1 class = ""square num-button"" onclick = ""recordClick(this)""><div class = content><div class = numbers>1</div></div></button><button id = button_2 class = ""square num-button"" onclick = ""recordClick(this)""><div class = content><div class = numbers>2</div></div></button><button id = button_3 class = ""square num-button"" onclick = ""recordClick(this)""><div class = content><div class = numbers>3</div></div></button><button id = button_4 class = ""square num-button"" onclick = ""recordClick(this)""><div class = content><div class = numbers>4</div></div></button><button id = button_5 class = ""square num-button"" onclick = ""recordClick(this)""><div class = content><div class = numbers>5</div></div></button><button id = button_6 class = ""square num-button"" onclick = ""recordClick(this)""><div class = content><div class = numbers>6</div></div></button><button id = button_7 class = ""square num-button"" onclick = ""recordClick(this)""><div class = content><div class = numbers>7</div></div></button><button id = button_8 class = ""square num-button"" onclick = ""recordClick(this)""><div class = content><div class = numbers>8</div></div></button><button id = button_9 class = ""square num-button"" onclick = ""recordClick(this)""><div class = content><div class = numbers>9</div></div></button><button class = clear_button id = ""ClearButton"" onclick = ""clearResponse()"">Clear</button><p><u><b>Current Answer:</b></u></p><div id=echoed_txt style=""font-size: 6rem; color:blue;""><b></b></div></div><br><br><br><br><br><br><br>",enter,fwdspan,response,GxfubOWloJeHxXBPpHpGnMTKMtJ2,html-keyboard-response,130,484936,0.0-7.0-2.9-0.9-3.9,9.0,"[5,3,2,7,4,1,6,9,8]","[5,3,2,7,4,1,6,9,8]",1.0,"[3, 4, 5, 6, 7, 8, 9, 10, 10, 9, 10, 10]",,571a720a6a1c6300134b8d2c,11:19:44,15/01/2024
,,,fwdspan,update_span,GxfubOWloJeHxXBPpHpGnMTKMtJ2,call-function,131,485210,0.0-7.0-2.9-0.9-4.9,,,,,,,571a720a6a1c6300134b8d2c,11:19:44,15/01/2024
865.7999999988824,"<p style=""font-size:3rem"">Trial 11 of 12</p><br><br><br>",0,fwdspan,start_trial,GxfubOWloJeHxXBPpHpGnMTKMtJ2,html-button-response,132,486077,0.0-7.0-2.10-0.10-0.10,,,,,,,571a720a6a1c6300134b8d2c,11:19:44,15/01/2024
,"<p style=""font-size:14rem;font-weight:400;"">7</p>",,fwdspan,number,GxfubOWloJeHxXBPpHpGnMTKMtJ2,html-keyboard-response,133,487099,0.0-7.0-2.10-0.10-1.71-0.71,,,,,,,571a720a6a1c6300134b8d2c,11:19:44,15/01/2024
,"<p style=""font-size:14rem;font-weight:400;"">4</p>",,fwdspan,number,GxfubOWloJeHxXBPpHpGnMTKMtJ2,html-keyboard-response,134,488117,0.0-7.0-2.10-0.10-1.72-0.72,,,,,,,571a720a6a1c6300134b8d2c,11:19:44,15/01/2024
,"<p style=""font-size:14rem;font-weight:400;"">3</p>",,fwdspan,number,GxfubOWloJeHxXBPpHpGnMTKMtJ2,html-keyboard-response,135,489134,0.0-7.0-2.10-0.10-1.73-0.73,,,,,,,571a720a6a1c6300134b8d2c,11:19:44,15/01/2024
,"<p style=""font-size:14rem;font-weight:400;"">8</p>",,fwdspan,number,GxfubOWloJeHxXBPpHpGnMTKMtJ2,html-keyboard-response,136,490138,0.0-7.0-2.10-0.10-1.74-0.74,,,,,,,571a720a6a1c6300134b8d2c,11:19:44,15/01/2024
,"<p style=""font-size:14rem;font-weight:400;"">6</p>",,fwdspan,number,GxfubOWloJeHxXBPpHpGnMTKMtJ2,html-keyboard-response,137,491141,0.0-7.0-2.10-0.10-1.75-0.75,,,,,,,571a720a6a1c6300134b8d2c,11:19:44,15/01/2024
,"<p style=""font-size:14rem;font-weight:400;"">2</p>",,fwdspan,number,GxfubOWloJeHxXBPpHpGnMTKMtJ2,html-keyboard-response,138,492151,0.0-7.0-2.10-0.10-1.76-0.76,,,,,,,571a720a6a1c6300134b8d2c,11:19:44,15/01/2024
,"<p style=""font-size:14rem;font-weight:400;"">9</p>",,fwdspan,number,GxfubOWloJeHxXBPpHpGnMTKMtJ2,html-keyboard-response,139,493168,0.0-7.0-2.10-0.10-1.77-0.77,,,,,,,571a720a6a1c6300134b8d2c,11:19:44,15/01/2024
,"<p style=""font-size:14rem;font-weight:400;"">1</p>",,fwdspan,number,GxfubOWloJeHxXBPpHpGnMTKMtJ2,html-keyboard-response,140,494180,0.0-7.0-2.10-0.10-1.78-0.78,,,,,,,571a720a6a1c6300134b8d2c,11:19:44,15/01/2024
,"<p style=""font-size:14rem;font-weight:400;"">5</p>",,fwdspan,number,GxfubOWloJeHxXBPpHpGnMTKMtJ2,html-keyboard-response,141,495183,0.0-7.0-2.10-0.10-1.79-0.79,,,,,,,571a720a6a1c6300134b8d2c,11:19:44,15/01/2024
,"<p style=""font-size:14rem;font-weight:400;"">5</p>",,fwdspan,number,GxfubOWloJeHxXBPpHpGnMTKMtJ2,html-keyboard-response,142,496202,0.0-7.0-2.10-0.10-1.80-0.80,,,,,,,571a720a6a1c6300134b8d2c,11:19:44,15/01/2024
,[],,fwdspan,delay,GxfubOWloJeHxXBPpHpGnMTKMtJ2,html-keyboard-response,143,496768,0.0-7.0-2.10-0.10-2.10,,,,,,,571a720a6a1c6300134b8d2c,11:19:44,15/01/2024
5618.4000000003725,"<div class = numbox><p style=""font-size:2.5rem"">What were the numbers <b>in order</b>?<br>(When you are ready to lock in your answer, press <b>ENTER</b>)</p><button id = button_1 class = ""square num-button"" onclick = ""recordClick(this)""><div class = content><div class = numbers>1</div></div></button><button id = button_2 class = ""square num-button"" onclick = ""recordClick(this)""><div class = content><div class = numbers>2</div></div></button><button id = button_3 class = ""square num-button"" onclick = ""recordClick(this)""><div class = content><div class = numbers>3</div></div></button><button id = button_4 class = ""square num-button"" onclick = ""recordClick(this)""><div class = content><div class = numbers>4</div></div></button><button id = button_5 class = ""square num-button"" onclick = ""recordClick(this)""><div class = content><div class = numbers>5</div></div></button><button id = button_6 class = ""square num-button"" onclick = ""recordClick(this)""><div class = content><div class = numbers>6</div></div></button><button id = button_7 class = ""square num-button"" onclick = ""recordClick(this)""><div class = content><div class = numbers>7</div></div></button><button id = button_8 class = ""square num-button"" onclick = ""recordClick(this)""><div class = content><div class = numbers>8</div></div></button><button id = button_9 class = ""square num-button"" onclick = ""recordClick(this)""><div class = content><div class = numbers>9</div></div></button><button class = clear_button id = ""ClearButton"" onclick = ""clearResponse()"">Clear</button><p><u><b>Current Answer:</b></u></p><div id=echoed_txt style=""font-size: 6rem; color:blue;""><b></b></div></div><br><br><br><br><br><br><br>",enter,fwdspan,response,GxfubOWloJeHxXBPpHpGnMTKMtJ2,html-keyboard-response,144,502388,0.0-7.0-2.10-0.10-3.10,10.0,"[7,4,3,8,1,2,9,6,5,5]","[7,4,3,8,6,2,9,1,5,5]",0.0,"[3, 4, 5, 6, 7, 8, 9, 10, 10, 9, 10, 10]",,571a720a6a1c6300134b8d2c,11:19:44,15/01/2024
,,,fwdspan,update_span,GxfubOWloJeHxXBPpHpGnMTKMtJ2,call-function,145,502649,0.0-7.0-2.10-0.10-4.10,,,,,,,571a720a6a1c6300134b8d2c,11:19:44,15/01/2024
674.7000000011176,"<p style=""font-size:3rem"">Trial 12 of 12</p><br><br><br>",0,fwdspan,start_trial,GxfubOWloJeHxXBPpHpGnMTKMtJ2,html-button-response,146,503324,0.0-7.0-2.11-0.11-0.11,,,,,,,571a720a6a1c6300134b8d2c,11:19:44,15/01/2024
,"<p style=""font-size:14rem;font-weight:400;"">4</p>",,fwdspan,number,GxfubOWloJeHxXBPpHpGnMTKMtJ2,html-keyboard-response,147,504336,0.0-7.0-2.11-0.11-1.81-0.81,,,,,,,571a720a6a1c6300134b8d2c,11:19:44,15/01/2024
,"<p style=""font-size:14rem;font-weight:400;"">2</p>",,fwdspan,number,GxfubOWloJeHxXBPpHpGnMTKMtJ2,html-keyboard-response,148,505358,0.0-7.0-2.11-0.11-1.82-0.82,,,,,,,571a720a6a1c6300134b8d2c,11:19:44,15/01/2024
,"<p style=""font-size:14rem;font-weight:400;"">5</p>",,fwdspan,number,GxfubOWloJeHxXBPpHpGnMTKMtJ2,html-keyboard-response,149,506361,0.0-7.0-2.11-0.11-1.83-0.83,,,,,,,571a720a6a1c6300134b8d2c,11:19:44,15/01/2024
,"<p style=""font-size:14rem;font-weight:400;"">3</p>",,fwdspan,number,GxfubOWloJeHxXBPpHpGnMTKMtJ2,html-keyboard-response,150,507384,0.0-7.0-2.11-0.11-1.84-0.84,,,,,,,571a720a6a1c6300134b8d2c,11:19:44,15/01/2024
,"<p style=""font-size:14rem;font-weight:400;"">9</p>",,fwdspan,number,GxfubOWloJeHxXBPpHpGnMTKMtJ2,html-keyboard-response,151,508401,0.0-7.0-2.11-0.11-1.85-0.85,,,,,,,571a720a6a1c6300134b8d2c,11:19:44,15/01/2024
,"<p style=""font-size:14rem;font-weight:400;"">7</p>",,fwdspan,number,GxfubOWloJeHxXBPpHpGnMTKMtJ2,html-keyboard-response,152,509417,0.0-7.0-2.11-0.11-1.86-0.86,,,,,,,571a720a6a1c6300134b8d2c,11:19:44,15/01/2024
,"<p style=""font-size:14rem;font-weight:400;"">6</p>",,fwdspan,number,GxfubOWloJeHxXBPpHpGnMTKMtJ2,html-keyboard-response,153,510420,0.0-7.0-2.11-0.11-1.87-0.87,,,,,,,571a720a6a1c6300134b8d2c,11:19:44,15/01/2024
,"<p style=""font-size:14rem;font-weight:400;"">1</p>",,fwdspan,number,GxfubOWloJeHxXBPpHpGnMTKMtJ2,html-keyboard-response,154,511449,0.0-7.0-2.11-0.11-1.88-0.88,,,,,,,571a720a6a1c6300134b8d2c,11:19:44,15/01/2024
,"<p style=""font-size:14rem;font-weight:400;"">8</p>",,fwdspan,number,GxfubOWloJeHxXBPpHpGnMTKMtJ2,html-keyboard-response,155,512492,0.0-7.0-2.11-0.11-1.89-0.89,,,,,,,571a720a6a1c6300134b8d2c,11:19:44,15/01/2024
,"<p style=""font-size:14rem;font-weight:400;"">4</p>",,fwdspan,number,GxfubOWloJeHxXBPpHpGnMTKMtJ2,html-keyboard-response,156,513501,0.0-7.0-2.11-0.11-1.90-0.90,,,,,,,571a720a6a1c6300134b8d2c,11:19:44,15/01/2024
,[],,fwdspan,delay,GxfubOWloJeHxXBPpHpGnMTKMtJ2,html-keyboard-response,157,514080,0.0-7.0-2.11-0.11-2.11,,,,,,,571a720a6a1c6300134b8d2c,11:19:44,15/01/2024
5540.0,"<div class = numbox><p style=""font-size:2.5rem"">What were the numbers <b>in order</b>?<br>(When you are ready to lock in your answer, press <b>ENTER</b>)</p><button id = button_1 class = ""square num-button"" onclick = ""recordClick(this)""><div class = content><div class = numbers>1</div></div></button><button id = button_2 class = ""square num-button"" onclick = ""recordClick(this)""><div class = content><div class = numbers>2</div></div></button><button id = button_3 class = ""square num-button"" onclick = ""recordClick(this)""><div class = content><div class = numbers>3</div></div></button><button id = button_4 class = ""square num-button"" onclick = ""recordClick(this)""><div class = content><div class = numbers>4</div></div></button><button id = button_5 class = ""square num-button"" onclick = ""recordClick(this)""><div class = content><div class = numbers>5</div></div></button><button id = button_6 class = ""square num-button"" onclick = ""recordClick(this)""><div class = content><div class = numbers>6</div></div></button><button id = button_7 class = ""square num-button"" onclick = ""recordClick(this)""><div class = content><div class = numbers>7</div></div></button><button id = button_8 class = ""square num-button"" onclick = ""recordClick(this)""><div class = content><div class = numbers>8</div></div></button><button id = button_9 class = ""square num-button"" onclick = ""recordClick(this)""><div class = content><div class = numbers>9</div></div></button><button class = clear_button id = ""ClearButton"" onclick = ""clearResponse()"">Clear</button><p><u><b>Current Answer:</b></u></p><div id=echoed_txt style=""font-size: 6rem; color:blue;""><b></b></div></div><br><br><br><br><br><br><br>",enter,fwdspan,response,GxfubOWloJeHxXBPpHpGnMTKMtJ2,html-keyboard-response,158,519622,0.0-7.0-2.11-0.11-3.11,10.0,"[4,2,5,3,9,7,6,1,5,4,2]","[4,2,5,3,9,7,6,1,8,4]",0.0,"[3, 4, 5, 6, 7, 8, 9, 10, 10, 9, 10, 10]",,571a720a6a1c6300134b8d2c,11:19:44,15/01/2024
,,,fwdspan,update_span,GxfubOWloJeHxXBPpHpGnMTKMtJ2,call-function,159,519890,0.0-7.0-2.11-0.11-4.11,,,,,,,571a720a6a1c6300134b8d2c,11:19:44,15/01/2024
16551.800000000745,,{'Q0': 'I enjoyed trying to strategise a way of remembering the sequence of numbers.'},fwdspan,survey,GxfubOWloJeHxXBPpHpGnMTKMtJ2,lmdlab-survey-text,160,537199,0.0-7.0-3.0,,,,,,GxfubOWloJeHxXBPpHpGnMTKMtJ2,571a720a6a1c6300134b8d2c,11:19:44,15/01/2024
1090.5,<p><p style='font-size: 3rem'>Great work!<br><br>This completes the digit span task.</p><br><br><br>,0,fwdspan,finish,GxfubOWloJeHxXBPpHpGnMTKMtJ2,html-button-response,161,538292,0.0-7.0-4.0,,,,,,,571a720a6a1c6300134b8d2c,11:19:44,15/01/2024
