rt,stimulus,response,exp_name,exp_stage,subjectID,trial_type,trial_index,time_elapsed,internal_node_id,span,answer,correct,correct_full,span_history,databaseID,prolificID,start_time,date
4102.099999904633,"<p style=""font-size:4rem""><br><br>In the next part today, we have a completely different short task.<br><br><br>This part involves keeping numbers in you mind. Participation takes around 5 minutes.<br><br><br></p>",0,fwdspan,instruct,3qXJUJzOHFbM8zLTY0Fy4HPINWQ2,html-button-response,19,347023,0.0-7.0-0.0,,,,,,,5a25cb0ab279aa0001b0dc01,11:20:29,15/01/2024
7134.200000047684,"<p style=""font-size:5rem"">Welcome to the <b>digit span task</b>!<br><br></p><p style=""font-size:3.4rem""><br>On each trial, you will see a sequence of digits, followed by a delay.</p><p style=""font-size:3.4rem""><br>Then you will be asked to type them back in the same order in which they were seen.</p><p style=""font-size:3.4rem""><br><br><br>For example, if you saw the digits <b style=""color:blue;"">1</b>, <b style=""color:blue;"">2</b>, <b style=""color:blue;"">3</b>, you would respond with <b style=""color:blue;"">1</b>, <b style=""color:blue;"">2</b>, <b style=""color:blue;"">3</b></p><p style=""font-size:3.4rem""><br><br><br>To ensure the best measure of true performance for our study,<br><br>it is very important that you do not use any memory aid (e.g., pen and paper).<br><br>Please do the task solely in your head.</p><p style=""font-size:3.4rem""><br><br><br>There will be 12 total trials. Participation takes around 5 minutes.</p><br><br><br>",0,fwdspan,instruct,3qXJUJzOHFbM8zLTY0Fy4HPINWQ2,html-button-response,20,354161,0.0-7.0-1.0,,,,,,,5a25cb0ab279aa0001b0dc01,11:20:29,15/01/2024
1428.2999999523163,"<p style=""font-size:3rem"">Trial 1 of 12</p><br><br><br>",0,fwdspan,start_trial,3qXJUJzOHFbM8zLTY0Fy4HPINWQ2,html-button-response,21,355598,0.0-7.0-2.0-0.0-0.0,,,,,,,5a25cb0ab279aa0001b0dc01,11:20:29,15/01/2024
,"<p style=""font-size:14rem;font-weight:400;"">8</p>",,fwdspan,number,3qXJUJzOHFbM8zLTY0Fy4HPINWQ2,html-keyboard-response,22,356615,0.0-7.0-2.0-0.0-1.0-0.0,,,,,,,5a25cb0ab279aa0001b0dc01,11:20:29,15/01/2024
,"<p style=""font-size:14rem;font-weight:400;"">7</p>",,fwdspan,number,3qXJUJzOHFbM8zLTY0Fy4HPINWQ2,html-keyboard-response,23,357638,0.0-7.0-2.0-0.0-1.1-0.1,,,,,,,5a25cb0ab279aa0001b0dc01,11:20:29,15/01/2024
,"<p style=""font-size:14rem;font-weight:400;"">1</p>",,fwdspan,number,3qXJUJzOHFbM8zLTY0Fy4HPINWQ2,html-keyboard-response,24,358650,0.0-7.0-2.0-0.0-1.2-0.2,,,,,,,5a25cb0ab279aa0001b0dc01,11:20:29,15/01/2024
,[],,fwdspan,delay,3qXJUJzOHFbM8zLTY0Fy4HPINWQ2,html-keyboard-response,25,359218,0.0-7.0-2.0-0.0-2.0,,,,,,,5a25cb0ab279aa0001b0dc01,11:20:29,15/01/2024
6783.100000143051,"<div class = numbox><p style=""font-size:2.5rem"">What were the numbers <b>in order</b>?<br>(When you are ready to lock in your answer, press <b>ENTER</b>)</p><button id = button_1 class = ""square num-button"" onclick = ""recordClick(this)""><div class = content><div class = numbers>1</div></div></button><button id = button_2 class = ""square num-button"" onclick = ""recordClick(this)""><div class = content><div class = numbers>2</div></div></button><button id = button_3 class = ""square num-button"" onclick = ""recordClick(this)""><div class = content><div class = numbers>3</div></div></button><button id = button_4 class = ""square num-button"" onclick = ""recordClick(this)""><div class = content><div class = numbers>4</div></div></button><button id = button_5 class = ""square num-button"" onclick = ""recordClick(this)""><div class = content><div class = numbers>5</div></div></button><button id = button_6 class = ""square num-button"" onclick = ""recordClick(this)""><div class = content><div class = numbers>6</div></div></button><button id = button_7 class = ""square num-button"" onclick = ""recordClick(this)""><div class = content><div class = numbers>7</div></div></button><button id = button_8 class = ""square num-button"" onclick = ""recordClick(this)""><div class = content><div class = numbers>8</div></div></button><button id = button_9 class = ""square num-button"" onclick = ""recordClick(this)""><div class = content><div class = numbers>9</div></div></button><button class = clear_button id = ""ClearButton"" onclick = ""clearResponse()"">Clear</button><p><u><b>Current Answer:</b></u></p><div id=echoed_txt style=""font-size: 6rem; color:blue;""><b></b></div></div><br><br><br><br><br><br><br>",enter,fwdspan,response,3qXJUJzOHFbM8zLTY0Fy4HPINWQ2,html-keyboard-response,26,366004,0.0-7.0-2.0-0.0-3.0,3.0,"[8,7,1]","[8,7,1]",1.0,"[3, 4, 5, 6, 6, 7, 7, 6, 7, 8, 8, 7]",,5a25cb0ab279aa0001b0dc01,11:20:29,15/01/2024
,,,fwdspan,update_span,3qXJUJzOHFbM8zLTY0Fy4HPINWQ2,call-function,27,366270,0.0-7.0-2.0-0.0-4.0,,,,,,,5a25cb0ab279aa0001b0dc01,11:20:29,15/01/2024
1246.5,"<p style=""font-size:3rem"">Trial 2 of 12</p><br><br><br>",0,fwdspan,start_trial,3qXJUJzOHFbM8zLTY0Fy4HPINWQ2,html-button-response,28,367519,0.0-7.0-2.1-0.1-0.1,,,,,,,5a25cb0ab279aa0001b0dc01,11:20:29,15/01/2024
,"<p style=""font-size:14rem;font-weight:400;"">9</p>",,fwdspan,number,3qXJUJzOHFbM8zLTY0Fy4HPINWQ2,html-keyboard-response,29,368539,0.0-7.0-2.1-0.1-1.3-0.3,,,,,,,5a25cb0ab279aa0001b0dc01,11:20:29,15/01/2024
,"<p style=""font-size:14rem;font-weight:400;"">1</p>",,fwdspan,number,3qXJUJzOHFbM8zLTY0Fy4HPINWQ2,html-keyboard-response,30,369557,0.0-7.0-2.1-0.1-1.4-0.4,,,,,,,5a25cb0ab279aa0001b0dc01,11:20:29,15/01/2024
,"<p style=""font-size:14rem;font-weight:400;"">7</p>",,fwdspan,number,3qXJUJzOHFbM8zLTY0Fy4HPINWQ2,html-keyboard-response,31,370590,0.0-7.0-2.1-0.1-1.5-0.5,,,,,,,5a25cb0ab279aa0001b0dc01,11:20:29,15/01/2024
,"<p style=""font-size:14rem;font-weight:400;"">6</p>",,fwdspan,number,3qXJUJzOHFbM8zLTY0Fy4HPINWQ2,html-keyboard-response,32,371607,0.0-7.0-2.1-0.1-1.6-0.6,,,,,,,5a25cb0ab279aa0001b0dc01,11:20:29,15/01/2024
,[],,fwdspan,delay,3qXJUJzOHFbM8zLTY0Fy4HPINWQ2,html-keyboard-response,33,372184,0.0-7.0-2.1-0.1-2.1,,,,,,,5a25cb0ab279aa0001b0dc01,11:20:29,15/01/2024
4962.399999856949,"<div class = numbox><p style=""font-size:2.5rem"">What were the numbers <b>in order</b>?<br>(When you are ready to lock in your answer, press <b>ENTER</b>)</p><button id = button_1 class = ""square num-button"" onclick = ""recordClick(this)""><div class = content><div class = numbers>1</div></div></button><button id = button_2 class = ""square num-button"" onclick = ""recordClick(this)""><div class = content><div class = numbers>2</div></div></button><button id = button_3 class = ""square num-button"" onclick = ""recordClick(this)""><div class = content><div class = numbers>3</div></div></button><button id = button_4 class = ""square num-button"" onclick = ""recordClick(this)""><div class = content><div class = numbers>4</div></div></button><button id = button_5 class = ""square num-button"" onclick = ""recordClick(this)""><div class = content><div class = numbers>5</div></div></button><button id = button_6 class = ""square num-button"" onclick = ""recordClick(this)""><div class = content><div class = numbers>6</div></div></button><button id = button_7 class = ""square num-button"" onclick = ""recordClick(this)""><div class = content><div class = numbers>7</div></div></button><button id = button_8 class = ""square num-button"" onclick = ""recordClick(this)""><div class = content><div class = numbers>8</div></div></button><button id = button_9 class = ""square num-button"" onclick = ""recordClick(this)""><div class = content><div class = numbers>9</div></div></button><button class = clear_button id = ""ClearButton"" onclick = ""clearResponse()"">Clear</button><p><u><b>Current Answer:</b></u></p><div id=echoed_txt style=""font-size: 6rem; color:blue;""><b></b></div></div><br><br><br><br><br><br><br>",enter,fwdspan,response,3qXJUJzOHFbM8zLTY0Fy4HPINWQ2,html-keyboard-response,34,377149,0.0-7.0-2.1-0.1-3.1,4.0,"[9,1,7,6]","[9,1,7,6]",1.0,"[3, 4, 5, 6, 6, 7, 7, 6, 7, 8, 8, 7]",,5a25cb0ab279aa0001b0dc01,11:20:29,15/01/2024
,,,fwdspan,update_span,3qXJUJzOHFbM8zLTY0Fy4HPINWQ2,call-function,35,377408,0.0-7.0-2.1-0.1-4.1,,,,,,,5a25cb0ab279aa0001b0dc01,11:20:29,15/01/2024
2876.600000143051,"<p style=""font-size:3rem"">Trial 3 of 12</p><br><br><br>",0,fwdspan,start_trial,3qXJUJzOHFbM8zLTY0Fy4HPINWQ2,html-button-response,36,380287,0.0-7.0-2.2-0.2-0.2,,,,,,,5a25cb0ab279aa0001b0dc01,11:20:29,15/01/2024
,"<p style=""font-size:14rem;font-weight:400;"">6</p>",,fwdspan,number,3qXJUJzOHFbM8zLTY0Fy4HPINWQ2,html-keyboard-response,37,381315,0.0-7.0-2.2-0.2-1.7-0.7,,,,,,,5a25cb0ab279aa0001b0dc01,11:20:29,15/01/2024
,"<p style=""font-size:14rem;font-weight:400;"">1</p>",,fwdspan,number,3qXJUJzOHFbM8zLTY0Fy4HPINWQ2,html-keyboard-response,38,382337,0.0-7.0-2.2-0.2-1.8-0.8,,,,,,,5a25cb0ab279aa0001b0dc01,11:20:29,15/01/2024
,"<p style=""font-size:14rem;font-weight:400;"">8</p>",,fwdspan,number,3qXJUJzOHFbM8zLTY0Fy4HPINWQ2,html-keyboard-response,39,383346,0.0-7.0-2.2-0.2-1.9-0.9,,,,,,,5a25cb0ab279aa0001b0dc01,11:20:29,15/01/2024
,"<p style=""font-size:14rem;font-weight:400;"">5</p>",,fwdspan,number,3qXJUJzOHFbM8zLTY0Fy4HPINWQ2,html-keyboard-response,40,384358,0.0-7.0-2.2-0.2-1.10-0.10,,,,,,,5a25cb0ab279aa0001b0dc01,11:20:29,15/01/2024
,"<p style=""font-size:14rem;font-weight:400;"">2</p>",,fwdspan,number,3qXJUJzOHFbM8zLTY0Fy4HPINWQ2,html-keyboard-response,41,385378,0.0-7.0-2.2-0.2-1.11-0.11,,,,,,,5a25cb0ab279aa0001b0dc01,11:20:29,15/01/2024
,[],,fwdspan,delay,3qXJUJzOHFbM8zLTY0Fy4HPINWQ2,html-keyboard-response,42,385947,0.0-7.0-2.2-0.2-2.2,,,,,,,5a25cb0ab279aa0001b0dc01,11:20:29,15/01/2024
4843.900000095367,"<div class = numbox><p style=""font-size:2.5rem"">What were the numbers <b>in order</b>?<br>(When you are ready to lock in your answer, press <b>ENTER</b>)</p><button id = button_1 class = ""square num-button"" onclick = ""recordClick(this)""><div class = content><div class = numbers>1</div></div></button><button id = button_2 class = ""square num-button"" onclick = ""recordClick(this)""><div class = content><div class = numbers>2</div></div></button><button id = button_3 class = ""square num-button"" onclick = ""recordClick(this)""><div class = content><div class = numbers>3</div></div></button><button id = button_4 class = ""square num-button"" onclick = ""recordClick(this)""><div class = content><div class = numbers>4</div></div></button><button id = button_5 class = ""square num-button"" onclick = ""recordClick(this)""><div class = content><div class = numbers>5</div></div></button><button id = button_6 class = ""square num-button"" onclick = ""recordClick(this)""><div class = content><div class = numbers>6</div></div></button><button id = button_7 class = ""square num-button"" onclick = ""recordClick(this)""><div class = content><div class = numbers>7</div></div></button><button id = button_8 class = ""square num-button"" onclick = ""recordClick(this)""><div class = content><div class = numbers>8</div></div></button><button id = button_9 class = ""square num-button"" onclick = ""recordClick(this)""><div class = content><div class = numbers>9</div></div></button><button class = clear_button id = ""ClearButton"" onclick = ""clearResponse()"">Clear</button><p><u><b>Current Answer:</b></u></p><div id=echoed_txt style=""font-size: 6rem; color:blue;""><b></b></div></div><br><br><br><br><br><br><br>",enter,fwdspan,response,3qXJUJzOHFbM8zLTY0Fy4HPINWQ2,html-keyboard-response,43,390792,0.0-7.0-2.2-0.2-3.2,5.0,"[6,1,8,5,2]","[6,1,8,5,2]",1.0,"[3, 4, 5, 6, 6, 7, 7, 6, 7, 8, 8, 7]",,5a25cb0ab279aa0001b0dc01,11:20:29,15/01/2024
,,,fwdspan,update_span,3qXJUJzOHFbM8zLTY0Fy4HPINWQ2,call-function,44,391061,0.0-7.0-2.2-0.2-4.2,,,,,,,5a25cb0ab279aa0001b0dc01,11:20:29,15/01/2024
1482.3999998569489,"<p style=""font-size:3rem"">Trial 4 of 12</p><br><br><br>",0,fwdspan,start_trial,3qXJUJzOHFbM8zLTY0Fy4HPINWQ2,html-button-response,45,392545,0.0-7.0-2.3-0.3-0.3,,,,,,,5a25cb0ab279aa0001b0dc01,11:20:29,15/01/2024
,"<p style=""font-size:14rem;font-weight:400;"">2</p>",,fwdspan,number,3qXJUJzOHFbM8zLTY0Fy4HPINWQ2,html-keyboard-response,46,393577,0.0-7.0-2.3-0.3-1.12-0.12,,,,,,,5a25cb0ab279aa0001b0dc01,11:20:29,15/01/2024
,"<p style=""font-size:14rem;font-weight:400;"">6</p>",,fwdspan,number,3qXJUJzOHFbM8zLTY0Fy4HPINWQ2,html-keyboard-response,47,394585,0.0-7.0-2.3-0.3-1.13-0.13,,,,,,,5a25cb0ab279aa0001b0dc01,11:20:29,15/01/2024
,"<p style=""font-size:14rem;font-weight:400;"">9</p>",,fwdspan,number,3qXJUJzOHFbM8zLTY0Fy4HPINWQ2,html-keyboard-response,48,395605,0.0-7.0-2.3-0.3-1.14-0.14,,,,,,,5a25cb0ab279aa0001b0dc01,11:20:29,15/01/2024
,"<p style=""font-size:14rem;font-weight:400;"">4</p>",,fwdspan,number,3qXJUJzOHFbM8zLTY0Fy4HPINWQ2,html-keyboard-response,49,396619,0.0-7.0-2.3-0.3-1.15-0.15,,,,,,,5a25cb0ab279aa0001b0dc01,11:20:29,15/01/2024
,"<p style=""font-size:14rem;font-weight:400;"">8</p>",,fwdspan,number,3qXJUJzOHFbM8zLTY0Fy4HPINWQ2,html-keyboard-response,50,397633,0.0-7.0-2.3-0.3-1.16-0.16,,,,,,,5a25cb0ab279aa0001b0dc01,11:20:29,15/01/2024
,"<p style=""font-size:14rem;font-weight:400;"">3</p>",,fwdspan,number,3qXJUJzOHFbM8zLTY0Fy4HPINWQ2,html-keyboard-response,51,398659,0.0-7.0-2.3-0.3-1.17-0.17,,,,,,,5a25cb0ab279aa0001b0dc01,11:20:29,15/01/2024
,[],,fwdspan,delay,3qXJUJzOHFbM8zLTY0Fy4HPINWQ2,html-keyboard-response,52,399236,0.0-7.0-2.3-0.3-2.3,,,,,,,5a25cb0ab279aa0001b0dc01,11:20:29,15/01/2024
5942.299999952316,"<div class = numbox><p style=""font-size:2.5rem"">What were the numbers <b>in order</b>?<br>(When you are ready to lock in your answer, press <b>ENTER</b>)</p><button id = button_1 class = ""square num-button"" onclick = ""recordClick(this)""><div class = content><div class = numbers>1</div></div></button><button id = button_2 class = ""square num-button"" onclick = ""recordClick(this)""><div class = content><div class = numbers>2</div></div></button><button id = button_3 class = ""square num-button"" onclick = ""recordClick(this)""><div class = content><div class = numbers>3</div></div></button><button id = button_4 class = ""square num-button"" onclick = ""recordClick(this)""><div class = content><div class = numbers>4</div></div></button><button id = button_5 class = ""square num-button"" onclick = ""recordClick(this)""><div class = content><div class = numbers>5</div></div></button><button id = button_6 class = ""square num-button"" onclick = ""recordClick(this)""><div class = content><div class = numbers>6</div></div></button><button id = button_7 class = ""square num-button"" onclick = ""recordClick(this)""><div class = content><div class = numbers>7</div></div></button><button id = button_8 class = ""square num-button"" onclick = ""recordClick(this)""><div class = content><div class = numbers>8</div></div></button><button id = button_9 class = ""square num-button"" onclick = ""recordClick(this)""><div class = content><div class = numbers>9</div></div></button><button class = clear_button id = ""ClearButton"" onclick = ""clearResponse()"">Clear</button><p><u><b>Current Answer:</b></u></p><div id=echoed_txt style=""font-size: 6rem; color:blue;""><b></b></div></div><br><br><br><br><br><br><br>",enter,fwdspan,response,3qXJUJzOHFbM8zLTY0Fy4HPINWQ2,html-keyboard-response,53,405180,0.0-7.0-2.3-0.3-3.3,6.0,"[2,6,4,8,9,3]","[2,6,9,4,8,3]",0.0,"[3, 4, 5, 6, 6, 7, 7, 6, 7, 8, 8, 7]",,5a25cb0ab279aa0001b0dc01,11:20:29,15/01/2024
,,,fwdspan,update_span,3qXJUJzOHFbM8zLTY0Fy4HPINWQ2,call-function,54,405434,0.0-7.0-2.3-0.3-4.3,,,,,,,5a25cb0ab279aa0001b0dc01,11:20:29,15/01/2024
2264.7999999523163,"<p style=""font-size:3rem"">Trial 5 of 12</p><br><br><br>",0,fwdspan,start_trial,3qXJUJzOHFbM8zLTY0Fy4HPINWQ2,html-button-response,55,407700,0.0-7.0-2.4-0.4-0.4,,,,,,,5a25cb0ab279aa0001b0dc01,11:20:29,15/01/2024
,"<p style=""font-size:14rem;font-weight:400;"">6</p>",,fwdspan,number,3qXJUJzOHFbM8zLTY0Fy4HPINWQ2,html-keyboard-response,56,408718,0.0-7.0-2.4-0.4-1.18-0.18,,,,,,,5a25cb0ab279aa0001b0dc01,11:20:29,15/01/2024
,"<p style=""font-size:14rem;font-weight:400;"">5</p>",,fwdspan,number,3qXJUJzOHFbM8zLTY0Fy4HPINWQ2,html-keyboard-response,57,409748,0.0-7.0-2.4-0.4-1.19-0.19,,,,,,,5a25cb0ab279aa0001b0dc01,11:20:29,15/01/2024
,"<p style=""font-size:14rem;font-weight:400;"">9</p>",,fwdspan,number,3qXJUJzOHFbM8zLTY0Fy4HPINWQ2,html-keyboard-response,58,410762,0.0-7.0-2.4-0.4-1.20-0.20,,,,,,,5a25cb0ab279aa0001b0dc01,11:20:29,15/01/2024
,"<p style=""font-size:14rem;font-weight:400;"">8</p>",,fwdspan,number,3qXJUJzOHFbM8zLTY0Fy4HPINWQ2,html-keyboard-response,59,411780,0.0-7.0-2.4-0.4-1.21-0.21,,,,,,,5a25cb0ab279aa0001b0dc01,11:20:29,15/01/2024
,"<p style=""font-size:14rem;font-weight:400;"">2</p>",,fwdspan,number,3qXJUJzOHFbM8zLTY0Fy4HPINWQ2,html-keyboard-response,60,412798,0.0-7.0-2.4-0.4-1.22-0.22,,,,,,,5a25cb0ab279aa0001b0dc01,11:20:29,15/01/2024
,"<p style=""font-size:14rem;font-weight:400;"">3</p>",,fwdspan,number,3qXJUJzOHFbM8zLTY0Fy4HPINWQ2,html-keyboard-response,61,413820,0.0-7.0-2.4-0.4-1.23-0.23,,,,,,,5a25cb0ab279aa0001b0dc01,11:20:29,15/01/2024
,[],,fwdspan,delay,3qXJUJzOHFbM8zLTY0Fy4HPINWQ2,html-keyboard-response,62,414382,0.0-7.0-2.4-0.4-2.4,,,,,,,5a25cb0ab279aa0001b0dc01,11:20:29,15/01/2024
6597.299999952316,"<div class = numbox><p style=""font-size:2.5rem"">What were the numbers <b>in order</b>?<br>(When you are ready to lock in your answer, press <b>ENTER</b>)</p><button id = button_1 class = ""square num-button"" onclick = ""recordClick(this)""><div class = content><div class = numbers>1</div></div></button><button id = button_2 class = ""square num-button"" onclick = ""recordClick(this)""><div class = content><div class = numbers>2</div></div></button><button id = button_3 class = ""square num-button"" onclick = ""recordClick(this)""><div class = content><div class = numbers>3</div></div></button><button id = button_4 class = ""square num-button"" onclick = ""recordClick(this)""><div class = content><div class = numbers>4</div></div></button><button id = button_5 class = ""square num-button"" onclick = ""recordClick(this)""><div class = content><div class = numbers>5</div></div></button><button id = button_6 class = ""square num-button"" onclick = ""recordClick(this)""><div class = content><div class = numbers>6</div></div></button><button id = button_7 class = ""square num-button"" onclick = ""recordClick(this)""><div class = content><div class = numbers>7</div></div></button><button id = button_8 class = ""square num-button"" onclick = ""recordClick(this)""><div class = content><div class = numbers>8</div></div></button><button id = button_9 class = ""square num-button"" onclick = ""recordClick(this)""><div class = content><div class = numbers>9</div></div></button><button class = clear_button id = ""ClearButton"" onclick = ""clearResponse()"">Clear</button><p><u><b>Current Answer:</b></u></p><div id=echoed_txt style=""font-size: 6rem; color:blue;""><b></b></div></div><br><br><br><br><br><br><br>",enter,fwdspan,response,3qXJUJzOHFbM8zLTY0Fy4HPINWQ2,html-keyboard-response,63,420979,0.0-7.0-2.4-0.4-3.4,6.0,"[6,5,9,8,2,3]","[6,5,9,8,2,3]",1.0,"[3, 4, 5, 6, 6, 7, 7, 6, 7, 8, 8, 7]",,5a25cb0ab279aa0001b0dc01,11:20:29,15/01/2024
,,,fwdspan,update_span,3qXJUJzOHFbM8zLTY0Fy4HPINWQ2,call-function,64,421233,0.0-7.0-2.4-0.4-4.4,,,,,,,5a25cb0ab279aa0001b0dc01,11:20:29,15/01/2024
1380.9000000953674,"<p style=""font-size:3rem"">Trial 6 of 12</p><br><br><br>",0,fwdspan,start_trial,3qXJUJzOHFbM8zLTY0Fy4HPINWQ2,html-button-response,65,422616,0.0-7.0-2.5-0.5-0.5,,,,,,,5a25cb0ab279aa0001b0dc01,11:20:29,15/01/2024
,"<p style=""font-size:14rem;font-weight:400;"">2</p>",,fwdspan,number,3qXJUJzOHFbM8zLTY0Fy4HPINWQ2,html-keyboard-response,66,423634,0.0-7.0-2.5-0.5-1.24-0.24,,,,,,,5a25cb0ab279aa0001b0dc01,11:20:29,15/01/2024
,"<p style=""font-size:14rem;font-weight:400;"">5</p>",,fwdspan,number,3qXJUJzOHFbM8zLTY0Fy4HPINWQ2,html-keyboard-response,67,424655,0.0-7.0-2.5-0.5-1.25-0.25,,,,,,,5a25cb0ab279aa0001b0dc01,11:20:29,15/01/2024
,"<p style=""font-size:14rem;font-weight:400;"">1</p>",,fwdspan,number,3qXJUJzOHFbM8zLTY0Fy4HPINWQ2,html-keyboard-response,68,425667,0.0-7.0-2.5-0.5-1.26-0.26,,,,,,,5a25cb0ab279aa0001b0dc01,11:20:29,15/01/2024
,"<p style=""font-size:14rem;font-weight:400;"">3</p>",,fwdspan,number,3qXJUJzOHFbM8zLTY0Fy4HPINWQ2,html-keyboard-response,69,426682,0.0-7.0-2.5-0.5-1.27-0.27,,,,,,,5a25cb0ab279aa0001b0dc01,11:20:29,15/01/2024
,"<p style=""font-size:14rem;font-weight:400;"">9</p>",,fwdspan,number,3qXJUJzOHFbM8zLTY0Fy4HPINWQ2,html-keyboard-response,70,427699,0.0-7.0-2.5-0.5-1.28-0.28,,,,,,,5a25cb0ab279aa0001b0dc01,11:20:29,15/01/2024
,"<p style=""font-size:14rem;font-weight:400;"">7</p>",,fwdspan,number,3qXJUJzOHFbM8zLTY0Fy4HPINWQ2,html-keyboard-response,71,428714,0.0-7.0-2.5-0.5-1.29-0.29,,,,,,,5a25cb0ab279aa0001b0dc01,11:20:29,15/01/2024
,"<p style=""font-size:14rem;font-weight:400;"">6</p>",,fwdspan,number,3qXJUJzOHFbM8zLTY0Fy4HPINWQ2,html-keyboard-response,72,429723,0.0-7.0-2.5-0.5-1.30-0.30,,,,,,,5a25cb0ab279aa0001b0dc01,11:20:29,15/01/2024
,[],,fwdspan,delay,3qXJUJzOHFbM8zLTY0Fy4HPINWQ2,html-keyboard-response,73,430298,0.0-7.0-2.5-0.5-2.5,,,,,,,5a25cb0ab279aa0001b0dc01,11:20:29,15/01/2024
6907.799999952316,"<div class = numbox><p style=""font-size:2.5rem"">What were the numbers <b>in order</b>?<br>(When you are ready to lock in your answer, press <b>ENTER</b>)</p><button id = button_1 class = ""square num-button"" onclick = ""recordClick(this)""><div class = content><div class = numbers>1</div></div></button><button id = button_2 class = ""square num-button"" onclick = ""recordClick(this)""><div class = content><div class = numbers>2</div></div></button><button id = button_3 class = ""square num-button"" onclick = ""recordClick(this)""><div class = content><div class = numbers>3</div></div></button><button id = button_4 class = ""square num-button"" onclick = ""recordClick(this)""><div class = content><div class = numbers>4</div></div></button><button id = button_5 class = ""square num-button"" onclick = ""recordClick(this)""><div class = content><div class = numbers>5</div></div></button><button id = button_6 class = ""square num-button"" onclick = ""recordClick(this)""><div class = content><div class = numbers>6</div></div></button><button id = button_7 class = ""square num-button"" onclick = ""recordClick(this)""><div class = content><div class = numbers>7</div></div></button><button id = button_8 class = ""square num-button"" onclick = ""recordClick(this)""><div class = content><div class = numbers>8</div></div></button><button id = button_9 class = ""square num-button"" onclick = ""recordClick(this)""><div class = content><div class = numbers>9</div></div></button><button class = clear_button id = ""ClearButton"" onclick = ""clearResponse()"">Clear</button><p><u><b>Current Answer:</b></u></p><div id=echoed_txt style=""font-size: 6rem; color:blue;""><b></b></div></div><br><br><br><br><br><br><br>",enter,fwdspan,response,3qXJUJzOHFbM8zLTY0Fy4HPINWQ2,html-keyboard-response,74,437208,0.0-7.0-2.5-0.5-3.5,7.0,"[2,1,3,9,7,6]","[2,5,1,3,9,7,6]",0.0,"[3, 4, 5, 6, 6, 7, 7, 6, 7, 8, 8, 7]",,5a25cb0ab279aa0001b0dc01,11:20:29,15/01/2024
,,,fwdspan,update_span,3qXJUJzOHFbM8zLTY0Fy4HPINWQ2,call-function,75,437469,0.0-7.0-2.5-0.5-4.5,,,,,,,5a25cb0ab279aa0001b0dc01,11:20:29,15/01/2024
1599.1000001430511,"<p style=""font-size:3rem"">Trial 7 of 12</p><br><br><br>",0,fwdspan,start_trial,3qXJUJzOHFbM8zLTY0Fy4HPINWQ2,html-button-response,76,439070,0.0-7.0-2.6-0.6-0.6,,,,,,,5a25cb0ab279aa0001b0dc01,11:20:29,15/01/2024
,"<p style=""font-size:14rem;font-weight:400;"">1</p>",,fwdspan,number,3qXJUJzOHFbM8zLTY0Fy4HPINWQ2,html-keyboard-response,77,440086,0.0-7.0-2.6-0.6-1.31-0.31,,,,,,,5a25cb0ab279aa0001b0dc01,11:20:29,15/01/2024
,"<p style=""font-size:14rem;font-weight:400;"">7</p>",,fwdspan,number,3qXJUJzOHFbM8zLTY0Fy4HPINWQ2,html-keyboard-response,78,441106,0.0-7.0-2.6-0.6-1.32-0.32,,,,,,,5a25cb0ab279aa0001b0dc01,11:20:29,15/01/2024
,"<p style=""font-size:14rem;font-weight:400;"">4</p>",,fwdspan,number,3qXJUJzOHFbM8zLTY0Fy4HPINWQ2,html-keyboard-response,79,442128,0.0-7.0-2.6-0.6-1.33-0.33,,,,,,,5a25cb0ab279aa0001b0dc01,11:20:29,15/01/2024
,"<p style=""font-size:14rem;font-weight:400;"">6</p>",,fwdspan,number,3qXJUJzOHFbM8zLTY0Fy4HPINWQ2,html-keyboard-response,80,443160,0.0-7.0-2.6-0.6-1.34-0.34,,,,,,,5a25cb0ab279aa0001b0dc01,11:20:29,15/01/2024
,"<p style=""font-size:14rem;font-weight:400;"">2</p>",,fwdspan,number,3qXJUJzOHFbM8zLTY0Fy4HPINWQ2,html-keyboard-response,81,444175,0.0-7.0-2.6-0.6-1.35-0.35,,,,,,,5a25cb0ab279aa0001b0dc01,11:20:29,15/01/2024
,"<p style=""font-size:14rem;font-weight:400;"">8</p>",,fwdspan,number,3qXJUJzOHFbM8zLTY0Fy4HPINWQ2,html-keyboard-response,82,445196,0.0-7.0-2.6-0.6-1.36-0.36,,,,,,,5a25cb0ab279aa0001b0dc01,11:20:29,15/01/2024
,"<p style=""font-size:14rem;font-weight:400;"">5</p>",,fwdspan,number,3qXJUJzOHFbM8zLTY0Fy4HPINWQ2,html-keyboard-response,83,446224,0.0-7.0-2.6-0.6-1.37-0.37,,,,,,,5a25cb0ab279aa0001b0dc01,11:20:29,15/01/2024
,[],,fwdspan,delay,3qXJUJzOHFbM8zLTY0Fy4HPINWQ2,html-keyboard-response,84,446786,0.0-7.0-2.6-0.6-2.6,,,,,,,5a25cb0ab279aa0001b0dc01,11:20:29,15/01/2024
7552.699999809265,"<div class = numbox><p style=""font-size:2.5rem"">What were the numbers <b>in order</b>?<br>(When you are ready to lock in your answer, press <b>ENTER</b>)</p><button id = button_1 class = ""square num-button"" onclick = ""recordClick(this)""><div class = content><div class = numbers>1</div></div></button><button id = button_2 class = ""square num-button"" onclick = ""recordClick(this)""><div class = content><div class = numbers>2</div></div></button><button id = button_3 class = ""square num-button"" onclick = ""recordClick(this)""><div class = content><div class = numbers>3</div></div></button><button id = button_4 class = ""square num-button"" onclick = ""recordClick(this)""><div class = content><div class = numbers>4</div></div></button><button id = button_5 class = ""square num-button"" onclick = ""recordClick(this)""><div class = content><div class = numbers>5</div></div></button><button id = button_6 class = ""square num-button"" onclick = ""recordClick(this)""><div class = content><div class = numbers>6</div></div></button><button id = button_7 class = ""square num-button"" onclick = ""recordClick(this)""><div class = content><div class = numbers>7</div></div></button><button id = button_8 class = ""square num-button"" onclick = ""recordClick(this)""><div class = content><div class = numbers>8</div></div></button><button id = button_9 class = ""square num-button"" onclick = ""recordClick(this)""><div class = content><div class = numbers>9</div></div></button><button class = clear_button id = ""ClearButton"" onclick = ""clearResponse()"">Clear</button><p><u><b>Current Answer:</b></u></p><div id=echoed_txt style=""font-size: 6rem; color:blue;""><b></b></div></div><br><br><br><br><br><br><br>",enter,fwdspan,response,3qXJUJzOHFbM8zLTY0Fy4HPINWQ2,html-keyboard-response,85,454341,0.0-7.0-2.6-0.6-3.6,7.0,"[4,8,1,6,2,8,7,5]","[1,7,4,6,2,8,5]",0.0,"[3, 4, 5, 6, 6, 7, 7, 6, 7, 8, 8, 7]",,5a25cb0ab279aa0001b0dc01,11:20:29,15/01/2024
,,,fwdspan,update_span,3qXJUJzOHFbM8zLTY0Fy4HPINWQ2,call-function,86,454604,0.0-7.0-2.6-0.6-4.6,,,,,,,5a25cb0ab279aa0001b0dc01,11:20:29,15/01/2024
1304.4000000953674,"<p style=""font-size:3rem"">Trial 8 of 12</p><br><br><br>",0,fwdspan,start_trial,3qXJUJzOHFbM8zLTY0Fy4HPINWQ2,html-button-response,87,455910,0.0-7.0-2.7-0.7-0.7,,,,,,,5a25cb0ab279aa0001b0dc01,11:20:29,15/01/2024
,"<p style=""font-size:14rem;font-weight:400;"">1</p>",,fwdspan,number,3qXJUJzOHFbM8zLTY0Fy4HPINWQ2,html-keyboard-response,88,456932,0.0-7.0-2.7-0.7-1.38-0.38,,,,,,,5a25cb0ab279aa0001b0dc01,11:20:29,15/01/2024
,"<p style=""font-size:14rem;font-weight:400;"">4</p>",,fwdspan,number,3qXJUJzOHFbM8zLTY0Fy4HPINWQ2,html-keyboard-response,89,457950,0.0-7.0-2.7-0.7-1.39-0.39,,,,,,,5a25cb0ab279aa0001b0dc01,11:20:29,15/01/2024
,"<p style=""font-size:14rem;font-weight:400;"">2</p>",,fwdspan,number,3qXJUJzOHFbM8zLTY0Fy4HPINWQ2,html-keyboard-response,90,458963,0.0-7.0-2.7-0.7-1.40-0.40,,,,,,,5a25cb0ab279aa0001b0dc01,11:20:29,15/01/2024
,"<p style=""font-size:14rem;font-weight:400;"">8</p>",,fwdspan,number,3qXJUJzOHFbM8zLTY0Fy4HPINWQ2,html-keyboard-response,91,459990,0.0-7.0-2.7-0.7-1.41-0.41,,,,,,,5a25cb0ab279aa0001b0dc01,11:20:29,15/01/2024
,"<p style=""font-size:14rem;font-weight:400;"">6</p>",,fwdspan,number,3qXJUJzOHFbM8zLTY0Fy4HPINWQ2,html-keyboard-response,92,461005,0.0-7.0-2.7-0.7-1.42-0.42,,,,,,,5a25cb0ab279aa0001b0dc01,11:20:29,15/01/2024
,"<p style=""font-size:14rem;font-weight:400;"">9</p>",,fwdspan,number,3qXJUJzOHFbM8zLTY0Fy4HPINWQ2,html-keyboard-response,93,462028,0.0-7.0-2.7-0.7-1.43-0.43,,,,,,,5a25cb0ab279aa0001b0dc01,11:20:29,15/01/2024
,[],,fwdspan,delay,3qXJUJzOHFbM8zLTY0Fy4HPINWQ2,html-keyboard-response,94,462605,0.0-7.0-2.7-0.7-2.7,,,,,,,5a25cb0ab279aa0001b0dc01,11:20:29,15/01/2024
5639.899999856949,"<div class = numbox><p style=""font-size:2.5rem"">What were the numbers <b>in order</b>?<br>(When you are ready to lock in your answer, press <b>ENTER</b>)</p><button id = button_1 class = ""square num-button"" onclick = ""recordClick(this)""><div class = content><div class = numbers>1</div></div></button><button id = button_2 class = ""square num-button"" onclick = ""recordClick(this)""><div class = content><div class = numbers>2</div></div></button><button id = button_3 class = ""square num-button"" onclick = ""recordClick(this)""><div class = content><div class = numbers>3</div></div></button><button id = button_4 class = ""square num-button"" onclick = ""recordClick(this)""><div class = content><div class = numbers>4</div></div></button><button id = button_5 class = ""square num-button"" onclick = ""recordClick(this)""><div class = content><div class = numbers>5</div></div></button><button id = button_6 class = ""square num-button"" onclick = ""recordClick(this)""><div class = content><div class = numbers>6</div></div></button><button id = button_7 class = ""square num-button"" onclick = ""recordClick(this)""><div class = content><div class = numbers>7</div></div></button><button id = button_8 class = ""square num-button"" onclick = ""recordClick(this)""><div class = content><div class = numbers>8</div></div></button><button id = button_9 class = ""square num-button"" onclick = ""recordClick(this)""><div class = content><div class = numbers>9</div></div></button><button class = clear_button id = ""ClearButton"" onclick = ""clearResponse()"">Clear</button><p><u><b>Current Answer:</b></u></p><div id=echoed_txt style=""font-size: 6rem; color:blue;""><b></b></div></div><br><br><br><br><br><br><br>",enter,fwdspan,response,3qXJUJzOHFbM8zLTY0Fy4HPINWQ2,html-keyboard-response,95,468247,0.0-7.0-2.7-0.7-3.7,6.0,"[1,4,2,8,6,9]","[1,4,2,8,6,9]",1.0,"[3, 4, 5, 6, 6, 7, 7, 6, 7, 8, 8, 7]",,5a25cb0ab279aa0001b0dc01,11:20:29,15/01/2024
,,,fwdspan,update_span,3qXJUJzOHFbM8zLTY0Fy4HPINWQ2,call-function,96,468512,0.0-7.0-2.7-0.7-4.7,,,,,,,5a25cb0ab279aa0001b0dc01,11:20:29,15/01/2024
1621.0999999046326,"<p style=""font-size:3rem"">Trial 9 of 12</p><br><br><br>",0,fwdspan,start_trial,3qXJUJzOHFbM8zLTY0Fy4HPINWQ2,html-button-response,97,470135,0.0-7.0-2.8-0.8-0.8,,,,,,,5a25cb0ab279aa0001b0dc01,11:20:29,15/01/2024
,"<p style=""font-size:14rem;font-weight:400;"">3</p>",,fwdspan,number,3qXJUJzOHFbM8zLTY0Fy4HPINWQ2,html-keyboard-response,98,471159,0.0-7.0-2.8-0.8-1.44-0.44,,,,,,,5a25cb0ab279aa0001b0dc01,11:20:29,15/01/2024
,"<p style=""font-size:14rem;font-weight:400;"">4</p>",,fwdspan,number,3qXJUJzOHFbM8zLTY0Fy4HPINWQ2,html-keyboard-response,99,472186,0.0-7.0-2.8-0.8-1.45-0.45,,,,,,,5a25cb0ab279aa0001b0dc01,11:20:29,15/01/2024
,"<p style=""font-size:14rem;font-weight:400;"">1</p>",,fwdspan,number,3qXJUJzOHFbM8zLTY0Fy4HPINWQ2,html-keyboard-response,100,473210,0.0-7.0-2.8-0.8-1.46-0.46,,,,,,,5a25cb0ab279aa0001b0dc01,11:20:29,15/01/2024
,"<p style=""font-size:14rem;font-weight:400;"">6</p>",,fwdspan,number,3qXJUJzOHFbM8zLTY0Fy4HPINWQ2,html-keyboard-response,101,474226,0.0-7.0-2.8-0.8-1.47-0.47,,,,,,,5a25cb0ab279aa0001b0dc01,11:20:29,15/01/2024
,"<p style=""font-size:14rem;font-weight:400;"">2</p>",,fwdspan,number,3qXJUJzOHFbM8zLTY0Fy4HPINWQ2,html-keyboard-response,102,475235,0.0-7.0-2.8-0.8-1.48-0.48,,,,,,,5a25cb0ab279aa0001b0dc01,11:20:29,15/01/2024
,"<p style=""font-size:14rem;font-weight:400;"">9</p>",,fwdspan,number,3qXJUJzOHFbM8zLTY0Fy4HPINWQ2,html-keyboard-response,103,476252,0.0-7.0-2.8-0.8-1.49-0.49,,,,,,,5a25cb0ab279aa0001b0dc01,11:20:29,15/01/2024
,"<p style=""font-size:14rem;font-weight:400;"">7</p>",,fwdspan,number,3qXJUJzOHFbM8zLTY0Fy4HPINWQ2,html-keyboard-response,104,477269,0.0-7.0-2.8-0.8-1.50-0.50,,,,,,,5a25cb0ab279aa0001b0dc01,11:20:29,15/01/2024
,[],,fwdspan,delay,3qXJUJzOHFbM8zLTY0Fy4HPINWQ2,html-keyboard-response,105,477837,0.0-7.0-2.8-0.8-2.8,,,,,,,5a25cb0ab279aa0001b0dc01,11:20:29,15/01/2024
7247.599999904633,"<div class = numbox><p style=""font-size:2.5rem"">What were the numbers <b>in order</b>?<br>(When you are ready to lock in your answer, press <b>ENTER</b>)</p><button id = button_1 class = ""square num-button"" onclick = ""recordClick(this)""><div class = content><div class = numbers>1</div></div></button><button id = button_2 class = ""square num-button"" onclick = ""recordClick(this)""><div class = content><div class = numbers>2</div></div></button><button id = button_3 class = ""square num-button"" onclick = ""recordClick(this)""><div class = content><div class = numbers>3</div></div></button><button id = button_4 class = ""square num-button"" onclick = ""recordClick(this)""><div class = content><div class = numbers>4</div></div></button><button id = button_5 class = ""square num-button"" onclick = ""recordClick(this)""><div class = content><div class = numbers>5</div></div></button><button id = button_6 class = ""square num-button"" onclick = ""recordClick(this)""><div class = content><div class = numbers>6</div></div></button><button id = button_7 class = ""square num-button"" onclick = ""recordClick(this)""><div class = content><div class = numbers>7</div></div></button><button id = button_8 class = ""square num-button"" onclick = ""recordClick(this)""><div class = content><div class = numbers>8</div></div></button><button id = button_9 class = ""square num-button"" onclick = ""recordClick(this)""><div class = content><div class = numbers>9</div></div></button><button class = clear_button id = ""ClearButton"" onclick = ""clearResponse()"">Clear</button><p><u><b>Current Answer:</b></u></p><div id=echoed_txt style=""font-size: 6rem; color:blue;""><b></b></div></div><br><br><br><br><br><br><br>",enter,fwdspan,response,3qXJUJzOHFbM8zLTY0Fy4HPINWQ2,html-keyboard-response,106,485086,0.0-7.0-2.8-0.8-3.8,7.0,"[3,4,1,6,2,9,7]","[3,4,1,6,2,9,7]",1.0,"[3, 4, 5, 6, 6, 7, 7, 6, 7, 8, 8, 7]",,5a25cb0ab279aa0001b0dc01,11:20:29,15/01/2024
,,,fwdspan,update_span,3qXJUJzOHFbM8zLTY0Fy4HPINWQ2,call-function,107,485355,0.0-7.0-2.8-0.8-4.8,,,,,,,5a25cb0ab279aa0001b0dc01,11:20:29,15/01/2024
1441.2999999523163,"<p style=""font-size:3rem"">Trial 10 of 12</p><br><br><br>",0,fwdspan,start_trial,3qXJUJzOHFbM8zLTY0Fy4HPINWQ2,html-button-response,108,486798,0.0-7.0-2.9-0.9-0.9,,,,,,,5a25cb0ab279aa0001b0dc01,11:20:29,15/01/2024
,"<p style=""font-size:14rem;font-weight:400;"">2</p>",,fwdspan,number,3qXJUJzOHFbM8zLTY0Fy4HPINWQ2,html-keyboard-response,109,487818,0.0-7.0-2.9-0.9-1.51-0.51,,,,,,,5a25cb0ab279aa0001b0dc01,11:20:29,15/01/2024
,"<p style=""font-size:14rem;font-weight:400;"">8</p>",,fwdspan,number,3qXJUJzOHFbM8zLTY0Fy4HPINWQ2,html-keyboard-response,110,488843,0.0-7.0-2.9-0.9-1.52-0.52,,,,,,,5a25cb0ab279aa0001b0dc01,11:20:29,15/01/2024
,"<p style=""font-size:14rem;font-weight:400;"">6</p>",,fwdspan,number,3qXJUJzOHFbM8zLTY0Fy4HPINWQ2,html-keyboard-response,111,489873,0.0-7.0-2.9-0.9-1.53-0.53,,,,,,,5a25cb0ab279aa0001b0dc01,11:20:29,15/01/2024
,"<p style=""font-size:14rem;font-weight:400;"">1</p>",,fwdspan,number,3qXJUJzOHFbM8zLTY0Fy4HPINWQ2,html-keyboard-response,112,490906,0.0-7.0-2.9-0.9-1.54-0.54,,,,,,,5a25cb0ab279aa0001b0dc01,11:20:29,15/01/2024
,"<p style=""font-size:14rem;font-weight:400;"">7</p>",,fwdspan,number,3qXJUJzOHFbM8zLTY0Fy4HPINWQ2,html-keyboard-response,113,491916,0.0-7.0-2.9-0.9-1.55-0.55,,,,,,,5a25cb0ab279aa0001b0dc01,11:20:29,15/01/2024
,"<p style=""font-size:14rem;font-weight:400;"">5</p>",,fwdspan,number,3qXJUJzOHFbM8zLTY0Fy4HPINWQ2,html-keyboard-response,114,492939,0.0-7.0-2.9-0.9-1.56-0.56,,,,,,,5a25cb0ab279aa0001b0dc01,11:20:29,15/01/2024
,"<p style=""font-size:14rem;font-weight:400;"">9</p>",,fwdspan,number,3qXJUJzOHFbM8zLTY0Fy4HPINWQ2,html-keyboard-response,115,493956,0.0-7.0-2.9-0.9-1.57-0.57,,,,,,,5a25cb0ab279aa0001b0dc01,11:20:29,15/01/2024
,"<p style=""font-size:14rem;font-weight:400;"">4</p>",,fwdspan,number,3qXJUJzOHFbM8zLTY0Fy4HPINWQ2,html-keyboard-response,116,494978,0.0-7.0-2.9-0.9-1.58-0.58,,,,,,,5a25cb0ab279aa0001b0dc01,11:20:29,15/01/2024
,[],,fwdspan,delay,3qXJUJzOHFbM8zLTY0Fy4HPINWQ2,html-keyboard-response,117,495531,0.0-7.0-2.9-0.9-2.9,,,,,,,5a25cb0ab279aa0001b0dc01,11:20:29,15/01/2024
8342.299999952316,"<div class = numbox><p style=""font-size:2.5rem"">What were the numbers <b>in order</b>?<br>(When you are ready to lock in your answer, press <b>ENTER</b>)</p><button id = button_1 class = ""square num-button"" onclick = ""recordClick(this)""><div class = content><div class = numbers>1</div></div></button><button id = button_2 class = ""square num-button"" onclick = ""recordClick(this)""><div class = content><div class = numbers>2</div></div></button><button id = button_3 class = ""square num-button"" onclick = ""recordClick(this)""><div class = content><div class = numbers>3</div></div></button><button id = button_4 class = ""square num-button"" onclick = ""recordClick(this)""><div class = content><div class = numbers>4</div></div></button><button id = button_5 class = ""square num-button"" onclick = ""recordClick(this)""><div class = content><div class = numbers>5</div></div></button><button id = button_6 class = ""square num-button"" onclick = ""recordClick(this)""><div class = content><div class = numbers>6</div></div></button><button id = button_7 class = ""square num-button"" onclick = ""recordClick(this)""><div class = content><div class = numbers>7</div></div></button><button id = button_8 class = ""square num-button"" onclick = ""recordClick(this)""><div class = content><div class = numbers>8</div></div></button><button id = button_9 class = ""square num-button"" onclick = ""recordClick(this)""><div class = content><div class = numbers>9</div></div></button><button class = clear_button id = ""ClearButton"" onclick = ""clearResponse()"">Clear</button><p><u><b>Current Answer:</b></u></p><div id=echoed_txt style=""font-size: 6rem; color:blue;""><b></b></div></div><br><br><br><br><br><br><br>",enter,fwdspan,response,3qXJUJzOHFbM8zLTY0Fy4HPINWQ2,html-keyboard-response,118,503875,0.0-7.0-2.9-0.9-3.9,8.0,"[2,8,6,1,5,7,9]","[2,8,6,1,7,5,9,4]",0.0,"[3, 4, 5, 6, 6, 7, 7, 6, 7, 8, 8, 7]",,5a25cb0ab279aa0001b0dc01,11:20:29,15/01/2024
,,,fwdspan,update_span,3qXJUJzOHFbM8zLTY0Fy4HPINWQ2,call-function,119,504140,0.0-7.0-2.9-0.9-4.9,,,,,,,5a25cb0ab279aa0001b0dc01,11:20:29,15/01/2024
1034.3999998569489,"<p style=""font-size:3rem"">Trial 11 of 12</p><br><br><br>",0,fwdspan,start_trial,3qXJUJzOHFbM8zLTY0Fy4HPINWQ2,html-button-response,120,505175,0.0-7.0-2.10-0.10-0.10,,,,,,,5a25cb0ab279aa0001b0dc01,11:20:29,15/01/2024
,"<p style=""font-size:14rem;font-weight:400;"">7</p>",,fwdspan,number,3qXJUJzOHFbM8zLTY0Fy4HPINWQ2,html-keyboard-response,121,506202,0.0-7.0-2.10-0.10-1.59-0.59,,,,,,,5a25cb0ab279aa0001b0dc01,11:20:29,15/01/2024
,"<p style=""font-size:14rem;font-weight:400;"">4</p>",,fwdspan,number,3qXJUJzOHFbM8zLTY0Fy4HPINWQ2,html-keyboard-response,122,507209,0.0-7.0-2.10-0.10-1.60-0.60,,,,,,,5a25cb0ab279aa0001b0dc01,11:20:29,15/01/2024
,"<p style=""font-size:14rem;font-weight:400;"">6</p>",,fwdspan,number,3qXJUJzOHFbM8zLTY0Fy4HPINWQ2,html-keyboard-response,123,508228,0.0-7.0-2.10-0.10-1.61-0.61,,,,,,,5a25cb0ab279aa0001b0dc01,11:20:29,15/01/2024
,"<p style=""font-size:14rem;font-weight:400;"">8</p>",,fwdspan,number,3qXJUJzOHFbM8zLTY0Fy4HPINWQ2,html-keyboard-response,124,509247,0.0-7.0-2.10-0.10-1.62-0.62,,,,,,,5a25cb0ab279aa0001b0dc01,11:20:29,15/01/2024
,"<p style=""font-size:14rem;font-weight:400;"">1</p>",,fwdspan,number,3qXJUJzOHFbM8zLTY0Fy4HPINWQ2,html-keyboard-response,125,510268,0.0-7.0-2.10-0.10-1.63-0.63,,,,,,,5a25cb0ab279aa0001b0dc01,11:20:29,15/01/2024
,"<p style=""font-size:14rem;font-weight:400;"">2</p>",,fwdspan,number,3qXJUJzOHFbM8zLTY0Fy4HPINWQ2,html-keyboard-response,126,511282,0.0-7.0-2.10-0.10-1.64-0.64,,,,,,,5a25cb0ab279aa0001b0dc01,11:20:29,15/01/2024
,"<p style=""font-size:14rem;font-weight:400;"">3</p>",,fwdspan,number,3qXJUJzOHFbM8zLTY0Fy4HPINWQ2,html-keyboard-response,127,512297,0.0-7.0-2.10-0.10-1.65-0.65,,,,,,,5a25cb0ab279aa0001b0dc01,11:20:29,15/01/2024
,"<p style=""font-size:14rem;font-weight:400;"">9</p>",,fwdspan,number,3qXJUJzOHFbM8zLTY0Fy4HPINWQ2,html-keyboard-response,128,513315,0.0-7.0-2.10-0.10-1.66-0.66,,,,,,,5a25cb0ab279aa0001b0dc01,11:20:29,15/01/2024
,[],,fwdspan,delay,3qXJUJzOHFbM8zLTY0Fy4HPINWQ2,html-keyboard-response,129,513876,0.0-7.0-2.10-0.10-2.10,,,,,,,5a25cb0ab279aa0001b0dc01,11:20:29,15/01/2024
6053.400000095367,"<div class = numbox><p style=""font-size:2.5rem"">What were the numbers <b>in order</b>?<br>(When you are ready to lock in your answer, press <b>ENTER</b>)</p><button id = button_1 class = ""square num-button"" onclick = ""recordClick(this)""><div class = content><div class = numbers>1</div></div></button><button id = button_2 class = ""square num-button"" onclick = ""recordClick(this)""><div class = content><div class = numbers>2</div></div></button><button id = button_3 class = ""square num-button"" onclick = ""recordClick(this)""><div class = content><div class = numbers>3</div></div></button><button id = button_4 class = ""square num-button"" onclick = ""recordClick(this)""><div class = content><div class = numbers>4</div></div></button><button id = button_5 class = ""square num-button"" onclick = ""recordClick(this)""><div class = content><div class = numbers>5</div></div></button><button id = button_6 class = ""square num-button"" onclick = ""recordClick(this)""><div class = content><div class = numbers>6</div></div></button><button id = button_7 class = ""square num-button"" onclick = ""recordClick(this)""><div class = content><div class = numbers>7</div></div></button><button id = button_8 class = ""square num-button"" onclick = ""recordClick(this)""><div class = content><div class = numbers>8</div></div></button><button id = button_9 class = ""square num-button"" onclick = ""recordClick(this)""><div class = content><div class = numbers>9</div></div></button><button class = clear_button id = ""ClearButton"" onclick = ""clearResponse()"">Clear</button><p><u><b>Current Answer:</b></u></p><div id=echoed_txt style=""font-size: 6rem; color:blue;""><b></b></div></div><br><br><br><br><br><br><br>",enter,fwdspan,response,3qXJUJzOHFbM8zLTY0Fy4HPINWQ2,html-keyboard-response,130,519931,0.0-7.0-2.10-0.10-3.10,8.0,"[7,1,8,2,4,9]","[7,4,6,8,1,2,3,9]",0.0,"[3, 4, 5, 6, 6, 7, 7, 6, 7, 8, 8, 7]",,5a25cb0ab279aa0001b0dc01,11:20:29,15/01/2024
,,,fwdspan,update_span,3qXJUJzOHFbM8zLTY0Fy4HPINWQ2,call-function,131,520197,0.0-7.0-2.10-0.10-4.10,,,,,,,5a25cb0ab279aa0001b0dc01,11:20:29,15/01/2024
1161.1000001430511,"<p style=""font-size:3rem"">Trial 12 of 12</p><br><br><br>",0,fwdspan,start_trial,3qXJUJzOHFbM8zLTY0Fy4HPINWQ2,html-button-response,132,521360,0.0-7.0-2.11-0.11-0.11,,,,,,,5a25cb0ab279aa0001b0dc01,11:20:29,15/01/2024
,"<p style=""font-size:14rem;font-weight:400;"">2</p>",,fwdspan,number,3qXJUJzOHFbM8zLTY0Fy4HPINWQ2,html-keyboard-response,133,522373,0.0-7.0-2.11-0.11-1.67-0.67,,,,,,,5a25cb0ab279aa0001b0dc01,11:20:29,15/01/2024
,"<p style=""font-size:14rem;font-weight:400;"">6</p>",,fwdspan,number,3qXJUJzOHFbM8zLTY0Fy4HPINWQ2,html-keyboard-response,134,523389,0.0-7.0-2.11-0.11-1.68-0.68,,,,,,,5a25cb0ab279aa0001b0dc01,11:20:29,15/01/2024
,"<p style=""font-size:14rem;font-weight:400;"">1</p>",,fwdspan,number,3qXJUJzOHFbM8zLTY0Fy4HPINWQ2,html-keyboard-response,135,524401,0.0-7.0-2.11-0.11-1.69-0.69,,,,,,,5a25cb0ab279aa0001b0dc01,11:20:29,15/01/2024
,"<p style=""font-size:14rem;font-weight:400;"">3</p>",,fwdspan,number,3qXJUJzOHFbM8zLTY0Fy4HPINWQ2,html-keyboard-response,136,525427,0.0-7.0-2.11-0.11-1.70-0.70,,,,,,,5a25cb0ab279aa0001b0dc01,11:20:29,15/01/2024
,"<p style=""font-size:14rem;font-weight:400;"">7</p>",,fwdspan,number,3qXJUJzOHFbM8zLTY0Fy4HPINWQ2,html-keyboard-response,137,526442,0.0-7.0-2.11-0.11-1.71-0.71,,,,,,,5a25cb0ab279aa0001b0dc01,11:20:29,15/01/2024
,"<p style=""font-size:14rem;font-weight:400;"">8</p>",,fwdspan,number,3qXJUJzOHFbM8zLTY0Fy4HPINWQ2,html-keyboard-response,138,527460,0.0-7.0-2.11-0.11-1.72-0.72,,,,,,,5a25cb0ab279aa0001b0dc01,11:20:29,15/01/2024
,"<p style=""font-size:14rem;font-weight:400;"">4</p>",,fwdspan,number,3qXJUJzOHFbM8zLTY0Fy4HPINWQ2,html-keyboard-response,139,528478,0.0-7.0-2.11-0.11-1.73-0.73,,,,,,,5a25cb0ab279aa0001b0dc01,11:20:29,15/01/2024
,[],,fwdspan,delay,3qXJUJzOHFbM8zLTY0Fy4HPINWQ2,html-keyboard-response,140,529052,0.0-7.0-2.11-0.11-2.11,,,,,,,5a25cb0ab279aa0001b0dc01,11:20:29,15/01/2024
6604.099999904633,"<div class = numbox><p style=""font-size:2.5rem"">What were the numbers <b>in order</b>?<br>(When you are ready to lock in your answer, press <b>ENTER</b>)</p><button id = button_1 class = ""square num-button"" onclick = ""recordClick(this)""><div class = content><div class = numbers>1</div></div></button><button id = button_2 class = ""square num-button"" onclick = ""recordClick(this)""><div class = content><div class = numbers>2</div></div></button><button id = button_3 class = ""square num-button"" onclick = ""recordClick(this)""><div class = content><div class = numbers>3</div></div></button><button id = button_4 class = ""square num-button"" onclick = ""recordClick(this)""><div class = content><div class = numbers>4</div></div></button><button id = button_5 class = ""square num-button"" onclick = ""recordClick(this)""><div class = content><div class = numbers>5</div></div></button><button id = button_6 class = ""square num-button"" onclick = ""recordClick(this)""><div class = content><div class = numbers>6</div></div></button><button id = button_7 class = ""square num-button"" onclick = ""recordClick(this)""><div class = content><div class = numbers>7</div></div></button><button id = button_8 class = ""square num-button"" onclick = ""recordClick(this)""><div class = content><div class = numbers>8</div></div></button><button id = button_9 class = ""square num-button"" onclick = ""recordClick(this)""><div class = content><div class = numbers>9</div></div></button><button class = clear_button id = ""ClearButton"" onclick = ""clearResponse()"">Clear</button><p><u><b>Current Answer:</b></u></p><div id=echoed_txt style=""font-size: 6rem; color:blue;""><b></b></div></div><br><br><br><br><br><br><br>",enter,fwdspan,response,3qXJUJzOHFbM8zLTY0Fy4HPINWQ2,html-keyboard-response,141,535658,0.0-7.0-2.11-0.11-3.11,7.0,"[2,6,1,3,7,8,4]","[2,6,1,3,7,8,4]",1.0,"[3, 4, 5, 6, 6, 7, 7, 6, 7, 8, 8, 7]",,5a25cb0ab279aa0001b0dc01,11:20:29,15/01/2024
,,,fwdspan,update_span,3qXJUJzOHFbM8zLTY0Fy4HPINWQ2,call-function,142,535909,0.0-7.0-2.11-0.11-4.11,,,,,,,5a25cb0ab279aa0001b0dc01,11:20:29,15/01/2024
46501.200000047684,,{'Q0': 'I enjoyed the numbers task because I felt like I would be good at it and it also felt like a challenge. Everything was clear and so it was a very straightforward and good study.'},fwdspan,survey,3qXJUJzOHFbM8zLTY0Fy4HPINWQ2,lmdlab-survey-text,143,583165,0.0-7.0-3.0,,,,,,3qXJUJzOHFbM8zLTY0Fy4HPINWQ2,5a25cb0ab279aa0001b0dc01,11:20:29,15/01/2024
1880.2000000476837,<p><p style='font-size: 3rem'>Great work!<br><br>This completes the digit span task.</p><br><br><br>,0,fwdspan,finish,3qXJUJzOHFbM8zLTY0Fy4HPINWQ2,html-button-response,144,585051,0.0-7.0-4.0,,,,,,,5a25cb0ab279aa0001b0dc01,11:20:29,15/01/2024
