rt,stimulus,response,exp_name,exp_stage,subjectID,trial_type,trial_index,time_elapsed,internal_node_id,span,answer,correct,correct_full,span_history,databaseID,prolificID,start_time,date
8059.099999999977,"<p style=""font-size:4rem""><br><br>In the next part today, we have a completely different short task.<br><br><br>This part involves keeping numbers in you mind. Participation takes around 5 minutes.<br><br><br></p>",0,fwdspan,instruct,3tvP7RtAIxTIKUSScpjeO4d8R262,html-button-response,19,687481,0.0-7.0-0.0,,,,,,,62d6d75faf2887ac7631c709,11:27:37,15/01/2024
18724.599999999977,"<p style=""font-size:5rem"">Welcome to the <b>digit span task</b>!<br><br></p><p style=""font-size:3.4rem""><br>On each trial, you will see a sequence of digits, followed by a delay.</p><p style=""font-size:3.4rem""><br>Then you will be asked to type them back in the same order in which they were seen.</p><p style=""font-size:3.4rem""><br><br><br>For example, if you saw the digits <b style=""color:blue;"">1</b>, <b style=""color:blue;"">2</b>, <b style=""color:blue;"">3</b>, you would respond with <b style=""color:blue;"">1</b>, <b style=""color:blue;"">2</b>, <b style=""color:blue;"">3</b></p><p style=""font-size:3.4rem""><br><br><br>To ensure the best measure of true performance for our study,<br><br>it is very important that you do not use any memory aid (e.g., pen and paper).<br><br>Please do the task solely in your head.</p><p style=""font-size:3.4rem""><br><br><br>There will be 12 total trials. Participation takes around 5 minutes.</p><br><br><br>",0,fwdspan,instruct,3tvP7RtAIxTIKUSScpjeO4d8R262,html-button-response,20,706209,0.0-7.0-1.0,,,,,,,62d6d75faf2887ac7631c709,11:27:37,15/01/2024
2033.0999999999767,"<p style=""font-size:3rem"">Trial 1 of 12</p><br><br><br>",0,fwdspan,start_trial,3tvP7RtAIxTIKUSScpjeO4d8R262,html-button-response,21,708248,0.0-7.0-2.0-0.0-0.0,,,,,,,62d6d75faf2887ac7631c709,11:27:37,15/01/2024
,"<p style=""font-size:14rem;font-weight:400;"">8</p>",,fwdspan,number,3tvP7RtAIxTIKUSScpjeO4d8R262,html-keyboard-response,22,709252,0.0-7.0-2.0-0.0-1.0-0.0,,,,,,,62d6d75faf2887ac7631c709,11:27:37,15/01/2024
,"<p style=""font-size:14rem;font-weight:400;"">7</p>",,fwdspan,number,3tvP7RtAIxTIKUSScpjeO4d8R262,html-keyboard-response,23,710258,0.0-7.0-2.0-0.0-1.1-0.1,,,,,,,62d6d75faf2887ac7631c709,11:27:37,15/01/2024
,"<p style=""font-size:14rem;font-weight:400;"">9</p>",,fwdspan,number,3tvP7RtAIxTIKUSScpjeO4d8R262,html-keyboard-response,24,711267,0.0-7.0-2.0-0.0-1.2-0.2,,,,,,,62d6d75faf2887ac7631c709,11:27:37,15/01/2024
,[],,fwdspan,delay,3tvP7RtAIxTIKUSScpjeO4d8R262,html-keyboard-response,25,711825,0.0-7.0-2.0-0.0-2.0,,,,,,,62d6d75faf2887ac7631c709,11:27:37,15/01/2024
9900.800000000047,"<div class = numbox><p style=""font-size:2.5rem"">What were the numbers <b>in order</b>?<br>(When you are ready to lock in your answer, press <b>ENTER</b>)</p><button id = button_1 class = ""square num-button"" onclick = ""recordClick(this)""><div class = content><div class = numbers>1</div></div></button><button id = button_2 class = ""square num-button"" onclick = ""recordClick(this)""><div class = content><div class = numbers>2</div></div></button><button id = button_3 class = ""square num-button"" onclick = ""recordClick(this)""><div class = content><div class = numbers>3</div></div></button><button id = button_4 class = ""square num-button"" onclick = ""recordClick(this)""><div class = content><div class = numbers>4</div></div></button><button id = button_5 class = ""square num-button"" onclick = ""recordClick(this)""><div class = content><div class = numbers>5</div></div></button><button id = button_6 class = ""square num-button"" onclick = ""recordClick(this)""><div class = content><div class = numbers>6</div></div></button><button id = button_7 class = ""square num-button"" onclick = ""recordClick(this)""><div class = content><div class = numbers>7</div></div></button><button id = button_8 class = ""square num-button"" onclick = ""recordClick(this)""><div class = content><div class = numbers>8</div></div></button><button id = button_9 class = ""square num-button"" onclick = ""recordClick(this)""><div class = content><div class = numbers>9</div></div></button><button class = clear_button id = ""ClearButton"" onclick = ""clearResponse()"">Clear</button><p><u><b>Current Answer:</b></u></p><div id=echoed_txt style=""font-size: 6rem; color:blue;""><b></b></div></div><br><br><br><br><br><br><br>",enter,fwdspan,response,3tvP7RtAIxTIKUSScpjeO4d8R262,html-keyboard-response,26,721730,0.0-7.0-2.0-0.0-3.0,3.0,"[8,7,9]","[8,7,9]",1.0,"[3, 4, 5, 6, 6, 5, 6, 6, 7, 8, 8, 7]",,62d6d75faf2887ac7631c709,11:27:37,15/01/2024
,,,fwdspan,update_span,3tvP7RtAIxTIKUSScpjeO4d8R262,call-function,27,721985,0.0-7.0-2.0-0.0-4.0,,,,,,,62d6d75faf2887ac7631c709,11:27:37,15/01/2024
19142.20000000007,"<p style=""font-size:3rem"">Trial 2 of 12</p><br><br><br>",0,fwdspan,start_trial,3tvP7RtAIxTIKUSScpjeO4d8R262,html-button-response,28,741129,0.0-7.0-2.1-0.1-0.1,,,,,,,62d6d75faf2887ac7631c709,11:27:37,15/01/2024
,"<p style=""font-size:14rem;font-weight:400;"">4</p>",,fwdspan,number,3tvP7RtAIxTIKUSScpjeO4d8R262,html-keyboard-response,29,742138,0.0-7.0-2.1-0.1-1.3-0.3,,,,,,,62d6d75faf2887ac7631c709,11:27:37,15/01/2024
,"<p style=""font-size:14rem;font-weight:400;"">3</p>",,fwdspan,number,3tvP7RtAIxTIKUSScpjeO4d8R262,html-keyboard-response,30,743146,0.0-7.0-2.1-0.1-1.4-0.4,,,,,,,62d6d75faf2887ac7631c709,11:27:37,15/01/2024
,"<p style=""font-size:14rem;font-weight:400;"">2</p>",,fwdspan,number,3tvP7RtAIxTIKUSScpjeO4d8R262,html-keyboard-response,31,744153,0.0-7.0-2.1-0.1-1.5-0.5,,,,,,,62d6d75faf2887ac7631c709,11:27:37,15/01/2024
,"<p style=""font-size:14rem;font-weight:400;"">8</p>",,fwdspan,number,3tvP7RtAIxTIKUSScpjeO4d8R262,html-keyboard-response,32,745160,0.0-7.0-2.1-0.1-1.6-0.6,,,,,,,62d6d75faf2887ac7631c709,11:27:37,15/01/2024
,[],,fwdspan,delay,3tvP7RtAIxTIKUSScpjeO4d8R262,html-keyboard-response,33,745714,0.0-7.0-2.1-0.1-2.1,,,,,,,62d6d75faf2887ac7631c709,11:27:37,15/01/2024
4728.199999999953,"<div class = numbox><p style=""font-size:2.5rem"">What were the numbers <b>in order</b>?<br>(When you are ready to lock in your answer, press <b>ENTER</b>)</p><button id = button_1 class = ""square num-button"" onclick = ""recordClick(this)""><div class = content><div class = numbers>1</div></div></button><button id = button_2 class = ""square num-button"" onclick = ""recordClick(this)""><div class = content><div class = numbers>2</div></div></button><button id = button_3 class = ""square num-button"" onclick = ""recordClick(this)""><div class = content><div class = numbers>3</div></div></button><button id = button_4 class = ""square num-button"" onclick = ""recordClick(this)""><div class = content><div class = numbers>4</div></div></button><button id = button_5 class = ""square num-button"" onclick = ""recordClick(this)""><div class = content><div class = numbers>5</div></div></button><button id = button_6 class = ""square num-button"" onclick = ""recordClick(this)""><div class = content><div class = numbers>6</div></div></button><button id = button_7 class = ""square num-button"" onclick = ""recordClick(this)""><div class = content><div class = numbers>7</div></div></button><button id = button_8 class = ""square num-button"" onclick = ""recordClick(this)""><div class = content><div class = numbers>8</div></div></button><button id = button_9 class = ""square num-button"" onclick = ""recordClick(this)""><div class = content><div class = numbers>9</div></div></button><button class = clear_button id = ""ClearButton"" onclick = ""clearResponse()"">Clear</button><p><u><b>Current Answer:</b></u></p><div id=echoed_txt style=""font-size: 6rem; color:blue;""><b></b></div></div><br><br><br><br><br><br><br>",enter,fwdspan,response,3tvP7RtAIxTIKUSScpjeO4d8R262,html-keyboard-response,34,750444,0.0-7.0-2.1-0.1-3.1,4.0,"[4,3,2,8]","[4,3,2,8]",1.0,"[3, 4, 5, 6, 6, 5, 6, 6, 7, 8, 8, 7]",,62d6d75faf2887ac7631c709,11:27:37,15/01/2024
,,,fwdspan,update_span,3tvP7RtAIxTIKUSScpjeO4d8R262,call-function,35,750697,0.0-7.0-2.1-0.1-4.1,,,,,,,62d6d75faf2887ac7631c709,11:27:37,15/01/2024
1194.7999999999302,"<p style=""font-size:3rem"">Trial 3 of 12</p><br><br><br>",0,fwdspan,start_trial,3tvP7RtAIxTIKUSScpjeO4d8R262,html-button-response,36,751894,0.0-7.0-2.2-0.2-0.2,,,,,,,62d6d75faf2887ac7631c709,11:27:37,15/01/2024
,"<p style=""font-size:14rem;font-weight:400;"">1</p>",,fwdspan,number,3tvP7RtAIxTIKUSScpjeO4d8R262,html-keyboard-response,37,752903,0.0-7.0-2.2-0.2-1.7-0.7,,,,,,,62d6d75faf2887ac7631c709,11:27:37,15/01/2024
,"<p style=""font-size:14rem;font-weight:400;"">3</p>",,fwdspan,number,3tvP7RtAIxTIKUSScpjeO4d8R262,html-keyboard-response,38,753912,0.0-7.0-2.2-0.2-1.8-0.8,,,,,,,62d6d75faf2887ac7631c709,11:27:37,15/01/2024
,"<p style=""font-size:14rem;font-weight:400;"">9</p>",,fwdspan,number,3tvP7RtAIxTIKUSScpjeO4d8R262,html-keyboard-response,39,754916,0.0-7.0-2.2-0.2-1.9-0.9,,,,,,,62d6d75faf2887ac7631c709,11:27:37,15/01/2024
,"<p style=""font-size:14rem;font-weight:400;"">2</p>",,fwdspan,number,3tvP7RtAIxTIKUSScpjeO4d8R262,html-keyboard-response,40,755923,0.0-7.0-2.2-0.2-1.10-0.10,,,,,,,62d6d75faf2887ac7631c709,11:27:37,15/01/2024
,"<p style=""font-size:14rem;font-weight:400;"">7</p>",,fwdspan,number,3tvP7RtAIxTIKUSScpjeO4d8R262,html-keyboard-response,41,756927,0.0-7.0-2.2-0.2-1.11-0.11,,,,,,,62d6d75faf2887ac7631c709,11:27:37,15/01/2024
,[],,fwdspan,delay,3tvP7RtAIxTIKUSScpjeO4d8R262,html-keyboard-response,42,757481,0.0-7.0-2.2-0.2-2.2,,,,,,,62d6d75faf2887ac7631c709,11:27:37,15/01/2024
9062.099999999977,"<div class = numbox><p style=""font-size:2.5rem"">What were the numbers <b>in order</b>?<br>(When you are ready to lock in your answer, press <b>ENTER</b>)</p><button id = button_1 class = ""square num-button"" onclick = ""recordClick(this)""><div class = content><div class = numbers>1</div></div></button><button id = button_2 class = ""square num-button"" onclick = ""recordClick(this)""><div class = content><div class = numbers>2</div></div></button><button id = button_3 class = ""square num-button"" onclick = ""recordClick(this)""><div class = content><div class = numbers>3</div></div></button><button id = button_4 class = ""square num-button"" onclick = ""recordClick(this)""><div class = content><div class = numbers>4</div></div></button><button id = button_5 class = ""square num-button"" onclick = ""recordClick(this)""><div class = content><div class = numbers>5</div></div></button><button id = button_6 class = ""square num-button"" onclick = ""recordClick(this)""><div class = content><div class = numbers>6</div></div></button><button id = button_7 class = ""square num-button"" onclick = ""recordClick(this)""><div class = content><div class = numbers>7</div></div></button><button id = button_8 class = ""square num-button"" onclick = ""recordClick(this)""><div class = content><div class = numbers>8</div></div></button><button id = button_9 class = ""square num-button"" onclick = ""recordClick(this)""><div class = content><div class = numbers>9</div></div></button><button class = clear_button id = ""ClearButton"" onclick = ""clearResponse()"">Clear</button><p><u><b>Current Answer:</b></u></p><div id=echoed_txt style=""font-size: 6rem; color:blue;""><b></b></div></div><br><br><br><br><br><br><br>",enter,fwdspan,response,3tvP7RtAIxTIKUSScpjeO4d8R262,html-keyboard-response,43,766544,0.0-7.0-2.2-0.2-3.2,5.0,"[1,3,9,2,7]","[1,3,9,2,7]",1.0,"[3, 4, 5, 6, 6, 5, 6, 6, 7, 8, 8, 7]",,62d6d75faf2887ac7631c709,11:27:37,15/01/2024
,,,fwdspan,update_span,3tvP7RtAIxTIKUSScpjeO4d8R262,call-function,44,766801,0.0-7.0-2.2-0.2-4.2,,,,,,,62d6d75faf2887ac7631c709,11:27:37,15/01/2024
2063.4000000000233,"<p style=""font-size:3rem"">Trial 4 of 12</p><br><br><br>",0,fwdspan,start_trial,3tvP7RtAIxTIKUSScpjeO4d8R262,html-button-response,45,768865,0.0-7.0-2.3-0.3-0.3,,,,,,,62d6d75faf2887ac7631c709,11:27:37,15/01/2024
,"<p style=""font-size:14rem;font-weight:400;"">8</p>",,fwdspan,number,3tvP7RtAIxTIKUSScpjeO4d8R262,html-keyboard-response,46,769874,0.0-7.0-2.3-0.3-1.12-0.12,,,,,,,62d6d75faf2887ac7631c709,11:27:37,15/01/2024
,"<p style=""font-size:14rem;font-weight:400;"">4</p>",,fwdspan,number,3tvP7RtAIxTIKUSScpjeO4d8R262,html-keyboard-response,47,770881,0.0-7.0-2.3-0.3-1.13-0.13,,,,,,,62d6d75faf2887ac7631c709,11:27:37,15/01/2024
,"<p style=""font-size:14rem;font-weight:400;"">7</p>",,fwdspan,number,3tvP7RtAIxTIKUSScpjeO4d8R262,html-keyboard-response,48,771886,0.0-7.0-2.3-0.3-1.14-0.14,,,,,,,62d6d75faf2887ac7631c709,11:27:37,15/01/2024
,"<p style=""font-size:14rem;font-weight:400;"">3</p>",,fwdspan,number,3tvP7RtAIxTIKUSScpjeO4d8R262,html-keyboard-response,49,772891,0.0-7.0-2.3-0.3-1.15-0.15,,,,,,,62d6d75faf2887ac7631c709,11:27:37,15/01/2024
,"<p style=""font-size:14rem;font-weight:400;"">1</p>",,fwdspan,number,3tvP7RtAIxTIKUSScpjeO4d8R262,html-keyboard-response,50,773899,0.0-7.0-2.3-0.3-1.16-0.16,,,,,,,62d6d75faf2887ac7631c709,11:27:37,15/01/2024
,"<p style=""font-size:14rem;font-weight:400;"">2</p>",,fwdspan,number,3tvP7RtAIxTIKUSScpjeO4d8R262,html-keyboard-response,51,774905,0.0-7.0-2.3-0.3-1.17-0.17,,,,,,,62d6d75faf2887ac7631c709,11:27:37,15/01/2024
,[],,fwdspan,delay,3tvP7RtAIxTIKUSScpjeO4d8R262,html-keyboard-response,52,775461,0.0-7.0-2.3-0.3-2.3,,,,,,,62d6d75faf2887ac7631c709,11:27:37,15/01/2024
8420.099999999977,"<div class = numbox><p style=""font-size:2.5rem"">What were the numbers <b>in order</b>?<br>(When you are ready to lock in your answer, press <b>ENTER</b>)</p><button id = button_1 class = ""square num-button"" onclick = ""recordClick(this)""><div class = content><div class = numbers>1</div></div></button><button id = button_2 class = ""square num-button"" onclick = ""recordClick(this)""><div class = content><div class = numbers>2</div></div></button><button id = button_3 class = ""square num-button"" onclick = ""recordClick(this)""><div class = content><div class = numbers>3</div></div></button><button id = button_4 class = ""square num-button"" onclick = ""recordClick(this)""><div class = content><div class = numbers>4</div></div></button><button id = button_5 class = ""square num-button"" onclick = ""recordClick(this)""><div class = content><div class = numbers>5</div></div></button><button id = button_6 class = ""square num-button"" onclick = ""recordClick(this)""><div class = content><div class = numbers>6</div></div></button><button id = button_7 class = ""square num-button"" onclick = ""recordClick(this)""><div class = content><div class = numbers>7</div></div></button><button id = button_8 class = ""square num-button"" onclick = ""recordClick(this)""><div class = content><div class = numbers>8</div></div></button><button id = button_9 class = ""square num-button"" onclick = ""recordClick(this)""><div class = content><div class = numbers>9</div></div></button><button class = clear_button id = ""ClearButton"" onclick = ""clearResponse()"">Clear</button><p><u><b>Current Answer:</b></u></p><div id=echoed_txt style=""font-size: 6rem; color:blue;""><b></b></div></div><br><br><br><br><br><br><br>",enter,fwdspan,response,3tvP7RtAIxTIKUSScpjeO4d8R262,html-keyboard-response,53,783883,0.0-7.0-2.3-0.3-3.3,6.0,"[4,8,3,7]","[8,4,7,3,1,2]",0.0,"[3, 4, 5, 6, 6, 5, 6, 6, 7, 8, 8, 7]",,62d6d75faf2887ac7631c709,11:27:37,15/01/2024
,,,fwdspan,update_span,3tvP7RtAIxTIKUSScpjeO4d8R262,call-function,54,784137,0.0-7.0-2.3-0.3-4.3,,,,,,,62d6d75faf2887ac7631c709,11:27:37,15/01/2024
1431.9000000001397,"<p style=""font-size:3rem"">Trial 5 of 12</p><br><br><br>",0,fwdspan,start_trial,3tvP7RtAIxTIKUSScpjeO4d8R262,html-button-response,55,785571,0.0-7.0-2.4-0.4-0.4,,,,,,,62d6d75faf2887ac7631c709,11:27:37,15/01/2024
,"<p style=""font-size:14rem;font-weight:400;"">7</p>",,fwdspan,number,3tvP7RtAIxTIKUSScpjeO4d8R262,html-keyboard-response,56,786580,0.0-7.0-2.4-0.4-1.18-0.18,,,,,,,62d6d75faf2887ac7631c709,11:27:37,15/01/2024
,"<p style=""font-size:14rem;font-weight:400;"">8</p>",,fwdspan,number,3tvP7RtAIxTIKUSScpjeO4d8R262,html-keyboard-response,57,787585,0.0-7.0-2.4-0.4-1.19-0.19,,,,,,,62d6d75faf2887ac7631c709,11:27:37,15/01/2024
,"<p style=""font-size:14rem;font-weight:400;"">9</p>",,fwdspan,number,3tvP7RtAIxTIKUSScpjeO4d8R262,html-keyboard-response,58,788589,0.0-7.0-2.4-0.4-1.20-0.20,,,,,,,62d6d75faf2887ac7631c709,11:27:37,15/01/2024
,"<p style=""font-size:14rem;font-weight:400;"">3</p>",,fwdspan,number,3tvP7RtAIxTIKUSScpjeO4d8R262,html-keyboard-response,59,789599,0.0-7.0-2.4-0.4-1.21-0.21,,,,,,,62d6d75faf2887ac7631c709,11:27:37,15/01/2024
,"<p style=""font-size:14rem;font-weight:400;"">5</p>",,fwdspan,number,3tvP7RtAIxTIKUSScpjeO4d8R262,html-keyboard-response,60,790606,0.0-7.0-2.4-0.4-1.22-0.22,,,,,,,62d6d75faf2887ac7631c709,11:27:37,15/01/2024
,"<p style=""font-size:14rem;font-weight:400;"">6</p>",,fwdspan,number,3tvP7RtAIxTIKUSScpjeO4d8R262,html-keyboard-response,61,791615,0.0-7.0-2.4-0.4-1.23-0.23,,,,,,,62d6d75faf2887ac7631c709,11:27:37,15/01/2024
,[],,fwdspan,delay,3tvP7RtAIxTIKUSScpjeO4d8R262,html-keyboard-response,62,792178,0.0-7.0-2.4-0.4-2.4,,,,,,,62d6d75faf2887ac7631c709,11:27:37,15/01/2024
10969.5,"<div class = numbox><p style=""font-size:2.5rem"">What were the numbers <b>in order</b>?<br>(When you are ready to lock in your answer, press <b>ENTER</b>)</p><button id = button_1 class = ""square num-button"" onclick = ""recordClick(this)""><div class = content><div class = numbers>1</div></div></button><button id = button_2 class = ""square num-button"" onclick = ""recordClick(this)""><div class = content><div class = numbers>2</div></div></button><button id = button_3 class = ""square num-button"" onclick = ""recordClick(this)""><div class = content><div class = numbers>3</div></div></button><button id = button_4 class = ""square num-button"" onclick = ""recordClick(this)""><div class = content><div class = numbers>4</div></div></button><button id = button_5 class = ""square num-button"" onclick = ""recordClick(this)""><div class = content><div class = numbers>5</div></div></button><button id = button_6 class = ""square num-button"" onclick = ""recordClick(this)""><div class = content><div class = numbers>6</div></div></button><button id = button_7 class = ""square num-button"" onclick = ""recordClick(this)""><div class = content><div class = numbers>7</div></div></button><button id = button_8 class = ""square num-button"" onclick = ""recordClick(this)""><div class = content><div class = numbers>8</div></div></button><button id = button_9 class = ""square num-button"" onclick = ""recordClick(this)""><div class = content><div class = numbers>9</div></div></button><button class = clear_button id = ""ClearButton"" onclick = ""clearResponse()"">Clear</button><p><u><b>Current Answer:</b></u></p><div id=echoed_txt style=""font-size: 6rem; color:blue;""><b></b></div></div><br><br><br><br><br><br><br>",enter,fwdspan,response,3tvP7RtAIxTIKUSScpjeO4d8R262,html-keyboard-response,63,803150,0.0-7.0-2.4-0.4-3.4,6.0,"[7,8,9,3]","[7,8,9,3,5,6]",0.0,"[3, 4, 5, 6, 6, 5, 6, 6, 7, 8, 8, 7]",,62d6d75faf2887ac7631c709,11:27:37,15/01/2024
,,,fwdspan,update_span,3tvP7RtAIxTIKUSScpjeO4d8R262,call-function,64,803404,0.0-7.0-2.4-0.4-4.4,,,,,,,62d6d75faf2887ac7631c709,11:27:37,15/01/2024
1430.3999999999069,"<p style=""font-size:3rem"">Trial 6 of 12</p><br><br><br>",0,fwdspan,start_trial,3tvP7RtAIxTIKUSScpjeO4d8R262,html-button-response,65,804837,0.0-7.0-2.5-0.5-0.5,,,,,,,62d6d75faf2887ac7631c709,11:27:37,15/01/2024
,"<p style=""font-size:14rem;font-weight:400;"">3</p>",,fwdspan,number,3tvP7RtAIxTIKUSScpjeO4d8R262,html-keyboard-response,66,805845,0.0-7.0-2.5-0.5-1.24-0.24,,,,,,,62d6d75faf2887ac7631c709,11:27:37,15/01/2024
,"<p style=""font-size:14rem;font-weight:400;"">1</p>",,fwdspan,number,3tvP7RtAIxTIKUSScpjeO4d8R262,html-keyboard-response,67,806854,0.0-7.0-2.5-0.5-1.25-0.25,,,,,,,62d6d75faf2887ac7631c709,11:27:37,15/01/2024
,"<p style=""font-size:14rem;font-weight:400;"">9</p>",,fwdspan,number,3tvP7RtAIxTIKUSScpjeO4d8R262,html-keyboard-response,68,807861,0.0-7.0-2.5-0.5-1.26-0.26,,,,,,,62d6d75faf2887ac7631c709,11:27:37,15/01/2024
,"<p style=""font-size:14rem;font-weight:400;"">6</p>",,fwdspan,number,3tvP7RtAIxTIKUSScpjeO4d8R262,html-keyboard-response,69,808868,0.0-7.0-2.5-0.5-1.27-0.27,,,,,,,62d6d75faf2887ac7631c709,11:27:37,15/01/2024
,"<p style=""font-size:14rem;font-weight:400;"">7</p>",,fwdspan,number,3tvP7RtAIxTIKUSScpjeO4d8R262,html-keyboard-response,70,809875,0.0-7.0-2.5-0.5-1.28-0.28,,,,,,,62d6d75faf2887ac7631c709,11:27:37,15/01/2024
,[],,fwdspan,delay,3tvP7RtAIxTIKUSScpjeO4d8R262,html-keyboard-response,71,810433,0.0-7.0-2.5-0.5-2.5,,,,,,,62d6d75faf2887ac7631c709,11:27:37,15/01/2024
5509.700000000186,"<div class = numbox><p style=""font-size:2.5rem"">What were the numbers <b>in order</b>?<br>(When you are ready to lock in your answer, press <b>ENTER</b>)</p><button id = button_1 class = ""square num-button"" onclick = ""recordClick(this)""><div class = content><div class = numbers>1</div></div></button><button id = button_2 class = ""square num-button"" onclick = ""recordClick(this)""><div class = content><div class = numbers>2</div></div></button><button id = button_3 class = ""square num-button"" onclick = ""recordClick(this)""><div class = content><div class = numbers>3</div></div></button><button id = button_4 class = ""square num-button"" onclick = ""recordClick(this)""><div class = content><div class = numbers>4</div></div></button><button id = button_5 class = ""square num-button"" onclick = ""recordClick(this)""><div class = content><div class = numbers>5</div></div></button><button id = button_6 class = ""square num-button"" onclick = ""recordClick(this)""><div class = content><div class = numbers>6</div></div></button><button id = button_7 class = ""square num-button"" onclick = ""recordClick(this)""><div class = content><div class = numbers>7</div></div></button><button id = button_8 class = ""square num-button"" onclick = ""recordClick(this)""><div class = content><div class = numbers>8</div></div></button><button id = button_9 class = ""square num-button"" onclick = ""recordClick(this)""><div class = content><div class = numbers>9</div></div></button><button class = clear_button id = ""ClearButton"" onclick = ""clearResponse()"">Clear</button><p><u><b>Current Answer:</b></u></p><div id=echoed_txt style=""font-size: 6rem; color:blue;""><b></b></div></div><br><br><br><br><br><br><br>",enter,fwdspan,response,3tvP7RtAIxTIKUSScpjeO4d8R262,html-keyboard-response,72,815944,0.0-7.0-2.5-0.5-3.5,5.0,"[3,1,9,6,7]","[3,1,9,6,7]",1.0,"[3, 4, 5, 6, 6, 5, 6, 6, 7, 8, 8, 7]",,62d6d75faf2887ac7631c709,11:27:37,15/01/2024
,,,fwdspan,update_span,3tvP7RtAIxTIKUSScpjeO4d8R262,call-function,73,816200,0.0-7.0-2.5-0.5-4.5,,,,,,,62d6d75faf2887ac7631c709,11:27:37,15/01/2024
2524.0999999998603,"<p style=""font-size:3rem"">Trial 7 of 12</p><br><br><br>",0,fwdspan,start_trial,3tvP7RtAIxTIKUSScpjeO4d8R262,html-button-response,74,818726,0.0-7.0-2.6-0.6-0.6,,,,,,,62d6d75faf2887ac7631c709,11:27:37,15/01/2024
,"<p style=""font-size:14rem;font-weight:400;"">5</p>",,fwdspan,number,3tvP7RtAIxTIKUSScpjeO4d8R262,html-keyboard-response,75,819734,0.0-7.0-2.6-0.6-1.29-0.29,,,,,,,62d6d75faf2887ac7631c709,11:27:37,15/01/2024
,"<p style=""font-size:14rem;font-weight:400;"">4</p>",,fwdspan,number,3tvP7RtAIxTIKUSScpjeO4d8R262,html-keyboard-response,76,820738,0.0-7.0-2.6-0.6-1.30-0.30,,,,,,,62d6d75faf2887ac7631c709,11:27:37,15/01/2024
,"<p style=""font-size:14rem;font-weight:400;"">7</p>",,fwdspan,number,3tvP7RtAIxTIKUSScpjeO4d8R262,html-keyboard-response,77,821743,0.0-7.0-2.6-0.6-1.31-0.31,,,,,,,62d6d75faf2887ac7631c709,11:27:37,15/01/2024
,"<p style=""font-size:14rem;font-weight:400;"">3</p>",,fwdspan,number,3tvP7RtAIxTIKUSScpjeO4d8R262,html-keyboard-response,78,822752,0.0-7.0-2.6-0.6-1.32-0.32,,,,,,,62d6d75faf2887ac7631c709,11:27:37,15/01/2024
,"<p style=""font-size:14rem;font-weight:400;"">8</p>",,fwdspan,number,3tvP7RtAIxTIKUSScpjeO4d8R262,html-keyboard-response,79,823764,0.0-7.0-2.6-0.6-1.33-0.33,,,,,,,62d6d75faf2887ac7631c709,11:27:37,15/01/2024
,"<p style=""font-size:14rem;font-weight:400;"">1</p>",,fwdspan,number,3tvP7RtAIxTIKUSScpjeO4d8R262,html-keyboard-response,80,824769,0.0-7.0-2.6-0.6-1.34-0.34,,,,,,,62d6d75faf2887ac7631c709,11:27:37,15/01/2024
,[],,fwdspan,delay,3tvP7RtAIxTIKUSScpjeO4d8R262,html-keyboard-response,81,825329,0.0-7.0-2.6-0.6-2.6,,,,,,,62d6d75faf2887ac7631c709,11:27:37,15/01/2024
12221.600000000093,"<div class = numbox><p style=""font-size:2.5rem"">What were the numbers <b>in order</b>?<br>(When you are ready to lock in your answer, press <b>ENTER</b>)</p><button id = button_1 class = ""square num-button"" onclick = ""recordClick(this)""><div class = content><div class = numbers>1</div></div></button><button id = button_2 class = ""square num-button"" onclick = ""recordClick(this)""><div class = content><div class = numbers>2</div></div></button><button id = button_3 class = ""square num-button"" onclick = ""recordClick(this)""><div class = content><div class = numbers>3</div></div></button><button id = button_4 class = ""square num-button"" onclick = ""recordClick(this)""><div class = content><div class = numbers>4</div></div></button><button id = button_5 class = ""square num-button"" onclick = ""recordClick(this)""><div class = content><div class = numbers>5</div></div></button><button id = button_6 class = ""square num-button"" onclick = ""recordClick(this)""><div class = content><div class = numbers>6</div></div></button><button id = button_7 class = ""square num-button"" onclick = ""recordClick(this)""><div class = content><div class = numbers>7</div></div></button><button id = button_8 class = ""square num-button"" onclick = ""recordClick(this)""><div class = content><div class = numbers>8</div></div></button><button id = button_9 class = ""square num-button"" onclick = ""recordClick(this)""><div class = content><div class = numbers>9</div></div></button><button class = clear_button id = ""ClearButton"" onclick = ""clearResponse()"">Clear</button><p><u><b>Current Answer:</b></u></p><div id=echoed_txt style=""font-size: 6rem; color:blue;""><b></b></div></div><br><br><br><br><br><br><br>",enter,fwdspan,response,3tvP7RtAIxTIKUSScpjeO4d8R262,html-keyboard-response,82,837552,0.0-7.0-2.6-0.6-3.6,6.0,"[5,4,3,7,1]","[5,4,7,3,8,1]",0.0,"[3, 4, 5, 6, 6, 5, 6, 6, 7, 8, 8, 7]",,62d6d75faf2887ac7631c709,11:27:37,15/01/2024
,,,fwdspan,update_span,3tvP7RtAIxTIKUSScpjeO4d8R262,call-function,83,837808,0.0-7.0-2.6-0.6-4.6,,,,,,,62d6d75faf2887ac7631c709,11:27:37,15/01/2024
4838.59999999986,"<p style=""font-size:3rem"">Trial 8 of 12</p><br><br><br>",0,fwdspan,start_trial,3tvP7RtAIxTIKUSScpjeO4d8R262,html-button-response,84,842649,0.0-7.0-2.7-0.7-0.7,,,,,,,62d6d75faf2887ac7631c709,11:27:37,15/01/2024
,"<p style=""font-size:14rem;font-weight:400;"">9</p>",,fwdspan,number,3tvP7RtAIxTIKUSScpjeO4d8R262,html-keyboard-response,85,843657,0.0-7.0-2.7-0.7-1.35-0.35,,,,,,,62d6d75faf2887ac7631c709,11:27:37,15/01/2024
,"<p style=""font-size:14rem;font-weight:400;"">8</p>",,fwdspan,number,3tvP7RtAIxTIKUSScpjeO4d8R262,html-keyboard-response,86,844668,0.0-7.0-2.7-0.7-1.36-0.36,,,,,,,62d6d75faf2887ac7631c709,11:27:37,15/01/2024
,"<p style=""font-size:14rem;font-weight:400;"">5</p>",,fwdspan,number,3tvP7RtAIxTIKUSScpjeO4d8R262,html-keyboard-response,87,845678,0.0-7.0-2.7-0.7-1.37-0.37,,,,,,,62d6d75faf2887ac7631c709,11:27:37,15/01/2024
,"<p style=""font-size:14rem;font-weight:400;"">3</p>",,fwdspan,number,3tvP7RtAIxTIKUSScpjeO4d8R262,html-keyboard-response,88,846687,0.0-7.0-2.7-0.7-1.38-0.38,,,,,,,62d6d75faf2887ac7631c709,11:27:37,15/01/2024
,"<p style=""font-size:14rem;font-weight:400;"">6</p>",,fwdspan,number,3tvP7RtAIxTIKUSScpjeO4d8R262,html-keyboard-response,89,847695,0.0-7.0-2.7-0.7-1.39-0.39,,,,,,,62d6d75faf2887ac7631c709,11:27:37,15/01/2024
,"<p style=""font-size:14rem;font-weight:400;"">2</p>",,fwdspan,number,3tvP7RtAIxTIKUSScpjeO4d8R262,html-keyboard-response,90,848703,0.0-7.0-2.7-0.7-1.40-0.40,,,,,,,62d6d75faf2887ac7631c709,11:27:37,15/01/2024
,[],,fwdspan,delay,3tvP7RtAIxTIKUSScpjeO4d8R262,html-keyboard-response,91,849268,0.0-7.0-2.7-0.7-2.7,,,,,,,62d6d75faf2887ac7631c709,11:27:37,15/01/2024
5771.699999999953,"<div class = numbox><p style=""font-size:2.5rem"">What were the numbers <b>in order</b>?<br>(When you are ready to lock in your answer, press <b>ENTER</b>)</p><button id = button_1 class = ""square num-button"" onclick = ""recordClick(this)""><div class = content><div class = numbers>1</div></div></button><button id = button_2 class = ""square num-button"" onclick = ""recordClick(this)""><div class = content><div class = numbers>2</div></div></button><button id = button_3 class = ""square num-button"" onclick = ""recordClick(this)""><div class = content><div class = numbers>3</div></div></button><button id = button_4 class = ""square num-button"" onclick = ""recordClick(this)""><div class = content><div class = numbers>4</div></div></button><button id = button_5 class = ""square num-button"" onclick = ""recordClick(this)""><div class = content><div class = numbers>5</div></div></button><button id = button_6 class = ""square num-button"" onclick = ""recordClick(this)""><div class = content><div class = numbers>6</div></div></button><button id = button_7 class = ""square num-button"" onclick = ""recordClick(this)""><div class = content><div class = numbers>7</div></div></button><button id = button_8 class = ""square num-button"" onclick = ""recordClick(this)""><div class = content><div class = numbers>8</div></div></button><button id = button_9 class = ""square num-button"" onclick = ""recordClick(this)""><div class = content><div class = numbers>9</div></div></button><button class = clear_button id = ""ClearButton"" onclick = ""clearResponse()"">Clear</button><p><u><b>Current Answer:</b></u></p><div id=echoed_txt style=""font-size: 6rem; color:blue;""><b></b></div></div><br><br><br><br><br><br><br>",enter,fwdspan,response,3tvP7RtAIxTIKUSScpjeO4d8R262,html-keyboard-response,92,855041,0.0-7.0-2.7-0.7-3.7,6.0,"[9,8,5,3,6,2]","[9,8,5,3,6,2]",1.0,"[3, 4, 5, 6, 6, 5, 6, 6, 7, 8, 8, 7]",,62d6d75faf2887ac7631c709,11:27:37,15/01/2024
,,,fwdspan,update_span,3tvP7RtAIxTIKUSScpjeO4d8R262,call-function,93,855297,0.0-7.0-2.7-0.7-4.7,,,,,,,62d6d75faf2887ac7631c709,11:27:37,15/01/2024
3706.9000000001397,"<p style=""font-size:3rem"">Trial 9 of 12</p><br><br><br>",0,fwdspan,start_trial,3tvP7RtAIxTIKUSScpjeO4d8R262,html-button-response,94,859005,0.0-7.0-2.8-0.8-0.8,,,,,,,62d6d75faf2887ac7631c709,11:27:37,15/01/2024
,"<p style=""font-size:14rem;font-weight:400;"">2</p>",,fwdspan,number,3tvP7RtAIxTIKUSScpjeO4d8R262,html-keyboard-response,95,860009,0.0-7.0-2.8-0.8-1.41-0.41,,,,,,,62d6d75faf2887ac7631c709,11:27:37,15/01/2024
,"<p style=""font-size:14rem;font-weight:400;"">4</p>",,fwdspan,number,3tvP7RtAIxTIKUSScpjeO4d8R262,html-keyboard-response,96,861016,0.0-7.0-2.8-0.8-1.42-0.42,,,,,,,62d6d75faf2887ac7631c709,11:27:37,15/01/2024
,"<p style=""font-size:14rem;font-weight:400;"">6</p>",,fwdspan,number,3tvP7RtAIxTIKUSScpjeO4d8R262,html-keyboard-response,97,862019,0.0-7.0-2.8-0.8-1.43-0.43,,,,,,,62d6d75faf2887ac7631c709,11:27:37,15/01/2024
,"<p style=""font-size:14rem;font-weight:400;"">3</p>",,fwdspan,number,3tvP7RtAIxTIKUSScpjeO4d8R262,html-keyboard-response,98,863026,0.0-7.0-2.8-0.8-1.44-0.44,,,,,,,62d6d75faf2887ac7631c709,11:27:37,15/01/2024
,"<p style=""font-size:14rem;font-weight:400;"">5</p>",,fwdspan,number,3tvP7RtAIxTIKUSScpjeO4d8R262,html-keyboard-response,99,864030,0.0-7.0-2.8-0.8-1.45-0.45,,,,,,,62d6d75faf2887ac7631c709,11:27:37,15/01/2024
,"<p style=""font-size:14rem;font-weight:400;"">9</p>",,fwdspan,number,3tvP7RtAIxTIKUSScpjeO4d8R262,html-keyboard-response,100,865036,0.0-7.0-2.8-0.8-1.46-0.46,,,,,,,62d6d75faf2887ac7631c709,11:27:37,15/01/2024
,"<p style=""font-size:14rem;font-weight:400;"">1</p>",,fwdspan,number,3tvP7RtAIxTIKUSScpjeO4d8R262,html-keyboard-response,101,866044,0.0-7.0-2.8-0.8-1.47-0.47,,,,,,,62d6d75faf2887ac7631c709,11:27:37,15/01/2024
,[],,fwdspan,delay,3tvP7RtAIxTIKUSScpjeO4d8R262,html-keyboard-response,102,866600,0.0-7.0-2.8-0.8-2.8,,,,,,,62d6d75faf2887ac7631c709,11:27:37,15/01/2024
6944.600000000093,"<div class = numbox><p style=""font-size:2.5rem"">What were the numbers <b>in order</b>?<br>(When you are ready to lock in your answer, press <b>ENTER</b>)</p><button id = button_1 class = ""square num-button"" onclick = ""recordClick(this)""><div class = content><div class = numbers>1</div></div></button><button id = button_2 class = ""square num-button"" onclick = ""recordClick(this)""><div class = content><div class = numbers>2</div></div></button><button id = button_3 class = ""square num-button"" onclick = ""recordClick(this)""><div class = content><div class = numbers>3</div></div></button><button id = button_4 class = ""square num-button"" onclick = ""recordClick(this)""><div class = content><div class = numbers>4</div></div></button><button id = button_5 class = ""square num-button"" onclick = ""recordClick(this)""><div class = content><div class = numbers>5</div></div></button><button id = button_6 class = ""square num-button"" onclick = ""recordClick(this)""><div class = content><div class = numbers>6</div></div></button><button id = button_7 class = ""square num-button"" onclick = ""recordClick(this)""><div class = content><div class = numbers>7</div></div></button><button id = button_8 class = ""square num-button"" onclick = ""recordClick(this)""><div class = content><div class = numbers>8</div></div></button><button id = button_9 class = ""square num-button"" onclick = ""recordClick(this)""><div class = content><div class = numbers>9</div></div></button><button class = clear_button id = ""ClearButton"" onclick = ""clearResponse()"">Clear</button><p><u><b>Current Answer:</b></u></p><div id=echoed_txt style=""font-size: 6rem; color:blue;""><b></b></div></div><br><br><br><br><br><br><br>",enter,fwdspan,response,3tvP7RtAIxTIKUSScpjeO4d8R262,html-keyboard-response,103,873547,0.0-7.0-2.8-0.8-3.8,7.0,"[2,4,6,3,5,9,1]","[2,4,6,3,5,9,1]",1.0,"[3, 4, 5, 6, 6, 5, 6, 6, 7, 8, 8, 7]",,62d6d75faf2887ac7631c709,11:27:37,15/01/2024
,,,fwdspan,update_span,3tvP7RtAIxTIKUSScpjeO4d8R262,call-function,104,873802,0.0-7.0-2.8-0.8-4.8,,,,,,,62d6d75faf2887ac7631c709,11:27:37,15/01/2024
1372.8000000000466,"<p style=""font-size:3rem"">Trial 10 of 12</p><br><br><br>",0,fwdspan,start_trial,3tvP7RtAIxTIKUSScpjeO4d8R262,html-button-response,105,875176,0.0-7.0-2.9-0.9-0.9,,,,,,,62d6d75faf2887ac7631c709,11:27:37,15/01/2024
,"<p style=""font-size:14rem;font-weight:400;"">1</p>",,fwdspan,number,3tvP7RtAIxTIKUSScpjeO4d8R262,html-keyboard-response,106,876183,0.0-7.0-2.9-0.9-1.48-0.48,,,,,,,62d6d75faf2887ac7631c709,11:27:37,15/01/2024
,"<p style=""font-size:14rem;font-weight:400;"">7</p>",,fwdspan,number,3tvP7RtAIxTIKUSScpjeO4d8R262,html-keyboard-response,107,877190,0.0-7.0-2.9-0.9-1.49-0.49,,,,,,,62d6d75faf2887ac7631c709,11:27:37,15/01/2024
,"<p style=""font-size:14rem;font-weight:400;"">5</p>",,fwdspan,number,3tvP7RtAIxTIKUSScpjeO4d8R262,html-keyboard-response,108,878195,0.0-7.0-2.9-0.9-1.50-0.50,,,,,,,62d6d75faf2887ac7631c709,11:27:37,15/01/2024
,"<p style=""font-size:14rem;font-weight:400;"">6</p>",,fwdspan,number,3tvP7RtAIxTIKUSScpjeO4d8R262,html-keyboard-response,109,879200,0.0-7.0-2.9-0.9-1.51-0.51,,,,,,,62d6d75faf2887ac7631c709,11:27:37,15/01/2024
,"<p style=""font-size:14rem;font-weight:400;"">4</p>",,fwdspan,number,3tvP7RtAIxTIKUSScpjeO4d8R262,html-keyboard-response,110,880205,0.0-7.0-2.9-0.9-1.52-0.52,,,,,,,62d6d75faf2887ac7631c709,11:27:37,15/01/2024
,"<p style=""font-size:14rem;font-weight:400;"">3</p>",,fwdspan,number,3tvP7RtAIxTIKUSScpjeO4d8R262,html-keyboard-response,111,881209,0.0-7.0-2.9-0.9-1.53-0.53,,,,,,,62d6d75faf2887ac7631c709,11:27:37,15/01/2024
,"<p style=""font-size:14rem;font-weight:400;"">8</p>",,fwdspan,number,3tvP7RtAIxTIKUSScpjeO4d8R262,html-keyboard-response,112,882217,0.0-7.0-2.9-0.9-1.54-0.54,,,,,,,62d6d75faf2887ac7631c709,11:27:37,15/01/2024
,"<p style=""font-size:14rem;font-weight:400;"">9</p>",,fwdspan,number,3tvP7RtAIxTIKUSScpjeO4d8R262,html-keyboard-response,113,883221,0.0-7.0-2.9-0.9-1.55-0.55,,,,,,,62d6d75faf2887ac7631c709,11:27:37,15/01/2024
,[],,fwdspan,delay,3tvP7RtAIxTIKUSScpjeO4d8R262,html-keyboard-response,114,883775,0.0-7.0-2.9-0.9-2.9,,,,,,,62d6d75faf2887ac7631c709,11:27:37,15/01/2024
10574.5,"<div class = numbox><p style=""font-size:2.5rem"">What were the numbers <b>in order</b>?<br>(When you are ready to lock in your answer, press <b>ENTER</b>)</p><button id = button_1 class = ""square num-button"" onclick = ""recordClick(this)""><div class = content><div class = numbers>1</div></div></button><button id = button_2 class = ""square num-button"" onclick = ""recordClick(this)""><div class = content><div class = numbers>2</div></div></button><button id = button_3 class = ""square num-button"" onclick = ""recordClick(this)""><div class = content><div class = numbers>3</div></div></button><button id = button_4 class = ""square num-button"" onclick = ""recordClick(this)""><div class = content><div class = numbers>4</div></div></button><button id = button_5 class = ""square num-button"" onclick = ""recordClick(this)""><div class = content><div class = numbers>5</div></div></button><button id = button_6 class = ""square num-button"" onclick = ""recordClick(this)""><div class = content><div class = numbers>6</div></div></button><button id = button_7 class = ""square num-button"" onclick = ""recordClick(this)""><div class = content><div class = numbers>7</div></div></button><button id = button_8 class = ""square num-button"" onclick = ""recordClick(this)""><div class = content><div class = numbers>8</div></div></button><button id = button_9 class = ""square num-button"" onclick = ""recordClick(this)""><div class = content><div class = numbers>9</div></div></button><button class = clear_button id = ""ClearButton"" onclick = ""clearResponse()"">Clear</button><p><u><b>Current Answer:</b></u></p><div id=echoed_txt style=""font-size: 6rem; color:blue;""><b></b></div></div><br><br><br><br><br><br><br>",enter,fwdspan,response,3tvP7RtAIxTIKUSScpjeO4d8R262,html-keyboard-response,115,894351,0.0-7.0-2.9-0.9-3.9,8.0,"[1,7,5,6,3,5,4,9]","[1,7,5,6,4,3,8,9]",0.0,"[3, 4, 5, 6, 6, 5, 6, 6, 7, 8, 8, 7]",,62d6d75faf2887ac7631c709,11:27:37,15/01/2024
,,,fwdspan,update_span,3tvP7RtAIxTIKUSScpjeO4d8R262,call-function,116,894606,0.0-7.0-2.9-0.9-4.9,,,,,,,62d6d75faf2887ac7631c709,11:27:37,15/01/2024
1860.0,"<p style=""font-size:3rem"">Trial 11 of 12</p><br><br><br>",0,fwdspan,start_trial,3tvP7RtAIxTIKUSScpjeO4d8R262,html-button-response,117,896470,0.0-7.0-2.10-0.10-0.10,,,,,,,62d6d75faf2887ac7631c709,11:27:37,15/01/2024
,"<p style=""font-size:14rem;font-weight:400;"">1</p>",,fwdspan,number,3tvP7RtAIxTIKUSScpjeO4d8R262,html-keyboard-response,118,897478,0.0-7.0-2.10-0.10-1.56-0.56,,,,,,,62d6d75faf2887ac7631c709,11:27:37,15/01/2024
,"<p style=""font-size:14rem;font-weight:400;"">2</p>",,fwdspan,number,3tvP7RtAIxTIKUSScpjeO4d8R262,html-keyboard-response,119,898481,0.0-7.0-2.10-0.10-1.57-0.57,,,,,,,62d6d75faf2887ac7631c709,11:27:37,15/01/2024
,"<p style=""font-size:14rem;font-weight:400;"">8</p>",,fwdspan,number,3tvP7RtAIxTIKUSScpjeO4d8R262,html-keyboard-response,120,899488,0.0-7.0-2.10-0.10-1.58-0.58,,,,,,,62d6d75faf2887ac7631c709,11:27:37,15/01/2024
,"<p style=""font-size:14rem;font-weight:400;"">4</p>",,fwdspan,number,3tvP7RtAIxTIKUSScpjeO4d8R262,html-keyboard-response,121,900495,0.0-7.0-2.10-0.10-1.59-0.59,,,,,,,62d6d75faf2887ac7631c709,11:27:37,15/01/2024
,"<p style=""font-size:14rem;font-weight:400;"">5</p>",,fwdspan,number,3tvP7RtAIxTIKUSScpjeO4d8R262,html-keyboard-response,122,901499,0.0-7.0-2.10-0.10-1.60-0.60,,,,,,,62d6d75faf2887ac7631c709,11:27:37,15/01/2024
,"<p style=""font-size:14rem;font-weight:400;"">6</p>",,fwdspan,number,3tvP7RtAIxTIKUSScpjeO4d8R262,html-keyboard-response,123,902506,0.0-7.0-2.10-0.10-1.61-0.61,,,,,,,62d6d75faf2887ac7631c709,11:27:37,15/01/2024
,"<p style=""font-size:14rem;font-weight:400;"">3</p>",,fwdspan,number,3tvP7RtAIxTIKUSScpjeO4d8R262,html-keyboard-response,124,903511,0.0-7.0-2.10-0.10-1.62-0.62,,,,,,,62d6d75faf2887ac7631c709,11:27:37,15/01/2024
,"<p style=""font-size:14rem;font-weight:400;"">7</p>",,fwdspan,number,3tvP7RtAIxTIKUSScpjeO4d8R262,html-keyboard-response,125,904518,0.0-7.0-2.10-0.10-1.63-0.63,,,,,,,62d6d75faf2887ac7631c709,11:27:37,15/01/2024
,[],,fwdspan,delay,3tvP7RtAIxTIKUSScpjeO4d8R262,html-keyboard-response,126,905076,0.0-7.0-2.10-0.10-2.10,,,,,,,62d6d75faf2887ac7631c709,11:27:37,15/01/2024
8053.5,"<div class = numbox><p style=""font-size:2.5rem"">What were the numbers <b>in order</b>?<br>(When you are ready to lock in your answer, press <b>ENTER</b>)</p><button id = button_1 class = ""square num-button"" onclick = ""recordClick(this)""><div class = content><div class = numbers>1</div></div></button><button id = button_2 class = ""square num-button"" onclick = ""recordClick(this)""><div class = content><div class = numbers>2</div></div></button><button id = button_3 class = ""square num-button"" onclick = ""recordClick(this)""><div class = content><div class = numbers>3</div></div></button><button id = button_4 class = ""square num-button"" onclick = ""recordClick(this)""><div class = content><div class = numbers>4</div></div></button><button id = button_5 class = ""square num-button"" onclick = ""recordClick(this)""><div class = content><div class = numbers>5</div></div></button><button id = button_6 class = ""square num-button"" onclick = ""recordClick(this)""><div class = content><div class = numbers>6</div></div></button><button id = button_7 class = ""square num-button"" onclick = ""recordClick(this)""><div class = content><div class = numbers>7</div></div></button><button id = button_8 class = ""square num-button"" onclick = ""recordClick(this)""><div class = content><div class = numbers>8</div></div></button><button id = button_9 class = ""square num-button"" onclick = ""recordClick(this)""><div class = content><div class = numbers>9</div></div></button><button class = clear_button id = ""ClearButton"" onclick = ""clearResponse()"">Clear</button><p><u><b>Current Answer:</b></u></p><div id=echoed_txt style=""font-size: 6rem; color:blue;""><b></b></div></div><br><br><br><br><br><br><br>",enter,fwdspan,response,3tvP7RtAIxTIKUSScpjeO4d8R262,html-keyboard-response,127,913131,0.0-7.0-2.10-0.10-3.10,8.0,"[1,2,6,5,8,4]","[1,2,8,4,5,6,3,7]",0.0,"[3, 4, 5, 6, 6, 5, 6, 6, 7, 8, 8, 7]",,62d6d75faf2887ac7631c709,11:27:37,15/01/2024
,,,fwdspan,update_span,3tvP7RtAIxTIKUSScpjeO4d8R262,call-function,128,913386,0.0-7.0-2.10-0.10-4.10,,,,,,,62d6d75faf2887ac7631c709,11:27:37,15/01/2024
1157.0,"<p style=""font-size:3rem"">Trial 12 of 12</p><br><br><br>",0,fwdspan,start_trial,3tvP7RtAIxTIKUSScpjeO4d8R262,html-button-response,129,914545,0.0-7.0-2.11-0.11-0.11,,,,,,,62d6d75faf2887ac7631c709,11:27:37,15/01/2024
,"<p style=""font-size:14rem;font-weight:400;"">8</p>",,fwdspan,number,3tvP7RtAIxTIKUSScpjeO4d8R262,html-keyboard-response,130,915552,0.0-7.0-2.11-0.11-1.64-0.64,,,,,,,62d6d75faf2887ac7631c709,11:27:37,15/01/2024
,"<p style=""font-size:14rem;font-weight:400;"">6</p>",,fwdspan,number,3tvP7RtAIxTIKUSScpjeO4d8R262,html-keyboard-response,131,916560,0.0-7.0-2.11-0.11-1.65-0.65,,,,,,,62d6d75faf2887ac7631c709,11:27:37,15/01/2024
,"<p style=""font-size:14rem;font-weight:400;"">3</p>",,fwdspan,number,3tvP7RtAIxTIKUSScpjeO4d8R262,html-keyboard-response,132,917565,0.0-7.0-2.11-0.11-1.66-0.66,,,,,,,62d6d75faf2887ac7631c709,11:27:37,15/01/2024
,"<p style=""font-size:14rem;font-weight:400;"">7</p>",,fwdspan,number,3tvP7RtAIxTIKUSScpjeO4d8R262,html-keyboard-response,133,918572,0.0-7.0-2.11-0.11-1.67-0.67,,,,,,,62d6d75faf2887ac7631c709,11:27:37,15/01/2024
,"<p style=""font-size:14rem;font-weight:400;"">2</p>",,fwdspan,number,3tvP7RtAIxTIKUSScpjeO4d8R262,html-keyboard-response,134,919580,0.0-7.0-2.11-0.11-1.68-0.68,,,,,,,62d6d75faf2887ac7631c709,11:27:37,15/01/2024
,"<p style=""font-size:14rem;font-weight:400;"">4</p>",,fwdspan,number,3tvP7RtAIxTIKUSScpjeO4d8R262,html-keyboard-response,135,920586,0.0-7.0-2.11-0.11-1.69-0.69,,,,,,,62d6d75faf2887ac7631c709,11:27:37,15/01/2024
,"<p style=""font-size:14rem;font-weight:400;"">1</p>",,fwdspan,number,3tvP7RtAIxTIKUSScpjeO4d8R262,html-keyboard-response,136,921595,0.0-7.0-2.11-0.11-1.70-0.70,,,,,,,62d6d75faf2887ac7631c709,11:27:37,15/01/2024
,[],,fwdspan,delay,3tvP7RtAIxTIKUSScpjeO4d8R262,html-keyboard-response,137,922160,0.0-7.0-2.11-0.11-2.11,,,,,,,62d6d75faf2887ac7631c709,11:27:37,15/01/2024
10109.5,"<div class = numbox><p style=""font-size:2.5rem"">What were the numbers <b>in order</b>?<br>(When you are ready to lock in your answer, press <b>ENTER</b>)</p><button id = button_1 class = ""square num-button"" onclick = ""recordClick(this)""><div class = content><div class = numbers>1</div></div></button><button id = button_2 class = ""square num-button"" onclick = ""recordClick(this)""><div class = content><div class = numbers>2</div></div></button><button id = button_3 class = ""square num-button"" onclick = ""recordClick(this)""><div class = content><div class = numbers>3</div></div></button><button id = button_4 class = ""square num-button"" onclick = ""recordClick(this)""><div class = content><div class = numbers>4</div></div></button><button id = button_5 class = ""square num-button"" onclick = ""recordClick(this)""><div class = content><div class = numbers>5</div></div></button><button id = button_6 class = ""square num-button"" onclick = ""recordClick(this)""><div class = content><div class = numbers>6</div></div></button><button id = button_7 class = ""square num-button"" onclick = ""recordClick(this)""><div class = content><div class = numbers>7</div></div></button><button id = button_8 class = ""square num-button"" onclick = ""recordClick(this)""><div class = content><div class = numbers>8</div></div></button><button id = button_9 class = ""square num-button"" onclick = ""recordClick(this)""><div class = content><div class = numbers>9</div></div></button><button class = clear_button id = ""ClearButton"" onclick = ""clearResponse()"">Clear</button><p><u><b>Current Answer:</b></u></p><div id=echoed_txt style=""font-size: 6rem; color:blue;""><b></b></div></div><br><br><br><br><br><br><br>",enter,fwdspan,response,3tvP7RtAIxTIKUSScpjeO4d8R262,html-keyboard-response,138,932271,0.0-7.0-2.11-0.11-3.11,7.0,"[8,6,3,7,8,2,4,1]","[8,6,3,7,2,4,1]",0.0,"[3, 4, 5, 6, 6, 5, 6, 6, 7, 8, 8, 7]",,62d6d75faf2887ac7631c709,11:27:37,15/01/2024
,,,fwdspan,update_span,3tvP7RtAIxTIKUSScpjeO4d8R262,call-function,139,932526,0.0-7.0-2.11-0.11-4.11,,,,,,,62d6d75faf2887ac7631c709,11:27:37,15/01/2024
27922.899999999907,,{'Q0': 'enjoyed trying to remember the order the numbers came in'},fwdspan,survey,3tvP7RtAIxTIKUSScpjeO4d8R262,lmdlab-survey-text,140,961202,0.0-7.0-3.0,,,,,,3tvP7RtAIxTIKUSScpjeO4d8R262,62d6d75faf2887ac7631c709,11:27:37,15/01/2024
2365.399999999907,<p><p style='font-size: 3rem'>Great work!<br><br>This completes the digit span task.</p><br><br><br>,0,fwdspan,finish,3tvP7RtAIxTIKUSScpjeO4d8R262,html-button-response,141,963572,0.0-7.0-4.0,,,,,,,62d6d75faf2887ac7631c709,11:27:37,15/01/2024
