rt,stimulus,response,exp_name,exp_stage,subjectID,trial_type,trial_index,time_elapsed,internal_node_id,span,answer,correct,correct_full,span_history,databaseID,prolificID,start_time,date
10242.5,"<p style=""font-size:4rem""><br><br>In the next part today, we have a completely different short task.<br><br><br>This part involves keeping numbers in you mind. Participation takes around 5 minutes.<br><br><br></p>",0,fwdspan,instruct,bj2pQYPkP5PljC8GZUKpWq5AgwK2,html-button-response,19,458940,0.0-7.0-0.0,,,,,,,62b342cc99726190dd047478,11:22:07,15/01/2024
41850.19999999972,"<p style=""font-size:5rem"">Welcome to the <b>digit span task</b>!<br><br></p><p style=""font-size:3.4rem""><br>On each trial, you will see a sequence of digits, followed by a delay.</p><p style=""font-size:3.4rem""><br>Then you will be asked to type them back in the same order in which they were seen.</p><p style=""font-size:3.4rem""><br><br><br>For example, if you saw the digits <b style=""color:blue;"">1</b>, <b style=""color:blue;"">2</b>, <b style=""color:blue;"">3</b>, you would respond with <b style=""color:blue;"">1</b>, <b style=""color:blue;"">2</b>, <b style=""color:blue;"">3</b></p><p style=""font-size:3.4rem""><br><br><br>To ensure the best measure of true performance for our study,<br><br>it is very important that you do not use any memory aid (e.g., pen and paper).<br><br>Please do the task solely in your head.</p><p style=""font-size:3.4rem""><br><br><br>There will be 12 total trials. Participation takes around 5 minutes.</p><br><br><br>",0,fwdspan,instruct,bj2pQYPkP5PljC8GZUKpWq5AgwK2,html-button-response,20,500791,0.0-7.0-1.0,,,,,,,62b342cc99726190dd047478,11:22:07,15/01/2024
1909.0,"<p style=""font-size:3rem"">Trial 1 of 12</p><br><br><br>",0,fwdspan,start_trial,bj2pQYPkP5PljC8GZUKpWq5AgwK2,html-button-response,21,502702,0.0-7.0-2.0-0.0-0.0,,,,,,,62b342cc99726190dd047478,11:22:07,15/01/2024
,"<p style=""font-size:14rem;font-weight:400;"">9</p>",,fwdspan,number,bj2pQYPkP5PljC8GZUKpWq5AgwK2,html-keyboard-response,22,503730,0.0-7.0-2.0-0.0-1.0-0.0,,,,,,,62b342cc99726190dd047478,11:22:07,15/01/2024
,"<p style=""font-size:14rem;font-weight:400;"">2</p>",,fwdspan,number,bj2pQYPkP5PljC8GZUKpWq5AgwK2,html-keyboard-response,23,504747,0.0-7.0-2.0-0.0-1.1-0.1,,,,,,,62b342cc99726190dd047478,11:22:07,15/01/2024
,"<p style=""font-size:14rem;font-weight:400;"">5</p>",,fwdspan,number,bj2pQYPkP5PljC8GZUKpWq5AgwK2,html-keyboard-response,24,505764,0.0-7.0-2.0-0.0-1.2-0.2,,,,,,,62b342cc99726190dd047478,11:22:07,15/01/2024
,[],,fwdspan,delay,bj2pQYPkP5PljC8GZUKpWq5AgwK2,html-keyboard-response,25,506325,0.0-7.0-2.0-0.0-2.0,,,,,,,62b342cc99726190dd047478,11:22:07,15/01/2024
5084.600000000093,"<div class = numbox><p style=""font-size:2.5rem"">What were the numbers <b>in order</b>?<br>(When you are ready to lock in your answer, press <b>ENTER</b>)</p><button id = button_1 class = ""square num-button"" onclick = ""recordClick(this)""><div class = content><div class = numbers>1</div></div></button><button id = button_2 class = ""square num-button"" onclick = ""recordClick(this)""><div class = content><div class = numbers>2</div></div></button><button id = button_3 class = ""square num-button"" onclick = ""recordClick(this)""><div class = content><div class = numbers>3</div></div></button><button id = button_4 class = ""square num-button"" onclick = ""recordClick(this)""><div class = content><div class = numbers>4</div></div></button><button id = button_5 class = ""square num-button"" onclick = ""recordClick(this)""><div class = content><div class = numbers>5</div></div></button><button id = button_6 class = ""square num-button"" onclick = ""recordClick(this)""><div class = content><div class = numbers>6</div></div></button><button id = button_7 class = ""square num-button"" onclick = ""recordClick(this)""><div class = content><div class = numbers>7</div></div></button><button id = button_8 class = ""square num-button"" onclick = ""recordClick(this)""><div class = content><div class = numbers>8</div></div></button><button id = button_9 class = ""square num-button"" onclick = ""recordClick(this)""><div class = content><div class = numbers>9</div></div></button><button class = clear_button id = ""ClearButton"" onclick = ""clearResponse()"">Clear</button><p><u><b>Current Answer:</b></u></p><div id=echoed_txt style=""font-size: 6rem; color:blue;""><b></b></div></div><br><br><br><br><br><br><br>",enter,fwdspan,response,bj2pQYPkP5PljC8GZUKpWq5AgwK2,html-keyboard-response,26,511410,0.0-7.0-2.0-0.0-3.0,3.0,"[9,2,5]","[9,2,5]",1.0,"[3, 4, 4, 5, 5, 6, 7, 7, 6, 6, 5, 6]",,62b342cc99726190dd047478,11:22:07,15/01/2024
,,,fwdspan,update_span,bj2pQYPkP5PljC8GZUKpWq5AgwK2,call-function,27,511668,0.0-7.0-2.0-0.0-4.0,,,,,,,62b342cc99726190dd047478,11:22:07,15/01/2024
1678.1000000000931,"<p style=""font-size:3rem"">Trial 2 of 12</p><br><br><br>",0,fwdspan,start_trial,bj2pQYPkP5PljC8GZUKpWq5AgwK2,html-button-response,28,513347,0.0-7.0-2.1-0.1-0.1,,,,,,,62b342cc99726190dd047478,11:22:07,15/01/2024
,"<p style=""font-size:14rem;font-weight:400;"">1</p>",,fwdspan,number,bj2pQYPkP5PljC8GZUKpWq5AgwK2,html-keyboard-response,29,514363,0.0-7.0-2.1-0.1-1.3-0.3,,,,,,,62b342cc99726190dd047478,11:22:07,15/01/2024
,"<p style=""font-size:14rem;font-weight:400;"">5</p>",,fwdspan,number,bj2pQYPkP5PljC8GZUKpWq5AgwK2,html-keyboard-response,30,515378,0.0-7.0-2.1-0.1-1.4-0.4,,,,,,,62b342cc99726190dd047478,11:22:07,15/01/2024
,"<p style=""font-size:14rem;font-weight:400;"">9</p>",,fwdspan,number,bj2pQYPkP5PljC8GZUKpWq5AgwK2,html-keyboard-response,31,516395,0.0-7.0-2.1-0.1-1.5-0.5,,,,,,,62b342cc99726190dd047478,11:22:07,15/01/2024
,"<p style=""font-size:14rem;font-weight:400;"">6</p>",,fwdspan,number,bj2pQYPkP5PljC8GZUKpWq5AgwK2,html-keyboard-response,32,517411,0.0-7.0-2.1-0.1-1.6-0.6,,,,,,,62b342cc99726190dd047478,11:22:07,15/01/2024
,[],,fwdspan,delay,bj2pQYPkP5PljC8GZUKpWq5AgwK2,html-keyboard-response,33,517972,0.0-7.0-2.1-0.1-2.1,,,,,,,62b342cc99726190dd047478,11:22:07,15/01/2024
4682.700000000186,"<div class = numbox><p style=""font-size:2.5rem"">What were the numbers <b>in order</b>?<br>(When you are ready to lock in your answer, press <b>ENTER</b>)</p><button id = button_1 class = ""square num-button"" onclick = ""recordClick(this)""><div class = content><div class = numbers>1</div></div></button><button id = button_2 class = ""square num-button"" onclick = ""recordClick(this)""><div class = content><div class = numbers>2</div></div></button><button id = button_3 class = ""square num-button"" onclick = ""recordClick(this)""><div class = content><div class = numbers>3</div></div></button><button id = button_4 class = ""square num-button"" onclick = ""recordClick(this)""><div class = content><div class = numbers>4</div></div></button><button id = button_5 class = ""square num-button"" onclick = ""recordClick(this)""><div class = content><div class = numbers>5</div></div></button><button id = button_6 class = ""square num-button"" onclick = ""recordClick(this)""><div class = content><div class = numbers>6</div></div></button><button id = button_7 class = ""square num-button"" onclick = ""recordClick(this)""><div class = content><div class = numbers>7</div></div></button><button id = button_8 class = ""square num-button"" onclick = ""recordClick(this)""><div class = content><div class = numbers>8</div></div></button><button id = button_9 class = ""square num-button"" onclick = ""recordClick(this)""><div class = content><div class = numbers>9</div></div></button><button class = clear_button id = ""ClearButton"" onclick = ""clearResponse()"">Clear</button><p><u><b>Current Answer:</b></u></p><div id=echoed_txt style=""font-size: 6rem; color:blue;""><b></b></div></div><br><br><br><br><br><br><br>",enter,fwdspan,response,bj2pQYPkP5PljC8GZUKpWq5AgwK2,html-keyboard-response,34,522655,0.0-7.0-2.1-0.1-3.1,4.0,"[1,9,5,6]","[1,5,9,6]",0.0,"[3, 4, 4, 5, 5, 6, 7, 7, 6, 6, 5, 6]",,62b342cc99726190dd047478,11:22:07,15/01/2024
,,,fwdspan,update_span,bj2pQYPkP5PljC8GZUKpWq5AgwK2,call-function,35,522907,0.0-7.0-2.1-0.1-4.1,,,,,,,62b342cc99726190dd047478,11:22:07,15/01/2024
1733.6999999997206,"<p style=""font-size:3rem"">Trial 3 of 12</p><br><br><br>",0,fwdspan,start_trial,bj2pQYPkP5PljC8GZUKpWq5AgwK2,html-button-response,36,524641,0.0-7.0-2.2-0.2-0.2,,,,,,,62b342cc99726190dd047478,11:22:07,15/01/2024
,"<p style=""font-size:14rem;font-weight:400;"">8</p>",,fwdspan,number,bj2pQYPkP5PljC8GZUKpWq5AgwK2,html-keyboard-response,37,525659,0.0-7.0-2.2-0.2-1.7-0.7,,,,,,,62b342cc99726190dd047478,11:22:07,15/01/2024
,"<p style=""font-size:14rem;font-weight:400;"">1</p>",,fwdspan,number,bj2pQYPkP5PljC8GZUKpWq5AgwK2,html-keyboard-response,38,526675,0.0-7.0-2.2-0.2-1.8-0.8,,,,,,,62b342cc99726190dd047478,11:22:07,15/01/2024
,"<p style=""font-size:14rem;font-weight:400;"">4</p>",,fwdspan,number,bj2pQYPkP5PljC8GZUKpWq5AgwK2,html-keyboard-response,39,527692,0.0-7.0-2.2-0.2-1.9-0.9,,,,,,,62b342cc99726190dd047478,11:22:07,15/01/2024
,"<p style=""font-size:14rem;font-weight:400;"">7</p>",,fwdspan,number,bj2pQYPkP5PljC8GZUKpWq5AgwK2,html-keyboard-response,40,528708,0.0-7.0-2.2-0.2-1.10-0.10,,,,,,,62b342cc99726190dd047478,11:22:07,15/01/2024
,[],,fwdspan,delay,bj2pQYPkP5PljC8GZUKpWq5AgwK2,html-keyboard-response,41,529269,0.0-7.0-2.2-0.2-2.2,,,,,,,62b342cc99726190dd047478,11:22:07,15/01/2024
3437.1999999997206,"<div class = numbox><p style=""font-size:2.5rem"">What were the numbers <b>in order</b>?<br>(When you are ready to lock in your answer, press <b>ENTER</b>)</p><button id = button_1 class = ""square num-button"" onclick = ""recordClick(this)""><div class = content><div class = numbers>1</div></div></button><button id = button_2 class = ""square num-button"" onclick = ""recordClick(this)""><div class = content><div class = numbers>2</div></div></button><button id = button_3 class = ""square num-button"" onclick = ""recordClick(this)""><div class = content><div class = numbers>3</div></div></button><button id = button_4 class = ""square num-button"" onclick = ""recordClick(this)""><div class = content><div class = numbers>4</div></div></button><button id = button_5 class = ""square num-button"" onclick = ""recordClick(this)""><div class = content><div class = numbers>5</div></div></button><button id = button_6 class = ""square num-button"" onclick = ""recordClick(this)""><div class = content><div class = numbers>6</div></div></button><button id = button_7 class = ""square num-button"" onclick = ""recordClick(this)""><div class = content><div class = numbers>7</div></div></button><button id = button_8 class = ""square num-button"" onclick = ""recordClick(this)""><div class = content><div class = numbers>8</div></div></button><button id = button_9 class = ""square num-button"" onclick = ""recordClick(this)""><div class = content><div class = numbers>9</div></div></button><button class = clear_button id = ""ClearButton"" onclick = ""clearResponse()"">Clear</button><p><u><b>Current Answer:</b></u></p><div id=echoed_txt style=""font-size: 6rem; color:blue;""><b></b></div></div><br><br><br><br><br><br><br>",enter,fwdspan,response,bj2pQYPkP5PljC8GZUKpWq5AgwK2,html-keyboard-response,42,532707,0.0-7.0-2.2-0.2-3.2,4.0,"[8,1,4,7]","[8,1,4,7]",1.0,"[3, 4, 4, 5, 5, 6, 7, 7, 6, 6, 5, 6]",,62b342cc99726190dd047478,11:22:07,15/01/2024
,,,fwdspan,update_span,bj2pQYPkP5PljC8GZUKpWq5AgwK2,call-function,43,532958,0.0-7.0-2.2-0.2-4.2,,,,,,,62b342cc99726190dd047478,11:22:07,15/01/2024
2120.5,"<p style=""font-size:3rem"">Trial 4 of 12</p><br><br><br>",0,fwdspan,start_trial,bj2pQYPkP5PljC8GZUKpWq5AgwK2,html-button-response,44,535079,0.0-7.0-2.3-0.3-0.3,,,,,,,62b342cc99726190dd047478,11:22:07,15/01/2024
,"<p style=""font-size:14rem;font-weight:400;"">8</p>",,fwdspan,number,bj2pQYPkP5PljC8GZUKpWq5AgwK2,html-keyboard-response,45,536091,0.0-7.0-2.3-0.3-1.11-0.11,,,,,,,62b342cc99726190dd047478,11:22:07,15/01/2024
,"<p style=""font-size:14rem;font-weight:400;"">7</p>",,fwdspan,number,bj2pQYPkP5PljC8GZUKpWq5AgwK2,html-keyboard-response,46,537117,0.0-7.0-2.3-0.3-1.12-0.12,,,,,,,62b342cc99726190dd047478,11:22:07,15/01/2024
,"<p style=""font-size:14rem;font-weight:400;"">5</p>",,fwdspan,number,bj2pQYPkP5PljC8GZUKpWq5AgwK2,html-keyboard-response,47,538136,0.0-7.0-2.3-0.3-1.13-0.13,,,,,,,62b342cc99726190dd047478,11:22:07,15/01/2024
,"<p style=""font-size:14rem;font-weight:400;"">9</p>",,fwdspan,number,bj2pQYPkP5PljC8GZUKpWq5AgwK2,html-keyboard-response,48,539156,0.0-7.0-2.3-0.3-1.14-0.14,,,,,,,62b342cc99726190dd047478,11:22:07,15/01/2024
,"<p style=""font-size:14rem;font-weight:400;"">4</p>",,fwdspan,number,bj2pQYPkP5PljC8GZUKpWq5AgwK2,html-keyboard-response,49,540172,0.0-7.0-2.3-0.3-1.15-0.15,,,,,,,62b342cc99726190dd047478,11:22:07,15/01/2024
,[],,fwdspan,delay,bj2pQYPkP5PljC8GZUKpWq5AgwK2,html-keyboard-response,50,540734,0.0-7.0-2.3-0.3-2.3,,,,,,,62b342cc99726190dd047478,11:22:07,15/01/2024
6979.5,"<div class = numbox><p style=""font-size:2.5rem"">What were the numbers <b>in order</b>?<br>(When you are ready to lock in your answer, press <b>ENTER</b>)</p><button id = button_1 class = ""square num-button"" onclick = ""recordClick(this)""><div class = content><div class = numbers>1</div></div></button><button id = button_2 class = ""square num-button"" onclick = ""recordClick(this)""><div class = content><div class = numbers>2</div></div></button><button id = button_3 class = ""square num-button"" onclick = ""recordClick(this)""><div class = content><div class = numbers>3</div></div></button><button id = button_4 class = ""square num-button"" onclick = ""recordClick(this)""><div class = content><div class = numbers>4</div></div></button><button id = button_5 class = ""square num-button"" onclick = ""recordClick(this)""><div class = content><div class = numbers>5</div></div></button><button id = button_6 class = ""square num-button"" onclick = ""recordClick(this)""><div class = content><div class = numbers>6</div></div></button><button id = button_7 class = ""square num-button"" onclick = ""recordClick(this)""><div class = content><div class = numbers>7</div></div></button><button id = button_8 class = ""square num-button"" onclick = ""recordClick(this)""><div class = content><div class = numbers>8</div></div></button><button id = button_9 class = ""square num-button"" onclick = ""recordClick(this)""><div class = content><div class = numbers>9</div></div></button><button class = clear_button id = ""ClearButton"" onclick = ""clearResponse()"">Clear</button><p><u><b>Current Answer:</b></u></p><div id=echoed_txt style=""font-size: 6rem; color:blue;""><b></b></div></div><br><br><br><br><br><br><br>",enter,fwdspan,response,bj2pQYPkP5PljC8GZUKpWq5AgwK2,html-keyboard-response,51,547714,0.0-7.0-2.3-0.3-3.3,5.0,"[8,7,9,5,4]","[8,7,5,9,4]",0.0,"[3, 4, 4, 5, 5, 6, 7, 7, 6, 6, 5, 6]",,62b342cc99726190dd047478,11:22:07,15/01/2024
,,,fwdspan,update_span,bj2pQYPkP5PljC8GZUKpWq5AgwK2,call-function,52,547969,0.0-7.0-2.3-0.3-4.3,,,,,,,62b342cc99726190dd047478,11:22:07,15/01/2024
1387.8999999999069,"<p style=""font-size:3rem"">Trial 5 of 12</p><br><br><br>",0,fwdspan,start_trial,bj2pQYPkP5PljC8GZUKpWq5AgwK2,html-button-response,53,549357,0.0-7.0-2.4-0.4-0.4,,,,,,,62b342cc99726190dd047478,11:22:07,15/01/2024
,"<p style=""font-size:14rem;font-weight:400;"">1</p>",,fwdspan,number,bj2pQYPkP5PljC8GZUKpWq5AgwK2,html-keyboard-response,54,550366,0.0-7.0-2.4-0.4-1.16-0.16,,,,,,,62b342cc99726190dd047478,11:22:07,15/01/2024
,"<p style=""font-size:14rem;font-weight:400;"">8</p>",,fwdspan,number,bj2pQYPkP5PljC8GZUKpWq5AgwK2,html-keyboard-response,55,551386,0.0-7.0-2.4-0.4-1.17-0.17,,,,,,,62b342cc99726190dd047478,11:22:07,15/01/2024
,"<p style=""font-size:14rem;font-weight:400;"">2</p>",,fwdspan,number,bj2pQYPkP5PljC8GZUKpWq5AgwK2,html-keyboard-response,56,552402,0.0-7.0-2.4-0.4-1.18-0.18,,,,,,,62b342cc99726190dd047478,11:22:07,15/01/2024
,"<p style=""font-size:14rem;font-weight:400;"">5</p>",,fwdspan,number,bj2pQYPkP5PljC8GZUKpWq5AgwK2,html-keyboard-response,57,553419,0.0-7.0-2.4-0.4-1.19-0.19,,,,,,,62b342cc99726190dd047478,11:22:07,15/01/2024
,"<p style=""font-size:14rem;font-weight:400;"">9</p>",,fwdspan,number,bj2pQYPkP5PljC8GZUKpWq5AgwK2,html-keyboard-response,58,554435,0.0-7.0-2.4-0.4-1.20-0.20,,,,,,,62b342cc99726190dd047478,11:22:07,15/01/2024
,[],,fwdspan,delay,bj2pQYPkP5PljC8GZUKpWq5AgwK2,html-keyboard-response,59,555005,0.0-7.0-2.4-0.4-2.4,,,,,,,62b342cc99726190dd047478,11:22:07,15/01/2024
4155.899999999907,"<div class = numbox><p style=""font-size:2.5rem"">What were the numbers <b>in order</b>?<br>(When you are ready to lock in your answer, press <b>ENTER</b>)</p><button id = button_1 class = ""square num-button"" onclick = ""recordClick(this)""><div class = content><div class = numbers>1</div></div></button><button id = button_2 class = ""square num-button"" onclick = ""recordClick(this)""><div class = content><div class = numbers>2</div></div></button><button id = button_3 class = ""square num-button"" onclick = ""recordClick(this)""><div class = content><div class = numbers>3</div></div></button><button id = button_4 class = ""square num-button"" onclick = ""recordClick(this)""><div class = content><div class = numbers>4</div></div></button><button id = button_5 class = ""square num-button"" onclick = ""recordClick(this)""><div class = content><div class = numbers>5</div></div></button><button id = button_6 class = ""square num-button"" onclick = ""recordClick(this)""><div class = content><div class = numbers>6</div></div></button><button id = button_7 class = ""square num-button"" onclick = ""recordClick(this)""><div class = content><div class = numbers>7</div></div></button><button id = button_8 class = ""square num-button"" onclick = ""recordClick(this)""><div class = content><div class = numbers>8</div></div></button><button id = button_9 class = ""square num-button"" onclick = ""recordClick(this)""><div class = content><div class = numbers>9</div></div></button><button class = clear_button id = ""ClearButton"" onclick = ""clearResponse()"">Clear</button><p><u><b>Current Answer:</b></u></p><div id=echoed_txt style=""font-size: 6rem; color:blue;""><b></b></div></div><br><br><br><br><br><br><br>",enter,fwdspan,response,bj2pQYPkP5PljC8GZUKpWq5AgwK2,html-keyboard-response,60,559162,0.0-7.0-2.4-0.4-3.4,5.0,"[1,8,2,5,9]","[1,8,2,5,9]",1.0,"[3, 4, 4, 5, 5, 6, 7, 7, 6, 6, 5, 6]",,62b342cc99726190dd047478,11:22:07,15/01/2024
,,,fwdspan,update_span,bj2pQYPkP5PljC8GZUKpWq5AgwK2,call-function,61,559428,0.0-7.0-2.4-0.4-4.4,,,,,,,62b342cc99726190dd047478,11:22:07,15/01/2024
1142.8999999999069,"<p style=""font-size:3rem"">Trial 6 of 12</p><br><br><br>",0,fwdspan,start_trial,bj2pQYPkP5PljC8GZUKpWq5AgwK2,html-button-response,62,560571,0.0-7.0-2.5-0.5-0.5,,,,,,,62b342cc99726190dd047478,11:22:07,15/01/2024
,"<p style=""font-size:14rem;font-weight:400;"">2</p>",,fwdspan,number,bj2pQYPkP5PljC8GZUKpWq5AgwK2,html-keyboard-response,63,561590,0.0-7.0-2.5-0.5-1.21-0.21,,,,,,,62b342cc99726190dd047478,11:22:07,15/01/2024
,"<p style=""font-size:14rem;font-weight:400;"">1</p>",,fwdspan,number,bj2pQYPkP5PljC8GZUKpWq5AgwK2,html-keyboard-response,64,562601,0.0-7.0-2.5-0.5-1.22-0.22,,,,,,,62b342cc99726190dd047478,11:22:07,15/01/2024
,"<p style=""font-size:14rem;font-weight:400;"">8</p>",,fwdspan,number,bj2pQYPkP5PljC8GZUKpWq5AgwK2,html-keyboard-response,65,563617,0.0-7.0-2.5-0.5-1.23-0.23,,,,,,,62b342cc99726190dd047478,11:22:07,15/01/2024
,"<p style=""font-size:14rem;font-weight:400;"">4</p>",,fwdspan,number,bj2pQYPkP5PljC8GZUKpWq5AgwK2,html-keyboard-response,66,564633,0.0-7.0-2.5-0.5-1.24-0.24,,,,,,,62b342cc99726190dd047478,11:22:07,15/01/2024
,"<p style=""font-size:14rem;font-weight:400;"">6</p>",,fwdspan,number,bj2pQYPkP5PljC8GZUKpWq5AgwK2,html-keyboard-response,67,565649,0.0-7.0-2.5-0.5-1.25-0.25,,,,,,,62b342cc99726190dd047478,11:22:07,15/01/2024
,"<p style=""font-size:14rem;font-weight:400;"">9</p>",,fwdspan,number,bj2pQYPkP5PljC8GZUKpWq5AgwK2,html-keyboard-response,68,566666,0.0-7.0-2.5-0.5-1.26-0.26,,,,,,,62b342cc99726190dd047478,11:22:07,15/01/2024
,[],,fwdspan,delay,bj2pQYPkP5PljC8GZUKpWq5AgwK2,html-keyboard-response,69,567227,0.0-7.0-2.5-0.5-2.5,,,,,,,62b342cc99726190dd047478,11:22:07,15/01/2024
5081.699999999721,"<div class = numbox><p style=""font-size:2.5rem"">What were the numbers <b>in order</b>?<br>(When you are ready to lock in your answer, press <b>ENTER</b>)</p><button id = button_1 class = ""square num-button"" onclick = ""recordClick(this)""><div class = content><div class = numbers>1</div></div></button><button id = button_2 class = ""square num-button"" onclick = ""recordClick(this)""><div class = content><div class = numbers>2</div></div></button><button id = button_3 class = ""square num-button"" onclick = ""recordClick(this)""><div class = content><div class = numbers>3</div></div></button><button id = button_4 class = ""square num-button"" onclick = ""recordClick(this)""><div class = content><div class = numbers>4</div></div></button><button id = button_5 class = ""square num-button"" onclick = ""recordClick(this)""><div class = content><div class = numbers>5</div></div></button><button id = button_6 class = ""square num-button"" onclick = ""recordClick(this)""><div class = content><div class = numbers>6</div></div></button><button id = button_7 class = ""square num-button"" onclick = ""recordClick(this)""><div class = content><div class = numbers>7</div></div></button><button id = button_8 class = ""square num-button"" onclick = ""recordClick(this)""><div class = content><div class = numbers>8</div></div></button><button id = button_9 class = ""square num-button"" onclick = ""recordClick(this)""><div class = content><div class = numbers>9</div></div></button><button class = clear_button id = ""ClearButton"" onclick = ""clearResponse()"">Clear</button><p><u><b>Current Answer:</b></u></p><div id=echoed_txt style=""font-size: 6rem; color:blue;""><b></b></div></div><br><br><br><br><br><br><br>",enter,fwdspan,response,bj2pQYPkP5PljC8GZUKpWq5AgwK2,html-keyboard-response,70,572309,0.0-7.0-2.5-0.5-3.5,6.0,"[2,1,8,4,6,9]","[2,1,8,4,6,9]",1.0,"[3, 4, 4, 5, 5, 6, 7, 7, 6, 6, 5, 6]",,62b342cc99726190dd047478,11:22:07,15/01/2024
,,,fwdspan,update_span,bj2pQYPkP5PljC8GZUKpWq5AgwK2,call-function,71,572570,0.0-7.0-2.5-0.5-4.5,,,,,,,62b342cc99726190dd047478,11:22:07,15/01/2024
905.8999999999069,"<p style=""font-size:3rem"">Trial 7 of 12</p><br><br><br>",0,fwdspan,start_trial,bj2pQYPkP5PljC8GZUKpWq5AgwK2,html-button-response,72,573476,0.0-7.0-2.6-0.6-0.6,,,,,,,62b342cc99726190dd047478,11:22:07,15/01/2024
,"<p style=""font-size:14rem;font-weight:400;"">9</p>",,fwdspan,number,bj2pQYPkP5PljC8GZUKpWq5AgwK2,html-keyboard-response,73,574497,0.0-7.0-2.6-0.6-1.27-0.27,,,,,,,62b342cc99726190dd047478,11:22:07,15/01/2024
,"<p style=""font-size:14rem;font-weight:400;"">7</p>",,fwdspan,number,bj2pQYPkP5PljC8GZUKpWq5AgwK2,html-keyboard-response,74,575513,0.0-7.0-2.6-0.6-1.28-0.28,,,,,,,62b342cc99726190dd047478,11:22:07,15/01/2024
,"<p style=""font-size:14rem;font-weight:400;"">6</p>",,fwdspan,number,bj2pQYPkP5PljC8GZUKpWq5AgwK2,html-keyboard-response,75,576530,0.0-7.0-2.6-0.6-1.29-0.29,,,,,,,62b342cc99726190dd047478,11:22:07,15/01/2024
,"<p style=""font-size:14rem;font-weight:400;"">1</p>",,fwdspan,number,bj2pQYPkP5PljC8GZUKpWq5AgwK2,html-keyboard-response,76,577546,0.0-7.0-2.6-0.6-1.30-0.30,,,,,,,62b342cc99726190dd047478,11:22:07,15/01/2024
,"<p style=""font-size:14rem;font-weight:400;"">3</p>",,fwdspan,number,bj2pQYPkP5PljC8GZUKpWq5AgwK2,html-keyboard-response,77,578563,0.0-7.0-2.6-0.6-1.31-0.31,,,,,,,62b342cc99726190dd047478,11:22:07,15/01/2024
,"<p style=""font-size:14rem;font-weight:400;"">4</p>",,fwdspan,number,bj2pQYPkP5PljC8GZUKpWq5AgwK2,html-keyboard-response,78,579580,0.0-7.0-2.6-0.6-1.32-0.32,,,,,,,62b342cc99726190dd047478,11:22:07,15/01/2024
,"<p style=""font-size:14rem;font-weight:400;"">5</p>",,fwdspan,number,bj2pQYPkP5PljC8GZUKpWq5AgwK2,html-keyboard-response,79,580604,0.0-7.0-2.6-0.6-1.33-0.33,,,,,,,62b342cc99726190dd047478,11:22:07,15/01/2024
,[],,fwdspan,delay,bj2pQYPkP5PljC8GZUKpWq5AgwK2,html-keyboard-response,80,581173,0.0-7.0-2.6-0.6-2.6,,,,,,,62b342cc99726190dd047478,11:22:07,15/01/2024
5890.399999999907,"<div class = numbox><p style=""font-size:2.5rem"">What were the numbers <b>in order</b>?<br>(When you are ready to lock in your answer, press <b>ENTER</b>)</p><button id = button_1 class = ""square num-button"" onclick = ""recordClick(this)""><div class = content><div class = numbers>1</div></div></button><button id = button_2 class = ""square num-button"" onclick = ""recordClick(this)""><div class = content><div class = numbers>2</div></div></button><button id = button_3 class = ""square num-button"" onclick = ""recordClick(this)""><div class = content><div class = numbers>3</div></div></button><button id = button_4 class = ""square num-button"" onclick = ""recordClick(this)""><div class = content><div class = numbers>4</div></div></button><button id = button_5 class = ""square num-button"" onclick = ""recordClick(this)""><div class = content><div class = numbers>5</div></div></button><button id = button_6 class = ""square num-button"" onclick = ""recordClick(this)""><div class = content><div class = numbers>6</div></div></button><button id = button_7 class = ""square num-button"" onclick = ""recordClick(this)""><div class = content><div class = numbers>7</div></div></button><button id = button_8 class = ""square num-button"" onclick = ""recordClick(this)""><div class = content><div class = numbers>8</div></div></button><button id = button_9 class = ""square num-button"" onclick = ""recordClick(this)""><div class = content><div class = numbers>9</div></div></button><button class = clear_button id = ""ClearButton"" onclick = ""clearResponse()"">Clear</button><p><u><b>Current Answer:</b></u></p><div id=echoed_txt style=""font-size: 6rem; color:blue;""><b></b></div></div><br><br><br><br><br><br><br>",enter,fwdspan,response,bj2pQYPkP5PljC8GZUKpWq5AgwK2,html-keyboard-response,81,587064,0.0-7.0-2.6-0.6-3.6,7.0,"[9,7,6,1,4,3,9]","[9,7,6,1,3,4,5]",0.0,"[3, 4, 4, 5, 5, 6, 7, 7, 6, 6, 5, 6]",,62b342cc99726190dd047478,11:22:07,15/01/2024
,,,fwdspan,update_span,bj2pQYPkP5PljC8GZUKpWq5AgwK2,call-function,82,587323,0.0-7.0-2.6-0.6-4.6,,,,,,,62b342cc99726190dd047478,11:22:07,15/01/2024
1421.6999999997206,"<p style=""font-size:3rem"">Trial 8 of 12</p><br><br><br>",0,fwdspan,start_trial,bj2pQYPkP5PljC8GZUKpWq5AgwK2,html-button-response,83,588745,0.0-7.0-2.7-0.7-0.7,,,,,,,62b342cc99726190dd047478,11:22:07,15/01/2024
,"<p style=""font-size:14rem;font-weight:400;"">4</p>",,fwdspan,number,bj2pQYPkP5PljC8GZUKpWq5AgwK2,html-keyboard-response,84,589761,0.0-7.0-2.7-0.7-1.34-0.34,,,,,,,62b342cc99726190dd047478,11:22:07,15/01/2024
,"<p style=""font-size:14rem;font-weight:400;"">8</p>",,fwdspan,number,bj2pQYPkP5PljC8GZUKpWq5AgwK2,html-keyboard-response,85,590778,0.0-7.0-2.7-0.7-1.35-0.35,,,,,,,62b342cc99726190dd047478,11:22:07,15/01/2024
,"<p style=""font-size:14rem;font-weight:400;"">6</p>",,fwdspan,number,bj2pQYPkP5PljC8GZUKpWq5AgwK2,html-keyboard-response,86,591794,0.0-7.0-2.7-0.7-1.36-0.36,,,,,,,62b342cc99726190dd047478,11:22:07,15/01/2024
,"<p style=""font-size:14rem;font-weight:400;"">5</p>",,fwdspan,number,bj2pQYPkP5PljC8GZUKpWq5AgwK2,html-keyboard-response,87,592810,0.0-7.0-2.7-0.7-1.37-0.37,,,,,,,62b342cc99726190dd047478,11:22:07,15/01/2024
,"<p style=""font-size:14rem;font-weight:400;"">2</p>",,fwdspan,number,bj2pQYPkP5PljC8GZUKpWq5AgwK2,html-keyboard-response,88,593827,0.0-7.0-2.7-0.7-1.38-0.38,,,,,,,62b342cc99726190dd047478,11:22:07,15/01/2024
,"<p style=""font-size:14rem;font-weight:400;"">9</p>",,fwdspan,number,bj2pQYPkP5PljC8GZUKpWq5AgwK2,html-keyboard-response,89,594843,0.0-7.0-2.7-0.7-1.39-0.39,,,,,,,62b342cc99726190dd047478,11:22:07,15/01/2024
,"<p style=""font-size:14rem;font-weight:400;"">3</p>",,fwdspan,number,bj2pQYPkP5PljC8GZUKpWq5AgwK2,html-keyboard-response,90,595847,0.0-7.0-2.7-0.7-1.40-0.40,,,,,,,62b342cc99726190dd047478,11:22:07,15/01/2024
,[],,fwdspan,delay,bj2pQYPkP5PljC8GZUKpWq5AgwK2,html-keyboard-response,91,596403,0.0-7.0-2.7-0.7-2.7,,,,,,,62b342cc99726190dd047478,11:22:07,15/01/2024
4057.600000000093,"<div class = numbox><p style=""font-size:2.5rem"">What were the numbers <b>in order</b>?<br>(When you are ready to lock in your answer, press <b>ENTER</b>)</p><button id = button_1 class = ""square num-button"" onclick = ""recordClick(this)""><div class = content><div class = numbers>1</div></div></button><button id = button_2 class = ""square num-button"" onclick = ""recordClick(this)""><div class = content><div class = numbers>2</div></div></button><button id = button_3 class = ""square num-button"" onclick = ""recordClick(this)""><div class = content><div class = numbers>3</div></div></button><button id = button_4 class = ""square num-button"" onclick = ""recordClick(this)""><div class = content><div class = numbers>4</div></div></button><button id = button_5 class = ""square num-button"" onclick = ""recordClick(this)""><div class = content><div class = numbers>5</div></div></button><button id = button_6 class = ""square num-button"" onclick = ""recordClick(this)""><div class = content><div class = numbers>6</div></div></button><button id = button_7 class = ""square num-button"" onclick = ""recordClick(this)""><div class = content><div class = numbers>7</div></div></button><button id = button_8 class = ""square num-button"" onclick = ""recordClick(this)""><div class = content><div class = numbers>8</div></div></button><button id = button_9 class = ""square num-button"" onclick = ""recordClick(this)""><div class = content><div class = numbers>9</div></div></button><button class = clear_button id = ""ClearButton"" onclick = ""clearResponse()"">Clear</button><p><u><b>Current Answer:</b></u></p><div id=echoed_txt style=""font-size: 6rem; color:blue;""><b></b></div></div><br><br><br><br><br><br><br>",enter,fwdspan,response,bj2pQYPkP5PljC8GZUKpWq5AgwK2,html-keyboard-response,92,600461,0.0-7.0-2.7-0.7-3.7,7.0,"[4,5,6,9,7,3]","[4,8,6,5,2,9,3]",0.0,"[3, 4, 4, 5, 5, 6, 7, 7, 6, 6, 5, 6]",,62b342cc99726190dd047478,11:22:07,15/01/2024
,,,fwdspan,update_span,bj2pQYPkP5PljC8GZUKpWq5AgwK2,call-function,93,600720,0.0-7.0-2.7-0.7-4.7,,,,,,,62b342cc99726190dd047478,11:22:07,15/01/2024
1631.7000000001863,"<p style=""font-size:3rem"">Trial 9 of 12</p><br><br><br>",0,fwdspan,start_trial,bj2pQYPkP5PljC8GZUKpWq5AgwK2,html-button-response,94,602352,0.0-7.0-2.8-0.8-0.8,,,,,,,62b342cc99726190dd047478,11:22:07,15/01/2024
,"<p style=""font-size:14rem;font-weight:400;"">2</p>",,fwdspan,number,bj2pQYPkP5PljC8GZUKpWq5AgwK2,html-keyboard-response,95,603368,0.0-7.0-2.8-0.8-1.41-0.41,,,,,,,62b342cc99726190dd047478,11:22:07,15/01/2024
,"<p style=""font-size:14rem;font-weight:400;"">5</p>",,fwdspan,number,bj2pQYPkP5PljC8GZUKpWq5AgwK2,html-keyboard-response,96,604374,0.0-7.0-2.8-0.8-1.42-0.42,,,,,,,62b342cc99726190dd047478,11:22:07,15/01/2024
,"<p style=""font-size:14rem;font-weight:400;"">9</p>",,fwdspan,number,bj2pQYPkP5PljC8GZUKpWq5AgwK2,html-keyboard-response,97,605391,0.0-7.0-2.8-0.8-1.43-0.43,,,,,,,62b342cc99726190dd047478,11:22:07,15/01/2024
,"<p style=""font-size:14rem;font-weight:400;"">8</p>",,fwdspan,number,bj2pQYPkP5PljC8GZUKpWq5AgwK2,html-keyboard-response,98,606407,0.0-7.0-2.8-0.8-1.44-0.44,,,,,,,62b342cc99726190dd047478,11:22:07,15/01/2024
,"<p style=""font-size:14rem;font-weight:400;"">6</p>",,fwdspan,number,bj2pQYPkP5PljC8GZUKpWq5AgwK2,html-keyboard-response,99,607423,0.0-7.0-2.8-0.8-1.45-0.45,,,,,,,62b342cc99726190dd047478,11:22:07,15/01/2024
,"<p style=""font-size:14rem;font-weight:400;"">1</p>",,fwdspan,number,bj2pQYPkP5PljC8GZUKpWq5AgwK2,html-keyboard-response,100,608440,0.0-7.0-2.8-0.8-1.46-0.46,,,,,,,62b342cc99726190dd047478,11:22:07,15/01/2024
,[],,fwdspan,delay,bj2pQYPkP5PljC8GZUKpWq5AgwK2,html-keyboard-response,101,609017,0.0-7.0-2.8-0.8-2.8,,,,,,,62b342cc99726190dd047478,11:22:07,15/01/2024
9831.0,"<div class = numbox><p style=""font-size:2.5rem"">What were the numbers <b>in order</b>?<br>(When you are ready to lock in your answer, press <b>ENTER</b>)</p><button id = button_1 class = ""square num-button"" onclick = ""recordClick(this)""><div class = content><div class = numbers>1</div></div></button><button id = button_2 class = ""square num-button"" onclick = ""recordClick(this)""><div class = content><div class = numbers>2</div></div></button><button id = button_3 class = ""square num-button"" onclick = ""recordClick(this)""><div class = content><div class = numbers>3</div></div></button><button id = button_4 class = ""square num-button"" onclick = ""recordClick(this)""><div class = content><div class = numbers>4</div></div></button><button id = button_5 class = ""square num-button"" onclick = ""recordClick(this)""><div class = content><div class = numbers>5</div></div></button><button id = button_6 class = ""square num-button"" onclick = ""recordClick(this)""><div class = content><div class = numbers>6</div></div></button><button id = button_7 class = ""square num-button"" onclick = ""recordClick(this)""><div class = content><div class = numbers>7</div></div></button><button id = button_8 class = ""square num-button"" onclick = ""recordClick(this)""><div class = content><div class = numbers>8</div></div></button><button id = button_9 class = ""square num-button"" onclick = ""recordClick(this)""><div class = content><div class = numbers>9</div></div></button><button class = clear_button id = ""ClearButton"" onclick = ""clearResponse()"">Clear</button><p><u><b>Current Answer:</b></u></p><div id=echoed_txt style=""font-size: 6rem; color:blue;""><b></b></div></div><br><br><br><br><br><br><br>",enter,fwdspan,response,bj2pQYPkP5PljC8GZUKpWq5AgwK2,html-keyboard-response,102,618848,0.0-7.0-2.8-0.8-3.8,6.0,"[2,5,9,6,8,1]","[2,5,9,8,6,1]",0.0,"[3, 4, 4, 5, 5, 6, 7, 7, 6, 6, 5, 6]",,62b342cc99726190dd047478,11:22:07,15/01/2024
,,,fwdspan,update_span,bj2pQYPkP5PljC8GZUKpWq5AgwK2,call-function,103,619112,0.0-7.0-2.8-0.8-4.8,,,,,,,62b342cc99726190dd047478,11:22:07,15/01/2024
731.2999999998137,"<p style=""font-size:3rem"">Trial 10 of 12</p><br><br><br>",0,fwdspan,start_trial,bj2pQYPkP5PljC8GZUKpWq5AgwK2,html-button-response,104,619844,0.0-7.0-2.9-0.9-0.9,,,,,,,62b342cc99726190dd047478,11:22:07,15/01/2024
,"<p style=""font-size:14rem;font-weight:400;"">4</p>",,fwdspan,number,bj2pQYPkP5PljC8GZUKpWq5AgwK2,html-keyboard-response,105,620853,0.0-7.0-2.9-0.9-1.47-0.47,,,,,,,62b342cc99726190dd047478,11:22:07,15/01/2024
,"<p style=""font-size:14rem;font-weight:400;"">7</p>",,fwdspan,number,bj2pQYPkP5PljC8GZUKpWq5AgwK2,html-keyboard-response,106,621870,0.0-7.0-2.9-0.9-1.48-0.48,,,,,,,62b342cc99726190dd047478,11:22:07,15/01/2024
,"<p style=""font-size:14rem;font-weight:400;"">3</p>",,fwdspan,number,bj2pQYPkP5PljC8GZUKpWq5AgwK2,html-keyboard-response,107,622886,0.0-7.0-2.9-0.9-1.49-0.49,,,,,,,62b342cc99726190dd047478,11:22:07,15/01/2024
,"<p style=""font-size:14rem;font-weight:400;"">2</p>",,fwdspan,number,bj2pQYPkP5PljC8GZUKpWq5AgwK2,html-keyboard-response,108,623903,0.0-7.0-2.9-0.9-1.50-0.50,,,,,,,62b342cc99726190dd047478,11:22:07,15/01/2024
,"<p style=""font-size:14rem;font-weight:400;"">1</p>",,fwdspan,number,bj2pQYPkP5PljC8GZUKpWq5AgwK2,html-keyboard-response,109,624919,0.0-7.0-2.9-0.9-1.51-0.51,,,,,,,62b342cc99726190dd047478,11:22:07,15/01/2024
,"<p style=""font-size:14rem;font-weight:400;"">9</p>",,fwdspan,number,bj2pQYPkP5PljC8GZUKpWq5AgwK2,html-keyboard-response,110,625935,0.0-7.0-2.9-0.9-1.52-0.52,,,,,,,62b342cc99726190dd047478,11:22:07,15/01/2024
,[],,fwdspan,delay,bj2pQYPkP5PljC8GZUKpWq5AgwK2,html-keyboard-response,111,626497,0.0-7.0-2.9-0.9-2.9,,,,,,,62b342cc99726190dd047478,11:22:07,15/01/2024
5054.700000000186,"<div class = numbox><p style=""font-size:2.5rem"">What were the numbers <b>in order</b>?<br>(When you are ready to lock in your answer, press <b>ENTER</b>)</p><button id = button_1 class = ""square num-button"" onclick = ""recordClick(this)""><div class = content><div class = numbers>1</div></div></button><button id = button_2 class = ""square num-button"" onclick = ""recordClick(this)""><div class = content><div class = numbers>2</div></div></button><button id = button_3 class = ""square num-button"" onclick = ""recordClick(this)""><div class = content><div class = numbers>3</div></div></button><button id = button_4 class = ""square num-button"" onclick = ""recordClick(this)""><div class = content><div class = numbers>4</div></div></button><button id = button_5 class = ""square num-button"" onclick = ""recordClick(this)""><div class = content><div class = numbers>5</div></div></button><button id = button_6 class = ""square num-button"" onclick = ""recordClick(this)""><div class = content><div class = numbers>6</div></div></button><button id = button_7 class = ""square num-button"" onclick = ""recordClick(this)""><div class = content><div class = numbers>7</div></div></button><button id = button_8 class = ""square num-button"" onclick = ""recordClick(this)""><div class = content><div class = numbers>8</div></div></button><button id = button_9 class = ""square num-button"" onclick = ""recordClick(this)""><div class = content><div class = numbers>9</div></div></button><button class = clear_button id = ""ClearButton"" onclick = ""clearResponse()"">Clear</button><p><u><b>Current Answer:</b></u></p><div id=echoed_txt style=""font-size: 6rem; color:blue;""><b></b></div></div><br><br><br><br><br><br><br>",enter,fwdspan,response,bj2pQYPkP5PljC8GZUKpWq5AgwK2,html-keyboard-response,112,631553,0.0-7.0-2.9-0.9-3.9,6.0,"[2,7,3,4,1,9]","[4,7,3,2,1,9]",0.0,"[3, 4, 4, 5, 5, 6, 7, 7, 6, 6, 5, 6]",,62b342cc99726190dd047478,11:22:07,15/01/2024
,,,fwdspan,update_span,bj2pQYPkP5PljC8GZUKpWq5AgwK2,call-function,113,631810,0.0-7.0-2.9-0.9-4.9,,,,,,,62b342cc99726190dd047478,11:22:07,15/01/2024
815.6000000000931,"<p style=""font-size:3rem"">Trial 11 of 12</p><br><br><br>",0,fwdspan,start_trial,bj2pQYPkP5PljC8GZUKpWq5AgwK2,html-button-response,114,632627,0.0-7.0-2.10-0.10-0.10,,,,,,,62b342cc99726190dd047478,11:22:07,15/01/2024
,"<p style=""font-size:14rem;font-weight:400;"">2</p>",,fwdspan,number,bj2pQYPkP5PljC8GZUKpWq5AgwK2,html-keyboard-response,115,633634,0.0-7.0-2.10-0.10-1.53-0.53,,,,,,,62b342cc99726190dd047478,11:22:07,15/01/2024
,"<p style=""font-size:14rem;font-weight:400;"">8</p>",,fwdspan,number,bj2pQYPkP5PljC8GZUKpWq5AgwK2,html-keyboard-response,116,634650,0.0-7.0-2.10-0.10-1.54-0.54,,,,,,,62b342cc99726190dd047478,11:22:07,15/01/2024
,"<p style=""font-size:14rem;font-weight:400;"">5</p>",,fwdspan,number,bj2pQYPkP5PljC8GZUKpWq5AgwK2,html-keyboard-response,117,635666,0.0-7.0-2.10-0.10-1.55-0.55,,,,,,,62b342cc99726190dd047478,11:22:07,15/01/2024
,"<p style=""font-size:14rem;font-weight:400;"">6</p>",,fwdspan,number,bj2pQYPkP5PljC8GZUKpWq5AgwK2,html-keyboard-response,118,636683,0.0-7.0-2.10-0.10-1.56-0.56,,,,,,,62b342cc99726190dd047478,11:22:07,15/01/2024
,"<p style=""font-size:14rem;font-weight:400;"">7</p>",,fwdspan,number,bj2pQYPkP5PljC8GZUKpWq5AgwK2,html-keyboard-response,119,637699,0.0-7.0-2.10-0.10-1.57-0.57,,,,,,,62b342cc99726190dd047478,11:22:07,15/01/2024
,[],,fwdspan,delay,bj2pQYPkP5PljC8GZUKpWq5AgwK2,html-keyboard-response,120,638276,0.0-7.0-2.10-0.10-2.10,,,,,,,62b342cc99726190dd047478,11:22:07,15/01/2024
4980.600000000093,"<div class = numbox><p style=""font-size:2.5rem"">What were the numbers <b>in order</b>?<br>(When you are ready to lock in your answer, press <b>ENTER</b>)</p><button id = button_1 class = ""square num-button"" onclick = ""recordClick(this)""><div class = content><div class = numbers>1</div></div></button><button id = button_2 class = ""square num-button"" onclick = ""recordClick(this)""><div class = content><div class = numbers>2</div></div></button><button id = button_3 class = ""square num-button"" onclick = ""recordClick(this)""><div class = content><div class = numbers>3</div></div></button><button id = button_4 class = ""square num-button"" onclick = ""recordClick(this)""><div class = content><div class = numbers>4</div></div></button><button id = button_5 class = ""square num-button"" onclick = ""recordClick(this)""><div class = content><div class = numbers>5</div></div></button><button id = button_6 class = ""square num-button"" onclick = ""recordClick(this)""><div class = content><div class = numbers>6</div></div></button><button id = button_7 class = ""square num-button"" onclick = ""recordClick(this)""><div class = content><div class = numbers>7</div></div></button><button id = button_8 class = ""square num-button"" onclick = ""recordClick(this)""><div class = content><div class = numbers>8</div></div></button><button id = button_9 class = ""square num-button"" onclick = ""recordClick(this)""><div class = content><div class = numbers>9</div></div></button><button class = clear_button id = ""ClearButton"" onclick = ""clearResponse()"">Clear</button><p><u><b>Current Answer:</b></u></p><div id=echoed_txt style=""font-size: 6rem; color:blue;""><b></b></div></div><br><br><br><br><br><br><br>",enter,fwdspan,response,bj2pQYPkP5PljC8GZUKpWq5AgwK2,html-keyboard-response,121,643257,0.0-7.0-2.10-0.10-3.10,5.0,"[2,8,5,6,7]","[2,8,5,6,7]",1.0,"[3, 4, 4, 5, 5, 6, 7, 7, 6, 6, 5, 6]",,62b342cc99726190dd047478,11:22:07,15/01/2024
,,,fwdspan,update_span,bj2pQYPkP5PljC8GZUKpWq5AgwK2,call-function,122,643509,0.0-7.0-2.10-0.10-4.10,,,,,,,62b342cc99726190dd047478,11:22:07,15/01/2024
1339.0,"<p style=""font-size:3rem"">Trial 12 of 12</p><br><br><br>",0,fwdspan,start_trial,bj2pQYPkP5PljC8GZUKpWq5AgwK2,html-button-response,123,644848,0.0-7.0-2.11-0.11-0.11,,,,,,,62b342cc99726190dd047478,11:22:07,15/01/2024
,"<p style=""font-size:14rem;font-weight:400;"">2</p>",,fwdspan,number,bj2pQYPkP5PljC8GZUKpWq5AgwK2,html-keyboard-response,124,645864,0.0-7.0-2.11-0.11-1.58-0.58,,,,,,,62b342cc99726190dd047478,11:22:07,15/01/2024
,"<p style=""font-size:14rem;font-weight:400;"">8</p>",,fwdspan,number,bj2pQYPkP5PljC8GZUKpWq5AgwK2,html-keyboard-response,125,646880,0.0-7.0-2.11-0.11-1.59-0.59,,,,,,,62b342cc99726190dd047478,11:22:07,15/01/2024
,"<p style=""font-size:14rem;font-weight:400;"">5</p>",,fwdspan,number,bj2pQYPkP5PljC8GZUKpWq5AgwK2,html-keyboard-response,126,647897,0.0-7.0-2.11-0.11-1.60-0.60,,,,,,,62b342cc99726190dd047478,11:22:07,15/01/2024
,"<p style=""font-size:14rem;font-weight:400;"">4</p>",,fwdspan,number,bj2pQYPkP5PljC8GZUKpWq5AgwK2,html-keyboard-response,127,648913,0.0-7.0-2.11-0.11-1.61-0.61,,,,,,,62b342cc99726190dd047478,11:22:07,15/01/2024
,"<p style=""font-size:14rem;font-weight:400;"">1</p>",,fwdspan,number,bj2pQYPkP5PljC8GZUKpWq5AgwK2,html-keyboard-response,128,649930,0.0-7.0-2.11-0.11-1.62-0.62,,,,,,,62b342cc99726190dd047478,11:22:07,15/01/2024
,"<p style=""font-size:14rem;font-weight:400;"">6</p>",,fwdspan,number,bj2pQYPkP5PljC8GZUKpWq5AgwK2,html-keyboard-response,129,650946,0.0-7.0-2.11-0.11-1.63-0.63,,,,,,,62b342cc99726190dd047478,11:22:07,15/01/2024
,[],,fwdspan,delay,bj2pQYPkP5PljC8GZUKpWq5AgwK2,html-keyboard-response,130,651503,0.0-7.0-2.11-0.11-2.11,,,,,,,62b342cc99726190dd047478,11:22:07,15/01/2024
5256.0,"<div class = numbox><p style=""font-size:2.5rem"">What were the numbers <b>in order</b>?<br>(When you are ready to lock in your answer, press <b>ENTER</b>)</p><button id = button_1 class = ""square num-button"" onclick = ""recordClick(this)""><div class = content><div class = numbers>1</div></div></button><button id = button_2 class = ""square num-button"" onclick = ""recordClick(this)""><div class = content><div class = numbers>2</div></div></button><button id = button_3 class = ""square num-button"" onclick = ""recordClick(this)""><div class = content><div class = numbers>3</div></div></button><button id = button_4 class = ""square num-button"" onclick = ""recordClick(this)""><div class = content><div class = numbers>4</div></div></button><button id = button_5 class = ""square num-button"" onclick = ""recordClick(this)""><div class = content><div class = numbers>5</div></div></button><button id = button_6 class = ""square num-button"" onclick = ""recordClick(this)""><div class = content><div class = numbers>6</div></div></button><button id = button_7 class = ""square num-button"" onclick = ""recordClick(this)""><div class = content><div class = numbers>7</div></div></button><button id = button_8 class = ""square num-button"" onclick = ""recordClick(this)""><div class = content><div class = numbers>8</div></div></button><button id = button_9 class = ""square num-button"" onclick = ""recordClick(this)""><div class = content><div class = numbers>9</div></div></button><button class = clear_button id = ""ClearButton"" onclick = ""clearResponse()"">Clear</button><p><u><b>Current Answer:</b></u></p><div id=echoed_txt style=""font-size: 6rem; color:blue;""><b></b></div></div><br><br><br><br><br><br><br>",enter,fwdspan,response,bj2pQYPkP5PljC8GZUKpWq5AgwK2,html-keyboard-response,131,656759,0.0-7.0-2.11-0.11-3.11,6.0,"[2,8,5,4,7,6]","[2,8,5,4,1,6]",0.0,"[3, 4, 4, 5, 5, 6, 7, 7, 6, 6, 5, 6]",,62b342cc99726190dd047478,11:22:07,15/01/2024
,,,fwdspan,update_span,bj2pQYPkP5PljC8GZUKpWq5AgwK2,call-function,132,657015,0.0-7.0-2.11-0.11-4.11,,,,,,,62b342cc99726190dd047478,11:22:07,15/01/2024
27173.0,,"{'Q0': 'I couldnt keep up with the numbers, but i enjoyed the challange'}",fwdspan,survey,bj2pQYPkP5PljC8GZUKpWq5AgwK2,lmdlab-survey-text,133,684953,0.0-7.0-3.0,,,,,,bj2pQYPkP5PljC8GZUKpWq5AgwK2,62b342cc99726190dd047478,11:22:07,15/01/2024
10025.399999999907,<p><p style='font-size: 3rem'>Great work!<br><br>This completes the digit span task.</p><br><br><br>,0,fwdspan,finish,bj2pQYPkP5PljC8GZUKpWq5AgwK2,html-button-response,134,694980,0.0-7.0-4.0,,,,,,,62b342cc99726190dd047478,11:22:07,15/01/2024
