rt,stimulus,response,exp_name,exp_stage,subjectID,trial_type,trial_index,time_elapsed,internal_node_id,span,answer,correct,correct_full,span_history,databaseID,prolificID,start_time,date
8250.90000000596,"<p style=""font-size:4rem""><br><br>In the next part today, we have a completely different short task.<br><br><br>This part involves keeping numbers in you mind. Participation takes around 5 minutes.<br><br><br></p>",0,fwdspan,instruct,HlE03kQqnwRGzXiSc5uk35J97uc2,html-button-response,19,652267,0.0-7.0-0.0,,,,,,,65313a592d60e2cc4ce90841,3:50:52 PM,1/15/2024
33212.59999999404,"<p style=""font-size:5rem"">Welcome to the <b>digit span task</b>!<br><br></p><p style=""font-size:3.4rem""><br>On each trial, you will see a sequence of digits, followed by a delay.</p><p style=""font-size:3.4rem""><br>Then you will be asked to type them back in the same order in which they were seen.</p><p style=""font-size:3.4rem""><br><br><br>For example, if you saw the digits <b style=""color:blue;"">1</b>, <b style=""color:blue;"">2</b>, <b style=""color:blue;"">3</b>, you would respond with <b style=""color:blue;"">1</b>, <b style=""color:blue;"">2</b>, <b style=""color:blue;"">3</b></p><p style=""font-size:3.4rem""><br><br><br>To ensure the best measure of true performance for our study,<br><br>it is very important that you do not use any memory aid (e.g., pen and paper).<br><br>Please do the task solely in your head.</p><p style=""font-size:3.4rem""><br><br><br>There will be 12 total trials. Participation takes around 5 minutes.</p><br><br><br>",0,fwdspan,instruct,HlE03kQqnwRGzXiSc5uk35J97uc2,html-button-response,20,685483,0.0-7.0-1.0,,,,,,,65313a592d60e2cc4ce90841,3:50:52 PM,1/15/2024
1888.699999988079,"<p style=""font-size:3rem"">Trial 1 of 12</p><br><br><br>",0,fwdspan,start_trial,HlE03kQqnwRGzXiSc5uk35J97uc2,html-button-response,21,687379,0.0-7.0-2.0-0.0-0.0,,,,,,,65313a592d60e2cc4ce90841,3:50:52 PM,1/15/2024
,"<p style=""font-size:14rem;font-weight:400;"">3</p>",,fwdspan,number,HlE03kQqnwRGzXiSc5uk35J97uc2,html-keyboard-response,22,688388,0.0-7.0-2.0-0.0-1.0-0.0,,,,,,,65313a592d60e2cc4ce90841,3:50:52 PM,1/15/2024
,"<p style=""font-size:14rem;font-weight:400;"">7</p>",,fwdspan,number,HlE03kQqnwRGzXiSc5uk35J97uc2,html-keyboard-response,23,689425,0.0-7.0-2.0-0.0-1.1-0.1,,,,,,,65313a592d60e2cc4ce90841,3:50:52 PM,1/15/2024
,"<p style=""font-size:14rem;font-weight:400;"">5</p>",,fwdspan,number,HlE03kQqnwRGzXiSc5uk35J97uc2,html-keyboard-response,24,690444,0.0-7.0-2.0-0.0-1.2-0.2,,,,,,,65313a592d60e2cc4ce90841,3:50:52 PM,1/15/2024
,[],,fwdspan,delay,HlE03kQqnwRGzXiSc5uk35J97uc2,html-keyboard-response,25,691015,0.0-7.0-2.0-0.0-2.0,,,,,,,65313a592d60e2cc4ce90841,3:50:52 PM,1/15/2024
13400.90000000596,"<div class = numbox><p style=""font-size:2.5rem"">What were the numbers <b>in order</b>?<br>(When you are ready to lock in your answer, press <b>ENTER</b>)</p><button id = button_1 class = ""square num-button"" onclick = ""recordClick(this)""><div class = content><div class = numbers>1</div></div></button><button id = button_2 class = ""square num-button"" onclick = ""recordClick(this)""><div class = content><div class = numbers>2</div></div></button><button id = button_3 class = ""square num-button"" onclick = ""recordClick(this)""><div class = content><div class = numbers>3</div></div></button><button id = button_4 class = ""square num-button"" onclick = ""recordClick(this)""><div class = content><div class = numbers>4</div></div></button><button id = button_5 class = ""square num-button"" onclick = ""recordClick(this)""><div class = content><div class = numbers>5</div></div></button><button id = button_6 class = ""square num-button"" onclick = ""recordClick(this)""><div class = content><div class = numbers>6</div></div></button><button id = button_7 class = ""square num-button"" onclick = ""recordClick(this)""><div class = content><div class = numbers>7</div></div></button><button id = button_8 class = ""square num-button"" onclick = ""recordClick(this)""><div class = content><div class = numbers>8</div></div></button><button id = button_9 class = ""square num-button"" onclick = ""recordClick(this)""><div class = content><div class = numbers>9</div></div></button><button class = clear_button id = ""ClearButton"" onclick = ""clearResponse()"">Clear</button><p><u><b>Current Answer:</b></u></p><div id=echoed_txt style=""font-size: 6rem; color:blue;""><b></b></div></div><br><br><br><br><br><br><br>",enter,fwdspan,response,HlE03kQqnwRGzXiSc5uk35J97uc2,html-keyboard-response,26,704420,0.0-7.0-2.0-0.0-3.0,3.0,"[3,7,5]","[3,7,5]",1.0,"[3, 4, 5, 6, 7, 8, 9, 9, 8, 9, 10, 10]",,65313a592d60e2cc4ce90841,3:50:52 PM,1/15/2024
,,,fwdspan,update_span,HlE03kQqnwRGzXiSc5uk35J97uc2,call-function,27,704679,0.0-7.0-2.0-0.0-4.0,,,,,,,65313a592d60e2cc4ce90841,3:50:52 PM,1/15/2024
2042.300000011921,"<p style=""font-size:3rem"">Trial 2 of 12</p><br><br><br>",0,fwdspan,start_trial,HlE03kQqnwRGzXiSc5uk35J97uc2,html-button-response,28,706726,0.0-7.0-2.1-0.1-0.1,,,,,,,65313a592d60e2cc4ce90841,3:50:52 PM,1/15/2024
,"<p style=""font-size:14rem;font-weight:400;"">6</p>",,fwdspan,number,HlE03kQqnwRGzXiSc5uk35J97uc2,html-keyboard-response,29,707749,0.0-7.0-2.1-0.1-1.3-0.3,,,,,,,65313a592d60e2cc4ce90841,3:50:52 PM,1/15/2024
,"<p style=""font-size:14rem;font-weight:400;"">9</p>",,fwdspan,number,HlE03kQqnwRGzXiSc5uk35J97uc2,html-keyboard-response,30,708770,0.0-7.0-2.1-0.1-1.4-0.4,,,,,,,65313a592d60e2cc4ce90841,3:50:52 PM,1/15/2024
,"<p style=""font-size:14rem;font-weight:400;"">4</p>",,fwdspan,number,HlE03kQqnwRGzXiSc5uk35J97uc2,html-keyboard-response,31,709794,0.0-7.0-2.1-0.1-1.5-0.5,,,,,,,65313a592d60e2cc4ce90841,3:50:52 PM,1/15/2024
,"<p style=""font-size:14rem;font-weight:400;"">2</p>",,fwdspan,number,HlE03kQqnwRGzXiSc5uk35J97uc2,html-keyboard-response,32,710819,0.0-7.0-2.1-0.1-1.6-0.6,,,,,,,65313a592d60e2cc4ce90841,3:50:52 PM,1/15/2024
,[],,fwdspan,delay,HlE03kQqnwRGzXiSc5uk35J97uc2,html-keyboard-response,33,711374,0.0-7.0-2.1-0.1-2.1,,,,,,,65313a592d60e2cc4ce90841,3:50:52 PM,1/15/2024
6908.399999976158,"<div class = numbox><p style=""font-size:2.5rem"">What were the numbers <b>in order</b>?<br>(When you are ready to lock in your answer, press <b>ENTER</b>)</p><button id = button_1 class = ""square num-button"" onclick = ""recordClick(this)""><div class = content><div class = numbers>1</div></div></button><button id = button_2 class = ""square num-button"" onclick = ""recordClick(this)""><div class = content><div class = numbers>2</div></div></button><button id = button_3 class = ""square num-button"" onclick = ""recordClick(this)""><div class = content><div class = numbers>3</div></div></button><button id = button_4 class = ""square num-button"" onclick = ""recordClick(this)""><div class = content><div class = numbers>4</div></div></button><button id = button_5 class = ""square num-button"" onclick = ""recordClick(this)""><div class = content><div class = numbers>5</div></div></button><button id = button_6 class = ""square num-button"" onclick = ""recordClick(this)""><div class = content><div class = numbers>6</div></div></button><button id = button_7 class = ""square num-button"" onclick = ""recordClick(this)""><div class = content><div class = numbers>7</div></div></button><button id = button_8 class = ""square num-button"" onclick = ""recordClick(this)""><div class = content><div class = numbers>8</div></div></button><button id = button_9 class = ""square num-button"" onclick = ""recordClick(this)""><div class = content><div class = numbers>9</div></div></button><button class = clear_button id = ""ClearButton"" onclick = ""clearResponse()"">Clear</button><p><u><b>Current Answer:</b></u></p><div id=echoed_txt style=""font-size: 6rem; color:blue;""><b></b></div></div><br><br><br><br><br><br><br>",enter,fwdspan,response,HlE03kQqnwRGzXiSc5uk35J97uc2,html-keyboard-response,34,718286,0.0-7.0-2.1-0.1-3.1,4.0,"[6,9,4,2]","[6,9,4,2]",1.0,"[3, 4, 5, 6, 7, 8, 9, 9, 8, 9, 10, 10]",,65313a592d60e2cc4ce90841,3:50:52 PM,1/15/2024
,,,fwdspan,update_span,HlE03kQqnwRGzXiSc5uk35J97uc2,call-function,35,718546,0.0-7.0-2.1-0.1-4.1,,,,,,,65313a592d60e2cc4ce90841,3:50:52 PM,1/15/2024
1616.800000011921,"<p style=""font-size:3rem"">Trial 3 of 12</p><br><br><br>",0,fwdspan,start_trial,HlE03kQqnwRGzXiSc5uk35J97uc2,html-button-response,36,720166,0.0-7.0-2.2-0.2-0.2,,,,,,,65313a592d60e2cc4ce90841,3:50:52 PM,1/15/2024
,"<p style=""font-size:14rem;font-weight:400;"">5</p>",,fwdspan,number,HlE03kQqnwRGzXiSc5uk35J97uc2,html-keyboard-response,37,721180,0.0-7.0-2.2-0.2-1.7-0.7,,,,,,,65313a592d60e2cc4ce90841,3:50:52 PM,1/15/2024
,"<p style=""font-size:14rem;font-weight:400;"">4</p>",,fwdspan,number,HlE03kQqnwRGzXiSc5uk35J97uc2,html-keyboard-response,38,722206,0.0-7.0-2.2-0.2-1.8-0.8,,,,,,,65313a592d60e2cc4ce90841,3:50:52 PM,1/15/2024
,"<p style=""font-size:14rem;font-weight:400;"">8</p>",,fwdspan,number,HlE03kQqnwRGzXiSc5uk35J97uc2,html-keyboard-response,39,723214,0.0-7.0-2.2-0.2-1.9-0.9,,,,,,,65313a592d60e2cc4ce90841,3:50:52 PM,1/15/2024
,"<p style=""font-size:14rem;font-weight:400;"">9</p>",,fwdspan,number,HlE03kQqnwRGzXiSc5uk35J97uc2,html-keyboard-response,40,724224,0.0-7.0-2.2-0.2-1.10-0.10,,,,,,,65313a592d60e2cc4ce90841,3:50:52 PM,1/15/2024
,"<p style=""font-size:14rem;font-weight:400;"">2</p>",,fwdspan,number,HlE03kQqnwRGzXiSc5uk35J97uc2,html-keyboard-response,41,725254,0.0-7.0-2.2-0.2-1.11-0.11,,,,,,,65313a592d60e2cc4ce90841,3:50:52 PM,1/15/2024
,[],,fwdspan,delay,HlE03kQqnwRGzXiSc5uk35J97uc2,html-keyboard-response,42,725817,0.0-7.0-2.2-0.2-2.2,,,,,,,65313a592d60e2cc4ce90841,3:50:52 PM,1/15/2024
7237.399999976158,"<div class = numbox><p style=""font-size:2.5rem"">What were the numbers <b>in order</b>?<br>(When you are ready to lock in your answer, press <b>ENTER</b>)</p><button id = button_1 class = ""square num-button"" onclick = ""recordClick(this)""><div class = content><div class = numbers>1</div></div></button><button id = button_2 class = ""square num-button"" onclick = ""recordClick(this)""><div class = content><div class = numbers>2</div></div></button><button id = button_3 class = ""square num-button"" onclick = ""recordClick(this)""><div class = content><div class = numbers>3</div></div></button><button id = button_4 class = ""square num-button"" onclick = ""recordClick(this)""><div class = content><div class = numbers>4</div></div></button><button id = button_5 class = ""square num-button"" onclick = ""recordClick(this)""><div class = content><div class = numbers>5</div></div></button><button id = button_6 class = ""square num-button"" onclick = ""recordClick(this)""><div class = content><div class = numbers>6</div></div></button><button id = button_7 class = ""square num-button"" onclick = ""recordClick(this)""><div class = content><div class = numbers>7</div></div></button><button id = button_8 class = ""square num-button"" onclick = ""recordClick(this)""><div class = content><div class = numbers>8</div></div></button><button id = button_9 class = ""square num-button"" onclick = ""recordClick(this)""><div class = content><div class = numbers>9</div></div></button><button class = clear_button id = ""ClearButton"" onclick = ""clearResponse()"">Clear</button><p><u><b>Current Answer:</b></u></p><div id=echoed_txt style=""font-size: 6rem; color:blue;""><b></b></div></div><br><br><br><br><br><br><br>",enter,fwdspan,response,HlE03kQqnwRGzXiSc5uk35J97uc2,html-keyboard-response,43,733062,0.0-7.0-2.2-0.2-3.2,5.0,"[5,4,8,9,2]","[5,4,8,9,2]",1.0,"[3, 4, 5, 6, 7, 8, 9, 9, 8, 9, 10, 10]",,65313a592d60e2cc4ce90841,3:50:52 PM,1/15/2024
,,,fwdspan,update_span,HlE03kQqnwRGzXiSc5uk35J97uc2,call-function,44,733324,0.0-7.0-2.2-0.2-4.2,,,,,,,65313a592d60e2cc4ce90841,3:50:52 PM,1/15/2024
4574.4000000059605,"<p style=""font-size:3rem"">Trial 4 of 12</p><br><br><br>",0,fwdspan,start_trial,HlE03kQqnwRGzXiSc5uk35J97uc2,html-button-response,45,737902,0.0-7.0-2.3-0.3-0.3,,,,,,,65313a592d60e2cc4ce90841,3:50:52 PM,1/15/2024
,"<p style=""font-size:14rem;font-weight:400;"">3</p>",,fwdspan,number,HlE03kQqnwRGzXiSc5uk35J97uc2,html-keyboard-response,46,738913,0.0-7.0-2.3-0.3-1.12-0.12,,,,,,,65313a592d60e2cc4ce90841,3:50:52 PM,1/15/2024
,"<p style=""font-size:14rem;font-weight:400;"">1</p>",,fwdspan,number,HlE03kQqnwRGzXiSc5uk35J97uc2,html-keyboard-response,47,739927,0.0-7.0-2.3-0.3-1.13-0.13,,,,,,,65313a592d60e2cc4ce90841,3:50:52 PM,1/15/2024
,"<p style=""font-size:14rem;font-weight:400;"">7</p>",,fwdspan,number,HlE03kQqnwRGzXiSc5uk35J97uc2,html-keyboard-response,48,740950,0.0-7.0-2.3-0.3-1.14-0.14,,,,,,,65313a592d60e2cc4ce90841,3:50:52 PM,1/15/2024
,"<p style=""font-size:14rem;font-weight:400;"">5</p>",,fwdspan,number,HlE03kQqnwRGzXiSc5uk35J97uc2,html-keyboard-response,49,741982,0.0-7.0-2.3-0.3-1.15-0.15,,,,,,,65313a592d60e2cc4ce90841,3:50:52 PM,1/15/2024
,"<p style=""font-size:14rem;font-weight:400;"">9</p>",,fwdspan,number,HlE03kQqnwRGzXiSc5uk35J97uc2,html-keyboard-response,50,743006,0.0-7.0-2.3-0.3-1.16-0.16,,,,,,,65313a592d60e2cc4ce90841,3:50:52 PM,1/15/2024
,"<p style=""font-size:14rem;font-weight:400;"">4</p>",,fwdspan,number,HlE03kQqnwRGzXiSc5uk35J97uc2,html-keyboard-response,51,744017,0.0-7.0-2.3-0.3-1.17-0.17,,,,,,,65313a592d60e2cc4ce90841,3:50:52 PM,1/15/2024
,[],,fwdspan,delay,HlE03kQqnwRGzXiSc5uk35J97uc2,html-keyboard-response,52,744578,0.0-7.0-2.3-0.3-2.3,,,,,,,65313a592d60e2cc4ce90841,3:50:52 PM,1/15/2024
6788.4000000059605,"<div class = numbox><p style=""font-size:2.5rem"">What were the numbers <b>in order</b>?<br>(When you are ready to lock in your answer, press <b>ENTER</b>)</p><button id = button_1 class = ""square num-button"" onclick = ""recordClick(this)""><div class = content><div class = numbers>1</div></div></button><button id = button_2 class = ""square num-button"" onclick = ""recordClick(this)""><div class = content><div class = numbers>2</div></div></button><button id = button_3 class = ""square num-button"" onclick = ""recordClick(this)""><div class = content><div class = numbers>3</div></div></button><button id = button_4 class = ""square num-button"" onclick = ""recordClick(this)""><div class = content><div class = numbers>4</div></div></button><button id = button_5 class = ""square num-button"" onclick = ""recordClick(this)""><div class = content><div class = numbers>5</div></div></button><button id = button_6 class = ""square num-button"" onclick = ""recordClick(this)""><div class = content><div class = numbers>6</div></div></button><button id = button_7 class = ""square num-button"" onclick = ""recordClick(this)""><div class = content><div class = numbers>7</div></div></button><button id = button_8 class = ""square num-button"" onclick = ""recordClick(this)""><div class = content><div class = numbers>8</div></div></button><button id = button_9 class = ""square num-button"" onclick = ""recordClick(this)""><div class = content><div class = numbers>9</div></div></button><button class = clear_button id = ""ClearButton"" onclick = ""clearResponse()"">Clear</button><p><u><b>Current Answer:</b></u></p><div id=echoed_txt style=""font-size: 6rem; color:blue;""><b></b></div></div><br><br><br><br><br><br><br>",enter,fwdspan,response,HlE03kQqnwRGzXiSc5uk35J97uc2,html-keyboard-response,53,751373,0.0-7.0-2.3-0.3-3.3,6.0,"[3,1,7,5,9,4]","[3,1,7,5,9,4]",1.0,"[3, 4, 5, 6, 7, 8, 9, 9, 8, 9, 10, 10]",,65313a592d60e2cc4ce90841,3:50:52 PM,1/15/2024
,,,fwdspan,update_span,HlE03kQqnwRGzXiSc5uk35J97uc2,call-function,54,751630,0.0-7.0-2.3-0.3-4.3,,,,,,,65313a592d60e2cc4ce90841,3:50:52 PM,1/15/2024
1190.4000000059605,"<p style=""font-size:3rem"">Trial 5 of 12</p><br><br><br>",0,fwdspan,start_trial,HlE03kQqnwRGzXiSc5uk35J97uc2,html-button-response,55,752822,0.0-7.0-2.4-0.4-0.4,,,,,,,65313a592d60e2cc4ce90841,3:50:52 PM,1/15/2024
,"<p style=""font-size:14rem;font-weight:400;"">7</p>",,fwdspan,number,HlE03kQqnwRGzXiSc5uk35J97uc2,html-keyboard-response,56,753845,0.0-7.0-2.4-0.4-1.18-0.18,,,,,,,65313a592d60e2cc4ce90841,3:50:52 PM,1/15/2024
,"<p style=""font-size:14rem;font-weight:400;"">6</p>",,fwdspan,number,HlE03kQqnwRGzXiSc5uk35J97uc2,html-keyboard-response,57,754853,0.0-7.0-2.4-0.4-1.19-0.19,,,,,,,65313a592d60e2cc4ce90841,3:50:52 PM,1/15/2024
,"<p style=""font-size:14rem;font-weight:400;"">5</p>",,fwdspan,number,HlE03kQqnwRGzXiSc5uk35J97uc2,html-keyboard-response,58,755873,0.0-7.0-2.4-0.4-1.20-0.20,,,,,,,65313a592d60e2cc4ce90841,3:50:52 PM,1/15/2024
,"<p style=""font-size:14rem;font-weight:400;"">2</p>",,fwdspan,number,HlE03kQqnwRGzXiSc5uk35J97uc2,html-keyboard-response,59,756892,0.0-7.0-2.4-0.4-1.21-0.21,,,,,,,65313a592d60e2cc4ce90841,3:50:52 PM,1/15/2024
,"<p style=""font-size:14rem;font-weight:400;"">3</p>",,fwdspan,number,HlE03kQqnwRGzXiSc5uk35J97uc2,html-keyboard-response,60,757900,0.0-7.0-2.4-0.4-1.22-0.22,,,,,,,65313a592d60e2cc4ce90841,3:50:52 PM,1/15/2024
,"<p style=""font-size:14rem;font-weight:400;"">8</p>",,fwdspan,number,HlE03kQqnwRGzXiSc5uk35J97uc2,html-keyboard-response,61,758912,0.0-7.0-2.4-0.4-1.23-0.23,,,,,,,65313a592d60e2cc4ce90841,3:50:52 PM,1/15/2024
,"<p style=""font-size:14rem;font-weight:400;"">4</p>",,fwdspan,number,HlE03kQqnwRGzXiSc5uk35J97uc2,html-keyboard-response,62,759922,0.0-7.0-2.4-0.4-1.24-0.24,,,,,,,65313a592d60e2cc4ce90841,3:50:52 PM,1/15/2024
,[],,fwdspan,delay,HlE03kQqnwRGzXiSc5uk35J97uc2,html-keyboard-response,63,760479,0.0-7.0-2.4-0.4-2.4,,,,,,,65313a592d60e2cc4ce90841,3:50:52 PM,1/15/2024
10917.299999982119,"<div class = numbox><p style=""font-size:2.5rem"">What were the numbers <b>in order</b>?<br>(When you are ready to lock in your answer, press <b>ENTER</b>)</p><button id = button_1 class = ""square num-button"" onclick = ""recordClick(this)""><div class = content><div class = numbers>1</div></div></button><button id = button_2 class = ""square num-button"" onclick = ""recordClick(this)""><div class = content><div class = numbers>2</div></div></button><button id = button_3 class = ""square num-button"" onclick = ""recordClick(this)""><div class = content><div class = numbers>3</div></div></button><button id = button_4 class = ""square num-button"" onclick = ""recordClick(this)""><div class = content><div class = numbers>4</div></div></button><button id = button_5 class = ""square num-button"" onclick = ""recordClick(this)""><div class = content><div class = numbers>5</div></div></button><button id = button_6 class = ""square num-button"" onclick = ""recordClick(this)""><div class = content><div class = numbers>6</div></div></button><button id = button_7 class = ""square num-button"" onclick = ""recordClick(this)""><div class = content><div class = numbers>7</div></div></button><button id = button_8 class = ""square num-button"" onclick = ""recordClick(this)""><div class = content><div class = numbers>8</div></div></button><button id = button_9 class = ""square num-button"" onclick = ""recordClick(this)""><div class = content><div class = numbers>9</div></div></button><button class = clear_button id = ""ClearButton"" onclick = ""clearResponse()"">Clear</button><p><u><b>Current Answer:</b></u></p><div id=echoed_txt style=""font-size: 6rem; color:blue;""><b></b></div></div><br><br><br><br><br><br><br>",enter,fwdspan,response,HlE03kQqnwRGzXiSc5uk35J97uc2,html-keyboard-response,64,771405,0.0-7.0-2.4-0.4-3.4,7.0,"[7,6,5,2,3,8,4]","[7,6,5,2,3,8,4]",1.0,"[3, 4, 5, 6, 7, 8, 9, 9, 8, 9, 10, 10]",,65313a592d60e2cc4ce90841,3:50:52 PM,1/15/2024
,,,fwdspan,update_span,HlE03kQqnwRGzXiSc5uk35J97uc2,call-function,65,771664,0.0-7.0-2.4-0.4-4.4,,,,,,,65313a592d60e2cc4ce90841,3:50:52 PM,1/15/2024
1326.300000011921,"<p style=""font-size:3rem"">Trial 6 of 12</p><br><br><br>",0,fwdspan,start_trial,HlE03kQqnwRGzXiSc5uk35J97uc2,html-button-response,66,772994,0.0-7.0-2.5-0.5-0.5,,,,,,,65313a592d60e2cc4ce90841,3:50:52 PM,1/15/2024
,"<p style=""font-size:14rem;font-weight:400;"">4</p>",,fwdspan,number,HlE03kQqnwRGzXiSc5uk35J97uc2,html-keyboard-response,67,774018,0.0-7.0-2.5-0.5-1.25-0.25,,,,,,,65313a592d60e2cc4ce90841,3:50:52 PM,1/15/2024
,"<p style=""font-size:14rem;font-weight:400;"">8</p>",,fwdspan,number,HlE03kQqnwRGzXiSc5uk35J97uc2,html-keyboard-response,68,775037,0.0-7.0-2.5-0.5-1.26-0.26,,,,,,,65313a592d60e2cc4ce90841,3:50:52 PM,1/15/2024
,"<p style=""font-size:14rem;font-weight:400;"">6</p>",,fwdspan,number,HlE03kQqnwRGzXiSc5uk35J97uc2,html-keyboard-response,69,776052,0.0-7.0-2.5-0.5-1.27-0.27,,,,,,,65313a592d60e2cc4ce90841,3:50:52 PM,1/15/2024
,"<p style=""font-size:14rem;font-weight:400;"">9</p>",,fwdspan,number,HlE03kQqnwRGzXiSc5uk35J97uc2,html-keyboard-response,70,777076,0.0-7.0-2.5-0.5-1.28-0.28,,,,,,,65313a592d60e2cc4ce90841,3:50:52 PM,1/15/2024
,"<p style=""font-size:14rem;font-weight:400;"">2</p>",,fwdspan,number,HlE03kQqnwRGzXiSc5uk35J97uc2,html-keyboard-response,71,778116,0.0-7.0-2.5-0.5-1.29-0.29,,,,,,,65313a592d60e2cc4ce90841,3:50:52 PM,1/15/2024
,"<p style=""font-size:14rem;font-weight:400;"">7</p>",,fwdspan,number,HlE03kQqnwRGzXiSc5uk35J97uc2,html-keyboard-response,72,779122,0.0-7.0-2.5-0.5-1.30-0.30,,,,,,,65313a592d60e2cc4ce90841,3:50:52 PM,1/15/2024
,"<p style=""font-size:14rem;font-weight:400;"">5</p>",,fwdspan,number,HlE03kQqnwRGzXiSc5uk35J97uc2,html-keyboard-response,73,780151,0.0-7.0-2.5-0.5-1.31-0.31,,,,,,,65313a592d60e2cc4ce90841,3:50:52 PM,1/15/2024
,"<p style=""font-size:14rem;font-weight:400;"">1</p>",,fwdspan,number,HlE03kQqnwRGzXiSc5uk35J97uc2,html-keyboard-response,74,781163,0.0-7.0-2.5-0.5-1.32-0.32,,,,,,,65313a592d60e2cc4ce90841,3:50:52 PM,1/15/2024
,[],,fwdspan,delay,HlE03kQqnwRGzXiSc5uk35J97uc2,html-keyboard-response,75,781728,0.0-7.0-2.5-0.5-2.5,,,,,,,65313a592d60e2cc4ce90841,3:50:52 PM,1/15/2024
8117.799999982119,"<div class = numbox><p style=""font-size:2.5rem"">What were the numbers <b>in order</b>?<br>(When you are ready to lock in your answer, press <b>ENTER</b>)</p><button id = button_1 class = ""square num-button"" onclick = ""recordClick(this)""><div class = content><div class = numbers>1</div></div></button><button id = button_2 class = ""square num-button"" onclick = ""recordClick(this)""><div class = content><div class = numbers>2</div></div></button><button id = button_3 class = ""square num-button"" onclick = ""recordClick(this)""><div class = content><div class = numbers>3</div></div></button><button id = button_4 class = ""square num-button"" onclick = ""recordClick(this)""><div class = content><div class = numbers>4</div></div></button><button id = button_5 class = ""square num-button"" onclick = ""recordClick(this)""><div class = content><div class = numbers>5</div></div></button><button id = button_6 class = ""square num-button"" onclick = ""recordClick(this)""><div class = content><div class = numbers>6</div></div></button><button id = button_7 class = ""square num-button"" onclick = ""recordClick(this)""><div class = content><div class = numbers>7</div></div></button><button id = button_8 class = ""square num-button"" onclick = ""recordClick(this)""><div class = content><div class = numbers>8</div></div></button><button id = button_9 class = ""square num-button"" onclick = ""recordClick(this)""><div class = content><div class = numbers>9</div></div></button><button class = clear_button id = ""ClearButton"" onclick = ""clearResponse()"">Clear</button><p><u><b>Current Answer:</b></u></p><div id=echoed_txt style=""font-size: 6rem; color:blue;""><b></b></div></div><br><br><br><br><br><br><br>",enter,fwdspan,response,HlE03kQqnwRGzXiSc5uk35J97uc2,html-keyboard-response,76,789853,0.0-7.0-2.5-0.5-3.5,8.0,"[4,8,6,9,2,7,5,1]","[4,8,6,9,2,7,5,1]",1.0,"[3, 4, 5, 6, 7, 8, 9, 9, 8, 9, 10, 10]",,65313a592d60e2cc4ce90841,3:50:52 PM,1/15/2024
,,,fwdspan,update_span,HlE03kQqnwRGzXiSc5uk35J97uc2,call-function,77,790120,0.0-7.0-2.5-0.5-4.5,,,,,,,65313a592d60e2cc4ce90841,3:50:52 PM,1/15/2024
1582.4000000059605,"<p style=""font-size:3rem"">Trial 7 of 12</p><br><br><br>",0,fwdspan,start_trial,HlE03kQqnwRGzXiSc5uk35J97uc2,html-button-response,78,791707,0.0-7.0-2.6-0.6-0.6,,,,,,,65313a592d60e2cc4ce90841,3:50:52 PM,1/15/2024
,"<p style=""font-size:14rem;font-weight:400;"">7</p>",,fwdspan,number,HlE03kQqnwRGzXiSc5uk35J97uc2,html-keyboard-response,79,792728,0.0-7.0-2.6-0.6-1.33-0.33,,,,,,,65313a592d60e2cc4ce90841,3:50:52 PM,1/15/2024
,"<p style=""font-size:14rem;font-weight:400;"">2</p>",,fwdspan,number,HlE03kQqnwRGzXiSc5uk35J97uc2,html-keyboard-response,80,793744,0.0-7.0-2.6-0.6-1.34-0.34,,,,,,,65313a592d60e2cc4ce90841,3:50:52 PM,1/15/2024
,"<p style=""font-size:14rem;font-weight:400;"">4</p>",,fwdspan,number,HlE03kQqnwRGzXiSc5uk35J97uc2,html-keyboard-response,81,794759,0.0-7.0-2.6-0.6-1.35-0.35,,,,,,,65313a592d60e2cc4ce90841,3:50:52 PM,1/15/2024
,"<p style=""font-size:14rem;font-weight:400;"">8</p>",,fwdspan,number,HlE03kQqnwRGzXiSc5uk35J97uc2,html-keyboard-response,82,795774,0.0-7.0-2.6-0.6-1.36-0.36,,,,,,,65313a592d60e2cc4ce90841,3:50:52 PM,1/15/2024
,"<p style=""font-size:14rem;font-weight:400;"">5</p>",,fwdspan,number,HlE03kQqnwRGzXiSc5uk35J97uc2,html-keyboard-response,83,796796,0.0-7.0-2.6-0.6-1.37-0.37,,,,,,,65313a592d60e2cc4ce90841,3:50:52 PM,1/15/2024
,"<p style=""font-size:14rem;font-weight:400;"">6</p>",,fwdspan,number,HlE03kQqnwRGzXiSc5uk35J97uc2,html-keyboard-response,84,797801,0.0-7.0-2.6-0.6-1.38-0.38,,,,,,,65313a592d60e2cc4ce90841,3:50:52 PM,1/15/2024
,"<p style=""font-size:14rem;font-weight:400;"">3</p>",,fwdspan,number,HlE03kQqnwRGzXiSc5uk35J97uc2,html-keyboard-response,85,798824,0.0-7.0-2.6-0.6-1.39-0.39,,,,,,,65313a592d60e2cc4ce90841,3:50:52 PM,1/15/2024
,"<p style=""font-size:14rem;font-weight:400;"">9</p>",,fwdspan,number,HlE03kQqnwRGzXiSc5uk35J97uc2,html-keyboard-response,86,799837,0.0-7.0-2.6-0.6-1.40-0.40,,,,,,,65313a592d60e2cc4ce90841,3:50:52 PM,1/15/2024
,"<p style=""font-size:14rem;font-weight:400;"">1</p>",,fwdspan,number,HlE03kQqnwRGzXiSc5uk35J97uc2,html-keyboard-response,87,800854,0.0-7.0-2.6-0.6-1.41-0.41,,,,,,,65313a592d60e2cc4ce90841,3:50:52 PM,1/15/2024
,[],,fwdspan,delay,HlE03kQqnwRGzXiSc5uk35J97uc2,html-keyboard-response,88,801409,0.0-7.0-2.6-0.6-2.6,,,,,,,65313a592d60e2cc4ce90841,3:50:52 PM,1/15/2024
8929.09999999404,"<div class = numbox><p style=""font-size:2.5rem"">What were the numbers <b>in order</b>?<br>(When you are ready to lock in your answer, press <b>ENTER</b>)</p><button id = button_1 class = ""square num-button"" onclick = ""recordClick(this)""><div class = content><div class = numbers>1</div></div></button><button id = button_2 class = ""square num-button"" onclick = ""recordClick(this)""><div class = content><div class = numbers>2</div></div></button><button id = button_3 class = ""square num-button"" onclick = ""recordClick(this)""><div class = content><div class = numbers>3</div></div></button><button id = button_4 class = ""square num-button"" onclick = ""recordClick(this)""><div class = content><div class = numbers>4</div></div></button><button id = button_5 class = ""square num-button"" onclick = ""recordClick(this)""><div class = content><div class = numbers>5</div></div></button><button id = button_6 class = ""square num-button"" onclick = ""recordClick(this)""><div class = content><div class = numbers>6</div></div></button><button id = button_7 class = ""square num-button"" onclick = ""recordClick(this)""><div class = content><div class = numbers>7</div></div></button><button id = button_8 class = ""square num-button"" onclick = ""recordClick(this)""><div class = content><div class = numbers>8</div></div></button><button id = button_9 class = ""square num-button"" onclick = ""recordClick(this)""><div class = content><div class = numbers>9</div></div></button><button class = clear_button id = ""ClearButton"" onclick = ""clearResponse()"">Clear</button><p><u><b>Current Answer:</b></u></p><div id=echoed_txt style=""font-size: 6rem; color:blue;""><b></b></div></div><br><br><br><br><br><br><br>",enter,fwdspan,response,HlE03kQqnwRGzXiSc5uk35J97uc2,html-keyboard-response,89,810344,0.0-7.0-2.6-0.6-3.6,9.0,"[7,2,4,8,5,6,9,1]","[7,2,4,8,5,6,3,9,1]",0.0,"[3, 4, 5, 6, 7, 8, 9, 9, 8, 9, 10, 10]",,65313a592d60e2cc4ce90841,3:50:52 PM,1/15/2024
,,,fwdspan,update_span,HlE03kQqnwRGzXiSc5uk35J97uc2,call-function,90,810610,0.0-7.0-2.6-0.6-4.6,,,,,,,65313a592d60e2cc4ce90841,3:50:52 PM,1/15/2024
1236.5999999940395,"<p style=""font-size:3rem"">Trial 8 of 12</p><br><br><br>",0,fwdspan,start_trial,HlE03kQqnwRGzXiSc5uk35J97uc2,html-button-response,91,811850,0.0-7.0-2.7-0.7-0.7,,,,,,,65313a592d60e2cc4ce90841,3:50:52 PM,1/15/2024
,"<p style=""font-size:14rem;font-weight:400;"">4</p>",,fwdspan,number,HlE03kQqnwRGzXiSc5uk35J97uc2,html-keyboard-response,92,812869,0.0-7.0-2.7-0.7-1.42-0.42,,,,,,,65313a592d60e2cc4ce90841,3:50:52 PM,1/15/2024
,"<p style=""font-size:14rem;font-weight:400;"">2</p>",,fwdspan,number,HlE03kQqnwRGzXiSc5uk35J97uc2,html-keyboard-response,93,813882,0.0-7.0-2.7-0.7-1.43-0.43,,,,,,,65313a592d60e2cc4ce90841,3:50:52 PM,1/15/2024
,"<p style=""font-size:14rem;font-weight:400;"">8</p>",,fwdspan,number,HlE03kQqnwRGzXiSc5uk35J97uc2,html-keyboard-response,94,814903,0.0-7.0-2.7-0.7-1.44-0.44,,,,,,,65313a592d60e2cc4ce90841,3:50:52 PM,1/15/2024
,"<p style=""font-size:14rem;font-weight:400;"">3</p>",,fwdspan,number,HlE03kQqnwRGzXiSc5uk35J97uc2,html-keyboard-response,95,815920,0.0-7.0-2.7-0.7-1.45-0.45,,,,,,,65313a592d60e2cc4ce90841,3:50:52 PM,1/15/2024
,"<p style=""font-size:14rem;font-weight:400;"">7</p>",,fwdspan,number,HlE03kQqnwRGzXiSc5uk35J97uc2,html-keyboard-response,96,816931,0.0-7.0-2.7-0.7-1.46-0.46,,,,,,,65313a592d60e2cc4ce90841,3:50:52 PM,1/15/2024
,"<p style=""font-size:14rem;font-weight:400;"">1</p>",,fwdspan,number,HlE03kQqnwRGzXiSc5uk35J97uc2,html-keyboard-response,97,817954,0.0-7.0-2.7-0.7-1.47-0.47,,,,,,,65313a592d60e2cc4ce90841,3:50:52 PM,1/15/2024
,"<p style=""font-size:14rem;font-weight:400;"">9</p>",,fwdspan,number,HlE03kQqnwRGzXiSc5uk35J97uc2,html-keyboard-response,98,818979,0.0-7.0-2.7-0.7-1.48-0.48,,,,,,,65313a592d60e2cc4ce90841,3:50:52 PM,1/15/2024
,"<p style=""font-size:14rem;font-weight:400;"">6</p>",,fwdspan,number,HlE03kQqnwRGzXiSc5uk35J97uc2,html-keyboard-response,99,820000,0.0-7.0-2.7-0.7-1.49-0.49,,,,,,,65313a592d60e2cc4ce90841,3:50:52 PM,1/15/2024
,"<p style=""font-size:14rem;font-weight:400;"">5</p>",,fwdspan,number,HlE03kQqnwRGzXiSc5uk35J97uc2,html-keyboard-response,100,821016,0.0-7.0-2.7-0.7-1.50-0.50,,,,,,,65313a592d60e2cc4ce90841,3:50:52 PM,1/15/2024
,[],,fwdspan,delay,HlE03kQqnwRGzXiSc5uk35J97uc2,html-keyboard-response,101,821590,0.0-7.0-2.7-0.7-2.7,,,,,,,65313a592d60e2cc4ce90841,3:50:52 PM,1/15/2024
15116.90000000596,"<div class = numbox><p style=""font-size:2.5rem"">What were the numbers <b>in order</b>?<br>(When you are ready to lock in your answer, press <b>ENTER</b>)</p><button id = button_1 class = ""square num-button"" onclick = ""recordClick(this)""><div class = content><div class = numbers>1</div></div></button><button id = button_2 class = ""square num-button"" onclick = ""recordClick(this)""><div class = content><div class = numbers>2</div></div></button><button id = button_3 class = ""square num-button"" onclick = ""recordClick(this)""><div class = content><div class = numbers>3</div></div></button><button id = button_4 class = ""square num-button"" onclick = ""recordClick(this)""><div class = content><div class = numbers>4</div></div></button><button id = button_5 class = ""square num-button"" onclick = ""recordClick(this)""><div class = content><div class = numbers>5</div></div></button><button id = button_6 class = ""square num-button"" onclick = ""recordClick(this)""><div class = content><div class = numbers>6</div></div></button><button id = button_7 class = ""square num-button"" onclick = ""recordClick(this)""><div class = content><div class = numbers>7</div></div></button><button id = button_8 class = ""square num-button"" onclick = ""recordClick(this)""><div class = content><div class = numbers>8</div></div></button><button id = button_9 class = ""square num-button"" onclick = ""recordClick(this)""><div class = content><div class = numbers>9</div></div></button><button class = clear_button id = ""ClearButton"" onclick = ""clearResponse()"">Clear</button><p><u><b>Current Answer:</b></u></p><div id=echoed_txt style=""font-size: 6rem; color:blue;""><b></b></div></div><br><br><br><br><br><br><br>",enter,fwdspan,response,HlE03kQqnwRGzXiSc5uk35J97uc2,html-keyboard-response,102,836711,0.0-7.0-2.7-0.7-3.7,9.0,"[4,2,8,3,7,9,1,6,5]","[4,2,8,3,7,1,9,6,5]",0.0,"[3, 4, 5, 6, 7, 8, 9, 9, 8, 9, 10, 10]",,65313a592d60e2cc4ce90841,3:50:52 PM,1/15/2024
,,,fwdspan,update_span,HlE03kQqnwRGzXiSc5uk35J97uc2,call-function,103,836968,0.0-7.0-2.7-0.7-4.7,,,,,,,65313a592d60e2cc4ce90841,3:50:52 PM,1/15/2024
3054.4000000059605,"<p style=""font-size:3rem"">Trial 9 of 12</p><br><br><br>",0,fwdspan,start_trial,HlE03kQqnwRGzXiSc5uk35J97uc2,html-button-response,104,840026,0.0-7.0-2.8-0.8-0.8,,,,,,,65313a592d60e2cc4ce90841,3:50:52 PM,1/15/2024
,"<p style=""font-size:14rem;font-weight:400;"">7</p>",,fwdspan,number,HlE03kQqnwRGzXiSc5uk35J97uc2,html-keyboard-response,105,841044,0.0-7.0-2.8-0.8-1.51-0.51,,,,,,,65313a592d60e2cc4ce90841,3:50:52 PM,1/15/2024
,"<p style=""font-size:14rem;font-weight:400;"">4</p>",,fwdspan,number,HlE03kQqnwRGzXiSc5uk35J97uc2,html-keyboard-response,106,842085,0.0-7.0-2.8-0.8-1.52-0.52,,,,,,,65313a592d60e2cc4ce90841,3:50:52 PM,1/15/2024
,"<p style=""font-size:14rem;font-weight:400;"">6</p>",,fwdspan,number,HlE03kQqnwRGzXiSc5uk35J97uc2,html-keyboard-response,107,843100,0.0-7.0-2.8-0.8-1.53-0.53,,,,,,,65313a592d60e2cc4ce90841,3:50:52 PM,1/15/2024
,"<p style=""font-size:14rem;font-weight:400;"">8</p>",,fwdspan,number,HlE03kQqnwRGzXiSc5uk35J97uc2,html-keyboard-response,108,844107,0.0-7.0-2.8-0.8-1.54-0.54,,,,,,,65313a592d60e2cc4ce90841,3:50:52 PM,1/15/2024
,"<p style=""font-size:14rem;font-weight:400;"">3</p>",,fwdspan,number,HlE03kQqnwRGzXiSc5uk35J97uc2,html-keyboard-response,109,845127,0.0-7.0-2.8-0.8-1.55-0.55,,,,,,,65313a592d60e2cc4ce90841,3:50:52 PM,1/15/2024
,"<p style=""font-size:14rem;font-weight:400;"">5</p>",,fwdspan,number,HlE03kQqnwRGzXiSc5uk35J97uc2,html-keyboard-response,110,846139,0.0-7.0-2.8-0.8-1.56-0.56,,,,,,,65313a592d60e2cc4ce90841,3:50:52 PM,1/15/2024
,"<p style=""font-size:14rem;font-weight:400;"">2</p>",,fwdspan,number,HlE03kQqnwRGzXiSc5uk35J97uc2,html-keyboard-response,111,847144,0.0-7.0-2.8-0.8-1.57-0.57,,,,,,,65313a592d60e2cc4ce90841,3:50:52 PM,1/15/2024
,"<p style=""font-size:14rem;font-weight:400;"">9</p>",,fwdspan,number,HlE03kQqnwRGzXiSc5uk35J97uc2,html-keyboard-response,112,848170,0.0-7.0-2.8-0.8-1.58-0.58,,,,,,,65313a592d60e2cc4ce90841,3:50:52 PM,1/15/2024
,[],,fwdspan,delay,HlE03kQqnwRGzXiSc5uk35J97uc2,html-keyboard-response,113,848736,0.0-7.0-2.8-0.8-2.8,,,,,,,65313a592d60e2cc4ce90841,3:50:52 PM,1/15/2024
14970.300000011921,"<div class = numbox><p style=""font-size:2.5rem"">What were the numbers <b>in order</b>?<br>(When you are ready to lock in your answer, press <b>ENTER</b>)</p><button id = button_1 class = ""square num-button"" onclick = ""recordClick(this)""><div class = content><div class = numbers>1</div></div></button><button id = button_2 class = ""square num-button"" onclick = ""recordClick(this)""><div class = content><div class = numbers>2</div></div></button><button id = button_3 class = ""square num-button"" onclick = ""recordClick(this)""><div class = content><div class = numbers>3</div></div></button><button id = button_4 class = ""square num-button"" onclick = ""recordClick(this)""><div class = content><div class = numbers>4</div></div></button><button id = button_5 class = ""square num-button"" onclick = ""recordClick(this)""><div class = content><div class = numbers>5</div></div></button><button id = button_6 class = ""square num-button"" onclick = ""recordClick(this)""><div class = content><div class = numbers>6</div></div></button><button id = button_7 class = ""square num-button"" onclick = ""recordClick(this)""><div class = content><div class = numbers>7</div></div></button><button id = button_8 class = ""square num-button"" onclick = ""recordClick(this)""><div class = content><div class = numbers>8</div></div></button><button id = button_9 class = ""square num-button"" onclick = ""recordClick(this)""><div class = content><div class = numbers>9</div></div></button><button class = clear_button id = ""ClearButton"" onclick = ""clearResponse()"">Clear</button><p><u><b>Current Answer:</b></u></p><div id=echoed_txt style=""font-size: 6rem; color:blue;""><b></b></div></div><br><br><br><br><br><br><br>",enter,fwdspan,response,HlE03kQqnwRGzXiSc5uk35J97uc2,html-keyboard-response,114,863711,0.0-7.0-2.8-0.8-3.8,8.0,"[7,4,6,8,3,5,2,9]","[7,4,6,8,3,5,2,9]",1.0,"[3, 4, 5, 6, 7, 8, 9, 9, 8, 9, 10, 10]",,65313a592d60e2cc4ce90841,3:50:52 PM,1/15/2024
,,,fwdspan,update_span,HlE03kQqnwRGzXiSc5uk35J97uc2,call-function,115,863971,0.0-7.0-2.8-0.8-4.8,,,,,,,65313a592d60e2cc4ce90841,3:50:52 PM,1/15/2024
3092.300000011921,"<p style=""font-size:3rem"">Trial 10 of 12</p><br><br><br>",0,fwdspan,start_trial,HlE03kQqnwRGzXiSc5uk35J97uc2,html-button-response,116,867066,0.0-7.0-2.9-0.9-0.9,,,,,,,65313a592d60e2cc4ce90841,3:50:52 PM,1/15/2024
,"<p style=""font-size:14rem;font-weight:400;"">1</p>",,fwdspan,number,HlE03kQqnwRGzXiSc5uk35J97uc2,html-keyboard-response,117,868081,0.0-7.0-2.9-0.9-1.59-0.59,,,,,,,65313a592d60e2cc4ce90841,3:50:52 PM,1/15/2024
,"<p style=""font-size:14rem;font-weight:400;"">5</p>",,fwdspan,number,HlE03kQqnwRGzXiSc5uk35J97uc2,html-keyboard-response,118,869108,0.0-7.0-2.9-0.9-1.60-0.60,,,,,,,65313a592d60e2cc4ce90841,3:50:52 PM,1/15/2024
,"<p style=""font-size:14rem;font-weight:400;"">9</p>",,fwdspan,number,HlE03kQqnwRGzXiSc5uk35J97uc2,html-keyboard-response,119,870123,0.0-7.0-2.9-0.9-1.61-0.61,,,,,,,65313a592d60e2cc4ce90841,3:50:52 PM,1/15/2024
,"<p style=""font-size:14rem;font-weight:400;"">2</p>",,fwdspan,number,HlE03kQqnwRGzXiSc5uk35J97uc2,html-keyboard-response,120,871145,0.0-7.0-2.9-0.9-1.62-0.62,,,,,,,65313a592d60e2cc4ce90841,3:50:52 PM,1/15/2024
,"<p style=""font-size:14rem;font-weight:400;"">8</p>",,fwdspan,number,HlE03kQqnwRGzXiSc5uk35J97uc2,html-keyboard-response,121,872153,0.0-7.0-2.9-0.9-1.63-0.63,,,,,,,65313a592d60e2cc4ce90841,3:50:52 PM,1/15/2024
,"<p style=""font-size:14rem;font-weight:400;"">6</p>",,fwdspan,number,HlE03kQqnwRGzXiSc5uk35J97uc2,html-keyboard-response,122,873178,0.0-7.0-2.9-0.9-1.64-0.64,,,,,,,65313a592d60e2cc4ce90841,3:50:52 PM,1/15/2024
,"<p style=""font-size:14rem;font-weight:400;"">4</p>",,fwdspan,number,HlE03kQqnwRGzXiSc5uk35J97uc2,html-keyboard-response,123,874203,0.0-7.0-2.9-0.9-1.65-0.65,,,,,,,65313a592d60e2cc4ce90841,3:50:52 PM,1/15/2024
,"<p style=""font-size:14rem;font-weight:400;"">7</p>",,fwdspan,number,HlE03kQqnwRGzXiSc5uk35J97uc2,html-keyboard-response,124,875220,0.0-7.0-2.9-0.9-1.66-0.66,,,,,,,65313a592d60e2cc4ce90841,3:50:52 PM,1/15/2024
,"<p style=""font-size:14rem;font-weight:400;"">3</p>",,fwdspan,number,HlE03kQqnwRGzXiSc5uk35J97uc2,html-keyboard-response,125,876241,0.0-7.0-2.9-0.9-1.67-0.67,,,,,,,65313a592d60e2cc4ce90841,3:50:52 PM,1/15/2024
,[],,fwdspan,delay,HlE03kQqnwRGzXiSc5uk35J97uc2,html-keyboard-response,126,876824,0.0-7.0-2.9-0.9-2.9,,,,,,,65313a592d60e2cc4ce90841,3:50:52 PM,1/15/2024
13933.799999982119,"<div class = numbox><p style=""font-size:2.5rem"">What were the numbers <b>in order</b>?<br>(When you are ready to lock in your answer, press <b>ENTER</b>)</p><button id = button_1 class = ""square num-button"" onclick = ""recordClick(this)""><div class = content><div class = numbers>1</div></div></button><button id = button_2 class = ""square num-button"" onclick = ""recordClick(this)""><div class = content><div class = numbers>2</div></div></button><button id = button_3 class = ""square num-button"" onclick = ""recordClick(this)""><div class = content><div class = numbers>3</div></div></button><button id = button_4 class = ""square num-button"" onclick = ""recordClick(this)""><div class = content><div class = numbers>4</div></div></button><button id = button_5 class = ""square num-button"" onclick = ""recordClick(this)""><div class = content><div class = numbers>5</div></div></button><button id = button_6 class = ""square num-button"" onclick = ""recordClick(this)""><div class = content><div class = numbers>6</div></div></button><button id = button_7 class = ""square num-button"" onclick = ""recordClick(this)""><div class = content><div class = numbers>7</div></div></button><button id = button_8 class = ""square num-button"" onclick = ""recordClick(this)""><div class = content><div class = numbers>8</div></div></button><button id = button_9 class = ""square num-button"" onclick = ""recordClick(this)""><div class = content><div class = numbers>9</div></div></button><button class = clear_button id = ""ClearButton"" onclick = ""clearResponse()"">Clear</button><p><u><b>Current Answer:</b></u></p><div id=echoed_txt style=""font-size: 6rem; color:blue;""><b></b></div></div><br><br><br><br><br><br><br>",enter,fwdspan,response,HlE03kQqnwRGzXiSc5uk35J97uc2,html-keyboard-response,127,890762,0.0-7.0-2.9-0.9-3.9,9.0,"[1,5,9,2,8,6,4,7,3]","[1,5,9,2,8,6,4,7,3]",1.0,"[3, 4, 5, 6, 7, 8, 9, 9, 8, 9, 10, 10]",,65313a592d60e2cc4ce90841,3:50:52 PM,1/15/2024
,,,fwdspan,update_span,HlE03kQqnwRGzXiSc5uk35J97uc2,call-function,128,891034,0.0-7.0-2.9-0.9-4.9,,,,,,,65313a592d60e2cc4ce90841,3:50:52 PM,1/15/2024
4684.800000011921,"<p style=""font-size:3rem"">Trial 11 of 12</p><br><br><br>",0,fwdspan,start_trial,HlE03kQqnwRGzXiSc5uk35J97uc2,html-button-response,129,895722,0.0-7.0-2.10-0.10-0.10,,,,,,,65313a592d60e2cc4ce90841,3:50:52 PM,1/15/2024
,"<p style=""font-size:14rem;font-weight:400;"">2</p>",,fwdspan,number,HlE03kQqnwRGzXiSc5uk35J97uc2,html-keyboard-response,130,896733,0.0-7.0-2.10-0.10-1.68-0.68,,,,,,,65313a592d60e2cc4ce90841,3:50:52 PM,1/15/2024
,"<p style=""font-size:14rem;font-weight:400;"">9</p>",,fwdspan,number,HlE03kQqnwRGzXiSc5uk35J97uc2,html-keyboard-response,131,897753,0.0-7.0-2.10-0.10-1.69-0.69,,,,,,,65313a592d60e2cc4ce90841,3:50:52 PM,1/15/2024
,"<p style=""font-size:14rem;font-weight:400;"">3</p>",,fwdspan,number,HlE03kQqnwRGzXiSc5uk35J97uc2,html-keyboard-response,132,898776,0.0-7.0-2.10-0.10-1.70-0.70,,,,,,,65313a592d60e2cc4ce90841,3:50:52 PM,1/15/2024
,"<p style=""font-size:14rem;font-weight:400;"">6</p>",,fwdspan,number,HlE03kQqnwRGzXiSc5uk35J97uc2,html-keyboard-response,133,899784,0.0-7.0-2.10-0.10-1.71-0.71,,,,,,,65313a592d60e2cc4ce90841,3:50:52 PM,1/15/2024
,"<p style=""font-size:14rem;font-weight:400;"">8</p>",,fwdspan,number,HlE03kQqnwRGzXiSc5uk35J97uc2,html-keyboard-response,134,900804,0.0-7.0-2.10-0.10-1.72-0.72,,,,,,,65313a592d60e2cc4ce90841,3:50:52 PM,1/15/2024
,"<p style=""font-size:14rem;font-weight:400;"">7</p>",,fwdspan,number,HlE03kQqnwRGzXiSc5uk35J97uc2,html-keyboard-response,135,901821,0.0-7.0-2.10-0.10-1.73-0.73,,,,,,,65313a592d60e2cc4ce90841,3:50:52 PM,1/15/2024
,"<p style=""font-size:14rem;font-weight:400;"">4</p>",,fwdspan,number,HlE03kQqnwRGzXiSc5uk35J97uc2,html-keyboard-response,136,902827,0.0-7.0-2.10-0.10-1.74-0.74,,,,,,,65313a592d60e2cc4ce90841,3:50:52 PM,1/15/2024
,"<p style=""font-size:14rem;font-weight:400;"">5</p>",,fwdspan,number,HlE03kQqnwRGzXiSc5uk35J97uc2,html-keyboard-response,137,903849,0.0-7.0-2.10-0.10-1.75-0.75,,,,,,,65313a592d60e2cc4ce90841,3:50:52 PM,1/15/2024
,"<p style=""font-size:14rem;font-weight:400;"">1</p>",,fwdspan,number,HlE03kQqnwRGzXiSc5uk35J97uc2,html-keyboard-response,138,904868,0.0-7.0-2.10-0.10-1.76-0.76,,,,,,,65313a592d60e2cc4ce90841,3:50:52 PM,1/15/2024
,"<p style=""font-size:14rem;font-weight:400;"">5</p>",,fwdspan,number,HlE03kQqnwRGzXiSc5uk35J97uc2,html-keyboard-response,139,905896,0.0-7.0-2.10-0.10-1.77-0.77,,,,,,,65313a592d60e2cc4ce90841,3:50:52 PM,1/15/2024
,[],,fwdspan,delay,HlE03kQqnwRGzXiSc5uk35J97uc2,html-keyboard-response,140,906462,0.0-7.0-2.10-0.10-2.10,,,,,,,65313a592d60e2cc4ce90841,3:50:52 PM,1/15/2024
15559.700000017881,"<div class = numbox><p style=""font-size:2.5rem"">What were the numbers <b>in order</b>?<br>(When you are ready to lock in your answer, press <b>ENTER</b>)</p><button id = button_1 class = ""square num-button"" onclick = ""recordClick(this)""><div class = content><div class = numbers>1</div></div></button><button id = button_2 class = ""square num-button"" onclick = ""recordClick(this)""><div class = content><div class = numbers>2</div></div></button><button id = button_3 class = ""square num-button"" onclick = ""recordClick(this)""><div class = content><div class = numbers>3</div></div></button><button id = button_4 class = ""square num-button"" onclick = ""recordClick(this)""><div class = content><div class = numbers>4</div></div></button><button id = button_5 class = ""square num-button"" onclick = ""recordClick(this)""><div class = content><div class = numbers>5</div></div></button><button id = button_6 class = ""square num-button"" onclick = ""recordClick(this)""><div class = content><div class = numbers>6</div></div></button><button id = button_7 class = ""square num-button"" onclick = ""recordClick(this)""><div class = content><div class = numbers>7</div></div></button><button id = button_8 class = ""square num-button"" onclick = ""recordClick(this)""><div class = content><div class = numbers>8</div></div></button><button id = button_9 class = ""square num-button"" onclick = ""recordClick(this)""><div class = content><div class = numbers>9</div></div></button><button class = clear_button id = ""ClearButton"" onclick = ""clearResponse()"">Clear</button><p><u><b>Current Answer:</b></u></p><div id=echoed_txt style=""font-size: 6rem; color:blue;""><b></b></div></div><br><br><br><br><br><br><br>",enter,fwdspan,response,HlE03kQqnwRGzXiSc5uk35J97uc2,html-keyboard-response,141,922029,0.0-7.0-2.10-0.10-3.10,10.0,"[2,9,6,8,7,4,5,1,5]","[2,9,3,6,8,7,4,5,1,5]",0.0,"[3, 4, 5, 6, 7, 8, 9, 9, 8, 9, 10, 10]",,65313a592d60e2cc4ce90841,3:50:52 PM,1/15/2024
,,,fwdspan,update_span,HlE03kQqnwRGzXiSc5uk35J97uc2,call-function,142,922297,0.0-7.0-2.10-0.10-4.10,,,,,,,65313a592d60e2cc4ce90841,3:50:52 PM,1/15/2024
4158.700000017881,"<p style=""font-size:3rem"">Trial 12 of 12</p><br><br><br>",0,fwdspan,start_trial,HlE03kQqnwRGzXiSc5uk35J97uc2,html-button-response,143,926458,0.0-7.0-2.11-0.11-0.11,,,,,,,65313a592d60e2cc4ce90841,3:50:52 PM,1/15/2024
,"<p style=""font-size:14rem;font-weight:400;"">7</p>",,fwdspan,number,HlE03kQqnwRGzXiSc5uk35J97uc2,html-keyboard-response,144,927479,0.0-7.0-2.11-0.11-1.78-0.78,,,,,,,65313a592d60e2cc4ce90841,3:50:52 PM,1/15/2024
,"<p style=""font-size:14rem;font-weight:400;"">6</p>",,fwdspan,number,HlE03kQqnwRGzXiSc5uk35J97uc2,html-keyboard-response,145,928497,0.0-7.0-2.11-0.11-1.79-0.79,,,,,,,65313a592d60e2cc4ce90841,3:50:52 PM,1/15/2024
,"<p style=""font-size:14rem;font-weight:400;"">5</p>",,fwdspan,number,HlE03kQqnwRGzXiSc5uk35J97uc2,html-keyboard-response,146,929514,0.0-7.0-2.11-0.11-1.80-0.80,,,,,,,65313a592d60e2cc4ce90841,3:50:52 PM,1/15/2024
,"<p style=""font-size:14rem;font-weight:400;"">9</p>",,fwdspan,number,HlE03kQqnwRGzXiSc5uk35J97uc2,html-keyboard-response,147,930540,0.0-7.0-2.11-0.11-1.81-0.81,,,,,,,65313a592d60e2cc4ce90841,3:50:52 PM,1/15/2024
,"<p style=""font-size:14rem;font-weight:400;"">2</p>",,fwdspan,number,HlE03kQqnwRGzXiSc5uk35J97uc2,html-keyboard-response,148,931565,0.0-7.0-2.11-0.11-1.82-0.82,,,,,,,65313a592d60e2cc4ce90841,3:50:52 PM,1/15/2024
,"<p style=""font-size:14rem;font-weight:400;"">8</p>",,fwdspan,number,HlE03kQqnwRGzXiSc5uk35J97uc2,html-keyboard-response,149,932575,0.0-7.0-2.11-0.11-1.83-0.83,,,,,,,65313a592d60e2cc4ce90841,3:50:52 PM,1/15/2024
,"<p style=""font-size:14rem;font-weight:400;"">4</p>",,fwdspan,number,HlE03kQqnwRGzXiSc5uk35J97uc2,html-keyboard-response,150,933596,0.0-7.0-2.11-0.11-1.84-0.84,,,,,,,65313a592d60e2cc4ce90841,3:50:52 PM,1/15/2024
,"<p style=""font-size:14rem;font-weight:400;"">1</p>",,fwdspan,number,HlE03kQqnwRGzXiSc5uk35J97uc2,html-keyboard-response,151,934617,0.0-7.0-2.11-0.11-1.85-0.85,,,,,,,65313a592d60e2cc4ce90841,3:50:52 PM,1/15/2024
,"<p style=""font-size:14rem;font-weight:400;"">3</p>",,fwdspan,number,HlE03kQqnwRGzXiSc5uk35J97uc2,html-keyboard-response,152,935629,0.0-7.0-2.11-0.11-1.86-0.86,,,,,,,65313a592d60e2cc4ce90841,3:50:52 PM,1/15/2024
,"<p style=""font-size:14rem;font-weight:400;"">1</p>",,fwdspan,number,HlE03kQqnwRGzXiSc5uk35J97uc2,html-keyboard-response,153,936646,0.0-7.0-2.11-0.11-1.87-0.87,,,,,,,65313a592d60e2cc4ce90841,3:50:52 PM,1/15/2024
,[],,fwdspan,delay,HlE03kQqnwRGzXiSc5uk35J97uc2,html-keyboard-response,154,937201,0.0-7.0-2.11-0.11-2.11,,,,,,,65313a592d60e2cc4ce90841,3:50:52 PM,1/15/2024
16952.79999998212,"<div class = numbox><p style=""font-size:2.5rem"">What were the numbers <b>in order</b>?<br>(When you are ready to lock in your answer, press <b>ENTER</b>)</p><button id = button_1 class = ""square num-button"" onclick = ""recordClick(this)""><div class = content><div class = numbers>1</div></div></button><button id = button_2 class = ""square num-button"" onclick = ""recordClick(this)""><div class = content><div class = numbers>2</div></div></button><button id = button_3 class = ""square num-button"" onclick = ""recordClick(this)""><div class = content><div class = numbers>3</div></div></button><button id = button_4 class = ""square num-button"" onclick = ""recordClick(this)""><div class = content><div class = numbers>4</div></div></button><button id = button_5 class = ""square num-button"" onclick = ""recordClick(this)""><div class = content><div class = numbers>5</div></div></button><button id = button_6 class = ""square num-button"" onclick = ""recordClick(this)""><div class = content><div class = numbers>6</div></div></button><button id = button_7 class = ""square num-button"" onclick = ""recordClick(this)""><div class = content><div class = numbers>7</div></div></button><button id = button_8 class = ""square num-button"" onclick = ""recordClick(this)""><div class = content><div class = numbers>8</div></div></button><button id = button_9 class = ""square num-button"" onclick = ""recordClick(this)""><div class = content><div class = numbers>9</div></div></button><button class = clear_button id = ""ClearButton"" onclick = ""clearResponse()"">Clear</button><p><u><b>Current Answer:</b></u></p><div id=echoed_txt style=""font-size: 6rem; color:blue;""><b></b></div></div><br><br><br><br><br><br><br>",enter,fwdspan,response,HlE03kQqnwRGzXiSc5uk35J97uc2,html-keyboard-response,155,954156,0.0-7.0-2.11-0.11-3.11,10.0,"[7,6,5,9,2,8,4,1,3,1]","[7,6,5,9,2,8,4,1,3,1]",1.0,"[3, 4, 5, 6, 7, 8, 9, 9, 8, 9, 10, 10]",,65313a592d60e2cc4ce90841,3:50:52 PM,1/15/2024
,,,fwdspan,update_span,HlE03kQqnwRGzXiSc5uk35J97uc2,call-function,156,954416,0.0-7.0-2.11-0.11-4.11,,,,,,,65313a592d60e2cc4ce90841,3:50:52 PM,1/15/2024
31190.30000001192,,{'Q0': 'The task was all the way fun to me.'},fwdspan,survey,HlE03kQqnwRGzXiSc5uk35J97uc2,lmdlab-survey-text,157,986363,0.0-7.0-3.0,,,,,,HlE03kQqnwRGzXiSc5uk35J97uc2,65313a592d60e2cc4ce90841,3:50:52 PM,1/15/2024
4127.4000000059605,<p><p style='font-size: 3rem'>Great work!<br><br>This completes the digit span task.</p><br><br><br>,0,fwdspan,finish,HlE03kQqnwRGzXiSc5uk35J97uc2,html-button-response,158,990505,0.0-7.0-4.0,,,,,,,65313a592d60e2cc4ce90841,3:50:52 PM,1/15/2024
