rt,stimulus,response,exp_name,exp_stage,subjectID,trial_type,trial_index,time_elapsed,internal_node_id,span,answer,correct,correct_full,span_history,databaseID,prolificID,start_time,date
6767.099999964237,"<p style=""font-size:4rem""><br><br>In the next part today, we have a completely different short task.<br><br><br>This part involves keeping numbers in you mind. Participation takes around 5 minutes.<br><br><br></p>",0,fwdspan,instruct,r8EMRPGsjTZvmZTCCHYfqKpjk802,html-button-response,19,1313067,0.0-7.0-0.0,,,,,,,60fc1f84103c6aa86a429ada,11:47:30 AM,1/15/2024
27100.19999998808,"<p style=""font-size:5rem"">Welcome to the <b>digit span task</b>!<br><br></p><p style=""font-size:3.4rem""><br>On each trial, you will see a sequence of digits, followed by a delay.</p><p style=""font-size:3.4rem""><br>Then you will be asked to type them back in the same order in which they were seen.</p><p style=""font-size:3.4rem""><br><br><br>For example, if you saw the digits <b style=""color:blue;"">1</b>, <b style=""color:blue;"">2</b>, <b style=""color:blue;"">3</b>, you would respond with <b style=""color:blue;"">1</b>, <b style=""color:blue;"">2</b>, <b style=""color:blue;"">3</b></p><p style=""font-size:3.4rem""><br><br><br>To ensure the best measure of true performance for our study,<br><br>it is very important that you do not use any memory aid (e.g., pen and paper).<br><br>Please do the task solely in your head.</p><p style=""font-size:3.4rem""><br><br><br>There will be 12 total trials. Participation takes around 5 minutes.</p><br><br><br>",0,fwdspan,instruct,r8EMRPGsjTZvmZTCCHYfqKpjk802,html-button-response,20,1340169,0.0-7.0-1.0,,,,,,,60fc1f84103c6aa86a429ada,11:47:30 AM,1/15/2024
1466.800000011921,"<p style=""font-size:3rem"">Trial 1 of 12</p><br><br><br>",0,fwdspan,start_trial,r8EMRPGsjTZvmZTCCHYfqKpjk802,html-button-response,21,1341642,0.0-7.0-2.0-0.0-0.0,,,,,,,60fc1f84103c6aa86a429ada,11:47:30 AM,1/15/2024
,"<p style=""font-size:14rem;font-weight:400;"">5</p>",,fwdspan,number,r8EMRPGsjTZvmZTCCHYfqKpjk802,html-keyboard-response,22,1342663,0.0-7.0-2.0-0.0-1.0-0.0,,,,,,,60fc1f84103c6aa86a429ada,11:47:30 AM,1/15/2024
,"<p style=""font-size:14rem;font-weight:400;"">6</p>",,fwdspan,number,r8EMRPGsjTZvmZTCCHYfqKpjk802,html-keyboard-response,23,1343685,0.0-7.0-2.0-0.0-1.1-0.1,,,,,,,60fc1f84103c6aa86a429ada,11:47:30 AM,1/15/2024
,"<p style=""font-size:14rem;font-weight:400;"">8</p>",,fwdspan,number,r8EMRPGsjTZvmZTCCHYfqKpjk802,html-keyboard-response,24,1344716,0.0-7.0-2.0-0.0-1.2-0.2,,,,,,,60fc1f84103c6aa86a429ada,11:47:30 AM,1/15/2024
,[],,fwdspan,delay,r8EMRPGsjTZvmZTCCHYfqKpjk802,html-keyboard-response,25,1345281,0.0-7.0-2.0-0.0-2.0,,,,,,,60fc1f84103c6aa86a429ada,11:47:30 AM,1/15/2024
10379.100000023842,"<div class = numbox><p style=""font-size:2.5rem"">What were the numbers <b>in order</b>?<br>(When you are ready to lock in your answer, press <b>ENTER</b>)</p><button id = button_1 class = ""square num-button"" onclick = ""recordClick(this)""><div class = content><div class = numbers>1</div></div></button><button id = button_2 class = ""square num-button"" onclick = ""recordClick(this)""><div class = content><div class = numbers>2</div></div></button><button id = button_3 class = ""square num-button"" onclick = ""recordClick(this)""><div class = content><div class = numbers>3</div></div></button><button id = button_4 class = ""square num-button"" onclick = ""recordClick(this)""><div class = content><div class = numbers>4</div></div></button><button id = button_5 class = ""square num-button"" onclick = ""recordClick(this)""><div class = content><div class = numbers>5</div></div></button><button id = button_6 class = ""square num-button"" onclick = ""recordClick(this)""><div class = content><div class = numbers>6</div></div></button><button id = button_7 class = ""square num-button"" onclick = ""recordClick(this)""><div class = content><div class = numbers>7</div></div></button><button id = button_8 class = ""square num-button"" onclick = ""recordClick(this)""><div class = content><div class = numbers>8</div></div></button><button id = button_9 class = ""square num-button"" onclick = ""recordClick(this)""><div class = content><div class = numbers>9</div></div></button><button class = clear_button id = ""ClearButton"" onclick = ""clearResponse()"">Clear</button><p><u><b>Current Answer:</b></u></p><div id=echoed_txt style=""font-size: 6rem; color:blue;""><b></b></div></div><br><br><br><br><br><br><br>",enter,fwdspan,response,r8EMRPGsjTZvmZTCCHYfqKpjk802,html-keyboard-response,26,1355662,0.0-7.0-2.0-0.0-3.0,3.0,"[5,6,8]","[5,6,8]",1.0,"[3, 4, 5, 6, 6, 5, 6, 6, 5, 6, 6, 5]",,60fc1f84103c6aa86a429ada,11:47:30 AM,1/15/2024
,,,fwdspan,update_span,r8EMRPGsjTZvmZTCCHYfqKpjk802,call-function,27,1355932,0.0-7.0-2.0-0.0-4.0,,,,,,,60fc1f84103c6aa86a429ada,11:47:30 AM,1/15/2024
1736.300000011921,"<p style=""font-size:3rem"">Trial 2 of 12</p><br><br><br>",0,fwdspan,start_trial,r8EMRPGsjTZvmZTCCHYfqKpjk802,html-button-response,28,1357669,0.0-7.0-2.1-0.1-0.1,,,,,,,60fc1f84103c6aa86a429ada,11:47:30 AM,1/15/2024
,"<p style=""font-size:14rem;font-weight:400;"">3</p>",,fwdspan,number,r8EMRPGsjTZvmZTCCHYfqKpjk802,html-keyboard-response,29,1358687,0.0-7.0-2.1-0.1-1.3-0.3,,,,,,,60fc1f84103c6aa86a429ada,11:47:30 AM,1/15/2024
,"<p style=""font-size:14rem;font-weight:400;"">8</p>",,fwdspan,number,r8EMRPGsjTZvmZTCCHYfqKpjk802,html-keyboard-response,30,1359695,0.0-7.0-2.1-0.1-1.4-0.4,,,,,,,60fc1f84103c6aa86a429ada,11:47:30 AM,1/15/2024
,"<p style=""font-size:14rem;font-weight:400;"">4</p>",,fwdspan,number,r8EMRPGsjTZvmZTCCHYfqKpjk802,html-keyboard-response,31,1360710,0.0-7.0-2.1-0.1-1.5-0.5,,,,,,,60fc1f84103c6aa86a429ada,11:47:30 AM,1/15/2024
,"<p style=""font-size:14rem;font-weight:400;"">5</p>",,fwdspan,number,r8EMRPGsjTZvmZTCCHYfqKpjk802,html-keyboard-response,32,1361716,0.0-7.0-2.1-0.1-1.6-0.6,,,,,,,60fc1f84103c6aa86a429ada,11:47:30 AM,1/15/2024
,[],,fwdspan,delay,r8EMRPGsjTZvmZTCCHYfqKpjk802,html-keyboard-response,33,1362289,0.0-7.0-2.1-0.1-2.1,,,,,,,60fc1f84103c6aa86a429ada,11:47:30 AM,1/15/2024
5371.199999988079,"<div class = numbox><p style=""font-size:2.5rem"">What were the numbers <b>in order</b>?<br>(When you are ready to lock in your answer, press <b>ENTER</b>)</p><button id = button_1 class = ""square num-button"" onclick = ""recordClick(this)""><div class = content><div class = numbers>1</div></div></button><button id = button_2 class = ""square num-button"" onclick = ""recordClick(this)""><div class = content><div class = numbers>2</div></div></button><button id = button_3 class = ""square num-button"" onclick = ""recordClick(this)""><div class = content><div class = numbers>3</div></div></button><button id = button_4 class = ""square num-button"" onclick = ""recordClick(this)""><div class = content><div class = numbers>4</div></div></button><button id = button_5 class = ""square num-button"" onclick = ""recordClick(this)""><div class = content><div class = numbers>5</div></div></button><button id = button_6 class = ""square num-button"" onclick = ""recordClick(this)""><div class = content><div class = numbers>6</div></div></button><button id = button_7 class = ""square num-button"" onclick = ""recordClick(this)""><div class = content><div class = numbers>7</div></div></button><button id = button_8 class = ""square num-button"" onclick = ""recordClick(this)""><div class = content><div class = numbers>8</div></div></button><button id = button_9 class = ""square num-button"" onclick = ""recordClick(this)""><div class = content><div class = numbers>9</div></div></button><button class = clear_button id = ""ClearButton"" onclick = ""clearResponse()"">Clear</button><p><u><b>Current Answer:</b></u></p><div id=echoed_txt style=""font-size: 6rem; color:blue;""><b></b></div></div><br><br><br><br><br><br><br>",enter,fwdspan,response,r8EMRPGsjTZvmZTCCHYfqKpjk802,html-keyboard-response,34,1367661,0.0-7.0-2.1-0.1-3.1,4.0,"[3,8,4,5]","[3,8,4,5]",1.0,"[3, 4, 5, 6, 6, 5, 6, 6, 5, 6, 6, 5]",,60fc1f84103c6aa86a429ada,11:47:30 AM,1/15/2024
,,,fwdspan,update_span,r8EMRPGsjTZvmZTCCHYfqKpjk802,call-function,35,1367930,0.0-7.0-2.1-0.1-4.1,,,,,,,60fc1f84103c6aa86a429ada,11:47:30 AM,1/15/2024
1346.3999999761581,"<p style=""font-size:3rem"">Trial 3 of 12</p><br><br><br>",0,fwdspan,start_trial,r8EMRPGsjTZvmZTCCHYfqKpjk802,html-button-response,36,1369277,0.0-7.0-2.2-0.2-0.2,,,,,,,60fc1f84103c6aa86a429ada,11:47:30 AM,1/15/2024
,"<p style=""font-size:14rem;font-weight:400;"">4</p>",,fwdspan,number,r8EMRPGsjTZvmZTCCHYfqKpjk802,html-keyboard-response,37,1370287,0.0-7.0-2.2-0.2-1.7-0.7,,,,,,,60fc1f84103c6aa86a429ada,11:47:30 AM,1/15/2024
,"<p style=""font-size:14rem;font-weight:400;"">1</p>",,fwdspan,number,r8EMRPGsjTZvmZTCCHYfqKpjk802,html-keyboard-response,38,1371297,0.0-7.0-2.2-0.2-1.8-0.8,,,,,,,60fc1f84103c6aa86a429ada,11:47:30 AM,1/15/2024
,"<p style=""font-size:14rem;font-weight:400;"">7</p>",,fwdspan,number,r8EMRPGsjTZvmZTCCHYfqKpjk802,html-keyboard-response,39,1372326,0.0-7.0-2.2-0.2-1.9-0.9,,,,,,,60fc1f84103c6aa86a429ada,11:47:30 AM,1/15/2024
,"<p style=""font-size:14rem;font-weight:400;"">2</p>",,fwdspan,number,r8EMRPGsjTZvmZTCCHYfqKpjk802,html-keyboard-response,40,1373337,0.0-7.0-2.2-0.2-1.10-0.10,,,,,,,60fc1f84103c6aa86a429ada,11:47:30 AM,1/15/2024
,"<p style=""font-size:14rem;font-weight:400;"">6</p>",,fwdspan,number,r8EMRPGsjTZvmZTCCHYfqKpjk802,html-keyboard-response,41,1374357,0.0-7.0-2.2-0.2-1.11-0.11,,,,,,,60fc1f84103c6aa86a429ada,11:47:30 AM,1/15/2024
,[],,fwdspan,delay,r8EMRPGsjTZvmZTCCHYfqKpjk802,html-keyboard-response,42,1374935,0.0-7.0-2.2-0.2-2.2,,,,,,,60fc1f84103c6aa86a429ada,11:47:30 AM,1/15/2024
7822.099999964237,"<div class = numbox><p style=""font-size:2.5rem"">What were the numbers <b>in order</b>?<br>(When you are ready to lock in your answer, press <b>ENTER</b>)</p><button id = button_1 class = ""square num-button"" onclick = ""recordClick(this)""><div class = content><div class = numbers>1</div></div></button><button id = button_2 class = ""square num-button"" onclick = ""recordClick(this)""><div class = content><div class = numbers>2</div></div></button><button id = button_3 class = ""square num-button"" onclick = ""recordClick(this)""><div class = content><div class = numbers>3</div></div></button><button id = button_4 class = ""square num-button"" onclick = ""recordClick(this)""><div class = content><div class = numbers>4</div></div></button><button id = button_5 class = ""square num-button"" onclick = ""recordClick(this)""><div class = content><div class = numbers>5</div></div></button><button id = button_6 class = ""square num-button"" onclick = ""recordClick(this)""><div class = content><div class = numbers>6</div></div></button><button id = button_7 class = ""square num-button"" onclick = ""recordClick(this)""><div class = content><div class = numbers>7</div></div></button><button id = button_8 class = ""square num-button"" onclick = ""recordClick(this)""><div class = content><div class = numbers>8</div></div></button><button id = button_9 class = ""square num-button"" onclick = ""recordClick(this)""><div class = content><div class = numbers>9</div></div></button><button class = clear_button id = ""ClearButton"" onclick = ""clearResponse()"">Clear</button><p><u><b>Current Answer:</b></u></p><div id=echoed_txt style=""font-size: 6rem; color:blue;""><b></b></div></div><br><br><br><br><br><br><br>",enter,fwdspan,response,r8EMRPGsjTZvmZTCCHYfqKpjk802,html-keyboard-response,43,1382759,0.0-7.0-2.2-0.2-3.2,5.0,"[4,1,7,2,6]","[4,1,7,2,6]",1.0,"[3, 4, 5, 6, 6, 5, 6, 6, 5, 6, 6, 5]",,60fc1f84103c6aa86a429ada,11:47:30 AM,1/15/2024
,,,fwdspan,update_span,r8EMRPGsjTZvmZTCCHYfqKpjk802,call-function,44,1383019,0.0-7.0-2.2-0.2-4.2,,,,,,,60fc1f84103c6aa86a429ada,11:47:30 AM,1/15/2024
2298.600000023842,"<p style=""font-size:3rem"">Trial 4 of 12</p><br><br><br>",0,fwdspan,start_trial,r8EMRPGsjTZvmZTCCHYfqKpjk802,html-button-response,45,1385318,0.0-7.0-2.3-0.3-0.3,,,,,,,60fc1f84103c6aa86a429ada,11:47:30 AM,1/15/2024
,"<p style=""font-size:14rem;font-weight:400;"">9</p>",,fwdspan,number,r8EMRPGsjTZvmZTCCHYfqKpjk802,html-keyboard-response,46,1386333,0.0-7.0-2.3-0.3-1.12-0.12,,,,,,,60fc1f84103c6aa86a429ada,11:47:30 AM,1/15/2024
,"<p style=""font-size:14rem;font-weight:400;"">3</p>",,fwdspan,number,r8EMRPGsjTZvmZTCCHYfqKpjk802,html-keyboard-response,47,1387355,0.0-7.0-2.3-0.3-1.13-0.13,,,,,,,60fc1f84103c6aa86a429ada,11:47:30 AM,1/15/2024
,"<p style=""font-size:14rem;font-weight:400;"">2</p>",,fwdspan,number,r8EMRPGsjTZvmZTCCHYfqKpjk802,html-keyboard-response,48,1388379,0.0-7.0-2.3-0.3-1.14-0.14,,,,,,,60fc1f84103c6aa86a429ada,11:47:30 AM,1/15/2024
,"<p style=""font-size:14rem;font-weight:400;"">4</p>",,fwdspan,number,r8EMRPGsjTZvmZTCCHYfqKpjk802,html-keyboard-response,49,1389399,0.0-7.0-2.3-0.3-1.15-0.15,,,,,,,60fc1f84103c6aa86a429ada,11:47:30 AM,1/15/2024
,"<p style=""font-size:14rem;font-weight:400;"">8</p>",,fwdspan,number,r8EMRPGsjTZvmZTCCHYfqKpjk802,html-keyboard-response,50,1390412,0.0-7.0-2.3-0.3-1.16-0.16,,,,,,,60fc1f84103c6aa86a429ada,11:47:30 AM,1/15/2024
,"<p style=""font-size:14rem;font-weight:400;"">6</p>",,fwdspan,number,r8EMRPGsjTZvmZTCCHYfqKpjk802,html-keyboard-response,51,1391437,0.0-7.0-2.3-0.3-1.17-0.17,,,,,,,60fc1f84103c6aa86a429ada,11:47:30 AM,1/15/2024
,[],,fwdspan,delay,r8EMRPGsjTZvmZTCCHYfqKpjk802,html-keyboard-response,52,1391996,0.0-7.0-2.3-0.3-2.3,,,,,,,60fc1f84103c6aa86a429ada,11:47:30 AM,1/15/2024
9523.699999988079,"<div class = numbox><p style=""font-size:2.5rem"">What were the numbers <b>in order</b>?<br>(When you are ready to lock in your answer, press <b>ENTER</b>)</p><button id = button_1 class = ""square num-button"" onclick = ""recordClick(this)""><div class = content><div class = numbers>1</div></div></button><button id = button_2 class = ""square num-button"" onclick = ""recordClick(this)""><div class = content><div class = numbers>2</div></div></button><button id = button_3 class = ""square num-button"" onclick = ""recordClick(this)""><div class = content><div class = numbers>3</div></div></button><button id = button_4 class = ""square num-button"" onclick = ""recordClick(this)""><div class = content><div class = numbers>4</div></div></button><button id = button_5 class = ""square num-button"" onclick = ""recordClick(this)""><div class = content><div class = numbers>5</div></div></button><button id = button_6 class = ""square num-button"" onclick = ""recordClick(this)""><div class = content><div class = numbers>6</div></div></button><button id = button_7 class = ""square num-button"" onclick = ""recordClick(this)""><div class = content><div class = numbers>7</div></div></button><button id = button_8 class = ""square num-button"" onclick = ""recordClick(this)""><div class = content><div class = numbers>8</div></div></button><button id = button_9 class = ""square num-button"" onclick = ""recordClick(this)""><div class = content><div class = numbers>9</div></div></button><button class = clear_button id = ""ClearButton"" onclick = ""clearResponse()"">Clear</button><p><u><b>Current Answer:</b></u></p><div id=echoed_txt style=""font-size: 6rem; color:blue;""><b></b></div></div><br><br><br><br><br><br><br>",enter,fwdspan,response,r8EMRPGsjTZvmZTCCHYfqKpjk802,html-keyboard-response,53,1401520,0.0-7.0-2.3-0.3-3.3,6.0,"[9,3,2,4,8]","[9,3,2,4,8,6]",0.0,"[3, 4, 5, 6, 6, 5, 6, 6, 5, 6, 6, 5]",,60fc1f84103c6aa86a429ada,11:47:30 AM,1/15/2024
,,,fwdspan,update_span,r8EMRPGsjTZvmZTCCHYfqKpjk802,call-function,54,1401776,0.0-7.0-2.3-0.3-4.3,,,,,,,60fc1f84103c6aa86a429ada,11:47:30 AM,1/15/2024
3499.600000023842,"<p style=""font-size:3rem"">Trial 5 of 12</p><br><br><br>",0,fwdspan,start_trial,r8EMRPGsjTZvmZTCCHYfqKpjk802,html-button-response,55,1405276,0.0-7.0-2.4-0.4-0.4,,,,,,,60fc1f84103c6aa86a429ada,11:47:30 AM,1/15/2024
,"<p style=""font-size:14rem;font-weight:400;"">5</p>",,fwdspan,number,r8EMRPGsjTZvmZTCCHYfqKpjk802,html-keyboard-response,56,1406287,0.0-7.0-2.4-0.4-1.18-0.18,,,,,,,60fc1f84103c6aa86a429ada,11:47:30 AM,1/15/2024
,"<p style=""font-size:14rem;font-weight:400;"">7</p>",,fwdspan,number,r8EMRPGsjTZvmZTCCHYfqKpjk802,html-keyboard-response,57,1407310,0.0-7.0-2.4-0.4-1.19-0.19,,,,,,,60fc1f84103c6aa86a429ada,11:47:30 AM,1/15/2024
,"<p style=""font-size:14rem;font-weight:400;"">2</p>",,fwdspan,number,r8EMRPGsjTZvmZTCCHYfqKpjk802,html-keyboard-response,58,1408316,0.0-7.0-2.4-0.4-1.20-0.20,,,,,,,60fc1f84103c6aa86a429ada,11:47:30 AM,1/15/2024
,"<p style=""font-size:14rem;font-weight:400;"">1</p>",,fwdspan,number,r8EMRPGsjTZvmZTCCHYfqKpjk802,html-keyboard-response,59,1409345,0.0-7.0-2.4-0.4-1.21-0.21,,,,,,,60fc1f84103c6aa86a429ada,11:47:30 AM,1/15/2024
,"<p style=""font-size:14rem;font-weight:400;"">4</p>",,fwdspan,number,r8EMRPGsjTZvmZTCCHYfqKpjk802,html-keyboard-response,60,1410364,0.0-7.0-2.4-0.4-1.22-0.22,,,,,,,60fc1f84103c6aa86a429ada,11:47:30 AM,1/15/2024
,"<p style=""font-size:14rem;font-weight:400;"">9</p>",,fwdspan,number,r8EMRPGsjTZvmZTCCHYfqKpjk802,html-keyboard-response,61,1411382,0.0-7.0-2.4-0.4-1.23-0.23,,,,,,,60fc1f84103c6aa86a429ada,11:47:30 AM,1/15/2024
,[],,fwdspan,delay,r8EMRPGsjTZvmZTCCHYfqKpjk802,html-keyboard-response,62,1411961,0.0-7.0-2.4-0.4-2.4,,,,,,,60fc1f84103c6aa86a429ada,11:47:30 AM,1/15/2024
7732.0,"<div class = numbox><p style=""font-size:2.5rem"">What were the numbers <b>in order</b>?<br>(When you are ready to lock in your answer, press <b>ENTER</b>)</p><button id = button_1 class = ""square num-button"" onclick = ""recordClick(this)""><div class = content><div class = numbers>1</div></div></button><button id = button_2 class = ""square num-button"" onclick = ""recordClick(this)""><div class = content><div class = numbers>2</div></div></button><button id = button_3 class = ""square num-button"" onclick = ""recordClick(this)""><div class = content><div class = numbers>3</div></div></button><button id = button_4 class = ""square num-button"" onclick = ""recordClick(this)""><div class = content><div class = numbers>4</div></div></button><button id = button_5 class = ""square num-button"" onclick = ""recordClick(this)""><div class = content><div class = numbers>5</div></div></button><button id = button_6 class = ""square num-button"" onclick = ""recordClick(this)""><div class = content><div class = numbers>6</div></div></button><button id = button_7 class = ""square num-button"" onclick = ""recordClick(this)""><div class = content><div class = numbers>7</div></div></button><button id = button_8 class = ""square num-button"" onclick = ""recordClick(this)""><div class = content><div class = numbers>8</div></div></button><button id = button_9 class = ""square num-button"" onclick = ""recordClick(this)""><div class = content><div class = numbers>9</div></div></button><button class = clear_button id = ""ClearButton"" onclick = ""clearResponse()"">Clear</button><p><u><b>Current Answer:</b></u></p><div id=echoed_txt style=""font-size: 6rem; color:blue;""><b></b></div></div><br><br><br><br><br><br><br>",enter,fwdspan,response,r8EMRPGsjTZvmZTCCHYfqKpjk802,html-keyboard-response,63,1419694,0.0-7.0-2.4-0.4-3.4,6.0,"[5,7,2,1,4,6]","[5,7,2,1,4,9]",0.0,"[3, 4, 5, 6, 6, 5, 6, 6, 5, 6, 6, 5]",,60fc1f84103c6aa86a429ada,11:47:30 AM,1/15/2024
,,,fwdspan,update_span,r8EMRPGsjTZvmZTCCHYfqKpjk802,call-function,64,1419949,0.0-7.0-2.4-0.4-4.4,,,,,,,60fc1f84103c6aa86a429ada,11:47:30 AM,1/15/2024
1314.5999999642372,"<p style=""font-size:3rem"">Trial 6 of 12</p><br><br><br>",0,fwdspan,start_trial,r8EMRPGsjTZvmZTCCHYfqKpjk802,html-button-response,65,1421265,0.0-7.0-2.5-0.5-0.5,,,,,,,60fc1f84103c6aa86a429ada,11:47:30 AM,1/15/2024
,"<p style=""font-size:14rem;font-weight:400;"">6</p>",,fwdspan,number,r8EMRPGsjTZvmZTCCHYfqKpjk802,html-keyboard-response,66,1422289,0.0-7.0-2.5-0.5-1.24-0.24,,,,,,,60fc1f84103c6aa86a429ada,11:47:30 AM,1/15/2024
,"<p style=""font-size:14rem;font-weight:400;"">4</p>",,fwdspan,number,r8EMRPGsjTZvmZTCCHYfqKpjk802,html-keyboard-response,67,1423307,0.0-7.0-2.5-0.5-1.25-0.25,,,,,,,60fc1f84103c6aa86a429ada,11:47:30 AM,1/15/2024
,"<p style=""font-size:14rem;font-weight:400;"">1</p>",,fwdspan,number,r8EMRPGsjTZvmZTCCHYfqKpjk802,html-keyboard-response,68,1424333,0.0-7.0-2.5-0.5-1.26-0.26,,,,,,,60fc1f84103c6aa86a429ada,11:47:30 AM,1/15/2024
,"<p style=""font-size:14rem;font-weight:400;"">3</p>",,fwdspan,number,r8EMRPGsjTZvmZTCCHYfqKpjk802,html-keyboard-response,69,1425358,0.0-7.0-2.5-0.5-1.27-0.27,,,,,,,60fc1f84103c6aa86a429ada,11:47:30 AM,1/15/2024
,"<p style=""font-size:14rem;font-weight:400;"">9</p>",,fwdspan,number,r8EMRPGsjTZvmZTCCHYfqKpjk802,html-keyboard-response,70,1426374,0.0-7.0-2.5-0.5-1.28-0.28,,,,,,,60fc1f84103c6aa86a429ada,11:47:30 AM,1/15/2024
,[],,fwdspan,delay,r8EMRPGsjTZvmZTCCHYfqKpjk802,html-keyboard-response,71,1426926,0.0-7.0-2.5-0.5-2.5,,,,,,,60fc1f84103c6aa86a429ada,11:47:30 AM,1/15/2024
5555.200000047684,"<div class = numbox><p style=""font-size:2.5rem"">What were the numbers <b>in order</b>?<br>(When you are ready to lock in your answer, press <b>ENTER</b>)</p><button id = button_1 class = ""square num-button"" onclick = ""recordClick(this)""><div class = content><div class = numbers>1</div></div></button><button id = button_2 class = ""square num-button"" onclick = ""recordClick(this)""><div class = content><div class = numbers>2</div></div></button><button id = button_3 class = ""square num-button"" onclick = ""recordClick(this)""><div class = content><div class = numbers>3</div></div></button><button id = button_4 class = ""square num-button"" onclick = ""recordClick(this)""><div class = content><div class = numbers>4</div></div></button><button id = button_5 class = ""square num-button"" onclick = ""recordClick(this)""><div class = content><div class = numbers>5</div></div></button><button id = button_6 class = ""square num-button"" onclick = ""recordClick(this)""><div class = content><div class = numbers>6</div></div></button><button id = button_7 class = ""square num-button"" onclick = ""recordClick(this)""><div class = content><div class = numbers>7</div></div></button><button id = button_8 class = ""square num-button"" onclick = ""recordClick(this)""><div class = content><div class = numbers>8</div></div></button><button id = button_9 class = ""square num-button"" onclick = ""recordClick(this)""><div class = content><div class = numbers>9</div></div></button><button class = clear_button id = ""ClearButton"" onclick = ""clearResponse()"">Clear</button><p><u><b>Current Answer:</b></u></p><div id=echoed_txt style=""font-size: 6rem; color:blue;""><b></b></div></div><br><br><br><br><br><br><br>",enter,fwdspan,response,r8EMRPGsjTZvmZTCCHYfqKpjk802,html-keyboard-response,72,1432482,0.0-7.0-2.5-0.5-3.5,5.0,"[6,4,1,3,9]","[6,4,1,3,9]",1.0,"[3, 4, 5, 6, 6, 5, 6, 6, 5, 6, 6, 5]",,60fc1f84103c6aa86a429ada,11:47:30 AM,1/15/2024
,,,fwdspan,update_span,r8EMRPGsjTZvmZTCCHYfqKpjk802,call-function,73,1432747,0.0-7.0-2.5-0.5-4.5,,,,,,,60fc1f84103c6aa86a429ada,11:47:30 AM,1/15/2024
1300.4000000357628,"<p style=""font-size:3rem"">Trial 7 of 12</p><br><br><br>",0,fwdspan,start_trial,r8EMRPGsjTZvmZTCCHYfqKpjk802,html-button-response,74,1434049,0.0-7.0-2.6-0.6-0.6,,,,,,,60fc1f84103c6aa86a429ada,11:47:30 AM,1/15/2024
,"<p style=""font-size:14rem;font-weight:400;"">9</p>",,fwdspan,number,r8EMRPGsjTZvmZTCCHYfqKpjk802,html-keyboard-response,75,1435058,0.0-7.0-2.6-0.6-1.29-0.29,,,,,,,60fc1f84103c6aa86a429ada,11:47:30 AM,1/15/2024
,"<p style=""font-size:14rem;font-weight:400;"">6</p>",,fwdspan,number,r8EMRPGsjTZvmZTCCHYfqKpjk802,html-keyboard-response,76,1436072,0.0-7.0-2.6-0.6-1.30-0.30,,,,,,,60fc1f84103c6aa86a429ada,11:47:30 AM,1/15/2024
,"<p style=""font-size:14rem;font-weight:400;"">8</p>",,fwdspan,number,r8EMRPGsjTZvmZTCCHYfqKpjk802,html-keyboard-response,77,1437085,0.0-7.0-2.6-0.6-1.31-0.31,,,,,,,60fc1f84103c6aa86a429ada,11:47:30 AM,1/15/2024
,"<p style=""font-size:14rem;font-weight:400;"">2</p>",,fwdspan,number,r8EMRPGsjTZvmZTCCHYfqKpjk802,html-keyboard-response,78,1438092,0.0-7.0-2.6-0.6-1.32-0.32,,,,,,,60fc1f84103c6aa86a429ada,11:47:30 AM,1/15/2024
,"<p style=""font-size:14rem;font-weight:400;"">5</p>",,fwdspan,number,r8EMRPGsjTZvmZTCCHYfqKpjk802,html-keyboard-response,79,1439120,0.0-7.0-2.6-0.6-1.33-0.33,,,,,,,60fc1f84103c6aa86a429ada,11:47:30 AM,1/15/2024
,"<p style=""font-size:14rem;font-weight:400;"">7</p>",,fwdspan,number,r8EMRPGsjTZvmZTCCHYfqKpjk802,html-keyboard-response,80,1440138,0.0-7.0-2.6-0.6-1.34-0.34,,,,,,,60fc1f84103c6aa86a429ada,11:47:30 AM,1/15/2024
,[],,fwdspan,delay,r8EMRPGsjTZvmZTCCHYfqKpjk802,html-keyboard-response,81,1440697,0.0-7.0-2.6-0.6-2.6,,,,,,,60fc1f84103c6aa86a429ada,11:47:30 AM,1/15/2024
8317.900000035763,"<div class = numbox><p style=""font-size:2.5rem"">What were the numbers <b>in order</b>?<br>(When you are ready to lock in your answer, press <b>ENTER</b>)</p><button id = button_1 class = ""square num-button"" onclick = ""recordClick(this)""><div class = content><div class = numbers>1</div></div></button><button id = button_2 class = ""square num-button"" onclick = ""recordClick(this)""><div class = content><div class = numbers>2</div></div></button><button id = button_3 class = ""square num-button"" onclick = ""recordClick(this)""><div class = content><div class = numbers>3</div></div></button><button id = button_4 class = ""square num-button"" onclick = ""recordClick(this)""><div class = content><div class = numbers>4</div></div></button><button id = button_5 class = ""square num-button"" onclick = ""recordClick(this)""><div class = content><div class = numbers>5</div></div></button><button id = button_6 class = ""square num-button"" onclick = ""recordClick(this)""><div class = content><div class = numbers>6</div></div></button><button id = button_7 class = ""square num-button"" onclick = ""recordClick(this)""><div class = content><div class = numbers>7</div></div></button><button id = button_8 class = ""square num-button"" onclick = ""recordClick(this)""><div class = content><div class = numbers>8</div></div></button><button id = button_9 class = ""square num-button"" onclick = ""recordClick(this)""><div class = content><div class = numbers>9</div></div></button><button class = clear_button id = ""ClearButton"" onclick = ""clearResponse()"">Clear</button><p><u><b>Current Answer:</b></u></p><div id=echoed_txt style=""font-size: 6rem; color:blue;""><b></b></div></div><br><br><br><br><br><br><br>",enter,fwdspan,response,r8EMRPGsjTZvmZTCCHYfqKpjk802,html-keyboard-response,82,1449016,0.0-7.0-2.6-0.6-3.6,6.0,"[5,6,8,2,7]","[9,6,8,2,5,7]",0.0,"[3, 4, 5, 6, 6, 5, 6, 6, 5, 6, 6, 5]",,60fc1f84103c6aa86a429ada,11:47:30 AM,1/15/2024
,,,fwdspan,update_span,r8EMRPGsjTZvmZTCCHYfqKpjk802,call-function,83,1449277,0.0-7.0-2.6-0.6-4.6,,,,,,,60fc1f84103c6aa86a429ada,11:47:30 AM,1/15/2024
3897.5,"<p style=""font-size:3rem"">Trial 8 of 12</p><br><br><br>",0,fwdspan,start_trial,r8EMRPGsjTZvmZTCCHYfqKpjk802,html-button-response,84,1453175,0.0-7.0-2.7-0.7-0.7,,,,,,,60fc1f84103c6aa86a429ada,11:47:30 AM,1/15/2024
,"<p style=""font-size:14rem;font-weight:400;"">1</p>",,fwdspan,number,r8EMRPGsjTZvmZTCCHYfqKpjk802,html-keyboard-response,85,1454193,0.0-7.0-2.7-0.7-1.35-0.35,,,,,,,60fc1f84103c6aa86a429ada,11:47:30 AM,1/15/2024
,"<p style=""font-size:14rem;font-weight:400;"">7</p>",,fwdspan,number,r8EMRPGsjTZvmZTCCHYfqKpjk802,html-keyboard-response,86,1455209,0.0-7.0-2.7-0.7-1.36-0.36,,,,,,,60fc1f84103c6aa86a429ada,11:47:30 AM,1/15/2024
,"<p style=""font-size:14rem;font-weight:400;"">8</p>",,fwdspan,number,r8EMRPGsjTZvmZTCCHYfqKpjk802,html-keyboard-response,87,1456216,0.0-7.0-2.7-0.7-1.37-0.37,,,,,,,60fc1f84103c6aa86a429ada,11:47:30 AM,1/15/2024
,"<p style=""font-size:14rem;font-weight:400;"">2</p>",,fwdspan,number,r8EMRPGsjTZvmZTCCHYfqKpjk802,html-keyboard-response,88,1457218,0.0-7.0-2.7-0.7-1.38-0.38,,,,,,,60fc1f84103c6aa86a429ada,11:47:30 AM,1/15/2024
,"<p style=""font-size:14rem;font-weight:400;"">4</p>",,fwdspan,number,r8EMRPGsjTZvmZTCCHYfqKpjk802,html-keyboard-response,89,1458233,0.0-7.0-2.7-0.7-1.39-0.39,,,,,,,60fc1f84103c6aa86a429ada,11:47:30 AM,1/15/2024
,"<p style=""font-size:14rem;font-weight:400;"">6</p>",,fwdspan,number,r8EMRPGsjTZvmZTCCHYfqKpjk802,html-keyboard-response,90,1459263,0.0-7.0-2.7-0.7-1.40-0.40,,,,,,,60fc1f84103c6aa86a429ada,11:47:30 AM,1/15/2024
,[],,fwdspan,delay,r8EMRPGsjTZvmZTCCHYfqKpjk802,html-keyboard-response,91,1459828,0.0-7.0-2.7-0.7-2.7,,,,,,,60fc1f84103c6aa86a429ada,11:47:30 AM,1/15/2024
9391.599999964237,"<div class = numbox><p style=""font-size:2.5rem"">What were the numbers <b>in order</b>?<br>(When you are ready to lock in your answer, press <b>ENTER</b>)</p><button id = button_1 class = ""square num-button"" onclick = ""recordClick(this)""><div class = content><div class = numbers>1</div></div></button><button id = button_2 class = ""square num-button"" onclick = ""recordClick(this)""><div class = content><div class = numbers>2</div></div></button><button id = button_3 class = ""square num-button"" onclick = ""recordClick(this)""><div class = content><div class = numbers>3</div></div></button><button id = button_4 class = ""square num-button"" onclick = ""recordClick(this)""><div class = content><div class = numbers>4</div></div></button><button id = button_5 class = ""square num-button"" onclick = ""recordClick(this)""><div class = content><div class = numbers>5</div></div></button><button id = button_6 class = ""square num-button"" onclick = ""recordClick(this)""><div class = content><div class = numbers>6</div></div></button><button id = button_7 class = ""square num-button"" onclick = ""recordClick(this)""><div class = content><div class = numbers>7</div></div></button><button id = button_8 class = ""square num-button"" onclick = ""recordClick(this)""><div class = content><div class = numbers>8</div></div></button><button id = button_9 class = ""square num-button"" onclick = ""recordClick(this)""><div class = content><div class = numbers>9</div></div></button><button class = clear_button id = ""ClearButton"" onclick = ""clearResponse()"">Clear</button><p><u><b>Current Answer:</b></u></p><div id=echoed_txt style=""font-size: 6rem; color:blue;""><b></b></div></div><br><br><br><br><br><br><br>",enter,fwdspan,response,r8EMRPGsjTZvmZTCCHYfqKpjk802,html-keyboard-response,92,1469221,0.0-7.0-2.7-0.7-3.7,6.0,"[1,7,8,2,9,2]","[1,7,8,2,4,6]",0.0,"[3, 4, 5, 6, 6, 5, 6, 6, 5, 6, 6, 5]",,60fc1f84103c6aa86a429ada,11:47:30 AM,1/15/2024
,,,fwdspan,update_span,r8EMRPGsjTZvmZTCCHYfqKpjk802,call-function,93,1469485,0.0-7.0-2.7-0.7-4.7,,,,,,,60fc1f84103c6aa86a429ada,11:47:30 AM,1/15/2024
3992.099999964237,"<p style=""font-size:3rem"">Trial 9 of 12</p><br><br><br>",0,fwdspan,start_trial,r8EMRPGsjTZvmZTCCHYfqKpjk802,html-button-response,94,1473478,0.0-7.0-2.8-0.8-0.8,,,,,,,60fc1f84103c6aa86a429ada,11:47:30 AM,1/15/2024
,"<p style=""font-size:14rem;font-weight:400;"">2</p>",,fwdspan,number,r8EMRPGsjTZvmZTCCHYfqKpjk802,html-keyboard-response,95,1474489,0.0-7.0-2.8-0.8-1.41-0.41,,,,,,,60fc1f84103c6aa86a429ada,11:47:30 AM,1/15/2024
,"<p style=""font-size:14rem;font-weight:400;"">1</p>",,fwdspan,number,r8EMRPGsjTZvmZTCCHYfqKpjk802,html-keyboard-response,96,1475496,0.0-7.0-2.8-0.8-1.42-0.42,,,,,,,60fc1f84103c6aa86a429ada,11:47:30 AM,1/15/2024
,"<p style=""font-size:14rem;font-weight:400;"">3</p>",,fwdspan,number,r8EMRPGsjTZvmZTCCHYfqKpjk802,html-keyboard-response,97,1476510,0.0-7.0-2.8-0.8-1.43-0.43,,,,,,,60fc1f84103c6aa86a429ada,11:47:30 AM,1/15/2024
,"<p style=""font-size:14rem;font-weight:400;"">6</p>",,fwdspan,number,r8EMRPGsjTZvmZTCCHYfqKpjk802,html-keyboard-response,98,1477526,0.0-7.0-2.8-0.8-1.44-0.44,,,,,,,60fc1f84103c6aa86a429ada,11:47:30 AM,1/15/2024
,"<p style=""font-size:14rem;font-weight:400;"">9</p>",,fwdspan,number,r8EMRPGsjTZvmZTCCHYfqKpjk802,html-keyboard-response,99,1478555,0.0-7.0-2.8-0.8-1.45-0.45,,,,,,,60fc1f84103c6aa86a429ada,11:47:30 AM,1/15/2024
,[],,fwdspan,delay,r8EMRPGsjTZvmZTCCHYfqKpjk802,html-keyboard-response,100,1479132,0.0-7.0-2.8-0.8-2.8,,,,,,,60fc1f84103c6aa86a429ada,11:47:30 AM,1/15/2024
6486.0,"<div class = numbox><p style=""font-size:2.5rem"">What were the numbers <b>in order</b>?<br>(When you are ready to lock in your answer, press <b>ENTER</b>)</p><button id = button_1 class = ""square num-button"" onclick = ""recordClick(this)""><div class = content><div class = numbers>1</div></div></button><button id = button_2 class = ""square num-button"" onclick = ""recordClick(this)""><div class = content><div class = numbers>2</div></div></button><button id = button_3 class = ""square num-button"" onclick = ""recordClick(this)""><div class = content><div class = numbers>3</div></div></button><button id = button_4 class = ""square num-button"" onclick = ""recordClick(this)""><div class = content><div class = numbers>4</div></div></button><button id = button_5 class = ""square num-button"" onclick = ""recordClick(this)""><div class = content><div class = numbers>5</div></div></button><button id = button_6 class = ""square num-button"" onclick = ""recordClick(this)""><div class = content><div class = numbers>6</div></div></button><button id = button_7 class = ""square num-button"" onclick = ""recordClick(this)""><div class = content><div class = numbers>7</div></div></button><button id = button_8 class = ""square num-button"" onclick = ""recordClick(this)""><div class = content><div class = numbers>8</div></div></button><button id = button_9 class = ""square num-button"" onclick = ""recordClick(this)""><div class = content><div class = numbers>9</div></div></button><button class = clear_button id = ""ClearButton"" onclick = ""clearResponse()"">Clear</button><p><u><b>Current Answer:</b></u></p><div id=echoed_txt style=""font-size: 6rem; color:blue;""><b></b></div></div><br><br><br><br><br><br><br>",enter,fwdspan,response,r8EMRPGsjTZvmZTCCHYfqKpjk802,html-keyboard-response,101,1485619,0.0-7.0-2.8-0.8-3.8,5.0,"[2,1,3,6,9]","[2,1,3,6,9]",1.0,"[3, 4, 5, 6, 6, 5, 6, 6, 5, 6, 6, 5]",,60fc1f84103c6aa86a429ada,11:47:30 AM,1/15/2024
,,,fwdspan,update_span,r8EMRPGsjTZvmZTCCHYfqKpjk802,call-function,102,1485877,0.0-7.0-2.8-0.8-4.8,,,,,,,60fc1f84103c6aa86a429ada,11:47:30 AM,1/15/2024
1127.6000000238419,"<p style=""font-size:3rem"">Trial 10 of 12</p><br><br><br>",0,fwdspan,start_trial,r8EMRPGsjTZvmZTCCHYfqKpjk802,html-button-response,103,1487006,0.0-7.0-2.9-0.9-0.9,,,,,,,60fc1f84103c6aa86a429ada,11:47:30 AM,1/15/2024
,"<p style=""font-size:14rem;font-weight:400;"">8</p>",,fwdspan,number,r8EMRPGsjTZvmZTCCHYfqKpjk802,html-keyboard-response,104,1488015,0.0-7.0-2.9-0.9-1.46-0.46,,,,,,,60fc1f84103c6aa86a429ada,11:47:30 AM,1/15/2024
,"<p style=""font-size:14rem;font-weight:400;"">7</p>",,fwdspan,number,r8EMRPGsjTZvmZTCCHYfqKpjk802,html-keyboard-response,105,1489023,0.0-7.0-2.9-0.9-1.47-0.47,,,,,,,60fc1f84103c6aa86a429ada,11:47:30 AM,1/15/2024
,"<p style=""font-size:14rem;font-weight:400;"">2</p>",,fwdspan,number,r8EMRPGsjTZvmZTCCHYfqKpjk802,html-keyboard-response,106,1490040,0.0-7.0-2.9-0.9-1.48-0.48,,,,,,,60fc1f84103c6aa86a429ada,11:47:30 AM,1/15/2024
,"<p style=""font-size:14rem;font-weight:400;"">9</p>",,fwdspan,number,r8EMRPGsjTZvmZTCCHYfqKpjk802,html-keyboard-response,107,1491072,0.0-7.0-2.9-0.9-1.49-0.49,,,,,,,60fc1f84103c6aa86a429ada,11:47:30 AM,1/15/2024
,"<p style=""font-size:14rem;font-weight:400;"">5</p>",,fwdspan,number,r8EMRPGsjTZvmZTCCHYfqKpjk802,html-keyboard-response,108,1492089,0.0-7.0-2.9-0.9-1.50-0.50,,,,,,,60fc1f84103c6aa86a429ada,11:47:30 AM,1/15/2024
,"<p style=""font-size:14rem;font-weight:400;"">3</p>",,fwdspan,number,r8EMRPGsjTZvmZTCCHYfqKpjk802,html-keyboard-response,109,1493120,0.0-7.0-2.9-0.9-1.51-0.51,,,,,,,60fc1f84103c6aa86a429ada,11:47:30 AM,1/15/2024
,[],,fwdspan,delay,r8EMRPGsjTZvmZTCCHYfqKpjk802,html-keyboard-response,110,1493694,0.0-7.0-2.9-0.9-2.9,,,,,,,60fc1f84103c6aa86a429ada,11:47:30 AM,1/15/2024
10682.300000011921,"<div class = numbox><p style=""font-size:2.5rem"">What were the numbers <b>in order</b>?<br>(When you are ready to lock in your answer, press <b>ENTER</b>)</p><button id = button_1 class = ""square num-button"" onclick = ""recordClick(this)""><div class = content><div class = numbers>1</div></div></button><button id = button_2 class = ""square num-button"" onclick = ""recordClick(this)""><div class = content><div class = numbers>2</div></div></button><button id = button_3 class = ""square num-button"" onclick = ""recordClick(this)""><div class = content><div class = numbers>3</div></div></button><button id = button_4 class = ""square num-button"" onclick = ""recordClick(this)""><div class = content><div class = numbers>4</div></div></button><button id = button_5 class = ""square num-button"" onclick = ""recordClick(this)""><div class = content><div class = numbers>5</div></div></button><button id = button_6 class = ""square num-button"" onclick = ""recordClick(this)""><div class = content><div class = numbers>6</div></div></button><button id = button_7 class = ""square num-button"" onclick = ""recordClick(this)""><div class = content><div class = numbers>7</div></div></button><button id = button_8 class = ""square num-button"" onclick = ""recordClick(this)""><div class = content><div class = numbers>8</div></div></button><button id = button_9 class = ""square num-button"" onclick = ""recordClick(this)""><div class = content><div class = numbers>9</div></div></button><button class = clear_button id = ""ClearButton"" onclick = ""clearResponse()"">Clear</button><p><u><b>Current Answer:</b></u></p><div id=echoed_txt style=""font-size: 6rem; color:blue;""><b></b></div></div><br><br><br><br><br><br><br>",enter,fwdspan,response,r8EMRPGsjTZvmZTCCHYfqKpjk802,html-keyboard-response,111,1504378,0.0-7.0-2.9-0.9-3.9,6.0,"[2,5,7,6,8]","[8,7,2,9,5,3]",0.0,"[3, 4, 5, 6, 6, 5, 6, 6, 5, 6, 6, 5]",,60fc1f84103c6aa86a429ada,11:47:30 AM,1/15/2024
,,,fwdspan,update_span,r8EMRPGsjTZvmZTCCHYfqKpjk802,call-function,112,1504635,0.0-7.0-2.9-0.9-4.9,,,,,,,60fc1f84103c6aa86a429ada,11:47:30 AM,1/15/2024
2003.9000000357628,"<p style=""font-size:3rem"">Trial 11 of 12</p><br><br><br>",0,fwdspan,start_trial,r8EMRPGsjTZvmZTCCHYfqKpjk802,html-button-response,113,1506640,0.0-7.0-2.10-0.10-0.10,,,,,,,60fc1f84103c6aa86a429ada,11:47:30 AM,1/15/2024
,"<p style=""font-size:14rem;font-weight:400;"">2</p>",,fwdspan,number,r8EMRPGsjTZvmZTCCHYfqKpjk802,html-keyboard-response,114,1507664,0.0-7.0-2.10-0.10-1.52-0.52,,,,,,,60fc1f84103c6aa86a429ada,11:47:30 AM,1/15/2024
,"<p style=""font-size:14rem;font-weight:400;"">1</p>",,fwdspan,number,r8EMRPGsjTZvmZTCCHYfqKpjk802,html-keyboard-response,115,1508675,0.0-7.0-2.10-0.10-1.53-0.53,,,,,,,60fc1f84103c6aa86a429ada,11:47:30 AM,1/15/2024
,"<p style=""font-size:14rem;font-weight:400;"">4</p>",,fwdspan,number,r8EMRPGsjTZvmZTCCHYfqKpjk802,html-keyboard-response,116,1509689,0.0-7.0-2.10-0.10-1.54-0.54,,,,,,,60fc1f84103c6aa86a429ada,11:47:30 AM,1/15/2024
,"<p style=""font-size:14rem;font-weight:400;"">6</p>",,fwdspan,number,r8EMRPGsjTZvmZTCCHYfqKpjk802,html-keyboard-response,117,1510715,0.0-7.0-2.10-0.10-1.55-0.55,,,,,,,60fc1f84103c6aa86a429ada,11:47:30 AM,1/15/2024
,"<p style=""font-size:14rem;font-weight:400;"">9</p>",,fwdspan,number,r8EMRPGsjTZvmZTCCHYfqKpjk802,html-keyboard-response,118,1511745,0.0-7.0-2.10-0.10-1.56-0.56,,,,,,,60fc1f84103c6aa86a429ada,11:47:30 AM,1/15/2024
,"<p style=""font-size:14rem;font-weight:400;"">8</p>",,fwdspan,number,r8EMRPGsjTZvmZTCCHYfqKpjk802,html-keyboard-response,119,1512760,0.0-7.0-2.10-0.10-1.57-0.57,,,,,,,60fc1f84103c6aa86a429ada,11:47:30 AM,1/15/2024
,[],,fwdspan,delay,r8EMRPGsjTZvmZTCCHYfqKpjk802,html-keyboard-response,120,1513345,0.0-7.0-2.10-0.10-2.10,,,,,,,60fc1f84103c6aa86a429ada,11:47:30 AM,1/15/2024
17382.599999964237,"<div class = numbox><p style=""font-size:2.5rem"">What were the numbers <b>in order</b>?<br>(When you are ready to lock in your answer, press <b>ENTER</b>)</p><button id = button_1 class = ""square num-button"" onclick = ""recordClick(this)""><div class = content><div class = numbers>1</div></div></button><button id = button_2 class = ""square num-button"" onclick = ""recordClick(this)""><div class = content><div class = numbers>2</div></div></button><button id = button_3 class = ""square num-button"" onclick = ""recordClick(this)""><div class = content><div class = numbers>3</div></div></button><button id = button_4 class = ""square num-button"" onclick = ""recordClick(this)""><div class = content><div class = numbers>4</div></div></button><button id = button_5 class = ""square num-button"" onclick = ""recordClick(this)""><div class = content><div class = numbers>5</div></div></button><button id = button_6 class = ""square num-button"" onclick = ""recordClick(this)""><div class = content><div class = numbers>6</div></div></button><button id = button_7 class = ""square num-button"" onclick = ""recordClick(this)""><div class = content><div class = numbers>7</div></div></button><button id = button_8 class = ""square num-button"" onclick = ""recordClick(this)""><div class = content><div class = numbers>8</div></div></button><button id = button_9 class = ""square num-button"" onclick = ""recordClick(this)""><div class = content><div class = numbers>9</div></div></button><button class = clear_button id = ""ClearButton"" onclick = ""clearResponse()"">Clear</button><p><u><b>Current Answer:</b></u></p><div id=echoed_txt style=""font-size: 6rem; color:blue;""><b></b></div></div><br><br><br><br><br><br><br>",enter,fwdspan,response,r8EMRPGsjTZvmZTCCHYfqKpjk802,html-keyboard-response,121,1530729,0.0-7.0-2.10-0.10-3.10,6.0,"[2,4,5,6,3]","[2,1,4,6,9,8]",0.0,"[3, 4, 5, 6, 6, 5, 6, 6, 5, 6, 6, 5]",,60fc1f84103c6aa86a429ada,11:47:30 AM,1/15/2024
,,,fwdspan,update_span,r8EMRPGsjTZvmZTCCHYfqKpjk802,call-function,122,1530987,0.0-7.0-2.10-0.10-4.10,,,,,,,60fc1f84103c6aa86a429ada,11:47:30 AM,1/15/2024
1236.9000000357628,"<p style=""font-size:3rem"">Trial 12 of 12</p><br><br><br>",0,fwdspan,start_trial,r8EMRPGsjTZvmZTCCHYfqKpjk802,html-button-response,123,1532225,0.0-7.0-2.11-0.11-0.11,,,,,,,60fc1f84103c6aa86a429ada,11:47:30 AM,1/15/2024
,"<p style=""font-size:14rem;font-weight:400;"">6</p>",,fwdspan,number,r8EMRPGsjTZvmZTCCHYfqKpjk802,html-keyboard-response,124,1533230,0.0-7.0-2.11-0.11-1.58-0.58,,,,,,,60fc1f84103c6aa86a429ada,11:47:30 AM,1/15/2024
,"<p style=""font-size:14rem;font-weight:400;"">8</p>",,fwdspan,number,r8EMRPGsjTZvmZTCCHYfqKpjk802,html-keyboard-response,125,1534244,0.0-7.0-2.11-0.11-1.59-0.59,,,,,,,60fc1f84103c6aa86a429ada,11:47:30 AM,1/15/2024
,"<p style=""font-size:14rem;font-weight:400;"">1</p>",,fwdspan,number,r8EMRPGsjTZvmZTCCHYfqKpjk802,html-keyboard-response,126,1535259,0.0-7.0-2.11-0.11-1.60-0.60,,,,,,,60fc1f84103c6aa86a429ada,11:47:30 AM,1/15/2024
,"<p style=""font-size:14rem;font-weight:400;"">5</p>",,fwdspan,number,r8EMRPGsjTZvmZTCCHYfqKpjk802,html-keyboard-response,127,1536287,0.0-7.0-2.11-0.11-1.61-0.61,,,,,,,60fc1f84103c6aa86a429ada,11:47:30 AM,1/15/2024
,"<p style=""font-size:14rem;font-weight:400;"">9</p>",,fwdspan,number,r8EMRPGsjTZvmZTCCHYfqKpjk802,html-keyboard-response,128,1537307,0.0-7.0-2.11-0.11-1.62-0.62,,,,,,,60fc1f84103c6aa86a429ada,11:47:30 AM,1/15/2024
,[],,fwdspan,delay,r8EMRPGsjTZvmZTCCHYfqKpjk802,html-keyboard-response,129,1537882,0.0-7.0-2.11-0.11-2.11,,,,,,,60fc1f84103c6aa86a429ada,11:47:30 AM,1/15/2024
7054.699999988079,"<div class = numbox><p style=""font-size:2.5rem"">What were the numbers <b>in order</b>?<br>(When you are ready to lock in your answer, press <b>ENTER</b>)</p><button id = button_1 class = ""square num-button"" onclick = ""recordClick(this)""><div class = content><div class = numbers>1</div></div></button><button id = button_2 class = ""square num-button"" onclick = ""recordClick(this)""><div class = content><div class = numbers>2</div></div></button><button id = button_3 class = ""square num-button"" onclick = ""recordClick(this)""><div class = content><div class = numbers>3</div></div></button><button id = button_4 class = ""square num-button"" onclick = ""recordClick(this)""><div class = content><div class = numbers>4</div></div></button><button id = button_5 class = ""square num-button"" onclick = ""recordClick(this)""><div class = content><div class = numbers>5</div></div></button><button id = button_6 class = ""square num-button"" onclick = ""recordClick(this)""><div class = content><div class = numbers>6</div></div></button><button id = button_7 class = ""square num-button"" onclick = ""recordClick(this)""><div class = content><div class = numbers>7</div></div></button><button id = button_8 class = ""square num-button"" onclick = ""recordClick(this)""><div class = content><div class = numbers>8</div></div></button><button id = button_9 class = ""square num-button"" onclick = ""recordClick(this)""><div class = content><div class = numbers>9</div></div></button><button class = clear_button id = ""ClearButton"" onclick = ""clearResponse()"">Clear</button><p><u><b>Current Answer:</b></u></p><div id=echoed_txt style=""font-size: 6rem; color:blue;""><b></b></div></div><br><br><br><br><br><br><br>",enter,fwdspan,response,r8EMRPGsjTZvmZTCCHYfqKpjk802,html-keyboard-response,130,1544938,0.0-7.0-2.11-0.11-3.11,5.0,"[6,8,1,5,9]","[6,8,1,5,9]",1.0,"[3, 4, 5, 6, 6, 5, 6, 6, 5, 6, 6, 5]",,60fc1f84103c6aa86a429ada,11:47:30 AM,1/15/2024
,,,fwdspan,update_span,r8EMRPGsjTZvmZTCCHYfqKpjk802,call-function,131,1545198,0.0-7.0-2.11-0.11-4.11,,,,,,,60fc1f84103c6aa86a429ada,11:47:30 AM,1/15/2024
88328.5,,"{'Q0': ""I didn't like how the numbers came up one by one and you weren't sure how many there were going to be. It made it harder to remember them especially the first couple of numbers""}",fwdspan,survey,r8EMRPGsjTZvmZTCCHYfqKpjk802,lmdlab-survey-text,132,1634290,0.0-7.0-3.0,,,,,,r8EMRPGsjTZvmZTCCHYfqKpjk802,60fc1f84103c6aa86a429ada,11:47:30 AM,1/15/2024
2960.900000035763,<p><p style='font-size: 3rem'>Great work!<br><br>This completes the digit span task.</p><br><br><br>,0,fwdspan,finish,r8EMRPGsjTZvmZTCCHYfqKpjk802,html-button-response,133,1637256,0.0-7.0-4.0,,,,,,,60fc1f84103c6aa86a429ada,11:47:30 AM,1/15/2024
