rt,stimulus,response,exp_name,exp_stage,subjectID,trial_type,trial_index,time_elapsed,internal_node_id,span,answer,correct,correct_full,span_history,databaseID,prolificID,start_time,date
5009.0,"<p style=""font-size:4rem""><br><br>In the next part today, we have a completely different short task.<br><br><br>This part involves keeping numbers in you mind. Participation takes around 5 minutes.<br><br><br></p>",0,fwdspan,instruct,VktJXsubevZxPgonw3b0scISkjR2,html-button-response,19,591981,0.0-7.0-0.0,,,,,,,63850434e9e4c94af1c53e23,11:03:23,15/01/2024
16297.0,"<p style=""font-size:5rem"">Welcome to the <b>digit span task</b>!<br><br></p><p style=""font-size:3.4rem""><br>On each trial, you will see a sequence of digits, followed by a delay.</p><p style=""font-size:3.4rem""><br>Then you will be asked to type them back in the same order in which they were seen.</p><p style=""font-size:3.4rem""><br><br><br>For example, if you saw the digits <b style=""color:blue;"">1</b>, <b style=""color:blue;"">2</b>, <b style=""color:blue;"">3</b>, you would respond with <b style=""color:blue;"">1</b>, <b style=""color:blue;"">2</b>, <b style=""color:blue;"">3</b></p><p style=""font-size:3.4rem""><br><br><br>To ensure the best measure of true performance for our study,<br><br>it is very important that you do not use any memory aid (e.g., pen and paper).<br><br>Please do the task solely in your head.</p><p style=""font-size:3.4rem""><br><br><br>There will be 12 total trials. Participation takes around 5 minutes.</p><br><br><br>",0,fwdspan,instruct,VktJXsubevZxPgonw3b0scISkjR2,html-button-response,20,608278,0.0-7.0-1.0,,,,,,,63850434e9e4c94af1c53e23,11:03:23,15/01/2024
3115.0,"<p style=""font-size:3rem"">Trial 1 of 12</p><br><br><br>",0,fwdspan,start_trial,VktJXsubevZxPgonw3b0scISkjR2,html-button-response,21,611396,0.0-7.0-2.0-0.0-0.0,,,,,,,63850434e9e4c94af1c53e23,11:03:23,15/01/2024
,"<p style=""font-size:14rem;font-weight:400;"">6</p>",,fwdspan,number,VktJXsubevZxPgonw3b0scISkjR2,html-keyboard-response,22,612432,0.0-7.0-2.0-0.0-1.0-0.0,,,,,,,63850434e9e4c94af1c53e23,11:03:23,15/01/2024
,"<p style=""font-size:14rem;font-weight:400;"">1</p>",,fwdspan,number,VktJXsubevZxPgonw3b0scISkjR2,html-keyboard-response,23,613450,0.0-7.0-2.0-0.0-1.1-0.1,,,,,,,63850434e9e4c94af1c53e23,11:03:23,15/01/2024
,"<p style=""font-size:14rem;font-weight:400;"">7</p>",,fwdspan,number,VktJXsubevZxPgonw3b0scISkjR2,html-keyboard-response,24,614470,0.0-7.0-2.0-0.0-1.2-0.2,,,,,,,63850434e9e4c94af1c53e23,11:03:23,15/01/2024
,[],,fwdspan,delay,VktJXsubevZxPgonw3b0scISkjR2,html-keyboard-response,25,615039,0.0-7.0-2.0-0.0-2.0,,,,,,,63850434e9e4c94af1c53e23,11:03:23,15/01/2024
12072.0,"<div class = numbox><p style=""font-size:2.5rem"">What were the numbers <b>in order</b>?<br>(When you are ready to lock in your answer, press <b>ENTER</b>)</p><button id = button_1 class = ""square num-button"" onclick = ""recordClick(this)""><div class = content><div class = numbers>1</div></div></button><button id = button_2 class = ""square num-button"" onclick = ""recordClick(this)""><div class = content><div class = numbers>2</div></div></button><button id = button_3 class = ""square num-button"" onclick = ""recordClick(this)""><div class = content><div class = numbers>3</div></div></button><button id = button_4 class = ""square num-button"" onclick = ""recordClick(this)""><div class = content><div class = numbers>4</div></div></button><button id = button_5 class = ""square num-button"" onclick = ""recordClick(this)""><div class = content><div class = numbers>5</div></div></button><button id = button_6 class = ""square num-button"" onclick = ""recordClick(this)""><div class = content><div class = numbers>6</div></div></button><button id = button_7 class = ""square num-button"" onclick = ""recordClick(this)""><div class = content><div class = numbers>7</div></div></button><button id = button_8 class = ""square num-button"" onclick = ""recordClick(this)""><div class = content><div class = numbers>8</div></div></button><button id = button_9 class = ""square num-button"" onclick = ""recordClick(this)""><div class = content><div class = numbers>9</div></div></button><button class = clear_button id = ""ClearButton"" onclick = ""clearResponse()"">Clear</button><p><u><b>Current Answer:</b></u></p><div id=echoed_txt style=""font-size: 6rem; color:blue;""><b></b></div></div><br><br><br><br><br><br><br>",enter,fwdspan,response,VktJXsubevZxPgonw3b0scISkjR2,html-keyboard-response,26,627113,0.0-7.0-2.0-0.0-3.0,3.0,"[6,1,7]","[6,1,7]",1.0,"[3, 4, 5, 6, 7, 8, 8, 7, 7, 6, 7, 8]",,63850434e9e4c94af1c53e23,11:03:23,15/01/2024
,,,fwdspan,update_span,VktJXsubevZxPgonw3b0scISkjR2,call-function,27,627374,0.0-7.0-2.0-0.0-4.0,,,,,,,63850434e9e4c94af1c53e23,11:03:23,15/01/2024
1874.0,"<p style=""font-size:3rem"">Trial 2 of 12</p><br><br><br>",0,fwdspan,start_trial,VktJXsubevZxPgonw3b0scISkjR2,html-button-response,28,629249,0.0-7.0-2.1-0.1-0.1,,,,,,,63850434e9e4c94af1c53e23,11:03:23,15/01/2024
,"<p style=""font-size:14rem;font-weight:400;"">9</p>",,fwdspan,number,VktJXsubevZxPgonw3b0scISkjR2,html-keyboard-response,29,630266,0.0-7.0-2.1-0.1-1.3-0.3,,,,,,,63850434e9e4c94af1c53e23,11:03:23,15/01/2024
,"<p style=""font-size:14rem;font-weight:400;"">5</p>",,fwdspan,number,VktJXsubevZxPgonw3b0scISkjR2,html-keyboard-response,30,631282,0.0-7.0-2.1-0.1-1.4-0.4,,,,,,,63850434e9e4c94af1c53e23,11:03:23,15/01/2024
,"<p style=""font-size:14rem;font-weight:400;"">1</p>",,fwdspan,number,VktJXsubevZxPgonw3b0scISkjR2,html-keyboard-response,31,632294,0.0-7.0-2.1-0.1-1.5-0.5,,,,,,,63850434e9e4c94af1c53e23,11:03:23,15/01/2024
,"<p style=""font-size:14rem;font-weight:400;"">3</p>",,fwdspan,number,VktJXsubevZxPgonw3b0scISkjR2,html-keyboard-response,32,633312,0.0-7.0-2.1-0.1-1.6-0.6,,,,,,,63850434e9e4c94af1c53e23,11:03:23,15/01/2024
,[],,fwdspan,delay,VktJXsubevZxPgonw3b0scISkjR2,html-keyboard-response,33,633875,0.0-7.0-2.1-0.1-2.1,,,,,,,63850434e9e4c94af1c53e23,11:03:23,15/01/2024
7110.0,"<div class = numbox><p style=""font-size:2.5rem"">What were the numbers <b>in order</b>?<br>(When you are ready to lock in your answer, press <b>ENTER</b>)</p><button id = button_1 class = ""square num-button"" onclick = ""recordClick(this)""><div class = content><div class = numbers>1</div></div></button><button id = button_2 class = ""square num-button"" onclick = ""recordClick(this)""><div class = content><div class = numbers>2</div></div></button><button id = button_3 class = ""square num-button"" onclick = ""recordClick(this)""><div class = content><div class = numbers>3</div></div></button><button id = button_4 class = ""square num-button"" onclick = ""recordClick(this)""><div class = content><div class = numbers>4</div></div></button><button id = button_5 class = ""square num-button"" onclick = ""recordClick(this)""><div class = content><div class = numbers>5</div></div></button><button id = button_6 class = ""square num-button"" onclick = ""recordClick(this)""><div class = content><div class = numbers>6</div></div></button><button id = button_7 class = ""square num-button"" onclick = ""recordClick(this)""><div class = content><div class = numbers>7</div></div></button><button id = button_8 class = ""square num-button"" onclick = ""recordClick(this)""><div class = content><div class = numbers>8</div></div></button><button id = button_9 class = ""square num-button"" onclick = ""recordClick(this)""><div class = content><div class = numbers>9</div></div></button><button class = clear_button id = ""ClearButton"" onclick = ""clearResponse()"">Clear</button><p><u><b>Current Answer:</b></u></p><div id=echoed_txt style=""font-size: 6rem; color:blue;""><b></b></div></div><br><br><br><br><br><br><br>",enter,fwdspan,response,VktJXsubevZxPgonw3b0scISkjR2,html-keyboard-response,34,640986,0.0-7.0-2.1-0.1-3.1,4.0,"[9,5,1,3]","[9,5,1,3]",1.0,"[3, 4, 5, 6, 7, 8, 8, 7, 7, 6, 7, 8]",,63850434e9e4c94af1c53e23,11:03:23,15/01/2024
,,,fwdspan,update_span,VktJXsubevZxPgonw3b0scISkjR2,call-function,35,641247,0.0-7.0-2.1-0.1-4.1,,,,,,,63850434e9e4c94af1c53e23,11:03:23,15/01/2024
1295.0,"<p style=""font-size:3rem"">Trial 3 of 12</p><br><br><br>",0,fwdspan,start_trial,VktJXsubevZxPgonw3b0scISkjR2,html-button-response,36,642544,0.0-7.0-2.2-0.2-0.2,,,,,,,63850434e9e4c94af1c53e23,11:03:23,15/01/2024
,"<p style=""font-size:14rem;font-weight:400;"">5</p>",,fwdspan,number,VktJXsubevZxPgonw3b0scISkjR2,html-keyboard-response,37,643553,0.0-7.0-2.2-0.2-1.7-0.7,,,,,,,63850434e9e4c94af1c53e23,11:03:23,15/01/2024
,"<p style=""font-size:14rem;font-weight:400;"">6</p>",,fwdspan,number,VktJXsubevZxPgonw3b0scISkjR2,html-keyboard-response,38,644570,0.0-7.0-2.2-0.2-1.8-0.8,,,,,,,63850434e9e4c94af1c53e23,11:03:23,15/01/2024
,"<p style=""font-size:14rem;font-weight:400;"">1</p>",,fwdspan,number,VktJXsubevZxPgonw3b0scISkjR2,html-keyboard-response,39,645589,0.0-7.0-2.2-0.2-1.9-0.9,,,,,,,63850434e9e4c94af1c53e23,11:03:23,15/01/2024
,"<p style=""font-size:14rem;font-weight:400;"">7</p>",,fwdspan,number,VktJXsubevZxPgonw3b0scISkjR2,html-keyboard-response,40,646604,0.0-7.0-2.2-0.2-1.10-0.10,,,,,,,63850434e9e4c94af1c53e23,11:03:23,15/01/2024
,"<p style=""font-size:14rem;font-weight:400;"">4</p>",,fwdspan,number,VktJXsubevZxPgonw3b0scISkjR2,html-keyboard-response,41,647623,0.0-7.0-2.2-0.2-1.11-0.11,,,,,,,63850434e9e4c94af1c53e23,11:03:23,15/01/2024
,[],,fwdspan,delay,VktJXsubevZxPgonw3b0scISkjR2,html-keyboard-response,42,648187,0.0-7.0-2.2-0.2-2.2,,,,,,,63850434e9e4c94af1c53e23,11:03:23,15/01/2024
5506.0,"<div class = numbox><p style=""font-size:2.5rem"">What were the numbers <b>in order</b>?<br>(When you are ready to lock in your answer, press <b>ENTER</b>)</p><button id = button_1 class = ""square num-button"" onclick = ""recordClick(this)""><div class = content><div class = numbers>1</div></div></button><button id = button_2 class = ""square num-button"" onclick = ""recordClick(this)""><div class = content><div class = numbers>2</div></div></button><button id = button_3 class = ""square num-button"" onclick = ""recordClick(this)""><div class = content><div class = numbers>3</div></div></button><button id = button_4 class = ""square num-button"" onclick = ""recordClick(this)""><div class = content><div class = numbers>4</div></div></button><button id = button_5 class = ""square num-button"" onclick = ""recordClick(this)""><div class = content><div class = numbers>5</div></div></button><button id = button_6 class = ""square num-button"" onclick = ""recordClick(this)""><div class = content><div class = numbers>6</div></div></button><button id = button_7 class = ""square num-button"" onclick = ""recordClick(this)""><div class = content><div class = numbers>7</div></div></button><button id = button_8 class = ""square num-button"" onclick = ""recordClick(this)""><div class = content><div class = numbers>8</div></div></button><button id = button_9 class = ""square num-button"" onclick = ""recordClick(this)""><div class = content><div class = numbers>9</div></div></button><button class = clear_button id = ""ClearButton"" onclick = ""clearResponse()"">Clear</button><p><u><b>Current Answer:</b></u></p><div id=echoed_txt style=""font-size: 6rem; color:blue;""><b></b></div></div><br><br><br><br><br><br><br>",enter,fwdspan,response,VktJXsubevZxPgonw3b0scISkjR2,html-keyboard-response,43,653694,0.0-7.0-2.2-0.2-3.2,5.0,"[5,6,1,7,4]","[5,6,1,7,4]",1.0,"[3, 4, 5, 6, 7, 8, 8, 7, 7, 6, 7, 8]",,63850434e9e4c94af1c53e23,11:03:23,15/01/2024
,,,fwdspan,update_span,VktJXsubevZxPgonw3b0scISkjR2,call-function,44,653956,0.0-7.0-2.2-0.2-4.2,,,,,,,63850434e9e4c94af1c53e23,11:03:23,15/01/2024
2823.0,"<p style=""font-size:3rem"">Trial 4 of 12</p><br><br><br>",0,fwdspan,start_trial,VktJXsubevZxPgonw3b0scISkjR2,html-button-response,45,656780,0.0-7.0-2.3-0.3-0.3,,,,,,,63850434e9e4c94af1c53e23,11:03:23,15/01/2024
,"<p style=""font-size:14rem;font-weight:400;"">2</p>",,fwdspan,number,VktJXsubevZxPgonw3b0scISkjR2,html-keyboard-response,46,657789,0.0-7.0-2.3-0.3-1.12-0.12,,,,,,,63850434e9e4c94af1c53e23,11:03:23,15/01/2024
,"<p style=""font-size:14rem;font-weight:400;"">5</p>",,fwdspan,number,VktJXsubevZxPgonw3b0scISkjR2,html-keyboard-response,47,658804,0.0-7.0-2.3-0.3-1.13-0.13,,,,,,,63850434e9e4c94af1c53e23,11:03:23,15/01/2024
,"<p style=""font-size:14rem;font-weight:400;"">4</p>",,fwdspan,number,VktJXsubevZxPgonw3b0scISkjR2,html-keyboard-response,48,659816,0.0-7.0-2.3-0.3-1.14-0.14,,,,,,,63850434e9e4c94af1c53e23,11:03:23,15/01/2024
,"<p style=""font-size:14rem;font-weight:400;"">8</p>",,fwdspan,number,VktJXsubevZxPgonw3b0scISkjR2,html-keyboard-response,49,660834,0.0-7.0-2.3-0.3-1.15-0.15,,,,,,,63850434e9e4c94af1c53e23,11:03:23,15/01/2024
,"<p style=""font-size:14rem;font-weight:400;"">3</p>",,fwdspan,number,VktJXsubevZxPgonw3b0scISkjR2,html-keyboard-response,50,661846,0.0-7.0-2.3-0.3-1.16-0.16,,,,,,,63850434e9e4c94af1c53e23,11:03:23,15/01/2024
,"<p style=""font-size:14rem;font-weight:400;"">7</p>",,fwdspan,number,VktJXsubevZxPgonw3b0scISkjR2,html-keyboard-response,51,662857,0.0-7.0-2.3-0.3-1.17-0.17,,,,,,,63850434e9e4c94af1c53e23,11:03:23,15/01/2024
,[],,fwdspan,delay,VktJXsubevZxPgonw3b0scISkjR2,html-keyboard-response,52,663425,0.0-7.0-2.3-0.3-2.3,,,,,,,63850434e9e4c94af1c53e23,11:03:23,15/01/2024
6642.0,"<div class = numbox><p style=""font-size:2.5rem"">What were the numbers <b>in order</b>?<br>(When you are ready to lock in your answer, press <b>ENTER</b>)</p><button id = button_1 class = ""square num-button"" onclick = ""recordClick(this)""><div class = content><div class = numbers>1</div></div></button><button id = button_2 class = ""square num-button"" onclick = ""recordClick(this)""><div class = content><div class = numbers>2</div></div></button><button id = button_3 class = ""square num-button"" onclick = ""recordClick(this)""><div class = content><div class = numbers>3</div></div></button><button id = button_4 class = ""square num-button"" onclick = ""recordClick(this)""><div class = content><div class = numbers>4</div></div></button><button id = button_5 class = ""square num-button"" onclick = ""recordClick(this)""><div class = content><div class = numbers>5</div></div></button><button id = button_6 class = ""square num-button"" onclick = ""recordClick(this)""><div class = content><div class = numbers>6</div></div></button><button id = button_7 class = ""square num-button"" onclick = ""recordClick(this)""><div class = content><div class = numbers>7</div></div></button><button id = button_8 class = ""square num-button"" onclick = ""recordClick(this)""><div class = content><div class = numbers>8</div></div></button><button id = button_9 class = ""square num-button"" onclick = ""recordClick(this)""><div class = content><div class = numbers>9</div></div></button><button class = clear_button id = ""ClearButton"" onclick = ""clearResponse()"">Clear</button><p><u><b>Current Answer:</b></u></p><div id=echoed_txt style=""font-size: 6rem; color:blue;""><b></b></div></div><br><br><br><br><br><br><br>",enter,fwdspan,response,VktJXsubevZxPgonw3b0scISkjR2,html-keyboard-response,53,670068,0.0-7.0-2.3-0.3-3.3,6.0,"[2,5,4,8,3,7]","[2,5,4,8,3,7]",1.0,"[3, 4, 5, 6, 7, 8, 8, 7, 7, 6, 7, 8]",,63850434e9e4c94af1c53e23,11:03:23,15/01/2024
,,,fwdspan,update_span,VktJXsubevZxPgonw3b0scISkjR2,call-function,54,670321,0.0-7.0-2.3-0.3-4.3,,,,,,,63850434e9e4c94af1c53e23,11:03:23,15/01/2024
1869.0,"<p style=""font-size:3rem"">Trial 5 of 12</p><br><br><br>",0,fwdspan,start_trial,VktJXsubevZxPgonw3b0scISkjR2,html-button-response,55,672191,0.0-7.0-2.4-0.4-0.4,,,,,,,63850434e9e4c94af1c53e23,11:03:23,15/01/2024
,"<p style=""font-size:14rem;font-weight:400;"">2</p>",,fwdspan,number,VktJXsubevZxPgonw3b0scISkjR2,html-keyboard-response,56,673229,0.0-7.0-2.4-0.4-1.18-0.18,,,,,,,63850434e9e4c94af1c53e23,11:03:23,15/01/2024
,"<p style=""font-size:14rem;font-weight:400;"">7</p>",,fwdspan,number,VktJXsubevZxPgonw3b0scISkjR2,html-keyboard-response,57,674242,0.0-7.0-2.4-0.4-1.19-0.19,,,,,,,63850434e9e4c94af1c53e23,11:03:23,15/01/2024
,"<p style=""font-size:14rem;font-weight:400;"">4</p>",,fwdspan,number,VktJXsubevZxPgonw3b0scISkjR2,html-keyboard-response,58,675260,0.0-7.0-2.4-0.4-1.20-0.20,,,,,,,63850434e9e4c94af1c53e23,11:03:23,15/01/2024
,"<p style=""font-size:14rem;font-weight:400;"">6</p>",,fwdspan,number,VktJXsubevZxPgonw3b0scISkjR2,html-keyboard-response,59,676273,0.0-7.0-2.4-0.4-1.21-0.21,,,,,,,63850434e9e4c94af1c53e23,11:03:23,15/01/2024
,"<p style=""font-size:14rem;font-weight:400;"">8</p>",,fwdspan,number,VktJXsubevZxPgonw3b0scISkjR2,html-keyboard-response,60,677286,0.0-7.0-2.4-0.4-1.22-0.22,,,,,,,63850434e9e4c94af1c53e23,11:03:23,15/01/2024
,"<p style=""font-size:14rem;font-weight:400;"">1</p>",,fwdspan,number,VktJXsubevZxPgonw3b0scISkjR2,html-keyboard-response,61,678302,0.0-7.0-2.4-0.4-1.23-0.23,,,,,,,63850434e9e4c94af1c53e23,11:03:23,15/01/2024
,"<p style=""font-size:14rem;font-weight:400;"">9</p>",,fwdspan,number,VktJXsubevZxPgonw3b0scISkjR2,html-keyboard-response,62,679326,0.0-7.0-2.4-0.4-1.24-0.24,,,,,,,63850434e9e4c94af1c53e23,11:03:23,15/01/2024
,[],,fwdspan,delay,VktJXsubevZxPgonw3b0scISkjR2,html-keyboard-response,63,679890,0.0-7.0-2.4-0.4-2.4,,,,,,,63850434e9e4c94af1c53e23,11:03:23,15/01/2024
10998.0,"<div class = numbox><p style=""font-size:2.5rem"">What were the numbers <b>in order</b>?<br>(When you are ready to lock in your answer, press <b>ENTER</b>)</p><button id = button_1 class = ""square num-button"" onclick = ""recordClick(this)""><div class = content><div class = numbers>1</div></div></button><button id = button_2 class = ""square num-button"" onclick = ""recordClick(this)""><div class = content><div class = numbers>2</div></div></button><button id = button_3 class = ""square num-button"" onclick = ""recordClick(this)""><div class = content><div class = numbers>3</div></div></button><button id = button_4 class = ""square num-button"" onclick = ""recordClick(this)""><div class = content><div class = numbers>4</div></div></button><button id = button_5 class = ""square num-button"" onclick = ""recordClick(this)""><div class = content><div class = numbers>5</div></div></button><button id = button_6 class = ""square num-button"" onclick = ""recordClick(this)""><div class = content><div class = numbers>6</div></div></button><button id = button_7 class = ""square num-button"" onclick = ""recordClick(this)""><div class = content><div class = numbers>7</div></div></button><button id = button_8 class = ""square num-button"" onclick = ""recordClick(this)""><div class = content><div class = numbers>8</div></div></button><button id = button_9 class = ""square num-button"" onclick = ""recordClick(this)""><div class = content><div class = numbers>9</div></div></button><button class = clear_button id = ""ClearButton"" onclick = ""clearResponse()"">Clear</button><p><u><b>Current Answer:</b></u></p><div id=echoed_txt style=""font-size: 6rem; color:blue;""><b></b></div></div><br><br><br><br><br><br><br>",enter,fwdspan,response,VktJXsubevZxPgonw3b0scISkjR2,html-keyboard-response,64,690890,0.0-7.0-2.4-0.4-3.4,7.0,"[2,7,4,6,8,1,9]","[2,7,4,6,8,1,9]",1.0,"[3, 4, 5, 6, 7, 8, 8, 7, 7, 6, 7, 8]",,63850434e9e4c94af1c53e23,11:03:23,15/01/2024
,,,fwdspan,update_span,VktJXsubevZxPgonw3b0scISkjR2,call-function,65,691153,0.0-7.0-2.4-0.4-4.4,,,,,,,63850434e9e4c94af1c53e23,11:03:23,15/01/2024
2626.0,"<p style=""font-size:3rem"">Trial 6 of 12</p><br><br><br>",0,fwdspan,start_trial,VktJXsubevZxPgonw3b0scISkjR2,html-button-response,66,693780,0.0-7.0-2.5-0.5-0.5,,,,,,,63850434e9e4c94af1c53e23,11:03:23,15/01/2024
,"<p style=""font-size:14rem;font-weight:400;"">6</p>",,fwdspan,number,VktJXsubevZxPgonw3b0scISkjR2,html-keyboard-response,67,694830,0.0-7.0-2.5-0.5-1.25-0.25,,,,,,,63850434e9e4c94af1c53e23,11:03:23,15/01/2024
,"<p style=""font-size:14rem;font-weight:400;"">9</p>",,fwdspan,number,VktJXsubevZxPgonw3b0scISkjR2,html-keyboard-response,68,695880,0.0-7.0-2.5-0.5-1.26-0.26,,,,,,,63850434e9e4c94af1c53e23,11:03:23,15/01/2024
,"<p style=""font-size:14rem;font-weight:400;"">2</p>",,fwdspan,number,VktJXsubevZxPgonw3b0scISkjR2,html-keyboard-response,69,696892,0.0-7.0-2.5-0.5-1.27-0.27,,,,,,,63850434e9e4c94af1c53e23,11:03:23,15/01/2024
,"<p style=""font-size:14rem;font-weight:400;"">8</p>",,fwdspan,number,VktJXsubevZxPgonw3b0scISkjR2,html-keyboard-response,70,697905,0.0-7.0-2.5-0.5-1.28-0.28,,,,,,,63850434e9e4c94af1c53e23,11:03:23,15/01/2024
,"<p style=""font-size:14rem;font-weight:400;"">4</p>",,fwdspan,number,VktJXsubevZxPgonw3b0scISkjR2,html-keyboard-response,71,698912,0.0-7.0-2.5-0.5-1.29-0.29,,,,,,,63850434e9e4c94af1c53e23,11:03:23,15/01/2024
,"<p style=""font-size:14rem;font-weight:400;"">7</p>",,fwdspan,number,VktJXsubevZxPgonw3b0scISkjR2,html-keyboard-response,72,699923,0.0-7.0-2.5-0.5-1.30-0.30,,,,,,,63850434e9e4c94af1c53e23,11:03:23,15/01/2024
,"<p style=""font-size:14rem;font-weight:400;"">5</p>",,fwdspan,number,VktJXsubevZxPgonw3b0scISkjR2,html-keyboard-response,73,700943,0.0-7.0-2.5-0.5-1.31-0.31,,,,,,,63850434e9e4c94af1c53e23,11:03:23,15/01/2024
,"<p style=""font-size:14rem;font-weight:400;"">3</p>",,fwdspan,number,VktJXsubevZxPgonw3b0scISkjR2,html-keyboard-response,74,701949,0.0-7.0-2.5-0.5-1.32-0.32,,,,,,,63850434e9e4c94af1c53e23,11:03:23,15/01/2024
,[],,fwdspan,delay,VktJXsubevZxPgonw3b0scISkjR2,html-keyboard-response,75,702508,0.0-7.0-2.5-0.5-2.5,,,,,,,63850434e9e4c94af1c53e23,11:03:23,15/01/2024
9275.0,"<div class = numbox><p style=""font-size:2.5rem"">What were the numbers <b>in order</b>?<br>(When you are ready to lock in your answer, press <b>ENTER</b>)</p><button id = button_1 class = ""square num-button"" onclick = ""recordClick(this)""><div class = content><div class = numbers>1</div></div></button><button id = button_2 class = ""square num-button"" onclick = ""recordClick(this)""><div class = content><div class = numbers>2</div></div></button><button id = button_3 class = ""square num-button"" onclick = ""recordClick(this)""><div class = content><div class = numbers>3</div></div></button><button id = button_4 class = ""square num-button"" onclick = ""recordClick(this)""><div class = content><div class = numbers>4</div></div></button><button id = button_5 class = ""square num-button"" onclick = ""recordClick(this)""><div class = content><div class = numbers>5</div></div></button><button id = button_6 class = ""square num-button"" onclick = ""recordClick(this)""><div class = content><div class = numbers>6</div></div></button><button id = button_7 class = ""square num-button"" onclick = ""recordClick(this)""><div class = content><div class = numbers>7</div></div></button><button id = button_8 class = ""square num-button"" onclick = ""recordClick(this)""><div class = content><div class = numbers>8</div></div></button><button id = button_9 class = ""square num-button"" onclick = ""recordClick(this)""><div class = content><div class = numbers>9</div></div></button><button class = clear_button id = ""ClearButton"" onclick = ""clearResponse()"">Clear</button><p><u><b>Current Answer:</b></u></p><div id=echoed_txt style=""font-size: 6rem; color:blue;""><b></b></div></div><br><br><br><br><br><br><br>",enter,fwdspan,response,VktJXsubevZxPgonw3b0scISkjR2,html-keyboard-response,76,711784,0.0-7.0-2.5-0.5-3.5,8.0,"[6,4,2,8,4,7,5,3]","[6,9,2,8,4,7,5,3]",0.0,"[3, 4, 5, 6, 7, 8, 8, 7, 7, 6, 7, 8]",,63850434e9e4c94af1c53e23,11:03:23,15/01/2024
,,,fwdspan,update_span,VktJXsubevZxPgonw3b0scISkjR2,call-function,77,712039,0.0-7.0-2.5-0.5-4.5,,,,,,,63850434e9e4c94af1c53e23,11:03:23,15/01/2024
1109.0,"<p style=""font-size:3rem"">Trial 7 of 12</p><br><br><br>",0,fwdspan,start_trial,VktJXsubevZxPgonw3b0scISkjR2,html-button-response,78,713148,0.0-7.0-2.6-0.6-0.6,,,,,,,63850434e9e4c94af1c53e23,11:03:23,15/01/2024
,"<p style=""font-size:14rem;font-weight:400;"">2</p>",,fwdspan,number,VktJXsubevZxPgonw3b0scISkjR2,html-keyboard-response,79,714171,0.0-7.0-2.6-0.6-1.33-0.33,,,,,,,63850434e9e4c94af1c53e23,11:03:23,15/01/2024
,"<p style=""font-size:14rem;font-weight:400;"">3</p>",,fwdspan,number,VktJXsubevZxPgonw3b0scISkjR2,html-keyboard-response,80,715201,0.0-7.0-2.6-0.6-1.34-0.34,,,,,,,63850434e9e4c94af1c53e23,11:03:23,15/01/2024
,"<p style=""font-size:14rem;font-weight:400;"">9</p>",,fwdspan,number,VktJXsubevZxPgonw3b0scISkjR2,html-keyboard-response,81,716213,0.0-7.0-2.6-0.6-1.35-0.35,,,,,,,63850434e9e4c94af1c53e23,11:03:23,15/01/2024
,"<p style=""font-size:14rem;font-weight:400;"">1</p>",,fwdspan,number,VktJXsubevZxPgonw3b0scISkjR2,html-keyboard-response,82,717226,0.0-7.0-2.6-0.6-1.36-0.36,,,,,,,63850434e9e4c94af1c53e23,11:03:23,15/01/2024
,"<p style=""font-size:14rem;font-weight:400;"">7</p>",,fwdspan,number,VktJXsubevZxPgonw3b0scISkjR2,html-keyboard-response,83,718242,0.0-7.0-2.6-0.6-1.37-0.37,,,,,,,63850434e9e4c94af1c53e23,11:03:23,15/01/2024
,"<p style=""font-size:14rem;font-weight:400;"">5</p>",,fwdspan,number,VktJXsubevZxPgonw3b0scISkjR2,html-keyboard-response,84,719261,0.0-7.0-2.6-0.6-1.38-0.38,,,,,,,63850434e9e4c94af1c53e23,11:03:23,15/01/2024
,"<p style=""font-size:14rem;font-weight:400;"">4</p>",,fwdspan,number,VktJXsubevZxPgonw3b0scISkjR2,html-keyboard-response,85,720269,0.0-7.0-2.6-0.6-1.39-0.39,,,,,,,63850434e9e4c94af1c53e23,11:03:23,15/01/2024
,"<p style=""font-size:14rem;font-weight:400;"">8</p>",,fwdspan,number,VktJXsubevZxPgonw3b0scISkjR2,html-keyboard-response,86,721288,0.0-7.0-2.6-0.6-1.40-0.40,,,,,,,63850434e9e4c94af1c53e23,11:03:23,15/01/2024
,[],,fwdspan,delay,VktJXsubevZxPgonw3b0scISkjR2,html-keyboard-response,87,721864,0.0-7.0-2.6-0.6-2.6,,,,,,,63850434e9e4c94af1c53e23,11:03:23,15/01/2024
19828.0,"<div class = numbox><p style=""font-size:2.5rem"">What were the numbers <b>in order</b>?<br>(When you are ready to lock in your answer, press <b>ENTER</b>)</p><button id = button_1 class = ""square num-button"" onclick = ""recordClick(this)""><div class = content><div class = numbers>1</div></div></button><button id = button_2 class = ""square num-button"" onclick = ""recordClick(this)""><div class = content><div class = numbers>2</div></div></button><button id = button_3 class = ""square num-button"" onclick = ""recordClick(this)""><div class = content><div class = numbers>3</div></div></button><button id = button_4 class = ""square num-button"" onclick = ""recordClick(this)""><div class = content><div class = numbers>4</div></div></button><button id = button_5 class = ""square num-button"" onclick = ""recordClick(this)""><div class = content><div class = numbers>5</div></div></button><button id = button_6 class = ""square num-button"" onclick = ""recordClick(this)""><div class = content><div class = numbers>6</div></div></button><button id = button_7 class = ""square num-button"" onclick = ""recordClick(this)""><div class = content><div class = numbers>7</div></div></button><button id = button_8 class = ""square num-button"" onclick = ""recordClick(this)""><div class = content><div class = numbers>8</div></div></button><button id = button_9 class = ""square num-button"" onclick = ""recordClick(this)""><div class = content><div class = numbers>9</div></div></button><button class = clear_button id = ""ClearButton"" onclick = ""clearResponse()"">Clear</button><p><u><b>Current Answer:</b></u></p><div id=echoed_txt style=""font-size: 6rem; color:blue;""><b></b></div></div><br><br><br><br><br><br><br>",enter,fwdspan,response,VktJXsubevZxPgonw3b0scISkjR2,html-keyboard-response,88,741692,0.0-7.0-2.6-0.6-3.6,8.0,"[2,3,7,5,4,1,4,8]","[2,3,9,1,7,5,4,8]",0.0,"[3, 4, 5, 6, 7, 8, 8, 7, 7, 6, 7, 8]",,63850434e9e4c94af1c53e23,11:03:23,15/01/2024
,,,fwdspan,update_span,VktJXsubevZxPgonw3b0scISkjR2,call-function,89,741947,0.0-7.0-2.6-0.6-4.6,,,,,,,63850434e9e4c94af1c53e23,11:03:23,15/01/2024
3795.0,"<p style=""font-size:3rem"">Trial 8 of 12</p><br><br><br>",0,fwdspan,start_trial,VktJXsubevZxPgonw3b0scISkjR2,html-button-response,90,745743,0.0-7.0-2.7-0.7-0.7,,,,,,,63850434e9e4c94af1c53e23,11:03:23,15/01/2024
,"<p style=""font-size:14rem;font-weight:400;"">8</p>",,fwdspan,number,VktJXsubevZxPgonw3b0scISkjR2,html-keyboard-response,91,746754,0.0-7.0-2.7-0.7-1.41-0.41,,,,,,,63850434e9e4c94af1c53e23,11:03:23,15/01/2024
,"<p style=""font-size:14rem;font-weight:400;"">2</p>",,fwdspan,number,VktJXsubevZxPgonw3b0scISkjR2,html-keyboard-response,92,747762,0.0-7.0-2.7-0.7-1.42-0.42,,,,,,,63850434e9e4c94af1c53e23,11:03:23,15/01/2024
,"<p style=""font-size:14rem;font-weight:400;"">4</p>",,fwdspan,number,VktJXsubevZxPgonw3b0scISkjR2,html-keyboard-response,93,748778,0.0-7.0-2.7-0.7-1.43-0.43,,,,,,,63850434e9e4c94af1c53e23,11:03:23,15/01/2024
,"<p style=""font-size:14rem;font-weight:400;"">5</p>",,fwdspan,number,VktJXsubevZxPgonw3b0scISkjR2,html-keyboard-response,94,749790,0.0-7.0-2.7-0.7-1.44-0.44,,,,,,,63850434e9e4c94af1c53e23,11:03:23,15/01/2024
,"<p style=""font-size:14rem;font-weight:400;"">9</p>",,fwdspan,number,VktJXsubevZxPgonw3b0scISkjR2,html-keyboard-response,95,750794,0.0-7.0-2.7-0.7-1.45-0.45,,,,,,,63850434e9e4c94af1c53e23,11:03:23,15/01/2024
,"<p style=""font-size:14rem;font-weight:400;"">1</p>",,fwdspan,number,VktJXsubevZxPgonw3b0scISkjR2,html-keyboard-response,96,751809,0.0-7.0-2.7-0.7-1.46-0.46,,,,,,,63850434e9e4c94af1c53e23,11:03:23,15/01/2024
,"<p style=""font-size:14rem;font-weight:400;"">6</p>",,fwdspan,number,VktJXsubevZxPgonw3b0scISkjR2,html-keyboard-response,97,752833,0.0-7.0-2.7-0.7-1.47-0.47,,,,,,,63850434e9e4c94af1c53e23,11:03:23,15/01/2024
,[],,fwdspan,delay,VktJXsubevZxPgonw3b0scISkjR2,html-keyboard-response,98,753451,0.0-7.0-2.7-0.7-2.7,,,,,,,63850434e9e4c94af1c53e23,11:03:23,15/01/2024
12864.0,"<div class = numbox><p style=""font-size:2.5rem"">What were the numbers <b>in order</b>?<br>(When you are ready to lock in your answer, press <b>ENTER</b>)</p><button id = button_1 class = ""square num-button"" onclick = ""recordClick(this)""><div class = content><div class = numbers>1</div></div></button><button id = button_2 class = ""square num-button"" onclick = ""recordClick(this)""><div class = content><div class = numbers>2</div></div></button><button id = button_3 class = ""square num-button"" onclick = ""recordClick(this)""><div class = content><div class = numbers>3</div></div></button><button id = button_4 class = ""square num-button"" onclick = ""recordClick(this)""><div class = content><div class = numbers>4</div></div></button><button id = button_5 class = ""square num-button"" onclick = ""recordClick(this)""><div class = content><div class = numbers>5</div></div></button><button id = button_6 class = ""square num-button"" onclick = ""recordClick(this)""><div class = content><div class = numbers>6</div></div></button><button id = button_7 class = ""square num-button"" onclick = ""recordClick(this)""><div class = content><div class = numbers>7</div></div></button><button id = button_8 class = ""square num-button"" onclick = ""recordClick(this)""><div class = content><div class = numbers>8</div></div></button><button id = button_9 class = ""square num-button"" onclick = ""recordClick(this)""><div class = content><div class = numbers>9</div></div></button><button class = clear_button id = ""ClearButton"" onclick = ""clearResponse()"">Clear</button><p><u><b>Current Answer:</b></u></p><div id=echoed_txt style=""font-size: 6rem; color:blue;""><b></b></div></div><br><br><br><br><br><br><br>",enter,fwdspan,response,VktJXsubevZxPgonw3b0scISkjR2,html-keyboard-response,99,766317,0.0-7.0-2.7-0.7-3.7,7.0,"[4,5,9,2,8]","[8,2,4,5,9,1,6]",0.0,"[3, 4, 5, 6, 7, 8, 8, 7, 7, 6, 7, 8]",,63850434e9e4c94af1c53e23,11:03:23,15/01/2024
,,,fwdspan,update_span,VktJXsubevZxPgonw3b0scISkjR2,call-function,100,766581,0.0-7.0-2.7-0.7-4.7,,,,,,,63850434e9e4c94af1c53e23,11:03:23,15/01/2024
1014.0,"<p style=""font-size:3rem"">Trial 9 of 12</p><br><br><br>",0,fwdspan,start_trial,VktJXsubevZxPgonw3b0scISkjR2,html-button-response,101,767595,0.0-7.0-2.8-0.8-0.8,,,,,,,63850434e9e4c94af1c53e23,11:03:23,15/01/2024
,"<p style=""font-size:14rem;font-weight:400;"">7</p>",,fwdspan,number,VktJXsubevZxPgonw3b0scISkjR2,html-keyboard-response,102,768622,0.0-7.0-2.8-0.8-1.48-0.48,,,,,,,63850434e9e4c94af1c53e23,11:03:23,15/01/2024
,"<p style=""font-size:14rem;font-weight:400;"">9</p>",,fwdspan,number,VktJXsubevZxPgonw3b0scISkjR2,html-keyboard-response,103,769638,0.0-7.0-2.8-0.8-1.49-0.49,,,,,,,63850434e9e4c94af1c53e23,11:03:23,15/01/2024
,"<p style=""font-size:14rem;font-weight:400;"">2</p>",,fwdspan,number,VktJXsubevZxPgonw3b0scISkjR2,html-keyboard-response,104,770662,0.0-7.0-2.8-0.8-1.50-0.50,,,,,,,63850434e9e4c94af1c53e23,11:03:23,15/01/2024
,"<p style=""font-size:14rem;font-weight:400;"">5</p>",,fwdspan,number,VktJXsubevZxPgonw3b0scISkjR2,html-keyboard-response,105,771691,0.0-7.0-2.8-0.8-1.51-0.51,,,,,,,63850434e9e4c94af1c53e23,11:03:23,15/01/2024
,"<p style=""font-size:14rem;font-weight:400;"">3</p>",,fwdspan,number,VktJXsubevZxPgonw3b0scISkjR2,html-keyboard-response,106,772694,0.0-7.0-2.8-0.8-1.52-0.52,,,,,,,63850434e9e4c94af1c53e23,11:03:23,15/01/2024
,"<p style=""font-size:14rem;font-weight:400;"">8</p>",,fwdspan,number,VktJXsubevZxPgonw3b0scISkjR2,html-keyboard-response,107,773724,0.0-7.0-2.8-0.8-1.53-0.53,,,,,,,63850434e9e4c94af1c53e23,11:03:23,15/01/2024
,"<p style=""font-size:14rem;font-weight:400;"">6</p>",,fwdspan,number,VktJXsubevZxPgonw3b0scISkjR2,html-keyboard-response,108,774740,0.0-7.0-2.8-0.8-1.54-0.54,,,,,,,63850434e9e4c94af1c53e23,11:03:23,15/01/2024
,[],,fwdspan,delay,VktJXsubevZxPgonw3b0scISkjR2,html-keyboard-response,109,775317,0.0-7.0-2.8-0.8-2.8,,,,,,,63850434e9e4c94af1c53e23,11:03:23,15/01/2024
13040.0,"<div class = numbox><p style=""font-size:2.5rem"">What were the numbers <b>in order</b>?<br>(When you are ready to lock in your answer, press <b>ENTER</b>)</p><button id = button_1 class = ""square num-button"" onclick = ""recordClick(this)""><div class = content><div class = numbers>1</div></div></button><button id = button_2 class = ""square num-button"" onclick = ""recordClick(this)""><div class = content><div class = numbers>2</div></div></button><button id = button_3 class = ""square num-button"" onclick = ""recordClick(this)""><div class = content><div class = numbers>3</div></div></button><button id = button_4 class = ""square num-button"" onclick = ""recordClick(this)""><div class = content><div class = numbers>4</div></div></button><button id = button_5 class = ""square num-button"" onclick = ""recordClick(this)""><div class = content><div class = numbers>5</div></div></button><button id = button_6 class = ""square num-button"" onclick = ""recordClick(this)""><div class = content><div class = numbers>6</div></div></button><button id = button_7 class = ""square num-button"" onclick = ""recordClick(this)""><div class = content><div class = numbers>7</div></div></button><button id = button_8 class = ""square num-button"" onclick = ""recordClick(this)""><div class = content><div class = numbers>8</div></div></button><button id = button_9 class = ""square num-button"" onclick = ""recordClick(this)""><div class = content><div class = numbers>9</div></div></button><button class = clear_button id = ""ClearButton"" onclick = ""clearResponse()"">Clear</button><p><u><b>Current Answer:</b></u></p><div id=echoed_txt style=""font-size: 6rem; color:blue;""><b></b></div></div><br><br><br><br><br><br><br>",enter,fwdspan,response,VktJXsubevZxPgonw3b0scISkjR2,html-keyboard-response,110,788357,0.0-7.0-2.8-0.8-3.8,7.0,"[2,9,7,5,3,8,6]","[7,9,2,5,3,8,6]",0.0,"[3, 4, 5, 6, 7, 8, 8, 7, 7, 6, 7, 8]",,63850434e9e4c94af1c53e23,11:03:23,15/01/2024
,,,fwdspan,update_span,VktJXsubevZxPgonw3b0scISkjR2,call-function,111,788617,0.0-7.0-2.8-0.8-4.8,,,,,,,63850434e9e4c94af1c53e23,11:03:23,15/01/2024
3620.0,"<p style=""font-size:3rem"">Trial 10 of 12</p><br><br><br>",0,fwdspan,start_trial,VktJXsubevZxPgonw3b0scISkjR2,html-button-response,112,792237,0.0-7.0-2.9-0.9-0.9,,,,,,,63850434e9e4c94af1c53e23,11:03:23,15/01/2024
,"<p style=""font-size:14rem;font-weight:400;"">9</p>",,fwdspan,number,VktJXsubevZxPgonw3b0scISkjR2,html-keyboard-response,113,793264,0.0-7.0-2.9-0.9-1.55-0.55,,,,,,,63850434e9e4c94af1c53e23,11:03:23,15/01/2024
,"<p style=""font-size:14rem;font-weight:400;"">5</p>",,fwdspan,number,VktJXsubevZxPgonw3b0scISkjR2,html-keyboard-response,114,794267,0.0-7.0-2.9-0.9-1.56-0.56,,,,,,,63850434e9e4c94af1c53e23,11:03:23,15/01/2024
,"<p style=""font-size:14rem;font-weight:400;"">8</p>",,fwdspan,number,VktJXsubevZxPgonw3b0scISkjR2,html-keyboard-response,115,795278,0.0-7.0-2.9-0.9-1.57-0.57,,,,,,,63850434e9e4c94af1c53e23,11:03:23,15/01/2024
,"<p style=""font-size:14rem;font-weight:400;"">1</p>",,fwdspan,number,VktJXsubevZxPgonw3b0scISkjR2,html-keyboard-response,116,796284,0.0-7.0-2.9-0.9-1.58-0.58,,,,,,,63850434e9e4c94af1c53e23,11:03:23,15/01/2024
,"<p style=""font-size:14rem;font-weight:400;"">2</p>",,fwdspan,number,VktJXsubevZxPgonw3b0scISkjR2,html-keyboard-response,117,797298,0.0-7.0-2.9-0.9-1.59-0.59,,,,,,,63850434e9e4c94af1c53e23,11:03:23,15/01/2024
,"<p style=""font-size:14rem;font-weight:400;"">3</p>",,fwdspan,number,VktJXsubevZxPgonw3b0scISkjR2,html-keyboard-response,118,798379,0.0-7.0-2.9-0.9-1.60-0.60,,,,,,,63850434e9e4c94af1c53e23,11:03:23,15/01/2024
,[],,fwdspan,delay,VktJXsubevZxPgonw3b0scISkjR2,html-keyboard-response,119,798939,0.0-7.0-2.9-0.9-2.9,,,,,,,63850434e9e4c94af1c53e23,11:03:23,15/01/2024
6824.0,"<div class = numbox><p style=""font-size:2.5rem"">What were the numbers <b>in order</b>?<br>(When you are ready to lock in your answer, press <b>ENTER</b>)</p><button id = button_1 class = ""square num-button"" onclick = ""recordClick(this)""><div class = content><div class = numbers>1</div></div></button><button id = button_2 class = ""square num-button"" onclick = ""recordClick(this)""><div class = content><div class = numbers>2</div></div></button><button id = button_3 class = ""square num-button"" onclick = ""recordClick(this)""><div class = content><div class = numbers>3</div></div></button><button id = button_4 class = ""square num-button"" onclick = ""recordClick(this)""><div class = content><div class = numbers>4</div></div></button><button id = button_5 class = ""square num-button"" onclick = ""recordClick(this)""><div class = content><div class = numbers>5</div></div></button><button id = button_6 class = ""square num-button"" onclick = ""recordClick(this)""><div class = content><div class = numbers>6</div></div></button><button id = button_7 class = ""square num-button"" onclick = ""recordClick(this)""><div class = content><div class = numbers>7</div></div></button><button id = button_8 class = ""square num-button"" onclick = ""recordClick(this)""><div class = content><div class = numbers>8</div></div></button><button id = button_9 class = ""square num-button"" onclick = ""recordClick(this)""><div class = content><div class = numbers>9</div></div></button><button class = clear_button id = ""ClearButton"" onclick = ""clearResponse()"">Clear</button><p><u><b>Current Answer:</b></u></p><div id=echoed_txt style=""font-size: 6rem; color:blue;""><b></b></div></div><br><br><br><br><br><br><br>",enter,fwdspan,response,VktJXsubevZxPgonw3b0scISkjR2,html-keyboard-response,120,805765,0.0-7.0-2.9-0.9-3.9,6.0,"[9,5,8,1,2,3]","[9,5,8,1,2,3]",1.0,"[3, 4, 5, 6, 7, 8, 8, 7, 7, 6, 7, 8]",,63850434e9e4c94af1c53e23,11:03:23,15/01/2024
,,,fwdspan,update_span,VktJXsubevZxPgonw3b0scISkjR2,call-function,121,806031,0.0-7.0-2.9-0.9-4.9,,,,,,,63850434e9e4c94af1c53e23,11:03:23,15/01/2024
1684.0,"<p style=""font-size:3rem"">Trial 11 of 12</p><br><br><br>",0,fwdspan,start_trial,VktJXsubevZxPgonw3b0scISkjR2,html-button-response,122,807716,0.0-7.0-2.10-0.10-0.10,,,,,,,63850434e9e4c94af1c53e23,11:03:23,15/01/2024
,"<p style=""font-size:14rem;font-weight:400;"">7</p>",,fwdspan,number,VktJXsubevZxPgonw3b0scISkjR2,html-keyboard-response,123,808727,0.0-7.0-2.10-0.10-1.61-0.61,,,,,,,63850434e9e4c94af1c53e23,11:03:23,15/01/2024
,"<p style=""font-size:14rem;font-weight:400;"">3</p>",,fwdspan,number,VktJXsubevZxPgonw3b0scISkjR2,html-keyboard-response,124,809738,0.0-7.0-2.10-0.10-1.62-0.62,,,,,,,63850434e9e4c94af1c53e23,11:03:23,15/01/2024
,"<p style=""font-size:14rem;font-weight:400;"">4</p>",,fwdspan,number,VktJXsubevZxPgonw3b0scISkjR2,html-keyboard-response,125,810760,0.0-7.0-2.10-0.10-1.63-0.63,,,,,,,63850434e9e4c94af1c53e23,11:03:23,15/01/2024
,"<p style=""font-size:14rem;font-weight:400;"">8</p>",,fwdspan,number,VktJXsubevZxPgonw3b0scISkjR2,html-keyboard-response,126,811785,0.0-7.0-2.10-0.10-1.64-0.64,,,,,,,63850434e9e4c94af1c53e23,11:03:23,15/01/2024
,"<p style=""font-size:14rem;font-weight:400;"">6</p>",,fwdspan,number,VktJXsubevZxPgonw3b0scISkjR2,html-keyboard-response,127,812802,0.0-7.0-2.10-0.10-1.65-0.65,,,,,,,63850434e9e4c94af1c53e23,11:03:23,15/01/2024
,"<p style=""font-size:14rem;font-weight:400;"">9</p>",,fwdspan,number,VktJXsubevZxPgonw3b0scISkjR2,html-keyboard-response,128,813825,0.0-7.0-2.10-0.10-1.66-0.66,,,,,,,63850434e9e4c94af1c53e23,11:03:23,15/01/2024
,"<p style=""font-size:14rem;font-weight:400;"">1</p>",,fwdspan,number,VktJXsubevZxPgonw3b0scISkjR2,html-keyboard-response,129,814839,0.0-7.0-2.10-0.10-1.67-0.67,,,,,,,63850434e9e4c94af1c53e23,11:03:23,15/01/2024
,[],,fwdspan,delay,VktJXsubevZxPgonw3b0scISkjR2,html-keyboard-response,130,815420,0.0-7.0-2.10-0.10-2.10,,,,,,,63850434e9e4c94af1c53e23,11:03:23,15/01/2024
8449.0,"<div class = numbox><p style=""font-size:2.5rem"">What were the numbers <b>in order</b>?<br>(When you are ready to lock in your answer, press <b>ENTER</b>)</p><button id = button_1 class = ""square num-button"" onclick = ""recordClick(this)""><div class = content><div class = numbers>1</div></div></button><button id = button_2 class = ""square num-button"" onclick = ""recordClick(this)""><div class = content><div class = numbers>2</div></div></button><button id = button_3 class = ""square num-button"" onclick = ""recordClick(this)""><div class = content><div class = numbers>3</div></div></button><button id = button_4 class = ""square num-button"" onclick = ""recordClick(this)""><div class = content><div class = numbers>4</div></div></button><button id = button_5 class = ""square num-button"" onclick = ""recordClick(this)""><div class = content><div class = numbers>5</div></div></button><button id = button_6 class = ""square num-button"" onclick = ""recordClick(this)""><div class = content><div class = numbers>6</div></div></button><button id = button_7 class = ""square num-button"" onclick = ""recordClick(this)""><div class = content><div class = numbers>7</div></div></button><button id = button_8 class = ""square num-button"" onclick = ""recordClick(this)""><div class = content><div class = numbers>8</div></div></button><button id = button_9 class = ""square num-button"" onclick = ""recordClick(this)""><div class = content><div class = numbers>9</div></div></button><button class = clear_button id = ""ClearButton"" onclick = ""clearResponse()"">Clear</button><p><u><b>Current Answer:</b></u></p><div id=echoed_txt style=""font-size: 6rem; color:blue;""><b></b></div></div><br><br><br><br><br><br><br>",enter,fwdspan,response,VktJXsubevZxPgonw3b0scISkjR2,html-keyboard-response,131,823870,0.0-7.0-2.10-0.10-3.10,7.0,"[7,3,4,8,6,9,1]","[7,3,4,8,6,9,1]",1.0,"[3, 4, 5, 6, 7, 8, 8, 7, 7, 6, 7, 8]",,63850434e9e4c94af1c53e23,11:03:23,15/01/2024
,,,fwdspan,update_span,VktJXsubevZxPgonw3b0scISkjR2,call-function,132,824127,0.0-7.0-2.10-0.10-4.10,,,,,,,63850434e9e4c94af1c53e23,11:03:23,15/01/2024
1288.0,"<p style=""font-size:3rem"">Trial 12 of 12</p><br><br><br>",0,fwdspan,start_trial,VktJXsubevZxPgonw3b0scISkjR2,html-button-response,133,825417,0.0-7.0-2.11-0.11-0.11,,,,,,,63850434e9e4c94af1c53e23,11:03:23,15/01/2024
,"<p style=""font-size:14rem;font-weight:400;"">3</p>",,fwdspan,number,VktJXsubevZxPgonw3b0scISkjR2,html-keyboard-response,134,826435,0.0-7.0-2.11-0.11-1.68-0.68,,,,,,,63850434e9e4c94af1c53e23,11:03:23,15/01/2024
,"<p style=""font-size:14rem;font-weight:400;"">7</p>",,fwdspan,number,VktJXsubevZxPgonw3b0scISkjR2,html-keyboard-response,135,827447,0.0-7.0-2.11-0.11-1.69-0.69,,,,,,,63850434e9e4c94af1c53e23,11:03:23,15/01/2024
,"<p style=""font-size:14rem;font-weight:400;"">6</p>",,fwdspan,number,VktJXsubevZxPgonw3b0scISkjR2,html-keyboard-response,136,828462,0.0-7.0-2.11-0.11-1.70-0.70,,,,,,,63850434e9e4c94af1c53e23,11:03:23,15/01/2024
,"<p style=""font-size:14rem;font-weight:400;"">4</p>",,fwdspan,number,VktJXsubevZxPgonw3b0scISkjR2,html-keyboard-response,137,829483,0.0-7.0-2.11-0.11-1.71-0.71,,,,,,,63850434e9e4c94af1c53e23,11:03:23,15/01/2024
,"<p style=""font-size:14rem;font-weight:400;"">1</p>",,fwdspan,number,VktJXsubevZxPgonw3b0scISkjR2,html-keyboard-response,138,830513,0.0-7.0-2.11-0.11-1.72-0.72,,,,,,,63850434e9e4c94af1c53e23,11:03:23,15/01/2024
,"<p style=""font-size:14rem;font-weight:400;"">5</p>",,fwdspan,number,VktJXsubevZxPgonw3b0scISkjR2,html-keyboard-response,139,831573,0.0-7.0-2.11-0.11-1.73-0.73,,,,,,,63850434e9e4c94af1c53e23,11:03:23,15/01/2024
,"<p style=""font-size:14rem;font-weight:400;"">8</p>",,fwdspan,number,VktJXsubevZxPgonw3b0scISkjR2,html-keyboard-response,140,832595,0.0-7.0-2.11-0.11-1.74-0.74,,,,,,,63850434e9e4c94af1c53e23,11:03:23,15/01/2024
,"<p style=""font-size:14rem;font-weight:400;"">9</p>",,fwdspan,number,VktJXsubevZxPgonw3b0scISkjR2,html-keyboard-response,141,833635,0.0-7.0-2.11-0.11-1.75-0.75,,,,,,,63850434e9e4c94af1c53e23,11:03:23,15/01/2024
,[],,fwdspan,delay,VktJXsubevZxPgonw3b0scISkjR2,html-keyboard-response,142,834207,0.0-7.0-2.11-0.11-2.11,,,,,,,63850434e9e4c94af1c53e23,11:03:23,15/01/2024
45529.0,"<div class = numbox><p style=""font-size:2.5rem"">What were the numbers <b>in order</b>?<br>(When you are ready to lock in your answer, press <b>ENTER</b>)</p><button id = button_1 class = ""square num-button"" onclick = ""recordClick(this)""><div class = content><div class = numbers>1</div></div></button><button id = button_2 class = ""square num-button"" onclick = ""recordClick(this)""><div class = content><div class = numbers>2</div></div></button><button id = button_3 class = ""square num-button"" onclick = ""recordClick(this)""><div class = content><div class = numbers>3</div></div></button><button id = button_4 class = ""square num-button"" onclick = ""recordClick(this)""><div class = content><div class = numbers>4</div></div></button><button id = button_5 class = ""square num-button"" onclick = ""recordClick(this)""><div class = content><div class = numbers>5</div></div></button><button id = button_6 class = ""square num-button"" onclick = ""recordClick(this)""><div class = content><div class = numbers>6</div></div></button><button id = button_7 class = ""square num-button"" onclick = ""recordClick(this)""><div class = content><div class = numbers>7</div></div></button><button id = button_8 class = ""square num-button"" onclick = ""recordClick(this)""><div class = content><div class = numbers>8</div></div></button><button id = button_9 class = ""square num-button"" onclick = ""recordClick(this)""><div class = content><div class = numbers>9</div></div></button><button class = clear_button id = ""ClearButton"" onclick = ""clearResponse()"">Clear</button><p><u><b>Current Answer:</b></u></p><div id=echoed_txt style=""font-size: 6rem; color:blue;""><b></b></div></div><br><br><br><br><br><br><br>",enter,fwdspan,response,VktJXsubevZxPgonw3b0scISkjR2,html-keyboard-response,143,879736,0.0-7.0-2.11-0.11-3.11,8.0,"[8,5,4,6,1,5,3,9]","[3,7,6,4,1,5,8,9]",0.0,"[3, 4, 5, 6, 7, 8, 8, 7, 7, 6, 7, 8]",,63850434e9e4c94af1c53e23,11:03:23,15/01/2024
,,,fwdspan,update_span,VktJXsubevZxPgonw3b0scISkjR2,call-function,144,880005,0.0-7.0-2.11-0.11-4.11,,,,,,,63850434e9e4c94af1c53e23,11:03:23,15/01/2024
33719.0,,{'Q0': 'Everything was explained clearly.'},fwdspan,survey,VktJXsubevZxPgonw3b0scISkjR2,lmdlab-survey-text,145,914491,0.0-7.0-3.0,,,,,,VktJXsubevZxPgonw3b0scISkjR2,63850434e9e4c94af1c53e23,11:03:23,15/01/2024
1147.0,<p><p style='font-size: 3rem'>Great work!<br><br>This completes the digit span task.</p><br><br><br>,0,fwdspan,finish,VktJXsubevZxPgonw3b0scISkjR2,html-button-response,146,915641,0.0-7.0-4.0,,,,,,,63850434e9e4c94af1c53e23,11:03:23,15/01/2024
