rt,stimulus,response,exp_name,exp_stage,test_part,subjectID,trial_type,trial_index,time_elapsed,internal_node_id,databaseID,counterbal,stim_left,stim_right,chosen_stim_left,chosen_stim_right,leftright_counter,pair,delay,response_correct,chosen_stim,confidence,value_true,text,userinteract,stim,stim1,stim2,response_longshort,prolificID,start_time,date
,"<div style=""font-size:100px;"">+</div>",,delaylearn,test,pre_fixation,b3csoiYuvzcYk7dA3Q4k5T31y3Q2,html-keyboard-response,4,39694,0.0-4.0,,,,,,,,,,,,,,,,,,,,638526640404d47424e281ff,16:54:57,27/03/2024
1804.1000000014901,"<div style=""display: flex; flex-direction: column; align-items: center; margin-top: -40px;""><div style=""display: flex; justify-content: space-between; margin-top: 33px;""><img src=""images/choice_trial_6.png"" style=""width: 408px; height: 417px; margin-right: 200px;""><img src=""images/choice_trial_12.png"" style=""width: 408px; height: 417px;""></div></div><br><br><br><br>",j,delaylearn,test,memory_choice,b3csoiYuvzcYk7dA3Q4k5T31y3Q2,html-keyboard-response,5,41503,0.0-5.0-0.0,b3csoiYuvzcYk7dA3Q4k5T31y3Q2,3.0,6.0,12.0,images/choice_trial_6.png,images/choice_trial_12.png,0.0,6.0,0.0,0.0,12.0,,,,,,,,,638526640404d47424e281ff,16:54:57,27/03/2024
,,,delaylearn,test,isi,b3csoiYuvzcYk7dA3Q4k5T31y3Q2,html-keyboard-response,6,41762,0.0-5.0-1.0,,,,,,,,,,,,,,,,,,,,638526640404d47424e281ff,16:54:57,27/03/2024
6564.0,"<div class=""center_prompt"" style=""font-family: Helvetica; font-weight: light; font-size: 48px; text-anchor: middle; color: white; opacity: 1;"">Confidence</div><br><br><br><br><div class=""center_prompt2"" style=""font-family: Helvetica; font-weight: light; font-size: 48px; text-anchor: middle; color: white; opacity: 1;"">Guess (1) –––– Low (2)  –––– Medium (3) –––– High (4)</div>",3,delaylearn,test,memory_choice_confidence,b3csoiYuvzcYk7dA3Q4k5T31y3Q2,html-keyboard-response,7,48327,0.0-5.0-2.0,b3csoiYuvzcYk7dA3Q4k5T31y3Q2,3.0,,,,,,,,,,3,,,,,,,,638526640404d47424e281ff,16:54:57,27/03/2024
,"<div style=""font-size:100px;"">+</div>",,delaylearn,test,pre_fixation,b3csoiYuvzcYk7dA3Q4k5T31y3Q2,html-keyboard-response,8,51334,0.0-5.0-3.0,,,,,,,,,,,,,,,,,,,,638526640404d47424e281ff,16:54:57,27/03/2024
2376.800000000745,"<div style=""display: flex; flex-direction: column; align-items: center; margin-top: -40px;""><div style=""display: flex; justify-content: space-between; margin-top: 33px;""><img src=""images/choice_trial_9.png"" style=""width: 408px; height: 417px; margin-right: 200px;""><img src=""images/choice_trial_15.png"" style=""width: 408px; height: 417px;""></div></div><br><br><br><br>",f,delaylearn,test,memory_choice,b3csoiYuvzcYk7dA3Q4k5T31y3Q2,html-keyboard-response,9,53713,0.0-5.0-0.1,b3csoiYuvzcYk7dA3Q4k5T31y3Q2,3.0,9.0,15.0,images/choice_trial_9.png,images/choice_trial_15.png,1.0,3.0,1.0,0.0,9.0,,,,,,,,,638526640404d47424e281ff,16:54:57,27/03/2024
,,,delaylearn,test,isi,b3csoiYuvzcYk7dA3Q4k5T31y3Q2,html-keyboard-response,10,53977,0.0-5.0-1.1,,,,,,,,,,,,,,,,,,,,638526640404d47424e281ff,16:54:57,27/03/2024
2977.7999999970198,"<div class=""center_prompt"" style=""font-family: Helvetica; font-weight: light; font-size: 48px; text-anchor: middle; color: white; opacity: 1;"">Confidence</div><br><br><br><br><div class=""center_prompt2"" style=""font-family: Helvetica; font-weight: light; font-size: 48px; text-anchor: middle; color: white; opacity: 1;"">Guess (1) –––– Low (2)  –––– Medium (3) –––– High (4)</div>",3,delaylearn,test,memory_choice_confidence,b3csoiYuvzcYk7dA3Q4k5T31y3Q2,html-keyboard-response,11,56956,0.0-5.0-2.1,b3csoiYuvzcYk7dA3Q4k5T31y3Q2,3.0,,,,,,,,,,3,,,,,,,,638526640404d47424e281ff,16:54:57,27/03/2024
,"<div style=""font-size:100px;"">+</div>",,delaylearn,test,pre_fixation,b3csoiYuvzcYk7dA3Q4k5T31y3Q2,html-keyboard-response,12,59961,0.0-5.0-3.1,,,,,,,,,,,,,,,,,,,,638526640404d47424e281ff,16:54:57,27/03/2024
1496.300000000745,"<div style=""display: flex; flex-direction: column; align-items: center; margin-top: -40px;""><div style=""display: flex; justify-content: space-between; margin-top: 33px;""><img src=""images/choice_trial_3.png"" style=""width: 408px; height: 417px; margin-right: 200px;""><img src=""images/choice_trial_16.png"" style=""width: 408px; height: 417px;""></div></div><br><br><br><br>",j,delaylearn,test,memory_choice,b3csoiYuvzcYk7dA3Q4k5T31y3Q2,html-keyboard-response,13,61461,0.0-5.0-0.2,b3csoiYuvzcYk7dA3Q4k5T31y3Q2,3.0,3.0,16.0,images/choice_trial_3.png,images/choice_trial_16.png,1.0,5.0,0.0,1.0,16.0,,,,,,,,,638526640404d47424e281ff,16:54:57,27/03/2024
,,,delaylearn,test,isi,b3csoiYuvzcYk7dA3Q4k5T31y3Q2,html-keyboard-response,14,61728,0.0-5.0-1.2,,,,,,,,,,,,,,,,,,,,638526640404d47424e281ff,16:54:57,27/03/2024
1977.800000000745,"<div class=""center_prompt"" style=""font-family: Helvetica; font-weight: light; font-size: 48px; text-anchor: middle; color: white; opacity: 1;"">Confidence</div><br><br><br><br><div class=""center_prompt2"" style=""font-family: Helvetica; font-weight: light; font-size: 48px; text-anchor: middle; color: white; opacity: 1;"">Guess (1) –––– Low (2)  –––– Medium (3) –––– High (4)</div>",2,delaylearn,test,memory_choice_confidence,b3csoiYuvzcYk7dA3Q4k5T31y3Q2,html-keyboard-response,15,63707,0.0-5.0-2.2,b3csoiYuvzcYk7dA3Q4k5T31y3Q2,3.0,,,,,,,,,,2,,,,,,,,638526640404d47424e281ff,16:54:57,27/03/2024
,"<div style=""font-size:100px;"">+</div>",,delaylearn,test,pre_fixation,b3csoiYuvzcYk7dA3Q4k5T31y3Q2,html-keyboard-response,16,66719,0.0-5.0-3.2,,,,,,,,,,,,,,,,,,,,638526640404d47424e281ff,16:54:57,27/03/2024
2249.699999999255,"<div style=""display: flex; flex-direction: column; align-items: center; margin-top: -40px;""><div style=""display: flex; justify-content: space-between; margin-top: 33px;""><img src=""images/choice_trial_2.png"" style=""width: 408px; height: 417px; margin-right: 200px;""><img src=""images/choice_trial_11.png"" style=""width: 408px; height: 417px;""></div></div><br><br><br><br>",j,delaylearn,test,memory_choice,b3csoiYuvzcYk7dA3Q4k5T31y3Q2,html-keyboard-response,17,68972,0.0-5.0-0.3,b3csoiYuvzcYk7dA3Q4k5T31y3Q2,3.0,2.0,11.0,images/choice_trial_2.png,images/choice_trial_11.png,1.0,4.0,0.0,1.0,11.0,,,,,,,,,638526640404d47424e281ff,16:54:57,27/03/2024
,,,delaylearn,test,isi,b3csoiYuvzcYk7dA3Q4k5T31y3Q2,html-keyboard-response,18,69226,0.0-5.0-1.3,,,,,,,,,,,,,,,,,,,,638526640404d47424e281ff,16:54:57,27/03/2024
1631.6000000014901,"<div class=""center_prompt"" style=""font-family: Helvetica; font-weight: light; font-size: 48px; text-anchor: middle; color: white; opacity: 1;"">Confidence</div><br><br><br><br><div class=""center_prompt2"" style=""font-family: Helvetica; font-weight: light; font-size: 48px; text-anchor: middle; color: white; opacity: 1;"">Guess (1) –––– Low (2)  –––– Medium (3) –––– High (4)</div>",3,delaylearn,test,memory_choice_confidence,b3csoiYuvzcYk7dA3Q4k5T31y3Q2,html-keyboard-response,19,70858,0.0-5.0-2.3,b3csoiYuvzcYk7dA3Q4k5T31y3Q2,3.0,,,,,,,,,,3,,,,,,,,638526640404d47424e281ff,16:54:57,27/03/2024
,"<div style=""font-size:100px;"">+</div>",,delaylearn,test,pre_fixation,b3csoiYuvzcYk7dA3Q4k5T31y3Q2,html-keyboard-response,20,73886,0.0-5.0-3.3,,,,,,,,,,,,,,,,,,,,638526640404d47424e281ff,16:54:57,27/03/2024
391.80000000074506,"<div style=""display: flex; flex-direction: column; align-items: center; margin-top: -40px;""><div style=""display: flex; justify-content: space-between; margin-top: 33px;""><img src=""images/choice_trial_13.png"" style=""width: 408px; height: 417px; margin-right: 200px;""><img src=""images/choice_trial_10.png"" style=""width: 408px; height: 417px;""></div></div><br><br><br><br>",f,delaylearn,test,memory_choice,b3csoiYuvzcYk7dA3Q4k5T31y3Q2,html-keyboard-response,21,74282,0.0-5.0-0.4,b3csoiYuvzcYk7dA3Q4k5T31y3Q2,3.0,13.0,10.0,images/choice_trial_13.png,images/choice_trial_10.png,0.0,2.0,1.0,1.0,13.0,,,,,,,,,638526640404d47424e281ff,16:54:57,27/03/2024
,,,delaylearn,test,isi,b3csoiYuvzcYk7dA3Q4k5T31y3Q2,html-keyboard-response,22,74536,0.0-5.0-1.4,,,,,,,,,,,,,,,,,,,,638526640404d47424e281ff,16:54:57,27/03/2024
1604.8999999985099,"<div class=""center_prompt"" style=""font-family: Helvetica; font-weight: light; font-size: 48px; text-anchor: middle; color: white; opacity: 1;"">Confidence</div><br><br><br><br><div class=""center_prompt2"" style=""font-family: Helvetica; font-weight: light; font-size: 48px; text-anchor: middle; color: white; opacity: 1;"">Guess (1) –––– Low (2)  –––– Medium (3) –––– High (4)</div>",4,delaylearn,test,memory_choice_confidence,b3csoiYuvzcYk7dA3Q4k5T31y3Q2,html-keyboard-response,23,76142,0.0-5.0-2.4,b3csoiYuvzcYk7dA3Q4k5T31y3Q2,3.0,,,,,,,,,,4,,,,,,,,638526640404d47424e281ff,16:54:57,27/03/2024
,"<div style=""font-size:100px;"">+</div>",,delaylearn,test,pre_fixation,b3csoiYuvzcYk7dA3Q4k5T31y3Q2,html-keyboard-response,24,79150,0.0-5.0-3.4,,,,,,,,,,,,,,,,,,,,638526640404d47424e281ff,16:54:57,27/03/2024
465.3999999985099,"<div style=""display: flex; flex-direction: column; align-items: center; margin-top: -40px;""><div style=""display: flex; justify-content: space-between; margin-top: 33px;""><img src=""images/choice_trial_8.png"" style=""width: 408px; height: 417px; margin-right: 200px;""><img src=""images/choice_trial_14.png"" style=""width: 408px; height: 417px;""></div></div><br><br><br><br>",j,delaylearn,test,memory_choice,b3csoiYuvzcYk7dA3Q4k5T31y3Q2,html-keyboard-response,25,79619,0.0-5.0-0.5,b3csoiYuvzcYk7dA3Q4k5T31y3Q2,3.0,8.0,14.0,images/choice_trial_8.png,images/choice_trial_14.png,1.0,1.0,1.0,1.0,14.0,,,,,,,,,638526640404d47424e281ff,16:54:57,27/03/2024
,,,delaylearn,test,isi,b3csoiYuvzcYk7dA3Q4k5T31y3Q2,html-keyboard-response,26,79883,0.0-5.0-1.5,,,,,,,,,,,,,,,,,,,,638526640404d47424e281ff,16:54:57,27/03/2024
1373.800000000745,"<div class=""center_prompt"" style=""font-family: Helvetica; font-weight: light; font-size: 48px; text-anchor: middle; color: white; opacity: 1;"">Confidence</div><br><br><br><br><div class=""center_prompt2"" style=""font-family: Helvetica; font-weight: light; font-size: 48px; text-anchor: middle; color: white; opacity: 1;"">Guess (1) –––– Low (2)  –––– Medium (3) –––– High (4)</div>",3,delaylearn,test,memory_choice_confidence,b3csoiYuvzcYk7dA3Q4k5T31y3Q2,html-keyboard-response,27,81258,0.0-5.0-2.5,b3csoiYuvzcYk7dA3Q4k5T31y3Q2,3.0,,,,,,,,,,3,,,,,,,,638526640404d47424e281ff,16:54:57,27/03/2024
,"<div style=""font-size:100px;"">+</div>",,delaylearn,test,pre_fixation,b3csoiYuvzcYk7dA3Q4k5T31y3Q2,html-keyboard-response,28,84272,0.0-5.0-3.5,,,,,,,,,,,,,,,,,,,,638526640404d47424e281ff,16:54:57,27/03/2024
369.30000000074506,"<div style=""display: flex; flex-direction: column; align-items: center; margin-top: -40px;""><div style=""display: flex; justify-content: space-between; margin-top: 33px;""><img src=""images/choice_trial_3.png"" style=""width: 408px; height: 417px; margin-right: 200px;""><img src=""images/choice_trial_11.png"" style=""width: 408px; height: 417px;""></div></div><br><br><br><br>",f,delaylearn,test,memory_choice,b3csoiYuvzcYk7dA3Q4k5T31y3Q2,html-keyboard-response,29,84645,0.0-5.0-0.6,b3csoiYuvzcYk7dA3Q4k5T31y3Q2,3.0,3.0,11.0,images/choice_trial_3.png,images/choice_trial_11.png,1.0,45.0,0.0,0.0,3.0,,,,,,,,,638526640404d47424e281ff,16:54:57,27/03/2024
,,,delaylearn,test,isi,b3csoiYuvzcYk7dA3Q4k5T31y3Q2,html-keyboard-response,30,84901,0.0-5.0-1.6,,,,,,,,,,,,,,,,,,,,638526640404d47424e281ff,16:54:57,27/03/2024
1864.699999999255,"<div class=""center_prompt"" style=""font-family: Helvetica; font-weight: light; font-size: 48px; text-anchor: middle; color: white; opacity: 1;"">Confidence</div><br><br><br><br><div class=""center_prompt2"" style=""font-family: Helvetica; font-weight: light; font-size: 48px; text-anchor: middle; color: white; opacity: 1;"">Guess (1) –––– Low (2)  –––– Medium (3) –––– High (4)</div>",4,delaylearn,test,memory_choice_confidence,b3csoiYuvzcYk7dA3Q4k5T31y3Q2,html-keyboard-response,31,86767,0.0-5.0-2.6,b3csoiYuvzcYk7dA3Q4k5T31y3Q2,3.0,,,,,,,,,,4,,,,,,,,638526640404d47424e281ff,16:54:57,27/03/2024
,"<div style=""font-size:100px;"">+</div>",,delaylearn,test,pre_fixation,b3csoiYuvzcYk7dA3Q4k5T31y3Q2,html-keyboard-response,32,89775,0.0-5.0-3.6,,,,,,,,,,,,,,,,,,,,638526640404d47424e281ff,16:54:57,27/03/2024
1363.2999999970198,"<div style=""display: flex; flex-direction: column; align-items: center; margin-top: -40px;""><div style=""display: flex; justify-content: space-between; margin-top: 33px;""><img src=""images/choice_trial_14.png"" style=""width: 408px; height: 417px; margin-right: 200px;""><img src=""images/choice_trial_10.png"" style=""width: 408px; height: 417px;""></div></div><br><br><br><br>",j,delaylearn,test,memory_choice,b3csoiYuvzcYk7dA3Q4k5T31y3Q2,html-keyboard-response,33,91141,0.0-5.0-0.7,b3csoiYuvzcYk7dA3Q4k5T31y3Q2,3.0,14.0,10.0,images/choice_trial_14.png,images/choice_trial_10.png,0.0,12.0,1.0,0.0,10.0,,,,,,,,,638526640404d47424e281ff,16:54:57,27/03/2024
,,,delaylearn,test,isi,b3csoiYuvzcYk7dA3Q4k5T31y3Q2,html-keyboard-response,34,91400,0.0-5.0-1.7,,,,,,,,,,,,,,,,,,,,638526640404d47424e281ff,16:54:57,27/03/2024
4767.699999999255,"<div class=""center_prompt"" style=""font-family: Helvetica; font-weight: light; font-size: 48px; text-anchor: middle; color: white; opacity: 1;"">Confidence</div><br><br><br><br><div class=""center_prompt2"" style=""font-family: Helvetica; font-weight: light; font-size: 48px; text-anchor: middle; color: white; opacity: 1;"">Guess (1) –––– Low (2)  –––– Medium (3) –––– High (4)</div>",3,delaylearn,test,memory_choice_confidence,b3csoiYuvzcYk7dA3Q4k5T31y3Q2,html-keyboard-response,35,96169,0.0-5.0-2.7,b3csoiYuvzcYk7dA3Q4k5T31y3Q2,3.0,,,,,,,,,,3,,,,,,,,638526640404d47424e281ff,16:54:57,27/03/2024
,"<div style=""font-size:100px;"">+</div>",,delaylearn,test,pre_fixation,b3csoiYuvzcYk7dA3Q4k5T31y3Q2,html-keyboard-response,36,99181,0.0-5.0-3.7,,,,,,,,,,,,,,,,,,,,638526640404d47424e281ff,16:54:57,27/03/2024
473.0,"<div style=""display: flex; flex-direction: column; align-items: center; margin-top: -40px;""><div style=""display: flex; justify-content: space-between; margin-top: 33px;""><img src=""images/choice_trial_9.png"" style=""width: 408px; height: 417px; margin-right: 200px;""><img src=""images/choice_trial_13.png"" style=""width: 408px; height: 417px;""></div></div><br><br><br><br>",j,delaylearn,test,memory_choice,b3csoiYuvzcYk7dA3Q4k5T31y3Q2,html-keyboard-response,37,99659,0.0-5.0-0.8,b3csoiYuvzcYk7dA3Q4k5T31y3Q2,3.0,9.0,13.0,images/choice_trial_9.png,images/choice_trial_13.png,1.0,23.0,1.0,1.0,13.0,,,,,,,,,638526640404d47424e281ff,16:54:57,27/03/2024
,,,delaylearn,test,isi,b3csoiYuvzcYk7dA3Q4k5T31y3Q2,html-keyboard-response,38,99923,0.0-5.0-1.8,,,,,,,,,,,,,,,,,,,,638526640404d47424e281ff,16:54:57,27/03/2024
3418.10000000149,"<div class=""center_prompt"" style=""font-family: Helvetica; font-weight: light; font-size: 48px; text-anchor: middle; color: white; opacity: 1;"">Confidence</div><br><br><br><br><div class=""center_prompt2"" style=""font-family: Helvetica; font-weight: light; font-size: 48px; text-anchor: middle; color: white; opacity: 1;"">Guess (1) –––– Low (2)  –––– Medium (3) –––– High (4)</div>",3,delaylearn,test,memory_choice_confidence,b3csoiYuvzcYk7dA3Q4k5T31y3Q2,html-keyboard-response,39,103342,0.0-5.0-2.8,b3csoiYuvzcYk7dA3Q4k5T31y3Q2,3.0,,,,,,,,,,3,,,,,,,,638526640404d47424e281ff,16:54:57,27/03/2024
,"<div style=""font-size:100px;"">+</div>",,delaylearn,test,pre_fixation,b3csoiYuvzcYk7dA3Q4k5T31y3Q2,html-keyboard-response,40,106356,0.0-5.0-3.8,,,,,,,,,,,,,,,,,,,,638526640404d47424e281ff,16:54:57,27/03/2024
398.80000000074506,"<div style=""display: flex; flex-direction: column; align-items: center; margin-top: -40px;""><div style=""display: flex; justify-content: space-between; margin-top: 33px;""><img src=""images/choice_trial_16.png"" style=""width: 408px; height: 417px; margin-right: 200px;""><img src=""images/choice_trial_12.png"" style=""width: 408px; height: 417px;""></div></div><br><br><br><br>",j,delaylearn,test,memory_choice,b3csoiYuvzcYk7dA3Q4k5T31y3Q2,html-keyboard-response,41,106758,0.0-5.0-0.9,b3csoiYuvzcYk7dA3Q4k5T31y3Q2,3.0,16.0,12.0,images/choice_trial_16.png,images/choice_trial_12.png,0.0,56.0,0.0,0.0,12.0,,,,,,,,,638526640404d47424e281ff,16:54:57,27/03/2024
,,,delaylearn,test,isi,b3csoiYuvzcYk7dA3Q4k5T31y3Q2,html-keyboard-response,42,107014,0.0-5.0-1.9,,,,,,,,,,,,,,,,,,,,638526640404d47424e281ff,16:54:57,27/03/2024
1315.5,"<div class=""center_prompt"" style=""font-family: Helvetica; font-weight: light; font-size: 48px; text-anchor: middle; color: white; opacity: 1;"">Confidence</div><br><br><br><br><div class=""center_prompt2"" style=""font-family: Helvetica; font-weight: light; font-size: 48px; text-anchor: middle; color: white; opacity: 1;"">Guess (1) –––– Low (2)  –––– Medium (3) –––– High (4)</div>",4,delaylearn,test,memory_choice_confidence,b3csoiYuvzcYk7dA3Q4k5T31y3Q2,html-keyboard-response,43,108330,0.0-5.0-2.9,b3csoiYuvzcYk7dA3Q4k5T31y3Q2,3.0,,,,,,,,,,4,,,,,,,,638526640404d47424e281ff,16:54:57,27/03/2024
,"<div style=""font-size:100px;"">+</div>",,delaylearn,test,pre_fixation,b3csoiYuvzcYk7dA3Q4k5T31y3Q2,html-keyboard-response,44,111341,0.0-5.0-3.9,,,,,,,,,,,,,,,,,,,,638526640404d47424e281ff,16:54:57,27/03/2024
2064.099999997765,"<div style=""display: flex; flex-direction: column; align-items: center; margin-top: -40px;""><div style=""display: flex; justify-content: space-between; margin-top: 33px;""><img src=""images/choice_trial_15.png"" style=""width: 408px; height: 417px; margin-right: 200px;""><img src=""images/choice_trial_8.png"" style=""width: 408px; height: 417px;""></div></div><br><br><br><br>",j,delaylearn,test,memory_choice,b3csoiYuvzcYk7dA3Q4k5T31y3Q2,html-keyboard-response,45,113407,0.0-5.0-0.10,b3csoiYuvzcYk7dA3Q4k5T31y3Q2,3.0,15.0,8.0,images/choice_trial_15.png,images/choice_trial_8.png,0.0,31.0,1.0,0.0,8.0,,,,,,,,,638526640404d47424e281ff,16:54:57,27/03/2024
,,,delaylearn,test,isi,b3csoiYuvzcYk7dA3Q4k5T31y3Q2,html-keyboard-response,46,113668,0.0-5.0-1.10,,,,,,,,,,,,,,,,,,,,638526640404d47424e281ff,16:54:57,27/03/2024
784.0,"<div class=""center_prompt"" style=""font-family: Helvetica; font-weight: light; font-size: 48px; text-anchor: middle; color: white; opacity: 1;"">Confidence</div><br><br><br><br><div class=""center_prompt2"" style=""font-family: Helvetica; font-weight: light; font-size: 48px; text-anchor: middle; color: white; opacity: 1;"">Guess (1) –––– Low (2)  –––– Medium (3) –––– High (4)</div>",4,delaylearn,test,memory_choice_confidence,b3csoiYuvzcYk7dA3Q4k5T31y3Q2,html-keyboard-response,47,114453,0.0-5.0-2.10,b3csoiYuvzcYk7dA3Q4k5T31y3Q2,3.0,,,,,,,,,,4,,,,,,,,638526640404d47424e281ff,16:54:57,27/03/2024
,"<div style=""font-size:100px;"">+</div>",,delaylearn,test,pre_fixation,b3csoiYuvzcYk7dA3Q4k5T31y3Q2,html-keyboard-response,48,117456,0.0-5.0-3.10,,,,,,,,,,,,,,,,,,,,638526640404d47424e281ff,16:54:57,27/03/2024
651.6000000014901,"<div style=""display: flex; flex-direction: column; align-items: center; margin-top: -40px;""><div style=""display: flex; justify-content: space-between; margin-top: 33px;""><img src=""images/choice_trial_2.png"" style=""width: 408px; height: 417px; margin-right: 200px;""><img src=""images/choice_trial_6.png"" style=""width: 408px; height: 417px;""></div></div><br><br><br><br>",j,delaylearn,test,memory_choice,b3csoiYuvzcYk7dA3Q4k5T31y3Q2,html-keyboard-response,49,118109,0.0-5.0-0.11,b3csoiYuvzcYk7dA3Q4k5T31y3Q2,3.0,2.0,6.0,images/choice_trial_2.png,images/choice_trial_6.png,1.0,64.0,0.0,1.0,6.0,,,,,,,,,638526640404d47424e281ff,16:54:57,27/03/2024
,,,delaylearn,test,isi,b3csoiYuvzcYk7dA3Q4k5T31y3Q2,html-keyboard-response,50,118365,0.0-5.0-1.11,,,,,,,,,,,,,,,,,,,,638526640404d47424e281ff,16:54:57,27/03/2024
763.0999999977648,"<div class=""center_prompt"" style=""font-family: Helvetica; font-weight: light; font-size: 48px; text-anchor: middle; color: white; opacity: 1;"">Confidence</div><br><br><br><br><div class=""center_prompt2"" style=""font-family: Helvetica; font-weight: light; font-size: 48px; text-anchor: middle; color: white; opacity: 1;"">Guess (1) –––– Low (2)  –––– Medium (3) –––– High (4)</div>",4,delaylearn,test,memory_choice_confidence,b3csoiYuvzcYk7dA3Q4k5T31y3Q2,html-keyboard-response,51,119129,0.0-5.0-2.11,b3csoiYuvzcYk7dA3Q4k5T31y3Q2,3.0,,,,,,,,,,4,,,,,,,,638526640404d47424e281ff,16:54:57,27/03/2024
,"<div style=""font-size:100px;"">+</div>",,delaylearn,test,pre_fixation,b3csoiYuvzcYk7dA3Q4k5T31y3Q2,html-keyboard-response,52,122136,0.0-5.0-3.11,,,,,,,,,,,,,,,,,,,,638526640404d47424e281ff,16:54:57,27/03/2024
,"<div style=""font-size:100px;"">+</div>",,delaylearn,test,pre_fixation,b3csoiYuvzcYk7dA3Q4k5T31y3Q2,html-keyboard-response,53,125146,0.0-6.0,,,,,,,,,,,,,,,,,,,,638526640404d47424e281ff,16:54:57,27/03/2024
4047.0,16,0.6867524606210215,delaylearn,test,memory_rating,b3csoiYuvzcYk7dA3Q4k5T31y3Q2,option-scale-rating,56,145889,0.0-9.0,b3csoiYuvzcYk7dA3Q4k5T31y3Q2,3.0,,,,,,6.0,0.0,,,,0.77,What percent of the time did you win when choosing this option?,focus,16.0,,,,638526640404d47424e281ff,16:54:57,27/03/2024
2321.0,10,0.36267838654694734,delaylearn,test,memory_rating,b3csoiYuvzcYk7dA3Q4k5T31y3Q2,option-scale-rating,57,151224,0.0-10.0,b3csoiYuvzcYk7dA3Q4k5T31y3Q2,3.0,,,,,,3.0,1.0,,,,0.23,What percent of the time did you win when choosing this option?,focus,10.0,,,,638526640404d47424e281ff,16:54:57,27/03/2024
1982.0,13,0.9853635717321325,delaylearn,test,memory_rating,b3csoiYuvzcYk7dA3Q4k5T31y3Q2,option-scale-rating,58,156224,0.0-11.0,b3csoiYuvzcYk7dA3Q4k5T31y3Q2,3.0,,,,,,3.0,1.0,,,,0.77,What percent of the time did you win when choosing this option?,focus,13.0,,,,638526640404d47424e281ff,16:54:57,27/03/2024
3418.0,6,0.3441598680284288,delaylearn,test,memory_rating,b3csoiYuvzcYk7dA3Q4k5T31y3Q2,option-scale-rating,59,162656,0.0-12.0,b3csoiYuvzcYk7dA3Q4k5T31y3Q2,3.0,,,,,,7.0,0.0,,,,0.77,What percent of the time did you win when choosing this option?,focus,6.0,,,,638526640404d47424e281ff,16:54:57,27/03/2024
1913.0,2,0.5825857939543547,delaylearn,test,memory_rating,b3csoiYuvzcYk7dA3Q4k5T31y3Q2,option-scale-rating,60,167585,0.0-13.0,b3csoiYuvzcYk7dA3Q4k5T31y3Q2,3.0,,,,,,5.0,0.0,,,,0.23,What percent of the time did you win when choosing this option?,focus,2.0,,,,638526640404d47424e281ff,16:54:57,27/03/2024
2119.0,15,0.2029561643247251,delaylearn,test,memory_rating,b3csoiYuvzcYk7dA3Q4k5T31y3Q2,option-scale-rating,61,172713,0.0-14.0,b3csoiYuvzcYk7dA3Q4k5T31y3Q2,3.0,,,,,,4.0,1.0,,,,0.77,What percent of the time did you win when choosing this option?,focus,15.0,,,,638526640404d47424e281ff,16:54:57,27/03/2024
1650.0,12,0.2978635717321325,delaylearn,test,memory_rating,b3csoiYuvzcYk7dA3Q4k5T31y3Q2,option-scale-rating,62,177377,0.0-15.0,b3csoiYuvzcYk7dA3Q4k5T31y3Q2,3.0,,,,,,7.0,0.0,,,,0.23,What percent of the time did you win when choosing this option?,focus,12.0,,,,638526640404d47424e281ff,16:54:57,27/03/2024
1722.0,9,0.8140672754358362,delaylearn,test,memory_rating,b3csoiYuvzcYk7dA3Q4k5T31y3Q2,option-scale-rating,63,182112,0.0-16.0,b3csoiYuvzcYk7dA3Q4k5T31y3Q2,3.0,,,,,,4.0,1.0,,,,0.23,What percent of the time did you win when choosing this option?,focus,9.0,,,,638526640404d47424e281ff,16:54:57,27/03/2024
1792.0,3,0.48999320136176217,delaylearn,test,memory_rating,b3csoiYuvzcYk7dA3Q4k5T31y3Q2,option-scale-rating,64,186915,0.0-17.0,b3csoiYuvzcYk7dA3Q4k5T31y3Q2,3.0,,,,,,6.0,0.0,,,,0.23,What percent of the time did you win when choosing this option?,focus,3.0,,,,638526640404d47424e281ff,16:54:57,27/03/2024
1730.0,14,0.17054875691731772,delaylearn,test,memory_rating,b3csoiYuvzcYk7dA3Q4k5T31y3Q2,option-scale-rating,65,191650,0.0-18.0,b3csoiYuvzcYk7dA3Q4k5T31y3Q2,3.0,,,,,,1.0,1.0,,,,0.77,What percent of the time did you win when choosing this option?,focus,14.0,,,,638526640404d47424e281ff,16:54:57,27/03/2024
2057.0,8,0.27240060876916955,delaylearn,test,memory_rating,b3csoiYuvzcYk7dA3Q4k5T31y3Q2,option-scale-rating,66,196731,0.0-19.0,b3csoiYuvzcYk7dA3Q4k5T31y3Q2,3.0,,,,,,1.0,1.0,,,,0.23,What percent of the time did you win when choosing this option?,focus,8.0,,,,638526640404d47424e281ff,16:54:57,27/03/2024
1871.0,11,0.341845053213614,delaylearn,test,memory_rating,b3csoiYuvzcYk7dA3Q4k5T31y3Q2,option-scale-rating,67,201618,0.0-20.0,b3csoiYuvzcYk7dA3Q4k5T31y3Q2,3.0,,,,,,5.0,0.0,,,,0.77,What percent of the time did you win when choosing this option?,focus,11.0,,,,638526640404d47424e281ff,16:54:57,27/03/2024
,"<div style=""font-size:100px;"">+</div>",,delaylearn,test,pre_fixation,b3csoiYuvzcYk7dA3Q4k5T31y3Q2,html-keyboard-response,68,204638,0.0-21.0,,,,,,,,,,,,,,,,,,,,638526640404d47424e281ff,16:54:57,27/03/2024
,"<div style=""font-size:100px;"">+</div>",,delaylearn,test,pre_fixation,b3csoiYuvzcYk7dA3Q4k5T31y3Q2,html-keyboard-response,72,225633,0.0-25.0,,,,,,,,,,,,,,,,,,,,638526640404d47424e281ff,16:54:57,27/03/2024
1040.300000000745,"<div style=""display: flex; flex-direction: column; align-items: center; margin-top: -40px;""><div style=""display: flex; justify-content: space-between; margin-top: 33px;""><img src=""images/choice_trial_8.png"" style=""width: 408px; height: 417px; margin-right: 200px;""><img src=""images/choice_trial_14.png"" style=""width: 408px; height: 417px;""></div></div><br>",arrowup,delaylearn,test,memory_time,b3csoiYuvzcYk7dA3Q4k5T31y3Q2,html-keyboard-response,73,226678,0.0-26.0-0.0,b3csoiYuvzcYk7dA3Q4k5T31y3Q2,3.0,,,,,1.0,1.0,1.0,0.0,,,,,,,8.0,14.0,0.0,638526640404d47424e281ff,16:54:57,27/03/2024
,"<div style=""font-size:100px;"">+</div>",,delaylearn,test,pre_fixation,b3csoiYuvzcYk7dA3Q4k5T31y3Q2,html-keyboard-response,74,229696,0.0-26.0-1.0,,,,,,,,,,,,,,,,,,,,638526640404d47424e281ff,16:54:57,27/03/2024
954.2000000029802,"<div style=""display: flex; flex-direction: column; align-items: center; margin-top: -40px;""><div style=""display: flex; justify-content: space-between; margin-top: 33px;""><img src=""images/choice_trial_2.png"" style=""width: 408px; height: 417px; margin-right: 200px;""><img src=""images/choice_trial_11.png"" style=""width: 408px; height: 417px;""></div></div><br>",arrowdown,delaylearn,test,memory_time,b3csoiYuvzcYk7dA3Q4k5T31y3Q2,html-keyboard-response,75,230653,0.0-26.0-0.1,b3csoiYuvzcYk7dA3Q4k5T31y3Q2,3.0,,,,,1.0,5.0,0.0,0.0,,,,,,,2.0,11.0,1.0,638526640404d47424e281ff,16:54:57,27/03/2024
,"<div style=""font-size:100px;"">+</div>",,delaylearn,test,pre_fixation,b3csoiYuvzcYk7dA3Q4k5T31y3Q2,html-keyboard-response,76,233669,0.0-26.0-1.1,,,,,,,,,,,,,,,,,,,,638526640404d47424e281ff,16:54:57,27/03/2024
947.3999999985099,"<div style=""display: flex; flex-direction: column; align-items: center; margin-top: -40px;""><div style=""display: flex; justify-content: space-between; margin-top: 33px;""><img src=""images/choice_trial_13.png"" style=""width: 408px; height: 417px; margin-right: 200px;""><img src=""images/choice_trial_10.png"" style=""width: 408px; height: 417px;""></div></div><br>",arrowdown,delaylearn,test,memory_time,b3csoiYuvzcYk7dA3Q4k5T31y3Q2,html-keyboard-response,77,234618,0.0-26.0-0.2,b3csoiYuvzcYk7dA3Q4k5T31y3Q2,3.0,,,,,1.0,3.0,1.0,1.0,,,,,,,13.0,10.0,1.0,638526640404d47424e281ff,16:54:57,27/03/2024
,"<div style=""font-size:100px;"">+</div>",,delaylearn,test,pre_fixation,b3csoiYuvzcYk7dA3Q4k5T31y3Q2,html-keyboard-response,78,237632,0.0-26.0-1.2,,,,,,,,,,,,,,,,,,,,638526640404d47424e281ff,16:54:57,27/03/2024
925.0,"<div style=""display: flex; flex-direction: column; align-items: center; margin-top: -40px;""><div style=""display: flex; justify-content: space-between; margin-top: 33px;""><img src=""images/choice_trial_16.png"" style=""width: 408px; height: 417px; margin-right: 200px;""><img src=""images/choice_trial_3.png"" style=""width: 408px; height: 417px;""></div></div><br>",arrowup,delaylearn,test,memory_time,b3csoiYuvzcYk7dA3Q4k5T31y3Q2,html-keyboard-response,79,238561,0.0-26.0-0.3,b3csoiYuvzcYk7dA3Q4k5T31y3Q2,3.0,,,,,0.0,6.0,0.0,1.0,,,,,,,3.0,16.0,0.0,638526640404d47424e281ff,16:54:57,27/03/2024
,"<div style=""font-size:100px;"">+</div>",,delaylearn,test,pre_fixation,b3csoiYuvzcYk7dA3Q4k5T31y3Q2,html-keyboard-response,80,241576,0.0-26.0-1.3,,,,,,,,,,,,,,,,,,,,638526640404d47424e281ff,16:54:57,27/03/2024
1147.699999999255,"<div style=""display: flex; flex-direction: column; align-items: center; margin-top: -40px;""><div style=""display: flex; justify-content: space-between; margin-top: 33px;""><img src=""images/choice_trial_12.png"" style=""width: 408px; height: 417px; margin-right: 200px;""><img src=""images/choice_trial_6.png"" style=""width: 408px; height: 417px;""></div></div><br>",arrowup,delaylearn,test,memory_time,b3csoiYuvzcYk7dA3Q4k5T31y3Q2,html-keyboard-response,81,242727,0.0-26.0-0.4,b3csoiYuvzcYk7dA3Q4k5T31y3Q2,3.0,,,,,1.0,7.0,0.0,1.0,,,,,,,6.0,12.0,0.0,638526640404d47424e281ff,16:54:57,27/03/2024
,"<div style=""font-size:100px;"">+</div>",,delaylearn,test,pre_fixation,b3csoiYuvzcYk7dA3Q4k5T31y3Q2,html-keyboard-response,82,245742,0.0-26.0-1.4,,,,,,,,,,,,,,,,,,,,638526640404d47424e281ff,16:54:57,27/03/2024
658.6999999992549,"<div style=""display: flex; flex-direction: column; align-items: center; margin-top: -40px;""><div style=""display: flex; justify-content: space-between; margin-top: 33px;""><img src=""images/choice_trial_15.png"" style=""width: 408px; height: 417px; margin-right: 200px;""><img src=""images/choice_trial_9.png"" style=""width: 408px; height: 417px;""></div></div><br>",arrowdown,delaylearn,test,memory_time,b3csoiYuvzcYk7dA3Q4k5T31y3Q2,html-keyboard-response,83,246403,0.0-26.0-0.5,b3csoiYuvzcYk7dA3Q4k5T31y3Q2,3.0,,,,,0.0,4.0,1.0,1.0,,,,,,,9.0,15.0,1.0,638526640404d47424e281ff,16:54:57,27/03/2024
