rt,stimulus,response,exp_name,exp_stage,test_part,subjectID,trial_type,trial_index,time_elapsed,internal_node_id,databaseID,counterbal,stim_left,stim_right,chosen_stim_left,chosen_stim_right,leftright_counter,pair,delay,response_correct,chosen_stim,confidence,value_true,text,userinteract,stim,stim1,stim2,response_longshort,prolificID,start_time,date
,"<div style=""font-size:100px;"">+</div>",,delaylearn,test,pre_fixation,4PlUjpfoJ7fFtl4u6rbMOsV1Atq1,html-keyboard-response,4,218238,0.0-4.0,,,,,,,,,,,,,,,,,,,,6565fff05ec125a5ff77a77c,16:52:22,27/03/2024
1743.0,"<div style=""display: flex; flex-direction: column; align-items: center; margin-top: -40px;""><div style=""display: flex; justify-content: space-between; margin-top: 33px;""><img src=""images/choice_trial_8.png"" style=""width: 408px; height: 417px; margin-right: 200px;""><img src=""images/choice_trial_10.png"" style=""width: 408px; height: 417px;""></div></div><br><br><br><br>",f,delaylearn,test,memory_choice,4PlUjpfoJ7fFtl4u6rbMOsV1Atq1,html-keyboard-response,5,219984,0.0-5.0-0.0,4PlUjpfoJ7fFtl4u6rbMOsV1Atq1,5.0,8.0,10.0,images/choice_trial_8.png,images/choice_trial_10.png,0.0,6.0,0.0,1.0,8.0,,,,,,,,,6565fff05ec125a5ff77a77c,16:52:22,27/03/2024
,,,delaylearn,test,isi,4PlUjpfoJ7fFtl4u6rbMOsV1Atq1,html-keyboard-response,6,220239,0.0-5.0-1.0,,,,,,,,,,,,,,,,,,,,6565fff05ec125a5ff77a77c,16:52:22,27/03/2024
2168.0,"<div class=""center_prompt"" style=""font-family: Helvetica; font-weight: light; font-size: 48px; text-anchor: middle; color: white; opacity: 1;"">Confidence</div><br><br><br><br><div class=""center_prompt2"" style=""font-family: Helvetica; font-weight: light; font-size: 48px; text-anchor: middle; color: white; opacity: 1;"">Guess (1) –––– Low (2)  –––– Medium (3) –––– High (4)</div>",3,delaylearn,test,memory_choice_confidence,4PlUjpfoJ7fFtl4u6rbMOsV1Atq1,html-keyboard-response,7,222408,0.0-5.0-2.0,4PlUjpfoJ7fFtl4u6rbMOsV1Atq1,5.0,,,,,,,,,,3,,,,,,,,6565fff05ec125a5ff77a77c,16:52:22,27/03/2024
,"<div style=""font-size:100px;"">+</div>",,delaylearn,test,pre_fixation,4PlUjpfoJ7fFtl4u6rbMOsV1Atq1,html-keyboard-response,8,225412,0.0-5.0-3.0,,,,,,,,,,,,,,,,,,,,6565fff05ec125a5ff77a77c,16:52:22,27/03/2024
2602.0,"<div style=""display: flex; flex-direction: column; align-items: center; margin-top: -40px;""><div style=""display: flex; justify-content: space-between; margin-top: 33px;""><img src=""images/choice_trial_4.png"" style=""width: 408px; height: 417px; margin-right: 200px;""><img src=""images/choice_trial_11.png"" style=""width: 408px; height: 417px;""></div></div><br><br><br><br>",j,delaylearn,test,memory_choice,4PlUjpfoJ7fFtl4u6rbMOsV1Atq1,html-keyboard-response,9,228017,0.0-5.0-0.1,4PlUjpfoJ7fFtl4u6rbMOsV1Atq1,5.0,4.0,11.0,images/choice_trial_4.png,images/choice_trial_11.png,1.0,3.0,1.0,1.0,11.0,,,,,,,,,6565fff05ec125a5ff77a77c,16:52:22,27/03/2024
,,,delaylearn,test,isi,4PlUjpfoJ7fFtl4u6rbMOsV1Atq1,html-keyboard-response,10,228271,0.0-5.0-1.1,,,,,,,,,,,,,,,,,,,,6565fff05ec125a5ff77a77c,16:52:22,27/03/2024
1566.0,"<div class=""center_prompt"" style=""font-family: Helvetica; font-weight: light; font-size: 48px; text-anchor: middle; color: white; opacity: 1;"">Confidence</div><br><br><br><br><div class=""center_prompt2"" style=""font-family: Helvetica; font-weight: light; font-size: 48px; text-anchor: middle; color: white; opacity: 1;"">Guess (1) –––– Low (2)  –––– Medium (3) –––– High (4)</div>",4,delaylearn,test,memory_choice_confidence,4PlUjpfoJ7fFtl4u6rbMOsV1Atq1,html-keyboard-response,11,229838,0.0-5.0-2.1,4PlUjpfoJ7fFtl4u6rbMOsV1Atq1,5.0,,,,,,,,,,4,,,,,,,,6565fff05ec125a5ff77a77c,16:52:22,27/03/2024
,"<div style=""font-size:100px;"">+</div>",,delaylearn,test,pre_fixation,4PlUjpfoJ7fFtl4u6rbMOsV1Atq1,html-keyboard-response,12,232841,0.0-5.0-3.1,,,,,,,,,,,,,,,,,,,,6565fff05ec125a5ff77a77c,16:52:22,27/03/2024
1100.0,"<div style=""display: flex; flex-direction: column; align-items: center; margin-top: -40px;""><div style=""display: flex; justify-content: space-between; margin-top: 33px;""><img src=""images/choice_trial_9.png"" style=""width: 408px; height: 417px; margin-right: 200px;""><img src=""images/choice_trial_14.png"" style=""width: 408px; height: 417px;""></div></div><br><br><br><br>",j,delaylearn,test,memory_choice,4PlUjpfoJ7fFtl4u6rbMOsV1Atq1,html-keyboard-response,13,233944,0.0-5.0-0.2,4PlUjpfoJ7fFtl4u6rbMOsV1Atq1,5.0,9.0,14.0,images/choice_trial_9.png,images/choice_trial_14.png,1.0,5.0,0.0,1.0,14.0,,,,,,,,,6565fff05ec125a5ff77a77c,16:52:22,27/03/2024
,,,delaylearn,test,isi,4PlUjpfoJ7fFtl4u6rbMOsV1Atq1,html-keyboard-response,14,234197,0.0-5.0-1.2,,,,,,,,,,,,,,,,,,,,6565fff05ec125a5ff77a77c,16:52:22,27/03/2024
1941.0,"<div class=""center_prompt"" style=""font-family: Helvetica; font-weight: light; font-size: 48px; text-anchor: middle; color: white; opacity: 1;"">Confidence</div><br><br><br><br><div class=""center_prompt2"" style=""font-family: Helvetica; font-weight: light; font-size: 48px; text-anchor: middle; color: white; opacity: 1;"">Guess (1) –––– Low (2)  –––– Medium (3) –––– High (4)</div>",3,delaylearn,test,memory_choice_confidence,4PlUjpfoJ7fFtl4u6rbMOsV1Atq1,html-keyboard-response,15,236140,0.0-5.0-2.2,4PlUjpfoJ7fFtl4u6rbMOsV1Atq1,5.0,,,,,,,,,,3,,,,,,,,6565fff05ec125a5ff77a77c,16:52:22,27/03/2024
,"<div style=""font-size:100px;"">+</div>",,delaylearn,test,pre_fixation,4PlUjpfoJ7fFtl4u6rbMOsV1Atq1,html-keyboard-response,16,239143,0.0-5.0-3.2,,,,,,,,,,,,,,,,,,,,6565fff05ec125a5ff77a77c,16:52:22,27/03/2024
1297.0,"<div style=""display: flex; flex-direction: column; align-items: center; margin-top: -40px;""><div style=""display: flex; justify-content: space-between; margin-top: 33px;""><img src=""images/choice_trial_13.png"" style=""width: 408px; height: 417px; margin-right: 200px;""><img src=""images/choice_trial_7.png"" style=""width: 408px; height: 417px;""></div></div><br><br><br><br>",j,delaylearn,test,memory_choice,4PlUjpfoJ7fFtl4u6rbMOsV1Atq1,html-keyboard-response,17,240442,0.0-5.0-0.3,4PlUjpfoJ7fFtl4u6rbMOsV1Atq1,5.0,13.0,7.0,images/choice_trial_13.png,images/choice_trial_7.png,1.0,4.0,0.0,1.0,7.0,,,,,,,,,6565fff05ec125a5ff77a77c,16:52:22,27/03/2024
,,,delaylearn,test,isi,4PlUjpfoJ7fFtl4u6rbMOsV1Atq1,html-keyboard-response,18,240696,0.0-5.0-1.3,,,,,,,,,,,,,,,,,,,,6565fff05ec125a5ff77a77c,16:52:22,27/03/2024
965.9999999997672,"<div class=""center_prompt"" style=""font-family: Helvetica; font-weight: light; font-size: 48px; text-anchor: middle; color: white; opacity: 1;"">Confidence</div><br><br><br><br><div class=""center_prompt2"" style=""font-family: Helvetica; font-weight: light; font-size: 48px; text-anchor: middle; color: white; opacity: 1;"">Guess (1) –––– Low (2)  –––– Medium (3) –––– High (4)</div>",3,delaylearn,test,memory_choice_confidence,4PlUjpfoJ7fFtl4u6rbMOsV1Atq1,html-keyboard-response,19,241664,0.0-5.0-2.3,4PlUjpfoJ7fFtl4u6rbMOsV1Atq1,5.0,,,,,,,,,,3,,,,,,,,6565fff05ec125a5ff77a77c,16:52:22,27/03/2024
,"<div style=""font-size:100px;"">+</div>",,delaylearn,test,pre_fixation,4PlUjpfoJ7fFtl4u6rbMOsV1Atq1,html-keyboard-response,20,244667,0.0-5.0-3.3,,,,,,,,,,,,,,,,,,,,6565fff05ec125a5ff77a77c,16:52:22,27/03/2024
2390.999999999767,"<div style=""display: flex; flex-direction: column; align-items: center; margin-top: -40px;""><div style=""display: flex; justify-content: space-between; margin-top: 33px;""><img src=""images/choice_trial_16.png"" style=""width: 408px; height: 417px; margin-right: 200px;""><img src=""images/choice_trial_2.png"" style=""width: 408px; height: 417px;""></div></div><br><br><br><br>",f,delaylearn,test,memory_choice,4PlUjpfoJ7fFtl4u6rbMOsV1Atq1,html-keyboard-response,21,247060,0.0-5.0-0.4,4PlUjpfoJ7fFtl4u6rbMOsV1Atq1,5.0,16.0,2.0,images/choice_trial_16.png,images/choice_trial_2.png,0.0,2.0,1.0,1.0,16.0,,,,,,,,,6565fff05ec125a5ff77a77c,16:52:22,27/03/2024
,,,delaylearn,test,isi,4PlUjpfoJ7fFtl4u6rbMOsV1Atq1,html-keyboard-response,22,247316,0.0-5.0-1.4,,,,,,,,,,,,,,,,,,,,6565fff05ec125a5ff77a77c,16:52:22,27/03/2024
1330.0,"<div class=""center_prompt"" style=""font-family: Helvetica; font-weight: light; font-size: 48px; text-anchor: middle; color: white; opacity: 1;"">Confidence</div><br><br><br><br><div class=""center_prompt2"" style=""font-family: Helvetica; font-weight: light; font-size: 48px; text-anchor: middle; color: white; opacity: 1;"">Guess (1) –––– Low (2)  –––– Medium (3) –––– High (4)</div>",3,delaylearn,test,memory_choice_confidence,4PlUjpfoJ7fFtl4u6rbMOsV1Atq1,html-keyboard-response,23,248648,0.0-5.0-2.4,4PlUjpfoJ7fFtl4u6rbMOsV1Atq1,5.0,,,,,,,,,,3,,,,,,,,6565fff05ec125a5ff77a77c,16:52:22,27/03/2024
,"<div style=""font-size:100px;"">+</div>",,delaylearn,test,pre_fixation,4PlUjpfoJ7fFtl4u6rbMOsV1Atq1,html-keyboard-response,24,251651,0.0-5.0-3.4,,,,,,,,,,,,,,,,,,,,6565fff05ec125a5ff77a77c,16:52:22,27/03/2024
1106.0,"<div style=""display: flex; flex-direction: column; align-items: center; margin-top: -40px;""><div style=""display: flex; justify-content: space-between; margin-top: 33px;""><img src=""images/choice_trial_15.png"" style=""width: 408px; height: 417px; margin-right: 200px;""><img src=""images/choice_trial_6.png"" style=""width: 408px; height: 417px;""></div></div><br><br><br><br>",j,delaylearn,test,memory_choice,4PlUjpfoJ7fFtl4u6rbMOsV1Atq1,html-keyboard-response,25,252759,0.0-5.0-0.5,4PlUjpfoJ7fFtl4u6rbMOsV1Atq1,5.0,15.0,6.0,images/choice_trial_15.png,images/choice_trial_6.png,1.0,1.0,1.0,1.0,6.0,,,,,,,,,6565fff05ec125a5ff77a77c,16:52:22,27/03/2024
,,,delaylearn,test,isi,4PlUjpfoJ7fFtl4u6rbMOsV1Atq1,html-keyboard-response,26,253013,0.0-5.0-1.5,,,,,,,,,,,,,,,,,,,,6565fff05ec125a5ff77a77c,16:52:22,27/03/2024
524.9999999997672,"<div class=""center_prompt"" style=""font-family: Helvetica; font-weight: light; font-size: 48px; text-anchor: middle; color: white; opacity: 1;"">Confidence</div><br><br><br><br><div class=""center_prompt2"" style=""font-family: Helvetica; font-weight: light; font-size: 48px; text-anchor: middle; color: white; opacity: 1;"">Guess (1) –––– Low (2)  –––– Medium (3) –––– High (4)</div>",3,delaylearn,test,memory_choice_confidence,4PlUjpfoJ7fFtl4u6rbMOsV1Atq1,html-keyboard-response,27,253540,0.0-5.0-2.5,4PlUjpfoJ7fFtl4u6rbMOsV1Atq1,5.0,,,,,,,,,,3,,,,,,,,6565fff05ec125a5ff77a77c,16:52:22,27/03/2024
,"<div style=""font-size:100px;"">+</div>",,delaylearn,test,pre_fixation,4PlUjpfoJ7fFtl4u6rbMOsV1Atq1,html-keyboard-response,28,256543,0.0-5.0-3.5,,,,,,,,,,,,,,,,,,,,6565fff05ec125a5ff77a77c,16:52:22,27/03/2024
779.0,"<div style=""display: flex; flex-direction: column; align-items: center; margin-top: -40px;""><div style=""display: flex; justify-content: space-between; margin-top: 33px;""><img src=""images/choice_trial_9.png"" style=""width: 408px; height: 417px; margin-right: 200px;""><img src=""images/choice_trial_7.png"" style=""width: 408px; height: 417px;""></div></div><br><br><br><br>",j,delaylearn,test,memory_choice,4PlUjpfoJ7fFtl4u6rbMOsV1Atq1,html-keyboard-response,29,257325,0.0-5.0-0.6,4PlUjpfoJ7fFtl4u6rbMOsV1Atq1,5.0,9.0,7.0,images/choice_trial_9.png,images/choice_trial_7.png,1.0,45.0,0.0,1.0,7.0,,,,,,,,,6565fff05ec125a5ff77a77c,16:52:22,27/03/2024
,,,delaylearn,test,isi,4PlUjpfoJ7fFtl4u6rbMOsV1Atq1,html-keyboard-response,30,257578,0.0-5.0-1.6,,,,,,,,,,,,,,,,,,,,6565fff05ec125a5ff77a77c,16:52:22,27/03/2024
441.0,"<div class=""center_prompt"" style=""font-family: Helvetica; font-weight: light; font-size: 48px; text-anchor: middle; color: white; opacity: 1;"">Confidence</div><br><br><br><br><div class=""center_prompt2"" style=""font-family: Helvetica; font-weight: light; font-size: 48px; text-anchor: middle; color: white; opacity: 1;"">Guess (1) –––– Low (2)  –––– Medium (3) –––– High (4)</div>",3,delaylearn,test,memory_choice_confidence,4PlUjpfoJ7fFtl4u6rbMOsV1Atq1,html-keyboard-response,31,258021,0.0-5.0-2.6,4PlUjpfoJ7fFtl4u6rbMOsV1Atq1,5.0,,,,,,,,,,3,,,,,,,,6565fff05ec125a5ff77a77c,16:52:22,27/03/2024
,"<div style=""font-size:100px;"">+</div>",,delaylearn,test,pre_fixation,4PlUjpfoJ7fFtl4u6rbMOsV1Atq1,html-keyboard-response,32,261027,0.0-5.0-3.6,,,,,,,,,,,,,,,,,,,,6565fff05ec125a5ff77a77c,16:52:22,27/03/2024
1412.0,"<div style=""display: flex; flex-direction: column; align-items: center; margin-top: -40px;""><div style=""display: flex; justify-content: space-between; margin-top: 33px;""><img src=""images/choice_trial_6.png"" style=""width: 408px; height: 417px; margin-right: 200px;""><img src=""images/choice_trial_2.png"" style=""width: 408px; height: 417px;""></div></div><br><br><br><br>",f,delaylearn,test,memory_choice,4PlUjpfoJ7fFtl4u6rbMOsV1Atq1,html-keyboard-response,33,262440,0.0-5.0-0.7,4PlUjpfoJ7fFtl4u6rbMOsV1Atq1,5.0,6.0,2.0,images/choice_trial_6.png,images/choice_trial_2.png,0.0,12.0,1.0,1.0,6.0,,,,,,,,,6565fff05ec125a5ff77a77c,16:52:22,27/03/2024
,,,delaylearn,test,isi,4PlUjpfoJ7fFtl4u6rbMOsV1Atq1,html-keyboard-response,34,262694,0.0-5.0-1.7,,,,,,,,,,,,,,,,,,,,6565fff05ec125a5ff77a77c,16:52:22,27/03/2024
1309.0,"<div class=""center_prompt"" style=""font-family: Helvetica; font-weight: light; font-size: 48px; text-anchor: middle; color: white; opacity: 1;"">Confidence</div><br><br><br><br><div class=""center_prompt2"" style=""font-family: Helvetica; font-weight: light; font-size: 48px; text-anchor: middle; color: white; opacity: 1;"">Guess (1) –––– Low (2)  –––– Medium (3) –––– High (4)</div>",2,delaylearn,test,memory_choice_confidence,4PlUjpfoJ7fFtl4u6rbMOsV1Atq1,html-keyboard-response,35,264005,0.0-5.0-2.7,4PlUjpfoJ7fFtl4u6rbMOsV1Atq1,5.0,,,,,,,,,,2,,,,,,,,6565fff05ec125a5ff77a77c,16:52:22,27/03/2024
,"<div style=""font-size:100px;"">+</div>",,delaylearn,test,pre_fixation,4PlUjpfoJ7fFtl4u6rbMOsV1Atq1,html-keyboard-response,36,267009,0.0-5.0-3.7,,,,,,,,,,,,,,,,,,,,6565fff05ec125a5ff77a77c,16:52:22,27/03/2024
1510.0,"<div style=""display: flex; flex-direction: column; align-items: center; margin-top: -40px;""><div style=""display: flex; justify-content: space-between; margin-top: 33px;""><img src=""images/choice_trial_4.png"" style=""width: 408px; height: 417px; margin-right: 200px;""><img src=""images/choice_trial_16.png"" style=""width: 408px; height: 417px;""></div></div><br><br><br><br>",j,delaylearn,test,memory_choice,4PlUjpfoJ7fFtl4u6rbMOsV1Atq1,html-keyboard-response,37,268522,0.0-5.0-0.8,4PlUjpfoJ7fFtl4u6rbMOsV1Atq1,5.0,4.0,16.0,images/choice_trial_4.png,images/choice_trial_16.png,1.0,23.0,1.0,1.0,16.0,,,,,,,,,6565fff05ec125a5ff77a77c,16:52:22,27/03/2024
,,,delaylearn,test,isi,4PlUjpfoJ7fFtl4u6rbMOsV1Atq1,html-keyboard-response,38,268775,0.0-5.0-1.8,,,,,,,,,,,,,,,,,,,,6565fff05ec125a5ff77a77c,16:52:22,27/03/2024
2043.0,"<div class=""center_prompt"" style=""font-family: Helvetica; font-weight: light; font-size: 48px; text-anchor: middle; color: white; opacity: 1;"">Confidence</div><br><br><br><br><div class=""center_prompt2"" style=""font-family: Helvetica; font-weight: light; font-size: 48px; text-anchor: middle; color: white; opacity: 1;"">Guess (1) –––– Low (2)  –––– Medium (3) –––– High (4)</div>",2,delaylearn,test,memory_choice_confidence,4PlUjpfoJ7fFtl4u6rbMOsV1Atq1,html-keyboard-response,39,270820,0.0-5.0-2.8,4PlUjpfoJ7fFtl4u6rbMOsV1Atq1,5.0,,,,,,,,,,2,,,,,,,,6565fff05ec125a5ff77a77c,16:52:22,27/03/2024
,"<div style=""font-size:100px;"">+</div>",,delaylearn,test,pre_fixation,4PlUjpfoJ7fFtl4u6rbMOsV1Atq1,html-keyboard-response,40,273823,0.0-5.0-3.8,,,,,,,,,,,,,,,,,,,,6565fff05ec125a5ff77a77c,16:52:22,27/03/2024
931.0,"<div style=""display: flex; flex-direction: column; align-items: center; margin-top: -40px;""><div style=""display: flex; justify-content: space-between; margin-top: 33px;""><img src=""images/choice_trial_14.png"" style=""width: 408px; height: 417px; margin-right: 200px;""><img src=""images/choice_trial_10.png"" style=""width: 408px; height: 417px;""></div></div><br><br><br><br>",f,delaylearn,test,memory_choice,4PlUjpfoJ7fFtl4u6rbMOsV1Atq1,html-keyboard-response,41,274756,0.0-5.0-0.9,4PlUjpfoJ7fFtl4u6rbMOsV1Atq1,5.0,14.0,10.0,images/choice_trial_14.png,images/choice_trial_10.png,0.0,56.0,0.0,1.0,14.0,,,,,,,,,6565fff05ec125a5ff77a77c,16:52:22,27/03/2024
,,,delaylearn,test,isi,4PlUjpfoJ7fFtl4u6rbMOsV1Atq1,html-keyboard-response,42,275013,0.0-5.0-1.9,,,,,,,,,,,,,,,,,,,,6565fff05ec125a5ff77a77c,16:52:22,27/03/2024
853.9999999997672,"<div class=""center_prompt"" style=""font-family: Helvetica; font-weight: light; font-size: 48px; text-anchor: middle; color: white; opacity: 1;"">Confidence</div><br><br><br><br><div class=""center_prompt2"" style=""font-family: Helvetica; font-weight: light; font-size: 48px; text-anchor: middle; color: white; opacity: 1;"">Guess (1) –––– Low (2)  –––– Medium (3) –––– High (4)</div>",3,delaylearn,test,memory_choice_confidence,4PlUjpfoJ7fFtl4u6rbMOsV1Atq1,html-keyboard-response,43,275869,0.0-5.0-2.9,4PlUjpfoJ7fFtl4u6rbMOsV1Atq1,5.0,,,,,,,,,,3,,,,,,,,6565fff05ec125a5ff77a77c,16:52:22,27/03/2024
,"<div style=""font-size:100px;"">+</div>",,delaylearn,test,pre_fixation,4PlUjpfoJ7fFtl4u6rbMOsV1Atq1,html-keyboard-response,44,278872,0.0-5.0-3.9,,,,,,,,,,,,,,,,,,,,6565fff05ec125a5ff77a77c,16:52:22,27/03/2024
2711.0,"<div style=""display: flex; flex-direction: column; align-items: center; margin-top: -40px;""><div style=""display: flex; justify-content: space-between; margin-top: 33px;""><img src=""images/choice_trial_11.png"" style=""width: 408px; height: 417px; margin-right: 200px;""><img src=""images/choice_trial_15.png"" style=""width: 408px; height: 417px;""></div></div><br><br><br><br>",f,delaylearn,test,memory_choice,4PlUjpfoJ7fFtl4u6rbMOsV1Atq1,html-keyboard-response,45,281586,0.0-5.0-0.10,4PlUjpfoJ7fFtl4u6rbMOsV1Atq1,5.0,11.0,15.0,images/choice_trial_11.png,images/choice_trial_15.png,0.0,31.0,1.0,1.0,11.0,,,,,,,,,6565fff05ec125a5ff77a77c,16:52:22,27/03/2024
,,,delaylearn,test,isi,4PlUjpfoJ7fFtl4u6rbMOsV1Atq1,html-keyboard-response,46,281840,0.0-5.0-1.10,,,,,,,,,,,,,,,,,,,,6565fff05ec125a5ff77a77c,16:52:22,27/03/2024
1587.9999999997672,"<div class=""center_prompt"" style=""font-family: Helvetica; font-weight: light; font-size: 48px; text-anchor: middle; color: white; opacity: 1;"">Confidence</div><br><br><br><br><div class=""center_prompt2"" style=""font-family: Helvetica; font-weight: light; font-size: 48px; text-anchor: middle; color: white; opacity: 1;"">Guess (1) –––– Low (2)  –––– Medium (3) –––– High (4)</div>",3,delaylearn,test,memory_choice_confidence,4PlUjpfoJ7fFtl4u6rbMOsV1Atq1,html-keyboard-response,47,283431,0.0-5.0-2.10,4PlUjpfoJ7fFtl4u6rbMOsV1Atq1,5.0,,,,,,,,,,3,,,,,,,,6565fff05ec125a5ff77a77c,16:52:22,27/03/2024
,"<div style=""font-size:100px;"">+</div>",,delaylearn,test,pre_fixation,4PlUjpfoJ7fFtl4u6rbMOsV1Atq1,html-keyboard-response,48,286434,0.0-5.0-3.10,,,,,,,,,,,,,,,,,,,,6565fff05ec125a5ff77a77c,16:52:22,27/03/2024
1641.0,"<div style=""display: flex; flex-direction: column; align-items: center; margin-top: -40px;""><div style=""display: flex; justify-content: space-between; margin-top: 33px;""><img src=""images/choice_trial_13.png"" style=""width: 408px; height: 417px; margin-right: 200px;""><img src=""images/choice_trial_8.png"" style=""width: 408px; height: 417px;""></div></div><br><br><br><br>",j,delaylearn,test,memory_choice,4PlUjpfoJ7fFtl4u6rbMOsV1Atq1,html-keyboard-response,49,288076,0.0-5.0-0.11,4PlUjpfoJ7fFtl4u6rbMOsV1Atq1,5.0,13.0,8.0,images/choice_trial_13.png,images/choice_trial_8.png,1.0,64.0,0.0,1.0,8.0,,,,,,,,,6565fff05ec125a5ff77a77c,16:52:22,27/03/2024
,,,delaylearn,test,isi,4PlUjpfoJ7fFtl4u6rbMOsV1Atq1,html-keyboard-response,50,288330,0.0-5.0-1.11,,,,,,,,,,,,,,,,,,,,6565fff05ec125a5ff77a77c,16:52:22,27/03/2024
910.0000000002328,"<div class=""center_prompt"" style=""font-family: Helvetica; font-weight: light; font-size: 48px; text-anchor: middle; color: white; opacity: 1;"">Confidence</div><br><br><br><br><div class=""center_prompt2"" style=""font-family: Helvetica; font-weight: light; font-size: 48px; text-anchor: middle; color: white; opacity: 1;"">Guess (1) –––– Low (2)  –––– Medium (3) –––– High (4)</div>",3,delaylearn,test,memory_choice_confidence,4PlUjpfoJ7fFtl4u6rbMOsV1Atq1,html-keyboard-response,51,289243,0.0-5.0-2.11,4PlUjpfoJ7fFtl4u6rbMOsV1Atq1,5.0,,,,,,,,,,3,,,,,,,,6565fff05ec125a5ff77a77c,16:52:22,27/03/2024
,"<div style=""font-size:100px;"">+</div>",,delaylearn,test,pre_fixation,4PlUjpfoJ7fFtl4u6rbMOsV1Atq1,html-keyboard-response,52,292246,0.0-5.0-3.11,,,,,,,,,,,,,,,,,,,,6565fff05ec125a5ff77a77c,16:52:22,27/03/2024
,"<div style=""font-size:100px;"">+</div>",,delaylearn,test,pre_fixation,4PlUjpfoJ7fFtl4u6rbMOsV1Atq1,html-keyboard-response,53,295249,0.0-6.0,,,,,,,,,,,,,,,,,,,,6565fff05ec125a5ff77a77c,16:52:22,27/03/2024
11773.0,14,0.9259259259259259,delaylearn,test,memory_rating,4PlUjpfoJ7fFtl4u6rbMOsV1Atq1,option-scale-rating,56,322628,0.0-9.0,4PlUjpfoJ7fFtl4u6rbMOsV1Atq1,5.0,,,,,,6.0,0.0,,,,0.77,What percent of the time did you win when choosing this option?,fullscreenenter,14.0,,,,6565fff05ec125a5ff77a77c,16:52:22,27/03/2024
7476.0,2,0.2777777777777778,delaylearn,test,memory_rating,4PlUjpfoJ7fFtl4u6rbMOsV1Atq1,option-scale-rating,57,333111,0.0-10.0,4PlUjpfoJ7fFtl4u6rbMOsV1Atq1,5.0,,,,,,3.0,1.0,,,,0.23,What percent of the time did you win when choosing this option?,fullscreenenter,2.0,,,,6565fff05ec125a5ff77a77c,16:52:22,27/03/2024
8493.0,16,0.5,delaylearn,test,memory_rating,4PlUjpfoJ7fFtl4u6rbMOsV1Atq1,option-scale-rating,58,344613,0.0-11.0,4PlUjpfoJ7fFtl4u6rbMOsV1Atq1,5.0,,,,,,3.0,1.0,,,,0.77,What percent of the time did you win when choosing this option?,fullscreenenter,16.0,,,,6565fff05ec125a5ff77a77c,16:52:22,27/03/2024
5169.0,8,0.5018518518518519,delaylearn,test,memory_rating,4PlUjpfoJ7fFtl4u6rbMOsV1Atq1,option-scale-rating,59,352792,0.0-12.0,4PlUjpfoJ7fFtl4u6rbMOsV1Atq1,5.0,,,,,,7.0,0.0,,,,0.77,What percent of the time did you win when choosing this option?,fullscreenenter,8.0,,,,6565fff05ec125a5ff77a77c,16:52:22,27/03/2024
7806.0,13,0,delaylearn,test,memory_rating,4PlUjpfoJ7fFtl4u6rbMOsV1Atq1,option-scale-rating,60,363606,0.0-13.0,4PlUjpfoJ7fFtl4u6rbMOsV1Atq1,5.0,,,,,,5.0,0.0,,,,0.23,What percent of the time did you win when choosing this option?,fullscreenenter,13.0,,,,6565fff05ec125a5ff77a77c,16:52:22,27/03/2024
3365.0,11,0.7555555555555555,delaylearn,test,memory_rating,4PlUjpfoJ7fFtl4u6rbMOsV1Atq1,option-scale-rating,61,369979,0.0-14.0,4PlUjpfoJ7fFtl4u6rbMOsV1Atq1,5.0,,,,,,4.0,1.0,,,,0.77,What percent of the time did you win when choosing this option?,fullscreenenter,11.0,,,,6565fff05ec125a5ff77a77c,16:52:22,27/03/2024
2493.0,10,0.25,delaylearn,test,memory_rating,4PlUjpfoJ7fFtl4u6rbMOsV1Atq1,option-scale-rating,62,375480,0.0-15.0,4PlUjpfoJ7fFtl4u6rbMOsV1Atq1,5.0,,,,,,7.0,0.0,,,,0.23,What percent of the time did you win when choosing this option?,fullscreenenter,10.0,,,,6565fff05ec125a5ff77a77c,16:52:22,27/03/2024
3503.0,4,0.018518518518518517,delaylearn,test,memory_rating,4PlUjpfoJ7fFtl4u6rbMOsV1Atq1,option-scale-rating,63,381991,0.0-16.0,4PlUjpfoJ7fFtl4u6rbMOsV1Atq1,5.0,,,,,,4.0,1.0,,,,0.23,What percent of the time did you win when choosing this option?,fullscreenenter,4.0,,,,6565fff05ec125a5ff77a77c,16:52:22,27/03/2024
3731.0,9,0.003703703703703704,delaylearn,test,memory_rating,4PlUjpfoJ7fFtl4u6rbMOsV1Atq1,option-scale-rating,64,388731,0.0-17.0,4PlUjpfoJ7fFtl4u6rbMOsV1Atq1,5.0,,,,,,6.0,0.0,,,,0.23,What percent of the time did you win when choosing this option?,fullscreenenter,9.0,,,,6565fff05ec125a5ff77a77c,16:52:22,27/03/2024
3005.0,6,0.7722222222222223,delaylearn,test,memory_rating,4PlUjpfoJ7fFtl4u6rbMOsV1Atq1,option-scale-rating,65,394745,0.0-18.0,4PlUjpfoJ7fFtl4u6rbMOsV1Atq1,5.0,,,,,,1.0,1.0,,,,0.77,What percent of the time did you win when choosing this option?,fullscreenenter,6.0,,,,6565fff05ec125a5ff77a77c,16:52:22,27/03/2024
2504.0,15,0.022222222222222223,delaylearn,test,memory_rating,4PlUjpfoJ7fFtl4u6rbMOsV1Atq1,option-scale-rating,66,400259,0.0-19.0,4PlUjpfoJ7fFtl4u6rbMOsV1Atq1,5.0,,,,,,1.0,1.0,,,,0.23,What percent of the time did you win when choosing this option?,fullscreenenter,15.0,,,,6565fff05ec125a5ff77a77c,16:52:22,27/03/2024
3134.0,7,0.8388888888888889,delaylearn,test,memory_rating,4PlUjpfoJ7fFtl4u6rbMOsV1Atq1,option-scale-rating,67,406400,0.0-20.0,4PlUjpfoJ7fFtl4u6rbMOsV1Atq1,5.0,,,,,,5.0,0.0,,,,0.77,What percent of the time did you win when choosing this option?,fullscreenenter,7.0,,,,6565fff05ec125a5ff77a77c,16:52:22,27/03/2024
,"<div style=""font-size:100px;"">+</div>",,delaylearn,test,pre_fixation,4PlUjpfoJ7fFtl4u6rbMOsV1Atq1,html-keyboard-response,68,409404,0.0-21.0,,,,,,,,,,,,,,,,,,,,6565fff05ec125a5ff77a77c,16:52:22,27/03/2024
,"<div style=""font-size:100px;"">+</div>",,delaylearn,test,pre_fixation,4PlUjpfoJ7fFtl4u6rbMOsV1Atq1,html-keyboard-response,72,437236,0.0-25.0,,,,,,,,,,,,,,,,,,,,6565fff05ec125a5ff77a77c,16:52:22,27/03/2024
3030.0,"<div style=""display: flex; flex-direction: column; align-items: center; margin-top: -40px;""><div style=""display: flex; justify-content: space-between; margin-top: 33px;""><img src=""images/choice_trial_15.png"" style=""width: 408px; height: 417px; margin-right: 200px;""><img src=""images/choice_trial_6.png"" style=""width: 408px; height: 417px;""></div></div><br>",arrowup,delaylearn,test,memory_time,4PlUjpfoJ7fFtl4u6rbMOsV1Atq1,html-keyboard-response,73,440269,0.0-26.0-0.0,4PlUjpfoJ7fFtl4u6rbMOsV1Atq1,5.0,,,,,1.0,1.0,1.0,0.0,,,,,,,15.0,6.0,0.0,6565fff05ec125a5ff77a77c,16:52:22,27/03/2024
,"<div style=""font-size:100px;"">+</div>",,delaylearn,test,pre_fixation,4PlUjpfoJ7fFtl4u6rbMOsV1Atq1,html-keyboard-response,74,443273,0.0-26.0-1.0,,,,,,,,,,,,,,,,,,,,6565fff05ec125a5ff77a77c,16:52:22,27/03/2024
1080.0,"<div style=""display: flex; flex-direction: column; align-items: center; margin-top: -40px;""><div style=""display: flex; justify-content: space-between; margin-top: 33px;""><img src=""images/choice_trial_13.png"" style=""width: 408px; height: 417px; margin-right: 200px;""><img src=""images/choice_trial_7.png"" style=""width: 408px; height: 417px;""></div></div><br>",arrowup,delaylearn,test,memory_time,4PlUjpfoJ7fFtl4u6rbMOsV1Atq1,html-keyboard-response,75,444355,0.0-26.0-0.1,4PlUjpfoJ7fFtl4u6rbMOsV1Atq1,5.0,,,,,1.0,5.0,0.0,1.0,,,,,,,13.0,7.0,0.0,6565fff05ec125a5ff77a77c,16:52:22,27/03/2024
,"<div style=""font-size:100px;"">+</div>",,delaylearn,test,pre_fixation,4PlUjpfoJ7fFtl4u6rbMOsV1Atq1,html-keyboard-response,76,447359,0.0-26.0-1.1,,,,,,,,,,,,,,,,,,,,6565fff05ec125a5ff77a77c,16:52:22,27/03/2024
1320.0,"<div style=""display: flex; flex-direction: column; align-items: center; margin-top: -40px;""><div style=""display: flex; justify-content: space-between; margin-top: 33px;""><img src=""images/choice_trial_16.png"" style=""width: 408px; height: 417px; margin-right: 200px;""><img src=""images/choice_trial_2.png"" style=""width: 408px; height: 417px;""></div></div><br>",arrowdown,delaylearn,test,memory_time,4PlUjpfoJ7fFtl4u6rbMOsV1Atq1,html-keyboard-response,77,448681,0.0-26.0-0.2,4PlUjpfoJ7fFtl4u6rbMOsV1Atq1,5.0,,,,,1.0,3.0,1.0,1.0,,,,,,,16.0,2.0,1.0,6565fff05ec125a5ff77a77c,16:52:22,27/03/2024
,"<div style=""font-size:100px;"">+</div>",,delaylearn,test,pre_fixation,4PlUjpfoJ7fFtl4u6rbMOsV1Atq1,html-keyboard-response,78,451685,0.0-26.0-1.2,,,,,,,,,,,,,,,,,,,,6565fff05ec125a5ff77a77c,16:52:22,27/03/2024
1262.0,"<div style=""display: flex; flex-direction: column; align-items: center; margin-top: -40px;""><div style=""display: flex; justify-content: space-between; margin-top: 33px;""><img src=""images/choice_trial_14.png"" style=""width: 408px; height: 417px; margin-right: 200px;""><img src=""images/choice_trial_9.png"" style=""width: 408px; height: 417px;""></div></div><br>",arrowup,delaylearn,test,memory_time,4PlUjpfoJ7fFtl4u6rbMOsV1Atq1,html-keyboard-response,79,452948,0.0-26.0-0.3,4PlUjpfoJ7fFtl4u6rbMOsV1Atq1,5.0,,,,,0.0,6.0,0.0,1.0,,,,,,,9.0,14.0,0.0,6565fff05ec125a5ff77a77c,16:52:22,27/03/2024
,"<div style=""font-size:100px;"">+</div>",,delaylearn,test,pre_fixation,4PlUjpfoJ7fFtl4u6rbMOsV1Atq1,html-keyboard-response,80,455952,0.0-26.0-1.3,,,,,,,,,,,,,,,,,,,,6565fff05ec125a5ff77a77c,16:52:22,27/03/2024
1467.0,"<div style=""display: flex; flex-direction: column; align-items: center; margin-top: -40px;""><div style=""display: flex; justify-content: space-between; margin-top: 33px;""><img src=""images/choice_trial_10.png"" style=""width: 408px; height: 417px; margin-right: 200px;""><img src=""images/choice_trial_8.png"" style=""width: 408px; height: 417px;""></div></div><br>",arrowdown,delaylearn,test,memory_time,4PlUjpfoJ7fFtl4u6rbMOsV1Atq1,html-keyboard-response,81,457420,0.0-26.0-0.4,4PlUjpfoJ7fFtl4u6rbMOsV1Atq1,5.0,,,,,1.0,7.0,0.0,0.0,,,,,,,8.0,10.0,1.0,6565fff05ec125a5ff77a77c,16:52:22,27/03/2024
,"<div style=""font-size:100px;"">+</div>",,delaylearn,test,pre_fixation,4PlUjpfoJ7fFtl4u6rbMOsV1Atq1,html-keyboard-response,82,460424,0.0-26.0-1.4,,,,,,,,,,,,,,,,,,,,6565fff05ec125a5ff77a77c,16:52:22,27/03/2024
3666.0,"<div style=""display: flex; flex-direction: column; align-items: center; margin-top: -40px;""><div style=""display: flex; justify-content: space-between; margin-top: 33px;""><img src=""images/choice_trial_11.png"" style=""width: 408px; height: 417px; margin-right: 200px;""><img src=""images/choice_trial_4.png"" style=""width: 408px; height: 417px;""></div></div><br>",arrowup,delaylearn,test,memory_time,4PlUjpfoJ7fFtl4u6rbMOsV1Atq1,html-keyboard-response,83,464093,0.0-26.0-0.5,4PlUjpfoJ7fFtl4u6rbMOsV1Atq1,5.0,,,,,0.0,4.0,1.0,0.0,,,,,,,4.0,11.0,0.0,6565fff05ec125a5ff77a77c,16:52:22,27/03/2024
