rt,stimulus,response,exp_name,exp_stage,test_part,subjectID,databaseID,trial_type,trial_index,time_elapsed,internal_node_id,counterbal,stim_left,stim_right,chosen_stim_left,chosen_stim_right,leftright_counter,pair,delay,response_correct,chosen_stim,confidence,value_true,text,userinteract,stim,stim1,stim2,response_longshort,prolificID,start_time,date
,"<div style=""font-size:100px;"">+</div>",,delaylearn,test,pre_fixation,muJ8ZgPLXSW0ladHZrfyk6RX81j2,not found,html-keyboard-response,4,81445,0.0-4.0,,,,,,,,,,,,,,,,,,,5e7c55274f63942a04b08c29,16:58:12,27/03/2024
989.5,"<div style=""display: flex; flex-direction: column; align-items: center; margin-top: -40px;""><div style=""display: flex; justify-content: space-between; margin-top: 33px;""><img src=""images/choice_trial_6.png"" style=""width: 408px; height: 417px; margin-right: 200px;""><img src=""images/choice_trial_12.png"" style=""width: 408px; height: 417px;""></div></div><br><br><br><br>",f,delaylearn,test,memory_choice,muJ8ZgPLXSW0ladHZrfyk6RX81j2,muJ8ZgPLXSW0ladHZrfyk6RX81j2,html-keyboard-response,5,82438,0.0-5.0-0.0,3.0,6.0,12.0,images/choice_trial_6.png,images/choice_trial_12.png,0.0,6.0,0.0,1.0,6.0,,,,,,,,,5e7c55274f63942a04b08c29,16:58:12,27/03/2024
,,,delaylearn,test,isi,muJ8ZgPLXSW0ladHZrfyk6RX81j2,not found,html-keyboard-response,6,82694,0.0-5.0-1.0,,,,,,,,,,,,,,,,,,,5e7c55274f63942a04b08c29,16:58:12,27/03/2024
2336.6999999284744,"<div class=""center_prompt"" style=""font-family: Helvetica; font-weight: light; font-size: 48px; text-anchor: middle; color: white; opacity: 1;"">Confidence</div><br><br><br><br><div class=""center_prompt2"" style=""font-family: Helvetica; font-weight: light; font-size: 48px; text-anchor: middle; color: white; opacity: 1;"">Guess (1) –––– Low (2)  –––– Medium (3) –––– High (4)</div>",2,delaylearn,test,memory_choice_confidence,muJ8ZgPLXSW0ladHZrfyk6RX81j2,muJ8ZgPLXSW0ladHZrfyk6RX81j2,html-keyboard-response,7,85031,0.0-5.0-2.0,3.0,,,,,,,,,,2,,,,,,,,5e7c55274f63942a04b08c29,16:58:12,27/03/2024
,"<div style=""font-size:100px;"">+</div>",,delaylearn,test,pre_fixation,muJ8ZgPLXSW0ladHZrfyk6RX81j2,not found,html-keyboard-response,8,88043,0.0-5.0-3.0,,,,,,,,,,,,,,,,,,,5e7c55274f63942a04b08c29,16:58:12,27/03/2024
4456.699999928474,"<div style=""display: flex; flex-direction: column; align-items: center; margin-top: -40px;""><div style=""display: flex; justify-content: space-between; margin-top: 33px;""><img src=""images/choice_trial_9.png"" style=""width: 408px; height: 417px; margin-right: 200px;""><img src=""images/choice_trial_15.png"" style=""width: 408px; height: 417px;""></div></div><br><br><br><br>",f,delaylearn,test,memory_choice,muJ8ZgPLXSW0ladHZrfyk6RX81j2,muJ8ZgPLXSW0ladHZrfyk6RX81j2,html-keyboard-response,9,92502,0.0-5.0-0.1,3.0,9.0,15.0,images/choice_trial_9.png,images/choice_trial_15.png,1.0,3.0,1.0,0.0,9.0,,,,,,,,,5e7c55274f63942a04b08c29,16:58:12,27/03/2024
,,,delaylearn,test,isi,muJ8ZgPLXSW0ladHZrfyk6RX81j2,not found,html-keyboard-response,10,92760,0.0-5.0-1.1,,,,,,,,,,,,,,,,,,,5e7c55274f63942a04b08c29,16:58:12,27/03/2024
1599.8000000715256,"<div class=""center_prompt"" style=""font-family: Helvetica; font-weight: light; font-size: 48px; text-anchor: middle; color: white; opacity: 1;"">Confidence</div><br><br><br><br><div class=""center_prompt2"" style=""font-family: Helvetica; font-weight: light; font-size: 48px; text-anchor: middle; color: white; opacity: 1;"">Guess (1) –––– Low (2)  –––– Medium (3) –––– High (4)</div>",2,delaylearn,test,memory_choice_confidence,muJ8ZgPLXSW0ladHZrfyk6RX81j2,muJ8ZgPLXSW0ladHZrfyk6RX81j2,html-keyboard-response,11,94361,0.0-5.0-2.1,3.0,,,,,,,,,,2,,,,,,,,5e7c55274f63942a04b08c29,16:58:12,27/03/2024
,"<div style=""font-size:100px;"">+</div>",,delaylearn,test,pre_fixation,muJ8ZgPLXSW0ladHZrfyk6RX81j2,not found,html-keyboard-response,12,97376,0.0-5.0-3.1,,,,,,,,,,,,,,,,,,,5e7c55274f63942a04b08c29,16:58:12,27/03/2024
1977.8999999761581,"<div style=""display: flex; flex-direction: column; align-items: center; margin-top: -40px;""><div style=""display: flex; justify-content: space-between; margin-top: 33px;""><img src=""images/choice_trial_3.png"" style=""width: 408px; height: 417px; margin-right: 200px;""><img src=""images/choice_trial_16.png"" style=""width: 408px; height: 417px;""></div></div><br><br><br><br>",j,delaylearn,test,memory_choice,muJ8ZgPLXSW0ladHZrfyk6RX81j2,muJ8ZgPLXSW0ladHZrfyk6RX81j2,html-keyboard-response,13,99356,0.0-5.0-0.2,3.0,3.0,16.0,images/choice_trial_3.png,images/choice_trial_16.png,1.0,5.0,0.0,1.0,16.0,,,,,,,,,5e7c55274f63942a04b08c29,16:58:12,27/03/2024
,,,delaylearn,test,isi,muJ8ZgPLXSW0ladHZrfyk6RX81j2,not found,html-keyboard-response,14,99609,0.0-5.0-1.2,,,,,,,,,,,,,,,,,,,5e7c55274f63942a04b08c29,16:58:12,27/03/2024
2167.3000000715256,"<div class=""center_prompt"" style=""font-family: Helvetica; font-weight: light; font-size: 48px; text-anchor: middle; color: white; opacity: 1;"">Confidence</div><br><br><br><br><div class=""center_prompt2"" style=""font-family: Helvetica; font-weight: light; font-size: 48px; text-anchor: middle; color: white; opacity: 1;"">Guess (1) –––– Low (2)  –––– Medium (3) –––– High (4)</div>",3,delaylearn,test,memory_choice_confidence,muJ8ZgPLXSW0ladHZrfyk6RX81j2,muJ8ZgPLXSW0ladHZrfyk6RX81j2,html-keyboard-response,15,101777,0.0-5.0-2.2,3.0,,,,,,,,,,3,,,,,,,,5e7c55274f63942a04b08c29,16:58:12,27/03/2024
,"<div style=""font-size:100px;"">+</div>",,delaylearn,test,pre_fixation,muJ8ZgPLXSW0ladHZrfyk6RX81j2,not found,html-keyboard-response,16,104793,0.0-5.0-3.2,,,,,,,,,,,,,,,,,,,5e7c55274f63942a04b08c29,16:58:12,27/03/2024
2915.5,"<div style=""display: flex; flex-direction: column; align-items: center; margin-top: -40px;""><div style=""display: flex; justify-content: space-between; margin-top: 33px;""><img src=""images/choice_trial_2.png"" style=""width: 408px; height: 417px; margin-right: 200px;""><img src=""images/choice_trial_11.png"" style=""width: 408px; height: 417px;""></div></div><br><br><br><br>",j,delaylearn,test,memory_choice,muJ8ZgPLXSW0ladHZrfyk6RX81j2,muJ8ZgPLXSW0ladHZrfyk6RX81j2,html-keyboard-response,17,107711,0.0-5.0-0.3,3.0,2.0,11.0,images/choice_trial_2.png,images/choice_trial_11.png,1.0,4.0,0.0,1.0,11.0,,,,,,,,,5e7c55274f63942a04b08c29,16:58:12,27/03/2024
,,,delaylearn,test,isi,muJ8ZgPLXSW0ladHZrfyk6RX81j2,not found,html-keyboard-response,18,107977,0.0-5.0-1.3,,,,,,,,,,,,,,,,,,,5e7c55274f63942a04b08c29,16:58:12,27/03/2024
1757.4000000953674,"<div class=""center_prompt"" style=""font-family: Helvetica; font-weight: light; font-size: 48px; text-anchor: middle; color: white; opacity: 1;"">Confidence</div><br><br><br><br><div class=""center_prompt2"" style=""font-family: Helvetica; font-weight: light; font-size: 48px; text-anchor: middle; color: white; opacity: 1;"">Guess (1) –––– Low (2)  –––– Medium (3) –––– High (4)</div>",2,delaylearn,test,memory_choice_confidence,muJ8ZgPLXSW0ladHZrfyk6RX81j2,muJ8ZgPLXSW0ladHZrfyk6RX81j2,html-keyboard-response,19,109736,0.0-5.0-2.3,3.0,,,,,,,,,,2,,,,,,,,5e7c55274f63942a04b08c29,16:58:12,27/03/2024
,"<div style=""font-size:100px;"">+</div>",,delaylearn,test,pre_fixation,muJ8ZgPLXSW0ladHZrfyk6RX81j2,not found,html-keyboard-response,20,112744,0.0-5.0-3.3,,,,,,,,,,,,,,,,,,,5e7c55274f63942a04b08c29,16:58:12,27/03/2024
1615.8999999761581,"<div style=""display: flex; flex-direction: column; align-items: center; margin-top: -40px;""><div style=""display: flex; justify-content: space-between; margin-top: 33px;""><img src=""images/choice_trial_13.png"" style=""width: 408px; height: 417px; margin-right: 200px;""><img src=""images/choice_trial_10.png"" style=""width: 408px; height: 417px;""></div></div><br><br><br><br>",f,delaylearn,test,memory_choice,muJ8ZgPLXSW0ladHZrfyk6RX81j2,muJ8ZgPLXSW0ladHZrfyk6RX81j2,html-keyboard-response,21,114361,0.0-5.0-0.4,3.0,13.0,10.0,images/choice_trial_13.png,images/choice_trial_10.png,0.0,2.0,1.0,1.0,13.0,,,,,,,,,5e7c55274f63942a04b08c29,16:58:12,27/03/2024
,,,delaylearn,test,isi,muJ8ZgPLXSW0ladHZrfyk6RX81j2,not found,html-keyboard-response,22,114613,0.0-5.0-1.4,,,,,,,,,,,,,,,,,,,5e7c55274f63942a04b08c29,16:58:12,27/03/2024
2177.399999976158,"<div class=""center_prompt"" style=""font-family: Helvetica; font-weight: light; font-size: 48px; text-anchor: middle; color: white; opacity: 1;"">Confidence</div><br><br><br><br><div class=""center_prompt2"" style=""font-family: Helvetica; font-weight: light; font-size: 48px; text-anchor: middle; color: white; opacity: 1;"">Guess (1) –––– Low (2)  –––– Medium (3) –––– High (4)</div>",1,delaylearn,test,memory_choice_confidence,muJ8ZgPLXSW0ladHZrfyk6RX81j2,muJ8ZgPLXSW0ladHZrfyk6RX81j2,html-keyboard-response,23,116792,0.0-5.0-2.4,3.0,,,,,,,,,,1,,,,,,,,5e7c55274f63942a04b08c29,16:58:12,27/03/2024
,"<div style=""font-size:100px;"">+</div>",,delaylearn,test,pre_fixation,muJ8ZgPLXSW0ladHZrfyk6RX81j2,not found,html-keyboard-response,24,119796,0.0-5.0-3.4,,,,,,,,,,,,,,,,,,,5e7c55274f63942a04b08c29,16:58:12,27/03/2024
2127.3000000715256,"<div style=""display: flex; flex-direction: column; align-items: center; margin-top: -40px;""><div style=""display: flex; justify-content: space-between; margin-top: 33px;""><img src=""images/choice_trial_8.png"" style=""width: 408px; height: 417px; margin-right: 200px;""><img src=""images/choice_trial_14.png"" style=""width: 408px; height: 417px;""></div></div><br><br><br><br>",j,delaylearn,test,memory_choice,muJ8ZgPLXSW0ladHZrfyk6RX81j2,muJ8ZgPLXSW0ladHZrfyk6RX81j2,html-keyboard-response,25,121925,0.0-5.0-0.5,3.0,8.0,14.0,images/choice_trial_8.png,images/choice_trial_14.png,1.0,1.0,1.0,1.0,14.0,,,,,,,,,5e7c55274f63942a04b08c29,16:58:12,27/03/2024
,,,delaylearn,test,isi,muJ8ZgPLXSW0ladHZrfyk6RX81j2,not found,html-keyboard-response,26,122196,0.0-5.0-1.5,,,,,,,,,,,,,,,,,,,5e7c55274f63942a04b08c29,16:58:12,27/03/2024
1832.3999999761581,"<div class=""center_prompt"" style=""font-family: Helvetica; font-weight: light; font-size: 48px; text-anchor: middle; color: white; opacity: 1;"">Confidence</div><br><br><br><br><div class=""center_prompt2"" style=""font-family: Helvetica; font-weight: light; font-size: 48px; text-anchor: middle; color: white; opacity: 1;"">Guess (1) –––– Low (2)  –––– Medium (3) –––– High (4)</div>",3,delaylearn,test,memory_choice_confidence,muJ8ZgPLXSW0ladHZrfyk6RX81j2,muJ8ZgPLXSW0ladHZrfyk6RX81j2,html-keyboard-response,27,124029,0.0-5.0-2.5,3.0,,,,,,,,,,3,,,,,,,,5e7c55274f63942a04b08c29,16:58:12,27/03/2024
,"<div style=""font-size:100px;"">+</div>",,delaylearn,test,pre_fixation,muJ8ZgPLXSW0ladHZrfyk6RX81j2,not found,html-keyboard-response,28,127042,0.0-5.0-3.5,,,,,,,,,,,,,,,,,,,5e7c55274f63942a04b08c29,16:58:12,27/03/2024
3908.0,"<div style=""display: flex; flex-direction: column; align-items: center; margin-top: -40px;""><div style=""display: flex; justify-content: space-between; margin-top: 33px;""><img src=""images/choice_trial_3.png"" style=""width: 408px; height: 417px; margin-right: 200px;""><img src=""images/choice_trial_11.png"" style=""width: 408px; height: 417px;""></div></div><br><br><br><br>",j,delaylearn,test,memory_choice,muJ8ZgPLXSW0ladHZrfyk6RX81j2,muJ8ZgPLXSW0ladHZrfyk6RX81j2,html-keyboard-response,29,130952,0.0-5.0-0.6,3.0,3.0,11.0,images/choice_trial_3.png,images/choice_trial_11.png,1.0,45.0,0.0,1.0,11.0,,,,,,,,,5e7c55274f63942a04b08c29,16:58:12,27/03/2024
,,,delaylearn,test,isi,muJ8ZgPLXSW0ladHZrfyk6RX81j2,not found,html-keyboard-response,30,131211,0.0-5.0-1.6,,,,,,,,,,,,,,,,,,,5e7c55274f63942a04b08c29,16:58:12,27/03/2024
2096.2999999523163,"<div class=""center_prompt"" style=""font-family: Helvetica; font-weight: light; font-size: 48px; text-anchor: middle; color: white; opacity: 1;"">Confidence</div><br><br><br><br><div class=""center_prompt2"" style=""font-family: Helvetica; font-weight: light; font-size: 48px; text-anchor: middle; color: white; opacity: 1;"">Guess (1) –––– Low (2)  –––– Medium (3) –––– High (4)</div>",1,delaylearn,test,memory_choice_confidence,muJ8ZgPLXSW0ladHZrfyk6RX81j2,muJ8ZgPLXSW0ladHZrfyk6RX81j2,html-keyboard-response,31,133308,0.0-5.0-2.6,3.0,,,,,,,,,,1,,,,,,,,5e7c55274f63942a04b08c29,16:58:12,27/03/2024
,"<div style=""font-size:100px;"">+</div>",,delaylearn,test,pre_fixation,muJ8ZgPLXSW0ladHZrfyk6RX81j2,not found,html-keyboard-response,32,136329,0.0-5.0-3.6,,,,,,,,,,,,,,,,,,,5e7c55274f63942a04b08c29,16:58:12,27/03/2024
2045.1000000238419,"<div style=""display: flex; flex-direction: column; align-items: center; margin-top: -40px;""><div style=""display: flex; justify-content: space-between; margin-top: 33px;""><img src=""images/choice_trial_14.png"" style=""width: 408px; height: 417px; margin-right: 200px;""><img src=""images/choice_trial_10.png"" style=""width: 408px; height: 417px;""></div></div><br><br><br><br>",f,delaylearn,test,memory_choice,muJ8ZgPLXSW0ladHZrfyk6RX81j2,muJ8ZgPLXSW0ladHZrfyk6RX81j2,html-keyboard-response,33,138376,0.0-5.0-0.7,3.0,14.0,10.0,images/choice_trial_14.png,images/choice_trial_10.png,0.0,12.0,1.0,1.0,14.0,,,,,,,,,5e7c55274f63942a04b08c29,16:58:12,27/03/2024
,,,delaylearn,test,isi,muJ8ZgPLXSW0ladHZrfyk6RX81j2,not found,html-keyboard-response,34,138629,0.0-5.0-1.7,,,,,,,,,,,,,,,,,,,5e7c55274f63942a04b08c29,16:58:12,27/03/2024
3677.399999976158,"<div class=""center_prompt"" style=""font-family: Helvetica; font-weight: light; font-size: 48px; text-anchor: middle; color: white; opacity: 1;"">Confidence</div><br><br><br><br><div class=""center_prompt2"" style=""font-family: Helvetica; font-weight: light; font-size: 48px; text-anchor: middle; color: white; opacity: 1;"">Guess (1) –––– Low (2)  –––– Medium (3) –––– High (4)</div>",1,delaylearn,test,memory_choice_confidence,muJ8ZgPLXSW0ladHZrfyk6RX81j2,muJ8ZgPLXSW0ladHZrfyk6RX81j2,html-keyboard-response,35,142307,0.0-5.0-2.7,3.0,,,,,,,,,,1,,,,,,,,5e7c55274f63942a04b08c29,16:58:12,27/03/2024
,"<div style=""font-size:100px;"">+</div>",,delaylearn,test,pre_fixation,muJ8ZgPLXSW0ladHZrfyk6RX81j2,not found,html-keyboard-response,36,145311,0.0-5.0-3.7,,,,,,,,,,,,,,,,,,,5e7c55274f63942a04b08c29,16:58:12,27/03/2024
5980.400000095367,"<div style=""display: flex; flex-direction: column; align-items: center; margin-top: -40px;""><div style=""display: flex; justify-content: space-between; margin-top: 33px;""><img src=""images/choice_trial_9.png"" style=""width: 408px; height: 417px; margin-right: 200px;""><img src=""images/choice_trial_13.png"" style=""width: 408px; height: 417px;""></div></div><br><br><br><br>",j,delaylearn,test,memory_choice,muJ8ZgPLXSW0ladHZrfyk6RX81j2,muJ8ZgPLXSW0ladHZrfyk6RX81j2,html-keyboard-response,37,151294,0.0-5.0-0.8,3.0,9.0,13.0,images/choice_trial_9.png,images/choice_trial_13.png,1.0,23.0,1.0,1.0,13.0,,,,,,,,,5e7c55274f63942a04b08c29,16:58:12,27/03/2024
,,,delaylearn,test,isi,muJ8ZgPLXSW0ladHZrfyk6RX81j2,not found,html-keyboard-response,38,151561,0.0-5.0-1.8,,,,,,,,,,,,,,,,,,,5e7c55274f63942a04b08c29,16:58:12,27/03/2024
1459.0,"<div class=""center_prompt"" style=""font-family: Helvetica; font-weight: light; font-size: 48px; text-anchor: middle; color: white; opacity: 1;"">Confidence</div><br><br><br><br><div class=""center_prompt2"" style=""font-family: Helvetica; font-weight: light; font-size: 48px; text-anchor: middle; color: white; opacity: 1;"">Guess (1) –––– Low (2)  –––– Medium (3) –––– High (4)</div>",1,delaylearn,test,memory_choice_confidence,muJ8ZgPLXSW0ladHZrfyk6RX81j2,muJ8ZgPLXSW0ladHZrfyk6RX81j2,html-keyboard-response,39,153021,0.0-5.0-2.8,3.0,,,,,,,,,,1,,,,,,,,5e7c55274f63942a04b08c29,16:58:12,27/03/2024
,"<div style=""font-size:100px;"">+</div>",,delaylearn,test,pre_fixation,muJ8ZgPLXSW0ladHZrfyk6RX81j2,not found,html-keyboard-response,40,156026,0.0-5.0-3.8,,,,,,,,,,,,,,,,,,,5e7c55274f63942a04b08c29,16:58:12,27/03/2024
1557.0,"<div style=""display: flex; flex-direction: column; align-items: center; margin-top: -40px;""><div style=""display: flex; justify-content: space-between; margin-top: 33px;""><img src=""images/choice_trial_16.png"" style=""width: 408px; height: 417px; margin-right: 200px;""><img src=""images/choice_trial_12.png"" style=""width: 408px; height: 417px;""></div></div><br><br><br><br>",f,delaylearn,test,memory_choice,muJ8ZgPLXSW0ladHZrfyk6RX81j2,muJ8ZgPLXSW0ladHZrfyk6RX81j2,html-keyboard-response,41,157586,0.0-5.0-0.9,3.0,16.0,12.0,images/choice_trial_16.png,images/choice_trial_12.png,0.0,56.0,0.0,1.0,16.0,,,,,,,,,5e7c55274f63942a04b08c29,16:58:12,27/03/2024
,,,delaylearn,test,isi,muJ8ZgPLXSW0ladHZrfyk6RX81j2,not found,html-keyboard-response,42,157845,0.0-5.0-1.9,,,,,,,,,,,,,,,,,,,5e7c55274f63942a04b08c29,16:58:12,27/03/2024
2235.5,"<div class=""center_prompt"" style=""font-family: Helvetica; font-weight: light; font-size: 48px; text-anchor: middle; color: white; opacity: 1;"">Confidence</div><br><br><br><br><div class=""center_prompt2"" style=""font-family: Helvetica; font-weight: light; font-size: 48px; text-anchor: middle; color: white; opacity: 1;"">Guess (1) –––– Low (2)  –––– Medium (3) –––– High (4)</div>",1,delaylearn,test,memory_choice_confidence,muJ8ZgPLXSW0ladHZrfyk6RX81j2,muJ8ZgPLXSW0ladHZrfyk6RX81j2,html-keyboard-response,43,160081,0.0-5.0-2.9,3.0,,,,,,,,,,1,,,,,,,,5e7c55274f63942a04b08c29,16:58:12,27/03/2024
,"<div style=""font-size:100px;"">+</div>",,delaylearn,test,pre_fixation,muJ8ZgPLXSW0ladHZrfyk6RX81j2,not found,html-keyboard-response,44,163093,0.0-5.0-3.9,,,,,,,,,,,,,,,,,,,5e7c55274f63942a04b08c29,16:58:12,27/03/2024
3119.0,"<div style=""display: flex; flex-direction: column; align-items: center; margin-top: -40px;""><div style=""display: flex; justify-content: space-between; margin-top: 33px;""><img src=""images/choice_trial_15.png"" style=""width: 408px; height: 417px; margin-right: 200px;""><img src=""images/choice_trial_8.png"" style=""width: 408px; height: 417px;""></div></div><br><br><br><br>",f,delaylearn,test,memory_choice,muJ8ZgPLXSW0ladHZrfyk6RX81j2,muJ8ZgPLXSW0ladHZrfyk6RX81j2,html-keyboard-response,45,166215,0.0-5.0-0.10,3.0,15.0,8.0,images/choice_trial_15.png,images/choice_trial_8.png,0.0,31.0,1.0,1.0,15.0,,,,,,,,,5e7c55274f63942a04b08c29,16:58:12,27/03/2024
,,,delaylearn,test,isi,muJ8ZgPLXSW0ladHZrfyk6RX81j2,not found,html-keyboard-response,46,166477,0.0-5.0-1.10,,,,,,,,,,,,,,,,,,,5e7c55274f63942a04b08c29,16:58:12,27/03/2024
1119.7999999523163,"<div class=""center_prompt"" style=""font-family: Helvetica; font-weight: light; font-size: 48px; text-anchor: middle; color: white; opacity: 1;"">Confidence</div><br><br><br><br><div class=""center_prompt2"" style=""font-family: Helvetica; font-weight: light; font-size: 48px; text-anchor: middle; color: white; opacity: 1;"">Guess (1) –––– Low (2)  –––– Medium (3) –––– High (4)</div>",1,delaylearn,test,memory_choice_confidence,muJ8ZgPLXSW0ladHZrfyk6RX81j2,muJ8ZgPLXSW0ladHZrfyk6RX81j2,html-keyboard-response,47,167598,0.0-5.0-2.10,3.0,,,,,,,,,,1,,,,,,,,5e7c55274f63942a04b08c29,16:58:12,27/03/2024
,"<div style=""font-size:100px;"">+</div>",,delaylearn,test,pre_fixation,muJ8ZgPLXSW0ladHZrfyk6RX81j2,not found,html-keyboard-response,48,170609,0.0-5.0-3.10,,,,,,,,,,,,,,,,,,,5e7c55274f63942a04b08c29,16:58:12,27/03/2024
1708.7999999523163,"<div style=""display: flex; flex-direction: column; align-items: center; margin-top: -40px;""><div style=""display: flex; justify-content: space-between; margin-top: 33px;""><img src=""images/choice_trial_2.png"" style=""width: 408px; height: 417px; margin-right: 200px;""><img src=""images/choice_trial_6.png"" style=""width: 408px; height: 417px;""></div></div><br><br><br><br>",f,delaylearn,test,memory_choice,muJ8ZgPLXSW0ladHZrfyk6RX81j2,muJ8ZgPLXSW0ladHZrfyk6RX81j2,html-keyboard-response,49,172320,0.0-5.0-0.11,3.0,2.0,6.0,images/choice_trial_2.png,images/choice_trial_6.png,1.0,64.0,0.0,0.0,2.0,,,,,,,,,5e7c55274f63942a04b08c29,16:58:12,27/03/2024
,,,delaylearn,test,isi,muJ8ZgPLXSW0ladHZrfyk6RX81j2,not found,html-keyboard-response,50,172577,0.0-5.0-1.11,,,,,,,,,,,,,,,,,,,5e7c55274f63942a04b08c29,16:58:12,27/03/2024
1152.2000000476837,"<div class=""center_prompt"" style=""font-family: Helvetica; font-weight: light; font-size: 48px; text-anchor: middle; color: white; opacity: 1;"">Confidence</div><br><br><br><br><div class=""center_prompt2"" style=""font-family: Helvetica; font-weight: light; font-size: 48px; text-anchor: middle; color: white; opacity: 1;"">Guess (1) –––– Low (2)  –––– Medium (3) –––– High (4)</div>",1,delaylearn,test,memory_choice_confidence,muJ8ZgPLXSW0ladHZrfyk6RX81j2,muJ8ZgPLXSW0ladHZrfyk6RX81j2,html-keyboard-response,51,173730,0.0-5.0-2.11,3.0,,,,,,,,,,1,,,,,,,,5e7c55274f63942a04b08c29,16:58:12,27/03/2024
,"<div style=""font-size:100px;"">+</div>",,delaylearn,test,pre_fixation,muJ8ZgPLXSW0ladHZrfyk6RX81j2,not found,html-keyboard-response,52,176744,0.0-5.0-3.11,,,,,,,,,,,,,,,,,,,5e7c55274f63942a04b08c29,16:58:12,27/03/2024
,"<div style=""font-size:100px;"">+</div>",,delaylearn,test,pre_fixation,muJ8ZgPLXSW0ladHZrfyk6RX81j2,not found,html-keyboard-response,53,179762,0.0-6.0,,,,,,,,,,,,,,,,,,,5e7c55274f63942a04b08c29,16:58:12,27/03/2024
10717.0,16,0.8634258970366161,delaylearn,test,memory_rating,muJ8ZgPLXSW0ladHZrfyk6RX81j2,muJ8ZgPLXSW0ladHZrfyk6RX81j2,option-scale-rating,56,213747,0.0-9.0,3.0,,,,,,6.0,0.0,,,,0.77,What percent of the time did you win when choosing this option?,fullscreenenter,16.0,,,,5e7c55274f63942a04b08c29,16:58:12,27/03/2024
5600.0,10,0.49691356861851216,delaylearn,test,memory_rating,muJ8ZgPLXSW0ladHZrfyk6RX81j2,muJ8ZgPLXSW0ladHZrfyk6RX81j2,option-scale-rating,57,222365,0.0-10.0,3.0,,,,,,3.0,1.0,,,,0.23,What percent of the time did you win when choosing this option?,fullscreenenter,10.0,,,,5e7c55274f63942a04b08c29,16:58:12,27/03/2024
7651.0,13,0.5721450465569651,delaylearn,test,memory_rating,muJ8ZgPLXSW0ladHZrfyk6RX81j2,muJ8ZgPLXSW0ladHZrfyk6RX81j2,option-scale-rating,58,233031,0.0-11.0,3.0,,,,,,3.0,1.0,,,,0.77,What percent of the time did you win when choosing this option?,fullscreenenter,13.0,,,,5e7c55274f63942a04b08c29,16:58:12,27/03/2024
4720.0,6,0.5509259117538117,delaylearn,test,memory_rating,muJ8ZgPLXSW0ladHZrfyk6RX81j2,muJ8ZgPLXSW0ladHZrfyk6RX81j2,option-scale-rating,59,240763,0.0-12.0,3.0,,,,,,7.0,0.0,,,,0.77,What percent of the time did you win when choosing this option?,fullscreenenter,6.0,,,,5e7c55274f63942a04b08c29,16:58:12,27/03/2024
4867.0,2,0.5007715931281764,delaylearn,test,memory_rating,muJ8ZgPLXSW0ladHZrfyk6RX81j2,muJ8ZgPLXSW0ladHZrfyk6RX81j2,option-scale-rating,60,248647,0.0-13.0,3.0,,,,,,5.0,0.0,,,,0.23,What percent of the time did you win when choosing this option?,fullscreenenter,2.0,,,,5e7c55274f63942a04b08c29,16:58:12,27/03/2024
7768.0,15,0.4313271519542199,delaylearn,test,memory_rating,muJ8ZgPLXSW0ladHZrfyk6RX81j2,muJ8ZgPLXSW0ladHZrfyk6RX81j2,option-scale-rating,61,259429,0.0-14.0,3.0,,,,,,4.0,1.0,,,,0.77,What percent of the time did you win when choosing this option?,fullscreenenter,15.0,,,,5e7c55274f63942a04b08c29,16:58:12,27/03/2024
5945.0,12,0.4544752990122054,delaylearn,test,memory_rating,muJ8ZgPLXSW0ladHZrfyk6RX81j2,muJ8ZgPLXSW0ladHZrfyk6RX81j2,option-scale-rating,62,268391,0.0-15.0,3.0,,,,,,7.0,0.0,,,,0.23,What percent of the time did you win when choosing this option?,fullscreenenter,12.0,,,,5e7c55274f63942a04b08c29,16:58:12,27/03/2024
6250.0,9,0.7071759043952139,delaylearn,test,memory_rating,muJ8ZgPLXSW0ladHZrfyk6RX81j2,muJ8ZgPLXSW0ladHZrfyk6RX81j2,option-scale-rating,63,277659,0.0-16.0,3.0,,,,,,4.0,1.0,,,,0.23,What percent of the time did you win when choosing this option?,fullscreenenter,9.0,,,,5e7c55274f63942a04b08c29,16:58:12,27/03/2024
6000.0,3,0.24614197549033576,delaylearn,test,memory_rating,muJ8ZgPLXSW0ladHZrfyk6RX81j2,muJ8ZgPLXSW0ladHZrfyk6RX81j2,option-scale-rating,64,286676,0.0-17.0,3.0,,,,,,6.0,0.0,,,,0.23,What percent of the time did you win when choosing this option?,fullscreenenter,3.0,,,,5e7c55274f63942a04b08c29,16:58:12,27/03/2024
5597.0,14,0.8364197254689664,delaylearn,test,memory_rating,muJ8ZgPLXSW0ladHZrfyk6RX81j2,muJ8ZgPLXSW0ladHZrfyk6RX81j2,option-scale-rating,65,295294,0.0-18.0,3.0,,,,,,1.0,1.0,,,,0.77,What percent of the time did you win when choosing this option?,fullscreenenter,14.0,,,,5e7c55274f63942a04b08c29,16:58:12,27/03/2024
4497.0,8,0.18827160784537195,delaylearn,test,memory_rating,muJ8ZgPLXSW0ladHZrfyk6RX81j2,muJ8ZgPLXSW0ladHZrfyk6RX81j2,option-scale-rating,66,302810,0.0-19.0,3.0,,,,,,1.0,1.0,,,,0.23,What percent of the time did you win when choosing this option?,fullscreenenter,8.0,,,,5e7c55274f63942a04b08c29,16:58:12,27/03/2024
5636.0,11,0.49498455636368005,delaylearn,test,memory_rating,muJ8ZgPLXSW0ladHZrfyk6RX81j2,muJ8ZgPLXSW0ladHZrfyk6RX81j2,option-scale-rating,67,311466,0.0-20.0,3.0,,,,,,5.0,0.0,,,,0.77,What percent of the time did you win when choosing this option?,fullscreenenter,11.0,,,,5e7c55274f63942a04b08c29,16:58:12,27/03/2024
,"<div style=""font-size:100px;"">+</div>",,delaylearn,test,pre_fixation,muJ8ZgPLXSW0ladHZrfyk6RX81j2,not found,html-keyboard-response,68,314474,0.0-21.0,,,,,,,,,,,,,,,,,,,5e7c55274f63942a04b08c29,16:58:12,27/03/2024
,"<div style=""font-size:100px;"">+</div>",,delaylearn,test,pre_fixation,muJ8ZgPLXSW0ladHZrfyk6RX81j2,not found,html-keyboard-response,72,378526,0.0-25.0,,,,,,,,,,,,,,,,,,,5e7c55274f63942a04b08c29,16:58:12,27/03/2024
2417.7000000476837,"<div style=""display: flex; flex-direction: column; align-items: center; margin-top: -40px;""><div style=""display: flex; justify-content: space-between; margin-top: 33px;""><img src=""images/choice_trial_8.png"" style=""width: 408px; height: 417px; margin-right: 200px;""><img src=""images/choice_trial_14.png"" style=""width: 408px; height: 417px;""></div></div><br>",arrowdown,delaylearn,test,memory_time,muJ8ZgPLXSW0ladHZrfyk6RX81j2,muJ8ZgPLXSW0ladHZrfyk6RX81j2,html-keyboard-response,73,380946,0.0-26.0-0.0,3.0,,,,,1.0,1.0,1.0,1.0,,,,,,,8.0,14.0,1.0,5e7c55274f63942a04b08c29,16:58:12,27/03/2024
,"<div style=""font-size:100px;"">+</div>",,delaylearn,test,pre_fixation,muJ8ZgPLXSW0ladHZrfyk6RX81j2,not found,html-keyboard-response,74,383958,0.0-26.0-1.0,,,,,,,,,,,,,,,,,,,5e7c55274f63942a04b08c29,16:58:12,27/03/2024
1735.2999999523163,"<div style=""display: flex; flex-direction: column; align-items: center; margin-top: -40px;""><div style=""display: flex; justify-content: space-between; margin-top: 33px;""><img src=""images/choice_trial_2.png"" style=""width: 408px; height: 417px; margin-right: 200px;""><img src=""images/choice_trial_11.png"" style=""width: 408px; height: 417px;""></div></div><br>",arrowdown,delaylearn,test,memory_time,muJ8ZgPLXSW0ladHZrfyk6RX81j2,muJ8ZgPLXSW0ladHZrfyk6RX81j2,html-keyboard-response,75,385695,0.0-26.0-0.1,3.0,,,,,1.0,5.0,0.0,0.0,,,,,,,2.0,11.0,1.0,5e7c55274f63942a04b08c29,16:58:12,27/03/2024
,"<div style=""font-size:100px;"">+</div>",,delaylearn,test,pre_fixation,muJ8ZgPLXSW0ladHZrfyk6RX81j2,not found,html-keyboard-response,76,388706,0.0-26.0-1.1,,,,,,,,,,,,,,,,,,,5e7c55274f63942a04b08c29,16:58:12,27/03/2024
1877.2999999523163,"<div style=""display: flex; flex-direction: column; align-items: center; margin-top: -40px;""><div style=""display: flex; justify-content: space-between; margin-top: 33px;""><img src=""images/choice_trial_13.png"" style=""width: 408px; height: 417px; margin-right: 200px;""><img src=""images/choice_trial_10.png"" style=""width: 408px; height: 417px;""></div></div><br>",arrowup,delaylearn,test,memory_time,muJ8ZgPLXSW0ladHZrfyk6RX81j2,muJ8ZgPLXSW0ladHZrfyk6RX81j2,html-keyboard-response,77,390586,0.0-26.0-0.2,3.0,,,,,1.0,3.0,1.0,0.0,,,,,,,13.0,10.0,0.0,5e7c55274f63942a04b08c29,16:58:12,27/03/2024
,"<div style=""font-size:100px;"">+</div>",,delaylearn,test,pre_fixation,muJ8ZgPLXSW0ladHZrfyk6RX81j2,not found,html-keyboard-response,78,393593,0.0-26.0-1.2,,,,,,,,,,,,,,,,,,,5e7c55274f63942a04b08c29,16:58:12,27/03/2024
1441.8999999761581,"<div style=""display: flex; flex-direction: column; align-items: center; margin-top: -40px;""><div style=""display: flex; justify-content: space-between; margin-top: 33px;""><img src=""images/choice_trial_16.png"" style=""width: 408px; height: 417px; margin-right: 200px;""><img src=""images/choice_trial_3.png"" style=""width: 408px; height: 417px;""></div></div><br>",arrowup,delaylearn,test,memory_time,muJ8ZgPLXSW0ladHZrfyk6RX81j2,muJ8ZgPLXSW0ladHZrfyk6RX81j2,html-keyboard-response,79,395037,0.0-26.0-0.3,3.0,,,,,0.0,6.0,0.0,1.0,,,,,,,3.0,16.0,0.0,5e7c55274f63942a04b08c29,16:58:12,27/03/2024
,"<div style=""font-size:100px;"">+</div>",,delaylearn,test,pre_fixation,muJ8ZgPLXSW0ladHZrfyk6RX81j2,not found,html-keyboard-response,80,398042,0.0-26.0-1.3,,,,,,,,,,,,,,,,,,,5e7c55274f63942a04b08c29,16:58:12,27/03/2024
1963.8999999761581,"<div style=""display: flex; flex-direction: column; align-items: center; margin-top: -40px;""><div style=""display: flex; justify-content: space-between; margin-top: 33px;""><img src=""images/choice_trial_12.png"" style=""width: 408px; height: 417px; margin-right: 200px;""><img src=""images/choice_trial_6.png"" style=""width: 408px; height: 417px;""></div></div><br>",arrowup,delaylearn,test,memory_time,muJ8ZgPLXSW0ladHZrfyk6RX81j2,muJ8ZgPLXSW0ladHZrfyk6RX81j2,html-keyboard-response,81,400008,0.0-26.0-0.4,3.0,,,,,1.0,7.0,0.0,1.0,,,,,,,6.0,12.0,0.0,5e7c55274f63942a04b08c29,16:58:12,27/03/2024
,"<div style=""font-size:100px;"">+</div>",,delaylearn,test,pre_fixation,muJ8ZgPLXSW0ladHZrfyk6RX81j2,not found,html-keyboard-response,82,403027,0.0-26.0-1.4,,,,,,,,,,,,,,,,,,,5e7c55274f63942a04b08c29,16:58:12,27/03/2024
1561.2999999523163,"<div style=""display: flex; flex-direction: column; align-items: center; margin-top: -40px;""><div style=""display: flex; justify-content: space-between; margin-top: 33px;""><img src=""images/choice_trial_15.png"" style=""width: 408px; height: 417px; margin-right: 200px;""><img src=""images/choice_trial_9.png"" style=""width: 408px; height: 417px;""></div></div><br>",arrowdown,delaylearn,test,memory_time,muJ8ZgPLXSW0ladHZrfyk6RX81j2,muJ8ZgPLXSW0ladHZrfyk6RX81j2,html-keyboard-response,83,404591,0.0-26.0-0.5,3.0,,,,,0.0,4.0,1.0,1.0,,,,,,,9.0,15.0,1.0,5e7c55274f63942a04b08c29,16:58:12,27/03/2024
