rt,stimulus,response,exp_name,exp_stage,test_part,subjectID,trial_type,trial_index,time_elapsed,internal_node_id,databaseID,counterbal,stim_left,stim_right,chosen_stim_left,chosen_stim_right,leftright_counter,pair,delay,response_correct,chosen_stim,confidence,value_true,text,userinteract,stim,stim1,stim2,response_longshort,prolificID,start_time,date
,"<div style=""font-size:100px;"">+</div>",,delaylearn,test,pre_fixation,OOiMxdf9dRUrVxQFfRCSBfGsATr1,html-keyboard-response,4,89993,0.0-4.0,,,,,,,,,,,,,,,,,,,,6096eca15340fc49ef3f1ab3,16:56:22,27/03/2024
1200.0000000004657,"<div style=""display: flex; flex-direction: column; align-items: center; margin-top: -40px;""><div style=""display: flex; justify-content: space-between; margin-top: 33px;""><img src=""images/choice_trial_8.png"" style=""width: 408px; height: 417px; margin-right: 200px;""><img src=""images/choice_trial_15.png"" style=""width: 408px; height: 417px;""></div></div><br><br><br><br>",f,delaylearn,test,memory_choice,OOiMxdf9dRUrVxQFfRCSBfGsATr1,html-keyboard-response,5,91195,0.0-5.0-0.0,OOiMxdf9dRUrVxQFfRCSBfGsATr1,2.0,8.0,15.0,images/choice_trial_8.png,images/choice_trial_15.png,0.0,6.0,0.0,1.0,8.0,,,,,,,,,6096eca15340fc49ef3f1ab3,16:56:22,27/03/2024
,,,delaylearn,test,isi,OOiMxdf9dRUrVxQFfRCSBfGsATr1,html-keyboard-response,6,91448,0.0-5.0-1.0,,,,,,,,,,,,,,,,,,,,6096eca15340fc49ef3f1ab3,16:56:22,27/03/2024
1886.0,"<div class=""center_prompt"" style=""font-family: Helvetica; font-weight: light; font-size: 48px; text-anchor: middle; color: white; opacity: 1;"">Confidence</div><br><br><br><br><div class=""center_prompt2"" style=""font-family: Helvetica; font-weight: light; font-size: 48px; text-anchor: middle; color: white; opacity: 1;"">Guess (1) –––– Low (2)  –––– Medium (3) –––– High (4)</div>",3,delaylearn,test,memory_choice_confidence,OOiMxdf9dRUrVxQFfRCSBfGsATr1,html-keyboard-response,7,93336,0.0-5.0-2.0,OOiMxdf9dRUrVxQFfRCSBfGsATr1,2.0,,,,,,,,,,3,,,,,,,,6096eca15340fc49ef3f1ab3,16:56:22,27/03/2024
,"<div style=""font-size:100px;"">+</div>",,delaylearn,test,pre_fixation,OOiMxdf9dRUrVxQFfRCSBfGsATr1,html-keyboard-response,8,96339,0.0-5.0-3.0,,,,,,,,,,,,,,,,,,,,6096eca15340fc49ef3f1ab3,16:56:22,27/03/2024
1105.0,"<div style=""display: flex; flex-direction: column; align-items: center; margin-top: -40px;""><div style=""display: flex; justify-content: space-between; margin-top: 33px;""><img src=""images/choice_trial_16.png"" style=""width: 408px; height: 417px; margin-right: 200px;""><img src=""images/choice_trial_4.png"" style=""width: 408px; height: 417px;""></div></div><br><br><br><br>",j,delaylearn,test,memory_choice,OOiMxdf9dRUrVxQFfRCSBfGsATr1,html-keyboard-response,9,97446,0.0-5.0-0.1,OOiMxdf9dRUrVxQFfRCSBfGsATr1,2.0,16.0,4.0,images/choice_trial_16.png,images/choice_trial_4.png,1.0,3.0,1.0,1.0,4.0,,,,,,,,,6096eca15340fc49ef3f1ab3,16:56:22,27/03/2024
,,,delaylearn,test,isi,OOiMxdf9dRUrVxQFfRCSBfGsATr1,html-keyboard-response,10,97698,0.0-5.0-1.1,,,,,,,,,,,,,,,,,,,,6096eca15340fc49ef3f1ab3,16:56:22,27/03/2024
1440.0,"<div class=""center_prompt"" style=""font-family: Helvetica; font-weight: light; font-size: 48px; text-anchor: middle; color: white; opacity: 1;"">Confidence</div><br><br><br><br><div class=""center_prompt2"" style=""font-family: Helvetica; font-weight: light; font-size: 48px; text-anchor: middle; color: white; opacity: 1;"">Guess (1) –––– Low (2)  –––– Medium (3) –––– High (4)</div>",2,delaylearn,test,memory_choice_confidence,OOiMxdf9dRUrVxQFfRCSBfGsATr1,html-keyboard-response,11,99140,0.0-5.0-2.1,OOiMxdf9dRUrVxQFfRCSBfGsATr1,2.0,,,,,,,,,,2,,,,,,,,6096eca15340fc49ef3f1ab3,16:56:22,27/03/2024
,"<div style=""font-size:100px;"">+</div>",,delaylearn,test,pre_fixation,OOiMxdf9dRUrVxQFfRCSBfGsATr1,html-keyboard-response,12,102142,0.0-5.0-3.1,,,,,,,,,,,,,,,,,,,,6096eca15340fc49ef3f1ab3,16:56:22,27/03/2024
1713.0,"<div style=""display: flex; flex-direction: column; align-items: center; margin-top: -40px;""><div style=""display: flex; justify-content: space-between; margin-top: 33px;""><img src=""images/choice_trial_5.png"" style=""width: 408px; height: 417px; margin-right: 200px;""><img src=""images/choice_trial_11.png"" style=""width: 408px; height: 417px;""></div></div><br><br><br><br>",f,delaylearn,test,memory_choice,OOiMxdf9dRUrVxQFfRCSBfGsATr1,html-keyboard-response,13,103857,0.0-5.0-0.2,OOiMxdf9dRUrVxQFfRCSBfGsATr1,2.0,5.0,11.0,images/choice_trial_5.png,images/choice_trial_11.png,1.0,5.0,0.0,0.0,5.0,,,,,,,,,6096eca15340fc49ef3f1ab3,16:56:22,27/03/2024
,,,delaylearn,test,isi,OOiMxdf9dRUrVxQFfRCSBfGsATr1,html-keyboard-response,14,104109,0.0-5.0-1.2,,,,,,,,,,,,,,,,,,,,6096eca15340fc49ef3f1ab3,16:56:22,27/03/2024
805.0000000004657,"<div class=""center_prompt"" style=""font-family: Helvetica; font-weight: light; font-size: 48px; text-anchor: middle; color: white; opacity: 1;"">Confidence</div><br><br><br><br><div class=""center_prompt2"" style=""font-family: Helvetica; font-weight: light; font-size: 48px; text-anchor: middle; color: white; opacity: 1;"">Guess (1) –––– Low (2)  –––– Medium (3) –––– High (4)</div>",2,delaylearn,test,memory_choice_confidence,OOiMxdf9dRUrVxQFfRCSBfGsATr1,html-keyboard-response,15,104916,0.0-5.0-2.2,OOiMxdf9dRUrVxQFfRCSBfGsATr1,2.0,,,,,,,,,,2,,,,,,,,6096eca15340fc49ef3f1ab3,16:56:22,27/03/2024
,"<div style=""font-size:100px;"">+</div>",,delaylearn,test,pre_fixation,OOiMxdf9dRUrVxQFfRCSBfGsATr1,html-keyboard-response,16,107918,0.0-5.0-3.2,,,,,,,,,,,,,,,,,,,,6096eca15340fc49ef3f1ab3,16:56:22,27/03/2024
902.0,"<div style=""display: flex; flex-direction: column; align-items: center; margin-top: -40px;""><div style=""display: flex; justify-content: space-between; margin-top: 33px;""><img src=""images/choice_trial_9.png"" style=""width: 408px; height: 417px; margin-right: 200px;""><img src=""images/choice_trial_2.png"" style=""width: 408px; height: 417px;""></div></div><br><br><br><br>",j,delaylearn,test,memory_choice,OOiMxdf9dRUrVxQFfRCSBfGsATr1,html-keyboard-response,17,108822,0.0-5.0-0.3,OOiMxdf9dRUrVxQFfRCSBfGsATr1,2.0,9.0,2.0,images/choice_trial_9.png,images/choice_trial_2.png,1.0,4.0,0.0,1.0,2.0,,,,,,,,,6096eca15340fc49ef3f1ab3,16:56:22,27/03/2024
,,,delaylearn,test,isi,OOiMxdf9dRUrVxQFfRCSBfGsATr1,html-keyboard-response,18,109075,0.0-5.0-1.3,,,,,,,,,,,,,,,,,,,,6096eca15340fc49ef3f1ab3,16:56:22,27/03/2024
567.0,"<div class=""center_prompt"" style=""font-family: Helvetica; font-weight: light; font-size: 48px; text-anchor: middle; color: white; opacity: 1;"">Confidence</div><br><br><br><br><div class=""center_prompt2"" style=""font-family: Helvetica; font-weight: light; font-size: 48px; text-anchor: middle; color: white; opacity: 1;"">Guess (1) –––– Low (2)  –––– Medium (3) –––– High (4)</div>",3,delaylearn,test,memory_choice_confidence,OOiMxdf9dRUrVxQFfRCSBfGsATr1,html-keyboard-response,19,109643,0.0-5.0-2.3,OOiMxdf9dRUrVxQFfRCSBfGsATr1,2.0,,,,,,,,,,3,,,,,,,,6096eca15340fc49ef3f1ab3,16:56:22,27/03/2024
,"<div style=""font-size:100px;"">+</div>",,delaylearn,test,pre_fixation,OOiMxdf9dRUrVxQFfRCSBfGsATr1,html-keyboard-response,20,112645,0.0-5.0-3.3,,,,,,,,,,,,,,,,,,,,6096eca15340fc49ef3f1ab3,16:56:22,27/03/2024
1049.9999999995343,"<div style=""display: flex; flex-direction: column; align-items: center; margin-top: -40px;""><div style=""display: flex; justify-content: space-between; margin-top: 33px;""><img src=""images/choice_trial_12.png"" style=""width: 408px; height: 417px; margin-right: 200px;""><img src=""images/choice_trial_14.png"" style=""width: 408px; height: 417px;""></div></div><br><br><br><br>",j,delaylearn,test,memory_choice,OOiMxdf9dRUrVxQFfRCSBfGsATr1,html-keyboard-response,21,113696,0.0-5.0-0.4,OOiMxdf9dRUrVxQFfRCSBfGsATr1,2.0,12.0,14.0,images/choice_trial_12.png,images/choice_trial_14.png,0.0,2.0,1.0,0.0,14.0,,,,,,,,,6096eca15340fc49ef3f1ab3,16:56:22,27/03/2024
,,,delaylearn,test,isi,OOiMxdf9dRUrVxQFfRCSBfGsATr1,html-keyboard-response,22,113949,0.0-5.0-1.4,,,,,,,,,,,,,,,,,,,,6096eca15340fc49ef3f1ab3,16:56:22,27/03/2024
571.0000000004657,"<div class=""center_prompt"" style=""font-family: Helvetica; font-weight: light; font-size: 48px; text-anchor: middle; color: white; opacity: 1;"">Confidence</div><br><br><br><br><div class=""center_prompt2"" style=""font-family: Helvetica; font-weight: light; font-size: 48px; text-anchor: middle; color: white; opacity: 1;"">Guess (1) –––– Low (2)  –––– Medium (3) –––– High (4)</div>",2,delaylearn,test,memory_choice_confidence,OOiMxdf9dRUrVxQFfRCSBfGsATr1,html-keyboard-response,23,114521,0.0-5.0-2.4,OOiMxdf9dRUrVxQFfRCSBfGsATr1,2.0,,,,,,,,,,2,,,,,,,,6096eca15340fc49ef3f1ab3,16:56:22,27/03/2024
,"<div style=""font-size:100px;"">+</div>",,delaylearn,test,pre_fixation,OOiMxdf9dRUrVxQFfRCSBfGsATr1,html-keyboard-response,24,117524,0.0-5.0-3.4,,,,,,,,,,,,,,,,,,,,6096eca15340fc49ef3f1ab3,16:56:22,27/03/2024
1211.0,"<div style=""display: flex; flex-direction: column; align-items: center; margin-top: -40px;""><div style=""display: flex; justify-content: space-between; margin-top: 33px;""><img src=""images/choice_trial_10.png"" style=""width: 408px; height: 417px; margin-right: 200px;""><img src=""images/choice_trial_3.png"" style=""width: 408px; height: 417px;""></div></div><br><br><br><br>",j,delaylearn,test,memory_choice,OOiMxdf9dRUrVxQFfRCSBfGsATr1,html-keyboard-response,25,118736,0.0-5.0-0.5,OOiMxdf9dRUrVxQFfRCSBfGsATr1,2.0,10.0,3.0,images/choice_trial_10.png,images/choice_trial_3.png,1.0,1.0,1.0,1.0,3.0,,,,,,,,,6096eca15340fc49ef3f1ab3,16:56:22,27/03/2024
,,,delaylearn,test,isi,OOiMxdf9dRUrVxQFfRCSBfGsATr1,html-keyboard-response,26,118988,0.0-5.0-1.5,,,,,,,,,,,,,,,,,,,,6096eca15340fc49ef3f1ab3,16:56:22,27/03/2024
490.0,"<div class=""center_prompt"" style=""font-family: Helvetica; font-weight: light; font-size: 48px; text-anchor: middle; color: white; opacity: 1;"">Confidence</div><br><br><br><br><div class=""center_prompt2"" style=""font-family: Helvetica; font-weight: light; font-size: 48px; text-anchor: middle; color: white; opacity: 1;"">Guess (1) –––– Low (2)  –––– Medium (3) –––– High (4)</div>",3,delaylearn,test,memory_choice_confidence,OOiMxdf9dRUrVxQFfRCSBfGsATr1,html-keyboard-response,27,119479,0.0-5.0-2.5,OOiMxdf9dRUrVxQFfRCSBfGsATr1,2.0,,,,,,,,,,3,,,,,,,,6096eca15340fc49ef3f1ab3,16:56:22,27/03/2024
,"<div style=""font-size:100px;"">+</div>",,delaylearn,test,pre_fixation,OOiMxdf9dRUrVxQFfRCSBfGsATr1,html-keyboard-response,28,122481,0.0-5.0-3.5,,,,,,,,,,,,,,,,,,,,6096eca15340fc49ef3f1ab3,16:56:22,27/03/2024
889.0,"<div style=""display: flex; flex-direction: column; align-items: center; margin-top: -40px;""><div style=""display: flex; justify-content: space-between; margin-top: 33px;""><img src=""images/choice_trial_5.png"" style=""width: 408px; height: 417px; margin-right: 200px;""><img src=""images/choice_trial_2.png"" style=""width: 408px; height: 417px;""></div></div><br><br><br><br>",j,delaylearn,test,memory_choice,OOiMxdf9dRUrVxQFfRCSBfGsATr1,html-keyboard-response,29,123373,0.0-5.0-0.6,OOiMxdf9dRUrVxQFfRCSBfGsATr1,2.0,5.0,2.0,images/choice_trial_5.png,images/choice_trial_2.png,1.0,45.0,0.0,1.0,2.0,,,,,,,,,6096eca15340fc49ef3f1ab3,16:56:22,27/03/2024
,,,delaylearn,test,isi,OOiMxdf9dRUrVxQFfRCSBfGsATr1,html-keyboard-response,30,123626,0.0-5.0-1.6,,,,,,,,,,,,,,,,,,,,6096eca15340fc49ef3f1ab3,16:56:22,27/03/2024
803.0,"<div class=""center_prompt"" style=""font-family: Helvetica; font-weight: light; font-size: 48px; text-anchor: middle; color: white; opacity: 1;"">Confidence</div><br><br><br><br><div class=""center_prompt2"" style=""font-family: Helvetica; font-weight: light; font-size: 48px; text-anchor: middle; color: white; opacity: 1;"">Guess (1) –––– Low (2)  –––– Medium (3) –––– High (4)</div>",3,delaylearn,test,memory_choice_confidence,OOiMxdf9dRUrVxQFfRCSBfGsATr1,html-keyboard-response,31,124431,0.0-5.0-2.6,OOiMxdf9dRUrVxQFfRCSBfGsATr1,2.0,,,,,,,,,,3,,,,,,,,6096eca15340fc49ef3f1ab3,16:56:22,27/03/2024
,"<div style=""font-size:100px;"">+</div>",,delaylearn,test,pre_fixation,OOiMxdf9dRUrVxQFfRCSBfGsATr1,html-keyboard-response,32,127434,0.0-5.0-3.6,,,,,,,,,,,,,,,,,,,,6096eca15340fc49ef3f1ab3,16:56:22,27/03/2024
1493.0,"<div style=""display: flex; flex-direction: column; align-items: center; margin-top: -40px;""><div style=""display: flex; justify-content: space-between; margin-top: 33px;""><img src=""images/choice_trial_3.png"" style=""width: 408px; height: 417px; margin-right: 200px;""><img src=""images/choice_trial_14.png"" style=""width: 408px; height: 417px;""></div></div><br><br><br><br>",j,delaylearn,test,memory_choice,OOiMxdf9dRUrVxQFfRCSBfGsATr1,html-keyboard-response,33,128929,0.0-5.0-0.7,OOiMxdf9dRUrVxQFfRCSBfGsATr1,2.0,3.0,14.0,images/choice_trial_3.png,images/choice_trial_14.png,0.0,12.0,1.0,0.0,14.0,,,,,,,,,6096eca15340fc49ef3f1ab3,16:56:22,27/03/2024
,,,delaylearn,test,isi,OOiMxdf9dRUrVxQFfRCSBfGsATr1,html-keyboard-response,34,129181,0.0-5.0-1.7,,,,,,,,,,,,,,,,,,,,6096eca15340fc49ef3f1ab3,16:56:22,27/03/2024
650.0,"<div class=""center_prompt"" style=""font-family: Helvetica; font-weight: light; font-size: 48px; text-anchor: middle; color: white; opacity: 1;"">Confidence</div><br><br><br><br><div class=""center_prompt2"" style=""font-family: Helvetica; font-weight: light; font-size: 48px; text-anchor: middle; color: white; opacity: 1;"">Guess (1) –––– Low (2)  –––– Medium (3) –––– High (4)</div>",2,delaylearn,test,memory_choice_confidence,OOiMxdf9dRUrVxQFfRCSBfGsATr1,html-keyboard-response,35,129831,0.0-5.0-2.7,OOiMxdf9dRUrVxQFfRCSBfGsATr1,2.0,,,,,,,,,,2,,,,,,,,6096eca15340fc49ef3f1ab3,16:56:22,27/03/2024
,"<div style=""font-size:100px;"">+</div>",,delaylearn,test,pre_fixation,OOiMxdf9dRUrVxQFfRCSBfGsATr1,html-keyboard-response,36,132834,0.0-5.0-3.7,,,,,,,,,,,,,,,,,,,,6096eca15340fc49ef3f1ab3,16:56:22,27/03/2024
1322.0000000004657,"<div style=""display: flex; flex-direction: column; align-items: center; margin-top: -40px;""><div style=""display: flex; justify-content: space-between; margin-top: 33px;""><img src=""images/choice_trial_16.png"" style=""width: 408px; height: 417px; margin-right: 200px;""><img src=""images/choice_trial_12.png"" style=""width: 408px; height: 417px;""></div></div><br><br><br><br>",f,delaylearn,test,memory_choice,OOiMxdf9dRUrVxQFfRCSBfGsATr1,html-keyboard-response,37,134157,0.0-5.0-0.8,OOiMxdf9dRUrVxQFfRCSBfGsATr1,2.0,16.0,12.0,images/choice_trial_16.png,images/choice_trial_12.png,1.0,23.0,1.0,0.0,16.0,,,,,,,,,6096eca15340fc49ef3f1ab3,16:56:22,27/03/2024
,,,delaylearn,test,isi,OOiMxdf9dRUrVxQFfRCSBfGsATr1,html-keyboard-response,38,134410,0.0-5.0-1.8,,,,,,,,,,,,,,,,,,,,6096eca15340fc49ef3f1ab3,16:56:22,27/03/2024
1767.0,"<div class=""center_prompt"" style=""font-family: Helvetica; font-weight: light; font-size: 48px; text-anchor: middle; color: white; opacity: 1;"">Confidence</div><br><br><br><br><div class=""center_prompt2"" style=""font-family: Helvetica; font-weight: light; font-size: 48px; text-anchor: middle; color: white; opacity: 1;"">Guess (1) –––– Low (2)  –––– Medium (3) –––– High (4)</div>",1,delaylearn,test,memory_choice_confidence,OOiMxdf9dRUrVxQFfRCSBfGsATr1,html-keyboard-response,39,136178,0.0-5.0-2.8,OOiMxdf9dRUrVxQFfRCSBfGsATr1,2.0,,,,,,,,,,1,,,,,,,,6096eca15340fc49ef3f1ab3,16:56:22,27/03/2024
,"<div style=""font-size:100px;"">+</div>",,delaylearn,test,pre_fixation,OOiMxdf9dRUrVxQFfRCSBfGsATr1,html-keyboard-response,40,139181,0.0-5.0-3.8,,,,,,,,,,,,,,,,,,,,6096eca15340fc49ef3f1ab3,16:56:22,27/03/2024
1483.0,"<div style=""display: flex; flex-direction: column; align-items: center; margin-top: -40px;""><div style=""display: flex; justify-content: space-between; margin-top: 33px;""><img src=""images/choice_trial_11.png"" style=""width: 408px; height: 417px; margin-right: 200px;""><img src=""images/choice_trial_15.png"" style=""width: 408px; height: 417px;""></div></div><br><br><br><br>",j,delaylearn,test,memory_choice,OOiMxdf9dRUrVxQFfRCSBfGsATr1,html-keyboard-response,41,140664,0.0-5.0-0.9,OOiMxdf9dRUrVxQFfRCSBfGsATr1,2.0,11.0,15.0,images/choice_trial_11.png,images/choice_trial_15.png,0.0,56.0,0.0,0.0,15.0,,,,,,,,,6096eca15340fc49ef3f1ab3,16:56:22,27/03/2024
,,,delaylearn,test,isi,OOiMxdf9dRUrVxQFfRCSBfGsATr1,html-keyboard-response,42,140916,0.0-5.0-1.9,,,,,,,,,,,,,,,,,,,,6096eca15340fc49ef3f1ab3,16:56:22,27/03/2024
478.99999999953434,"<div class=""center_prompt"" style=""font-family: Helvetica; font-weight: light; font-size: 48px; text-anchor: middle; color: white; opacity: 1;"">Confidence</div><br><br><br><br><div class=""center_prompt2"" style=""font-family: Helvetica; font-weight: light; font-size: 48px; text-anchor: middle; color: white; opacity: 1;"">Guess (1) –––– Low (2)  –––– Medium (3) –––– High (4)</div>",2,delaylearn,test,memory_choice_confidence,OOiMxdf9dRUrVxQFfRCSBfGsATr1,html-keyboard-response,43,141395,0.0-5.0-2.9,OOiMxdf9dRUrVxQFfRCSBfGsATr1,2.0,,,,,,,,,,2,,,,,,,,6096eca15340fc49ef3f1ab3,16:56:22,27/03/2024
,"<div style=""font-size:100px;"">+</div>",,delaylearn,test,pre_fixation,OOiMxdf9dRUrVxQFfRCSBfGsATr1,html-keyboard-response,44,144398,0.0-5.0-3.9,,,,,,,,,,,,,,,,,,,,6096eca15340fc49ef3f1ab3,16:56:22,27/03/2024
1330.0,"<div style=""display: flex; flex-direction: column; align-items: center; margin-top: -40px;""><div style=""display: flex; justify-content: space-between; margin-top: 33px;""><img src=""images/choice_trial_4.png"" style=""width: 408px; height: 417px; margin-right: 200px;""><img src=""images/choice_trial_10.png"" style=""width: 408px; height: 417px;""></div></div><br><br><br><br>",f,delaylearn,test,memory_choice,OOiMxdf9dRUrVxQFfRCSBfGsATr1,html-keyboard-response,45,145729,0.0-5.0-0.10,OOiMxdf9dRUrVxQFfRCSBfGsATr1,2.0,4.0,10.0,images/choice_trial_4.png,images/choice_trial_10.png,0.0,31.0,1.0,1.0,4.0,,,,,,,,,6096eca15340fc49ef3f1ab3,16:56:22,27/03/2024
,,,delaylearn,test,isi,OOiMxdf9dRUrVxQFfRCSBfGsATr1,html-keyboard-response,46,145981,0.0-5.0-1.10,,,,,,,,,,,,,,,,,,,,6096eca15340fc49ef3f1ab3,16:56:22,27/03/2024
496.0,"<div class=""center_prompt"" style=""font-family: Helvetica; font-weight: light; font-size: 48px; text-anchor: middle; color: white; opacity: 1;"">Confidence</div><br><br><br><br><div class=""center_prompt2"" style=""font-family: Helvetica; font-weight: light; font-size: 48px; text-anchor: middle; color: white; opacity: 1;"">Guess (1) –––– Low (2)  –––– Medium (3) –––– High (4)</div>",3,delaylearn,test,memory_choice_confidence,OOiMxdf9dRUrVxQFfRCSBfGsATr1,html-keyboard-response,47,146478,0.0-5.0-2.10,OOiMxdf9dRUrVxQFfRCSBfGsATr1,2.0,,,,,,,,,,3,,,,,,,,6096eca15340fc49ef3f1ab3,16:56:22,27/03/2024
,"<div style=""font-size:100px;"">+</div>",,delaylearn,test,pre_fixation,OOiMxdf9dRUrVxQFfRCSBfGsATr1,html-keyboard-response,48,149481,0.0-5.0-3.10,,,,,,,,,,,,,,,,,,,,6096eca15340fc49ef3f1ab3,16:56:22,27/03/2024
1306.0,"<div style=""display: flex; flex-direction: column; align-items: center; margin-top: -40px;""><div style=""display: flex; justify-content: space-between; margin-top: 33px;""><img src=""images/choice_trial_9.png"" style=""width: 408px; height: 417px; margin-right: 200px;""><img src=""images/choice_trial_8.png"" style=""width: 408px; height: 417px;""></div></div><br><br><br><br>",j,delaylearn,test,memory_choice,OOiMxdf9dRUrVxQFfRCSBfGsATr1,html-keyboard-response,49,150788,0.0-5.0-0.11,OOiMxdf9dRUrVxQFfRCSBfGsATr1,2.0,9.0,8.0,images/choice_trial_9.png,images/choice_trial_8.png,1.0,64.0,0.0,1.0,8.0,,,,,,,,,6096eca15340fc49ef3f1ab3,16:56:22,27/03/2024
,,,delaylearn,test,isi,OOiMxdf9dRUrVxQFfRCSBfGsATr1,html-keyboard-response,50,151040,0.0-5.0-1.11,,,,,,,,,,,,,,,,,,,,6096eca15340fc49ef3f1ab3,16:56:22,27/03/2024
1253.0,"<div class=""center_prompt"" style=""font-family: Helvetica; font-weight: light; font-size: 48px; text-anchor: middle; color: white; opacity: 1;"">Confidence</div><br><br><br><br><div class=""center_prompt2"" style=""font-family: Helvetica; font-weight: light; font-size: 48px; text-anchor: middle; color: white; opacity: 1;"">Guess (1) –––– Low (2)  –––– Medium (3) –––– High (4)</div>",3,delaylearn,test,memory_choice_confidence,OOiMxdf9dRUrVxQFfRCSBfGsATr1,html-keyboard-response,51,152294,0.0-5.0-2.11,OOiMxdf9dRUrVxQFfRCSBfGsATr1,2.0,,,,,,,,,,3,,,,,,,,6096eca15340fc49ef3f1ab3,16:56:22,27/03/2024
,"<div style=""font-size:100px;"">+</div>",,delaylearn,test,pre_fixation,OOiMxdf9dRUrVxQFfRCSBfGsATr1,html-keyboard-response,52,155297,0.0-5.0-3.11,,,,,,,,,,,,,,,,,,,,6096eca15340fc49ef3f1ab3,16:56:22,27/03/2024
,"<div style=""font-size:100px;"">+</div>",,delaylearn,test,pre_fixation,OOiMxdf9dRUrVxQFfRCSBfGsATr1,html-keyboard-response,53,158299,0.0-6.0,,,,,,,,,,,,,,,,,,,,6096eca15340fc49ef3f1ab3,16:56:22,27/03/2024
3600.0,11,0.35928819444444443,delaylearn,test,memory_rating,OOiMxdf9dRUrVxQFfRCSBfGsATr1,option-scale-rating,56,188140,0.0-9.0,OOiMxdf9dRUrVxQFfRCSBfGsATr1,2.0,,,,,,6.0,0.0,,,,0.77,What percent of the time did you win when choosing this option?,fullscreenenter,11.0,,,,6096eca15340fc49ef3f1ab3,16:56:22,27/03/2024
2875.0,14,0.5611400462962963,delaylearn,test,memory_rating,OOiMxdf9dRUrVxQFfRCSBfGsATr1,option-scale-rating,57,194024,0.0-10.0,OOiMxdf9dRUrVxQFfRCSBfGsATr1,2.0,,,,,,3.0,1.0,,,,0.23,What percent of the time did you win when choosing this option?,fullscreenenter,14.0,,,,6096eca15340fc49ef3f1ab3,16:56:22,27/03/2024
2492.0,12,0.28336226851851853,delaylearn,test,memory_rating,OOiMxdf9dRUrVxQFfRCSBfGsATr1,option-scale-rating,58,199525,0.0-11.0,OOiMxdf9dRUrVxQFfRCSBfGsATr1,2.0,,,,,,3.0,1.0,,,,0.77,What percent of the time did you win when choosing this option?,fullscreenenter,12.0,,,,6096eca15340fc49ef3f1ab3,16:56:22,27/03/2024
3343.0,8,0.7463252314814814,delaylearn,test,memory_rating,OOiMxdf9dRUrVxQFfRCSBfGsATr1,option-scale-rating,59,205878,0.0-12.0,OOiMxdf9dRUrVxQFfRCSBfGsATr1,2.0,,,,,,7.0,0.0,,,,0.77,What percent of the time did you win when choosing this option?,fullscreenenter,8.0,,,,6096eca15340fc49ef3f1ab3,16:56:22,27/03/2024
3006.0,9,0.19076967592592592,delaylearn,test,memory_rating,OOiMxdf9dRUrVxQFfRCSBfGsATr1,option-scale-rating,60,211893,0.0-13.0,OOiMxdf9dRUrVxQFfRCSBfGsATr1,2.0,,,,,,5.0,0.0,,,,0.23,What percent of the time did you win when choosing this option?,fullscreenenter,9.0,,,,6096eca15340fc49ef3f1ab3,16:56:22,27/03/2024
2575.0,4,0.8037326388888889,delaylearn,test,memory_rating,OOiMxdf9dRUrVxQFfRCSBfGsATr1,option-scale-rating,61,217478,0.0-14.0,OOiMxdf9dRUrVxQFfRCSBfGsATr1,2.0,,,,,,4.0,1.0,,,,0.77,What percent of the time did you win when choosing this option?,fullscreenenter,4.0,,,,6096eca15340fc49ef3f1ab3,16:56:22,27/03/2024
2058.0,15,0.20188078703703705,delaylearn,test,memory_rating,OOiMxdf9dRUrVxQFfRCSBfGsATr1,option-scale-rating,62,222543,0.0-15.0,OOiMxdf9dRUrVxQFfRCSBfGsATr1,2.0,,,,,,7.0,0.0,,,,0.23,What percent of the time did you win when choosing this option?,fullscreenenter,15.0,,,,6096eca15340fc49ef3f1ab3,16:56:22,27/03/2024
5461.0,16,0.19632523148148148,delaylearn,test,memory_rating,OOiMxdf9dRUrVxQFfRCSBfGsATr1,option-scale-rating,63,231010,0.0-16.0,OOiMxdf9dRUrVxQFfRCSBfGsATr1,2.0,,,,,,4.0,1.0,,,,0.23,What percent of the time did you win when choosing this option?,fullscreenenter,16.0,,,,6096eca15340fc49ef3f1ab3,16:56:22,27/03/2024
2826.0,5,0.6037326388888888,delaylearn,test,memory_rating,OOiMxdf9dRUrVxQFfRCSBfGsATr1,option-scale-rating,64,236844,0.0-17.0,OOiMxdf9dRUrVxQFfRCSBfGsATr1,2.0,,,,,,6.0,0.0,,,,0.23,What percent of the time did you win when choosing this option?,fullscreenenter,5.0,,,,6096eca15340fc49ef3f1ab3,16:56:22,27/03/2024
2345.0,3,0.7166956018518519,delaylearn,test,memory_rating,OOiMxdf9dRUrVxQFfRCSBfGsATr1,option-scale-rating,65,242195,0.0-18.0,OOiMxdf9dRUrVxQFfRCSBfGsATr1,2.0,,,,,,1.0,1.0,,,,0.77,What percent of the time did you win when choosing this option?,fullscreenenter,3.0,,,,6096eca15340fc49ef3f1ab3,16:56:22,27/03/2024
2793.0,10,0.33151041666666664,delaylearn,test,memory_rating,OOiMxdf9dRUrVxQFfRCSBfGsATr1,option-scale-rating,66,247995,0.0-19.0,OOiMxdf9dRUrVxQFfRCSBfGsATr1,2.0,,,,,,1.0,1.0,,,,0.23,What percent of the time did you win when choosing this option?,fullscreenenter,10.0,,,,6096eca15340fc49ef3f1ab3,16:56:22,27/03/2024
3145.0,2,0.9037326388888889,delaylearn,test,memory_rating,OOiMxdf9dRUrVxQFfRCSBfGsATr1,option-scale-rating,67,254146,0.0-20.0,OOiMxdf9dRUrVxQFfRCSBfGsATr1,2.0,,,,,,5.0,0.0,,,,0.77,What percent of the time did you win when choosing this option?,fullscreenenter,2.0,,,,6096eca15340fc49ef3f1ab3,16:56:22,27/03/2024
,"<div style=""font-size:100px;"">+</div>",,delaylearn,test,pre_fixation,OOiMxdf9dRUrVxQFfRCSBfGsATr1,html-keyboard-response,68,257150,0.0-21.0,,,,,,,,,,,,,,,,,,,,6096eca15340fc49ef3f1ab3,16:56:22,27/03/2024
,"<div style=""font-size:100px;"">+</div>",,delaylearn,test,pre_fixation,OOiMxdf9dRUrVxQFfRCSBfGsATr1,html-keyboard-response,72,283992,0.0-25.0,,,,,,,,,,,,,,,,,,,,6096eca15340fc49ef3f1ab3,16:56:22,27/03/2024
3272.0,"<div style=""display: flex; flex-direction: column; align-items: center; margin-top: -40px;""><div style=""display: flex; justify-content: space-between; margin-top: 33px;""><img src=""images/choice_trial_10.png"" style=""width: 408px; height: 417px; margin-right: 200px;""><img src=""images/choice_trial_3.png"" style=""width: 408px; height: 417px;""></div></div><br>",arrowup,delaylearn,test,memory_time,OOiMxdf9dRUrVxQFfRCSBfGsATr1,html-keyboard-response,73,287266,0.0-26.0-0.0,OOiMxdf9dRUrVxQFfRCSBfGsATr1,2.0,,,,,1.0,1.0,1.0,0.0,,,,,,,10.0,3.0,0.0,6096eca15340fc49ef3f1ab3,16:56:22,27/03/2024
,"<div style=""font-size:100px;"">+</div>",,delaylearn,test,pre_fixation,OOiMxdf9dRUrVxQFfRCSBfGsATr1,html-keyboard-response,74,290268,0.0-26.0-1.0,,,,,,,,,,,,,,,,,,,,6096eca15340fc49ef3f1ab3,16:56:22,27/03/2024
951.0000000004657,"<div style=""display: flex; flex-direction: column; align-items: center; margin-top: -40px;""><div style=""display: flex; justify-content: space-between; margin-top: 33px;""><img src=""images/choice_trial_9.png"" style=""width: 408px; height: 417px; margin-right: 200px;""><img src=""images/choice_trial_2.png"" style=""width: 408px; height: 417px;""></div></div><br>",arrowdown,delaylearn,test,memory_time,OOiMxdf9dRUrVxQFfRCSBfGsATr1,html-keyboard-response,75,291221,0.0-26.0-0.1,OOiMxdf9dRUrVxQFfRCSBfGsATr1,2.0,,,,,1.0,5.0,0.0,0.0,,,,,,,9.0,2.0,1.0,6096eca15340fc49ef3f1ab3,16:56:22,27/03/2024
,"<div style=""font-size:100px;"">+</div>",,delaylearn,test,pre_fixation,OOiMxdf9dRUrVxQFfRCSBfGsATr1,html-keyboard-response,76,294224,0.0-26.0-1.1,,,,,,,,,,,,,,,,,,,,6096eca15340fc49ef3f1ab3,16:56:22,27/03/2024
513.0000000004657,"<div style=""display: flex; flex-direction: column; align-items: center; margin-top: -40px;""><div style=""display: flex; justify-content: space-between; margin-top: 33px;""><img src=""images/choice_trial_12.png"" style=""width: 408px; height: 417px; margin-right: 200px;""><img src=""images/choice_trial_14.png"" style=""width: 408px; height: 417px;""></div></div><br>",arrowdown,delaylearn,test,memory_time,OOiMxdf9dRUrVxQFfRCSBfGsATr1,html-keyboard-response,77,294738,0.0-26.0-0.2,OOiMxdf9dRUrVxQFfRCSBfGsATr1,2.0,,,,,1.0,3.0,1.0,1.0,,,,,,,12.0,14.0,1.0,6096eca15340fc49ef3f1ab3,16:56:22,27/03/2024
,"<div style=""font-size:100px;"">+</div>",,delaylearn,test,pre_fixation,OOiMxdf9dRUrVxQFfRCSBfGsATr1,html-keyboard-response,78,297740,0.0-26.0-1.2,,,,,,,,,,,,,,,,,,,,6096eca15340fc49ef3f1ab3,16:56:22,27/03/2024
1332.0,"<div style=""display: flex; flex-direction: column; align-items: center; margin-top: -40px;""><div style=""display: flex; justify-content: space-between; margin-top: 33px;""><img src=""images/choice_trial_11.png"" style=""width: 408px; height: 417px; margin-right: 200px;""><img src=""images/choice_trial_5.png"" style=""width: 408px; height: 417px;""></div></div><br>",arrowup,delaylearn,test,memory_time,OOiMxdf9dRUrVxQFfRCSBfGsATr1,html-keyboard-response,79,299073,0.0-26.0-0.3,OOiMxdf9dRUrVxQFfRCSBfGsATr1,2.0,,,,,0.0,6.0,0.0,1.0,,,,,,,5.0,11.0,0.0,6096eca15340fc49ef3f1ab3,16:56:22,27/03/2024
,"<div style=""font-size:100px;"">+</div>",,delaylearn,test,pre_fixation,OOiMxdf9dRUrVxQFfRCSBfGsATr1,html-keyboard-response,80,302075,0.0-26.0-1.3,,,,,,,,,,,,,,,,,,,,6096eca15340fc49ef3f1ab3,16:56:22,27/03/2024
2115.0000000004657,"<div style=""display: flex; flex-direction: column; align-items: center; margin-top: -40px;""><div style=""display: flex; justify-content: space-between; margin-top: 33px;""><img src=""images/choice_trial_15.png"" style=""width: 408px; height: 417px; margin-right: 200px;""><img src=""images/choice_trial_8.png"" style=""width: 408px; height: 417px;""></div></div><br>",arrowup,delaylearn,test,memory_time,OOiMxdf9dRUrVxQFfRCSBfGsATr1,html-keyboard-response,81,304192,0.0-26.0-0.4,OOiMxdf9dRUrVxQFfRCSBfGsATr1,2.0,,,,,1.0,7.0,0.0,1.0,,,,,,,8.0,15.0,0.0,6096eca15340fc49ef3f1ab3,16:56:22,27/03/2024
,"<div style=""font-size:100px;"">+</div>",,delaylearn,test,pre_fixation,OOiMxdf9dRUrVxQFfRCSBfGsATr1,html-keyboard-response,82,307194,0.0-26.0-1.4,,,,,,,,,,,,,,,,,,,,6096eca15340fc49ef3f1ab3,16:56:22,27/03/2024
1936.0,"<div style=""display: flex; flex-direction: column; align-items: center; margin-top: -40px;""><div style=""display: flex; justify-content: space-between; margin-top: 33px;""><img src=""images/choice_trial_4.png"" style=""width: 408px; height: 417px; margin-right: 200px;""><img src=""images/choice_trial_16.png"" style=""width: 408px; height: 417px;""></div></div><br>",arrowdown,delaylearn,test,memory_time,OOiMxdf9dRUrVxQFfRCSBfGsATr1,html-keyboard-response,83,309131,0.0-26.0-0.5,OOiMxdf9dRUrVxQFfRCSBfGsATr1,2.0,,,,,0.0,4.0,1.0,1.0,,,,,,,16.0,4.0,1.0,6096eca15340fc49ef3f1ab3,16:56:22,27/03/2024
