rt,stimulus,response,exp_name,exp_stage,test_part,subjectID,databaseID,trial_type,trial_index,time_elapsed,internal_node_id,counterbal,stim_left,stim_right,chosen_stim_left,chosen_stim_right,leftright_counter,pair,delay,response_correct,chosen_stim,confidence,value_true,text,userinteract,stim,stim1,stim2,response_longshort,prolificID,start_time,date
,"<div style=""font-size:100px;"">+</div>",,delaylearn,test,pre_fixation,NGNuEau595V5JttzXFtsMnje45B2,not found,html-keyboard-response,4,322072,0.0-4.0,,,,,,,,,,,,,,,,,,,5ee91ec1ef56832aa7947169,16:51:18,27/03/2024
2417.2999999988824,"<div style=""display: flex; flex-direction: column; align-items: center; margin-top: -40px;""><div style=""display: flex; justify-content: space-between; margin-top: 33px;""><img src=""images/choice_trial_6.png"" style=""width: 408px; height: 417px; margin-right: 200px;""><img src=""images/choice_trial_12.png"" style=""width: 408px; height: 417px;""></div></div><br><br><br><br>",f,delaylearn,test,memory_choice,NGNuEau595V5JttzXFtsMnje45B2,NGNuEau595V5JttzXFtsMnje45B2,html-keyboard-response,5,324491,0.0-5.0-0.0,3.0,6.0,12.0,images/choice_trial_6.png,images/choice_trial_12.png,0.0,6.0,0.0,1.0,6.0,,,,,,,,,5ee91ec1ef56832aa7947169,16:51:18,27/03/2024
,,,delaylearn,test,isi,NGNuEau595V5JttzXFtsMnje45B2,not found,html-keyboard-response,6,324751,0.0-5.0-1.0,,,,,,,,,,,,,,,,,,,5ee91ec1ef56832aa7947169,16:51:18,27/03/2024
1719.5,"<div class=""center_prompt"" style=""font-family: Helvetica; font-weight: light; font-size: 48px; text-anchor: middle; color: white; opacity: 1;"">Confidence</div><br><br><br><br><div class=""center_prompt2"" style=""font-family: Helvetica; font-weight: light; font-size: 48px; text-anchor: middle; color: white; opacity: 1;"">Guess (1) –––– Low (2)  –––– Medium (3) –––– High (4)</div>",3,delaylearn,test,memory_choice_confidence,NGNuEau595V5JttzXFtsMnje45B2,NGNuEau595V5JttzXFtsMnje45B2,html-keyboard-response,7,326472,0.0-5.0-2.0,3.0,,,,,,,,,,3,,,,,,,,5ee91ec1ef56832aa7947169,16:51:18,27/03/2024
,"<div style=""font-size:100px;"">+</div>",,delaylearn,test,pre_fixation,NGNuEau595V5JttzXFtsMnje45B2,not found,html-keyboard-response,8,329474,0.0-5.0-3.0,,,,,,,,,,,,,,,,,,,5ee91ec1ef56832aa7947169,16:51:18,27/03/2024
1652.7000000011176,"<div style=""display: flex; flex-direction: column; align-items: center; margin-top: -40px;""><div style=""display: flex; justify-content: space-between; margin-top: 33px;""><img src=""images/choice_trial_9.png"" style=""width: 408px; height: 417px; margin-right: 200px;""><img src=""images/choice_trial_15.png"" style=""width: 408px; height: 417px;""></div></div><br><br><br><br>",j,delaylearn,test,memory_choice,NGNuEau595V5JttzXFtsMnje45B2,NGNuEau595V5JttzXFtsMnje45B2,html-keyboard-response,9,331129,0.0-5.0-0.1,3.0,9.0,15.0,images/choice_trial_9.png,images/choice_trial_15.png,1.0,3.0,1.0,1.0,15.0,,,,,,,,,5ee91ec1ef56832aa7947169,16:51:18,27/03/2024
,,,delaylearn,test,isi,NGNuEau595V5JttzXFtsMnje45B2,not found,html-keyboard-response,10,331381,0.0-5.0-1.1,,,,,,,,,,,,,,,,,,,5ee91ec1ef56832aa7947169,16:51:18,27/03/2024
2127.4000000003725,"<div class=""center_prompt"" style=""font-family: Helvetica; font-weight: light; font-size: 48px; text-anchor: middle; color: white; opacity: 1;"">Confidence</div><br><br><br><br><div class=""center_prompt2"" style=""font-family: Helvetica; font-weight: light; font-size: 48px; text-anchor: middle; color: white; opacity: 1;"">Guess (1) –––– Low (2)  –––– Medium (3) –––– High (4)</div>",4,delaylearn,test,memory_choice_confidence,NGNuEau595V5JttzXFtsMnje45B2,NGNuEau595V5JttzXFtsMnje45B2,html-keyboard-response,11,333509,0.0-5.0-2.1,3.0,,,,,,,,,,4,,,,,,,,5ee91ec1ef56832aa7947169,16:51:18,27/03/2024
,"<div style=""font-size:100px;"">+</div>",,delaylearn,test,pre_fixation,NGNuEau595V5JttzXFtsMnje45B2,not found,html-keyboard-response,12,336520,0.0-5.0-3.1,,,,,,,,,,,,,,,,,,,5ee91ec1ef56832aa7947169,16:51:18,27/03/2024
1084.1000000014901,"<div style=""display: flex; flex-direction: column; align-items: center; margin-top: -40px;""><div style=""display: flex; justify-content: space-between; margin-top: 33px;""><img src=""images/choice_trial_3.png"" style=""width: 408px; height: 417px; margin-right: 200px;""><img src=""images/choice_trial_16.png"" style=""width: 408px; height: 417px;""></div></div><br><br><br><br>",j,delaylearn,test,memory_choice,NGNuEau595V5JttzXFtsMnje45B2,NGNuEau595V5JttzXFtsMnje45B2,html-keyboard-response,13,337607,0.0-5.0-0.2,3.0,3.0,16.0,images/choice_trial_3.png,images/choice_trial_16.png,1.0,5.0,0.0,1.0,16.0,,,,,,,,,5ee91ec1ef56832aa7947169,16:51:18,27/03/2024
,,,delaylearn,test,isi,NGNuEau595V5JttzXFtsMnje45B2,not found,html-keyboard-response,14,337860,0.0-5.0-1.2,,,,,,,,,,,,,,,,,,,5ee91ec1ef56832aa7947169,16:51:18,27/03/2024
644.4000000003725,"<div class=""center_prompt"" style=""font-family: Helvetica; font-weight: light; font-size: 48px; text-anchor: middle; color: white; opacity: 1;"">Confidence</div><br><br><br><br><div class=""center_prompt2"" style=""font-family: Helvetica; font-weight: light; font-size: 48px; text-anchor: middle; color: white; opacity: 1;"">Guess (1) –––– Low (2)  –––– Medium (3) –––– High (4)</div>",3,delaylearn,test,memory_choice_confidence,NGNuEau595V5JttzXFtsMnje45B2,NGNuEau595V5JttzXFtsMnje45B2,html-keyboard-response,15,338505,0.0-5.0-2.2,3.0,,,,,,,,,,3,,,,,,,,5ee91ec1ef56832aa7947169,16:51:18,27/03/2024
,"<div style=""font-size:100px;"">+</div>",,delaylearn,test,pre_fixation,NGNuEau595V5JttzXFtsMnje45B2,not found,html-keyboard-response,16,341519,0.0-5.0-3.2,,,,,,,,,,,,,,,,,,,5ee91ec1ef56832aa7947169,16:51:18,27/03/2024
1634.5,"<div style=""display: flex; flex-direction: column; align-items: center; margin-top: -40px;""><div style=""display: flex; justify-content: space-between; margin-top: 33px;""><img src=""images/choice_trial_2.png"" style=""width: 408px; height: 417px; margin-right: 200px;""><img src=""images/choice_trial_11.png"" style=""width: 408px; height: 417px;""></div></div><br><br><br><br>",j,delaylearn,test,memory_choice,NGNuEau595V5JttzXFtsMnje45B2,NGNuEau595V5JttzXFtsMnje45B2,html-keyboard-response,17,343156,0.0-5.0-0.3,3.0,2.0,11.0,images/choice_trial_2.png,images/choice_trial_11.png,1.0,4.0,0.0,1.0,11.0,,,,,,,,,5ee91ec1ef56832aa7947169,16:51:18,27/03/2024
,,,delaylearn,test,isi,NGNuEau595V5JttzXFtsMnje45B2,not found,html-keyboard-response,18,343417,0.0-5.0-1.3,,,,,,,,,,,,,,,,,,,5ee91ec1ef56832aa7947169,16:51:18,27/03/2024
1120.4000000003725,"<div class=""center_prompt"" style=""font-family: Helvetica; font-weight: light; font-size: 48px; text-anchor: middle; color: white; opacity: 1;"">Confidence</div><br><br><br><br><div class=""center_prompt2"" style=""font-family: Helvetica; font-weight: light; font-size: 48px; text-anchor: middle; color: white; opacity: 1;"">Guess (1) –––– Low (2)  –––– Medium (3) –––– High (4)</div>",3,delaylearn,test,memory_choice_confidence,NGNuEau595V5JttzXFtsMnje45B2,NGNuEau595V5JttzXFtsMnje45B2,html-keyboard-response,19,344539,0.0-5.0-2.3,3.0,,,,,,,,,,3,,,,,,,,5ee91ec1ef56832aa7947169,16:51:18,27/03/2024
,"<div style=""font-size:100px;"">+</div>",,delaylearn,test,pre_fixation,NGNuEau595V5JttzXFtsMnje45B2,not found,html-keyboard-response,20,347542,0.0-5.0-3.3,,,,,,,,,,,,,,,,,,,5ee91ec1ef56832aa7947169,16:51:18,27/03/2024
875.9000000003725,"<div style=""display: flex; flex-direction: column; align-items: center; margin-top: -40px;""><div style=""display: flex; justify-content: space-between; margin-top: 33px;""><img src=""images/choice_trial_13.png"" style=""width: 408px; height: 417px; margin-right: 200px;""><img src=""images/choice_trial_10.png"" style=""width: 408px; height: 417px;""></div></div><br><br><br><br>",f,delaylearn,test,memory_choice,NGNuEau595V5JttzXFtsMnje45B2,NGNuEau595V5JttzXFtsMnje45B2,html-keyboard-response,21,348420,0.0-5.0-0.4,3.0,13.0,10.0,images/choice_trial_13.png,images/choice_trial_10.png,0.0,2.0,1.0,1.0,13.0,,,,,,,,,5ee91ec1ef56832aa7947169,16:51:18,27/03/2024
,,,delaylearn,test,isi,NGNuEau595V5JttzXFtsMnje45B2,not found,html-keyboard-response,22,348672,0.0-5.0-1.4,,,,,,,,,,,,,,,,,,,5ee91ec1ef56832aa7947169,16:51:18,27/03/2024
1064.2999999988824,"<div class=""center_prompt"" style=""font-family: Helvetica; font-weight: light; font-size: 48px; text-anchor: middle; color: white; opacity: 1;"">Confidence</div><br><br><br><br><div class=""center_prompt2"" style=""font-family: Helvetica; font-weight: light; font-size: 48px; text-anchor: middle; color: white; opacity: 1;"">Guess (1) –––– Low (2)  –––– Medium (3) –––– High (4)</div>",3,delaylearn,test,memory_choice_confidence,NGNuEau595V5JttzXFtsMnje45B2,NGNuEau595V5JttzXFtsMnje45B2,html-keyboard-response,23,349737,0.0-5.0-2.4,3.0,,,,,,,,,,3,,,,,,,,5ee91ec1ef56832aa7947169,16:51:18,27/03/2024
,"<div style=""font-size:100px;"">+</div>",,delaylearn,test,pre_fixation,NGNuEau595V5JttzXFtsMnje45B2,not found,html-keyboard-response,24,352743,0.0-5.0-3.4,,,,,,,,,,,,,,,,,,,5ee91ec1ef56832aa7947169,16:51:18,27/03/2024
1084.0,"<div style=""display: flex; flex-direction: column; align-items: center; margin-top: -40px;""><div style=""display: flex; justify-content: space-between; margin-top: 33px;""><img src=""images/choice_trial_8.png"" style=""width: 408px; height: 417px; margin-right: 200px;""><img src=""images/choice_trial_14.png"" style=""width: 408px; height: 417px;""></div></div><br><br><br><br>",j,delaylearn,test,memory_choice,NGNuEau595V5JttzXFtsMnje45B2,NGNuEau595V5JttzXFtsMnje45B2,html-keyboard-response,25,353829,0.0-5.0-0.5,3.0,8.0,14.0,images/choice_trial_8.png,images/choice_trial_14.png,1.0,1.0,1.0,1.0,14.0,,,,,,,,,5ee91ec1ef56832aa7947169,16:51:18,27/03/2024
,,,delaylearn,test,isi,NGNuEau595V5JttzXFtsMnje45B2,not found,html-keyboard-response,26,354090,0.0-5.0-1.5,,,,,,,,,,,,,,,,,,,5ee91ec1ef56832aa7947169,16:51:18,27/03/2024
495.8999999985099,"<div class=""center_prompt"" style=""font-family: Helvetica; font-weight: light; font-size: 48px; text-anchor: middle; color: white; opacity: 1;"">Confidence</div><br><br><br><br><div class=""center_prompt2"" style=""font-family: Helvetica; font-weight: light; font-size: 48px; text-anchor: middle; color: white; opacity: 1;"">Guess (1) –––– Low (2)  –––– Medium (3) –––– High (4)</div>",3,delaylearn,test,memory_choice_confidence,NGNuEau595V5JttzXFtsMnje45B2,NGNuEau595V5JttzXFtsMnje45B2,html-keyboard-response,27,354587,0.0-5.0-2.5,3.0,,,,,,,,,,3,,,,,,,,5ee91ec1ef56832aa7947169,16:51:18,27/03/2024
,"<div style=""font-size:100px;"">+</div>",,delaylearn,test,pre_fixation,NGNuEau595V5JttzXFtsMnje45B2,not found,html-keyboard-response,28,357600,0.0-5.0-3.5,,,,,,,,,,,,,,,,,,,5ee91ec1ef56832aa7947169,16:51:18,27/03/2024
1220.1000000014901,"<div style=""display: flex; flex-direction: column; align-items: center; margin-top: -40px;""><div style=""display: flex; justify-content: space-between; margin-top: 33px;""><img src=""images/choice_trial_3.png"" style=""width: 408px; height: 417px; margin-right: 200px;""><img src=""images/choice_trial_11.png"" style=""width: 408px; height: 417px;""></div></div><br><br><br><br>",j,delaylearn,test,memory_choice,NGNuEau595V5JttzXFtsMnje45B2,NGNuEau595V5JttzXFtsMnje45B2,html-keyboard-response,29,358822,0.0-5.0-0.6,3.0,3.0,11.0,images/choice_trial_3.png,images/choice_trial_11.png,1.0,45.0,0.0,1.0,11.0,,,,,,,,,5ee91ec1ef56832aa7947169,16:51:18,27/03/2024
,,,delaylearn,test,isi,NGNuEau595V5JttzXFtsMnje45B2,not found,html-keyboard-response,30,359083,0.0-5.0-1.6,,,,,,,,,,,,,,,,,,,5ee91ec1ef56832aa7947169,16:51:18,27/03/2024
537.5,"<div class=""center_prompt"" style=""font-family: Helvetica; font-weight: light; font-size: 48px; text-anchor: middle; color: white; opacity: 1;"">Confidence</div><br><br><br><br><div class=""center_prompt2"" style=""font-family: Helvetica; font-weight: light; font-size: 48px; text-anchor: middle; color: white; opacity: 1;"">Guess (1) –––– Low (2)  –––– Medium (3) –––– High (4)</div>",4,delaylearn,test,memory_choice_confidence,NGNuEau595V5JttzXFtsMnje45B2,NGNuEau595V5JttzXFtsMnje45B2,html-keyboard-response,31,359621,0.0-5.0-2.6,3.0,,,,,,,,,,4,,,,,,,,5ee91ec1ef56832aa7947169,16:51:18,27/03/2024
,"<div style=""font-size:100px;"">+</div>",,delaylearn,test,pre_fixation,NGNuEau595V5JttzXFtsMnje45B2,not found,html-keyboard-response,32,362642,0.0-5.0-3.6,,,,,,,,,,,,,,,,,,,5ee91ec1ef56832aa7947169,16:51:18,27/03/2024
1258.7999999988824,"<div style=""display: flex; flex-direction: column; align-items: center; margin-top: -40px;""><div style=""display: flex; justify-content: space-between; margin-top: 33px;""><img src=""images/choice_trial_14.png"" style=""width: 408px; height: 417px; margin-right: 200px;""><img src=""images/choice_trial_10.png"" style=""width: 408px; height: 417px;""></div></div><br><br><br><br>",f,delaylearn,test,memory_choice,NGNuEau595V5JttzXFtsMnje45B2,NGNuEau595V5JttzXFtsMnje45B2,html-keyboard-response,33,363904,0.0-5.0-0.7,3.0,14.0,10.0,images/choice_trial_14.png,images/choice_trial_10.png,0.0,12.0,1.0,1.0,14.0,,,,,,,,,5ee91ec1ef56832aa7947169,16:51:18,27/03/2024
,,,delaylearn,test,isi,NGNuEau595V5JttzXFtsMnje45B2,not found,html-keyboard-response,34,364159,0.0-5.0-1.7,,,,,,,,,,,,,,,,,,,5ee91ec1ef56832aa7947169,16:51:18,27/03/2024
844.3000000007451,"<div class=""center_prompt"" style=""font-family: Helvetica; font-weight: light; font-size: 48px; text-anchor: middle; color: white; opacity: 1;"">Confidence</div><br><br><br><br><div class=""center_prompt2"" style=""font-family: Helvetica; font-weight: light; font-size: 48px; text-anchor: middle; color: white; opacity: 1;"">Guess (1) –––– Low (2)  –––– Medium (3) –––– High (4)</div>",3,delaylearn,test,memory_choice_confidence,NGNuEau595V5JttzXFtsMnje45B2,NGNuEau595V5JttzXFtsMnje45B2,html-keyboard-response,35,365004,0.0-5.0-2.7,3.0,,,,,,,,,,3,,,,,,,,5ee91ec1ef56832aa7947169,16:51:18,27/03/2024
,"<div style=""font-size:100px;"">+</div>",,delaylearn,test,pre_fixation,NGNuEau595V5JttzXFtsMnje45B2,not found,html-keyboard-response,36,368007,0.0-5.0-3.7,,,,,,,,,,,,,,,,,,,5ee91ec1ef56832aa7947169,16:51:18,27/03/2024
1816.5999999996275,"<div style=""display: flex; flex-direction: column; align-items: center; margin-top: -40px;""><div style=""display: flex; justify-content: space-between; margin-top: 33px;""><img src=""images/choice_trial_9.png"" style=""width: 408px; height: 417px; margin-right: 200px;""><img src=""images/choice_trial_13.png"" style=""width: 408px; height: 417px;""></div></div><br><br><br><br>",j,delaylearn,test,memory_choice,NGNuEau595V5JttzXFtsMnje45B2,NGNuEau595V5JttzXFtsMnje45B2,html-keyboard-response,37,369826,0.0-5.0-0.8,3.0,9.0,13.0,images/choice_trial_9.png,images/choice_trial_13.png,1.0,23.0,1.0,1.0,13.0,,,,,,,,,5ee91ec1ef56832aa7947169,16:51:18,27/03/2024
,,,delaylearn,test,isi,NGNuEau595V5JttzXFtsMnje45B2,not found,html-keyboard-response,38,370089,0.0-5.0-1.8,,,,,,,,,,,,,,,,,,,5ee91ec1ef56832aa7947169,16:51:18,27/03/2024
574.5999999996275,"<div class=""center_prompt"" style=""font-family: Helvetica; font-weight: light; font-size: 48px; text-anchor: middle; color: white; opacity: 1;"">Confidence</div><br><br><br><br><div class=""center_prompt2"" style=""font-family: Helvetica; font-weight: light; font-size: 48px; text-anchor: middle; color: white; opacity: 1;"">Guess (1) –––– Low (2)  –––– Medium (3) –––– High (4)</div>",2,delaylearn,test,memory_choice_confidence,NGNuEau595V5JttzXFtsMnje45B2,NGNuEau595V5JttzXFtsMnje45B2,html-keyboard-response,39,370665,0.0-5.0-2.8,3.0,,,,,,,,,,2,,,,,,,,5ee91ec1ef56832aa7947169,16:51:18,27/03/2024
,"<div style=""font-size:100px;"">+</div>",,delaylearn,test,pre_fixation,NGNuEau595V5JttzXFtsMnje45B2,not found,html-keyboard-response,40,373677,0.0-5.0-3.8,,,,,,,,,,,,,,,,,,,5ee91ec1ef56832aa7947169,16:51:18,27/03/2024
1974.5,"<div style=""display: flex; flex-direction: column; align-items: center; margin-top: -40px;""><div style=""display: flex; justify-content: space-between; margin-top: 33px;""><img src=""images/choice_trial_16.png"" style=""width: 408px; height: 417px; margin-right: 200px;""><img src=""images/choice_trial_12.png"" style=""width: 408px; height: 417px;""></div></div><br><br><br><br>",f,delaylearn,test,memory_choice,NGNuEau595V5JttzXFtsMnje45B2,NGNuEau595V5JttzXFtsMnje45B2,html-keyboard-response,41,375655,0.0-5.0-0.9,3.0,16.0,12.0,images/choice_trial_16.png,images/choice_trial_12.png,0.0,56.0,0.0,1.0,16.0,,,,,,,,,5ee91ec1ef56832aa7947169,16:51:18,27/03/2024
,,,delaylearn,test,isi,NGNuEau595V5JttzXFtsMnje45B2,not found,html-keyboard-response,42,375912,0.0-5.0-1.9,,,,,,,,,,,,,,,,,,,5ee91ec1ef56832aa7947169,16:51:18,27/03/2024
332.0,"<div class=""center_prompt"" style=""font-family: Helvetica; font-weight: light; font-size: 48px; text-anchor: middle; color: white; opacity: 1;"">Confidence</div><br><br><br><br><div class=""center_prompt2"" style=""font-family: Helvetica; font-weight: light; font-size: 48px; text-anchor: middle; color: white; opacity: 1;"">Guess (1) –––– Low (2)  –––– Medium (3) –––– High (4)</div>",3,delaylearn,test,memory_choice_confidence,NGNuEau595V5JttzXFtsMnje45B2,NGNuEau595V5JttzXFtsMnje45B2,html-keyboard-response,43,376245,0.0-5.0-2.9,3.0,,,,,,,,,,3,,,,,,,,5ee91ec1ef56832aa7947169,16:51:18,27/03/2024
,"<div style=""font-size:100px;"">+</div>",,delaylearn,test,pre_fixation,NGNuEau595V5JttzXFtsMnje45B2,not found,html-keyboard-response,44,379249,0.0-5.0-3.9,,,,,,,,,,,,,,,,,,,5ee91ec1ef56832aa7947169,16:51:18,27/03/2024
1178.0,"<div style=""display: flex; flex-direction: column; align-items: center; margin-top: -40px;""><div style=""display: flex; justify-content: space-between; margin-top: 33px;""><img src=""images/choice_trial_15.png"" style=""width: 408px; height: 417px; margin-right: 200px;""><img src=""images/choice_trial_8.png"" style=""width: 408px; height: 417px;""></div></div><br><br><br><br>",f,delaylearn,test,memory_choice,NGNuEau595V5JttzXFtsMnje45B2,NGNuEau595V5JttzXFtsMnje45B2,html-keyboard-response,45,380429,0.0-5.0-0.10,3.0,15.0,8.0,images/choice_trial_15.png,images/choice_trial_8.png,0.0,31.0,1.0,1.0,15.0,,,,,,,,,5ee91ec1ef56832aa7947169,16:51:18,27/03/2024
,,,delaylearn,test,isi,NGNuEau595V5JttzXFtsMnje45B2,not found,html-keyboard-response,46,380690,0.0-5.0-1.10,,,,,,,,,,,,,,,,,,,5ee91ec1ef56832aa7947169,16:51:18,27/03/2024
315.3999999985099,"<div class=""center_prompt"" style=""font-family: Helvetica; font-weight: light; font-size: 48px; text-anchor: middle; color: white; opacity: 1;"">Confidence</div><br><br><br><br><div class=""center_prompt2"" style=""font-family: Helvetica; font-weight: light; font-size: 48px; text-anchor: middle; color: white; opacity: 1;"">Guess (1) –––– Low (2)  –––– Medium (3) –––– High (4)</div>",3,delaylearn,test,memory_choice_confidence,NGNuEau595V5JttzXFtsMnje45B2,NGNuEau595V5JttzXFtsMnje45B2,html-keyboard-response,47,381006,0.0-5.0-2.10,3.0,,,,,,,,,,3,,,,,,,,5ee91ec1ef56832aa7947169,16:51:18,27/03/2024
,"<div style=""font-size:100px;"">+</div>",,delaylearn,test,pre_fixation,NGNuEau595V5JttzXFtsMnje45B2,not found,html-keyboard-response,48,384016,0.0-5.0-3.10,,,,,,,,,,,,,,,,,,,5ee91ec1ef56832aa7947169,16:51:18,27/03/2024
1970.0999999996275,"<div style=""display: flex; flex-direction: column; align-items: center; margin-top: -40px;""><div style=""display: flex; justify-content: space-between; margin-top: 33px;""><img src=""images/choice_trial_2.png"" style=""width: 408px; height: 417px; margin-right: 200px;""><img src=""images/choice_trial_6.png"" style=""width: 408px; height: 417px;""></div></div><br><br><br><br>",j,delaylearn,test,memory_choice,NGNuEau595V5JttzXFtsMnje45B2,NGNuEau595V5JttzXFtsMnje45B2,html-keyboard-response,49,385989,0.0-5.0-0.11,3.0,2.0,6.0,images/choice_trial_2.png,images/choice_trial_6.png,1.0,64.0,0.0,1.0,6.0,,,,,,,,,5ee91ec1ef56832aa7947169,16:51:18,27/03/2024
,,,delaylearn,test,isi,NGNuEau595V5JttzXFtsMnje45B2,not found,html-keyboard-response,50,386243,0.0-5.0-1.11,,,,,,,,,,,,,,,,,,,5ee91ec1ef56832aa7947169,16:51:18,27/03/2024
959.1999999992549,"<div class=""center_prompt"" style=""font-family: Helvetica; font-weight: light; font-size: 48px; text-anchor: middle; color: white; opacity: 1;"">Confidence</div><br><br><br><br><div class=""center_prompt2"" style=""font-family: Helvetica; font-weight: light; font-size: 48px; text-anchor: middle; color: white; opacity: 1;"">Guess (1) –––– Low (2)  –––– Medium (3) –––– High (4)</div>",2,delaylearn,test,memory_choice_confidence,NGNuEau595V5JttzXFtsMnje45B2,NGNuEau595V5JttzXFtsMnje45B2,html-keyboard-response,51,387204,0.0-5.0-2.11,3.0,,,,,,,,,,2,,,,,,,,5ee91ec1ef56832aa7947169,16:51:18,27/03/2024
,"<div style=""font-size:100px;"">+</div>",,delaylearn,test,pre_fixation,NGNuEau595V5JttzXFtsMnje45B2,not found,html-keyboard-response,52,390216,0.0-5.0-3.11,,,,,,,,,,,,,,,,,,,5ee91ec1ef56832aa7947169,16:51:18,27/03/2024
,"<div style=""font-size:100px;"">+</div>",,delaylearn,test,pre_fixation,NGNuEau595V5JttzXFtsMnje45B2,not found,html-keyboard-response,53,393224,0.0-6.0,,,,,,,,,,,,,,,,,,,5ee91ec1ef56832aa7947169,16:51:18,27/03/2024
4721.0,16,0.6868272145589193,delaylearn,test,memory_rating,NGNuEau595V5JttzXFtsMnje45B2,NGNuEau595V5JttzXFtsMnje45B2,option-scale-rating,56,420813,0.0-9.0,3.0,,,,,,6.0,0.0,,,,0.77,What percent of the time did you win when choosing this option?,fullscreenenter,16.0,,,,5ee91ec1ef56832aa7947169,16:51:18,27/03/2024
9109.0,10,0.0034938812255859374,delaylearn,test,memory_rating,NGNuEau595V5JttzXFtsMnje45B2,NGNuEau595V5JttzXFtsMnje45B2,option-scale-rating,57,432939,0.0-10.0,3.0,,,,,,3.0,1.0,,,,0.23,What percent of the time did you win when choosing this option?,fullscreenenter,10.0,,,,5ee91ec1ef56832aa7947169,16:51:18,27/03/2024
3130.0,13,0.797243881225586,delaylearn,test,memory_rating,NGNuEau595V5JttzXFtsMnje45B2,NGNuEau595V5JttzXFtsMnje45B2,option-scale-rating,58,439078,0.0-11.0,3.0,,,,,,3.0,1.0,,,,0.77,What percent of the time did you win when choosing this option?,fullscreenenter,13.0,,,,5ee91ec1ef56832aa7947169,16:51:18,27/03/2024
7989.0,6,0.7576605478922526,delaylearn,test,memory_rating,NGNuEau595V5JttzXFtsMnje45B2,NGNuEau595V5JttzXFtsMnje45B2,option-scale-rating,59,450078,0.0-12.0,3.0,,,,,,7.0,0.0,,,,0.77,What percent of the time did you win when choosing this option?,fullscreenenter,6.0,,,,5ee91ec1ef56832aa7947169,16:51:18,27/03/2024
4073.0,2,0.009743881225585938,delaylearn,test,memory_rating,NGNuEau595V5JttzXFtsMnje45B2,NGNuEau595V5JttzXFtsMnje45B2,option-scale-rating,60,457165,0.0-13.0,3.0,,,,,,5.0,0.0,,,,0.23,What percent of the time did you win when choosing this option?,fullscreenenter,2.0,,,,5ee91ec1ef56832aa7947169,16:51:18,27/03/2024
5730.0,15,0.6368272145589192,delaylearn,test,memory_rating,NGNuEau595V5JttzXFtsMnje45B2,NGNuEau595V5JttzXFtsMnje45B2,option-scale-rating,61,465910,0.0-14.0,3.0,,,,,,4.0,1.0,,,,0.77,What percent of the time did you win when choosing this option?,fullscreenenter,15.0,,,,5ee91ec1ef56832aa7947169,16:51:18,27/03/2024
4701.0,12,0.009743881225585938,delaylearn,test,memory_rating,NGNuEau595V5JttzXFtsMnje45B2,NGNuEau595V5JttzXFtsMnje45B2,option-scale-rating,62,473628,0.0-15.0,3.0,,,,,,7.0,0.0,,,,0.23,What percent of the time did you win when choosing this option?,fullscreenenter,12.0,,,,5ee91ec1ef56832aa7947169,16:51:18,27/03/2024
3043.0,9,0.011827214558919271,delaylearn,test,memory_rating,NGNuEau595V5JttzXFtsMnje45B2,NGNuEau595V5JttzXFtsMnje45B2,option-scale-rating,63,479684,0.0-16.0,3.0,,,,,,4.0,1.0,,,,0.23,What percent of the time did you win when choosing this option?,fullscreenenter,9.0,,,,5ee91ec1ef56832aa7947169,16:51:18,27/03/2024
3446.0,3,0.011827214558919271,delaylearn,test,memory_rating,NGNuEau595V5JttzXFtsMnje45B2,NGNuEau595V5JttzXFtsMnje45B2,option-scale-rating,64,486150,0.0-17.0,3.0,,,,,,6.0,0.0,,,,0.23,What percent of the time did you win when choosing this option?,fullscreenenter,3.0,,,,5ee91ec1ef56832aa7947169,16:51:18,27/03/2024
4494.0,14,0.49932721455891926,delaylearn,test,memory_rating,NGNuEau595V5JttzXFtsMnje45B2,NGNuEau595V5JttzXFtsMnje45B2,option-scale-rating,65,493661,0.0-18.0,3.0,,,,,,1.0,1.0,,,,0.77,What percent of the time did you win when choosing this option?,fullscreenenter,14.0,,,,5ee91ec1ef56832aa7947169,16:51:18,27/03/2024
5333.0,8,0.0034938812255859374,delaylearn,test,memory_rating,NGNuEau595V5JttzXFtsMnje45B2,NGNuEau595V5JttzXFtsMnje45B2,option-scale-rating,66,502012,0.0-19.0,3.0,,,,,,1.0,1.0,,,,0.23,What percent of the time did you win when choosing this option?,fullscreenenter,8.0,,,,5ee91ec1ef56832aa7947169,16:51:18,27/03/2024
3769.0,11,0.8576605478922527,delaylearn,test,memory_rating,NGNuEau595V5JttzXFtsMnje45B2,NGNuEau595V5JttzXFtsMnje45B2,option-scale-rating,67,508788,0.0-20.0,3.0,,,,,,5.0,0.0,,,,0.77,What percent of the time did you win when choosing this option?,fullscreenenter,11.0,,,,5ee91ec1ef56832aa7947169,16:51:18,27/03/2024
,"<div style=""font-size:100px;"">+</div>",,delaylearn,test,pre_fixation,NGNuEau595V5JttzXFtsMnje45B2,not found,html-keyboard-response,68,511796,0.0-21.0,,,,,,,,,,,,,,,,,,,5ee91ec1ef56832aa7947169,16:51:18,27/03/2024
,"<div style=""font-size:100px;"">+</div>",,delaylearn,test,pre_fixation,NGNuEau595V5JttzXFtsMnje45B2,not found,html-keyboard-response,72,560925,0.0-25.0,,,,,,,,,,,,,,,,,,,5ee91ec1ef56832aa7947169,16:51:18,27/03/2024
1522.7000000011176,"<div style=""display: flex; flex-direction: column; align-items: center; margin-top: -40px;""><div style=""display: flex; justify-content: space-between; margin-top: 33px;""><img src=""images/choice_trial_8.png"" style=""width: 408px; height: 417px; margin-right: 200px;""><img src=""images/choice_trial_14.png"" style=""width: 408px; height: 417px;""></div></div><br>",arrowdown,delaylearn,test,memory_time,NGNuEau595V5JttzXFtsMnje45B2,NGNuEau595V5JttzXFtsMnje45B2,html-keyboard-response,73,562451,0.0-26.0-0.0,3.0,,,,,1.0,1.0,1.0,1.0,,,,,,,8.0,14.0,1.0,5ee91ec1ef56832aa7947169,16:51:18,27/03/2024
,"<div style=""font-size:100px;"">+</div>",,delaylearn,test,pre_fixation,NGNuEau595V5JttzXFtsMnje45B2,not found,html-keyboard-response,74,565456,0.0-26.0-1.0,,,,,,,,,,,,,,,,,,,5ee91ec1ef56832aa7947169,16:51:18,27/03/2024
2026.5,"<div style=""display: flex; flex-direction: column; align-items: center; margin-top: -40px;""><div style=""display: flex; justify-content: space-between; margin-top: 33px;""><img src=""images/choice_trial_2.png"" style=""width: 408px; height: 417px; margin-right: 200px;""><img src=""images/choice_trial_11.png"" style=""width: 408px; height: 417px;""></div></div><br>",arrowup,delaylearn,test,memory_time,NGNuEau595V5JttzXFtsMnje45B2,NGNuEau595V5JttzXFtsMnje45B2,html-keyboard-response,75,567486,0.0-26.0-0.1,3.0,,,,,1.0,5.0,0.0,1.0,,,,,,,2.0,11.0,0.0,5ee91ec1ef56832aa7947169,16:51:18,27/03/2024
,"<div style=""font-size:100px;"">+</div>",,delaylearn,test,pre_fixation,NGNuEau595V5JttzXFtsMnje45B2,not found,html-keyboard-response,76,570488,0.0-26.0-1.1,,,,,,,,,,,,,,,,,,,5ee91ec1ef56832aa7947169,16:51:18,27/03/2024
1898.6000000014901,"<div style=""display: flex; flex-direction: column; align-items: center; margin-top: -40px;""><div style=""display: flex; justify-content: space-between; margin-top: 33px;""><img src=""images/choice_trial_13.png"" style=""width: 408px; height: 417px; margin-right: 200px;""><img src=""images/choice_trial_10.png"" style=""width: 408px; height: 417px;""></div></div><br>",arrowup,delaylearn,test,memory_time,NGNuEau595V5JttzXFtsMnje45B2,NGNuEau595V5JttzXFtsMnje45B2,html-keyboard-response,77,572389,0.0-26.0-0.2,3.0,,,,,1.0,3.0,1.0,0.0,,,,,,,13.0,10.0,0.0,5ee91ec1ef56832aa7947169,16:51:18,27/03/2024
,"<div style=""font-size:100px;"">+</div>",,delaylearn,test,pre_fixation,NGNuEau595V5JttzXFtsMnje45B2,not found,html-keyboard-response,78,575395,0.0-26.0-1.2,,,,,,,,,,,,,,,,,,,5ee91ec1ef56832aa7947169,16:51:18,27/03/2024
1326.7999999988824,"<div style=""display: flex; flex-direction: column; align-items: center; margin-top: -40px;""><div style=""display: flex; justify-content: space-between; margin-top: 33px;""><img src=""images/choice_trial_16.png"" style=""width: 408px; height: 417px; margin-right: 200px;""><img src=""images/choice_trial_3.png"" style=""width: 408px; height: 417px;""></div></div><br>",arrowup,delaylearn,test,memory_time,NGNuEau595V5JttzXFtsMnje45B2,NGNuEau595V5JttzXFtsMnje45B2,html-keyboard-response,79,576724,0.0-26.0-0.3,3.0,,,,,0.0,6.0,0.0,1.0,,,,,,,3.0,16.0,0.0,5ee91ec1ef56832aa7947169,16:51:18,27/03/2024
,"<div style=""font-size:100px;"">+</div>",,delaylearn,test,pre_fixation,NGNuEau595V5JttzXFtsMnje45B2,not found,html-keyboard-response,80,579742,0.0-26.0-1.3,,,,,,,,,,,,,,,,,,,5ee91ec1ef56832aa7947169,16:51:18,27/03/2024
1766.300000000745,"<div style=""display: flex; flex-direction: column; align-items: center; margin-top: -40px;""><div style=""display: flex; justify-content: space-between; margin-top: 33px;""><img src=""images/choice_trial_12.png"" style=""width: 408px; height: 417px; margin-right: 200px;""><img src=""images/choice_trial_6.png"" style=""width: 408px; height: 417px;""></div></div><br>",arrowup,delaylearn,test,memory_time,NGNuEau595V5JttzXFtsMnje45B2,NGNuEau595V5JttzXFtsMnje45B2,html-keyboard-response,81,581512,0.0-26.0-0.4,3.0,,,,,1.0,7.0,0.0,1.0,,,,,,,6.0,12.0,0.0,5ee91ec1ef56832aa7947169,16:51:18,27/03/2024
,"<div style=""font-size:100px;"">+</div>",,delaylearn,test,pre_fixation,NGNuEau595V5JttzXFtsMnje45B2,not found,html-keyboard-response,82,584524,0.0-26.0-1.4,,,,,,,,,,,,,,,,,,,5ee91ec1ef56832aa7947169,16:51:18,27/03/2024
1417.2999999988824,"<div style=""display: flex; flex-direction: column; align-items: center; margin-top: -40px;""><div style=""display: flex; justify-content: space-between; margin-top: 33px;""><img src=""images/choice_trial_15.png"" style=""width: 408px; height: 417px; margin-right: 200px;""><img src=""images/choice_trial_9.png"" style=""width: 408px; height: 417px;""></div></div><br>",arrowdown,delaylearn,test,memory_time,NGNuEau595V5JttzXFtsMnje45B2,NGNuEau595V5JttzXFtsMnje45B2,html-keyboard-response,83,585944,0.0-26.0-0.5,3.0,,,,,0.0,4.0,1.0,1.0,,,,,,,9.0,15.0,1.0,5ee91ec1ef56832aa7947169,16:51:18,27/03/2024
