rt,stimulus,response,exp_name,exp_stage,test_part,subjectID,trial_type,trial_index,time_elapsed,internal_node_id,databaseID,counterbal,stim_left,stim_right,chosen_stim_left,chosen_stim_right,leftright_counter,pair,delay,response_correct,chosen_stim,confidence,value_true,text,userinteract,stim,stim1,stim2,response_longshort,prolificID,start_time,date
,"<div style=""font-size:100px;"">+</div>",,delaylearn,test,pre_fixation,kOQt9bBZ04NJ8LMjzNzE8gOCad02,html-keyboard-response,4,34565,0.0-4.0,,,,,,,,,,,,,,,,,,,,5f467b8d74eeef0365ffb26e,15:49:35,26/03/2024
2021.2999999523163,"<div style=""display: flex; flex-direction: column; align-items: center; margin-top: -40px;""><div style=""display: flex; justify-content: space-between; margin-top: 33px;""><img src=""images/choice_trial_8.png"" style=""width: 408px; height: 417px; margin-right: 200px;""><img src=""images/choice_trial_15.png"" style=""width: 408px; height: 417px;""></div></div><br><br><br><br>",f,delaylearn,test,memory_choice,kOQt9bBZ04NJ8LMjzNzE8gOCad02,html-keyboard-response,5,36590,0.0-5.0-0.0,kOQt9bBZ04NJ8LMjzNzE8gOCad02,2.0,8.0,15.0,images/choice_trial_8.png,images/choice_trial_15.png,0.0,6.0,0.0,1.0,8.0,,,,,,,,,5f467b8d74eeef0365ffb26e,15:49:35,26/03/2024
,,,delaylearn,test,isi,kOQt9bBZ04NJ8LMjzNzE8gOCad02,html-keyboard-response,6,36842,0.0-5.0-1.0,,,,,,,,,,,,,,,,,,,,5f467b8d74eeef0365ffb26e,15:49:35,26/03/2024
1136.300000011921,"<div class=""center_prompt"" style=""font-family: Helvetica; font-weight: light; font-size: 48px; text-anchor: middle; color: white; opacity: 1;"">Confidence</div><br><br><br><br><div class=""center_prompt2"" style=""font-family: Helvetica; font-weight: light; font-size: 48px; text-anchor: middle; color: white; opacity: 1;"">Guess (1) –––– Low (2)  –––– Medium (3) –––– High (4)</div>",2,delaylearn,test,memory_choice_confidence,kOQt9bBZ04NJ8LMjzNzE8gOCad02,html-keyboard-response,7,37980,0.0-5.0-2.0,kOQt9bBZ04NJ8LMjzNzE8gOCad02,2.0,,,,,,,,,,2,,,,,,,,5f467b8d74eeef0365ffb26e,15:49:35,26/03/2024
,"<div style=""font-size:100px;"">+</div>",,delaylearn,test,pre_fixation,kOQt9bBZ04NJ8LMjzNzE8gOCad02,html-keyboard-response,8,40982,0.0-5.0-3.0,,,,,,,,,,,,,,,,,,,,5f467b8d74eeef0365ffb26e,15:49:35,26/03/2024
967.0,"<div style=""display: flex; flex-direction: column; align-items: center; margin-top: -40px;""><div style=""display: flex; justify-content: space-between; margin-top: 33px;""><img src=""images/choice_trial_16.png"" style=""width: 408px; height: 417px; margin-right: 200px;""><img src=""images/choice_trial_4.png"" style=""width: 408px; height: 417px;""></div></div><br><br><br><br>",j,delaylearn,test,memory_choice,kOQt9bBZ04NJ8LMjzNzE8gOCad02,html-keyboard-response,9,41952,0.0-5.0-0.1,kOQt9bBZ04NJ8LMjzNzE8gOCad02,2.0,16.0,4.0,images/choice_trial_16.png,images/choice_trial_4.png,1.0,3.0,1.0,1.0,4.0,,,,,,,,,5f467b8d74eeef0365ffb26e,15:49:35,26/03/2024
,,,delaylearn,test,isi,kOQt9bBZ04NJ8LMjzNzE8gOCad02,html-keyboard-response,10,42203,0.0-5.0-1.1,,,,,,,,,,,,,,,,,,,,5f467b8d74eeef0365ffb26e,15:49:35,26/03/2024
1495.0999999642372,"<div class=""center_prompt"" style=""font-family: Helvetica; font-weight: light; font-size: 48px; text-anchor: middle; color: white; opacity: 1;"">Confidence</div><br><br><br><br><div class=""center_prompt2"" style=""font-family: Helvetica; font-weight: light; font-size: 48px; text-anchor: middle; color: white; opacity: 1;"">Guess (1) –––– Low (2)  –––– Medium (3) –––– High (4)</div>",3,delaylearn,test,memory_choice_confidence,kOQt9bBZ04NJ8LMjzNzE8gOCad02,html-keyboard-response,11,43700,0.0-5.0-2.1,kOQt9bBZ04NJ8LMjzNzE8gOCad02,2.0,,,,,,,,,,3,,,,,,,,5f467b8d74eeef0365ffb26e,15:49:35,26/03/2024
,"<div style=""font-size:100px;"">+</div>",,delaylearn,test,pre_fixation,kOQt9bBZ04NJ8LMjzNzE8gOCad02,html-keyboard-response,12,46702,0.0-5.0-3.1,,,,,,,,,,,,,,,,,,,,5f467b8d74eeef0365ffb26e,15:49:35,26/03/2024
1768.0,"<div style=""display: flex; flex-direction: column; align-items: center; margin-top: -40px;""><div style=""display: flex; justify-content: space-between; margin-top: 33px;""><img src=""images/choice_trial_5.png"" style=""width: 408px; height: 417px; margin-right: 200px;""><img src=""images/choice_trial_11.png"" style=""width: 408px; height: 417px;""></div></div><br><br><br><br>",f,delaylearn,test,memory_choice,kOQt9bBZ04NJ8LMjzNzE8gOCad02,html-keyboard-response,13,48473,0.0-5.0-0.2,kOQt9bBZ04NJ8LMjzNzE8gOCad02,2.0,5.0,11.0,images/choice_trial_5.png,images/choice_trial_11.png,1.0,5.0,0.0,0.0,5.0,,,,,,,,,5f467b8d74eeef0365ffb26e,15:49:35,26/03/2024
,,,delaylearn,test,isi,kOQt9bBZ04NJ8LMjzNzE8gOCad02,html-keyboard-response,14,48724,0.0-5.0-1.2,,,,,,,,,,,,,,,,,,,,5f467b8d74eeef0365ffb26e,15:49:35,26/03/2024
1206.300000011921,"<div class=""center_prompt"" style=""font-family: Helvetica; font-weight: light; font-size: 48px; text-anchor: middle; color: white; opacity: 1;"">Confidence</div><br><br><br><br><div class=""center_prompt2"" style=""font-family: Helvetica; font-weight: light; font-size: 48px; text-anchor: middle; color: white; opacity: 1;"">Guess (1) –––– Low (2)  –––– Medium (3) –––– High (4)</div>",3,delaylearn,test,memory_choice_confidence,kOQt9bBZ04NJ8LMjzNzE8gOCad02,html-keyboard-response,15,49931,0.0-5.0-2.2,kOQt9bBZ04NJ8LMjzNzE8gOCad02,2.0,,,,,,,,,,3,,,,,,,,5f467b8d74eeef0365ffb26e,15:49:35,26/03/2024
,"<div style=""font-size:100px;"">+</div>",,delaylearn,test,pre_fixation,kOQt9bBZ04NJ8LMjzNzE8gOCad02,html-keyboard-response,16,52933,0.0-5.0-3.2,,,,,,,,,,,,,,,,,,,,5f467b8d74eeef0365ffb26e,15:49:35,26/03/2024
1593.8999999761581,"<div style=""display: flex; flex-direction: column; align-items: center; margin-top: -40px;""><div style=""display: flex; justify-content: space-between; margin-top: 33px;""><img src=""images/choice_trial_9.png"" style=""width: 408px; height: 417px; margin-right: 200px;""><img src=""images/choice_trial_2.png"" style=""width: 408px; height: 417px;""></div></div><br><br><br><br>",j,delaylearn,test,memory_choice,kOQt9bBZ04NJ8LMjzNzE8gOCad02,html-keyboard-response,17,54529,0.0-5.0-0.3,kOQt9bBZ04NJ8LMjzNzE8gOCad02,2.0,9.0,2.0,images/choice_trial_9.png,images/choice_trial_2.png,1.0,4.0,0.0,1.0,2.0,,,,,,,,,5f467b8d74eeef0365ffb26e,15:49:35,26/03/2024
,,,delaylearn,test,isi,kOQt9bBZ04NJ8LMjzNzE8gOCad02,html-keyboard-response,18,54782,0.0-5.0-1.3,,,,,,,,,,,,,,,,,,,,5f467b8d74eeef0365ffb26e,15:49:35,26/03/2024
765.1999999880791,"<div class=""center_prompt"" style=""font-family: Helvetica; font-weight: light; font-size: 48px; text-anchor: middle; color: white; opacity: 1;"">Confidence</div><br><br><br><br><div class=""center_prompt2"" style=""font-family: Helvetica; font-weight: light; font-size: 48px; text-anchor: middle; color: white; opacity: 1;"">Guess (1) –––– Low (2)  –––– Medium (3) –––– High (4)</div>",4,delaylearn,test,memory_choice_confidence,kOQt9bBZ04NJ8LMjzNzE8gOCad02,html-keyboard-response,19,55548,0.0-5.0-2.3,kOQt9bBZ04NJ8LMjzNzE8gOCad02,2.0,,,,,,,,,,4,,,,,,,,5f467b8d74eeef0365ffb26e,15:49:35,26/03/2024
,"<div style=""font-size:100px;"">+</div>",,delaylearn,test,pre_fixation,kOQt9bBZ04NJ8LMjzNzE8gOCad02,html-keyboard-response,20,58550,0.0-5.0-3.3,,,,,,,,,,,,,,,,,,,,5f467b8d74eeef0365ffb26e,15:49:35,26/03/2024
1572.8999999761581,"<div style=""display: flex; flex-direction: column; align-items: center; margin-top: -40px;""><div style=""display: flex; justify-content: space-between; margin-top: 33px;""><img src=""images/choice_trial_12.png"" style=""width: 408px; height: 417px; margin-right: 200px;""><img src=""images/choice_trial_14.png"" style=""width: 408px; height: 417px;""></div></div><br><br><br><br>",f,delaylearn,test,memory_choice,kOQt9bBZ04NJ8LMjzNzE8gOCad02,html-keyboard-response,21,60126,0.0-5.0-0.4,kOQt9bBZ04NJ8LMjzNzE8gOCad02,2.0,12.0,14.0,images/choice_trial_12.png,images/choice_trial_14.png,0.0,2.0,1.0,1.0,12.0,,,,,,,,,5f467b8d74eeef0365ffb26e,15:49:35,26/03/2024
,,,delaylearn,test,isi,kOQt9bBZ04NJ8LMjzNzE8gOCad02,html-keyboard-response,22,60378,0.0-5.0-1.4,,,,,,,,,,,,,,,,,,,,5f467b8d74eeef0365ffb26e,15:49:35,26/03/2024
1749.8999999761581,"<div class=""center_prompt"" style=""font-family: Helvetica; font-weight: light; font-size: 48px; text-anchor: middle; color: white; opacity: 1;"">Confidence</div><br><br><br><br><div class=""center_prompt2"" style=""font-family: Helvetica; font-weight: light; font-size: 48px; text-anchor: middle; color: white; opacity: 1;"">Guess (1) –––– Low (2)  –––– Medium (3) –––– High (4)</div>",3,delaylearn,test,memory_choice_confidence,kOQt9bBZ04NJ8LMjzNzE8gOCad02,html-keyboard-response,23,62129,0.0-5.0-2.4,kOQt9bBZ04NJ8LMjzNzE8gOCad02,2.0,,,,,,,,,,3,,,,,,,,5f467b8d74eeef0365ffb26e,15:49:35,26/03/2024
,"<div style=""font-size:100px;"">+</div>",,delaylearn,test,pre_fixation,kOQt9bBZ04NJ8LMjzNzE8gOCad02,html-keyboard-response,24,65132,0.0-5.0-3.4,,,,,,,,,,,,,,,,,,,,5f467b8d74eeef0365ffb26e,15:49:35,26/03/2024
2340.300000011921,"<div style=""display: flex; flex-direction: column; align-items: center; margin-top: -40px;""><div style=""display: flex; justify-content: space-between; margin-top: 33px;""><img src=""images/choice_trial_10.png"" style=""width: 408px; height: 417px; margin-right: 200px;""><img src=""images/choice_trial_3.png"" style=""width: 408px; height: 417px;""></div></div><br><br><br><br>",j,delaylearn,test,memory_choice,kOQt9bBZ04NJ8LMjzNzE8gOCad02,html-keyboard-response,25,67474,0.0-5.0-0.5,kOQt9bBZ04NJ8LMjzNzE8gOCad02,2.0,10.0,3.0,images/choice_trial_10.png,images/choice_trial_3.png,1.0,1.0,1.0,1.0,3.0,,,,,,,,,5f467b8d74eeef0365ffb26e,15:49:35,26/03/2024
,,,delaylearn,test,isi,kOQt9bBZ04NJ8LMjzNzE8gOCad02,html-keyboard-response,26,67728,0.0-5.0-1.5,,,,,,,,,,,,,,,,,,,,5f467b8d74eeef0365ffb26e,15:49:35,26/03/2024
979.8999999761581,"<div class=""center_prompt"" style=""font-family: Helvetica; font-weight: light; font-size: 48px; text-anchor: middle; color: white; opacity: 1;"">Confidence</div><br><br><br><br><div class=""center_prompt2"" style=""font-family: Helvetica; font-weight: light; font-size: 48px; text-anchor: middle; color: white; opacity: 1;"">Guess (1) –––– Low (2)  –––– Medium (3) –––– High (4)</div>",1,delaylearn,test,memory_choice_confidence,kOQt9bBZ04NJ8LMjzNzE8gOCad02,html-keyboard-response,27,68709,0.0-5.0-2.5,kOQt9bBZ04NJ8LMjzNzE8gOCad02,2.0,,,,,,,,,,1,,,,,,,,5f467b8d74eeef0365ffb26e,15:49:35,26/03/2024
,"<div style=""font-size:100px;"">+</div>",,delaylearn,test,pre_fixation,kOQt9bBZ04NJ8LMjzNzE8gOCad02,html-keyboard-response,28,71711,0.0-5.0-3.5,,,,,,,,,,,,,,,,,,,,5f467b8d74eeef0365ffb26e,15:49:35,26/03/2024
1996.699999988079,"<div style=""display: flex; flex-direction: column; align-items: center; margin-top: -40px;""><div style=""display: flex; justify-content: space-between; margin-top: 33px;""><img src=""images/choice_trial_5.png"" style=""width: 408px; height: 417px; margin-right: 200px;""><img src=""images/choice_trial_2.png"" style=""width: 408px; height: 417px;""></div></div><br><br><br><br>",f,delaylearn,test,memory_choice,kOQt9bBZ04NJ8LMjzNzE8gOCad02,html-keyboard-response,29,73710,0.0-5.0-0.6,kOQt9bBZ04NJ8LMjzNzE8gOCad02,2.0,5.0,2.0,images/choice_trial_5.png,images/choice_trial_2.png,1.0,45.0,0.0,0.0,5.0,,,,,,,,,5f467b8d74eeef0365ffb26e,15:49:35,26/03/2024
,,,delaylearn,test,isi,kOQt9bBZ04NJ8LMjzNzE8gOCad02,html-keyboard-response,30,73963,0.0-5.0-1.6,,,,,,,,,,,,,,,,,,,,5f467b8d74eeef0365ffb26e,15:49:35,26/03/2024
593.3000000119209,"<div class=""center_prompt"" style=""font-family: Helvetica; font-weight: light; font-size: 48px; text-anchor: middle; color: white; opacity: 1;"">Confidence</div><br><br><br><br><div class=""center_prompt2"" style=""font-family: Helvetica; font-weight: light; font-size: 48px; text-anchor: middle; color: white; opacity: 1;"">Guess (1) –––– Low (2)  –––– Medium (3) –––– High (4)</div>",2,delaylearn,test,memory_choice_confidence,kOQt9bBZ04NJ8LMjzNzE8gOCad02,html-keyboard-response,31,74558,0.0-5.0-2.6,kOQt9bBZ04NJ8LMjzNzE8gOCad02,2.0,,,,,,,,,,2,,,,,,,,5f467b8d74eeef0365ffb26e,15:49:35,26/03/2024
,"<div style=""font-size:100px;"">+</div>",,delaylearn,test,pre_fixation,kOQt9bBZ04NJ8LMjzNzE8gOCad02,html-keyboard-response,32,77560,0.0-5.0-3.6,,,,,,,,,,,,,,,,,,,,5f467b8d74eeef0365ffb26e,15:49:35,26/03/2024
1667.5,"<div style=""display: flex; flex-direction: column; align-items: center; margin-top: -40px;""><div style=""display: flex; justify-content: space-between; margin-top: 33px;""><img src=""images/choice_trial_3.png"" style=""width: 408px; height: 417px; margin-right: 200px;""><img src=""images/choice_trial_14.png"" style=""width: 408px; height: 417px;""></div></div><br><br><br><br>",f,delaylearn,test,memory_choice,kOQt9bBZ04NJ8LMjzNzE8gOCad02,html-keyboard-response,33,79230,0.0-5.0-0.7,kOQt9bBZ04NJ8LMjzNzE8gOCad02,2.0,3.0,14.0,images/choice_trial_3.png,images/choice_trial_14.png,0.0,12.0,1.0,1.0,3.0,,,,,,,,,5f467b8d74eeef0365ffb26e,15:49:35,26/03/2024
,,,delaylearn,test,isi,kOQt9bBZ04NJ8LMjzNzE8gOCad02,html-keyboard-response,34,79483,0.0-5.0-1.7,,,,,,,,,,,,,,,,,,,,5f467b8d74eeef0365ffb26e,15:49:35,26/03/2024
802.2999999523163,"<div class=""center_prompt"" style=""font-family: Helvetica; font-weight: light; font-size: 48px; text-anchor: middle; color: white; opacity: 1;"">Confidence</div><br><br><br><br><div class=""center_prompt2"" style=""font-family: Helvetica; font-weight: light; font-size: 48px; text-anchor: middle; color: white; opacity: 1;"">Guess (1) –––– Low (2)  –––– Medium (3) –––– High (4)</div>",4,delaylearn,test,memory_choice_confidence,kOQt9bBZ04NJ8LMjzNzE8gOCad02,html-keyboard-response,35,80286,0.0-5.0-2.7,kOQt9bBZ04NJ8LMjzNzE8gOCad02,2.0,,,,,,,,,,4,,,,,,,,5f467b8d74eeef0365ffb26e,15:49:35,26/03/2024
,"<div style=""font-size:100px;"">+</div>",,delaylearn,test,pre_fixation,kOQt9bBZ04NJ8LMjzNzE8gOCad02,html-keyboard-response,36,83288,0.0-5.0-3.7,,,,,,,,,,,,,,,,,,,,5f467b8d74eeef0365ffb26e,15:49:35,26/03/2024
1141.2999999523163,"<div style=""display: flex; flex-direction: column; align-items: center; margin-top: -40px;""><div style=""display: flex; justify-content: space-between; margin-top: 33px;""><img src=""images/choice_trial_16.png"" style=""width: 408px; height: 417px; margin-right: 200px;""><img src=""images/choice_trial_12.png"" style=""width: 408px; height: 417px;""></div></div><br><br><br><br>",j,delaylearn,test,memory_choice,kOQt9bBZ04NJ8LMjzNzE8gOCad02,html-keyboard-response,37,84431,0.0-5.0-0.8,kOQt9bBZ04NJ8LMjzNzE8gOCad02,2.0,16.0,12.0,images/choice_trial_16.png,images/choice_trial_12.png,1.0,23.0,1.0,1.0,12.0,,,,,,,,,5f467b8d74eeef0365ffb26e,15:49:35,26/03/2024
,,,delaylearn,test,isi,kOQt9bBZ04NJ8LMjzNzE8gOCad02,html-keyboard-response,38,84684,0.0-5.0-1.8,,,,,,,,,,,,,,,,,,,,5f467b8d74eeef0365ffb26e,15:49:35,26/03/2024
570.1999999880791,"<div class=""center_prompt"" style=""font-family: Helvetica; font-weight: light; font-size: 48px; text-anchor: middle; color: white; opacity: 1;"">Confidence</div><br><br><br><br><div class=""center_prompt2"" style=""font-family: Helvetica; font-weight: light; font-size: 48px; text-anchor: middle; color: white; opacity: 1;"">Guess (1) –––– Low (2)  –––– Medium (3) –––– High (4)</div>",4,delaylearn,test,memory_choice_confidence,kOQt9bBZ04NJ8LMjzNzE8gOCad02,html-keyboard-response,39,85255,0.0-5.0-2.8,kOQt9bBZ04NJ8LMjzNzE8gOCad02,2.0,,,,,,,,,,4,,,,,,,,5f467b8d74eeef0365ffb26e,15:49:35,26/03/2024
,"<div style=""font-size:100px;"">+</div>",,delaylearn,test,pre_fixation,kOQt9bBZ04NJ8LMjzNzE8gOCad02,html-keyboard-response,40,88256,0.0-5.0-3.8,,,,,,,,,,,,,,,,,,,,5f467b8d74eeef0365ffb26e,15:49:35,26/03/2024
2399.199999988079,"<div style=""display: flex; flex-direction: column; align-items: center; margin-top: -40px;""><div style=""display: flex; justify-content: space-between; margin-top: 33px;""><img src=""images/choice_trial_11.png"" style=""width: 408px; height: 417px; margin-right: 200px;""><img src=""images/choice_trial_15.png"" style=""width: 408px; height: 417px;""></div></div><br><br><br><br>",j,delaylearn,test,memory_choice,kOQt9bBZ04NJ8LMjzNzE8gOCad02,html-keyboard-response,41,90658,0.0-5.0-0.9,kOQt9bBZ04NJ8LMjzNzE8gOCad02,2.0,11.0,15.0,images/choice_trial_11.png,images/choice_trial_15.png,0.0,56.0,0.0,0.0,15.0,,,,,,,,,5f467b8d74eeef0365ffb26e,15:49:35,26/03/2024
,,,delaylearn,test,isi,kOQt9bBZ04NJ8LMjzNzE8gOCad02,html-keyboard-response,42,90909,0.0-5.0-1.9,,,,,,,,,,,,,,,,,,,,5f467b8d74eeef0365ffb26e,15:49:35,26/03/2024
456.9000000357628,"<div class=""center_prompt"" style=""font-family: Helvetica; font-weight: light; font-size: 48px; text-anchor: middle; color: white; opacity: 1;"">Confidence</div><br><br><br><br><div class=""center_prompt2"" style=""font-family: Helvetica; font-weight: light; font-size: 48px; text-anchor: middle; color: white; opacity: 1;"">Guess (1) –––– Low (2)  –––– Medium (3) –––– High (4)</div>",1,delaylearn,test,memory_choice_confidence,kOQt9bBZ04NJ8LMjzNzE8gOCad02,html-keyboard-response,43,91367,0.0-5.0-2.9,kOQt9bBZ04NJ8LMjzNzE8gOCad02,2.0,,,,,,,,,,1,,,,,,,,5f467b8d74eeef0365ffb26e,15:49:35,26/03/2024
,"<div style=""font-size:100px;"">+</div>",,delaylearn,test,pre_fixation,kOQt9bBZ04NJ8LMjzNzE8gOCad02,html-keyboard-response,44,94369,0.0-5.0-3.9,,,,,,,,,,,,,,,,,,,,5f467b8d74eeef0365ffb26e,15:49:35,26/03/2024
2244.7999999523163,"<div style=""display: flex; flex-direction: column; align-items: center; margin-top: -40px;""><div style=""display: flex; justify-content: space-between; margin-top: 33px;""><img src=""images/choice_trial_4.png"" style=""width: 408px; height: 417px; margin-right: 200px;""><img src=""images/choice_trial_10.png"" style=""width: 408px; height: 417px;""></div></div><br><br><br><br>",f,delaylearn,test,memory_choice,kOQt9bBZ04NJ8LMjzNzE8gOCad02,html-keyboard-response,45,96616,0.0-5.0-0.10,kOQt9bBZ04NJ8LMjzNzE8gOCad02,2.0,4.0,10.0,images/choice_trial_4.png,images/choice_trial_10.png,0.0,31.0,1.0,1.0,4.0,,,,,,,,,5f467b8d74eeef0365ffb26e,15:49:35,26/03/2024
,,,delaylearn,test,isi,kOQt9bBZ04NJ8LMjzNzE8gOCad02,html-keyboard-response,46,96869,0.0-5.0-1.10,,,,,,,,,,,,,,,,,,,,5f467b8d74eeef0365ffb26e,15:49:35,26/03/2024
1627.5,"<div class=""center_prompt"" style=""font-family: Helvetica; font-weight: light; font-size: 48px; text-anchor: middle; color: white; opacity: 1;"">Confidence</div><br><br><br><br><div class=""center_prompt2"" style=""font-family: Helvetica; font-weight: light; font-size: 48px; text-anchor: middle; color: white; opacity: 1;"">Guess (1) –––– Low (2)  –––– Medium (3) –––– High (4)</div>",2,delaylearn,test,memory_choice_confidence,kOQt9bBZ04NJ8LMjzNzE8gOCad02,html-keyboard-response,47,98498,0.0-5.0-2.10,kOQt9bBZ04NJ8LMjzNzE8gOCad02,2.0,,,,,,,,,,2,,,,,,,,5f467b8d74eeef0365ffb26e,15:49:35,26/03/2024
,"<div style=""font-size:100px;"">+</div>",,delaylearn,test,pre_fixation,kOQt9bBZ04NJ8LMjzNzE8gOCad02,html-keyboard-response,48,101501,0.0-5.0-3.10,,,,,,,,,,,,,,,,,,,,5f467b8d74eeef0365ffb26e,15:49:35,26/03/2024
1560.199999988079,"<div style=""display: flex; flex-direction: column; align-items: center; margin-top: -40px;""><div style=""display: flex; justify-content: space-between; margin-top: 33px;""><img src=""images/choice_trial_9.png"" style=""width: 408px; height: 417px; margin-right: 200px;""><img src=""images/choice_trial_8.png"" style=""width: 408px; height: 417px;""></div></div><br><br><br><br>",j,delaylearn,test,memory_choice,kOQt9bBZ04NJ8LMjzNzE8gOCad02,html-keyboard-response,49,103064,0.0-5.0-0.11,kOQt9bBZ04NJ8LMjzNzE8gOCad02,2.0,9.0,8.0,images/choice_trial_9.png,images/choice_trial_8.png,1.0,64.0,0.0,1.0,8.0,,,,,,,,,5f467b8d74eeef0365ffb26e,15:49:35,26/03/2024
,,,delaylearn,test,isi,kOQt9bBZ04NJ8LMjzNzE8gOCad02,html-keyboard-response,50,103317,0.0-5.0-1.11,,,,,,,,,,,,,,,,,,,,5f467b8d74eeef0365ffb26e,15:49:35,26/03/2024
840.0,"<div class=""center_prompt"" style=""font-family: Helvetica; font-weight: light; font-size: 48px; text-anchor: middle; color: white; opacity: 1;"">Confidence</div><br><br><br><br><div class=""center_prompt2"" style=""font-family: Helvetica; font-weight: light; font-size: 48px; text-anchor: middle; color: white; opacity: 1;"">Guess (1) –––– Low (2)  –––– Medium (3) –––– High (4)</div>",3,delaylearn,test,memory_choice_confidence,kOQt9bBZ04NJ8LMjzNzE8gOCad02,html-keyboard-response,51,104159,0.0-5.0-2.11,kOQt9bBZ04NJ8LMjzNzE8gOCad02,2.0,,,,,,,,,,3,,,,,,,,5f467b8d74eeef0365ffb26e,15:49:35,26/03/2024
,"<div style=""font-size:100px;"">+</div>",,delaylearn,test,pre_fixation,kOQt9bBZ04NJ8LMjzNzE8gOCad02,html-keyboard-response,52,107161,0.0-5.0-3.11,,,,,,,,,,,,,,,,,,,,5f467b8d74eeef0365ffb26e,15:49:35,26/03/2024
,"<div style=""font-size:100px;"">+</div>",,delaylearn,test,pre_fixation,kOQt9bBZ04NJ8LMjzNzE8gOCad02,html-keyboard-response,53,110164,0.0-6.0,,,,,,,,,,,,,,,,,,,,5f467b8d74eeef0365ffb26e,15:49:35,26/03/2024
5705.0,11,0.13333333333333333,delaylearn,test,memory_rating,kOQt9bBZ04NJ8LMjzNzE8gOCad02,option-scale-rating,56,135504,0.0-9.0,kOQt9bBZ04NJ8LMjzNzE8gOCad02,2.0,,,,,,6.0,0.0,,,,0.77,What percent of the time did you win when choosing this option?,focus,11.0,,,,5f467b8d74eeef0365ffb26e,15:49:35,26/03/2024
4208.0,14,0.014814814814814815,delaylearn,test,memory_rating,kOQt9bBZ04NJ8LMjzNzE8gOCad02,option-scale-rating,57,142716,0.0-10.0,kOQt9bBZ04NJ8LMjzNzE8gOCad02,2.0,,,,,,3.0,1.0,,,,0.23,What percent of the time did you win when choosing this option?,focus,14.0,,,,5f467b8d74eeef0365ffb26e,15:49:35,26/03/2024
5237.0,12,0.975925925925926,delaylearn,test,memory_rating,kOQt9bBZ04NJ8LMjzNzE8gOCad02,option-scale-rating,58,150960,0.0-11.0,kOQt9bBZ04NJ8LMjzNzE8gOCad02,2.0,,,,,,3.0,1.0,,,,0.77,What percent of the time did you win when choosing this option?,focus,12.0,,,,5f467b8d74eeef0365ffb26e,15:49:35,26/03/2024
3907.0,8,0.4888888888888889,delaylearn,test,memory_rating,kOQt9bBZ04NJ8LMjzNzE8gOCad02,option-scale-rating,59,157872,0.0-12.0,kOQt9bBZ04NJ8LMjzNzE8gOCad02,2.0,,,,,,7.0,0.0,,,,0.77,What percent of the time did you win when choosing this option?,focus,8.0,,,,5f467b8d74eeef0365ffb26e,15:49:35,26/03/2024
4904.0,9,0.005555555555555556,delaylearn,test,memory_rating,kOQt9bBZ04NJ8LMjzNzE8gOCad02,option-scale-rating,60,165782,0.0-13.0,kOQt9bBZ04NJ8LMjzNzE8gOCad02,2.0,,,,,,5.0,0.0,,,,0.23,What percent of the time did you win when choosing this option?,focus,9.0,,,,5f467b8d74eeef0365ffb26e,15:49:35,26/03/2024
2973.0,4,0.6333333333333333,delaylearn,test,memory_rating,kOQt9bBZ04NJ8LMjzNzE8gOCad02,option-scale-rating,61,171760,0.0-14.0,kOQt9bBZ04NJ8LMjzNzE8gOCad02,2.0,,,,,,4.0,1.0,,,,0.77,What percent of the time did you win when choosing this option?,focus,4.0,,,,5f467b8d74eeef0365ffb26e,15:49:35,26/03/2024
3802.0,15,0.009259259259259259,delaylearn,test,memory_rating,kOQt9bBZ04NJ8LMjzNzE8gOCad02,option-scale-rating,62,178568,0.0-15.0,kOQt9bBZ04NJ8LMjzNzE8gOCad02,2.0,,,,,,7.0,0.0,,,,0.23,What percent of the time did you win when choosing this option?,focus,15.0,,,,5f467b8d74eeef0365ffb26e,15:49:35,26/03/2024
3537.0,16,0.14814814814814814,delaylearn,test,memory_rating,kOQt9bBZ04NJ8LMjzNzE8gOCad02,option-scale-rating,63,185110,0.0-16.0,kOQt9bBZ04NJ8LMjzNzE8gOCad02,2.0,,,,,,4.0,1.0,,,,0.23,What percent of the time did you win when choosing this option?,focus,16.0,,,,5f467b8d74eeef0365ffb26e,15:49:35,26/03/2024
3137.0,5,0.5055555555555555,delaylearn,test,memory_rating,kOQt9bBZ04NJ8LMjzNzE8gOCad02,option-scale-rating,64,191253,0.0-17.0,kOQt9bBZ04NJ8LMjzNzE8gOCad02,2.0,,,,,,6.0,0.0,,,,0.23,What percent of the time did you win when choosing this option?,focus,5.0,,,,5f467b8d74eeef0365ffb26e,15:49:35,26/03/2024
2828.0,3,0.7333333333333333,delaylearn,test,memory_rating,kOQt9bBZ04NJ8LMjzNzE8gOCad02,option-scale-rating,65,197087,0.0-18.0,kOQt9bBZ04NJ8LMjzNzE8gOCad02,2.0,,,,,,1.0,1.0,,,,0.77,What percent of the time did you win when choosing this option?,focus,3.0,,,,5f467b8d74eeef0365ffb26e,15:49:35,26/03/2024
5992.0,10,0.6074074074074074,delaylearn,test,memory_rating,kOQt9bBZ04NJ8LMjzNzE8gOCad02,option-scale-rating,66,206085,0.0-19.0,kOQt9bBZ04NJ8LMjzNzE8gOCad02,2.0,,,,,,1.0,1.0,,,,0.23,What percent of the time did you win when choosing this option?,focus,10.0,,,,5f467b8d74eeef0365ffb26e,15:49:35,26/03/2024
3654.0,2,0.009259259259259259,delaylearn,test,memory_rating,kOQt9bBZ04NJ8LMjzNzE8gOCad02,option-scale-rating,67,212744,0.0-20.0,kOQt9bBZ04NJ8LMjzNzE8gOCad02,2.0,,,,,,5.0,0.0,,,,0.77,What percent of the time did you win when choosing this option?,focus,2.0,,,,5f467b8d74eeef0365ffb26e,15:49:35,26/03/2024
,"<div style=""font-size:100px;"">+</div>",,delaylearn,test,pre_fixation,kOQt9bBZ04NJ8LMjzNzE8gOCad02,html-keyboard-response,68,215748,0.0-21.0,,,,,,,,,,,,,,,,,,,,5f467b8d74eeef0365ffb26e,15:49:35,26/03/2024
,"<div style=""font-size:100px;"">+</div>",,delaylearn,test,pre_fixation,kOQt9bBZ04NJ8LMjzNzE8gOCad02,html-keyboard-response,72,239873,0.0-25.0,,,,,,,,,,,,,,,,,,,,5f467b8d74eeef0365ffb26e,15:49:35,26/03/2024
4322.5,"<div style=""display: flex; flex-direction: column; align-items: center; margin-top: -40px;""><div style=""display: flex; justify-content: space-between; margin-top: 33px;""><img src=""images/choice_trial_10.png"" style=""width: 408px; height: 417px; margin-right: 200px;""><img src=""images/choice_trial_3.png"" style=""width: 408px; height: 417px;""></div></div><br>",arrowup,delaylearn,test,memory_time,kOQt9bBZ04NJ8LMjzNzE8gOCad02,html-keyboard-response,73,244199,0.0-26.0-0.0,kOQt9bBZ04NJ8LMjzNzE8gOCad02,2.0,,,,,1.0,1.0,1.0,0.0,,,,,,,10.0,3.0,0.0,5f467b8d74eeef0365ffb26e,15:49:35,26/03/2024
,"<div style=""font-size:100px;"">+</div>",,delaylearn,test,pre_fixation,kOQt9bBZ04NJ8LMjzNzE8gOCad02,html-keyboard-response,74,247202,0.0-26.0-1.0,,,,,,,,,,,,,,,,,,,,5f467b8d74eeef0365ffb26e,15:49:35,26/03/2024
3125.300000011921,"<div style=""display: flex; flex-direction: column; align-items: center; margin-top: -40px;""><div style=""display: flex; justify-content: space-between; margin-top: 33px;""><img src=""images/choice_trial_9.png"" style=""width: 408px; height: 417px; margin-right: 200px;""><img src=""images/choice_trial_2.png"" style=""width: 408px; height: 417px;""></div></div><br>",arrowup,delaylearn,test,memory_time,kOQt9bBZ04NJ8LMjzNzE8gOCad02,html-keyboard-response,75,250330,0.0-26.0-0.1,kOQt9bBZ04NJ8LMjzNzE8gOCad02,2.0,,,,,1.0,5.0,0.0,1.0,,,,,,,9.0,2.0,0.0,5f467b8d74eeef0365ffb26e,15:49:35,26/03/2024
,"<div style=""font-size:100px;"">+</div>",,delaylearn,test,pre_fixation,kOQt9bBZ04NJ8LMjzNzE8gOCad02,html-keyboard-response,76,253333,0.0-26.0-1.1,,,,,,,,,,,,,,,,,,,,5f467b8d74eeef0365ffb26e,15:49:35,26/03/2024
2149.0,"<div style=""display: flex; flex-direction: column; align-items: center; margin-top: -40px;""><div style=""display: flex; justify-content: space-between; margin-top: 33px;""><img src=""images/choice_trial_12.png"" style=""width: 408px; height: 417px; margin-right: 200px;""><img src=""images/choice_trial_14.png"" style=""width: 408px; height: 417px;""></div></div><br>",arrowup,delaylearn,test,memory_time,kOQt9bBZ04NJ8LMjzNzE8gOCad02,html-keyboard-response,77,255484,0.0-26.0-0.2,kOQt9bBZ04NJ8LMjzNzE8gOCad02,2.0,,,,,1.0,3.0,1.0,0.0,,,,,,,12.0,14.0,0.0,5f467b8d74eeef0365ffb26e,15:49:35,26/03/2024
,"<div style=""font-size:100px;"">+</div>",,delaylearn,test,pre_fixation,kOQt9bBZ04NJ8LMjzNzE8gOCad02,html-keyboard-response,78,258487,0.0-26.0-1.2,,,,,,,,,,,,,,,,,,,,5f467b8d74eeef0365ffb26e,15:49:35,26/03/2024
1127.6000000238419,"<div style=""display: flex; flex-direction: column; align-items: center; margin-top: -40px;""><div style=""display: flex; justify-content: space-between; margin-top: 33px;""><img src=""images/choice_trial_11.png"" style=""width: 408px; height: 417px; margin-right: 200px;""><img src=""images/choice_trial_5.png"" style=""width: 408px; height: 417px;""></div></div><br>",arrowdown,delaylearn,test,memory_time,kOQt9bBZ04NJ8LMjzNzE8gOCad02,html-keyboard-response,79,259617,0.0-26.0-0.3,kOQt9bBZ04NJ8LMjzNzE8gOCad02,2.0,,,,,0.0,6.0,0.0,0.0,,,,,,,5.0,11.0,1.0,5f467b8d74eeef0365ffb26e,15:49:35,26/03/2024
,"<div style=""font-size:100px;"">+</div>",,delaylearn,test,pre_fixation,kOQt9bBZ04NJ8LMjzNzE8gOCad02,html-keyboard-response,80,262620,0.0-26.0-1.3,,,,,,,,,,,,,,,,,,,,5f467b8d74eeef0365ffb26e,15:49:35,26/03/2024
2236.5,"<div style=""display: flex; flex-direction: column; align-items: center; margin-top: -40px;""><div style=""display: flex; justify-content: space-between; margin-top: 33px;""><img src=""images/choice_trial_15.png"" style=""width: 408px; height: 417px; margin-right: 200px;""><img src=""images/choice_trial_8.png"" style=""width: 408px; height: 417px;""></div></div><br>",arrowdown,delaylearn,test,memory_time,kOQt9bBZ04NJ8LMjzNzE8gOCad02,html-keyboard-response,81,264859,0.0-26.0-0.4,kOQt9bBZ04NJ8LMjzNzE8gOCad02,2.0,,,,,1.0,7.0,0.0,0.0,,,,,,,8.0,15.0,1.0,5f467b8d74eeef0365ffb26e,15:49:35,26/03/2024
,"<div style=""font-size:100px;"">+</div>",,delaylearn,test,pre_fixation,kOQt9bBZ04NJ8LMjzNzE8gOCad02,html-keyboard-response,82,267862,0.0-26.0-1.4,,,,,,,,,,,,,,,,,,,,5f467b8d74eeef0365ffb26e,15:49:35,26/03/2024
2348.300000011921,"<div style=""display: flex; flex-direction: column; align-items: center; margin-top: -40px;""><div style=""display: flex; justify-content: space-between; margin-top: 33px;""><img src=""images/choice_trial_4.png"" style=""width: 408px; height: 417px; margin-right: 200px;""><img src=""images/choice_trial_16.png"" style=""width: 408px; height: 417px;""></div></div><br>",arrowdown,delaylearn,test,memory_time,kOQt9bBZ04NJ8LMjzNzE8gOCad02,html-keyboard-response,83,270213,0.0-26.0-0.5,kOQt9bBZ04NJ8LMjzNzE8gOCad02,2.0,,,,,0.0,4.0,1.0,1.0,,,,,,,16.0,4.0,1.0,5f467b8d74eeef0365ffb26e,15:49:35,26/03/2024
