trial_type,trial_index,time_elapsed,internal_node_id,rt,stimulus,response,exp_name,exp_stage,test_part,subjectID,databaseID,counterbal,choice_stimuli_1,choice_stimuli_2,pattern_stimuli,rewarded_answer,correct_answer,feedback_duration_times,stim_left,stim_right,pair,leftright_counter,trial,response_correct,response_rewarded,chosen_stim,counter,displayed_choice,feedback_durations,ITI_duration,labels,rest_warning,prolificID,start_time,date
pavlovia,0,663,0.0-0.0,,,,,,,67MAcrKZBwTYp4DQZmaXqO1QqPA3,,,,,,,,,,,,,,,,,,,,,,,59e7232f24d7bf00012f112e,09:10:10,27/02/2024
html-keyboard-response,1,3671,0.0-1.0,,"<div style=""font-size:100px;"">+</div>",,delaylearn,learning,pre_fixation,67MAcrKZBwTYp4DQZmaXqO1QqPA3,,,,,,,,,,,,,,,,,,,,,,,59e7232f24d7bf00012f112e,09:10:10,27/02/2024
html-keyboard-response,2,4508,0.0-2.0-0.0,836.2000000029802,"<div style=""display: flex; flex-direction: column; align-items: center; margin-top: -40px;""><img src=""images/demo_images/pattern_1.png"" style=""width: 234px; height: 230px; margin-top: -50px;""><div style=""display: flex; justify-content: space-between; margin-top: 33px;""><img src=""images/demo_images/choice_trial_2.png"" style=""width: 408px; height: 417px; margin-right: 200px;""><img src=""images/demo_images/choice_trial_1.png"" style=""width: 408px; height: 417px;""></div></div>",j,delaylearn,learning,trial,67MAcrKZBwTYp4DQZmaXqO1QqPA3,67MAcrKZBwTYp4DQZmaXqO1QqPA3,2.0,images/demo_images/choice_trial_2.png,images/demo_images/choice_trial_1.png,images/demo_images/pattern_1.png,j,j,3000.0,2.0,1.0,20.0,1.0,1.0,1.0,1.0,1.0,10.0,,,,,,59e7232f24d7bf00012f112e,09:10:10,27/02/2024
html-keyboard-response,3,5516,0.0-2.0-1.0,,"<div style=""display: flex; flex-direction: column; align-items: center; margin-top: -40px;""><img src=""images/demo_images/pattern_1.png"" style=""width: 234px; height: 230px; margin-top: -50px;""><div style=""display: flex; justify-content: space-between; margin-top: 33px;""><img src=""images/demo_images/choice_trial_1.png"" style=""width: 408px; height: 417px; margin-left:608px;""></div></div>",,delaylearn,learning,display_response,67MAcrKZBwTYp4DQZmaXqO1QqPA3,67MAcrKZBwTYp4DQZmaXqO1QqPA3,,,,,,,,,,,,,,,,,chosen stimuli: images/demo_images/choice_trial_1.png,,,,,59e7232f24d7bf00012f112e,09:10:10,27/02/2024
html-keyboard-response,4,8526,0.0-2.0-2.0,,,,delaylearn,learning,feedback_duration_window,67MAcrKZBwTYp4DQZmaXqO1QqPA3,67MAcrKZBwTYp4DQZmaXqO1QqPA3,,,,,,,,,,,,,,,,,,3000.0,,,,59e7232f24d7bf00012f112e,09:10:10,27/02/2024
html-keyboard-response,5,10029,0.0-2.0-3.0,,<div style='margin:auto;width: auto; font-size: 150%'><span style='font-weight: bold; font-size: 100px; color: green;'>+10 points!</span><br><br></div>,,delaylearn,learning,feedback_image_window,67MAcrKZBwTYp4DQZmaXqO1QqPA3,67MAcrKZBwTYp4DQZmaXqO1QqPA3,,,,,,,,,,,,,,,,,,,,,,59e7232f24d7bf00012f112e,09:10:10,27/02/2024
html-keyboard-response,6,11967,0.0-3.0,,"<div style=""font-size:100px;"">+</div>",,delaylearn,learning,ITI,67MAcrKZBwTYp4DQZmaXqO1QqPA3,67MAcrKZBwTYp4DQZmaXqO1QqPA3,,,,,,,,,,,,,,,,,,,1924.0,,,59e7232f24d7bf00012f112e,09:10:10,27/02/2024
html-keyboard-response,7,12979,0.0-4.0-0.0,1010.1000000089407,"<div style=""display: flex; flex-direction: column; align-items: center; margin-top: -40px;""><img src=""images/demo_images/pattern_1.png"" style=""width: 234px; height: 230px; margin-top: -50px;""><div style=""display: flex; justify-content: space-between; margin-top: 33px;""><img src=""images/demo_images/choice_trial_2.png"" style=""width: 408px; height: 417px; margin-right: 200px;""><img src=""images/demo_images/choice_trial_1.png"" style=""width: 408px; height: 417px;""></div></div>",j,delaylearn,learning,trial,67MAcrKZBwTYp4DQZmaXqO1QqPA3,67MAcrKZBwTYp4DQZmaXqO1QqPA3,2.0,images/demo_images/choice_trial_2.png,images/demo_images/choice_trial_1.png,images/demo_images/pattern_1.png,j,j,3000.0,2.0,1.0,20.0,1.0,2.0,1.0,1.0,1.0,20.0,,,,,,59e7232f24d7bf00012f112e,09:10:10,27/02/2024
html-keyboard-response,8,13995,0.0-4.0-1.0,,"<div style=""display: flex; flex-direction: column; align-items: center; margin-top: -40px;""><img src=""images/demo_images/pattern_1.png"" style=""width: 234px; height: 230px; margin-top: -50px;""><div style=""display: flex; justify-content: space-between; margin-top: 33px;""><img src=""images/demo_images/choice_trial_1.png"" style=""width: 408px; height: 417px; margin-left:608px;""></div></div>",,delaylearn,learning,display_response,67MAcrKZBwTYp4DQZmaXqO1QqPA3,67MAcrKZBwTYp4DQZmaXqO1QqPA3,,,,,,,,,,,,,,,,,chosen stimuli: images/demo_images/choice_trial_1.png,,,,,59e7232f24d7bf00012f112e,09:10:10,27/02/2024
html-keyboard-response,9,17000,0.0-4.0-2.0,,,,delaylearn,learning,feedback_duration_window,67MAcrKZBwTYp4DQZmaXqO1QqPA3,67MAcrKZBwTYp4DQZmaXqO1QqPA3,,,,,,,,,,,,,,,,,,3000.0,,,,59e7232f24d7bf00012f112e,09:10:10,27/02/2024
html-keyboard-response,10,18508,0.0-4.0-3.0,,<div style='margin:auto;width: auto; font-size: 150%'><span style='font-weight: bold; font-size: 100px; color: green;'>+10 points!</span><br><br></div>,,delaylearn,learning,feedback_image_window,67MAcrKZBwTYp4DQZmaXqO1QqPA3,67MAcrKZBwTYp4DQZmaXqO1QqPA3,,,,,,,,,,,,,,,,,,,,,,59e7232f24d7bf00012f112e,09:10:10,27/02/2024
html-keyboard-response,11,20266,0.0-5.0,,"<div style=""font-size:100px;"">+</div>",,delaylearn,learning,ITI,67MAcrKZBwTYp4DQZmaXqO1QqPA3,67MAcrKZBwTYp4DQZmaXqO1QqPA3,,,,,,,,,,,,,,,,,,,1755.0,,,59e7232f24d7bf00012f112e,09:10:10,27/02/2024
html-keyboard-response,12,21068,0.0-6.0-0.0,800.7999999970198,"<div style=""display: flex; flex-direction: column; align-items: center; margin-top: -40px;""><img src=""images/demo_images/pattern_1.png"" style=""width: 234px; height: 230px; margin-top: -50px;""><div style=""display: flex; justify-content: space-between; margin-top: 33px;""><img src=""images/demo_images/choice_trial_1.png"" style=""width: 408px; height: 417px; margin-right: 200px;""><img src=""images/demo_images/choice_trial_2.png"" style=""width: 408px; height: 417px;""></div></div>",f,delaylearn,learning,trial,67MAcrKZBwTYp4DQZmaXqO1QqPA3,67MAcrKZBwTYp4DQZmaXqO1QqPA3,2.0,images/demo_images/choice_trial_1.png,images/demo_images/choice_trial_2.png,images/demo_images/pattern_1.png,j,f,3000.0,1.0,2.0,20.0,0.0,3.0,1.0,0.0,1.0,20.0,,,,,,59e7232f24d7bf00012f112e,09:10:10,27/02/2024
html-keyboard-response,13,22077,0.0-6.0-1.0,,"<div style=""display: flex; flex-direction: column; align-items: center; margin-top: -40px;""><img src=""images/demo_images/pattern_1.png"" style=""width: 234px; height: 230px; margin-top: -50px;""><div style=""display: flex; justify-content: space-between; margin-top: 33px;""><img src=""images/demo_images/choice_trial_1.png"" style=""width: 408px; height: 417px; margin-right: 608px;""></div></div>",,delaylearn,learning,display_response,67MAcrKZBwTYp4DQZmaXqO1QqPA3,67MAcrKZBwTYp4DQZmaXqO1QqPA3,,,,,,,,,,,,,,,,,chosen stimuli: images/demo_images/choice_trial_1.png,,,,,59e7232f24d7bf00012f112e,09:10:10,27/02/2024
html-keyboard-response,14,25088,0.0-6.0-2.0,,,,delaylearn,learning,feedback_duration_window,67MAcrKZBwTYp4DQZmaXqO1QqPA3,67MAcrKZBwTYp4DQZmaXqO1QqPA3,,,,,,,,,,,,,,,,,,3000.0,,,,59e7232f24d7bf00012f112e,09:10:10,27/02/2024
html-keyboard-response,15,26589,0.0-6.0-3.0,,<div style='margin:auto;width: auto; font-size: 150%'><span style='font-weight: bold; font-size: 100px; color: red;'>0 points!</span><br><br></div>,,delaylearn,learning,feedback_image_window,67MAcrKZBwTYp4DQZmaXqO1QqPA3,67MAcrKZBwTYp4DQZmaXqO1QqPA3,,,,,,,,,,,,,,,,,,,,,,59e7232f24d7bf00012f112e,09:10:10,27/02/2024
html-keyboard-response,16,29031,0.0-7.0,,"<div style=""font-size:100px;"">+</div>",,delaylearn,learning,ITI,67MAcrKZBwTYp4DQZmaXqO1QqPA3,67MAcrKZBwTYp4DQZmaXqO1QqPA3,,,,,,,,,,,,,,,,,,,2439.0,,,59e7232f24d7bf00012f112e,09:10:10,27/02/2024
html-keyboard-response,17,30080,0.0-8.0-0.0,1048.7999999970198,"<div style=""display: flex; flex-direction: column; align-items: center; margin-top: -40px;""><img src=""images/demo_images/pattern_1.png"" style=""width: 234px; height: 230px; margin-top: -50px;""><div style=""display: flex; justify-content: space-between; margin-top: 33px;""><img src=""images/demo_images/choice_trial_1.png"" style=""width: 408px; height: 417px; margin-right: 200px;""><img src=""images/demo_images/choice_trial_2.png"" style=""width: 408px; height: 417px;""></div></div>",j,delaylearn,learning,trial,67MAcrKZBwTYp4DQZmaXqO1QqPA3,67MAcrKZBwTYp4DQZmaXqO1QqPA3,2.0,images/demo_images/choice_trial_1.png,images/demo_images/choice_trial_2.png,images/demo_images/pattern_1.png,f,f,3000.0,1.0,2.0,20.0,0.0,4.0,0.0,0.0,2.0,20.0,,,,,,59e7232f24d7bf00012f112e,09:10:10,27/02/2024
html-keyboard-response,18,31088,0.0-8.0-1.0,,"<div style=""display: flex; flex-direction: column; align-items: center; margin-top: -40px;""><img src=""images/demo_images/pattern_1.png"" style=""width: 234px; height: 230px; margin-top: -50px;""><div style=""display: flex; justify-content: space-between; margin-top: 33px;""><img src=""images/demo_images/choice_trial_2.png"" style=""width: 408px; height: 417px; margin-left:608px;""></div></div>",,delaylearn,learning,display_response,67MAcrKZBwTYp4DQZmaXqO1QqPA3,67MAcrKZBwTYp4DQZmaXqO1QqPA3,,,,,,,,,,,,,,,,,chosen stimuli: images/demo_images/choice_trial_2.png,,,,,59e7232f24d7bf00012f112e,09:10:10,27/02/2024
html-keyboard-response,19,34093,0.0-8.0-2.0,,,,delaylearn,learning,feedback_duration_window,67MAcrKZBwTYp4DQZmaXqO1QqPA3,67MAcrKZBwTYp4DQZmaXqO1QqPA3,,,,,,,,,,,,,,,,,,3000.0,,,,59e7232f24d7bf00012f112e,09:10:10,27/02/2024
html-keyboard-response,20,35603,0.0-8.0-3.0,,<div style='margin:auto;width: auto; font-size: 150%'><span style='font-weight: bold; font-size: 100px; color: red;'>0 points!</span><br><br></div>,,delaylearn,learning,feedback_image_window,67MAcrKZBwTYp4DQZmaXqO1QqPA3,67MAcrKZBwTYp4DQZmaXqO1QqPA3,,,,,,,,,,,,,,,,,,,,,,59e7232f24d7bf00012f112e,09:10:10,27/02/2024
html-keyboard-response,21,36115,0.0-9.0-0.0,,,,,,mood_trial_fixation,67MAcrKZBwTYp4DQZmaXqO1QqPA3,,,,,,,,,,,,,,,,,,,,,,,59e7232f24d7bf00012f112e,09:10:10,27/02/2024
lmdlab-html-vas-response,22,40581,0.0-9.0-1.0,3446.0,How happy are you right now?,0.6111111111111112,delaylearn,learning,mood_trial,67MAcrKZBwTYp4DQZmaXqO1QqPA3,67MAcrKZBwTYp4DQZmaXqO1QqPA3,,,,,,,,,,,,,,,,,,,,"['Very unhappy', 'Very happy']",,59e7232f24d7bf00012f112e,09:10:10,27/02/2024
html-keyboard-response,23,42272,0.0-10.0,,"<div style=""font-size:100px;"">+</div>",,delaylearn,learning,ITI,67MAcrKZBwTYp4DQZmaXqO1QqPA3,67MAcrKZBwTYp4DQZmaXqO1QqPA3,,,,,,,,,,,,,,,,,,,1681.0,,,59e7232f24d7bf00012f112e,09:10:10,27/02/2024
html-keyboard-response,24,43670,0.0-11.0-0.0,1397.5999999940395,"<div style=""display: flex; flex-direction: column; align-items: center; margin-top: -40px;""><img src=""images/demo_images/pattern_1.png"" style=""width: 234px; height: 230px; margin-top: -50px;""><div style=""display: flex; justify-content: space-between; margin-top: 33px;""><img src=""images/demo_images/choice_trial_2.png"" style=""width: 408px; height: 417px; margin-right: 200px;""><img src=""images/demo_images/choice_trial_1.png"" style=""width: 408px; height: 417px;""></div></div>",j,delaylearn,learning,trial,67MAcrKZBwTYp4DQZmaXqO1QqPA3,67MAcrKZBwTYp4DQZmaXqO1QqPA3,2.0,images/demo_images/choice_trial_2.png,images/demo_images/choice_trial_1.png,images/demo_images/pattern_1.png,j,j,3000.0,2.0,1.0,20.0,1.0,5.0,1.0,1.0,1.0,30.0,,,,,,59e7232f24d7bf00012f112e,09:10:10,27/02/2024
html-keyboard-response,25,44684,0.0-11.0-1.0,,"<div style=""display: flex; flex-direction: column; align-items: center; margin-top: -40px;""><img src=""images/demo_images/pattern_1.png"" style=""width: 234px; height: 230px; margin-top: -50px;""><div style=""display: flex; justify-content: space-between; margin-top: 33px;""><img src=""images/demo_images/choice_trial_1.png"" style=""width: 408px; height: 417px; margin-left:608px;""></div></div>",,delaylearn,learning,display_response,67MAcrKZBwTYp4DQZmaXqO1QqPA3,67MAcrKZBwTYp4DQZmaXqO1QqPA3,,,,,,,,,,,,,,,,,chosen stimuli: images/demo_images/choice_trial_1.png,,,,,59e7232f24d7bf00012f112e,09:10:10,27/02/2024
html-keyboard-response,26,47697,0.0-11.0-2.0,,,,delaylearn,learning,feedback_duration_window,67MAcrKZBwTYp4DQZmaXqO1QqPA3,67MAcrKZBwTYp4DQZmaXqO1QqPA3,,,,,,,,,,,,,,,,,,3000.0,,,,59e7232f24d7bf00012f112e,09:10:10,27/02/2024
html-keyboard-response,27,49206,0.0-11.0-3.0,,<div style='margin:auto;width: auto; font-size: 150%'><span style='font-weight: bold; font-size: 100px; color: green;'>+10 points!</span><br><br></div>,,delaylearn,learning,feedback_image_window,67MAcrKZBwTYp4DQZmaXqO1QqPA3,67MAcrKZBwTYp4DQZmaXqO1QqPA3,,,,,,,,,,,,,,,,,,,,,,59e7232f24d7bf00012f112e,09:10:10,27/02/2024
html-keyboard-response,28,51537,0.0-12.0,,"<div style=""font-size:100px;"">+</div>",,delaylearn,learning,ITI,67MAcrKZBwTYp4DQZmaXqO1QqPA3,67MAcrKZBwTYp4DQZmaXqO1QqPA3,,,,,,,,,,,,,,,,,,,2319.0,,,59e7232f24d7bf00012f112e,09:10:10,27/02/2024
html-keyboard-response,29,53211,0.0-13.0-0.0,1673.3999999910593,"<div style=""display: flex; flex-direction: column; align-items: center; margin-top: -40px;""><img src=""images/demo_images/pattern_1.png"" style=""width: 234px; height: 230px; margin-top: -50px;""><div style=""display: flex; justify-content: space-between; margin-top: 33px;""><img src=""images/demo_images/choice_trial_1.png"" style=""width: 408px; height: 417px; margin-right: 200px;""><img src=""images/demo_images/choice_trial_2.png"" style=""width: 408px; height: 417px;""></div></div>",j,delaylearn,learning,trial,67MAcrKZBwTYp4DQZmaXqO1QqPA3,67MAcrKZBwTYp4DQZmaXqO1QqPA3,2.0,images/demo_images/choice_trial_1.png,images/demo_images/choice_trial_2.png,images/demo_images/pattern_1.png,f,f,3000.0,1.0,2.0,20.0,0.0,6.0,0.0,0.0,2.0,30.0,,,,,,59e7232f24d7bf00012f112e,09:10:10,27/02/2024
html-keyboard-response,30,54216,0.0-13.0-1.0,,"<div style=""display: flex; flex-direction: column; align-items: center; margin-top: -40px;""><img src=""images/demo_images/pattern_1.png"" style=""width: 234px; height: 230px; margin-top: -50px;""><div style=""display: flex; justify-content: space-between; margin-top: 33px;""><img src=""images/demo_images/choice_trial_2.png"" style=""width: 408px; height: 417px; margin-left:608px;""></div></div>",,delaylearn,learning,display_response,67MAcrKZBwTYp4DQZmaXqO1QqPA3,67MAcrKZBwTYp4DQZmaXqO1QqPA3,,,,,,,,,,,,,,,,,chosen stimuli: images/demo_images/choice_trial_2.png,,,,,59e7232f24d7bf00012f112e,09:10:10,27/02/2024
html-keyboard-response,31,57228,0.0-13.0-2.0,,,,delaylearn,learning,feedback_duration_window,67MAcrKZBwTYp4DQZmaXqO1QqPA3,67MAcrKZBwTYp4DQZmaXqO1QqPA3,,,,,,,,,,,,,,,,,,3000.0,,,,59e7232f24d7bf00012f112e,09:10:10,27/02/2024
html-keyboard-response,32,58731,0.0-13.0-3.0,,<div style='margin:auto;width: auto; font-size: 150%'><span style='font-weight: bold; font-size: 100px; color: red;'>0 points!</span><br><br></div>,,delaylearn,learning,feedback_image_window,67MAcrKZBwTYp4DQZmaXqO1QqPA3,67MAcrKZBwTYp4DQZmaXqO1QqPA3,,,,,,,,,,,,,,,,,,,,,,59e7232f24d7bf00012f112e,09:10:10,27/02/2024
html-button-response,33,61346,0.0-14.0,2614.0999999940395,"
  <div style=""display: flex; align-items: center; justify-content: center; height: 80vh;"">
  <div>
          <img src=""images/inst_demo_finish.png"" style=""width: 80vw; height:auto;"">
          <br><br>
      </div>
      <br><br>
  </div>",0,,,,67MAcrKZBwTYp4DQZmaXqO1QqPA3,,,,,,,,,,,,,,,,,,,,,,,59e7232f24d7bf00012f112e,09:10:10,27/02/2024
html-keyboard-response,34,66003,0.0-15.0,4655.899999991059,"
  <div style=""display: flex; align-items: center; justify-content: center; height: 80vh;"">
  <div>
          <img src=""images/inst_6.png"" style=""width: 80vw; height:auto;"">
          <br><br>
      </div>
      <br><br>
  </div>",j,,,,67MAcrKZBwTYp4DQZmaXqO1QqPA3,,,,,,,,,,,,,,,,,,,,,,,59e7232f24d7bf00012f112e,09:10:10,27/02/2024
html-keyboard-response,35,69006,0.0-16.0,,"<div style=""font-size:100px;"">+</div>",,delaylearn,learning,pre_fixation,67MAcrKZBwTYp4DQZmaXqO1QqPA3,,,,,,,,,,,,,,,,,,,,,,,59e7232f24d7bf00012f112e,09:10:10,27/02/2024
html-keyboard-response,36,70883,0.0-17.0,,"<div style=""font-size:100px;"">+</div>",,delaylearn,learning,ITI,67MAcrKZBwTYp4DQZmaXqO1QqPA3,67MAcrKZBwTYp4DQZmaXqO1QqPA3,,,,,,,,,,,,,,,,,,,1864.0,,,59e7232f24d7bf00012f112e,09:10:10,27/02/2024
html-keyboard-response,37,72471,0.0-18.0-0.0,1586.0,"<div style=""display: flex; flex-direction: column; align-items: center; margin-top: -40px;""><img src=""images/pattern_3.png"" style=""width: 234px; height: 230px; margin-top: -50px;""><div style=""display: flex; justify-content: space-between; margin-top: 33px;""><img src=""images/choice_trial_12.png"" style=""width: 408px; height: 417px; margin-right: 200px;""><img src=""images/choice_trial_14.png"" style=""width: 408px; height: 417px;""></div></div>",j,delaylearn,learning,trial,67MAcrKZBwTYp4DQZmaXqO1QqPA3,67MAcrKZBwTYp4DQZmaXqO1QqPA3,2.0,images/choice_trial_12.png,images/choice_trial_14.png,images/pattern_3.png,f,f,7000.0,12.0,14.0,2.0,0.0,7.0,0.0,0.0,14.0,30.0,,,,,,59e7232f24d7bf00012f112e,09:10:10,27/02/2024
html-keyboard-response,38,73482,0.0-18.0-1.0,,"<div style=""display: flex; flex-direction: column; align-items: center; margin-top: -40px;""><img src=""images/pattern_3.png"" style=""width: 234px; height: 230px; margin-top: -50px;""><div style=""display: flex; justify-content: space-between; margin-top: 33px;""><img src=""images/choice_trial_14.png"" style=""width: 408px; height: 417px; margin-left:608px;""></div></div>",,delaylearn,learning,display_response,67MAcrKZBwTYp4DQZmaXqO1QqPA3,67MAcrKZBwTYp4DQZmaXqO1QqPA3,,,,,,,,,,,,,,,,,chosen stimuli: images/choice_trial_14.png,,,,,59e7232f24d7bf00012f112e,09:10:10,27/02/2024
html-keyboard-response,39,80494,0.0-18.0-2.0,,,,delaylearn,learning,feedback_duration_window,67MAcrKZBwTYp4DQZmaXqO1QqPA3,67MAcrKZBwTYp4DQZmaXqO1QqPA3,,,,,,,,,,,,,,,,,,7000.0,,,,59e7232f24d7bf00012f112e,09:10:10,27/02/2024
html-keyboard-response,40,81998,0.0-18.0-3.0,,<div style='margin:auto;width: auto; font-size: 150%'><span style='font-weight: bold; font-size: 100px; color: red;'>0 points!</span><br><br></div>,,delaylearn,learning,feedback_image_window,67MAcrKZBwTYp4DQZmaXqO1QqPA3,67MAcrKZBwTYp4DQZmaXqO1QqPA3,,,,,,,,,,,,,,,,,,,,,,59e7232f24d7bf00012f112e,09:10:10,27/02/2024
html-keyboard-response,41,83875,0.0-19.0,,"<div style=""font-size:100px;"">+</div>",,delaylearn,learning,ITI,67MAcrKZBwTYp4DQZmaXqO1QqPA3,67MAcrKZBwTYp4DQZmaXqO1QqPA3,,,,,,,,,,,,,,,,,,,1874.0,,,59e7232f24d7bf00012f112e,09:10:10,27/02/2024
html-keyboard-response,42,85780,0.0-20.0-0.0,1904.0,"<div style=""display: flex; flex-direction: column; align-items: center; margin-top: -40px;""><img src=""images/pattern_7.png"" style=""width: 234px; height: 230px; margin-top: -50px;""><div style=""display: flex; justify-content: space-between; margin-top: 33px;""><img src=""images/choice_trial_15.png"" style=""width: 408px; height: 417px; margin-right: 200px;""><img src=""images/choice_trial_8.png"" style=""width: 408px; height: 417px;""></div></div>",j,delaylearn,learning,trial,67MAcrKZBwTYp4DQZmaXqO1QqPA3,67MAcrKZBwTYp4DQZmaXqO1QqPA3,2.0,images/choice_trial_15.png,images/choice_trial_8.png,images/pattern_7.png,j,j,750.0,15.0,8.0,6.0,1.0,8.0,1.0,1.0,8.0,40.0,,,,,,59e7232f24d7bf00012f112e,09:10:10,27/02/2024
html-keyboard-response,43,86781,0.0-20.0-1.0,,"<div style=""display: flex; flex-direction: column; align-items: center; margin-top: -40px;""><img src=""images/pattern_7.png"" style=""width: 234px; height: 230px; margin-top: -50px;""><div style=""display: flex; justify-content: space-between; margin-top: 33px;""><img src=""images/choice_trial_8.png"" style=""width: 408px; height: 417px; margin-left:608px;""></div></div>",,delaylearn,learning,display_response,67MAcrKZBwTYp4DQZmaXqO1QqPA3,67MAcrKZBwTYp4DQZmaXqO1QqPA3,,,,,,,,,,,,,,,,,chosen stimuli: images/choice_trial_8.png,,,,,59e7232f24d7bf00012f112e,09:10:10,27/02/2024
html-keyboard-response,44,87542,0.0-20.0-2.0,,,,delaylearn,learning,feedback_duration_window,67MAcrKZBwTYp4DQZmaXqO1QqPA3,67MAcrKZBwTYp4DQZmaXqO1QqPA3,,,,,,,,,,,,,,,,,,750.0,,,,59e7232f24d7bf00012f112e,09:10:10,27/02/2024
html-keyboard-response,45,89045,0.0-20.0-3.0,,<div style='margin:auto;width: auto; font-size: 150%'><span style='font-weight: bold; font-size: 100px; color: green;'>+10 points!</span><br><br></div>,,delaylearn,learning,feedback_image_window,67MAcrKZBwTYp4DQZmaXqO1QqPA3,67MAcrKZBwTYp4DQZmaXqO1QqPA3,,,,,,,,,,,,,,,,,,,,,,59e7232f24d7bf00012f112e,09:10:10,27/02/2024
html-keyboard-response,46,90590,0.0-21.0,,"<div style=""font-size:100px;"">+</div>",,delaylearn,learning,ITI,67MAcrKZBwTYp4DQZmaXqO1QqPA3,67MAcrKZBwTYp4DQZmaXqO1QqPA3,,,,,,,,,,,,,,,,,,,1540.0,,,59e7232f24d7bf00012f112e,09:10:10,27/02/2024
html-keyboard-response,47,93592,0.0-22.0-0.0,,"<div style=""display: flex; flex-direction: column; align-items: center; margin-top: -40px;""><img src=""images/pattern_4.png"" style=""width: 234px; height: 230px; margin-top: -50px;""><div style=""display: flex; justify-content: space-between; margin-top: 33px;""><img src=""images/choice_trial_4.png"" style=""width: 408px; height: 417px; margin-right: 200px;""><img src=""images/choice_trial_16.png"" style=""width: 408px; height: 417px;""></div></div>",,delaylearn,learning,trial,67MAcrKZBwTYp4DQZmaXqO1QqPA3,67MAcrKZBwTYp4DQZmaXqO1QqPA3,2.0,images/choice_trial_4.png,images/choice_trial_16.png,images/pattern_4.png,f,f,7000.0,4.0,16.0,3.0,0.0,9.0,0.0,0.0,0.0,40.0,,,,,,59e7232f24d7bf00012f112e,09:10:10,27/02/2024
html-keyboard-response,48,94596,0.0-22.0-1.0,,<div style='font-weight: bold; font-size: 75px; color: red;'>Missed Trial <br><br><br><br> Please respond faster</div>,,delaylearn,learning,display_response,67MAcrKZBwTYp4DQZmaXqO1QqPA3,67MAcrKZBwTYp4DQZmaXqO1QqPA3,,,,,,,,,,,,,,,,,Missed trial,,,,,59e7232f24d7bf00012f112e,09:10:10,27/02/2024
html-keyboard-response,49,94602,0.0-22.0-2.0,,,,delaylearn,learning,feedback_duration_window,67MAcrKZBwTYp4DQZmaXqO1QqPA3,67MAcrKZBwTYp4DQZmaXqO1QqPA3,,,,,,,,,,,,,,,,,,0.0,,,,59e7232f24d7bf00012f112e,09:10:10,27/02/2024
html-keyboard-response,50,94607,0.0-22.0-3.0,,,,delaylearn,learning,feedback_image_window,67MAcrKZBwTYp4DQZmaXqO1QqPA3,67MAcrKZBwTYp4DQZmaXqO1QqPA3,,,,,,,,,,,,,,,,,,,,,,59e7232f24d7bf00012f112e,09:10:10,27/02/2024
html-keyboard-response,51,97051,0.0-23.0,,"<div style=""font-size:100px;"">+</div>",,delaylearn,learning,ITI,67MAcrKZBwTYp4DQZmaXqO1QqPA3,67MAcrKZBwTYp4DQZmaXqO1QqPA3,,,,,,,,,,,,,,,,,,,2442.0,,,59e7232f24d7bf00012f112e,09:10:10,27/02/2024
html-keyboard-response,52,97898,0.0-24.0-0.0,846.0999999940395,"<div style=""display: flex; flex-direction: column; align-items: center; margin-top: -40px;""><img src=""images/pattern_5.png"" style=""width: 234px; height: 230px; margin-top: -50px;""><div style=""display: flex; justify-content: space-between; margin-top: 33px;""><img src=""images/choice_trial_9.png"" style=""width: 408px; height: 417px; margin-right: 200px;""><img src=""images/choice_trial_2.png"" style=""width: 408px; height: 417px;""></div></div>",f,delaylearn,learning,trial,67MAcrKZBwTYp4DQZmaXqO1QqPA3,67MAcrKZBwTYp4DQZmaXqO1QqPA3,2.0,images/choice_trial_9.png,images/choice_trial_2.png,images/pattern_5.png,j,j,750.0,9.0,2.0,4.0,1.0,10.0,0.0,0.0,9.0,40.0,,,,,,59e7232f24d7bf00012f112e,09:10:10,27/02/2024
html-keyboard-response,53,98914,0.0-24.0-1.0,,"<div style=""display: flex; flex-direction: column; align-items: center; margin-top: -40px;""><img src=""images/pattern_5.png"" style=""width: 234px; height: 230px; margin-top: -50px;""><div style=""display: flex; justify-content: space-between; margin-top: 33px;""><img src=""images/choice_trial_9.png"" style=""width: 408px; height: 417px; margin-right: 608px;""></div></div>",,delaylearn,learning,display_response,67MAcrKZBwTYp4DQZmaXqO1QqPA3,67MAcrKZBwTYp4DQZmaXqO1QqPA3,,,,,,,,,,,,,,,,,chosen stimuli: images/choice_trial_9.png,,,,,59e7232f24d7bf00012f112e,09:10:10,27/02/2024
html-keyboard-response,54,99668,0.0-24.0-2.0,,,,delaylearn,learning,feedback_duration_window,67MAcrKZBwTYp4DQZmaXqO1QqPA3,67MAcrKZBwTYp4DQZmaXqO1QqPA3,,,,,,,,,,,,,,,,,,750.0,,,,59e7232f24d7bf00012f112e,09:10:10,27/02/2024
html-keyboard-response,55,101170,0.0-24.0-3.0,,<div style='margin:auto;width: auto; font-size: 150%'><span style='font-weight: bold; font-size: 100px; color: red;'>0 points!</span><br><br></div>,,delaylearn,learning,feedback_image_window,67MAcrKZBwTYp4DQZmaXqO1QqPA3,67MAcrKZBwTYp4DQZmaXqO1QqPA3,,,,,,,,,,,,,,,,,,,,,,59e7232f24d7bf00012f112e,09:10:10,27/02/2024
html-keyboard-response,56,102788,0.0-25.0,,"<div style=""font-size:100px;"">+</div>",,delaylearn,learning,ITI,67MAcrKZBwTYp4DQZmaXqO1QqPA3,67MAcrKZBwTYp4DQZmaXqO1QqPA3,,,,,,,,,,,,,,,,,,,1603.0,,,59e7232f24d7bf00012f112e,09:10:10,27/02/2024
html-keyboard-response,57,103489,0.0-26.0-0.0,700.1000000089407,"<div style=""display: flex; flex-direction: column; align-items: center; margin-top: -40px;""><img src=""images/pattern_6.png"" style=""width: 234px; height: 230px; margin-top: -50px;""><div style=""display: flex; justify-content: space-between; margin-top: 33px;""><img src=""images/choice_trial_11.png"" style=""width: 408px; height: 417px; margin-right: 200px;""><img src=""images/choice_trial_5.png"" style=""width: 408px; height: 417px;""></div></div>",j,delaylearn,learning,trial,67MAcrKZBwTYp4DQZmaXqO1QqPA3,67MAcrKZBwTYp4DQZmaXqO1QqPA3,2.0,images/choice_trial_11.png,images/choice_trial_5.png,images/pattern_6.png,j,f,750.0,11.0,5.0,5.0,0.0,11.0,0.0,1.0,5.0,50.0,,,,,,59e7232f24d7bf00012f112e,09:10:10,27/02/2024
html-keyboard-response,58,104504,0.0-26.0-1.0,,"<div style=""display: flex; flex-direction: column; align-items: center; margin-top: -40px;""><img src=""images/pattern_6.png"" style=""width: 234px; height: 230px; margin-top: -50px;""><div style=""display: flex; justify-content: space-between; margin-top: 33px;""><img src=""images/choice_trial_5.png"" style=""width: 408px; height: 417px; margin-left:608px;""></div></div>",,delaylearn,learning,display_response,67MAcrKZBwTYp4DQZmaXqO1QqPA3,67MAcrKZBwTYp4DQZmaXqO1QqPA3,,,,,,,,,,,,,,,,,chosen stimuli: images/choice_trial_5.png,,,,,59e7232f24d7bf00012f112e,09:10:10,27/02/2024
html-keyboard-response,59,105259,0.0-26.0-2.0,,,,delaylearn,learning,feedback_duration_window,67MAcrKZBwTYp4DQZmaXqO1QqPA3,67MAcrKZBwTYp4DQZmaXqO1QqPA3,,,,,,,,,,,,,,,,,,750.0,,,,59e7232f24d7bf00012f112e,09:10:10,27/02/2024
html-keyboard-response,60,106767,0.0-26.0-3.0,,<div style='margin:auto;width: auto; font-size: 150%'><span style='font-weight: bold; font-size: 100px; color: green;'>+10 points!</span><br><br></div>,,delaylearn,learning,feedback_image_window,67MAcrKZBwTYp4DQZmaXqO1QqPA3,67MAcrKZBwTYp4DQZmaXqO1QqPA3,,,,,,,,,,,,,,,,,,,,,,59e7232f24d7bf00012f112e,09:10:10,27/02/2024
html-keyboard-response,61,107281,0.0-27.0-0.0,,,,,,mood_trial_fixation,67MAcrKZBwTYp4DQZmaXqO1QqPA3,,,,,,,,,,,,,,,,,,,,,,,59e7232f24d7bf00012f112e,09:10:10,27/02/2024
lmdlab-html-vas-response,62,111716,0.0-27.0-1.0,3429.0,How happy are you right now?,0.7197530864197531,delaylearn,learning,mood_trial,67MAcrKZBwTYp4DQZmaXqO1QqPA3,67MAcrKZBwTYp4DQZmaXqO1QqPA3,,,,,,,,,,,,,,,,,,,,"['Very unhappy', 'Very happy']",,59e7232f24d7bf00012f112e,09:10:10,27/02/2024
html-keyboard-response,63,113905,0.0-28.0,,"<div style=""font-size:100px;"">+</div>",,delaylearn,learning,ITI,67MAcrKZBwTYp4DQZmaXqO1QqPA3,67MAcrKZBwTYp4DQZmaXqO1QqPA3,,,,,,,,,,,,,,,,,,,2176.0,,,59e7232f24d7bf00012f112e,09:10:10,27/02/2024
html-keyboard-response,64,114852,0.0-29.0-0.0,946.3000000119209,"<div style=""display: flex; flex-direction: column; align-items: center; margin-top: -40px;""><img src=""images/pattern_1.png"" style=""width: 234px; height: 230px; margin-top: -50px;""><div style=""display: flex; justify-content: space-between; margin-top: 33px;""><img src=""images/choice_trial_10.png"" style=""width: 408px; height: 417px; margin-right: 200px;""><img src=""images/choice_trial_3.png"" style=""width: 408px; height: 417px;""></div></div>",f,delaylearn,learning,trial,67MAcrKZBwTYp4DQZmaXqO1QqPA3,67MAcrKZBwTYp4DQZmaXqO1QqPA3,2.0,images/choice_trial_10.png,images/choice_trial_3.png,images/pattern_1.png,j,j,7000.0,10.0,3.0,1.0,1.0,12.0,0.0,0.0,10.0,50.0,,,,,,59e7232f24d7bf00012f112e,09:10:10,27/02/2024
html-keyboard-response,65,115856,0.0-29.0-1.0,,"<div style=""display: flex; flex-direction: column; align-items: center; margin-top: -40px;""><img src=""images/pattern_1.png"" style=""width: 234px; height: 230px; margin-top: -50px;""><div style=""display: flex; justify-content: space-between; margin-top: 33px;""><img src=""images/choice_trial_10.png"" style=""width: 408px; height: 417px; margin-right: 608px;""></div></div>",,delaylearn,learning,display_response,67MAcrKZBwTYp4DQZmaXqO1QqPA3,67MAcrKZBwTYp4DQZmaXqO1QqPA3,,,,,,,,,,,,,,,,,chosen stimuli: images/choice_trial_10.png,,,,,59e7232f24d7bf00012f112e,09:10:10,27/02/2024
html-keyboard-response,66,122863,0.0-29.0-2.0,,,,delaylearn,learning,feedback_duration_window,67MAcrKZBwTYp4DQZmaXqO1QqPA3,67MAcrKZBwTYp4DQZmaXqO1QqPA3,,,,,,,,,,,,,,,,,,7000.0,,,,59e7232f24d7bf00012f112e,09:10:10,27/02/2024
html-keyboard-response,67,124365,0.0-29.0-3.0,,<div style='margin:auto;width: auto; font-size: 150%'><span style='font-weight: bold; font-size: 100px; color: red;'>0 points!</span><br><br></div>,,delaylearn,learning,feedback_image_window,67MAcrKZBwTYp4DQZmaXqO1QqPA3,67MAcrKZBwTYp4DQZmaXqO1QqPA3,,,,,,,,,,,,,,,,,,,,,,59e7232f24d7bf00012f112e,09:10:10,27/02/2024
html-keyboard-response,68,126600,0.0-30.0,,"<div style=""font-size:100px;"">+</div>",,delaylearn,learning,ITI,67MAcrKZBwTYp4DQZmaXqO1QqPA3,67MAcrKZBwTYp4DQZmaXqO1QqPA3,,,,,,,,,,,,,,,,,,,2228.0,,,59e7232f24d7bf00012f112e,09:10:10,27/02/2024
html-keyboard-response,69,127352,0.0-31.0-0.0,750.7000000029802,"<div style=""display: flex; flex-direction: column; align-items: center; margin-top: -40px;""><img src=""images/pattern_3.png"" style=""width: 234px; height: 230px; margin-top: -50px;""><div style=""display: flex; justify-content: space-between; margin-top: 33px;""><img src=""images/choice_trial_14.png"" style=""width: 408px; height: 417px; margin-right: 200px;""><img src=""images/choice_trial_12.png"" style=""width: 408px; height: 417px;""></div></div>",j,delaylearn,learning,trial,67MAcrKZBwTYp4DQZmaXqO1QqPA3,67MAcrKZBwTYp4DQZmaXqO1QqPA3,2.0,images/choice_trial_14.png,images/choice_trial_12.png,images/pattern_3.png,f,j,7000.0,14.0,12.0,2.0,1.0,13.0,1.0,0.0,12.0,50.0,,,,,,59e7232f24d7bf00012f112e,09:10:10,27/02/2024
html-keyboard-response,70,128357,0.0-31.0-1.0,,"<div style=""display: flex; flex-direction: column; align-items: center; margin-top: -40px;""><img src=""images/pattern_3.png"" style=""width: 234px; height: 230px; margin-top: -50px;""><div style=""display: flex; justify-content: space-between; margin-top: 33px;""><img src=""images/choice_trial_12.png"" style=""width: 408px; height: 417px; margin-left:608px;""></div></div>",,delaylearn,learning,display_response,67MAcrKZBwTYp4DQZmaXqO1QqPA3,67MAcrKZBwTYp4DQZmaXqO1QqPA3,,,,,,,,,,,,,,,,,chosen stimuli: images/choice_trial_12.png,,,,,59e7232f24d7bf00012f112e,09:10:10,27/02/2024
html-keyboard-response,71,135362,0.0-31.0-2.0,,,,delaylearn,learning,feedback_duration_window,67MAcrKZBwTYp4DQZmaXqO1QqPA3,67MAcrKZBwTYp4DQZmaXqO1QqPA3,,,,,,,,,,,,,,,,,,7000.0,,,,59e7232f24d7bf00012f112e,09:10:10,27/02/2024
html-keyboard-response,72,136869,0.0-31.0-3.0,,<div style='margin:auto;width: auto; font-size: 150%'><span style='font-weight: bold; font-size: 100px; color: red;'>0 points!</span><br><br></div>,,delaylearn,learning,feedback_image_window,67MAcrKZBwTYp4DQZmaXqO1QqPA3,67MAcrKZBwTYp4DQZmaXqO1QqPA3,,,,,,,,,,,,,,,,,,,,,,59e7232f24d7bf00012f112e,09:10:10,27/02/2024
html-keyboard-response,73,138494,0.0-32.0,,"<div style=""font-size:100px;"">+</div>",,delaylearn,learning,ITI,67MAcrKZBwTYp4DQZmaXqO1QqPA3,67MAcrKZBwTYp4DQZmaXqO1QqPA3,,,,,,,,,,,,,,,,,,,1611.0,,,59e7232f24d7bf00012f112e,09:10:10,27/02/2024
html-keyboard-response,74,139378,0.0-33.0-0.0,882.4000000059605,"<div style=""display: flex; flex-direction: column; align-items: center; margin-top: -40px;""><img src=""images/pattern_5.png"" style=""width: 234px; height: 230px; margin-top: -50px;""><div style=""display: flex; justify-content: space-between; margin-top: 33px;""><img src=""images/choice_trial_2.png"" style=""width: 408px; height: 417px; margin-right: 200px;""><img src=""images/choice_trial_9.png"" style=""width: 408px; height: 417px;""></div></div>",f,delaylearn,learning,trial,67MAcrKZBwTYp4DQZmaXqO1QqPA3,67MAcrKZBwTYp4DQZmaXqO1QqPA3,2.0,images/choice_trial_2.png,images/choice_trial_9.png,images/pattern_5.png,f,f,750.0,2.0,9.0,4.0,0.0,14.0,1.0,1.0,2.0,60.0,,,,,,59e7232f24d7bf00012f112e,09:10:10,27/02/2024
html-keyboard-response,75,140382,0.0-33.0-1.0,,"<div style=""display: flex; flex-direction: column; align-items: center; margin-top: -40px;""><img src=""images/pattern_5.png"" style=""width: 234px; height: 230px; margin-top: -50px;""><div style=""display: flex; justify-content: space-between; margin-top: 33px;""><img src=""images/choice_trial_2.png"" style=""width: 408px; height: 417px; margin-right: 608px;""></div></div>",,delaylearn,learning,display_response,67MAcrKZBwTYp4DQZmaXqO1QqPA3,67MAcrKZBwTYp4DQZmaXqO1QqPA3,,,,,,,,,,,,,,,,,chosen stimuli: images/choice_trial_2.png,,,,,59e7232f24d7bf00012f112e,09:10:10,27/02/2024
html-keyboard-response,76,141141,0.0-33.0-2.0,,,,delaylearn,learning,feedback_duration_window,67MAcrKZBwTYp4DQZmaXqO1QqPA3,67MAcrKZBwTYp4DQZmaXqO1QqPA3,,,,,,,,,,,,,,,,,,750.0,,,,59e7232f24d7bf00012f112e,09:10:10,27/02/2024
html-keyboard-response,77,142656,0.0-33.0-3.0,,<div style='margin:auto;width: auto; font-size: 150%'><span style='font-weight: bold; font-size: 100px; color: green;'>+10 points!</span><br><br></div>,,delaylearn,learning,feedback_image_window,67MAcrKZBwTYp4DQZmaXqO1QqPA3,67MAcrKZBwTYp4DQZmaXqO1QqPA3,,,,,,,,,,,,,,,,,,,,,,59e7232f24d7bf00012f112e,09:10:10,27/02/2024
html-keyboard-response,78,143167,0.0-34.0-0.0,,,,,,mood_trial_fixation,67MAcrKZBwTYp4DQZmaXqO1QqPA3,,,,,,,,,,,,,,,,,,,,,,,59e7232f24d7bf00012f112e,09:10:10,27/02/2024
lmdlab-html-vas-response,79,147607,0.0-34.0-1.0,3425.0,How happy are you right now?,0.6481481481481481,delaylearn,learning,mood_trial,67MAcrKZBwTYp4DQZmaXqO1QqPA3,67MAcrKZBwTYp4DQZmaXqO1QqPA3,,,,,,,,,,,,,,,,,,,,"['Very unhappy', 'Very happy']",,59e7232f24d7bf00012f112e,09:10:10,27/02/2024
html-keyboard-response,80,149565,0.0-35.0,,"<div style=""font-size:100px;"">+</div>",,delaylearn,learning,ITI,67MAcrKZBwTYp4DQZmaXqO1QqPA3,67MAcrKZBwTYp4DQZmaXqO1QqPA3,,,,,,,,,,,,,,,,,,,1955.0,,,59e7232f24d7bf00012f112e,09:10:10,27/02/2024
html-keyboard-response,81,150416,0.0-36.0-0.0,849.2000000029802,"<div style=""display: flex; flex-direction: column; align-items: center; margin-top: -40px;""><img src=""images/pattern_6.png"" style=""width: 234px; height: 230px; margin-top: -50px;""><div style=""display: flex; justify-content: space-between; margin-top: 33px;""><img src=""images/choice_trial_11.png"" style=""width: 408px; height: 417px; margin-right: 200px;""><img src=""images/choice_trial_5.png"" style=""width: 408px; height: 417px;""></div></div>",f,delaylearn,learning,trial,67MAcrKZBwTYp4DQZmaXqO1QqPA3,67MAcrKZBwTYp4DQZmaXqO1QqPA3,2.0,images/choice_trial_11.png,images/choice_trial_5.png,images/pattern_6.png,f,f,750.0,11.0,5.0,5.0,0.0,15.0,1.0,1.0,11.0,70.0,,,,,,59e7232f24d7bf00012f112e,09:10:10,27/02/2024
html-keyboard-response,82,151430,0.0-36.0-1.0,,"<div style=""display: flex; flex-direction: column; align-items: center; margin-top: -40px;""><img src=""images/pattern_6.png"" style=""width: 234px; height: 230px; margin-top: -50px;""><div style=""display: flex; justify-content: space-between; margin-top: 33px;""><img src=""images/choice_trial_11.png"" style=""width: 408px; height: 417px; margin-right: 608px;""></div></div>",,delaylearn,learning,display_response,67MAcrKZBwTYp4DQZmaXqO1QqPA3,67MAcrKZBwTYp4DQZmaXqO1QqPA3,,,,,,,,,,,,,,,,,chosen stimuli: images/choice_trial_11.png,,,,,59e7232f24d7bf00012f112e,09:10:10,27/02/2024
html-keyboard-response,83,152189,0.0-36.0-2.0,,,,delaylearn,learning,feedback_duration_window,67MAcrKZBwTYp4DQZmaXqO1QqPA3,67MAcrKZBwTYp4DQZmaXqO1QqPA3,,,,,,,,,,,,,,,,,,750.0,,,,59e7232f24d7bf00012f112e,09:10:10,27/02/2024
html-keyboard-response,84,153695,0.0-36.0-3.0,,<div style='margin:auto;width: auto; font-size: 150%'><span style='font-weight: bold; font-size: 100px; color: green;'>+10 points!</span><br><br></div>,,delaylearn,learning,feedback_image_window,67MAcrKZBwTYp4DQZmaXqO1QqPA3,67MAcrKZBwTYp4DQZmaXqO1QqPA3,,,,,,,,,,,,,,,,,,,,,,59e7232f24d7bf00012f112e,09:10:10,27/02/2024
html-keyboard-response,85,155661,0.0-37.0,,"<div style=""font-size:100px;"">+</div>",,delaylearn,learning,ITI,67MAcrKZBwTYp4DQZmaXqO1QqPA3,67MAcrKZBwTYp4DQZmaXqO1QqPA3,,,,,,,,,,,,,,,,,,,1954.0,,,59e7232f24d7bf00012f112e,09:10:10,27/02/2024
html-keyboard-response,86,156456,0.0-38.0-0.0,793.1000000089407,"<div style=""display: flex; flex-direction: column; align-items: center; margin-top: -40px;""><img src=""images/pattern_4.png"" style=""width: 234px; height: 230px; margin-top: -50px;""><div style=""display: flex; justify-content: space-between; margin-top: 33px;""><img src=""images/choice_trial_16.png"" style=""width: 408px; height: 417px; margin-right: 200px;""><img src=""images/choice_trial_4.png"" style=""width: 408px; height: 417px;""></div></div>",j,delaylearn,learning,trial,67MAcrKZBwTYp4DQZmaXqO1QqPA3,67MAcrKZBwTYp4DQZmaXqO1QqPA3,2.0,images/choice_trial_16.png,images/choice_trial_4.png,images/pattern_4.png,j,j,7000.0,16.0,4.0,3.0,1.0,16.0,1.0,1.0,4.0,80.0,,,,,,59e7232f24d7bf00012f112e,09:10:10,27/02/2024
html-keyboard-response,87,157464,0.0-38.0-1.0,,"<div style=""display: flex; flex-direction: column; align-items: center; margin-top: -40px;""><img src=""images/pattern_4.png"" style=""width: 234px; height: 230px; margin-top: -50px;""><div style=""display: flex; justify-content: space-between; margin-top: 33px;""><img src=""images/choice_trial_4.png"" style=""width: 408px; height: 417px; margin-left:608px;""></div></div>",,delaylearn,learning,display_response,67MAcrKZBwTYp4DQZmaXqO1QqPA3,67MAcrKZBwTYp4DQZmaXqO1QqPA3,,,,,,,,,,,,,,,,,chosen stimuli: images/choice_trial_4.png,,,,,59e7232f24d7bf00012f112e,09:10:10,27/02/2024
html-keyboard-response,88,164468,0.0-38.0-2.0,,,,delaylearn,learning,feedback_duration_window,67MAcrKZBwTYp4DQZmaXqO1QqPA3,67MAcrKZBwTYp4DQZmaXqO1QqPA3,,,,,,,,,,,,,,,,,,7000.0,,,,59e7232f24d7bf00012f112e,09:10:10,27/02/2024
html-keyboard-response,89,165969,0.0-38.0-3.0,,<div style='margin:auto;width: auto; font-size: 150%'><span style='font-weight: bold; font-size: 100px; color: green;'>+10 points!</span><br><br></div>,,delaylearn,learning,feedback_image_window,67MAcrKZBwTYp4DQZmaXqO1QqPA3,67MAcrKZBwTYp4DQZmaXqO1QqPA3,,,,,,,,,,,,,,,,,,,,,,59e7232f24d7bf00012f112e,09:10:10,27/02/2024
html-keyboard-response,90,167954,0.0-39.0,,"<div style=""font-size:100px;"">+</div>",,delaylearn,learning,ITI,67MAcrKZBwTYp4DQZmaXqO1QqPA3,67MAcrKZBwTYp4DQZmaXqO1QqPA3,,,,,,,,,,,,,,,,,,,1970.0,,,59e7232f24d7bf00012f112e,09:10:10,27/02/2024
html-keyboard-response,91,168687,0.0-40.0-0.0,731.7000000029802,"<div style=""display: flex; flex-direction: column; align-items: center; margin-top: -40px;""><img src=""images/pattern_7.png"" style=""width: 234px; height: 230px; margin-top: -50px;""><div style=""display: flex; justify-content: space-between; margin-top: 33px;""><img src=""images/choice_trial_8.png"" style=""width: 408px; height: 417px; margin-right: 200px;""><img src=""images/choice_trial_15.png"" style=""width: 408px; height: 417px;""></div></div>",j,delaylearn,learning,trial,67MAcrKZBwTYp4DQZmaXqO1QqPA3,67MAcrKZBwTYp4DQZmaXqO1QqPA3,2.0,images/choice_trial_8.png,images/choice_trial_15.png,images/pattern_7.png,j,f,750.0,8.0,15.0,6.0,0.0,17.0,0.0,1.0,15.0,90.0,,,,,,59e7232f24d7bf00012f112e,09:10:10,27/02/2024
html-keyboard-response,92,169702,0.0-40.0-1.0,,"<div style=""display: flex; flex-direction: column; align-items: center; margin-top: -40px;""><img src=""images/pattern_7.png"" style=""width: 234px; height: 230px; margin-top: -50px;""><div style=""display: flex; justify-content: space-between; margin-top: 33px;""><img src=""images/choice_trial_15.png"" style=""width: 408px; height: 417px; margin-left:608px;""></div></div>",,delaylearn,learning,display_response,67MAcrKZBwTYp4DQZmaXqO1QqPA3,67MAcrKZBwTYp4DQZmaXqO1QqPA3,,,,,,,,,,,,,,,,,chosen stimuli: images/choice_trial_15.png,,,,,59e7232f24d7bf00012f112e,09:10:10,27/02/2024
html-keyboard-response,93,170465,0.0-40.0-2.0,,,,delaylearn,learning,feedback_duration_window,67MAcrKZBwTYp4DQZmaXqO1QqPA3,67MAcrKZBwTYp4DQZmaXqO1QqPA3,,,,,,,,,,,,,,,,,,750.0,,,,59e7232f24d7bf00012f112e,09:10:10,27/02/2024
html-keyboard-response,94,171981,0.0-40.0-3.0,,<div style='margin:auto;width: auto; font-size: 150%'><span style='font-weight: bold; font-size: 100px; color: green;'>+10 points!</span><br><br></div>,,delaylearn,learning,feedback_image_window,67MAcrKZBwTYp4DQZmaXqO1QqPA3,67MAcrKZBwTYp4DQZmaXqO1QqPA3,,,,,,,,,,,,,,,,,,,,,,59e7232f24d7bf00012f112e,09:10:10,27/02/2024
html-keyboard-response,95,174292,0.0-41.0,,"<div style=""font-size:100px;"">+</div>",,delaylearn,learning,ITI,67MAcrKZBwTYp4DQZmaXqO1QqPA3,67MAcrKZBwTYp4DQZmaXqO1QqPA3,,,,,,,,,,,,,,,,,,,2305.0,,,59e7232f24d7bf00012f112e,09:10:10,27/02/2024
html-keyboard-response,96,175537,0.0-42.0-0.0,1243.4000000059605,"<div style=""display: flex; flex-direction: column; align-items: center; margin-top: -40px;""><img src=""images/pattern_1.png"" style=""width: 234px; height: 230px; margin-top: -50px;""><div style=""display: flex; justify-content: space-between; margin-top: 33px;""><img src=""images/choice_trial_3.png"" style=""width: 408px; height: 417px; margin-right: 200px;""><img src=""images/choice_trial_10.png"" style=""width: 408px; height: 417px;""></div></div>",j,delaylearn,learning,trial,67MAcrKZBwTYp4DQZmaXqO1QqPA3,67MAcrKZBwTYp4DQZmaXqO1QqPA3,2.0,images/choice_trial_3.png,images/choice_trial_10.png,images/pattern_1.png,f,f,7000.0,3.0,10.0,1.0,0.0,18.0,0.0,0.0,10.0,90.0,,,,,,59e7232f24d7bf00012f112e,09:10:10,27/02/2024
html-keyboard-response,97,176539,0.0-42.0-1.0,,"<div style=""display: flex; flex-direction: column; align-items: center; margin-top: -40px;""><img src=""images/pattern_1.png"" style=""width: 234px; height: 230px; margin-top: -50px;""><div style=""display: flex; justify-content: space-between; margin-top: 33px;""><img src=""images/choice_trial_10.png"" style=""width: 408px; height: 417px; margin-left:608px;""></div></div>",,delaylearn,learning,display_response,67MAcrKZBwTYp4DQZmaXqO1QqPA3,67MAcrKZBwTYp4DQZmaXqO1QqPA3,,,,,,,,,,,,,,,,,chosen stimuli: images/choice_trial_10.png,,,,,59e7232f24d7bf00012f112e,09:10:10,27/02/2024
html-keyboard-response,98,183547,0.0-42.0-2.0,,,,delaylearn,learning,feedback_duration_window,67MAcrKZBwTYp4DQZmaXqO1QqPA3,67MAcrKZBwTYp4DQZmaXqO1QqPA3,,,,,,,,,,,,,,,,,,7000.0,,,,59e7232f24d7bf00012f112e,09:10:10,27/02/2024
html-keyboard-response,99,185055,0.0-42.0-3.0,,<div style='margin:auto;width: auto; font-size: 150%'><span style='font-weight: bold; font-size: 100px; color: red;'>0 points!</span><br><br></div>,,delaylearn,learning,feedback_image_window,67MAcrKZBwTYp4DQZmaXqO1QqPA3,67MAcrKZBwTYp4DQZmaXqO1QqPA3,,,,,,,,,,,,,,,,,,,,,,59e7232f24d7bf00012f112e,09:10:10,27/02/2024
html-keyboard-response,100,187501,0.0-43.0,,"<div style=""font-size:100px;"">+</div>",,delaylearn,learning,ITI,67MAcrKZBwTYp4DQZmaXqO1QqPA3,67MAcrKZBwTYp4DQZmaXqO1QqPA3,,,,,,,,,,,,,,,,,,,2435.0,,,59e7232f24d7bf00012f112e,09:10:10,27/02/2024
html-keyboard-response,101,188161,0.0-44.0-0.0,658.4000000059605,"<div style=""display: flex; flex-direction: column; align-items: center; margin-top: -40px;""><img src=""images/pattern_6.png"" style=""width: 234px; height: 230px; margin-top: -50px;""><div style=""display: flex; justify-content: space-between; margin-top: 33px;""><img src=""images/choice_trial_5.png"" style=""width: 408px; height: 417px; margin-right: 200px;""><img src=""images/choice_trial_11.png"" style=""width: 408px; height: 417px;""></div></div>",f,delaylearn,learning,trial,67MAcrKZBwTYp4DQZmaXqO1QqPA3,67MAcrKZBwTYp4DQZmaXqO1QqPA3,2.0,images/choice_trial_5.png,images/choice_trial_11.png,images/pattern_6.png,j,j,750.0,5.0,11.0,5.0,1.0,19.0,0.0,0.0,5.0,90.0,,,,,,59e7232f24d7bf00012f112e,09:10:10,27/02/2024
html-keyboard-response,102,189170,0.0-44.0-1.0,,"<div style=""display: flex; flex-direction: column; align-items: center; margin-top: -40px;""><img src=""images/pattern_6.png"" style=""width: 234px; height: 230px; margin-top: -50px;""><div style=""display: flex; justify-content: space-between; margin-top: 33px;""><img src=""images/choice_trial_5.png"" style=""width: 408px; height: 417px; margin-right: 608px;""></div></div>",,delaylearn,learning,display_response,67MAcrKZBwTYp4DQZmaXqO1QqPA3,67MAcrKZBwTYp4DQZmaXqO1QqPA3,,,,,,,,,,,,,,,,,chosen stimuli: images/choice_trial_5.png,,,,,59e7232f24d7bf00012f112e,09:10:10,27/02/2024
html-keyboard-response,103,189926,0.0-44.0-2.0,,,,delaylearn,learning,feedback_duration_window,67MAcrKZBwTYp4DQZmaXqO1QqPA3,67MAcrKZBwTYp4DQZmaXqO1QqPA3,,,,,,,,,,,,,,,,,,750.0,,,,59e7232f24d7bf00012f112e,09:10:10,27/02/2024
html-keyboard-response,104,191431,0.0-44.0-3.0,,<div style='margin:auto;width: auto; font-size: 150%'><span style='font-weight: bold; font-size: 100px; color: red;'>0 points!</span><br><br></div>,,delaylearn,learning,feedback_image_window,67MAcrKZBwTYp4DQZmaXqO1QqPA3,67MAcrKZBwTYp4DQZmaXqO1QqPA3,,,,,,,,,,,,,,,,,,,,,,59e7232f24d7bf00012f112e,09:10:10,27/02/2024
html-keyboard-response,105,193352,0.0-45.0,,"<div style=""font-size:100px;"">+</div>",,delaylearn,learning,ITI,67MAcrKZBwTYp4DQZmaXqO1QqPA3,67MAcrKZBwTYp4DQZmaXqO1QqPA3,,,,,,,,,,,,,,,,,,,1909.0,,,59e7232f24d7bf00012f112e,09:10:10,27/02/2024
html-keyboard-response,106,194202,0.0-46.0-0.0,849.1999999880791,"<div style=""display: flex; flex-direction: column; align-items: center; margin-top: -40px;""><img src=""images/pattern_4.png"" style=""width: 234px; height: 230px; margin-top: -50px;""><div style=""display: flex; justify-content: space-between; margin-top: 33px;""><img src=""images/choice_trial_4.png"" style=""width: 408px; height: 417px; margin-right: 200px;""><img src=""images/choice_trial_16.png"" style=""width: 408px; height: 417px;""></div></div>",f,delaylearn,learning,trial,67MAcrKZBwTYp4DQZmaXqO1QqPA3,67MAcrKZBwTYp4DQZmaXqO1QqPA3,2.0,images/choice_trial_4.png,images/choice_trial_16.png,images/pattern_4.png,f,f,7000.0,4.0,16.0,3.0,0.0,20.0,1.0,1.0,4.0,100.0,,,,,,59e7232f24d7bf00012f112e,09:10:10,27/02/2024
html-keyboard-response,107,195210,0.0-46.0-1.0,,"<div style=""display: flex; flex-direction: column; align-items: center; margin-top: -40px;""><img src=""images/pattern_4.png"" style=""width: 234px; height: 230px; margin-top: -50px;""><div style=""display: flex; justify-content: space-between; margin-top: 33px;""><img src=""images/choice_trial_4.png"" style=""width: 408px; height: 417px; margin-right: 608px;""></div></div>",,delaylearn,learning,display_response,67MAcrKZBwTYp4DQZmaXqO1QqPA3,67MAcrKZBwTYp4DQZmaXqO1QqPA3,,,,,,,,,,,,,,,,,chosen stimuli: images/choice_trial_4.png,,,,,59e7232f24d7bf00012f112e,09:10:10,27/02/2024
html-keyboard-response,108,202216,0.0-46.0-2.0,,,,delaylearn,learning,feedback_duration_window,67MAcrKZBwTYp4DQZmaXqO1QqPA3,67MAcrKZBwTYp4DQZmaXqO1QqPA3,,,,,,,,,,,,,,,,,,7000.0,,,,59e7232f24d7bf00012f112e,09:10:10,27/02/2024
html-keyboard-response,109,203718,0.0-46.0-3.0,,<div style='margin:auto;width: auto; font-size: 150%'><span style='font-weight: bold; font-size: 100px; color: green;'>+10 points!</span><br><br></div>,,delaylearn,learning,feedback_image_window,67MAcrKZBwTYp4DQZmaXqO1QqPA3,67MAcrKZBwTYp4DQZmaXqO1QqPA3,,,,,,,,,,,,,,,,,,,,,,59e7232f24d7bf00012f112e,09:10:10,27/02/2024
html-keyboard-response,110,204230,0.0-47.0-0.0,,,,,,mood_trial_fixation,67MAcrKZBwTYp4DQZmaXqO1QqPA3,,,,,,,,,,,,,,,,,,,,,,,59e7232f24d7bf00012f112e,09:10:10,27/02/2024
lmdlab-html-vas-response,111,208502,0.0-47.0-1.0,3263.0,How happy are you right now?,0.6111111111111112,delaylearn,learning,mood_trial,67MAcrKZBwTYp4DQZmaXqO1QqPA3,67MAcrKZBwTYp4DQZmaXqO1QqPA3,,,,,,,,,,,,,,,,,,,,"['Very unhappy', 'Very happy']",,59e7232f24d7bf00012f112e,09:10:10,27/02/2024
html-keyboard-response,112,210194,0.0-48.0,,"<div style=""font-size:100px;"">+</div>",,delaylearn,learning,ITI,67MAcrKZBwTYp4DQZmaXqO1QqPA3,67MAcrKZBwTYp4DQZmaXqO1QqPA3,,,,,,,,,,,,,,,,,,,1686.0,,,59e7232f24d7bf00012f112e,09:10:10,27/02/2024
html-keyboard-response,113,213206,0.0-49.0-0.0,,"<div style=""display: flex; flex-direction: column; align-items: center; margin-top: -40px;""><img src=""images/pattern_7.png"" style=""width: 234px; height: 230px; margin-top: -50px;""><div style=""display: flex; justify-content: space-between; margin-top: 33px;""><img src=""images/choice_trial_15.png"" style=""width: 408px; height: 417px; margin-right: 200px;""><img src=""images/choice_trial_8.png"" style=""width: 408px; height: 417px;""></div></div>",,delaylearn,learning,trial,67MAcrKZBwTYp4DQZmaXqO1QqPA3,67MAcrKZBwTYp4DQZmaXqO1QqPA3,2.0,images/choice_trial_15.png,images/choice_trial_8.png,images/pattern_7.png,j,j,750.0,15.0,8.0,6.0,1.0,21.0,0.0,0.0,0.0,100.0,,,,,,59e7232f24d7bf00012f112e,09:10:10,27/02/2024
html-keyboard-response,114,214220,0.0-49.0-1.0,,<div style='font-weight: bold; font-size: 75px; color: red;'>Missed Trial <br><br><br><br> Please respond faster</div>,,delaylearn,learning,display_response,67MAcrKZBwTYp4DQZmaXqO1QqPA3,67MAcrKZBwTYp4DQZmaXqO1QqPA3,,,,,,,,,,,,,,,,,Missed trial,,,,,59e7232f24d7bf00012f112e,09:10:10,27/02/2024
html-keyboard-response,115,214225,0.0-49.0-2.0,,,,delaylearn,learning,feedback_duration_window,67MAcrKZBwTYp4DQZmaXqO1QqPA3,67MAcrKZBwTYp4DQZmaXqO1QqPA3,,,,,,,,,,,,,,,,,,0.0,,,,59e7232f24d7bf00012f112e,09:10:10,27/02/2024
html-keyboard-response,116,214230,0.0-49.0-3.0,,,,delaylearn,learning,feedback_image_window,67MAcrKZBwTYp4DQZmaXqO1QqPA3,67MAcrKZBwTYp4DQZmaXqO1QqPA3,,,,,,,,,,,,,,,,,,,,,,59e7232f24d7bf00012f112e,09:10:10,27/02/2024
html-keyboard-response,117,216688,0.0-50.0,,"<div style=""font-size:100px;"">+</div>",,delaylearn,learning,ITI,67MAcrKZBwTYp4DQZmaXqO1QqPA3,67MAcrKZBwTYp4DQZmaXqO1QqPA3,,,,,,,,,,,,,,,,,,,2443.0,,,59e7232f24d7bf00012f112e,09:10:10,27/02/2024
html-keyboard-response,118,217435,0.0-51.0-0.0,745.5999999940395,"<div style=""display: flex; flex-direction: column; align-items: center; margin-top: -40px;""><img src=""images/pattern_1.png"" style=""width: 234px; height: 230px; margin-top: -50px;""><div style=""display: flex; justify-content: space-between; margin-top: 33px;""><img src=""images/choice_trial_10.png"" style=""width: 408px; height: 417px; margin-right: 200px;""><img src=""images/choice_trial_3.png"" style=""width: 408px; height: 417px;""></div></div>",f,delaylearn,learning,trial,67MAcrKZBwTYp4DQZmaXqO1QqPA3,67MAcrKZBwTYp4DQZmaXqO1QqPA3,2.0,images/choice_trial_10.png,images/choice_trial_3.png,images/pattern_1.png,f,j,7000.0,10.0,3.0,1.0,1.0,22.0,0.0,1.0,10.0,110.0,,,,,,59e7232f24d7bf00012f112e,09:10:10,27/02/2024
html-keyboard-response,119,218441,0.0-51.0-1.0,,"<div style=""display: flex; flex-direction: column; align-items: center; margin-top: -40px;""><img src=""images/pattern_1.png"" style=""width: 234px; height: 230px; margin-top: -50px;""><div style=""display: flex; justify-content: space-between; margin-top: 33px;""><img src=""images/choice_trial_10.png"" style=""width: 408px; height: 417px; margin-right: 608px;""></div></div>",,delaylearn,learning,display_response,67MAcrKZBwTYp4DQZmaXqO1QqPA3,67MAcrKZBwTYp4DQZmaXqO1QqPA3,,,,,,,,,,,,,,,,,chosen stimuli: images/choice_trial_10.png,,,,,59e7232f24d7bf00012f112e,09:10:10,27/02/2024
html-keyboard-response,120,225450,0.0-51.0-2.0,,,,delaylearn,learning,feedback_duration_window,67MAcrKZBwTYp4DQZmaXqO1QqPA3,67MAcrKZBwTYp4DQZmaXqO1QqPA3,,,,,,,,,,,,,,,,,,7000.0,,,,59e7232f24d7bf00012f112e,09:10:10,27/02/2024
html-keyboard-response,121,226961,0.0-51.0-3.0,,<div style='margin:auto;width: auto; font-size: 150%'><span style='font-weight: bold; font-size: 100px; color: green;'>+10 points!</span><br><br></div>,,delaylearn,learning,feedback_image_window,67MAcrKZBwTYp4DQZmaXqO1QqPA3,67MAcrKZBwTYp4DQZmaXqO1QqPA3,,,,,,,,,,,,,,,,,,,,,,59e7232f24d7bf00012f112e,09:10:10,27/02/2024
html-keyboard-response,122,228716,0.0-52.0,,"<div style=""font-size:100px;"">+</div>",,delaylearn,learning,ITI,67MAcrKZBwTYp4DQZmaXqO1QqPA3,67MAcrKZBwTYp4DQZmaXqO1QqPA3,,,,,,,,,,,,,,,,,,,1741.0,,,59e7232f24d7bf00012f112e,09:10:10,27/02/2024
html-keyboard-response,123,229710,0.0-53.0-0.0,992.6999999880791,"<div style=""display: flex; flex-direction: column; align-items: center; margin-top: -40px;""><img src=""images/pattern_5.png"" style=""width: 234px; height: 230px; margin-top: -50px;""><div style=""display: flex; justify-content: space-between; margin-top: 33px;""><img src=""images/choice_trial_9.png"" style=""width: 408px; height: 417px; margin-right: 200px;""><img src=""images/choice_trial_2.png"" style=""width: 408px; height: 417px;""></div></div>",j,delaylearn,learning,trial,67MAcrKZBwTYp4DQZmaXqO1QqPA3,67MAcrKZBwTYp4DQZmaXqO1QqPA3,2.0,images/choice_trial_9.png,images/choice_trial_2.png,images/pattern_5.png,j,j,750.0,9.0,2.0,4.0,1.0,23.0,1.0,1.0,2.0,120.0,,,,,,59e7232f24d7bf00012f112e,09:10:10,27/02/2024
html-keyboard-response,124,230716,0.0-53.0-1.0,,"<div style=""display: flex; flex-direction: column; align-items: center; margin-top: -40px;""><img src=""images/pattern_5.png"" style=""width: 234px; height: 230px; margin-top: -50px;""><div style=""display: flex; justify-content: space-between; margin-top: 33px;""><img src=""images/choice_trial_2.png"" style=""width: 408px; height: 417px; margin-left:608px;""></div></div>",,delaylearn,learning,display_response,67MAcrKZBwTYp4DQZmaXqO1QqPA3,67MAcrKZBwTYp4DQZmaXqO1QqPA3,,,,,,,,,,,,,,,,,chosen stimuli: images/choice_trial_2.png,,,,,59e7232f24d7bf00012f112e,09:10:10,27/02/2024
html-keyboard-response,125,231473,0.0-53.0-2.0,,,,delaylearn,learning,feedback_duration_window,67MAcrKZBwTYp4DQZmaXqO1QqPA3,67MAcrKZBwTYp4DQZmaXqO1QqPA3,,,,,,,,,,,,,,,,,,750.0,,,,59e7232f24d7bf00012f112e,09:10:10,27/02/2024
html-keyboard-response,126,232979,0.0-53.0-3.0,,<div style='margin:auto;width: auto; font-size: 150%'><span style='font-weight: bold; font-size: 100px; color: green;'>+10 points!</span><br><br></div>,,delaylearn,learning,feedback_image_window,67MAcrKZBwTYp4DQZmaXqO1QqPA3,67MAcrKZBwTYp4DQZmaXqO1QqPA3,,,,,,,,,,,,,,,,,,,,,,59e7232f24d7bf00012f112e,09:10:10,27/02/2024
html-keyboard-response,127,235138,0.0-54.0,,"<div style=""font-size:100px;"">+</div>",,delaylearn,learning,ITI,67MAcrKZBwTYp4DQZmaXqO1QqPA3,67MAcrKZBwTYp4DQZmaXqO1QqPA3,,,,,,,,,,,,,,,,,,,2145.0,,,59e7232f24d7bf00012f112e,09:10:10,27/02/2024
html-keyboard-response,128,235649,0.0-55.0-0.0,509.90000000596046,"<div style=""display: flex; flex-direction: column; align-items: center; margin-top: -40px;""><img src=""images/pattern_3.png"" style=""width: 234px; height: 230px; margin-top: -50px;""><div style=""display: flex; justify-content: space-between; margin-top: 33px;""><img src=""images/choice_trial_14.png"" style=""width: 408px; height: 417px; margin-right: 200px;""><img src=""images/choice_trial_12.png"" style=""width: 408px; height: 417px;""></div></div>",f,delaylearn,learning,trial,67MAcrKZBwTYp4DQZmaXqO1QqPA3,67MAcrKZBwTYp4DQZmaXqO1QqPA3,2.0,images/choice_trial_14.png,images/choice_trial_12.png,images/pattern_3.png,j,j,7000.0,14.0,12.0,2.0,1.0,24.0,0.0,0.0,14.0,120.0,,,,,,59e7232f24d7bf00012f112e,09:10:10,27/02/2024
html-keyboard-response,129,236653,0.0-55.0-1.0,,"<div style=""display: flex; flex-direction: column; align-items: center; margin-top: -40px;""><img src=""images/pattern_3.png"" style=""width: 234px; height: 230px; margin-top: -50px;""><div style=""display: flex; justify-content: space-between; margin-top: 33px;""><img src=""images/choice_trial_14.png"" style=""width: 408px; height: 417px; margin-right: 608px;""></div></div>",,delaylearn,learning,display_response,67MAcrKZBwTYp4DQZmaXqO1QqPA3,67MAcrKZBwTYp4DQZmaXqO1QqPA3,,,,,,,,,,,,,,,,,chosen stimuli: images/choice_trial_14.png,,,,,59e7232f24d7bf00012f112e,09:10:10,27/02/2024
html-keyboard-response,130,243661,0.0-55.0-2.0,,,,delaylearn,learning,feedback_duration_window,67MAcrKZBwTYp4DQZmaXqO1QqPA3,67MAcrKZBwTYp4DQZmaXqO1QqPA3,,,,,,,,,,,,,,,,,,7000.0,,,,59e7232f24d7bf00012f112e,09:10:10,27/02/2024
html-keyboard-response,131,245166,0.0-55.0-3.0,,<div style='margin:auto;width: auto; font-size: 150%'><span style='font-weight: bold; font-size: 100px; color: red;'>0 points!</span><br><br></div>,,delaylearn,learning,feedback_image_window,67MAcrKZBwTYp4DQZmaXqO1QqPA3,67MAcrKZBwTYp4DQZmaXqO1QqPA3,,,,,,,,,,,,,,,,,,,,,,59e7232f24d7bf00012f112e,09:10:10,27/02/2024
lmdlab-html-vas-response,132,250093,0.0-56.0-0.0,3414.0,*How <b><u>confident</u></b> are you feeling about your answers at this moment?*,0.3432098765432099,rewlearn,rate_confidence,,67MAcrKZBwTYp4DQZmaXqO1QqPA3,67MAcrKZBwTYp4DQZmaXqO1QqPA3,,,,,,,,,,,,,,,,,,,,"['No confidence', 'Complete confidence']",,59e7232f24d7bf00012f112e,09:10:10,27/02/2024
lmdlab-rest-trial-limit,133,255342,0.0-56.0-1.0,3745.8999999910593,"<div style=""font-size:40px;""><b>Please take a break!</b><br><br><br><br><p>Great work: you earned undefined points.<br><br><br><p>You have completed part(s) 1 of 6.<br><br><br><br>When you are ready to continue<br><br><br>please click the button.</p><br><br>",0,delaylearn,learning,break,67MAcrKZBwTYp4DQZmaXqO1QqPA3,67MAcrKZBwTYp4DQZmaXqO1QqPA3,,,,,,,,,,,,,,,,,,,,,0.0,59e7232f24d7bf00012f112e,09:10:10,27/02/2024
html-keyboard-response,134,258348,0.0-56.0-2.0,,"<div style=""font-size:100px;"">+</div>",,delaylearn,learning,pre_fixation,67MAcrKZBwTYp4DQZmaXqO1QqPA3,,,,,,,,,,,,,,,,,,,,,,,59e7232f24d7bf00012f112e,09:10:10,27/02/2024
lmdlab-html-vas-response,135,261933,0.0-56.0-3.0-0.0,2574.0,How happy are you right now?,0.4839506172839506,delaylearn,learning,mood_baseline,67MAcrKZBwTYp4DQZmaXqO1QqPA3,67MAcrKZBwTYp4DQZmaXqO1QqPA3,,,,,,,,,,,,,,,,,,,,"['Very unhappy', 'Very happy']",,59e7232f24d7bf00012f112e,09:10:10,27/02/2024
html-keyboard-response,136,263439,0.0-56.0-3.0-1.0,,,,,,mood_baseline_fixation,67MAcrKZBwTYp4DQZmaXqO1QqPA3,,,,,,,,,,,,,,,,,,,,,,,59e7232f24d7bf00012f112e,09:10:10,27/02/2024
html-keyboard-response,137,264995,0.0-57.0,,"<div style=""font-size:100px;"">+</div>",,delaylearn,learning,ITI,67MAcrKZBwTYp4DQZmaXqO1QqPA3,67MAcrKZBwTYp4DQZmaXqO1QqPA3,,,,,,,,,,,,,,,,,,,1545.0,,,59e7232f24d7bf00012f112e,09:10:10,27/02/2024
html-keyboard-response,138,265721,0.0-58.0-0.0,725.0,"<div style=""display: flex; flex-direction: column; align-items: center; margin-top: -40px;""><img src=""images/pattern_7.png"" style=""width: 234px; height: 230px; margin-top: -50px;""><div style=""display: flex; justify-content: space-between; margin-top: 33px;""><img src=""images/choice_trial_15.png"" style=""width: 408px; height: 417px; margin-right: 200px;""><img src=""images/choice_trial_8.png"" style=""width: 408px; height: 417px;""></div></div>",j,delaylearn,learning,trial,67MAcrKZBwTYp4DQZmaXqO1QqPA3,67MAcrKZBwTYp4DQZmaXqO1QqPA3,2.0,images/choice_trial_15.png,images/choice_trial_8.png,images/pattern_7.png,j,j,750.0,15.0,8.0,6.0,1.0,25.0,1.0,1.0,8.0,130.0,,,,,,59e7232f24d7bf00012f112e,09:10:10,27/02/2024
html-keyboard-response,139,266732,0.0-58.0-1.0,,"<div style=""display: flex; flex-direction: column; align-items: center; margin-top: -40px;""><img src=""images/pattern_7.png"" style=""width: 234px; height: 230px; margin-top: -50px;""><div style=""display: flex; justify-content: space-between; margin-top: 33px;""><img src=""images/choice_trial_8.png"" style=""width: 408px; height: 417px; margin-left:608px;""></div></div>",,delaylearn,learning,display_response,67MAcrKZBwTYp4DQZmaXqO1QqPA3,67MAcrKZBwTYp4DQZmaXqO1QqPA3,,,,,,,,,,,,,,,,,chosen stimuli: images/choice_trial_8.png,,,,,59e7232f24d7bf00012f112e,09:10:10,27/02/2024
html-keyboard-response,140,267492,0.0-58.0-2.0,,,,delaylearn,learning,feedback_duration_window,67MAcrKZBwTYp4DQZmaXqO1QqPA3,67MAcrKZBwTYp4DQZmaXqO1QqPA3,,,,,,,,,,,,,,,,,,750.0,,,,59e7232f24d7bf00012f112e,09:10:10,27/02/2024
html-keyboard-response,141,269006,0.0-58.0-3.0,,<div style='margin:auto;width: auto; font-size: 150%'><span style='font-weight: bold; font-size: 100px; color: green;'>+10 points!</span><br><br></div>,,delaylearn,learning,feedback_image_window,67MAcrKZBwTYp4DQZmaXqO1QqPA3,67MAcrKZBwTYp4DQZmaXqO1QqPA3,,,,,,,,,,,,,,,,,,,,,,59e7232f24d7bf00012f112e,09:10:10,27/02/2024
html-keyboard-response,142,269518,0.0-59.0-0.0,,,,,,mood_trial_fixation,67MAcrKZBwTYp4DQZmaXqO1QqPA3,,,,,,,,,,,,,,,,,,,,,,,59e7232f24d7bf00012f112e,09:10:10,27/02/2024
lmdlab-html-vas-response,143,272588,0.0-59.0-1.0,2055.0,How happy are you right now?,0.5074074074074074,delaylearn,learning,mood_trial,67MAcrKZBwTYp4DQZmaXqO1QqPA3,67MAcrKZBwTYp4DQZmaXqO1QqPA3,,,,,,,,,,,,,,,,,,,,"['Very unhappy', 'Very happy']",,59e7232f24d7bf00012f112e,09:10:10,27/02/2024
html-keyboard-response,144,274898,0.0-60.0,,"<div style=""font-size:100px;"">+</div>",,delaylearn,learning,ITI,67MAcrKZBwTYp4DQZmaXqO1QqPA3,67MAcrKZBwTYp4DQZmaXqO1QqPA3,,,,,,,,,,,,,,,,,,,2295.0,,,59e7232f24d7bf00012f112e,09:10:10,27/02/2024
html-keyboard-response,145,275870,0.0-61.0-0.0,971.7000000029802,"<div style=""display: flex; flex-direction: column; align-items: center; margin-top: -40px;""><img src=""images/pattern_1.png"" style=""width: 234px; height: 230px; margin-top: -50px;""><div style=""display: flex; justify-content: space-between; margin-top: 33px;""><img src=""images/choice_trial_3.png"" style=""width: 408px; height: 417px; margin-right: 200px;""><img src=""images/choice_trial_10.png"" style=""width: 408px; height: 417px;""></div></div>",f,delaylearn,learning,trial,67MAcrKZBwTYp4DQZmaXqO1QqPA3,67MAcrKZBwTYp4DQZmaXqO1QqPA3,2.0,images/choice_trial_3.png,images/choice_trial_10.png,images/pattern_1.png,f,f,7000.0,3.0,10.0,1.0,0.0,26.0,1.0,1.0,3.0,140.0,,,,,,59e7232f24d7bf00012f112e,09:10:10,27/02/2024
html-keyboard-response,146,276875,0.0-61.0-1.0,,"<div style=""display: flex; flex-direction: column; align-items: center; margin-top: -40px;""><img src=""images/pattern_1.png"" style=""width: 234px; height: 230px; margin-top: -50px;""><div style=""display: flex; justify-content: space-between; margin-top: 33px;""><img src=""images/choice_trial_3.png"" style=""width: 408px; height: 417px; margin-right: 608px;""></div></div>",,delaylearn,learning,display_response,67MAcrKZBwTYp4DQZmaXqO1QqPA3,67MAcrKZBwTYp4DQZmaXqO1QqPA3,,,,,,,,,,,,,,,,,chosen stimuli: images/choice_trial_3.png,,,,,59e7232f24d7bf00012f112e,09:10:10,27/02/2024
html-keyboard-response,147,283889,0.0-61.0-2.0,,,,delaylearn,learning,feedback_duration_window,67MAcrKZBwTYp4DQZmaXqO1QqPA3,67MAcrKZBwTYp4DQZmaXqO1QqPA3,,,,,,,,,,,,,,,,,,7000.0,,,,59e7232f24d7bf00012f112e,09:10:10,27/02/2024
html-keyboard-response,148,285391,0.0-61.0-3.0,,<div style='margin:auto;width: auto; font-size: 150%'><span style='font-weight: bold; font-size: 100px; color: green;'>+10 points!</span><br><br></div>,,delaylearn,learning,feedback_image_window,67MAcrKZBwTYp4DQZmaXqO1QqPA3,67MAcrKZBwTYp4DQZmaXqO1QqPA3,,,,,,,,,,,,,,,,,,,,,,59e7232f24d7bf00012f112e,09:10:10,27/02/2024
html-keyboard-response,149,287387,0.0-62.0,,"<div style=""font-size:100px;"">+</div>",,delaylearn,learning,ITI,67MAcrKZBwTYp4DQZmaXqO1QqPA3,67MAcrKZBwTYp4DQZmaXqO1QqPA3,,,,,,,,,,,,,,,,,,,1982.0,,,59e7232f24d7bf00012f112e,09:10:10,27/02/2024
html-keyboard-response,150,288066,0.0-63.0-0.0,677.9000000059605,"<div style=""display: flex; flex-direction: column; align-items: center; margin-top: -40px;""><img src=""images/pattern_5.png"" style=""width: 234px; height: 230px; margin-top: -50px;""><div style=""display: flex; justify-content: space-between; margin-top: 33px;""><img src=""images/choice_trial_2.png"" style=""width: 408px; height: 417px; margin-right: 200px;""><img src=""images/choice_trial_9.png"" style=""width: 408px; height: 417px;""></div></div>",j,delaylearn,learning,trial,67MAcrKZBwTYp4DQZmaXqO1QqPA3,67MAcrKZBwTYp4DQZmaXqO1QqPA3,2.0,images/choice_trial_2.png,images/choice_trial_9.png,images/pattern_5.png,f,f,750.0,2.0,9.0,4.0,0.0,27.0,0.0,0.0,9.0,140.0,,,,,,59e7232f24d7bf00012f112e,09:10:10,27/02/2024
html-keyboard-response,151,289077,0.0-63.0-1.0,,"<div style=""display: flex; flex-direction: column; align-items: center; margin-top: -40px;""><img src=""images/pattern_5.png"" style=""width: 234px; height: 230px; margin-top: -50px;""><div style=""display: flex; justify-content: space-between; margin-top: 33px;""><img src=""images/choice_trial_9.png"" style=""width: 408px; height: 417px; margin-left:608px;""></div></div>",,delaylearn,learning,display_response,67MAcrKZBwTYp4DQZmaXqO1QqPA3,67MAcrKZBwTYp4DQZmaXqO1QqPA3,,,,,,,,,,,,,,,,,chosen stimuli: images/choice_trial_9.png,,,,,59e7232f24d7bf00012f112e,09:10:10,27/02/2024
html-keyboard-response,152,289839,0.0-63.0-2.0,,,,delaylearn,learning,feedback_duration_window,67MAcrKZBwTYp4DQZmaXqO1QqPA3,67MAcrKZBwTYp4DQZmaXqO1QqPA3,,,,,,,,,,,,,,,,,,750.0,,,,59e7232f24d7bf00012f112e,09:10:10,27/02/2024
html-keyboard-response,153,291343,0.0-63.0-3.0,,<div style='margin:auto;width: auto; font-size: 150%'><span style='font-weight: bold; font-size: 100px; color: red;'>0 points!</span><br><br></div>,,delaylearn,learning,feedback_image_window,67MAcrKZBwTYp4DQZmaXqO1QqPA3,67MAcrKZBwTYp4DQZmaXqO1QqPA3,,,,,,,,,,,,,,,,,,,,,,59e7232f24d7bf00012f112e,09:10:10,27/02/2024
html-keyboard-response,154,293527,0.0-64.0,,"<div style=""font-size:100px;"">+</div>",,delaylearn,learning,ITI,67MAcrKZBwTYp4DQZmaXqO1QqPA3,67MAcrKZBwTYp4DQZmaXqO1QqPA3,,,,,,,,,,,,,,,,,,,2173.0,,,59e7232f24d7bf00012f112e,09:10:10,27/02/2024
html-keyboard-response,155,294355,0.0-65.0-0.0,826.9000000059605,"<div style=""display: flex; flex-direction: column; align-items: center; margin-top: -40px;""><img src=""images/pattern_6.png"" style=""width: 234px; height: 230px; margin-top: -50px;""><div style=""display: flex; justify-content: space-between; margin-top: 33px;""><img src=""images/choice_trial_5.png"" style=""width: 408px; height: 417px; margin-right: 200px;""><img src=""images/choice_trial_11.png"" style=""width: 408px; height: 417px;""></div></div>",f,delaylearn,learning,trial,67MAcrKZBwTYp4DQZmaXqO1QqPA3,67MAcrKZBwTYp4DQZmaXqO1QqPA3,2.0,images/choice_trial_5.png,images/choice_trial_11.png,images/pattern_6.png,j,j,750.0,5.0,11.0,5.0,1.0,28.0,0.0,0.0,5.0,140.0,,,,,,59e7232f24d7bf00012f112e,09:10:10,27/02/2024
html-keyboard-response,156,295364,0.0-65.0-1.0,,"<div style=""display: flex; flex-direction: column; align-items: center; margin-top: -40px;""><img src=""images/pattern_6.png"" style=""width: 234px; height: 230px; margin-top: -50px;""><div style=""display: flex; justify-content: space-between; margin-top: 33px;""><img src=""images/choice_trial_5.png"" style=""width: 408px; height: 417px; margin-right: 608px;""></div></div>",,delaylearn,learning,display_response,67MAcrKZBwTYp4DQZmaXqO1QqPA3,67MAcrKZBwTYp4DQZmaXqO1QqPA3,,,,,,,,,,,,,,,,,chosen stimuli: images/choice_trial_5.png,,,,,59e7232f24d7bf00012f112e,09:10:10,27/02/2024
html-keyboard-response,157,296124,0.0-65.0-2.0,,,,delaylearn,learning,feedback_duration_window,67MAcrKZBwTYp4DQZmaXqO1QqPA3,67MAcrKZBwTYp4DQZmaXqO1QqPA3,,,,,,,,,,,,,,,,,,750.0,,,,59e7232f24d7bf00012f112e,09:10:10,27/02/2024
html-keyboard-response,158,297626,0.0-65.0-3.0,,<div style='margin:auto;width: auto; font-size: 150%'><span style='font-weight: bold; font-size: 100px; color: red;'>0 points!</span><br><br></div>,,delaylearn,learning,feedback_image_window,67MAcrKZBwTYp4DQZmaXqO1QqPA3,67MAcrKZBwTYp4DQZmaXqO1QqPA3,,,,,,,,,,,,,,,,,,,,,,59e7232f24d7bf00012f112e,09:10:10,27/02/2024
html-keyboard-response,159,298134,0.0-66.0-0.0,,,,,,mood_trial_fixation,67MAcrKZBwTYp4DQZmaXqO1QqPA3,,,,,,,,,,,,,,,,,,,,,,,59e7232f24d7bf00012f112e,09:10:10,27/02/2024
lmdlab-html-vas-response,160,301419,0.0-66.0-1.0,2278.0,How happy are you right now?,0.6382716049382716,delaylearn,learning,mood_trial,67MAcrKZBwTYp4DQZmaXqO1QqPA3,67MAcrKZBwTYp4DQZmaXqO1QqPA3,,,,,,,,,,,,,,,,,,,,"['Very unhappy', 'Very happy']",,59e7232f24d7bf00012f112e,09:10:10,27/02/2024
html-keyboard-response,161,303779,0.0-67.0,,"<div style=""font-size:100px;"">+</div>",,delaylearn,learning,ITI,67MAcrKZBwTYp4DQZmaXqO1QqPA3,67MAcrKZBwTYp4DQZmaXqO1QqPA3,,,,,,,,,,,,,,,,,,,2355.0,,,59e7232f24d7bf00012f112e,09:10:10,27/02/2024
html-keyboard-response,162,304593,0.0-68.0-0.0,812.7000000029802,"<div style=""display: flex; flex-direction: column; align-items: center; margin-top: -40px;""><img src=""images/pattern_4.png"" style=""width: 234px; height: 230px; margin-top: -50px;""><div style=""display: flex; justify-content: space-between; margin-top: 33px;""><img src=""images/choice_trial_16.png"" style=""width: 408px; height: 417px; margin-right: 200px;""><img src=""images/choice_trial_4.png"" style=""width: 408px; height: 417px;""></div></div>",f,delaylearn,learning,trial,67MAcrKZBwTYp4DQZmaXqO1QqPA3,67MAcrKZBwTYp4DQZmaXqO1QqPA3,2.0,images/choice_trial_16.png,images/choice_trial_4.png,images/pattern_4.png,j,j,7000.0,16.0,4.0,3.0,1.0,29.0,0.0,0.0,16.0,140.0,,,,,,59e7232f24d7bf00012f112e,09:10:10,27/02/2024
html-keyboard-response,163,305595,0.0-68.0-1.0,,"<div style=""display: flex; flex-direction: column; align-items: center; margin-top: -40px;""><img src=""images/pattern_4.png"" style=""width: 234px; height: 230px; margin-top: -50px;""><div style=""display: flex; justify-content: space-between; margin-top: 33px;""><img src=""images/choice_trial_16.png"" style=""width: 408px; height: 417px; margin-right: 608px;""></div></div>",,delaylearn,learning,display_response,67MAcrKZBwTYp4DQZmaXqO1QqPA3,67MAcrKZBwTYp4DQZmaXqO1QqPA3,,,,,,,,,,,,,,,,,chosen stimuli: images/choice_trial_16.png,,,,,59e7232f24d7bf00012f112e,09:10:10,27/02/2024
html-keyboard-response,164,312606,0.0-68.0-2.0,,,,delaylearn,learning,feedback_duration_window,67MAcrKZBwTYp4DQZmaXqO1QqPA3,67MAcrKZBwTYp4DQZmaXqO1QqPA3,,,,,,,,,,,,,,,,,,7000.0,,,,59e7232f24d7bf00012f112e,09:10:10,27/02/2024
html-keyboard-response,165,314115,0.0-68.0-3.0,,<div style='margin:auto;width: auto; font-size: 150%'><span style='font-weight: bold; font-size: 100px; color: red;'>0 points!</span><br><br></div>,,delaylearn,learning,feedback_image_window,67MAcrKZBwTYp4DQZmaXqO1QqPA3,67MAcrKZBwTYp4DQZmaXqO1QqPA3,,,,,,,,,,,,,,,,,,,,,,59e7232f24d7bf00012f112e,09:10:10,27/02/2024
html-keyboard-response,166,315915,0.0-69.0,,"<div style=""font-size:100px;"">+</div>",,delaylearn,learning,ITI,67MAcrKZBwTYp4DQZmaXqO1QqPA3,67MAcrKZBwTYp4DQZmaXqO1QqPA3,,,,,,,,,,,,,,,,,,,1796.0,,,59e7232f24d7bf00012f112e,09:10:10,27/02/2024
html-keyboard-response,167,316991,0.0-70.0-0.0,1074.5999999940395,"<div style=""display: flex; flex-direction: column; align-items: center; margin-top: -40px;""><img src=""images/pattern_3.png"" style=""width: 234px; height: 230px; margin-top: -50px;""><div style=""display: flex; justify-content: space-between; margin-top: 33px;""><img src=""images/choice_trial_14.png"" style=""width: 408px; height: 417px; margin-right: 200px;""><img src=""images/choice_trial_12.png"" style=""width: 408px; height: 417px;""></div></div>",j,delaylearn,learning,trial,67MAcrKZBwTYp4DQZmaXqO1QqPA3,67MAcrKZBwTYp4DQZmaXqO1QqPA3,2.0,images/choice_trial_14.png,images/choice_trial_12.png,images/pattern_3.png,j,j,7000.0,14.0,12.0,2.0,1.0,30.0,1.0,1.0,12.0,150.0,,,,,,59e7232f24d7bf00012f112e,09:10:10,27/02/2024
html-keyboard-response,168,318004,0.0-70.0-1.0,,"<div style=""display: flex; flex-direction: column; align-items: center; margin-top: -40px;""><img src=""images/pattern_3.png"" style=""width: 234px; height: 230px; margin-top: -50px;""><div style=""display: flex; justify-content: space-between; margin-top: 33px;""><img src=""images/choice_trial_12.png"" style=""width: 408px; height: 417px; margin-left:608px;""></div></div>",,delaylearn,learning,display_response,67MAcrKZBwTYp4DQZmaXqO1QqPA3,67MAcrKZBwTYp4DQZmaXqO1QqPA3,,,,,,,,,,,,,,,,,chosen stimuli: images/choice_trial_12.png,,,,,59e7232f24d7bf00012f112e,09:10:10,27/02/2024
html-keyboard-response,169,325011,0.0-70.0-2.0,,,,delaylearn,learning,feedback_duration_window,67MAcrKZBwTYp4DQZmaXqO1QqPA3,67MAcrKZBwTYp4DQZmaXqO1QqPA3,,,,,,,,,,,,,,,,,,7000.0,,,,59e7232f24d7bf00012f112e,09:10:10,27/02/2024
html-keyboard-response,170,326516,0.0-70.0-3.0,,<div style='margin:auto;width: auto; font-size: 150%'><span style='font-weight: bold; font-size: 100px; color: green;'>+10 points!</span><br><br></div>,,delaylearn,learning,feedback_image_window,67MAcrKZBwTYp4DQZmaXqO1QqPA3,67MAcrKZBwTYp4DQZmaXqO1QqPA3,,,,,,,,,,,,,,,,,,,,,,59e7232f24d7bf00012f112e,09:10:10,27/02/2024
html-keyboard-response,171,328264,0.0-71.0,,"<div style=""font-size:100px;"">+</div>",,delaylearn,learning,ITI,67MAcrKZBwTYp4DQZmaXqO1QqPA3,67MAcrKZBwTYp4DQZmaXqO1QqPA3,,,,,,,,,,,,,,,,,,,1736.0,,,59e7232f24d7bf00012f112e,09:10:10,27/02/2024
html-keyboard-response,172,329242,0.0-72.0-0.0,977.0999999940395,"<div style=""display: flex; flex-direction: column; align-items: center; margin-top: -40px;""><img src=""images/pattern_5.png"" style=""width: 234px; height: 230px; margin-top: -50px;""><div style=""display: flex; justify-content: space-between; margin-top: 33px;""><img src=""images/choice_trial_2.png"" style=""width: 408px; height: 417px; margin-right: 200px;""><img src=""images/choice_trial_9.png"" style=""width: 408px; height: 417px;""></div></div>",f,delaylearn,learning,trial,67MAcrKZBwTYp4DQZmaXqO1QqPA3,67MAcrKZBwTYp4DQZmaXqO1QqPA3,2.0,images/choice_trial_2.png,images/choice_trial_9.png,images/pattern_5.png,j,f,750.0,2.0,9.0,4.0,0.0,31.0,1.0,0.0,2.0,150.0,,,,,,59e7232f24d7bf00012f112e,09:10:10,27/02/2024
html-keyboard-response,173,330246,0.0-72.0-1.0,,"<div style=""display: flex; flex-direction: column; align-items: center; margin-top: -40px;""><img src=""images/pattern_5.png"" style=""width: 234px; height: 230px; margin-top: -50px;""><div style=""display: flex; justify-content: space-between; margin-top: 33px;""><img src=""images/choice_trial_2.png"" style=""width: 408px; height: 417px; margin-right: 608px;""></div></div>",,delaylearn,learning,display_response,67MAcrKZBwTYp4DQZmaXqO1QqPA3,67MAcrKZBwTYp4DQZmaXqO1QqPA3,,,,,,,,,,,,,,,,,chosen stimuli: images/choice_trial_2.png,,,,,59e7232f24d7bf00012f112e,09:10:10,27/02/2024
html-keyboard-response,174,331003,0.0-72.0-2.0,,,,delaylearn,learning,feedback_duration_window,67MAcrKZBwTYp4DQZmaXqO1QqPA3,67MAcrKZBwTYp4DQZmaXqO1QqPA3,,,,,,,,,,,,,,,,,,750.0,,,,59e7232f24d7bf00012f112e,09:10:10,27/02/2024
html-keyboard-response,175,332515,0.0-72.0-3.0,,<div style='margin:auto;width: auto; font-size: 150%'><span style='font-weight: bold; font-size: 100px; color: red;'>0 points!</span><br><br></div>,,delaylearn,learning,feedback_image_window,67MAcrKZBwTYp4DQZmaXqO1QqPA3,67MAcrKZBwTYp4DQZmaXqO1QqPA3,,,,,,,,,,,,,,,,,,,,,,59e7232f24d7bf00012f112e,09:10:10,27/02/2024
html-keyboard-response,176,334161,0.0-73.0,,"<div style=""font-size:100px;"">+</div>",,delaylearn,learning,ITI,67MAcrKZBwTYp4DQZmaXqO1QqPA3,67MAcrKZBwTYp4DQZmaXqO1QqPA3,,,,,,,,,,,,,,,,,,,1632.0,,,59e7232f24d7bf00012f112e,09:10:10,27/02/2024
html-keyboard-response,177,334879,0.0-74.0-0.0,714.4000000059605,"<div style=""display: flex; flex-direction: column; align-items: center; margin-top: -40px;""><img src=""images/pattern_1.png"" style=""width: 234px; height: 230px; margin-top: -50px;""><div style=""display: flex; justify-content: space-between; margin-top: 33px;""><img src=""images/choice_trial_3.png"" style=""width: 408px; height: 417px; margin-right: 200px;""><img src=""images/choice_trial_10.png"" style=""width: 408px; height: 417px;""></div></div>",j,delaylearn,learning,trial,67MAcrKZBwTYp4DQZmaXqO1QqPA3,67MAcrKZBwTYp4DQZmaXqO1QqPA3,2.0,images/choice_trial_3.png,images/choice_trial_10.png,images/pattern_1.png,f,f,7000.0,3.0,10.0,1.0,0.0,32.0,0.0,0.0,10.0,150.0,,,,,,59e7232f24d7bf00012f112e,09:10:10,27/02/2024
html-keyboard-response,178,335896,0.0-74.0-1.0,,"<div style=""display: flex; flex-direction: column; align-items: center; margin-top: -40px;""><img src=""images/pattern_1.png"" style=""width: 234px; height: 230px; margin-top: -50px;""><div style=""display: flex; justify-content: space-between; margin-top: 33px;""><img src=""images/choice_trial_10.png"" style=""width: 408px; height: 417px; margin-left:608px;""></div></div>",,delaylearn,learning,display_response,67MAcrKZBwTYp4DQZmaXqO1QqPA3,67MAcrKZBwTYp4DQZmaXqO1QqPA3,,,,,,,,,,,,,,,,,chosen stimuli: images/choice_trial_10.png,,,,,59e7232f24d7bf00012f112e,09:10:10,27/02/2024
html-keyboard-response,179,342907,0.0-74.0-2.0,,,,delaylearn,learning,feedback_duration_window,67MAcrKZBwTYp4DQZmaXqO1QqPA3,67MAcrKZBwTYp4DQZmaXqO1QqPA3,,,,,,,,,,,,,,,,,,7000.0,,,,59e7232f24d7bf00012f112e,09:10:10,27/02/2024
html-keyboard-response,180,344421,0.0-74.0-3.0,,<div style='margin:auto;width: auto; font-size: 150%'><span style='font-weight: bold; font-size: 100px; color: red;'>0 points!</span><br><br></div>,,delaylearn,learning,feedback_image_window,67MAcrKZBwTYp4DQZmaXqO1QqPA3,67MAcrKZBwTYp4DQZmaXqO1QqPA3,,,,,,,,,,,,,,,,,,,,,,59e7232f24d7bf00012f112e,09:10:10,27/02/2024
html-keyboard-response,181,344934,0.0-75.0-0.0,,,,,,mood_trial_fixation,67MAcrKZBwTYp4DQZmaXqO1QqPA3,,,,,,,,,,,,,,,,,,,,,,,59e7232f24d7bf00012f112e,09:10:10,27/02/2024
lmdlab-html-vas-response,182,348608,0.0-75.0-1.0,2662.0,How happy are you right now?,0.6123456790123457,delaylearn,learning,mood_trial,67MAcrKZBwTYp4DQZmaXqO1QqPA3,67MAcrKZBwTYp4DQZmaXqO1QqPA3,,,,,,,,,,,,,,,,,,,,"['Very unhappy', 'Very happy']",,59e7232f24d7bf00012f112e,09:10:10,27/02/2024
html-keyboard-response,183,350750,0.0-76.0,,"<div style=""font-size:100px;"">+</div>",,delaylearn,learning,ITI,67MAcrKZBwTYp4DQZmaXqO1QqPA3,67MAcrKZBwTYp4DQZmaXqO1QqPA3,,,,,,,,,,,,,,,,,,,2133.0,,,59e7232f24d7bf00012f112e,09:10:10,27/02/2024
html-keyboard-response,184,351720,0.0-77.0-0.0,969.5,"<div style=""display: flex; flex-direction: column; align-items: center; margin-top: -40px;""><img src=""images/pattern_6.png"" style=""width: 234px; height: 230px; margin-top: -50px;""><div style=""display: flex; justify-content: space-between; margin-top: 33px;""><img src=""images/choice_trial_11.png"" style=""width: 408px; height: 417px; margin-right: 200px;""><img src=""images/choice_trial_5.png"" style=""width: 408px; height: 417px;""></div></div>",j,delaylearn,learning,trial,67MAcrKZBwTYp4DQZmaXqO1QqPA3,67MAcrKZBwTYp4DQZmaXqO1QqPA3,2.0,images/choice_trial_11.png,images/choice_trial_5.png,images/pattern_6.png,j,f,750.0,11.0,5.0,5.0,0.0,33.0,0.0,1.0,5.0,160.0,,,,,,59e7232f24d7bf00012f112e,09:10:10,27/02/2024
html-keyboard-response,185,352729,0.0-77.0-1.0,,"<div style=""display: flex; flex-direction: column; align-items: center; margin-top: -40px;""><img src=""images/pattern_6.png"" style=""width: 234px; height: 230px; margin-top: -50px;""><div style=""display: flex; justify-content: space-between; margin-top: 33px;""><img src=""images/choice_trial_5.png"" style=""width: 408px; height: 417px; margin-left:608px;""></div></div>",,delaylearn,learning,display_response,67MAcrKZBwTYp4DQZmaXqO1QqPA3,67MAcrKZBwTYp4DQZmaXqO1QqPA3,,,,,,,,,,,,,,,,,chosen stimuli: images/choice_trial_5.png,,,,,59e7232f24d7bf00012f112e,09:10:10,27/02/2024
html-keyboard-response,186,353487,0.0-77.0-2.0,,,,delaylearn,learning,feedback_duration_window,67MAcrKZBwTYp4DQZmaXqO1QqPA3,67MAcrKZBwTYp4DQZmaXqO1QqPA3,,,,,,,,,,,,,,,,,,750.0,,,,59e7232f24d7bf00012f112e,09:10:10,27/02/2024
html-keyboard-response,187,354990,0.0-77.0-3.0,,<div style='margin:auto;width: auto; font-size: 150%'><span style='font-weight: bold; font-size: 100px; color: green;'>+10 points!</span><br><br></div>,,delaylearn,learning,feedback_image_window,67MAcrKZBwTYp4DQZmaXqO1QqPA3,67MAcrKZBwTYp4DQZmaXqO1QqPA3,,,,,,,,,,,,,,,,,,,,,,59e7232f24d7bf00012f112e,09:10:10,27/02/2024
html-keyboard-response,188,357500,0.0-78.0,,"<div style=""font-size:100px;"">+</div>",,delaylearn,learning,ITI,67MAcrKZBwTYp4DQZmaXqO1QqPA3,67MAcrKZBwTYp4DQZmaXqO1QqPA3,,,,,,,,,,,,,,,,,,,2500.0,,,59e7232f24d7bf00012f112e,09:10:10,27/02/2024
html-keyboard-response,189,358585,0.0-79.0-0.0,1083.2000000029802,"<div style=""display: flex; flex-direction: column; align-items: center; margin-top: -40px;""><img src=""images/pattern_3.png"" style=""width: 234px; height: 230px; margin-top: -50px;""><div style=""display: flex; justify-content: space-between; margin-top: 33px;""><img src=""images/choice_trial_14.png"" style=""width: 408px; height: 417px; margin-right: 200px;""><img src=""images/choice_trial_12.png"" style=""width: 408px; height: 417px;""></div></div>",j,delaylearn,learning,trial,67MAcrKZBwTYp4DQZmaXqO1QqPA3,67MAcrKZBwTYp4DQZmaXqO1QqPA3,2.0,images/choice_trial_14.png,images/choice_trial_12.png,images/pattern_3.png,j,j,7000.0,14.0,12.0,2.0,1.0,34.0,1.0,1.0,12.0,170.0,,,,,,59e7232f24d7bf00012f112e,09:10:10,27/02/2024
html-keyboard-response,190,359591,0.0-79.0-1.0,,"<div style=""display: flex; flex-direction: column; align-items: center; margin-top: -40px;""><img src=""images/pattern_3.png"" style=""width: 234px; height: 230px; margin-top: -50px;""><div style=""display: flex; justify-content: space-between; margin-top: 33px;""><img src=""images/choice_trial_12.png"" style=""width: 408px; height: 417px; margin-left:608px;""></div></div>",,delaylearn,learning,display_response,67MAcrKZBwTYp4DQZmaXqO1QqPA3,67MAcrKZBwTYp4DQZmaXqO1QqPA3,,,,,,,,,,,,,,,,,chosen stimuli: images/choice_trial_12.png,,,,,59e7232f24d7bf00012f112e,09:10:10,27/02/2024
html-keyboard-response,191,366602,0.0-79.0-2.0,,,,delaylearn,learning,feedback_duration_window,67MAcrKZBwTYp4DQZmaXqO1QqPA3,67MAcrKZBwTYp4DQZmaXqO1QqPA3,,,,,,,,,,,,,,,,,,7000.0,,,,59e7232f24d7bf00012f112e,09:10:10,27/02/2024
html-keyboard-response,192,368106,0.0-79.0-3.0,,<div style='margin:auto;width: auto; font-size: 150%'><span style='font-weight: bold; font-size: 100px; color: green;'>+10 points!</span><br><br></div>,,delaylearn,learning,feedback_image_window,67MAcrKZBwTYp4DQZmaXqO1QqPA3,67MAcrKZBwTYp4DQZmaXqO1QqPA3,,,,,,,,,,,,,,,,,,,,,,59e7232f24d7bf00012f112e,09:10:10,27/02/2024
html-keyboard-response,193,370498,0.0-80.0,,"<div style=""font-size:100px;"">+</div>",,delaylearn,learning,ITI,67MAcrKZBwTYp4DQZmaXqO1QqPA3,67MAcrKZBwTYp4DQZmaXqO1QqPA3,,,,,,,,,,,,,,,,,,,2388.0,,,59e7232f24d7bf00012f112e,09:10:10,27/02/2024
html-keyboard-response,194,372062,0.0-81.0-0.0,1562.5,"<div style=""display: flex; flex-direction: column; align-items: center; margin-top: -40px;""><img src=""images/pattern_4.png"" style=""width: 234px; height: 230px; margin-top: -50px;""><div style=""display: flex; justify-content: space-between; margin-top: 33px;""><img src=""images/choice_trial_16.png"" style=""width: 408px; height: 417px; margin-right: 200px;""><img src=""images/choice_trial_4.png"" style=""width: 408px; height: 417px;""></div></div>",j,delaylearn,learning,trial,67MAcrKZBwTYp4DQZmaXqO1QqPA3,67MAcrKZBwTYp4DQZmaXqO1QqPA3,2.0,images/choice_trial_16.png,images/choice_trial_4.png,images/pattern_4.png,f,j,7000.0,16.0,4.0,3.0,1.0,35.0,1.0,0.0,4.0,170.0,,,,,,59e7232f24d7bf00012f112e,09:10:10,27/02/2024
html-keyboard-response,195,373071,0.0-81.0-1.0,,"<div style=""display: flex; flex-direction: column; align-items: center; margin-top: -40px;""><img src=""images/pattern_4.png"" style=""width: 234px; height: 230px; margin-top: -50px;""><div style=""display: flex; justify-content: space-between; margin-top: 33px;""><img src=""images/choice_trial_4.png"" style=""width: 408px; height: 417px; margin-left:608px;""></div></div>",,delaylearn,learning,display_response,67MAcrKZBwTYp4DQZmaXqO1QqPA3,67MAcrKZBwTYp4DQZmaXqO1QqPA3,,,,,,,,,,,,,,,,,chosen stimuli: images/choice_trial_4.png,,,,,59e7232f24d7bf00012f112e,09:10:10,27/02/2024
html-keyboard-response,196,380081,0.0-81.0-2.0,,,,delaylearn,learning,feedback_duration_window,67MAcrKZBwTYp4DQZmaXqO1QqPA3,67MAcrKZBwTYp4DQZmaXqO1QqPA3,,,,,,,,,,,,,,,,,,7000.0,,,,59e7232f24d7bf00012f112e,09:10:10,27/02/2024
html-keyboard-response,197,381589,0.0-81.0-3.0,,<div style='margin:auto;width: auto; font-size: 150%'><span style='font-weight: bold; font-size: 100px; color: red;'>0 points!</span><br><br></div>,,delaylearn,learning,feedback_image_window,67MAcrKZBwTYp4DQZmaXqO1QqPA3,67MAcrKZBwTYp4DQZmaXqO1QqPA3,,,,,,,,,,,,,,,,,,,,,,59e7232f24d7bf00012f112e,09:10:10,27/02/2024
html-keyboard-response,198,383673,0.0-82.0,,"<div style=""font-size:100px;"">+</div>",,delaylearn,learning,ITI,67MAcrKZBwTYp4DQZmaXqO1QqPA3,67MAcrKZBwTYp4DQZmaXqO1QqPA3,,,,,,,,,,,,,,,,,,,2069.0,,,59e7232f24d7bf00012f112e,09:10:10,27/02/2024
html-keyboard-response,199,384653,0.0-83.0-0.0,978.5,"<div style=""display: flex; flex-direction: column; align-items: center; margin-top: -40px;""><img src=""images/pattern_7.png"" style=""width: 234px; height: 230px; margin-top: -50px;""><div style=""display: flex; justify-content: space-between; margin-top: 33px;""><img src=""images/choice_trial_8.png"" style=""width: 408px; height: 417px; margin-right: 200px;""><img src=""images/choice_trial_15.png"" style=""width: 408px; height: 417px;""></div></div>",j,delaylearn,learning,trial,67MAcrKZBwTYp4DQZmaXqO1QqPA3,67MAcrKZBwTYp4DQZmaXqO1QqPA3,2.0,images/choice_trial_8.png,images/choice_trial_15.png,images/pattern_7.png,f,f,750.0,8.0,15.0,6.0,0.0,36.0,0.0,0.0,15.0,170.0,,,,,,59e7232f24d7bf00012f112e,09:10:10,27/02/2024
html-keyboard-response,200,385664,0.0-83.0-1.0,,"<div style=""display: flex; flex-direction: column; align-items: center; margin-top: -40px;""><img src=""images/pattern_7.png"" style=""width: 234px; height: 230px; margin-top: -50px;""><div style=""display: flex; justify-content: space-between; margin-top: 33px;""><img src=""images/choice_trial_15.png"" style=""width: 408px; height: 417px; margin-left:608px;""></div></div>",,delaylearn,learning,display_response,67MAcrKZBwTYp4DQZmaXqO1QqPA3,67MAcrKZBwTYp4DQZmaXqO1QqPA3,,,,,,,,,,,,,,,,,chosen stimuli: images/choice_trial_15.png,,,,,59e7232f24d7bf00012f112e,09:10:10,27/02/2024
html-keyboard-response,201,386422,0.0-83.0-2.0,,,,delaylearn,learning,feedback_duration_window,67MAcrKZBwTYp4DQZmaXqO1QqPA3,67MAcrKZBwTYp4DQZmaXqO1QqPA3,,,,,,,,,,,,,,,,,,750.0,,,,59e7232f24d7bf00012f112e,09:10:10,27/02/2024
html-keyboard-response,202,387923,0.0-83.0-3.0,,<div style='margin:auto;width: auto; font-size: 150%'><span style='font-weight: bold; font-size: 100px; color: red;'>0 points!</span><br><br></div>,,delaylearn,learning,feedback_image_window,67MAcrKZBwTYp4DQZmaXqO1QqPA3,67MAcrKZBwTYp4DQZmaXqO1QqPA3,,,,,,,,,,,,,,,,,,,,,,59e7232f24d7bf00012f112e,09:10:10,27/02/2024
html-keyboard-response,203,390161,0.0-84.0,,"<div style=""font-size:100px;"">+</div>",,delaylearn,learning,ITI,67MAcrKZBwTYp4DQZmaXqO1QqPA3,67MAcrKZBwTYp4DQZmaXqO1QqPA3,,,,,,,,,,,,,,,,,,,2236.0,,,59e7232f24d7bf00012f112e,09:10:10,27/02/2024
html-keyboard-response,204,391076,0.0-85.0-0.0,913.7999999970198,"<div style=""display: flex; flex-direction: column; align-items: center; margin-top: -40px;""><img src=""images/pattern_1.png"" style=""width: 234px; height: 230px; margin-top: -50px;""><div style=""display: flex; justify-content: space-between; margin-top: 33px;""><img src=""images/choice_trial_3.png"" style=""width: 408px; height: 417px; margin-right: 200px;""><img src=""images/choice_trial_10.png"" style=""width: 408px; height: 417px;""></div></div>",j,delaylearn,learning,trial,67MAcrKZBwTYp4DQZmaXqO1QqPA3,67MAcrKZBwTYp4DQZmaXqO1QqPA3,2.0,images/choice_trial_3.png,images/choice_trial_10.png,images/pattern_1.png,f,f,7000.0,3.0,10.0,1.0,0.0,37.0,0.0,0.0,10.0,170.0,,,,,,59e7232f24d7bf00012f112e,09:10:10,27/02/2024
html-keyboard-response,205,392077,0.0-85.0-1.0,,"<div style=""display: flex; flex-direction: column; align-items: center; margin-top: -40px;""><img src=""images/pattern_1.png"" style=""width: 234px; height: 230px; margin-top: -50px;""><div style=""display: flex; justify-content: space-between; margin-top: 33px;""><img src=""images/choice_trial_10.png"" style=""width: 408px; height: 417px; margin-left:608px;""></div></div>",,delaylearn,learning,display_response,67MAcrKZBwTYp4DQZmaXqO1QqPA3,67MAcrKZBwTYp4DQZmaXqO1QqPA3,,,,,,,,,,,,,,,,,chosen stimuli: images/choice_trial_10.png,,,,,59e7232f24d7bf00012f112e,09:10:10,27/02/2024
html-keyboard-response,206,399078,0.0-85.0-2.0,,,,delaylearn,learning,feedback_duration_window,67MAcrKZBwTYp4DQZmaXqO1QqPA3,67MAcrKZBwTYp4DQZmaXqO1QqPA3,,,,,,,,,,,,,,,,,,7000.0,,,,59e7232f24d7bf00012f112e,09:10:10,27/02/2024
html-keyboard-response,207,400588,0.0-85.0-3.0,,<div style='margin:auto;width: auto; font-size: 150%'><span style='font-weight: bold; font-size: 100px; color: red;'>0 points!</span><br><br></div>,,delaylearn,learning,feedback_image_window,67MAcrKZBwTYp4DQZmaXqO1QqPA3,67MAcrKZBwTYp4DQZmaXqO1QqPA3,,,,,,,,,,,,,,,,,,,,,,59e7232f24d7bf00012f112e,09:10:10,27/02/2024
html-keyboard-response,208,401099,0.0-86.0-0.0,,,,,,mood_trial_fixation,67MAcrKZBwTYp4DQZmaXqO1QqPA3,,,,,,,,,,,,,,,,,,,,,,,59e7232f24d7bf00012f112e,09:10:10,27/02/2024
lmdlab-html-vas-response,209,405445,0.0-86.0-1.0,3338.0,How happy are you right now?,0.4876543209876543,delaylearn,learning,mood_trial,67MAcrKZBwTYp4DQZmaXqO1QqPA3,67MAcrKZBwTYp4DQZmaXqO1QqPA3,,,,,,,,,,,,,,,,,,,,"['Very unhappy', 'Very happy']",,59e7232f24d7bf00012f112e,09:10:10,27/02/2024
html-keyboard-response,210,407123,0.0-87.0,,"<div style=""font-size:100px;"">+</div>",,delaylearn,learning,ITI,67MAcrKZBwTYp4DQZmaXqO1QqPA3,67MAcrKZBwTYp4DQZmaXqO1QqPA3,,,,,,,,,,,,,,,,,,,1670.0,,,59e7232f24d7bf00012f112e,09:10:10,27/02/2024
html-keyboard-response,211,409514,0.0-88.0-0.0,2389.5999999940395,"<div style=""display: flex; flex-direction: column; align-items: center; margin-top: -40px;""><img src=""images/pattern_3.png"" style=""width: 234px; height: 230px; margin-top: -50px;""><div style=""display: flex; justify-content: space-between; margin-top: 33px;""><img src=""images/choice_trial_12.png"" style=""width: 408px; height: 417px; margin-right: 200px;""><img src=""images/choice_trial_14.png"" style=""width: 408px; height: 417px;""></div></div>",j,delaylearn,learning,trial,67MAcrKZBwTYp4DQZmaXqO1QqPA3,67MAcrKZBwTYp4DQZmaXqO1QqPA3,2.0,images/choice_trial_12.png,images/choice_trial_14.png,images/pattern_3.png,j,f,7000.0,12.0,14.0,2.0,0.0,38.0,0.0,1.0,14.0,180.0,,,,,,59e7232f24d7bf00012f112e,09:10:10,27/02/2024
html-keyboard-response,212,410521,0.0-88.0-1.0,,"<div style=""display: flex; flex-direction: column; align-items: center; margin-top: -40px;""><img src=""images/pattern_3.png"" style=""width: 234px; height: 230px; margin-top: -50px;""><div style=""display: flex; justify-content: space-between; margin-top: 33px;""><img src=""images/choice_trial_14.png"" style=""width: 408px; height: 417px; margin-left:608px;""></div></div>",,delaylearn,learning,display_response,67MAcrKZBwTYp4DQZmaXqO1QqPA3,67MAcrKZBwTYp4DQZmaXqO1QqPA3,,,,,,,,,,,,,,,,,chosen stimuli: images/choice_trial_14.png,,,,,59e7232f24d7bf00012f112e,09:10:10,27/02/2024
html-keyboard-response,213,417527,0.0-88.0-2.0,,,,delaylearn,learning,feedback_duration_window,67MAcrKZBwTYp4DQZmaXqO1QqPA3,67MAcrKZBwTYp4DQZmaXqO1QqPA3,,,,,,,,,,,,,,,,,,7000.0,,,,59e7232f24d7bf00012f112e,09:10:10,27/02/2024
html-keyboard-response,214,419034,0.0-88.0-3.0,,<div style='margin:auto;width: auto; font-size: 150%'><span style='font-weight: bold; font-size: 100px; color: green;'>+10 points!</span><br><br></div>,,delaylearn,learning,feedback_image_window,67MAcrKZBwTYp4DQZmaXqO1QqPA3,67MAcrKZBwTYp4DQZmaXqO1QqPA3,,,,,,,,,,,,,,,,,,,,,,59e7232f24d7bf00012f112e,09:10:10,27/02/2024
html-keyboard-response,215,421260,0.0-89.0,,"<div style=""font-size:100px;"">+</div>",,delaylearn,learning,ITI,67MAcrKZBwTYp4DQZmaXqO1QqPA3,67MAcrKZBwTYp4DQZmaXqO1QqPA3,,,,,,,,,,,,,,,,,,,2214.0,,,59e7232f24d7bf00012f112e,09:10:10,27/02/2024
html-keyboard-response,216,421948,0.0-90.0-0.0,687.1999999880791,"<div style=""display: flex; flex-direction: column; align-items: center; margin-top: -40px;""><img src=""images/pattern_7.png"" style=""width: 234px; height: 230px; margin-top: -50px;""><div style=""display: flex; justify-content: space-between; margin-top: 33px;""><img src=""images/choice_trial_15.png"" style=""width: 408px; height: 417px; margin-right: 200px;""><img src=""images/choice_trial_8.png"" style=""width: 408px; height: 417px;""></div></div>",j,delaylearn,learning,trial,67MAcrKZBwTYp4DQZmaXqO1QqPA3,67MAcrKZBwTYp4DQZmaXqO1QqPA3,2.0,images/choice_trial_15.png,images/choice_trial_8.png,images/pattern_7.png,j,j,750.0,15.0,8.0,6.0,1.0,39.0,1.0,1.0,8.0,190.0,,,,,,59e7232f24d7bf00012f112e,09:10:10,27/02/2024
html-keyboard-response,217,422953,0.0-90.0-1.0,,"<div style=""display: flex; flex-direction: column; align-items: center; margin-top: -40px;""><img src=""images/pattern_7.png"" style=""width: 234px; height: 230px; margin-top: -50px;""><div style=""display: flex; justify-content: space-between; margin-top: 33px;""><img src=""images/choice_trial_8.png"" style=""width: 408px; height: 417px; margin-left:608px;""></div></div>",,delaylearn,learning,display_response,67MAcrKZBwTYp4DQZmaXqO1QqPA3,67MAcrKZBwTYp4DQZmaXqO1QqPA3,,,,,,,,,,,,,,,,,chosen stimuli: images/choice_trial_8.png,,,,,59e7232f24d7bf00012f112e,09:10:10,27/02/2024
html-keyboard-response,218,423717,0.0-90.0-2.0,,,,delaylearn,learning,feedback_duration_window,67MAcrKZBwTYp4DQZmaXqO1QqPA3,67MAcrKZBwTYp4DQZmaXqO1QqPA3,,,,,,,,,,,,,,,,,,750.0,,,,59e7232f24d7bf00012f112e,09:10:10,27/02/2024
html-keyboard-response,219,425227,0.0-90.0-3.0,,<div style='margin:auto;width: auto; font-size: 150%'><span style='font-weight: bold; font-size: 100px; color: green;'>+10 points!</span><br><br></div>,,delaylearn,learning,feedback_image_window,67MAcrKZBwTYp4DQZmaXqO1QqPA3,67MAcrKZBwTYp4DQZmaXqO1QqPA3,,,,,,,,,,,,,,,,,,,,,,59e7232f24d7bf00012f112e,09:10:10,27/02/2024
html-keyboard-response,220,426934,0.0-91.0,,"<div style=""font-size:100px;"">+</div>",,delaylearn,learning,ITI,67MAcrKZBwTYp4DQZmaXqO1QqPA3,67MAcrKZBwTYp4DQZmaXqO1QqPA3,,,,,,,,,,,,,,,,,,,1690.0,,,59e7232f24d7bf00012f112e,09:10:10,27/02/2024
html-keyboard-response,221,428225,0.0-92.0-0.0,1288.7000000029802,"<div style=""display: flex; flex-direction: column; align-items: center; margin-top: -40px;""><img src=""images/pattern_5.png"" style=""width: 234px; height: 230px; margin-top: -50px;""><div style=""display: flex; justify-content: space-between; margin-top: 33px;""><img src=""images/choice_trial_9.png"" style=""width: 408px; height: 417px; margin-right: 200px;""><img src=""images/choice_trial_2.png"" style=""width: 408px; height: 417px;""></div></div>",f,delaylearn,learning,trial,67MAcrKZBwTYp4DQZmaXqO1QqPA3,67MAcrKZBwTYp4DQZmaXqO1QqPA3,2.0,images/choice_trial_9.png,images/choice_trial_2.png,images/pattern_5.png,j,j,750.0,9.0,2.0,4.0,1.0,40.0,0.0,0.0,9.0,190.0,,,,,,59e7232f24d7bf00012f112e,09:10:10,27/02/2024
html-keyboard-response,222,429238,0.0-92.0-1.0,,"<div style=""display: flex; flex-direction: column; align-items: center; margin-top: -40px;""><img src=""images/pattern_5.png"" style=""width: 234px; height: 230px; margin-top: -50px;""><div style=""display: flex; justify-content: space-between; margin-top: 33px;""><img src=""images/choice_trial_9.png"" style=""width: 408px; height: 417px; margin-right: 608px;""></div></div>",,delaylearn,learning,display_response,67MAcrKZBwTYp4DQZmaXqO1QqPA3,67MAcrKZBwTYp4DQZmaXqO1QqPA3,,,,,,,,,,,,,,,,,chosen stimuli: images/choice_trial_9.png,,,,,59e7232f24d7bf00012f112e,09:10:10,27/02/2024
html-keyboard-response,223,429997,0.0-92.0-2.0,,,,delaylearn,learning,feedback_duration_window,67MAcrKZBwTYp4DQZmaXqO1QqPA3,67MAcrKZBwTYp4DQZmaXqO1QqPA3,,,,,,,,,,,,,,,,,,750.0,,,,59e7232f24d7bf00012f112e,09:10:10,27/02/2024
html-keyboard-response,224,431503,0.0-92.0-3.0,,<div style='margin:auto;width: auto; font-size: 150%'><span style='font-weight: bold; font-size: 100px; color: red;'>0 points!</span><br><br></div>,,delaylearn,learning,feedback_image_window,67MAcrKZBwTYp4DQZmaXqO1QqPA3,67MAcrKZBwTYp4DQZmaXqO1QqPA3,,,,,,,,,,,,,,,,,,,,,,59e7232f24d7bf00012f112e,09:10:10,27/02/2024
html-keyboard-response,225,432008,0.0-93.0-0.0,,,,,,mood_trial_fixation,67MAcrKZBwTYp4DQZmaXqO1QqPA3,,,,,,,,,,,,,,,,,,,,,,,59e7232f24d7bf00012f112e,09:10:10,27/02/2024
lmdlab-html-vas-response,226,436309,0.0-93.0-1.0,3284.0,How happy are you right now?,0.49506172839506174,delaylearn,learning,mood_trial,67MAcrKZBwTYp4DQZmaXqO1QqPA3,67MAcrKZBwTYp4DQZmaXqO1QqPA3,,,,,,,,,,,,,,,,,,,,"['Very unhappy', 'Very happy']",,59e7232f24d7bf00012f112e,09:10:10,27/02/2024
html-keyboard-response,227,437994,0.0-94.0,,"<div style=""font-size:100px;"">+</div>",,delaylearn,learning,ITI,67MAcrKZBwTYp4DQZmaXqO1QqPA3,67MAcrKZBwTYp4DQZmaXqO1QqPA3,,,,,,,,,,,,,,,,,,,1676.0,,,59e7232f24d7bf00012f112e,09:10:10,27/02/2024
html-keyboard-response,228,439048,0.0-95.0-0.0,1051.1000000089407,"<div style=""display: flex; flex-direction: column; align-items: center; margin-top: -40px;""><img src=""images/pattern_4.png"" style=""width: 234px; height: 230px; margin-top: -50px;""><div style=""display: flex; justify-content: space-between; margin-top: 33px;""><img src=""images/choice_trial_4.png"" style=""width: 408px; height: 417px; margin-right: 200px;""><img src=""images/choice_trial_16.png"" style=""width: 408px; height: 417px;""></div></div>",j,delaylearn,learning,trial,67MAcrKZBwTYp4DQZmaXqO1QqPA3,67MAcrKZBwTYp4DQZmaXqO1QqPA3,2.0,images/choice_trial_4.png,images/choice_trial_16.png,images/pattern_4.png,f,f,7000.0,4.0,16.0,3.0,0.0,41.0,0.0,0.0,16.0,190.0,,,,,,59e7232f24d7bf00012f112e,09:10:10,27/02/2024
html-keyboard-response,229,440053,0.0-95.0-1.0,,"<div style=""display: flex; flex-direction: column; align-items: center; margin-top: -40px;""><img src=""images/pattern_4.png"" style=""width: 234px; height: 230px; margin-top: -50px;""><div style=""display: flex; justify-content: space-between; margin-top: 33px;""><img src=""images/choice_trial_16.png"" style=""width: 408px; height: 417px; margin-left:608px;""></div></div>",,delaylearn,learning,display_response,67MAcrKZBwTYp4DQZmaXqO1QqPA3,67MAcrKZBwTYp4DQZmaXqO1QqPA3,,,,,,,,,,,,,,,,,chosen stimuli: images/choice_trial_16.png,,,,,59e7232f24d7bf00012f112e,09:10:10,27/02/2024
html-keyboard-response,230,447062,0.0-95.0-2.0,,,,delaylearn,learning,feedback_duration_window,67MAcrKZBwTYp4DQZmaXqO1QqPA3,67MAcrKZBwTYp4DQZmaXqO1QqPA3,,,,,,,,,,,,,,,,,,7000.0,,,,59e7232f24d7bf00012f112e,09:10:10,27/02/2024
html-keyboard-response,231,448567,0.0-95.0-3.0,,<div style='margin:auto;width: auto; font-size: 150%'><span style='font-weight: bold; font-size: 100px; color: red;'>0 points!</span><br><br></div>,,delaylearn,learning,feedback_image_window,67MAcrKZBwTYp4DQZmaXqO1QqPA3,67MAcrKZBwTYp4DQZmaXqO1QqPA3,,,,,,,,,,,,,,,,,,,,,,59e7232f24d7bf00012f112e,09:10:10,27/02/2024
html-keyboard-response,232,450207,0.0-96.0,,"<div style=""font-size:100px;"">+</div>",,delaylearn,learning,ITI,67MAcrKZBwTYp4DQZmaXqO1QqPA3,67MAcrKZBwTYp4DQZmaXqO1QqPA3,,,,,,,,,,,,,,,,,,,1629.0,,,59e7232f24d7bf00012f112e,09:10:10,27/02/2024
html-keyboard-response,233,451255,0.0-97.0-0.0,1047.0,"<div style=""display: flex; flex-direction: column; align-items: center; margin-top: -40px;""><img src=""images/pattern_6.png"" style=""width: 234px; height: 230px; margin-top: -50px;""><div style=""display: flex; justify-content: space-between; margin-top: 33px;""><img src=""images/choice_trial_5.png"" style=""width: 408px; height: 417px; margin-right: 200px;""><img src=""images/choice_trial_11.png"" style=""width: 408px; height: 417px;""></div></div>",f,delaylearn,learning,trial,67MAcrKZBwTYp4DQZmaXqO1QqPA3,67MAcrKZBwTYp4DQZmaXqO1QqPA3,2.0,images/choice_trial_5.png,images/choice_trial_11.png,images/pattern_6.png,j,j,750.0,5.0,11.0,5.0,1.0,42.0,0.0,0.0,5.0,190.0,,,,,,59e7232f24d7bf00012f112e,09:10:10,27/02/2024
