trial_type,trial_index,time_elapsed,internal_node_id,rt,stimulus,response,exp_name,exp_stage,test_part,subjectID,databaseID,counterbal,choice_stimuli_1,choice_stimuli_2,pattern_stimuli,rewarded_answer,correct_answer,feedback_duration_times,stim_left,stim_right,pair,leftright_counter,trial,response_correct,response_rewarded,chosen_stim,counter,displayed_choice,feedback_durations,ITI_duration,labels,rest_warning,prolificID,start_time,date
pavlovia,0,595,0.0-0.0,,,,,,,JTdAqTukGUSL9kSsLWYAQFwqSaC2,,,,,,,,,,,,,,,,,,,,,,,63ceed4669bb4db75ade6a1c,16:53:54,27/03/2024
html-keyboard-response,1,3598,0.0-1.0,,"<div style=""font-size:100px;"">+</div>",,delaylearn,learning,pre_fixation,JTdAqTukGUSL9kSsLWYAQFwqSaC2,,,,,,,,,,,,,,,,,,,,,,,63ceed4669bb4db75ade6a1c,16:53:54,27/03/2024
html-keyboard-response,2,5928,0.0-2.0-0.0,2327.399999999907,"<div style=""display: flex; flex-direction: column; align-items: center; margin-top: -40px;""><img src=""images/demo_images/pattern_1.png"" style=""width: 234px; height: 230px; margin-top: -50px;""><div style=""display: flex; justify-content: space-between; margin-top: 33px;""><img src=""images/demo_images/choice_trial_2.png"" style=""width: 408px; height: 417px; margin-right: 200px;""><img src=""images/demo_images/choice_trial_1.png"" style=""width: 408px; height: 417px;""></div></div>",f,delaylearn,learning,trial,JTdAqTukGUSL9kSsLWYAQFwqSaC2,JTdAqTukGUSL9kSsLWYAQFwqSaC2,5.0,images/demo_images/choice_trial_2.png,images/demo_images/choice_trial_1.png,images/demo_images/pattern_1.png,j,j,3000.0,2.0,1.0,20.0,1.0,1.0,0.0,0.0,2.0,0.0,,,,,,63ceed4669bb4db75ade6a1c,16:53:54,27/03/2024
html-keyboard-response,3,6936,0.0-2.0-1.0,,"<div style=""display: flex; flex-direction: column; align-items: center; margin-top: -40px;""><img src=""images/demo_images/pattern_1.png"" style=""width: 234px; height: 230px; margin-top: -50px;""><div style=""display: flex; justify-content: space-between; margin-top: 33px;""><img src=""images/demo_images/choice_trial_2.png"" style=""width: 408px; height: 417px; margin-right: 608px;""></div></div>",,delaylearn,learning,display_response,JTdAqTukGUSL9kSsLWYAQFwqSaC2,JTdAqTukGUSL9kSsLWYAQFwqSaC2,,,,,,,,,,,,,,,,,chosen stimuli: images/demo_images/choice_trial_2.png,,,,,63ceed4669bb4db75ade6a1c,16:53:54,27/03/2024
html-keyboard-response,4,9944,0.0-2.0-2.0,,,,delaylearn,learning,feedback_duration_window,JTdAqTukGUSL9kSsLWYAQFwqSaC2,JTdAqTukGUSL9kSsLWYAQFwqSaC2,,,,,,,,,,,,,,,,,,3000.0,,,,63ceed4669bb4db75ade6a1c,16:53:54,27/03/2024
html-keyboard-response,5,11451,0.0-2.0-3.0,,<div style='margin:auto;width: auto; font-size: 150%'><span style='font-weight: bold; font-size: 100px; color: red;'>0 points!</span><br><br></div>,,delaylearn,learning,feedback_image_window,JTdAqTukGUSL9kSsLWYAQFwqSaC2,JTdAqTukGUSL9kSsLWYAQFwqSaC2,,,,,,,,,,,,,,,,,,,,,,63ceed4669bb4db75ade6a1c,16:53:54,27/03/2024
html-keyboard-response,6,13262,0.0-3.0,,"<div style=""font-size:100px;"">+</div>",,delaylearn,learning,ITI,JTdAqTukGUSL9kSsLWYAQFwqSaC2,JTdAqTukGUSL9kSsLWYAQFwqSaC2,,,,,,,,,,,,,,,,,,,1804.0,,,63ceed4669bb4db75ade6a1c,16:53:54,27/03/2024
html-keyboard-response,7,14790,0.0-4.0-0.0,1524.2999999998137,"<div style=""display: flex; flex-direction: column; align-items: center; margin-top: -40px;""><img src=""images/demo_images/pattern_1.png"" style=""width: 234px; height: 230px; margin-top: -50px;""><div style=""display: flex; justify-content: space-between; margin-top: 33px;""><img src=""images/demo_images/choice_trial_2.png"" style=""width: 408px; height: 417px; margin-right: 200px;""><img src=""images/demo_images/choice_trial_1.png"" style=""width: 408px; height: 417px;""></div></div>",j,delaylearn,learning,trial,JTdAqTukGUSL9kSsLWYAQFwqSaC2,JTdAqTukGUSL9kSsLWYAQFwqSaC2,5.0,images/demo_images/choice_trial_2.png,images/demo_images/choice_trial_1.png,images/demo_images/pattern_1.png,j,j,3000.0,2.0,1.0,20.0,1.0,2.0,1.0,1.0,1.0,10.0,,,,,,63ceed4669bb4db75ade6a1c,16:53:54,27/03/2024
html-keyboard-response,8,15798,0.0-4.0-1.0,,"<div style=""display: flex; flex-direction: column; align-items: center; margin-top: -40px;""><img src=""images/demo_images/pattern_1.png"" style=""width: 234px; height: 230px; margin-top: -50px;""><div style=""display: flex; justify-content: space-between; margin-top: 33px;""><img src=""images/demo_images/choice_trial_1.png"" style=""width: 408px; height: 417px; margin-left:608px;""></div></div>",,delaylearn,learning,display_response,JTdAqTukGUSL9kSsLWYAQFwqSaC2,JTdAqTukGUSL9kSsLWYAQFwqSaC2,,,,,,,,,,,,,,,,,chosen stimuli: images/demo_images/choice_trial_1.png,,,,,63ceed4669bb4db75ade6a1c,16:53:54,27/03/2024
html-keyboard-response,9,18804,0.0-4.0-2.0,,,,delaylearn,learning,feedback_duration_window,JTdAqTukGUSL9kSsLWYAQFwqSaC2,JTdAqTukGUSL9kSsLWYAQFwqSaC2,,,,,,,,,,,,,,,,,,3000.0,,,,63ceed4669bb4db75ade6a1c,16:53:54,27/03/2024
html-keyboard-response,10,20312,0.0-4.0-3.0,,<div style='margin:auto;width: auto; font-size: 150%'><span style='font-weight: bold; font-size: 100px; color: green;'>+10 points!</span><br><br></div>,,delaylearn,learning,feedback_image_window,JTdAqTukGUSL9kSsLWYAQFwqSaC2,JTdAqTukGUSL9kSsLWYAQFwqSaC2,,,,,,,,,,,,,,,,,,,,,,63ceed4669bb4db75ade6a1c,16:53:54,27/03/2024
html-keyboard-response,11,22380,0.0-5.0,,"<div style=""font-size:100px;"">+</div>",,delaylearn,learning,ITI,JTdAqTukGUSL9kSsLWYAQFwqSaC2,JTdAqTukGUSL9kSsLWYAQFwqSaC2,,,,,,,,,,,,,,,,,,,2065.0,,,63ceed4669bb4db75ade6a1c,16:53:54,27/03/2024
html-keyboard-response,12,24231,0.0-6.0-0.0,1848.0,"<div style=""display: flex; flex-direction: column; align-items: center; margin-top: -40px;""><img src=""images/demo_images/pattern_1.png"" style=""width: 234px; height: 230px; margin-top: -50px;""><div style=""display: flex; justify-content: space-between; margin-top: 33px;""><img src=""images/demo_images/choice_trial_1.png"" style=""width: 408px; height: 417px; margin-right: 200px;""><img src=""images/demo_images/choice_trial_2.png"" style=""width: 408px; height: 417px;""></div></div>",f,delaylearn,learning,trial,JTdAqTukGUSL9kSsLWYAQFwqSaC2,JTdAqTukGUSL9kSsLWYAQFwqSaC2,5.0,images/demo_images/choice_trial_1.png,images/demo_images/choice_trial_2.png,images/demo_images/pattern_1.png,j,f,3000.0,1.0,2.0,20.0,0.0,3.0,1.0,0.0,1.0,10.0,,,,,,63ceed4669bb4db75ade6a1c,16:53:54,27/03/2024
html-keyboard-response,13,25239,0.0-6.0-1.0,,"<div style=""display: flex; flex-direction: column; align-items: center; margin-top: -40px;""><img src=""images/demo_images/pattern_1.png"" style=""width: 234px; height: 230px; margin-top: -50px;""><div style=""display: flex; justify-content: space-between; margin-top: 33px;""><img src=""images/demo_images/choice_trial_1.png"" style=""width: 408px; height: 417px; margin-right: 608px;""></div></div>",,delaylearn,learning,display_response,JTdAqTukGUSL9kSsLWYAQFwqSaC2,JTdAqTukGUSL9kSsLWYAQFwqSaC2,,,,,,,,,,,,,,,,,chosen stimuli: images/demo_images/choice_trial_1.png,,,,,63ceed4669bb4db75ade6a1c,16:53:54,27/03/2024
html-keyboard-response,14,28246,0.0-6.0-2.0,,,,delaylearn,learning,feedback_duration_window,JTdAqTukGUSL9kSsLWYAQFwqSaC2,JTdAqTukGUSL9kSsLWYAQFwqSaC2,,,,,,,,,,,,,,,,,,3000.0,,,,63ceed4669bb4db75ade6a1c,16:53:54,27/03/2024
html-keyboard-response,15,29749,0.0-6.0-3.0,,<div style='margin:auto;width: auto; font-size: 150%'><span style='font-weight: bold; font-size: 100px; color: red;'>0 points!</span><br><br></div>,,delaylearn,learning,feedback_image_window,JTdAqTukGUSL9kSsLWYAQFwqSaC2,JTdAqTukGUSL9kSsLWYAQFwqSaC2,,,,,,,,,,,,,,,,,,,,,,63ceed4669bb4db75ade6a1c,16:53:54,27/03/2024
html-keyboard-response,16,31453,0.0-7.0,,"<div style=""font-size:100px;"">+</div>",,delaylearn,learning,ITI,JTdAqTukGUSL9kSsLWYAQFwqSaC2,JTdAqTukGUSL9kSsLWYAQFwqSaC2,,,,,,,,,,,,,,,,,,,1697.0,,,63ceed4669bb4db75ade6a1c,16:53:54,27/03/2024
html-keyboard-response,17,33550,0.0-8.0-0.0,2091.899999999907,"<div style=""display: flex; flex-direction: column; align-items: center; margin-top: -40px;""><img src=""images/demo_images/pattern_1.png"" style=""width: 234px; height: 230px; margin-top: -50px;""><div style=""display: flex; justify-content: space-between; margin-top: 33px;""><img src=""images/demo_images/choice_trial_1.png"" style=""width: 408px; height: 417px; margin-right: 200px;""><img src=""images/demo_images/choice_trial_2.png"" style=""width: 408px; height: 417px;""></div></div>",j,delaylearn,learning,trial,JTdAqTukGUSL9kSsLWYAQFwqSaC2,JTdAqTukGUSL9kSsLWYAQFwqSaC2,5.0,images/demo_images/choice_trial_1.png,images/demo_images/choice_trial_2.png,images/demo_images/pattern_1.png,f,f,3000.0,1.0,2.0,20.0,0.0,4.0,0.0,0.0,2.0,10.0,,,,,,63ceed4669bb4db75ade6a1c,16:53:54,27/03/2024
html-keyboard-response,18,34557,0.0-8.0-1.0,,"<div style=""display: flex; flex-direction: column; align-items: center; margin-top: -40px;""><img src=""images/demo_images/pattern_1.png"" style=""width: 234px; height: 230px; margin-top: -50px;""><div style=""display: flex; justify-content: space-between; margin-top: 33px;""><img src=""images/demo_images/choice_trial_2.png"" style=""width: 408px; height: 417px; margin-left:608px;""></div></div>",,delaylearn,learning,display_response,JTdAqTukGUSL9kSsLWYAQFwqSaC2,JTdAqTukGUSL9kSsLWYAQFwqSaC2,,,,,,,,,,,,,,,,,chosen stimuli: images/demo_images/choice_trial_2.png,,,,,63ceed4669bb4db75ade6a1c,16:53:54,27/03/2024
html-keyboard-response,19,37564,0.0-8.0-2.0,,,,delaylearn,learning,feedback_duration_window,JTdAqTukGUSL9kSsLWYAQFwqSaC2,JTdAqTukGUSL9kSsLWYAQFwqSaC2,,,,,,,,,,,,,,,,,,3000.0,,,,63ceed4669bb4db75ade6a1c,16:53:54,27/03/2024
html-keyboard-response,20,39072,0.0-8.0-3.0,,<div style='margin:auto;width: auto; font-size: 150%'><span style='font-weight: bold; font-size: 100px; color: red;'>0 points!</span><br><br></div>,,delaylearn,learning,feedback_image_window,JTdAqTukGUSL9kSsLWYAQFwqSaC2,JTdAqTukGUSL9kSsLWYAQFwqSaC2,,,,,,,,,,,,,,,,,,,,,,63ceed4669bb4db75ade6a1c,16:53:54,27/03/2024
html-keyboard-response,21,39575,0.0-9.0-0.0,,,,,,mood_trial_fixation,JTdAqTukGUSL9kSsLWYAQFwqSaC2,,,,,,,,,,,,,,,,,,,,,,,63ceed4669bb4db75ade6a1c,16:53:54,27/03/2024
lmdlab-html-vas-response,22,43477,0.0-9.0-1.0,2887.0,How happy are you right now?,0.2318840579710145,delaylearn,learning,mood_trial,JTdAqTukGUSL9kSsLWYAQFwqSaC2,JTdAqTukGUSL9kSsLWYAQFwqSaC2,,,,,,,,,,,,,,,,,,,,"['Very unhappy', 'Very happy']",,63ceed4669bb4db75ade6a1c,16:53:54,27/03/2024
html-keyboard-response,23,45055,0.0-10.0,,"<div style=""font-size:100px;"">+</div>",,delaylearn,learning,ITI,JTdAqTukGUSL9kSsLWYAQFwqSaC2,JTdAqTukGUSL9kSsLWYAQFwqSaC2,,,,,,,,,,,,,,,,,,,1571.0,,,63ceed4669bb4db75ade6a1c,16:53:54,27/03/2024
html-keyboard-response,24,48064,0.0-11.0-0.0,,"<div style=""display: flex; flex-direction: column; align-items: center; margin-top: -40px;""><img src=""images/demo_images/pattern_1.png"" style=""width: 234px; height: 230px; margin-top: -50px;""><div style=""display: flex; justify-content: space-between; margin-top: 33px;""><img src=""images/demo_images/choice_trial_2.png"" style=""width: 408px; height: 417px; margin-right: 200px;""><img src=""images/demo_images/choice_trial_1.png"" style=""width: 408px; height: 417px;""></div></div>",,delaylearn,learning,trial,JTdAqTukGUSL9kSsLWYAQFwqSaC2,JTdAqTukGUSL9kSsLWYAQFwqSaC2,5.0,images/demo_images/choice_trial_2.png,images/demo_images/choice_trial_1.png,images/demo_images/pattern_1.png,j,j,3000.0,2.0,1.0,20.0,1.0,5.0,0.0,0.0,0.0,10.0,,,,,,63ceed4669bb4db75ade6a1c,16:53:54,27/03/2024
html-keyboard-response,25,49067,0.0-11.0-1.0,,<div style='font-weight: bold; font-size: 75px; color: red;'>Missed Trial <br><br><br><br> Please respond faster</div>,,delaylearn,learning,display_response,JTdAqTukGUSL9kSsLWYAQFwqSaC2,JTdAqTukGUSL9kSsLWYAQFwqSaC2,,,,,,,,,,,,,,,,,Missed trial,,,,,63ceed4669bb4db75ade6a1c,16:53:54,27/03/2024
html-keyboard-response,26,49073,0.0-11.0-2.0,,,,delaylearn,learning,feedback_duration_window,JTdAqTukGUSL9kSsLWYAQFwqSaC2,JTdAqTukGUSL9kSsLWYAQFwqSaC2,,,,,,,,,,,,,,,,,,0.0,,,,63ceed4669bb4db75ade6a1c,16:53:54,27/03/2024
html-keyboard-response,27,49079,0.0-11.0-3.0,,,,delaylearn,learning,feedback_image_window,JTdAqTukGUSL9kSsLWYAQFwqSaC2,JTdAqTukGUSL9kSsLWYAQFwqSaC2,,,,,,,,,,,,,,,,,,,,,,63ceed4669bb4db75ade6a1c,16:53:54,27/03/2024
html-keyboard-response,28,51218,0.0-12.0,,"<div style=""font-size:100px;"">+</div>",,delaylearn,learning,ITI,JTdAqTukGUSL9kSsLWYAQFwqSaC2,JTdAqTukGUSL9kSsLWYAQFwqSaC2,,,,,,,,,,,,,,,,,,,2132.0,,,63ceed4669bb4db75ade6a1c,16:53:54,27/03/2024
html-keyboard-response,29,52072,0.0-13.0-0.0,851.5,"<div style=""display: flex; flex-direction: column; align-items: center; margin-top: -40px;""><img src=""images/demo_images/pattern_1.png"" style=""width: 234px; height: 230px; margin-top: -50px;""><div style=""display: flex; justify-content: space-between; margin-top: 33px;""><img src=""images/demo_images/choice_trial_1.png"" style=""width: 408px; height: 417px; margin-right: 200px;""><img src=""images/demo_images/choice_trial_2.png"" style=""width: 408px; height: 417px;""></div></div>",f,delaylearn,learning,trial,JTdAqTukGUSL9kSsLWYAQFwqSaC2,JTdAqTukGUSL9kSsLWYAQFwqSaC2,5.0,images/demo_images/choice_trial_1.png,images/demo_images/choice_trial_2.png,images/demo_images/pattern_1.png,f,f,3000.0,1.0,2.0,20.0,0.0,6.0,1.0,1.0,1.0,20.0,,,,,,63ceed4669bb4db75ade6a1c,16:53:54,27/03/2024
html-keyboard-response,30,53080,0.0-13.0-1.0,,"<div style=""display: flex; flex-direction: column; align-items: center; margin-top: -40px;""><img src=""images/demo_images/pattern_1.png"" style=""width: 234px; height: 230px; margin-top: -50px;""><div style=""display: flex; justify-content: space-between; margin-top: 33px;""><img src=""images/demo_images/choice_trial_1.png"" style=""width: 408px; height: 417px; margin-right: 608px;""></div></div>",,delaylearn,learning,display_response,JTdAqTukGUSL9kSsLWYAQFwqSaC2,JTdAqTukGUSL9kSsLWYAQFwqSaC2,,,,,,,,,,,,,,,,,chosen stimuli: images/demo_images/choice_trial_1.png,,,,,63ceed4669bb4db75ade6a1c,16:53:54,27/03/2024
html-keyboard-response,31,56087,0.0-13.0-2.0,,,,delaylearn,learning,feedback_duration_window,JTdAqTukGUSL9kSsLWYAQFwqSaC2,JTdAqTukGUSL9kSsLWYAQFwqSaC2,,,,,,,,,,,,,,,,,,3000.0,,,,63ceed4669bb4db75ade6a1c,16:53:54,27/03/2024
html-keyboard-response,32,57592,0.0-13.0-3.0,,<div style='margin:auto;width: auto; font-size: 150%'><span style='font-weight: bold; font-size: 100px; color: green;'>+10 points!</span><br><br></div>,,delaylearn,learning,feedback_image_window,JTdAqTukGUSL9kSsLWYAQFwqSaC2,JTdAqTukGUSL9kSsLWYAQFwqSaC2,,,,,,,,,,,,,,,,,,,,,,63ceed4669bb4db75ade6a1c,16:53:54,27/03/2024
html-keyboard-response,33,59485,0.0-14.0,,"<div style=""font-size:100px;"">+</div>",,delaylearn,learning,ITI,JTdAqTukGUSL9kSsLWYAQFwqSaC2,JTdAqTukGUSL9kSsLWYAQFwqSaC2,,,,,,,,,,,,,,,,,,,1886.0,,,63ceed4669bb4db75ade6a1c,16:53:54,27/03/2024
html-keyboard-response,34,60719,0.0-15.0-0.0,1231.3999999999069,"<div style=""display: flex; flex-direction: column; align-items: center; margin-top: -40px;""><img src=""images/demo_images/pattern_1.png"" style=""width: 234px; height: 230px; margin-top: -50px;""><div style=""display: flex; justify-content: space-between; margin-top: 33px;""><img src=""images/demo_images/choice_trial_2.png"" style=""width: 408px; height: 417px; margin-right: 200px;""><img src=""images/demo_images/choice_trial_1.png"" style=""width: 408px; height: 417px;""></div></div>",j,delaylearn,learning,trial,JTdAqTukGUSL9kSsLWYAQFwqSaC2,JTdAqTukGUSL9kSsLWYAQFwqSaC2,5.0,images/demo_images/choice_trial_2.png,images/demo_images/choice_trial_1.png,images/demo_images/pattern_1.png,j,j,3000.0,2.0,1.0,20.0,1.0,7.0,1.0,1.0,1.0,30.0,,,,,,63ceed4669bb4db75ade6a1c,16:53:54,27/03/2024
html-keyboard-response,35,61727,0.0-15.0-1.0,,"<div style=""display: flex; flex-direction: column; align-items: center; margin-top: -40px;""><img src=""images/demo_images/pattern_1.png"" style=""width: 234px; height: 230px; margin-top: -50px;""><div style=""display: flex; justify-content: space-between; margin-top: 33px;""><img src=""images/demo_images/choice_trial_1.png"" style=""width: 408px; height: 417px; margin-left:608px;""></div></div>",,delaylearn,learning,display_response,JTdAqTukGUSL9kSsLWYAQFwqSaC2,JTdAqTukGUSL9kSsLWYAQFwqSaC2,,,,,,,,,,,,,,,,,chosen stimuli: images/demo_images/choice_trial_1.png,,,,,63ceed4669bb4db75ade6a1c,16:53:54,27/03/2024
html-keyboard-response,36,64734,0.0-15.0-2.0,,,,delaylearn,learning,feedback_duration_window,JTdAqTukGUSL9kSsLWYAQFwqSaC2,JTdAqTukGUSL9kSsLWYAQFwqSaC2,,,,,,,,,,,,,,,,,,3000.0,,,,63ceed4669bb4db75ade6a1c,16:53:54,27/03/2024
html-keyboard-response,37,66242,0.0-15.0-3.0,,<div style='margin:auto;width: auto; font-size: 150%'><span style='font-weight: bold; font-size: 100px; color: green;'>+10 points!</span><br><br></div>,,delaylearn,learning,feedback_image_window,JTdAqTukGUSL9kSsLWYAQFwqSaC2,JTdAqTukGUSL9kSsLWYAQFwqSaC2,,,,,,,,,,,,,,,,,,,,,,63ceed4669bb4db75ade6a1c,16:53:54,27/03/2024
html-keyboard-response,38,67858,0.0-16.0,,"<div style=""font-size:100px;"">+</div>",,delaylearn,learning,ITI,JTdAqTukGUSL9kSsLWYAQFwqSaC2,JTdAqTukGUSL9kSsLWYAQFwqSaC2,,,,,,,,,,,,,,,,,,,1609.0,,,63ceed4669bb4db75ade6a1c,16:53:54,27/03/2024
html-keyboard-response,39,69055,0.0-17.0-0.0,1193.9000000003725,"<div style=""display: flex; flex-direction: column; align-items: center; margin-top: -40px;""><img src=""images/demo_images/pattern_1.png"" style=""width: 234px; height: 230px; margin-top: -50px;""><div style=""display: flex; justify-content: space-between; margin-top: 33px;""><img src=""images/demo_images/choice_trial_1.png"" style=""width: 408px; height: 417px; margin-right: 200px;""><img src=""images/demo_images/choice_trial_2.png"" style=""width: 408px; height: 417px;""></div></div>",f,delaylearn,learning,trial,JTdAqTukGUSL9kSsLWYAQFwqSaC2,JTdAqTukGUSL9kSsLWYAQFwqSaC2,5.0,images/demo_images/choice_trial_1.png,images/demo_images/choice_trial_2.png,images/demo_images/pattern_1.png,f,f,3000.0,1.0,2.0,20.0,0.0,8.0,1.0,1.0,1.0,40.0,,,,,,63ceed4669bb4db75ade6a1c,16:53:54,27/03/2024
html-keyboard-response,40,70063,0.0-17.0-1.0,,"<div style=""display: flex; flex-direction: column; align-items: center; margin-top: -40px;""><img src=""images/demo_images/pattern_1.png"" style=""width: 234px; height: 230px; margin-top: -50px;""><div style=""display: flex; justify-content: space-between; margin-top: 33px;""><img src=""images/demo_images/choice_trial_1.png"" style=""width: 408px; height: 417px; margin-right: 608px;""></div></div>",,delaylearn,learning,display_response,JTdAqTukGUSL9kSsLWYAQFwqSaC2,JTdAqTukGUSL9kSsLWYAQFwqSaC2,,,,,,,,,,,,,,,,,chosen stimuli: images/demo_images/choice_trial_1.png,,,,,63ceed4669bb4db75ade6a1c,16:53:54,27/03/2024
html-keyboard-response,41,73070,0.0-17.0-2.0,,,,delaylearn,learning,feedback_duration_window,JTdAqTukGUSL9kSsLWYAQFwqSaC2,JTdAqTukGUSL9kSsLWYAQFwqSaC2,,,,,,,,,,,,,,,,,,3000.0,,,,63ceed4669bb4db75ade6a1c,16:53:54,27/03/2024
html-keyboard-response,42,74576,0.0-17.0-3.0,,<div style='margin:auto;width: auto; font-size: 150%'><span style='font-weight: bold; font-size: 100px; color: green;'>+10 points!</span><br><br></div>,,delaylearn,learning,feedback_image_window,JTdAqTukGUSL9kSsLWYAQFwqSaC2,JTdAqTukGUSL9kSsLWYAQFwqSaC2,,,,,,,,,,,,,,,,,,,,,,63ceed4669bb4db75ade6a1c,16:53:54,27/03/2024
html-button-response,43,83072,0.0-18.0,8492.700000000186,"
  <div style=""display: flex; align-items: center; justify-content: center; height: 80vh;"">
  <div>
          <img src=""images/inst_demo_finish.png"" style=""width: 80vw; height:auto;"">
          <br><br>
      </div>
      <br><br>
  </div>",0,,,,JTdAqTukGUSL9kSsLWYAQFwqSaC2,,,,,,,,,,,,,,,,,,,,,,,63ceed4669bb4db75ade6a1c,16:53:54,27/03/2024
html-keyboard-response,44,86036,0.0-19.0,2961.7999999998137,"
  <div style=""display: flex; align-items: center; justify-content: center; height: 80vh;"">
  <div>
          <img src=""images/inst_6.png"" style=""width: 80vw; height:auto;"">
          <br><br>
      </div>
      <br><br>
  </div>",f,,,,JTdAqTukGUSL9kSsLWYAQFwqSaC2,,,,,,,,,,,,,,,,,,,,,,,63ceed4669bb4db75ade6a1c,16:53:54,27/03/2024
html-keyboard-response,45,89039,0.0-20.0,,"<div style=""font-size:100px;"">+</div>",,delaylearn,learning,pre_fixation,JTdAqTukGUSL9kSsLWYAQFwqSaC2,,,,,,,,,,,,,,,,,,,,,,,63ceed4669bb4db75ade6a1c,16:53:54,27/03/2024
html-keyboard-response,46,90607,0.0-21.0,,"<div style=""font-size:100px;"">+</div>",,delaylearn,learning,ITI,JTdAqTukGUSL9kSsLWYAQFwqSaC2,JTdAqTukGUSL9kSsLWYAQFwqSaC2,,,,,,,,,,,,,,,,,,,1565.0,,,63ceed4669bb4db75ade6a1c,16:53:54,27/03/2024
html-keyboard-response,47,91901,0.0-22.0-0.0,1291.8999999999069,"<div style=""display: flex; flex-direction: column; align-items: center; margin-top: -40px;""><img src=""images/pattern_3.png"" style=""width: 234px; height: 230px; margin-top: -50px;""><div style=""display: flex; justify-content: space-between; margin-top: 33px;""><img src=""images/choice_trial_16.png"" style=""width: 408px; height: 417px; margin-right: 200px;""><img src=""images/choice_trial_2.png"" style=""width: 408px; height: 417px;""></div></div>",f,delaylearn,learning,trial,JTdAqTukGUSL9kSsLWYAQFwqSaC2,JTdAqTukGUSL9kSsLWYAQFwqSaC2,5.0,images/choice_trial_16.png,images/choice_trial_2.png,images/pattern_3.png,f,f,7000.0,16.0,2.0,2.0,0.0,9.0,1.0,1.0,16.0,50.0,,,,,,63ceed4669bb4db75ade6a1c,16:53:54,27/03/2024
html-keyboard-response,48,92908,0.0-22.0-1.0,,"<div style=""display: flex; flex-direction: column; align-items: center; margin-top: -40px;""><img src=""images/pattern_3.png"" style=""width: 234px; height: 230px; margin-top: -50px;""><div style=""display: flex; justify-content: space-between; margin-top: 33px;""><img src=""images/choice_trial_16.png"" style=""width: 408px; height: 417px; margin-right: 608px;""></div></div>",,delaylearn,learning,display_response,JTdAqTukGUSL9kSsLWYAQFwqSaC2,JTdAqTukGUSL9kSsLWYAQFwqSaC2,,,,,,,,,,,,,,,,,chosen stimuli: images/choice_trial_16.png,,,,,63ceed4669bb4db75ade6a1c,16:53:54,27/03/2024
html-keyboard-response,49,99913,0.0-22.0-2.0,,,,delaylearn,learning,feedback_duration_window,JTdAqTukGUSL9kSsLWYAQFwqSaC2,JTdAqTukGUSL9kSsLWYAQFwqSaC2,,,,,,,,,,,,,,,,,,7000.0,,,,63ceed4669bb4db75ade6a1c,16:53:54,27/03/2024
html-keyboard-response,50,101421,0.0-22.0-3.0,,<div style='margin:auto;width: auto; font-size: 150%'><span style='font-weight: bold; font-size: 100px; color: green;'>+10 points!</span><br><br></div>,,delaylearn,learning,feedback_image_window,JTdAqTukGUSL9kSsLWYAQFwqSaC2,JTdAqTukGUSL9kSsLWYAQFwqSaC2,,,,,,,,,,,,,,,,,,,,,,63ceed4669bb4db75ade6a1c,16:53:54,27/03/2024
html-keyboard-response,51,103867,0.0-23.0,,"<div style=""font-size:100px;"">+</div>",,delaylearn,learning,ITI,JTdAqTukGUSL9kSsLWYAQFwqSaC2,JTdAqTukGUSL9kSsLWYAQFwqSaC2,,,,,,,,,,,,,,,,,,,2438.0,,,63ceed4669bb4db75ade6a1c,16:53:54,27/03/2024
html-keyboard-response,52,105731,0.0-24.0-0.0,1861.2000000001863,"<div style=""display: flex; flex-direction: column; align-items: center; margin-top: -40px;""><img src=""images/pattern_7.png"" style=""width: 234px; height: 230px; margin-top: -50px;""><div style=""display: flex; justify-content: space-between; margin-top: 33px;""><img src=""images/choice_trial_10.png"" style=""width: 408px; height: 417px; margin-right: 200px;""><img src=""images/choice_trial_8.png"" style=""width: 408px; height: 417px;""></div></div>",f,delaylearn,learning,trial,JTdAqTukGUSL9kSsLWYAQFwqSaC2,JTdAqTukGUSL9kSsLWYAQFwqSaC2,5.0,images/choice_trial_10.png,images/choice_trial_8.png,images/pattern_7.png,j,j,750.0,10.0,8.0,6.0,1.0,10.0,0.0,0.0,10.0,50.0,,,,,,63ceed4669bb4db75ade6a1c,16:53:54,27/03/2024
html-keyboard-response,53,106739,0.0-24.0-1.0,,"<div style=""display: flex; flex-direction: column; align-items: center; margin-top: -40px;""><img src=""images/pattern_7.png"" style=""width: 234px; height: 230px; margin-top: -50px;""><div style=""display: flex; justify-content: space-between; margin-top: 33px;""><img src=""images/choice_trial_10.png"" style=""width: 408px; height: 417px; margin-right: 608px;""></div></div>",,delaylearn,learning,display_response,JTdAqTukGUSL9kSsLWYAQFwqSaC2,JTdAqTukGUSL9kSsLWYAQFwqSaC2,,,,,,,,,,,,,,,,,chosen stimuli: images/choice_trial_10.png,,,,,63ceed4669bb4db75ade6a1c,16:53:54,27/03/2024
html-keyboard-response,54,107494,0.0-24.0-2.0,,,,delaylearn,learning,feedback_duration_window,JTdAqTukGUSL9kSsLWYAQFwqSaC2,JTdAqTukGUSL9kSsLWYAQFwqSaC2,,,,,,,,,,,,,,,,,,750.0,,,,63ceed4669bb4db75ade6a1c,16:53:54,27/03/2024
html-keyboard-response,55,109002,0.0-24.0-3.0,,<div style='margin:auto;width: auto; font-size: 150%'><span style='font-weight: bold; font-size: 100px; color: red;'>0 points!</span><br><br></div>,,delaylearn,learning,feedback_image_window,JTdAqTukGUSL9kSsLWYAQFwqSaC2,JTdAqTukGUSL9kSsLWYAQFwqSaC2,,,,,,,,,,,,,,,,,,,,,,63ceed4669bb4db75ade6a1c,16:53:54,27/03/2024
html-keyboard-response,56,110740,0.0-25.0,,"<div style=""font-size:100px;"">+</div>",,delaylearn,learning,ITI,JTdAqTukGUSL9kSsLWYAQFwqSaC2,JTdAqTukGUSL9kSsLWYAQFwqSaC2,,,,,,,,,,,,,,,,,,,1734.0,,,63ceed4669bb4db75ade6a1c,16:53:54,27/03/2024
html-keyboard-response,57,112541,0.0-26.0-0.0,1797.3999999999069,"<div style=""display: flex; flex-direction: column; align-items: center; margin-top: -40px;""><img src=""images/pattern_4.png"" style=""width: 234px; height: 230px; margin-top: -50px;""><div style=""display: flex; justify-content: space-between; margin-top: 33px;""><img src=""images/choice_trial_11.png"" style=""width: 408px; height: 417px; margin-right: 200px;""><img src=""images/choice_trial_4.png"" style=""width: 408px; height: 417px;""></div></div>",f,delaylearn,learning,trial,JTdAqTukGUSL9kSsLWYAQFwqSaC2,JTdAqTukGUSL9kSsLWYAQFwqSaC2,5.0,images/choice_trial_11.png,images/choice_trial_4.png,images/pattern_4.png,f,f,7000.0,11.0,4.0,3.0,0.0,11.0,1.0,1.0,11.0,60.0,,,,,,63ceed4669bb4db75ade6a1c,16:53:54,27/03/2024
html-keyboard-response,58,113549,0.0-26.0-1.0,,"<div style=""display: flex; flex-direction: column; align-items: center; margin-top: -40px;""><img src=""images/pattern_4.png"" style=""width: 234px; height: 230px; margin-top: -50px;""><div style=""display: flex; justify-content: space-between; margin-top: 33px;""><img src=""images/choice_trial_11.png"" style=""width: 408px; height: 417px; margin-right: 608px;""></div></div>",,delaylearn,learning,display_response,JTdAqTukGUSL9kSsLWYAQFwqSaC2,JTdAqTukGUSL9kSsLWYAQFwqSaC2,,,,,,,,,,,,,,,,,chosen stimuli: images/choice_trial_11.png,,,,,63ceed4669bb4db75ade6a1c,16:53:54,27/03/2024
html-keyboard-response,59,120556,0.0-26.0-2.0,,,,delaylearn,learning,feedback_duration_window,JTdAqTukGUSL9kSsLWYAQFwqSaC2,JTdAqTukGUSL9kSsLWYAQFwqSaC2,,,,,,,,,,,,,,,,,,7000.0,,,,63ceed4669bb4db75ade6a1c,16:53:54,27/03/2024
html-keyboard-response,60,122059,0.0-26.0-3.0,,<div style='margin:auto;width: auto; font-size: 150%'><span style='font-weight: bold; font-size: 100px; color: green;'>+10 points!</span><br><br></div>,,delaylearn,learning,feedback_image_window,JTdAqTukGUSL9kSsLWYAQFwqSaC2,JTdAqTukGUSL9kSsLWYAQFwqSaC2,,,,,,,,,,,,,,,,,,,,,,63ceed4669bb4db75ade6a1c,16:53:54,27/03/2024
html-keyboard-response,61,124135,0.0-27.0,,"<div style=""font-size:100px;"">+</div>",,delaylearn,learning,ITI,JTdAqTukGUSL9kSsLWYAQFwqSaC2,JTdAqTukGUSL9kSsLWYAQFwqSaC2,,,,,,,,,,,,,,,,,,,2072.0,,,63ceed4669bb4db75ade6a1c,16:53:54,27/03/2024
html-keyboard-response,62,126345,0.0-28.0-0.0,2207.399999999907,"<div style=""display: flex; flex-direction: column; align-items: center; margin-top: -40px;""><img src=""images/pattern_5.png"" style=""width: 234px; height: 230px; margin-top: -50px;""><div style=""display: flex; justify-content: space-between; margin-top: 33px;""><img src=""images/choice_trial_13.png"" style=""width: 408px; height: 417px; margin-right: 200px;""><img src=""images/choice_trial_7.png"" style=""width: 408px; height: 417px;""></div></div>",j,delaylearn,learning,trial,JTdAqTukGUSL9kSsLWYAQFwqSaC2,JTdAqTukGUSL9kSsLWYAQFwqSaC2,5.0,images/choice_trial_13.png,images/choice_trial_7.png,images/pattern_5.png,j,j,750.0,13.0,7.0,4.0,1.0,12.0,1.0,1.0,7.0,70.0,,,,,,63ceed4669bb4db75ade6a1c,16:53:54,27/03/2024
html-keyboard-response,63,127349,0.0-28.0-1.0,,"<div style=""display: flex; flex-direction: column; align-items: center; margin-top: -40px;""><img src=""images/pattern_5.png"" style=""width: 234px; height: 230px; margin-top: -50px;""><div style=""display: flex; justify-content: space-between; margin-top: 33px;""><img src=""images/choice_trial_7.png"" style=""width: 408px; height: 417px; margin-left:608px;""></div></div>",,delaylearn,learning,display_response,JTdAqTukGUSL9kSsLWYAQFwqSaC2,JTdAqTukGUSL9kSsLWYAQFwqSaC2,,,,,,,,,,,,,,,,,chosen stimuli: images/choice_trial_7.png,,,,,63ceed4669bb4db75ade6a1c,16:53:54,27/03/2024
html-keyboard-response,64,128102,0.0-28.0-2.0,,,,delaylearn,learning,feedback_duration_window,JTdAqTukGUSL9kSsLWYAQFwqSaC2,JTdAqTukGUSL9kSsLWYAQFwqSaC2,,,,,,,,,,,,,,,,,,750.0,,,,63ceed4669bb4db75ade6a1c,16:53:54,27/03/2024
html-keyboard-response,65,129605,0.0-28.0-3.0,,<div style='margin:auto;width: auto; font-size: 150%'><span style='font-weight: bold; font-size: 100px; color: green;'>+10 points!</span><br><br></div>,,delaylearn,learning,feedback_image_window,JTdAqTukGUSL9kSsLWYAQFwqSaC2,JTdAqTukGUSL9kSsLWYAQFwqSaC2,,,,,,,,,,,,,,,,,,,,,,63ceed4669bb4db75ade6a1c,16:53:54,27/03/2024
html-keyboard-response,66,131236,0.0-29.0,,"<div style=""font-size:100px;"">+</div>",,delaylearn,learning,ITI,JTdAqTukGUSL9kSsLWYAQFwqSaC2,JTdAqTukGUSL9kSsLWYAQFwqSaC2,,,,,,,,,,,,,,,,,,,1623.0,,,63ceed4669bb4db75ade6a1c,16:53:54,27/03/2024
html-keyboard-response,67,133106,0.0-30.0-0.0,1867.5,"<div style=""display: flex; flex-direction: column; align-items: center; margin-top: -40px;""><img src=""images/pattern_6.png"" style=""width: 234px; height: 230px; margin-top: -50px;""><div style=""display: flex; justify-content: space-between; margin-top: 33px;""><img src=""images/choice_trial_14.png"" style=""width: 408px; height: 417px; margin-right: 200px;""><img src=""images/choice_trial_9.png"" style=""width: 408px; height: 417px;""></div></div>",f,delaylearn,learning,trial,JTdAqTukGUSL9kSsLWYAQFwqSaC2,JTdAqTukGUSL9kSsLWYAQFwqSaC2,5.0,images/choice_trial_14.png,images/choice_trial_9.png,images/pattern_6.png,j,f,750.0,14.0,9.0,5.0,0.0,13.0,1.0,0.0,14.0,70.0,,,,,,63ceed4669bb4db75ade6a1c,16:53:54,27/03/2024
html-keyboard-response,68,134114,0.0-30.0-1.0,,"<div style=""display: flex; flex-direction: column; align-items: center; margin-top: -40px;""><img src=""images/pattern_6.png"" style=""width: 234px; height: 230px; margin-top: -50px;""><div style=""display: flex; justify-content: space-between; margin-top: 33px;""><img src=""images/choice_trial_14.png"" style=""width: 408px; height: 417px; margin-right: 608px;""></div></div>",,delaylearn,learning,display_response,JTdAqTukGUSL9kSsLWYAQFwqSaC2,JTdAqTukGUSL9kSsLWYAQFwqSaC2,,,,,,,,,,,,,,,,,chosen stimuli: images/choice_trial_14.png,,,,,63ceed4669bb4db75ade6a1c,16:53:54,27/03/2024
html-keyboard-response,69,134870,0.0-30.0-2.0,,,,delaylearn,learning,feedback_duration_window,JTdAqTukGUSL9kSsLWYAQFwqSaC2,JTdAqTukGUSL9kSsLWYAQFwqSaC2,,,,,,,,,,,,,,,,,,750.0,,,,63ceed4669bb4db75ade6a1c,16:53:54,27/03/2024
html-keyboard-response,70,136376,0.0-30.0-3.0,,<div style='margin:auto;width: auto; font-size: 150%'><span style='font-weight: bold; font-size: 100px; color: red;'>0 points!</span><br><br></div>,,delaylearn,learning,feedback_image_window,JTdAqTukGUSL9kSsLWYAQFwqSaC2,JTdAqTukGUSL9kSsLWYAQFwqSaC2,,,,,,,,,,,,,,,,,,,,,,63ceed4669bb4db75ade6a1c,16:53:54,27/03/2024
html-keyboard-response,71,136880,0.0-31.0-0.0,,,,,,mood_trial_fixation,JTdAqTukGUSL9kSsLWYAQFwqSaC2,,,,,,,,,,,,,,,,,,,,,,,63ceed4669bb4db75ade6a1c,16:53:54,27/03/2024
lmdlab-html-vas-response,72,140345,0.0-31.0-1.0,2453.0,How happy are you right now?,0.41304347826086957,delaylearn,learning,mood_trial,JTdAqTukGUSL9kSsLWYAQFwqSaC2,JTdAqTukGUSL9kSsLWYAQFwqSaC2,,,,,,,,,,,,,,,,,,,,"['Very unhappy', 'Very happy']",,63ceed4669bb4db75ade6a1c,16:53:54,27/03/2024
html-keyboard-response,73,142190,0.0-32.0,,"<div style=""font-size:100px;"">+</div>",,delaylearn,learning,ITI,JTdAqTukGUSL9kSsLWYAQFwqSaC2,JTdAqTukGUSL9kSsLWYAQFwqSaC2,,,,,,,,,,,,,,,,,,,1839.0,,,63ceed4669bb4db75ade6a1c,16:53:54,27/03/2024
html-keyboard-response,74,143911,0.0-33.0-0.0,1717.6999999997206,"<div style=""display: flex; flex-direction: column; align-items: center; margin-top: -40px;""><img src=""images/pattern_1.png"" style=""width: 234px; height: 230px; margin-top: -50px;""><div style=""display: flex; justify-content: space-between; margin-top: 33px;""><img src=""images/choice_trial_15.png"" style=""width: 408px; height: 417px; margin-right: 200px;""><img src=""images/choice_trial_6.png"" style=""width: 408px; height: 417px;""></div></div>",j,delaylearn,learning,trial,JTdAqTukGUSL9kSsLWYAQFwqSaC2,JTdAqTukGUSL9kSsLWYAQFwqSaC2,5.0,images/choice_trial_15.png,images/choice_trial_6.png,images/pattern_1.png,j,j,7000.0,15.0,6.0,1.0,1.0,14.0,1.0,1.0,6.0,80.0,,,,,,63ceed4669bb4db75ade6a1c,16:53:54,27/03/2024
html-keyboard-response,75,144916,0.0-33.0-1.0,,"<div style=""display: flex; flex-direction: column; align-items: center; margin-top: -40px;""><img src=""images/pattern_1.png"" style=""width: 234px; height: 230px; margin-top: -50px;""><div style=""display: flex; justify-content: space-between; margin-top: 33px;""><img src=""images/choice_trial_6.png"" style=""width: 408px; height: 417px; margin-left:608px;""></div></div>",,delaylearn,learning,display_response,JTdAqTukGUSL9kSsLWYAQFwqSaC2,JTdAqTukGUSL9kSsLWYAQFwqSaC2,,,,,,,,,,,,,,,,,chosen stimuli: images/choice_trial_6.png,,,,,63ceed4669bb4db75ade6a1c,16:53:54,27/03/2024
html-keyboard-response,76,151920,0.0-33.0-2.0,,,,delaylearn,learning,feedback_duration_window,JTdAqTukGUSL9kSsLWYAQFwqSaC2,JTdAqTukGUSL9kSsLWYAQFwqSaC2,,,,,,,,,,,,,,,,,,7000.0,,,,63ceed4669bb4db75ade6a1c,16:53:54,27/03/2024
html-keyboard-response,77,153427,0.0-33.0-3.0,,<div style='margin:auto;width: auto; font-size: 150%'><span style='font-weight: bold; font-size: 100px; color: green;'>+10 points!</span><br><br></div>,,delaylearn,learning,feedback_image_window,JTdAqTukGUSL9kSsLWYAQFwqSaC2,JTdAqTukGUSL9kSsLWYAQFwqSaC2,,,,,,,,,,,,,,,,,,,,,,63ceed4669bb4db75ade6a1c,16:53:54,27/03/2024
html-keyboard-response,78,155211,0.0-34.0,,"<div style=""font-size:100px;"">+</div>",,delaylearn,learning,ITI,JTdAqTukGUSL9kSsLWYAQFwqSaC2,JTdAqTukGUSL9kSsLWYAQFwqSaC2,,,,,,,,,,,,,,,,,,,1776.0,,,63ceed4669bb4db75ade6a1c,16:53:54,27/03/2024
html-keyboard-response,79,156960,0.0-35.0-0.0,1746.1000000000931,"<div style=""display: flex; flex-direction: column; align-items: center; margin-top: -40px;""><img src=""images/pattern_3.png"" style=""width: 234px; height: 230px; margin-top: -50px;""><div style=""display: flex; justify-content: space-between; margin-top: 33px;""><img src=""images/choice_trial_2.png"" style=""width: 408px; height: 417px; margin-right: 200px;""><img src=""images/choice_trial_16.png"" style=""width: 408px; height: 417px;""></div></div>",j,delaylearn,learning,trial,JTdAqTukGUSL9kSsLWYAQFwqSaC2,JTdAqTukGUSL9kSsLWYAQFwqSaC2,5.0,images/choice_trial_2.png,images/choice_trial_16.png,images/pattern_3.png,f,j,7000.0,2.0,16.0,2.0,1.0,15.0,1.0,0.0,16.0,80.0,,,,,,63ceed4669bb4db75ade6a1c,16:53:54,27/03/2024
html-keyboard-response,80,157967,0.0-35.0-1.0,,"<div style=""display: flex; flex-direction: column; align-items: center; margin-top: -40px;""><img src=""images/pattern_3.png"" style=""width: 234px; height: 230px; margin-top: -50px;""><div style=""display: flex; justify-content: space-between; margin-top: 33px;""><img src=""images/choice_trial_16.png"" style=""width: 408px; height: 417px; margin-left:608px;""></div></div>",,delaylearn,learning,display_response,JTdAqTukGUSL9kSsLWYAQFwqSaC2,JTdAqTukGUSL9kSsLWYAQFwqSaC2,,,,,,,,,,,,,,,,,chosen stimuli: images/choice_trial_16.png,,,,,63ceed4669bb4db75ade6a1c,16:53:54,27/03/2024
html-keyboard-response,81,164975,0.0-35.0-2.0,,,,delaylearn,learning,feedback_duration_window,JTdAqTukGUSL9kSsLWYAQFwqSaC2,JTdAqTukGUSL9kSsLWYAQFwqSaC2,,,,,,,,,,,,,,,,,,7000.0,,,,63ceed4669bb4db75ade6a1c,16:53:54,27/03/2024
html-keyboard-response,82,166483,0.0-35.0-3.0,,<div style='margin:auto;width: auto; font-size: 150%'><span style='font-weight: bold; font-size: 100px; color: red;'>0 points!</span><br><br></div>,,delaylearn,learning,feedback_image_window,JTdAqTukGUSL9kSsLWYAQFwqSaC2,JTdAqTukGUSL9kSsLWYAQFwqSaC2,,,,,,,,,,,,,,,,,,,,,,63ceed4669bb4db75ade6a1c,16:53:54,27/03/2024
html-keyboard-response,83,168241,0.0-36.0,,"<div style=""font-size:100px;"">+</div>",,delaylearn,learning,ITI,JTdAqTukGUSL9kSsLWYAQFwqSaC2,JTdAqTukGUSL9kSsLWYAQFwqSaC2,,,,,,,,,,,,,,,,,,,1751.0,,,63ceed4669bb4db75ade6a1c,16:53:54,27/03/2024
html-keyboard-response,84,170147,0.0-37.0-0.0,1902.7000000001863,"<div style=""display: flex; flex-direction: column; align-items: center; margin-top: -40px;""><img src=""images/pattern_5.png"" style=""width: 234px; height: 230px; margin-top: -50px;""><div style=""display: flex; justify-content: space-between; margin-top: 33px;""><img src=""images/choice_trial_7.png"" style=""width: 408px; height: 417px; margin-right: 200px;""><img src=""images/choice_trial_13.png"" style=""width: 408px; height: 417px;""></div></div>",f,delaylearn,learning,trial,JTdAqTukGUSL9kSsLWYAQFwqSaC2,JTdAqTukGUSL9kSsLWYAQFwqSaC2,5.0,images/choice_trial_7.png,images/choice_trial_13.png,images/pattern_5.png,f,f,750.0,7.0,13.0,4.0,0.0,16.0,1.0,1.0,7.0,90.0,,,,,,63ceed4669bb4db75ade6a1c,16:53:54,27/03/2024
html-keyboard-response,85,171154,0.0-37.0-1.0,,"<div style=""display: flex; flex-direction: column; align-items: center; margin-top: -40px;""><img src=""images/pattern_5.png"" style=""width: 234px; height: 230px; margin-top: -50px;""><div style=""display: flex; justify-content: space-between; margin-top: 33px;""><img src=""images/choice_trial_7.png"" style=""width: 408px; height: 417px; margin-right: 608px;""></div></div>",,delaylearn,learning,display_response,JTdAqTukGUSL9kSsLWYAQFwqSaC2,JTdAqTukGUSL9kSsLWYAQFwqSaC2,,,,,,,,,,,,,,,,,chosen stimuli: images/choice_trial_7.png,,,,,63ceed4669bb4db75ade6a1c,16:53:54,27/03/2024
html-keyboard-response,86,171912,0.0-37.0-2.0,,,,delaylearn,learning,feedback_duration_window,JTdAqTukGUSL9kSsLWYAQFwqSaC2,JTdAqTukGUSL9kSsLWYAQFwqSaC2,,,,,,,,,,,,,,,,,,750.0,,,,63ceed4669bb4db75ade6a1c,16:53:54,27/03/2024
html-keyboard-response,87,173420,0.0-37.0-3.0,,<div style='margin:auto;width: auto; font-size: 150%'><span style='font-weight: bold; font-size: 100px; color: green;'>+10 points!</span><br><br></div>,,delaylearn,learning,feedback_image_window,JTdAqTukGUSL9kSsLWYAQFwqSaC2,JTdAqTukGUSL9kSsLWYAQFwqSaC2,,,,,,,,,,,,,,,,,,,,,,63ceed4669bb4db75ade6a1c,16:53:54,27/03/2024
html-keyboard-response,88,173923,0.0-38.0-0.0,,,,,,mood_trial_fixation,JTdAqTukGUSL9kSsLWYAQFwqSaC2,,,,,,,,,,,,,,,,,,,,,,,63ceed4669bb4db75ade6a1c,16:53:54,27/03/2024
lmdlab-html-vas-response,89,177290,0.0-38.0-1.0,2356.0,How happy are you right now?,0.49094202898550726,delaylearn,learning,mood_trial,JTdAqTukGUSL9kSsLWYAQFwqSaC2,JTdAqTukGUSL9kSsLWYAQFwqSaC2,,,,,,,,,,,,,,,,,,,,"['Very unhappy', 'Very happy']",,63ceed4669bb4db75ade6a1c,16:53:54,27/03/2024
html-keyboard-response,90,179010,0.0-39.0,,"<div style=""font-size:100px;"">+</div>",,delaylearn,learning,ITI,JTdAqTukGUSL9kSsLWYAQFwqSaC2,JTdAqTukGUSL9kSsLWYAQFwqSaC2,,,,,,,,,,,,,,,,,,,1712.0,,,63ceed4669bb4db75ade6a1c,16:53:54,27/03/2024
html-keyboard-response,91,180898,0.0-40.0-0.0,1885.0999999996275,"<div style=""display: flex; flex-direction: column; align-items: center; margin-top: -40px;""><img src=""images/pattern_6.png"" style=""width: 234px; height: 230px; margin-top: -50px;""><div style=""display: flex; justify-content: space-between; margin-top: 33px;""><img src=""images/choice_trial_14.png"" style=""width: 408px; height: 417px; margin-right: 200px;""><img src=""images/choice_trial_9.png"" style=""width: 408px; height: 417px;""></div></div>",f,delaylearn,learning,trial,JTdAqTukGUSL9kSsLWYAQFwqSaC2,JTdAqTukGUSL9kSsLWYAQFwqSaC2,5.0,images/choice_trial_14.png,images/choice_trial_9.png,images/pattern_6.png,f,f,750.0,14.0,9.0,5.0,0.0,17.0,1.0,1.0,14.0,100.0,,,,,,63ceed4669bb4db75ade6a1c,16:53:54,27/03/2024
html-keyboard-response,92,181906,0.0-40.0-1.0,,"<div style=""display: flex; flex-direction: column; align-items: center; margin-top: -40px;""><img src=""images/pattern_6.png"" style=""width: 234px; height: 230px; margin-top: -50px;""><div style=""display: flex; justify-content: space-between; margin-top: 33px;""><img src=""images/choice_trial_14.png"" style=""width: 408px; height: 417px; margin-right: 608px;""></div></div>",,delaylearn,learning,display_response,JTdAqTukGUSL9kSsLWYAQFwqSaC2,JTdAqTukGUSL9kSsLWYAQFwqSaC2,,,,,,,,,,,,,,,,,chosen stimuli: images/choice_trial_14.png,,,,,63ceed4669bb4db75ade6a1c,16:53:54,27/03/2024
html-keyboard-response,93,182663,0.0-40.0-2.0,,,,delaylearn,learning,feedback_duration_window,JTdAqTukGUSL9kSsLWYAQFwqSaC2,JTdAqTukGUSL9kSsLWYAQFwqSaC2,,,,,,,,,,,,,,,,,,750.0,,,,63ceed4669bb4db75ade6a1c,16:53:54,27/03/2024
html-keyboard-response,94,184170,0.0-40.0-3.0,,<div style='margin:auto;width: auto; font-size: 150%'><span style='font-weight: bold; font-size: 100px; color: green;'>+10 points!</span><br><br></div>,,delaylearn,learning,feedback_image_window,JTdAqTukGUSL9kSsLWYAQFwqSaC2,JTdAqTukGUSL9kSsLWYAQFwqSaC2,,,,,,,,,,,,,,,,,,,,,,63ceed4669bb4db75ade6a1c,16:53:54,27/03/2024
html-keyboard-response,95,185752,0.0-41.0,,"<div style=""font-size:100px;"">+</div>",,delaylearn,learning,ITI,JTdAqTukGUSL9kSsLWYAQFwqSaC2,JTdAqTukGUSL9kSsLWYAQFwqSaC2,,,,,,,,,,,,,,,,,,,1576.0,,,63ceed4669bb4db75ade6a1c,16:53:54,27/03/2024
html-keyboard-response,96,187343,0.0-42.0-0.0,1588.1000000000931,"<div style=""display: flex; flex-direction: column; align-items: center; margin-top: -40px;""><img src=""images/pattern_4.png"" style=""width: 234px; height: 230px; margin-top: -50px;""><div style=""display: flex; justify-content: space-between; margin-top: 33px;""><img src=""images/choice_trial_4.png"" style=""width: 408px; height: 417px; margin-right: 200px;""><img src=""images/choice_trial_11.png"" style=""width: 408px; height: 417px;""></div></div>",j,delaylearn,learning,trial,JTdAqTukGUSL9kSsLWYAQFwqSaC2,JTdAqTukGUSL9kSsLWYAQFwqSaC2,5.0,images/choice_trial_4.png,images/choice_trial_11.png,images/pattern_4.png,j,j,7000.0,4.0,11.0,3.0,1.0,18.0,1.0,1.0,11.0,110.0,,,,,,63ceed4669bb4db75ade6a1c,16:53:54,27/03/2024
html-keyboard-response,97,188351,0.0-42.0-1.0,,"<div style=""display: flex; flex-direction: column; align-items: center; margin-top: -40px;""><img src=""images/pattern_4.png"" style=""width: 234px; height: 230px; margin-top: -50px;""><div style=""display: flex; justify-content: space-between; margin-top: 33px;""><img src=""images/choice_trial_11.png"" style=""width: 408px; height: 417px; margin-left:608px;""></div></div>",,delaylearn,learning,display_response,JTdAqTukGUSL9kSsLWYAQFwqSaC2,JTdAqTukGUSL9kSsLWYAQFwqSaC2,,,,,,,,,,,,,,,,,chosen stimuli: images/choice_trial_11.png,,,,,63ceed4669bb4db75ade6a1c,16:53:54,27/03/2024
html-keyboard-response,98,195358,0.0-42.0-2.0,,,,delaylearn,learning,feedback_duration_window,JTdAqTukGUSL9kSsLWYAQFwqSaC2,JTdAqTukGUSL9kSsLWYAQFwqSaC2,,,,,,,,,,,,,,,,,,7000.0,,,,63ceed4669bb4db75ade6a1c,16:53:54,27/03/2024
html-keyboard-response,99,196867,0.0-42.0-3.0,,<div style='margin:auto;width: auto; font-size: 150%'><span style='font-weight: bold; font-size: 100px; color: green;'>+10 points!</span><br><br></div>,,delaylearn,learning,feedback_image_window,JTdAqTukGUSL9kSsLWYAQFwqSaC2,JTdAqTukGUSL9kSsLWYAQFwqSaC2,,,,,,,,,,,,,,,,,,,,,,63ceed4669bb4db75ade6a1c,16:53:54,27/03/2024
html-keyboard-response,100,198630,0.0-43.0,,"<div style=""font-size:100px;"">+</div>",,delaylearn,learning,ITI,JTdAqTukGUSL9kSsLWYAQFwqSaC2,JTdAqTukGUSL9kSsLWYAQFwqSaC2,,,,,,,,,,,,,,,,,,,1757.0,,,63ceed4669bb4db75ade6a1c,16:53:54,27/03/2024
html-keyboard-response,101,200669,0.0-44.0-0.0,2035.3999999999069,"<div style=""display: flex; flex-direction: column; align-items: center; margin-top: -40px;""><img src=""images/pattern_7.png"" style=""width: 234px; height: 230px; margin-top: -50px;""><div style=""display: flex; justify-content: space-between; margin-top: 33px;""><img src=""images/choice_trial_8.png"" style=""width: 408px; height: 417px; margin-right: 200px;""><img src=""images/choice_trial_10.png"" style=""width: 408px; height: 417px;""></div></div>",j,delaylearn,learning,trial,JTdAqTukGUSL9kSsLWYAQFwqSaC2,JTdAqTukGUSL9kSsLWYAQFwqSaC2,5.0,images/choice_trial_8.png,images/choice_trial_10.png,images/pattern_7.png,j,f,750.0,8.0,10.0,6.0,0.0,19.0,0.0,1.0,10.0,120.0,,,,,,63ceed4669bb4db75ade6a1c,16:53:54,27/03/2024
html-keyboard-response,102,201676,0.0-44.0-1.0,,"<div style=""display: flex; flex-direction: column; align-items: center; margin-top: -40px;""><img src=""images/pattern_7.png"" style=""width: 234px; height: 230px; margin-top: -50px;""><div style=""display: flex; justify-content: space-between; margin-top: 33px;""><img src=""images/choice_trial_10.png"" style=""width: 408px; height: 417px; margin-left:608px;""></div></div>",,delaylearn,learning,display_response,JTdAqTukGUSL9kSsLWYAQFwqSaC2,JTdAqTukGUSL9kSsLWYAQFwqSaC2,,,,,,,,,,,,,,,,,chosen stimuli: images/choice_trial_10.png,,,,,63ceed4669bb4db75ade6a1c,16:53:54,27/03/2024
html-keyboard-response,103,202433,0.0-44.0-2.0,,,,delaylearn,learning,feedback_duration_window,JTdAqTukGUSL9kSsLWYAQFwqSaC2,JTdAqTukGUSL9kSsLWYAQFwqSaC2,,,,,,,,,,,,,,,,,,750.0,,,,63ceed4669bb4db75ade6a1c,16:53:54,27/03/2024
html-keyboard-response,104,203937,0.0-44.0-3.0,,<div style='margin:auto;width: auto; font-size: 150%'><span style='font-weight: bold; font-size: 100px; color: green;'>+10 points!</span><br><br></div>,,delaylearn,learning,feedback_image_window,JTdAqTukGUSL9kSsLWYAQFwqSaC2,JTdAqTukGUSL9kSsLWYAQFwqSaC2,,,,,,,,,,,,,,,,,,,,,,63ceed4669bb4db75ade6a1c,16:53:54,27/03/2024
html-keyboard-response,105,205646,0.0-45.0,,"<div style=""font-size:100px;"">+</div>",,delaylearn,learning,ITI,JTdAqTukGUSL9kSsLWYAQFwqSaC2,JTdAqTukGUSL9kSsLWYAQFwqSaC2,,,,,,,,,,,,,,,,,,,1702.0,,,63ceed4669bb4db75ade6a1c,16:53:54,27/03/2024
html-keyboard-response,106,207202,0.0-46.0-0.0,1552.6000000000931,"<div style=""display: flex; flex-direction: column; align-items: center; margin-top: -40px;""><img src=""images/pattern_1.png"" style=""width: 234px; height: 230px; margin-top: -50px;""><div style=""display: flex; justify-content: space-between; margin-top: 33px;""><img src=""images/choice_trial_6.png"" style=""width: 408px; height: 417px; margin-right: 200px;""><img src=""images/choice_trial_15.png"" style=""width: 408px; height: 417px;""></div></div>",f,delaylearn,learning,trial,JTdAqTukGUSL9kSsLWYAQFwqSaC2,JTdAqTukGUSL9kSsLWYAQFwqSaC2,5.0,images/choice_trial_6.png,images/choice_trial_15.png,images/pattern_1.png,f,f,7000.0,6.0,15.0,1.0,0.0,20.0,1.0,1.0,6.0,130.0,,,,,,63ceed4669bb4db75ade6a1c,16:53:54,27/03/2024
html-keyboard-response,107,208210,0.0-46.0-1.0,,"<div style=""display: flex; flex-direction: column; align-items: center; margin-top: -40px;""><img src=""images/pattern_1.png"" style=""width: 234px; height: 230px; margin-top: -50px;""><div style=""display: flex; justify-content: space-between; margin-top: 33px;""><img src=""images/choice_trial_6.png"" style=""width: 408px; height: 417px; margin-right: 608px;""></div></div>",,delaylearn,learning,display_response,JTdAqTukGUSL9kSsLWYAQFwqSaC2,JTdAqTukGUSL9kSsLWYAQFwqSaC2,,,,,,,,,,,,,,,,,chosen stimuli: images/choice_trial_6.png,,,,,63ceed4669bb4db75ade6a1c,16:53:54,27/03/2024
html-keyboard-response,108,215217,0.0-46.0-2.0,,,,delaylearn,learning,feedback_duration_window,JTdAqTukGUSL9kSsLWYAQFwqSaC2,JTdAqTukGUSL9kSsLWYAQFwqSaC2,,,,,,,,,,,,,,,,,,7000.0,,,,63ceed4669bb4db75ade6a1c,16:53:54,27/03/2024
html-keyboard-response,109,216723,0.0-46.0-3.0,,<div style='margin:auto;width: auto; font-size: 150%'><span style='font-weight: bold; font-size: 100px; color: green;'>+10 points!</span><br><br></div>,,delaylearn,learning,feedback_image_window,JTdAqTukGUSL9kSsLWYAQFwqSaC2,JTdAqTukGUSL9kSsLWYAQFwqSaC2,,,,,,,,,,,,,,,,,,,,,,63ceed4669bb4db75ade6a1c,16:53:54,27/03/2024
html-keyboard-response,110,218870,0.0-47.0,,"<div style=""font-size:100px;"">+</div>",,delaylearn,learning,ITI,JTdAqTukGUSL9kSsLWYAQFwqSaC2,JTdAqTukGUSL9kSsLWYAQFwqSaC2,,,,,,,,,,,,,,,,,,,2140.0,,,63ceed4669bb4db75ade6a1c,16:53:54,27/03/2024
html-keyboard-response,111,220774,0.0-48.0-0.0,1899.8999999999069,"<div style=""display: flex; flex-direction: column; align-items: center; margin-top: -40px;""><img src=""images/pattern_6.png"" style=""width: 234px; height: 230px; margin-top: -50px;""><div style=""display: flex; justify-content: space-between; margin-top: 33px;""><img src=""images/choice_trial_9.png"" style=""width: 408px; height: 417px; margin-right: 200px;""><img src=""images/choice_trial_14.png"" style=""width: 408px; height: 417px;""></div></div>",f,delaylearn,learning,trial,JTdAqTukGUSL9kSsLWYAQFwqSaC2,JTdAqTukGUSL9kSsLWYAQFwqSaC2,5.0,images/choice_trial_9.png,images/choice_trial_14.png,images/pattern_6.png,j,j,750.0,9.0,14.0,5.0,1.0,21.0,0.0,0.0,9.0,130.0,,,,,,63ceed4669bb4db75ade6a1c,16:53:54,27/03/2024
html-keyboard-response,112,221777,0.0-48.0-1.0,,"<div style=""display: flex; flex-direction: column; align-items: center; margin-top: -40px;""><img src=""images/pattern_6.png"" style=""width: 234px; height: 230px; margin-top: -50px;""><div style=""display: flex; justify-content: space-between; margin-top: 33px;""><img src=""images/choice_trial_9.png"" style=""width: 408px; height: 417px; margin-right: 608px;""></div></div>",,delaylearn,learning,display_response,JTdAqTukGUSL9kSsLWYAQFwqSaC2,JTdAqTukGUSL9kSsLWYAQFwqSaC2,,,,,,,,,,,,,,,,,chosen stimuli: images/choice_trial_9.png,,,,,63ceed4669bb4db75ade6a1c,16:53:54,27/03/2024
html-keyboard-response,113,222533,0.0-48.0-2.0,,,,delaylearn,learning,feedback_duration_window,JTdAqTukGUSL9kSsLWYAQFwqSaC2,JTdAqTukGUSL9kSsLWYAQFwqSaC2,,,,,,,,,,,,,,,,,,750.0,,,,63ceed4669bb4db75ade6a1c,16:53:54,27/03/2024
html-keyboard-response,114,224041,0.0-48.0-3.0,,<div style='margin:auto;width: auto; font-size: 150%'><span style='font-weight: bold; font-size: 100px; color: red;'>0 points!</span><br><br></div>,,delaylearn,learning,feedback_image_window,JTdAqTukGUSL9kSsLWYAQFwqSaC2,JTdAqTukGUSL9kSsLWYAQFwqSaC2,,,,,,,,,,,,,,,,,,,,,,63ceed4669bb4db75ade6a1c,16:53:54,27/03/2024
html-keyboard-response,115,225896,0.0-49.0,,"<div style=""font-size:100px;"">+</div>",,delaylearn,learning,ITI,JTdAqTukGUSL9kSsLWYAQFwqSaC2,JTdAqTukGUSL9kSsLWYAQFwqSaC2,,,,,,,,,,,,,,,,,,,1848.0,,,63ceed4669bb4db75ade6a1c,16:53:54,27/03/2024
html-keyboard-response,116,227283,0.0-50.0-0.0,1383.4000000003725,"<div style=""display: flex; flex-direction: column; align-items: center; margin-top: -40px;""><img src=""images/pattern_4.png"" style=""width: 234px; height: 230px; margin-top: -50px;""><div style=""display: flex; justify-content: space-between; margin-top: 33px;""><img src=""images/choice_trial_11.png"" style=""width: 408px; height: 417px; margin-right: 200px;""><img src=""images/choice_trial_4.png"" style=""width: 408px; height: 417px;""></div></div>",f,delaylearn,learning,trial,JTdAqTukGUSL9kSsLWYAQFwqSaC2,JTdAqTukGUSL9kSsLWYAQFwqSaC2,5.0,images/choice_trial_11.png,images/choice_trial_4.png,images/pattern_4.png,f,f,7000.0,11.0,4.0,3.0,0.0,22.0,1.0,1.0,11.0,140.0,,,,,,63ceed4669bb4db75ade6a1c,16:53:54,27/03/2024
html-keyboard-response,117,228289,0.0-50.0-1.0,,"<div style=""display: flex; flex-direction: column; align-items: center; margin-top: -40px;""><img src=""images/pattern_4.png"" style=""width: 234px; height: 230px; margin-top: -50px;""><div style=""display: flex; justify-content: space-between; margin-top: 33px;""><img src=""images/choice_trial_11.png"" style=""width: 408px; height: 417px; margin-right: 608px;""></div></div>",,delaylearn,learning,display_response,JTdAqTukGUSL9kSsLWYAQFwqSaC2,JTdAqTukGUSL9kSsLWYAQFwqSaC2,,,,,,,,,,,,,,,,,chosen stimuli: images/choice_trial_11.png,,,,,63ceed4669bb4db75ade6a1c,16:53:54,27/03/2024
html-keyboard-response,118,235292,0.0-50.0-2.0,,,,delaylearn,learning,feedback_duration_window,JTdAqTukGUSL9kSsLWYAQFwqSaC2,JTdAqTukGUSL9kSsLWYAQFwqSaC2,,,,,,,,,,,,,,,,,,7000.0,,,,63ceed4669bb4db75ade6a1c,16:53:54,27/03/2024
html-keyboard-response,119,236798,0.0-50.0-3.0,,<div style='margin:auto;width: auto; font-size: 150%'><span style='font-weight: bold; font-size: 100px; color: green;'>+10 points!</span><br><br></div>,,delaylearn,learning,feedback_image_window,JTdAqTukGUSL9kSsLWYAQFwqSaC2,JTdAqTukGUSL9kSsLWYAQFwqSaC2,,,,,,,,,,,,,,,,,,,,,,63ceed4669bb4db75ade6a1c,16:53:54,27/03/2024
html-keyboard-response,120,237301,0.0-51.0-0.0,,,,,,mood_trial_fixation,JTdAqTukGUSL9kSsLWYAQFwqSaC2,,,,,,,,,,,,,,,,,,,,,,,63ceed4669bb4db75ade6a1c,16:53:54,27/03/2024
lmdlab-html-vas-response,121,240752,0.0-51.0-1.0,2441.0,How happy are you right now?,0.4692028985507246,delaylearn,learning,mood_trial,JTdAqTukGUSL9kSsLWYAQFwqSaC2,JTdAqTukGUSL9kSsLWYAQFwqSaC2,,,,,,,,,,,,,,,,,,,,"['Very unhappy', 'Very happy']",,63ceed4669bb4db75ade6a1c,16:53:54,27/03/2024
html-keyboard-response,122,243006,0.0-52.0,,"<div style=""font-size:100px;"">+</div>",,delaylearn,learning,ITI,JTdAqTukGUSL9kSsLWYAQFwqSaC2,JTdAqTukGUSL9kSsLWYAQFwqSaC2,,,,,,,,,,,,,,,,,,,2247.0,,,63ceed4669bb4db75ade6a1c,16:53:54,27/03/2024
html-keyboard-response,123,244637,0.0-53.0-0.0,1627.7999999998137,"<div style=""display: flex; flex-direction: column; align-items: center; margin-top: -40px;""><img src=""images/pattern_7.png"" style=""width: 234px; height: 230px; margin-top: -50px;""><div style=""display: flex; justify-content: space-between; margin-top: 33px;""><img src=""images/choice_trial_10.png"" style=""width: 408px; height: 417px; margin-right: 200px;""><img src=""images/choice_trial_8.png"" style=""width: 408px; height: 417px;""></div></div>",f,delaylearn,learning,trial,JTdAqTukGUSL9kSsLWYAQFwqSaC2,JTdAqTukGUSL9kSsLWYAQFwqSaC2,5.0,images/choice_trial_10.png,images/choice_trial_8.png,images/pattern_7.png,j,j,750.0,10.0,8.0,6.0,1.0,23.0,0.0,0.0,10.0,140.0,,,,,,63ceed4669bb4db75ade6a1c,16:53:54,27/03/2024
html-keyboard-response,124,245643,0.0-53.0-1.0,,"<div style=""display: flex; flex-direction: column; align-items: center; margin-top: -40px;""><img src=""images/pattern_7.png"" style=""width: 234px; height: 230px; margin-top: -50px;""><div style=""display: flex; justify-content: space-between; margin-top: 33px;""><img src=""images/choice_trial_10.png"" style=""width: 408px; height: 417px; margin-right: 608px;""></div></div>",,delaylearn,learning,display_response,JTdAqTukGUSL9kSsLWYAQFwqSaC2,JTdAqTukGUSL9kSsLWYAQFwqSaC2,,,,,,,,,,,,,,,,,chosen stimuli: images/choice_trial_10.png,,,,,63ceed4669bb4db75ade6a1c,16:53:54,27/03/2024
html-keyboard-response,125,246397,0.0-53.0-2.0,,,,delaylearn,learning,feedback_duration_window,JTdAqTukGUSL9kSsLWYAQFwqSaC2,JTdAqTukGUSL9kSsLWYAQFwqSaC2,,,,,,,,,,,,,,,,,,750.0,,,,63ceed4669bb4db75ade6a1c,16:53:54,27/03/2024
html-keyboard-response,126,247905,0.0-53.0-3.0,,<div style='margin:auto;width: auto; font-size: 150%'><span style='font-weight: bold; font-size: 100px; color: red;'>0 points!</span><br><br></div>,,delaylearn,learning,feedback_image_window,JTdAqTukGUSL9kSsLWYAQFwqSaC2,JTdAqTukGUSL9kSsLWYAQFwqSaC2,,,,,,,,,,,,,,,,,,,,,,63ceed4669bb4db75ade6a1c,16:53:54,27/03/2024
html-keyboard-response,127,250198,0.0-54.0,,"<div style=""font-size:100px;"">+</div>",,delaylearn,learning,ITI,JTdAqTukGUSL9kSsLWYAQFwqSaC2,JTdAqTukGUSL9kSsLWYAQFwqSaC2,,,,,,,,,,,,,,,,,,,2285.0,,,63ceed4669bb4db75ade6a1c,16:53:54,27/03/2024
html-keyboard-response,128,251811,0.0-55.0-0.0,1610.0999999996275,"<div style=""display: flex; flex-direction: column; align-items: center; margin-top: -40px;""><img src=""images/pattern_1.png"" style=""width: 234px; height: 230px; margin-top: -50px;""><div style=""display: flex; justify-content: space-between; margin-top: 33px;""><img src=""images/choice_trial_15.png"" style=""width: 408px; height: 417px; margin-right: 200px;""><img src=""images/choice_trial_6.png"" style=""width: 408px; height: 417px;""></div></div>",j,delaylearn,learning,trial,JTdAqTukGUSL9kSsLWYAQFwqSaC2,JTdAqTukGUSL9kSsLWYAQFwqSaC2,5.0,images/choice_trial_15.png,images/choice_trial_6.png,images/pattern_1.png,f,j,7000.0,15.0,6.0,1.0,1.0,24.0,1.0,0.0,6.0,140.0,,,,,,63ceed4669bb4db75ade6a1c,16:53:54,27/03/2024
html-keyboard-response,129,252818,0.0-55.0-1.0,,"<div style=""display: flex; flex-direction: column; align-items: center; margin-top: -40px;""><img src=""images/pattern_1.png"" style=""width: 234px; height: 230px; margin-top: -50px;""><div style=""display: flex; justify-content: space-between; margin-top: 33px;""><img src=""images/choice_trial_6.png"" style=""width: 408px; height: 417px; margin-left:608px;""></div></div>",,delaylearn,learning,display_response,JTdAqTukGUSL9kSsLWYAQFwqSaC2,JTdAqTukGUSL9kSsLWYAQFwqSaC2,,,,,,,,,,,,,,,,,chosen stimuli: images/choice_trial_6.png,,,,,63ceed4669bb4db75ade6a1c,16:53:54,27/03/2024
html-keyboard-response,130,259825,0.0-55.0-2.0,,,,delaylearn,learning,feedback_duration_window,JTdAqTukGUSL9kSsLWYAQFwqSaC2,JTdAqTukGUSL9kSsLWYAQFwqSaC2,,,,,,,,,,,,,,,,,,7000.0,,,,63ceed4669bb4db75ade6a1c,16:53:54,27/03/2024
html-keyboard-response,131,261330,0.0-55.0-3.0,,<div style='margin:auto;width: auto; font-size: 150%'><span style='font-weight: bold; font-size: 100px; color: red;'>0 points!</span><br><br></div>,,delaylearn,learning,feedback_image_window,JTdAqTukGUSL9kSsLWYAQFwqSaC2,JTdAqTukGUSL9kSsLWYAQFwqSaC2,,,,,,,,,,,,,,,,,,,,,,63ceed4669bb4db75ade6a1c,16:53:54,27/03/2024
html-keyboard-response,132,263368,0.0-56.0,,"<div style=""font-size:100px;"">+</div>",,delaylearn,learning,ITI,JTdAqTukGUSL9kSsLWYAQFwqSaC2,JTdAqTukGUSL9kSsLWYAQFwqSaC2,,,,,,,,,,,,,,,,,,,2030.0,,,63ceed4669bb4db75ade6a1c,16:53:54,27/03/2024
html-keyboard-response,133,265744,0.0-57.0-0.0,2372.7000000001863,"<div style=""display: flex; flex-direction: column; align-items: center; margin-top: -40px;""><img src=""images/pattern_5.png"" style=""width: 234px; height: 230px; margin-top: -50px;""><div style=""display: flex; justify-content: space-between; margin-top: 33px;""><img src=""images/choice_trial_13.png"" style=""width: 408px; height: 417px; margin-right: 200px;""><img src=""images/choice_trial_7.png"" style=""width: 408px; height: 417px;""></div></div>",j,delaylearn,learning,trial,JTdAqTukGUSL9kSsLWYAQFwqSaC2,JTdAqTukGUSL9kSsLWYAQFwqSaC2,5.0,images/choice_trial_13.png,images/choice_trial_7.png,images/pattern_5.png,j,j,750.0,13.0,7.0,4.0,1.0,25.0,1.0,1.0,7.0,150.0,,,,,,63ceed4669bb4db75ade6a1c,16:53:54,27/03/2024
html-keyboard-response,134,266752,0.0-57.0-1.0,,"<div style=""display: flex; flex-direction: column; align-items: center; margin-top: -40px;""><img src=""images/pattern_5.png"" style=""width: 234px; height: 230px; margin-top: -50px;""><div style=""display: flex; justify-content: space-between; margin-top: 33px;""><img src=""images/choice_trial_7.png"" style=""width: 408px; height: 417px; margin-left:608px;""></div></div>",,delaylearn,learning,display_response,JTdAqTukGUSL9kSsLWYAQFwqSaC2,JTdAqTukGUSL9kSsLWYAQFwqSaC2,,,,,,,,,,,,,,,,,chosen stimuli: images/choice_trial_7.png,,,,,63ceed4669bb4db75ade6a1c,16:53:54,27/03/2024
html-keyboard-response,135,267504,0.0-57.0-2.0,,,,delaylearn,learning,feedback_duration_window,JTdAqTukGUSL9kSsLWYAQFwqSaC2,JTdAqTukGUSL9kSsLWYAQFwqSaC2,,,,,,,,,,,,,,,,,,750.0,,,,63ceed4669bb4db75ade6a1c,16:53:54,27/03/2024
html-keyboard-response,136,269011,0.0-57.0-3.0,,<div style='margin:auto;width: auto; font-size: 150%'><span style='font-weight: bold; font-size: 100px; color: green;'>+10 points!</span><br><br></div>,,delaylearn,learning,feedback_image_window,JTdAqTukGUSL9kSsLWYAQFwqSaC2,JTdAqTukGUSL9kSsLWYAQFwqSaC2,,,,,,,,,,,,,,,,,,,,,,63ceed4669bb4db75ade6a1c,16:53:54,27/03/2024
html-keyboard-response,137,271176,0.0-58.0,,"<div style=""font-size:100px;"">+</div>",,delaylearn,learning,ITI,JTdAqTukGUSL9kSsLWYAQFwqSaC2,JTdAqTukGUSL9kSsLWYAQFwqSaC2,,,,,,,,,,,,,,,,,,,2158.0,,,63ceed4669bb4db75ade6a1c,16:53:54,27/03/2024
html-keyboard-response,138,273229,0.0-59.0-0.0,2049.7999999998137,"<div style=""display: flex; flex-direction: column; align-items: center; margin-top: -40px;""><img src=""images/pattern_3.png"" style=""width: 234px; height: 230px; margin-top: -50px;""><div style=""display: flex; justify-content: space-between; margin-top: 33px;""><img src=""images/choice_trial_2.png"" style=""width: 408px; height: 417px; margin-right: 200px;""><img src=""images/choice_trial_16.png"" style=""width: 408px; height: 417px;""></div></div>",f,delaylearn,learning,trial,JTdAqTukGUSL9kSsLWYAQFwqSaC2,JTdAqTukGUSL9kSsLWYAQFwqSaC2,5.0,images/choice_trial_2.png,images/choice_trial_16.png,images/pattern_3.png,j,j,7000.0,2.0,16.0,2.0,1.0,26.0,0.0,0.0,2.0,150.0,,,,,,63ceed4669bb4db75ade6a1c,16:53:54,27/03/2024
html-keyboard-response,139,274237,0.0-59.0-1.0,,"<div style=""display: flex; flex-direction: column; align-items: center; margin-top: -40px;""><img src=""images/pattern_3.png"" style=""width: 234px; height: 230px; margin-top: -50px;""><div style=""display: flex; justify-content: space-between; margin-top: 33px;""><img src=""images/choice_trial_2.png"" style=""width: 408px; height: 417px; margin-right: 608px;""></div></div>",,delaylearn,learning,display_response,JTdAqTukGUSL9kSsLWYAQFwqSaC2,JTdAqTukGUSL9kSsLWYAQFwqSaC2,,,,,,,,,,,,,,,,,chosen stimuli: images/choice_trial_2.png,,,,,63ceed4669bb4db75ade6a1c,16:53:54,27/03/2024
html-keyboard-response,140,281245,0.0-59.0-2.0,,,,delaylearn,learning,feedback_duration_window,JTdAqTukGUSL9kSsLWYAQFwqSaC2,JTdAqTukGUSL9kSsLWYAQFwqSaC2,,,,,,,,,,,,,,,,,,7000.0,,,,63ceed4669bb4db75ade6a1c,16:53:54,27/03/2024
html-keyboard-response,141,282749,0.0-59.0-3.0,,<div style='margin:auto;width: auto; font-size: 150%'><span style='font-weight: bold; font-size: 100px; color: red;'>0 points!</span><br><br></div>,,delaylearn,learning,feedback_image_window,JTdAqTukGUSL9kSsLWYAQFwqSaC2,JTdAqTukGUSL9kSsLWYAQFwqSaC2,,,,,,,,,,,,,,,,,,,,,,63ceed4669bb4db75ade6a1c,16:53:54,27/03/2024
lmdlab-html-vas-response,142,287278,0.0-60.0-0.0,3019.0,*How <b><u>confident</u></b> are you feeling about your answers at this moment?*,0.29891304347826086,rewlearn,rate_confidence,,JTdAqTukGUSL9kSsLWYAQFwqSaC2,JTdAqTukGUSL9kSsLWYAQFwqSaC2,,,,,,,,,,,,,,,,,,,,"['No confidence', 'Complete confidence']",,63ceed4669bb4db75ade6a1c,16:53:54,27/03/2024
lmdlab-rest-trial-limit,143,296760,0.0-60.0-1.0,7972.199999999721,"<div style=""font-size:40px;""><b>Please take a break!</b><br><br><br><br><p>Great work: you earned 150 points.<br><br><br><p>You have completed part(s) 1 of 5.<br><br><br><br>When you are ready to continue<br><br><br>please click the button.</p><br><br>",0,delaylearn,learning,break,JTdAqTukGUSL9kSsLWYAQFwqSaC2,JTdAqTukGUSL9kSsLWYAQFwqSaC2,,,,,,,,,,,,,,,,,,,,,0.0,63ceed4669bb4db75ade6a1c,16:53:54,27/03/2024
html-keyboard-response,144,299763,0.0-60.0-2.0,,"<div style=""font-size:100px;"">+</div>",,delaylearn,learning,pre_fixation,JTdAqTukGUSL9kSsLWYAQFwqSaC2,,,,,,,,,,,,,,,,,,,,,,,63ceed4669bb4db75ade6a1c,16:53:54,27/03/2024
lmdlab-html-vas-response,145,303520,0.0-60.0-3.0-0.0,2749.0,How happy are you right now?,0.4076086956521739,delaylearn,learning,mood_baseline,JTdAqTukGUSL9kSsLWYAQFwqSaC2,JTdAqTukGUSL9kSsLWYAQFwqSaC2,,,,,,,,,,,,,,,,,,,,"['Very unhappy', 'Very happy']",,63ceed4669bb4db75ade6a1c,16:53:54,27/03/2024
html-keyboard-response,146,305028,0.0-60.0-3.0-1.0,,,,,,mood_baseline_fixation,JTdAqTukGUSL9kSsLWYAQFwqSaC2,,,,,,,,,,,,,,,,,,,,,,,63ceed4669bb4db75ade6a1c,16:53:54,27/03/2024
html-keyboard-response,147,306554,0.0-61.0,,"<div style=""font-size:100px;"">+</div>",,delaylearn,learning,ITI,JTdAqTukGUSL9kSsLWYAQFwqSaC2,JTdAqTukGUSL9kSsLWYAQFwqSaC2,,,,,,,,,,,,,,,,,,,1520.0,,,63ceed4669bb4db75ade6a1c,16:53:54,27/03/2024
html-keyboard-response,148,309303,0.0-62.0-0.0,2746.100000000093,"<div style=""display: flex; flex-direction: column; align-items: center; margin-top: -40px;""><img src=""images/pattern_7.png"" style=""width: 234px; height: 230px; margin-top: -50px;""><div style=""display: flex; justify-content: space-between; margin-top: 33px;""><img src=""images/choice_trial_10.png"" style=""width: 408px; height: 417px; margin-right: 200px;""><img src=""images/choice_trial_8.png"" style=""width: 408px; height: 417px;""></div></div>",f,delaylearn,learning,trial,JTdAqTukGUSL9kSsLWYAQFwqSaC2,JTdAqTukGUSL9kSsLWYAQFwqSaC2,5.0,images/choice_trial_10.png,images/choice_trial_8.png,images/pattern_7.png,j,j,750.0,10.0,8.0,6.0,1.0,27.0,0.0,0.0,10.0,150.0,,,,,,63ceed4669bb4db75ade6a1c,16:53:54,27/03/2024
html-keyboard-response,149,310308,0.0-62.0-1.0,,"<div style=""display: flex; flex-direction: column; align-items: center; margin-top: -40px;""><img src=""images/pattern_7.png"" style=""width: 234px; height: 230px; margin-top: -50px;""><div style=""display: flex; justify-content: space-between; margin-top: 33px;""><img src=""images/choice_trial_10.png"" style=""width: 408px; height: 417px; margin-right: 608px;""></div></div>",,delaylearn,learning,display_response,JTdAqTukGUSL9kSsLWYAQFwqSaC2,JTdAqTukGUSL9kSsLWYAQFwqSaC2,,,,,,,,,,,,,,,,,chosen stimuli: images/choice_trial_10.png,,,,,63ceed4669bb4db75ade6a1c,16:53:54,27/03/2024
html-keyboard-response,150,311065,0.0-62.0-2.0,,,,delaylearn,learning,feedback_duration_window,JTdAqTukGUSL9kSsLWYAQFwqSaC2,JTdAqTukGUSL9kSsLWYAQFwqSaC2,,,,,,,,,,,,,,,,,,750.0,,,,63ceed4669bb4db75ade6a1c,16:53:54,27/03/2024
html-keyboard-response,151,312573,0.0-62.0-3.0,,<div style='margin:auto;width: auto; font-size: 150%'><span style='font-weight: bold; font-size: 100px; color: red;'>0 points!</span><br><br></div>,,delaylearn,learning,feedback_image_window,JTdAqTukGUSL9kSsLWYAQFwqSaC2,JTdAqTukGUSL9kSsLWYAQFwqSaC2,,,,,,,,,,,,,,,,,,,,,,63ceed4669bb4db75ade6a1c,16:53:54,27/03/2024
html-keyboard-response,152,313078,0.0-63.0-0.0,,,,,,mood_trial_fixation,JTdAqTukGUSL9kSsLWYAQFwqSaC2,,,,,,,,,,,,,,,,,,,,,,,63ceed4669bb4db75ade6a1c,16:53:54,27/03/2024
lmdlab-html-vas-response,153,316378,0.0-63.0-1.0,2290.0,How happy are you right now?,0.302536231884058,delaylearn,learning,mood_trial,JTdAqTukGUSL9kSsLWYAQFwqSaC2,JTdAqTukGUSL9kSsLWYAQFwqSaC2,,,,,,,,,,,,,,,,,,,,"['Very unhappy', 'Very happy']",,63ceed4669bb4db75ade6a1c,16:53:54,27/03/2024
html-keyboard-response,154,317910,0.0-64.0,,"<div style=""font-size:100px;"">+</div>",,delaylearn,learning,ITI,JTdAqTukGUSL9kSsLWYAQFwqSaC2,JTdAqTukGUSL9kSsLWYAQFwqSaC2,,,,,,,,,,,,,,,,,,,1524.0,,,63ceed4669bb4db75ade6a1c,16:53:54,27/03/2024
html-keyboard-response,155,320918,0.0-65.0-0.0,,"<div style=""display: flex; flex-direction: column; align-items: center; margin-top: -40px;""><img src=""images/pattern_1.png"" style=""width: 234px; height: 230px; margin-top: -50px;""><div style=""display: flex; justify-content: space-between; margin-top: 33px;""><img src=""images/choice_trial_6.png"" style=""width: 408px; height: 417px; margin-right: 200px;""><img src=""images/choice_trial_15.png"" style=""width: 408px; height: 417px;""></div></div>",,delaylearn,learning,trial,JTdAqTukGUSL9kSsLWYAQFwqSaC2,JTdAqTukGUSL9kSsLWYAQFwqSaC2,5.0,images/choice_trial_6.png,images/choice_trial_15.png,images/pattern_1.png,f,f,7000.0,6.0,15.0,1.0,0.0,28.0,0.0,0.0,0.0,150.0,,,,,,63ceed4669bb4db75ade6a1c,16:53:54,27/03/2024
html-keyboard-response,156,321926,0.0-65.0-1.0,,<div style='font-weight: bold; font-size: 75px; color: red;'>Missed Trial <br><br><br><br> Please respond faster</div>,,delaylearn,learning,display_response,JTdAqTukGUSL9kSsLWYAQFwqSaC2,JTdAqTukGUSL9kSsLWYAQFwqSaC2,,,,,,,,,,,,,,,,,Missed trial,,,,,63ceed4669bb4db75ade6a1c,16:53:54,27/03/2024
html-keyboard-response,157,321932,0.0-65.0-2.0,,,,delaylearn,learning,feedback_duration_window,JTdAqTukGUSL9kSsLWYAQFwqSaC2,JTdAqTukGUSL9kSsLWYAQFwqSaC2,,,,,,,,,,,,,,,,,,0.0,,,,63ceed4669bb4db75ade6a1c,16:53:54,27/03/2024
html-keyboard-response,158,321937,0.0-65.0-3.0,,,,delaylearn,learning,feedback_image_window,JTdAqTukGUSL9kSsLWYAQFwqSaC2,JTdAqTukGUSL9kSsLWYAQFwqSaC2,,,,,,,,,,,,,,,,,,,,,,63ceed4669bb4db75ade6a1c,16:53:54,27/03/2024
html-keyboard-response,159,324217,0.0-66.0,,"<div style=""font-size:100px;"">+</div>",,delaylearn,learning,ITI,JTdAqTukGUSL9kSsLWYAQFwqSaC2,JTdAqTukGUSL9kSsLWYAQFwqSaC2,,,,,,,,,,,,,,,,,,,2273.0,,,63ceed4669bb4db75ade6a1c,16:53:54,27/03/2024
html-keyboard-response,160,325721,0.0-67.0-0.0,1500.5,"<div style=""display: flex; flex-direction: column; align-items: center; margin-top: -40px;""><img src=""images/pattern_5.png"" style=""width: 234px; height: 230px; margin-top: -50px;""><div style=""display: flex; justify-content: space-between; margin-top: 33px;""><img src=""images/choice_trial_7.png"" style=""width: 408px; height: 417px; margin-right: 200px;""><img src=""images/choice_trial_13.png"" style=""width: 408px; height: 417px;""></div></div>",f,delaylearn,learning,trial,JTdAqTukGUSL9kSsLWYAQFwqSaC2,JTdAqTukGUSL9kSsLWYAQFwqSaC2,5.0,images/choice_trial_7.png,images/choice_trial_13.png,images/pattern_5.png,f,f,750.0,7.0,13.0,4.0,0.0,29.0,1.0,1.0,7.0,160.0,,,,,,63ceed4669bb4db75ade6a1c,16:53:54,27/03/2024
html-keyboard-response,161,326729,0.0-67.0-1.0,,"<div style=""display: flex; flex-direction: column; align-items: center; margin-top: -40px;""><img src=""images/pattern_5.png"" style=""width: 234px; height: 230px; margin-top: -50px;""><div style=""display: flex; justify-content: space-between; margin-top: 33px;""><img src=""images/choice_trial_7.png"" style=""width: 408px; height: 417px; margin-right: 608px;""></div></div>",,delaylearn,learning,display_response,JTdAqTukGUSL9kSsLWYAQFwqSaC2,JTdAqTukGUSL9kSsLWYAQFwqSaC2,,,,,,,,,,,,,,,,,chosen stimuli: images/choice_trial_7.png,,,,,63ceed4669bb4db75ade6a1c,16:53:54,27/03/2024
html-keyboard-response,162,327482,0.0-67.0-2.0,,,,delaylearn,learning,feedback_duration_window,JTdAqTukGUSL9kSsLWYAQFwqSaC2,JTdAqTukGUSL9kSsLWYAQFwqSaC2,,,,,,,,,,,,,,,,,,750.0,,,,63ceed4669bb4db75ade6a1c,16:53:54,27/03/2024
html-keyboard-response,163,328990,0.0-67.0-3.0,,<div style='margin:auto;width: auto; font-size: 150%'><span style='font-weight: bold; font-size: 100px; color: green;'>+10 points!</span><br><br></div>,,delaylearn,learning,feedback_image_window,JTdAqTukGUSL9kSsLWYAQFwqSaC2,JTdAqTukGUSL9kSsLWYAQFwqSaC2,,,,,,,,,,,,,,,,,,,,,,63ceed4669bb4db75ade6a1c,16:53:54,27/03/2024
html-keyboard-response,164,330838,0.0-68.0,,"<div style=""font-size:100px;"">+</div>",,delaylearn,learning,ITI,JTdAqTukGUSL9kSsLWYAQFwqSaC2,JTdAqTukGUSL9kSsLWYAQFwqSaC2,,,,,,,,,,,,,,,,,,,1845.0,,,63ceed4669bb4db75ade6a1c,16:53:54,27/03/2024
html-keyboard-response,165,332759,0.0-69.0-0.0,1917.2999999998137,"<div style=""display: flex; flex-direction: column; align-items: center; margin-top: -40px;""><img src=""images/pattern_6.png"" style=""width: 234px; height: 230px; margin-top: -50px;""><div style=""display: flex; justify-content: space-between; margin-top: 33px;""><img src=""images/choice_trial_9.png"" style=""width: 408px; height: 417px; margin-right: 200px;""><img src=""images/choice_trial_14.png"" style=""width: 408px; height: 417px;""></div></div>",j,delaylearn,learning,trial,JTdAqTukGUSL9kSsLWYAQFwqSaC2,JTdAqTukGUSL9kSsLWYAQFwqSaC2,5.0,images/choice_trial_9.png,images/choice_trial_14.png,images/pattern_6.png,j,j,750.0,9.0,14.0,5.0,1.0,30.0,1.0,1.0,14.0,170.0,,,,,,63ceed4669bb4db75ade6a1c,16:53:54,27/03/2024
html-keyboard-response,166,333766,0.0-69.0-1.0,,"<div style=""display: flex; flex-direction: column; align-items: center; margin-top: -40px;""><img src=""images/pattern_6.png"" style=""width: 234px; height: 230px; margin-top: -50px;""><div style=""display: flex; justify-content: space-between; margin-top: 33px;""><img src=""images/choice_trial_14.png"" style=""width: 408px; height: 417px; margin-left:608px;""></div></div>",,delaylearn,learning,display_response,JTdAqTukGUSL9kSsLWYAQFwqSaC2,JTdAqTukGUSL9kSsLWYAQFwqSaC2,,,,,,,,,,,,,,,,,chosen stimuli: images/choice_trial_14.png,,,,,63ceed4669bb4db75ade6a1c,16:53:54,27/03/2024
html-keyboard-response,167,334521,0.0-69.0-2.0,,,,delaylearn,learning,feedback_duration_window,JTdAqTukGUSL9kSsLWYAQFwqSaC2,JTdAqTukGUSL9kSsLWYAQFwqSaC2,,,,,,,,,,,,,,,,,,750.0,,,,63ceed4669bb4db75ade6a1c,16:53:54,27/03/2024
html-keyboard-response,168,336030,0.0-69.0-3.0,,<div style='margin:auto;width: auto; font-size: 150%'><span style='font-weight: bold; font-size: 100px; color: green;'>+10 points!</span><br><br></div>,,delaylearn,learning,feedback_image_window,JTdAqTukGUSL9kSsLWYAQFwqSaC2,JTdAqTukGUSL9kSsLWYAQFwqSaC2,,,,,,,,,,,,,,,,,,,,,,63ceed4669bb4db75ade6a1c,16:53:54,27/03/2024
html-keyboard-response,169,336534,0.0-70.0-0.0,,,,,,mood_trial_fixation,JTdAqTukGUSL9kSsLWYAQFwqSaC2,,,,,,,,,,,,,,,,,,,,,,,63ceed4669bb4db75ade6a1c,16:53:54,27/03/2024
lmdlab-html-vas-response,170,339725,0.0-70.0-1.0,2184.0,How happy are you right now?,0.552536231884058,delaylearn,learning,mood_trial,JTdAqTukGUSL9kSsLWYAQFwqSaC2,JTdAqTukGUSL9kSsLWYAQFwqSaC2,,,,,,,,,,,,,,,,,,,,"['Very unhappy', 'Very happy']",,63ceed4669bb4db75ade6a1c,16:53:54,27/03/2024
html-keyboard-response,171,341312,0.0-71.0,,"<div style=""font-size:100px;"">+</div>",,delaylearn,learning,ITI,JTdAqTukGUSL9kSsLWYAQFwqSaC2,JTdAqTukGUSL9kSsLWYAQFwqSaC2,,,,,,,,,,,,,,,,,,,1579.0,,,63ceed4669bb4db75ade6a1c,16:53:54,27/03/2024
html-keyboard-response,172,343020,0.0-72.0-0.0,1704.2999999998137,"<div style=""display: flex; flex-direction: column; align-items: center; margin-top: -40px;""><img src=""images/pattern_4.png"" style=""width: 234px; height: 230px; margin-top: -50px;""><div style=""display: flex; justify-content: space-between; margin-top: 33px;""><img src=""images/choice_trial_4.png"" style=""width: 408px; height: 417px; margin-right: 200px;""><img src=""images/choice_trial_11.png"" style=""width: 408px; height: 417px;""></div></div>",j,delaylearn,learning,trial,JTdAqTukGUSL9kSsLWYAQFwqSaC2,JTdAqTukGUSL9kSsLWYAQFwqSaC2,5.0,images/choice_trial_4.png,images/choice_trial_11.png,images/pattern_4.png,j,j,7000.0,4.0,11.0,3.0,1.0,31.0,1.0,1.0,11.0,180.0,,,,,,63ceed4669bb4db75ade6a1c,16:53:54,27/03/2024
html-keyboard-response,173,344028,0.0-72.0-1.0,,"<div style=""display: flex; flex-direction: column; align-items: center; margin-top: -40px;""><img src=""images/pattern_4.png"" style=""width: 234px; height: 230px; margin-top: -50px;""><div style=""display: flex; justify-content: space-between; margin-top: 33px;""><img src=""images/choice_trial_11.png"" style=""width: 408px; height: 417px; margin-left:608px;""></div></div>",,delaylearn,learning,display_response,JTdAqTukGUSL9kSsLWYAQFwqSaC2,JTdAqTukGUSL9kSsLWYAQFwqSaC2,,,,,,,,,,,,,,,,,chosen stimuli: images/choice_trial_11.png,,,,,63ceed4669bb4db75ade6a1c,16:53:54,27/03/2024
html-keyboard-response,174,351033,0.0-72.0-2.0,,,,delaylearn,learning,feedback_duration_window,JTdAqTukGUSL9kSsLWYAQFwqSaC2,JTdAqTukGUSL9kSsLWYAQFwqSaC2,,,,,,,,,,,,,,,,,,7000.0,,,,63ceed4669bb4db75ade6a1c,16:53:54,27/03/2024
html-keyboard-response,175,352537,0.0-72.0-3.0,,<div style='margin:auto;width: auto; font-size: 150%'><span style='font-weight: bold; font-size: 100px; color: green;'>+10 points!</span><br><br></div>,,delaylearn,learning,feedback_image_window,JTdAqTukGUSL9kSsLWYAQFwqSaC2,JTdAqTukGUSL9kSsLWYAQFwqSaC2,,,,,,,,,,,,,,,,,,,,,,63ceed4669bb4db75ade6a1c,16:53:54,27/03/2024
html-keyboard-response,176,354191,0.0-73.0,,"<div style=""font-size:100px;"">+</div>",,delaylearn,learning,ITI,JTdAqTukGUSL9kSsLWYAQFwqSaC2,JTdAqTukGUSL9kSsLWYAQFwqSaC2,,,,,,,,,,,,,,,,,,,1647.0,,,63ceed4669bb4db75ade6a1c,16:53:54,27/03/2024
html-keyboard-response,177,356230,0.0-74.0-0.0,2035.1000000000931,"<div style=""display: flex; flex-direction: column; align-items: center; margin-top: -40px;""><img src=""images/pattern_3.png"" style=""width: 234px; height: 230px; margin-top: -50px;""><div style=""display: flex; justify-content: space-between; margin-top: 33px;""><img src=""images/choice_trial_2.png"" style=""width: 408px; height: 417px; margin-right: 200px;""><img src=""images/choice_trial_16.png"" style=""width: 408px; height: 417px;""></div></div>",f,delaylearn,learning,trial,JTdAqTukGUSL9kSsLWYAQFwqSaC2,JTdAqTukGUSL9kSsLWYAQFwqSaC2,5.0,images/choice_trial_2.png,images/choice_trial_16.png,images/pattern_3.png,j,j,7000.0,2.0,16.0,2.0,1.0,32.0,0.0,0.0,2.0,180.0,,,,,,63ceed4669bb4db75ade6a1c,16:53:54,27/03/2024
html-keyboard-response,178,357238,0.0-74.0-1.0,,"<div style=""display: flex; flex-direction: column; align-items: center; margin-top: -40px;""><img src=""images/pattern_3.png"" style=""width: 234px; height: 230px; margin-top: -50px;""><div style=""display: flex; justify-content: space-between; margin-top: 33px;""><img src=""images/choice_trial_2.png"" style=""width: 408px; height: 417px; margin-right: 608px;""></div></div>",,delaylearn,learning,display_response,JTdAqTukGUSL9kSsLWYAQFwqSaC2,JTdAqTukGUSL9kSsLWYAQFwqSaC2,,,,,,,,,,,,,,,,,chosen stimuli: images/choice_trial_2.png,,,,,63ceed4669bb4db75ade6a1c,16:53:54,27/03/2024
html-keyboard-response,179,364240,0.0-74.0-2.0,,,,delaylearn,learning,feedback_duration_window,JTdAqTukGUSL9kSsLWYAQFwqSaC2,JTdAqTukGUSL9kSsLWYAQFwqSaC2,,,,,,,,,,,,,,,,,,7000.0,,,,63ceed4669bb4db75ade6a1c,16:53:54,27/03/2024
html-keyboard-response,180,365748,0.0-74.0-3.0,,<div style='margin:auto;width: auto; font-size: 150%'><span style='font-weight: bold; font-size: 100px; color: red;'>0 points!</span><br><br></div>,,delaylearn,learning,feedback_image_window,JTdAqTukGUSL9kSsLWYAQFwqSaC2,JTdAqTukGUSL9kSsLWYAQFwqSaC2,,,,,,,,,,,,,,,,,,,,,,63ceed4669bb4db75ade6a1c,16:53:54,27/03/2024
html-keyboard-response,181,367396,0.0-75.0,,"<div style=""font-size:100px;"">+</div>",,delaylearn,learning,ITI,JTdAqTukGUSL9kSsLWYAQFwqSaC2,JTdAqTukGUSL9kSsLWYAQFwqSaC2,,,,,,,,,,,,,,,,,,,1641.0,,,63ceed4669bb4db75ade6a1c,16:53:54,27/03/2024
html-keyboard-response,182,368410,0.0-76.0-0.0,1010.1000000000931,"<div style=""display: flex; flex-direction: column; align-items: center; margin-top: -40px;""><img src=""images/pattern_5.png"" style=""width: 234px; height: 230px; margin-top: -50px;""><div style=""display: flex; justify-content: space-between; margin-top: 33px;""><img src=""images/choice_trial_7.png"" style=""width: 408px; height: 417px; margin-right: 200px;""><img src=""images/choice_trial_13.png"" style=""width: 408px; height: 417px;""></div></div>",f,delaylearn,learning,trial,JTdAqTukGUSL9kSsLWYAQFwqSaC2,JTdAqTukGUSL9kSsLWYAQFwqSaC2,5.0,images/choice_trial_7.png,images/choice_trial_13.png,images/pattern_5.png,j,f,750.0,7.0,13.0,4.0,0.0,33.0,1.0,0.0,7.0,180.0,,,,,,63ceed4669bb4db75ade6a1c,16:53:54,27/03/2024
html-keyboard-response,183,369414,0.0-76.0-1.0,,"<div style=""display: flex; flex-direction: column; align-items: center; margin-top: -40px;""><img src=""images/pattern_5.png"" style=""width: 234px; height: 230px; margin-top: -50px;""><div style=""display: flex; justify-content: space-between; margin-top: 33px;""><img src=""images/choice_trial_7.png"" style=""width: 408px; height: 417px; margin-right: 608px;""></div></div>",,delaylearn,learning,display_response,JTdAqTukGUSL9kSsLWYAQFwqSaC2,JTdAqTukGUSL9kSsLWYAQFwqSaC2,,,,,,,,,,,,,,,,,chosen stimuli: images/choice_trial_7.png,,,,,63ceed4669bb4db75ade6a1c,16:53:54,27/03/2024
html-keyboard-response,184,370167,0.0-76.0-2.0,,,,delaylearn,learning,feedback_duration_window,JTdAqTukGUSL9kSsLWYAQFwqSaC2,JTdAqTukGUSL9kSsLWYAQFwqSaC2,,,,,,,,,,,,,,,,,,750.0,,,,63ceed4669bb4db75ade6a1c,16:53:54,27/03/2024
html-keyboard-response,185,371675,0.0-76.0-3.0,,<div style='margin:auto;width: auto; font-size: 150%'><span style='font-weight: bold; font-size: 100px; color: red;'>0 points!</span><br><br></div>,,delaylearn,learning,feedback_image_window,JTdAqTukGUSL9kSsLWYAQFwqSaC2,JTdAqTukGUSL9kSsLWYAQFwqSaC2,,,,,,,,,,,,,,,,,,,,,,63ceed4669bb4db75ade6a1c,16:53:54,27/03/2024
html-keyboard-response,186,373766,0.0-77.0,,"<div style=""font-size:100px;"">+</div>",,delaylearn,learning,ITI,JTdAqTukGUSL9kSsLWYAQFwqSaC2,JTdAqTukGUSL9kSsLWYAQFwqSaC2,,,,,,,,,,,,,,,,,,,2084.0,,,63ceed4669bb4db75ade6a1c,16:53:54,27/03/2024
html-keyboard-response,187,375788,0.0-78.0-0.0,2018.1000000000931,"<div style=""display: flex; flex-direction: column; align-items: center; margin-top: -40px;""><img src=""images/pattern_1.png"" style=""width: 234px; height: 230px; margin-top: -50px;""><div style=""display: flex; justify-content: space-between; margin-top: 33px;""><img src=""images/choice_trial_6.png"" style=""width: 408px; height: 417px; margin-right: 200px;""><img src=""images/choice_trial_15.png"" style=""width: 408px; height: 417px;""></div></div>",j,delaylearn,learning,trial,JTdAqTukGUSL9kSsLWYAQFwqSaC2,JTdAqTukGUSL9kSsLWYAQFwqSaC2,5.0,images/choice_trial_6.png,images/choice_trial_15.png,images/pattern_1.png,f,f,7000.0,6.0,15.0,1.0,0.0,34.0,0.0,0.0,15.0,180.0,,,,,,63ceed4669bb4db75ade6a1c,16:53:54,27/03/2024
html-keyboard-response,188,376796,0.0-78.0-1.0,,"<div style=""display: flex; flex-direction: column; align-items: center; margin-top: -40px;""><img src=""images/pattern_1.png"" style=""width: 234px; height: 230px; margin-top: -50px;""><div style=""display: flex; justify-content: space-between; margin-top: 33px;""><img src=""images/choice_trial_15.png"" style=""width: 408px; height: 417px; margin-left:608px;""></div></div>",,delaylearn,learning,display_response,JTdAqTukGUSL9kSsLWYAQFwqSaC2,JTdAqTukGUSL9kSsLWYAQFwqSaC2,,,,,,,,,,,,,,,,,chosen stimuli: images/choice_trial_15.png,,,,,63ceed4669bb4db75ade6a1c,16:53:54,27/03/2024
html-keyboard-response,189,383803,0.0-78.0-2.0,,,,delaylearn,learning,feedback_duration_window,JTdAqTukGUSL9kSsLWYAQFwqSaC2,JTdAqTukGUSL9kSsLWYAQFwqSaC2,,,,,,,,,,,,,,,,,,7000.0,,,,63ceed4669bb4db75ade6a1c,16:53:54,27/03/2024
html-keyboard-response,190,385311,0.0-78.0-3.0,,<div style='margin:auto;width: auto; font-size: 150%'><span style='font-weight: bold; font-size: 100px; color: red;'>0 points!</span><br><br></div>,,delaylearn,learning,feedback_image_window,JTdAqTukGUSL9kSsLWYAQFwqSaC2,JTdAqTukGUSL9kSsLWYAQFwqSaC2,,,,,,,,,,,,,,,,,,,,,,63ceed4669bb4db75ade6a1c,16:53:54,27/03/2024
html-keyboard-response,191,385815,0.0-79.0-0.0,,,,,,mood_trial_fixation,JTdAqTukGUSL9kSsLWYAQFwqSaC2,,,,,,,,,,,,,,,,,,,,,,,63ceed4669bb4db75ade6a1c,16:53:54,27/03/2024
lmdlab-html-vas-response,192,388941,0.0-79.0-1.0,2116.0,How happy are you right now?,0.37681159420289856,delaylearn,learning,mood_trial,JTdAqTukGUSL9kSsLWYAQFwqSaC2,JTdAqTukGUSL9kSsLWYAQFwqSaC2,,,,,,,,,,,,,,,,,,,,"['Very unhappy', 'Very happy']",,63ceed4669bb4db75ade6a1c,16:53:54,27/03/2024
html-keyboard-response,193,390789,0.0-80.0,,"<div style=""font-size:100px;"">+</div>",,delaylearn,learning,ITI,JTdAqTukGUSL9kSsLWYAQFwqSaC2,JTdAqTukGUSL9kSsLWYAQFwqSaC2,,,,,,,,,,,,,,,,,,,1841.0,,,63ceed4669bb4db75ade6a1c,16:53:54,27/03/2024
html-keyboard-response,194,392204,0.0-81.0-0.0,1410.5999999996275,"<div style=""display: flex; flex-direction: column; align-items: center; margin-top: -40px;""><img src=""images/pattern_6.png"" style=""width: 234px; height: 230px; margin-top: -50px;""><div style=""display: flex; justify-content: space-between; margin-top: 33px;""><img src=""images/choice_trial_14.png"" style=""width: 408px; height: 417px; margin-right: 200px;""><img src=""images/choice_trial_9.png"" style=""width: 408px; height: 417px;""></div></div>",f,delaylearn,learning,trial,JTdAqTukGUSL9kSsLWYAQFwqSaC2,JTdAqTukGUSL9kSsLWYAQFwqSaC2,5.0,images/choice_trial_14.png,images/choice_trial_9.png,images/pattern_6.png,j,f,750.0,14.0,9.0,5.0,0.0,35.0,1.0,0.0,14.0,180.0,,,,,,63ceed4669bb4db75ade6a1c,16:53:54,27/03/2024
html-keyboard-response,195,393207,0.0-81.0-1.0,,"<div style=""display: flex; flex-direction: column; align-items: center; margin-top: -40px;""><img src=""images/pattern_6.png"" style=""width: 234px; height: 230px; margin-top: -50px;""><div style=""display: flex; justify-content: space-between; margin-top: 33px;""><img src=""images/choice_trial_14.png"" style=""width: 408px; height: 417px; margin-right: 608px;""></div></div>",,delaylearn,learning,display_response,JTdAqTukGUSL9kSsLWYAQFwqSaC2,JTdAqTukGUSL9kSsLWYAQFwqSaC2,,,,,,,,,,,,,,,,,chosen stimuli: images/choice_trial_14.png,,,,,63ceed4669bb4db75ade6a1c,16:53:54,27/03/2024
html-keyboard-response,196,393964,0.0-81.0-2.0,,,,delaylearn,learning,feedback_duration_window,JTdAqTukGUSL9kSsLWYAQFwqSaC2,JTdAqTukGUSL9kSsLWYAQFwqSaC2,,,,,,,,,,,,,,,,,,750.0,,,,63ceed4669bb4db75ade6a1c,16:53:54,27/03/2024
html-keyboard-response,197,395472,0.0-81.0-3.0,,<div style='margin:auto;width: auto; font-size: 150%'><span style='font-weight: bold; font-size: 100px; color: red;'>0 points!</span><br><br></div>,,delaylearn,learning,feedback_image_window,JTdAqTukGUSL9kSsLWYAQFwqSaC2,JTdAqTukGUSL9kSsLWYAQFwqSaC2,,,,,,,,,,,,,,,,,,,,,,63ceed4669bb4db75ade6a1c,16:53:54,27/03/2024
html-keyboard-response,198,397213,0.0-82.0,,"<div style=""font-size:100px;"">+</div>",,delaylearn,learning,ITI,JTdAqTukGUSL9kSsLWYAQFwqSaC2,JTdAqTukGUSL9kSsLWYAQFwqSaC2,,,,,,,,,,,,,,,,,,,1733.0,,,63ceed4669bb4db75ade6a1c,16:53:54,27/03/2024
html-keyboard-response,199,398545,0.0-83.0-0.0,1328.5,"<div style=""display: flex; flex-direction: column; align-items: center; margin-top: -40px;""><img src=""images/pattern_3.png"" style=""width: 234px; height: 230px; margin-top: -50px;""><div style=""display: flex; justify-content: space-between; margin-top: 33px;""><img src=""images/choice_trial_2.png"" style=""width: 408px; height: 417px; margin-right: 200px;""><img src=""images/choice_trial_16.png"" style=""width: 408px; height: 417px;""></div></div>",j,delaylearn,learning,trial,JTdAqTukGUSL9kSsLWYAQFwqSaC2,JTdAqTukGUSL9kSsLWYAQFwqSaC2,5.0,images/choice_trial_2.png,images/choice_trial_16.png,images/pattern_3.png,j,j,7000.0,2.0,16.0,2.0,1.0,36.0,1.0,1.0,16.0,190.0,,,,,,63ceed4669bb4db75ade6a1c,16:53:54,27/03/2024
html-keyboard-response,200,399552,0.0-83.0-1.0,,"<div style=""display: flex; flex-direction: column; align-items: center; margin-top: -40px;""><img src=""images/pattern_3.png"" style=""width: 234px; height: 230px; margin-top: -50px;""><div style=""display: flex; justify-content: space-between; margin-top: 33px;""><img src=""images/choice_trial_16.png"" style=""width: 408px; height: 417px; margin-left:608px;""></div></div>",,delaylearn,learning,display_response,JTdAqTukGUSL9kSsLWYAQFwqSaC2,JTdAqTukGUSL9kSsLWYAQFwqSaC2,,,,,,,,,,,,,,,,,chosen stimuli: images/choice_trial_16.png,,,,,63ceed4669bb4db75ade6a1c,16:53:54,27/03/2024
html-keyboard-response,201,406559,0.0-83.0-2.0,,,,delaylearn,learning,feedback_duration_window,JTdAqTukGUSL9kSsLWYAQFwqSaC2,JTdAqTukGUSL9kSsLWYAQFwqSaC2,,,,,,,,,,,,,,,,,,7000.0,,,,63ceed4669bb4db75ade6a1c,16:53:54,27/03/2024
html-keyboard-response,202,408067,0.0-83.0-3.0,,<div style='margin:auto;width: auto; font-size: 150%'><span style='font-weight: bold; font-size: 100px; color: green;'>+10 points!</span><br><br></div>,,delaylearn,learning,feedback_image_window,JTdAqTukGUSL9kSsLWYAQFwqSaC2,JTdAqTukGUSL9kSsLWYAQFwqSaC2,,,,,,,,,,,,,,,,,,,,,,63ceed4669bb4db75ade6a1c,16:53:54,27/03/2024
html-keyboard-response,203,409670,0.0-84.0,,"<div style=""font-size:100px;"">+</div>",,delaylearn,learning,ITI,JTdAqTukGUSL9kSsLWYAQFwqSaC2,JTdAqTukGUSL9kSsLWYAQFwqSaC2,,,,,,,,,,,,,,,,,,,1595.0,,,63ceed4669bb4db75ade6a1c,16:53:54,27/03/2024
html-keyboard-response,204,411015,0.0-85.0-0.0,1340.8999999999069,"<div style=""display: flex; flex-direction: column; align-items: center; margin-top: -40px;""><img src=""images/pattern_4.png"" style=""width: 234px; height: 230px; margin-top: -50px;""><div style=""display: flex; justify-content: space-between; margin-top: 33px;""><img src=""images/choice_trial_4.png"" style=""width: 408px; height: 417px; margin-right: 200px;""><img src=""images/choice_trial_11.png"" style=""width: 408px; height: 417px;""></div></div>",j,delaylearn,learning,trial,JTdAqTukGUSL9kSsLWYAQFwqSaC2,JTdAqTukGUSL9kSsLWYAQFwqSaC2,5.0,images/choice_trial_4.png,images/choice_trial_11.png,images/pattern_4.png,f,j,7000.0,4.0,11.0,3.0,1.0,37.0,1.0,0.0,11.0,190.0,,,,,,63ceed4669bb4db75ade6a1c,16:53:54,27/03/2024
html-keyboard-response,205,412021,0.0-85.0-1.0,,"<div style=""display: flex; flex-direction: column; align-items: center; margin-top: -40px;""><img src=""images/pattern_4.png"" style=""width: 234px; height: 230px; margin-top: -50px;""><div style=""display: flex; justify-content: space-between; margin-top: 33px;""><img src=""images/choice_trial_11.png"" style=""width: 408px; height: 417px; margin-left:608px;""></div></div>",,delaylearn,learning,display_response,JTdAqTukGUSL9kSsLWYAQFwqSaC2,JTdAqTukGUSL9kSsLWYAQFwqSaC2,,,,,,,,,,,,,,,,,chosen stimuli: images/choice_trial_11.png,,,,,63ceed4669bb4db75ade6a1c,16:53:54,27/03/2024
html-keyboard-response,206,419027,0.0-85.0-2.0,,,,delaylearn,learning,feedback_duration_window,JTdAqTukGUSL9kSsLWYAQFwqSaC2,JTdAqTukGUSL9kSsLWYAQFwqSaC2,,,,,,,,,,,,,,,,,,7000.0,,,,63ceed4669bb4db75ade6a1c,16:53:54,27/03/2024
html-keyboard-response,207,420535,0.0-85.0-3.0,,<div style='margin:auto;width: auto; font-size: 150%'><span style='font-weight: bold; font-size: 100px; color: red;'>0 points!</span><br><br></div>,,delaylearn,learning,feedback_image_window,JTdAqTukGUSL9kSsLWYAQFwqSaC2,JTdAqTukGUSL9kSsLWYAQFwqSaC2,,,,,,,,,,,,,,,,,,,,,,63ceed4669bb4db75ade6a1c,16:53:54,27/03/2024
html-keyboard-response,208,422715,0.0-86.0,,"<div style=""font-size:100px;"">+</div>",,delaylearn,learning,ITI,JTdAqTukGUSL9kSsLWYAQFwqSaC2,JTdAqTukGUSL9kSsLWYAQFwqSaC2,,,,,,,,,,,,,,,,,,,2173.0,,,63ceed4669bb4db75ade6a1c,16:53:54,27/03/2024
html-keyboard-response,209,424823,0.0-87.0-0.0,2104.3000000002794,"<div style=""display: flex; flex-direction: column; align-items: center; margin-top: -40px;""><img src=""images/pattern_7.png"" style=""width: 234px; height: 230px; margin-top: -50px;""><div style=""display: flex; justify-content: space-between; margin-top: 33px;""><img src=""images/choice_trial_8.png"" style=""width: 408px; height: 417px; margin-right: 200px;""><img src=""images/choice_trial_10.png"" style=""width: 408px; height: 417px;""></div></div>",f,delaylearn,learning,trial,JTdAqTukGUSL9kSsLWYAQFwqSaC2,JTdAqTukGUSL9kSsLWYAQFwqSaC2,5.0,images/choice_trial_8.png,images/choice_trial_10.png,images/pattern_7.png,f,f,750.0,8.0,10.0,6.0,0.0,38.0,1.0,1.0,8.0,200.0,,,,,,63ceed4669bb4db75ade6a1c,16:53:54,27/03/2024
html-keyboard-response,210,425831,0.0-87.0-1.0,,"<div style=""display: flex; flex-direction: column; align-items: center; margin-top: -40px;""><img src=""images/pattern_7.png"" style=""width: 234px; height: 230px; margin-top: -50px;""><div style=""display: flex; justify-content: space-between; margin-top: 33px;""><img src=""images/choice_trial_8.png"" style=""width: 408px; height: 417px; margin-right: 608px;""></div></div>",,delaylearn,learning,display_response,JTdAqTukGUSL9kSsLWYAQFwqSaC2,JTdAqTukGUSL9kSsLWYAQFwqSaC2,,,,,,,,,,,,,,,,,chosen stimuli: images/choice_trial_8.png,,,,,63ceed4669bb4db75ade6a1c,16:53:54,27/03/2024
html-keyboard-response,211,426583,0.0-87.0-2.0,,,,delaylearn,learning,feedback_duration_window,JTdAqTukGUSL9kSsLWYAQFwqSaC2,JTdAqTukGUSL9kSsLWYAQFwqSaC2,,,,,,,,,,,,,,,,,,750.0,,,,63ceed4669bb4db75ade6a1c,16:53:54,27/03/2024
html-keyboard-response,212,428090,0.0-87.0-3.0,,<div style='margin:auto;width: auto; font-size: 150%'><span style='font-weight: bold; font-size: 100px; color: green;'>+10 points!</span><br><br></div>,,delaylearn,learning,feedback_image_window,JTdAqTukGUSL9kSsLWYAQFwqSaC2,JTdAqTukGUSL9kSsLWYAQFwqSaC2,,,,,,,,,,,,,,,,,,,,,,63ceed4669bb4db75ade6a1c,16:53:54,27/03/2024
html-keyboard-response,213,430162,0.0-88.0,,"<div style=""font-size:100px;"">+</div>",,delaylearn,learning,ITI,JTdAqTukGUSL9kSsLWYAQFwqSaC2,JTdAqTukGUSL9kSsLWYAQFwqSaC2,,,,,,,,,,,,,,,,,,,2065.0,,,63ceed4669bb4db75ade6a1c,16:53:54,27/03/2024
html-keyboard-response,214,431701,0.0-89.0-0.0,1534.6000000000931,"<div style=""display: flex; flex-direction: column; align-items: center; margin-top: -40px;""><img src=""images/pattern_1.png"" style=""width: 234px; height: 230px; margin-top: -50px;""><div style=""display: flex; justify-content: space-between; margin-top: 33px;""><img src=""images/choice_trial_6.png"" style=""width: 408px; height: 417px; margin-right: 200px;""><img src=""images/choice_trial_15.png"" style=""width: 408px; height: 417px;""></div></div>",f,delaylearn,learning,trial,JTdAqTukGUSL9kSsLWYAQFwqSaC2,JTdAqTukGUSL9kSsLWYAQFwqSaC2,5.0,images/choice_trial_6.png,images/choice_trial_15.png,images/pattern_1.png,f,f,7000.0,6.0,15.0,1.0,0.0,39.0,1.0,1.0,6.0,210.0,,,,,,63ceed4669bb4db75ade6a1c,16:53:54,27/03/2024
html-keyboard-response,215,432709,0.0-89.0-1.0,,"<div style=""display: flex; flex-direction: column; align-items: center; margin-top: -40px;""><img src=""images/pattern_1.png"" style=""width: 234px; height: 230px; margin-top: -50px;""><div style=""display: flex; justify-content: space-between; margin-top: 33px;""><img src=""images/choice_trial_6.png"" style=""width: 408px; height: 417px; margin-right: 608px;""></div></div>",,delaylearn,learning,display_response,JTdAqTukGUSL9kSsLWYAQFwqSaC2,JTdAqTukGUSL9kSsLWYAQFwqSaC2,,,,,,,,,,,,,,,,,chosen stimuli: images/choice_trial_6.png,,,,,63ceed4669bb4db75ade6a1c,16:53:54,27/03/2024
html-keyboard-response,216,439716,0.0-89.0-2.0,,,,delaylearn,learning,feedback_duration_window,JTdAqTukGUSL9kSsLWYAQFwqSaC2,JTdAqTukGUSL9kSsLWYAQFwqSaC2,,,,,,,,,,,,,,,,,,7000.0,,,,63ceed4669bb4db75ade6a1c,16:53:54,27/03/2024
html-keyboard-response,217,441222,0.0-89.0-3.0,,<div style='margin:auto;width: auto; font-size: 150%'><span style='font-weight: bold; font-size: 100px; color: green;'>+10 points!</span><br><br></div>,,delaylearn,learning,feedback_image_window,JTdAqTukGUSL9kSsLWYAQFwqSaC2,JTdAqTukGUSL9kSsLWYAQFwqSaC2,,,,,,,,,,,,,,,,,,,,,,63ceed4669bb4db75ade6a1c,16:53:54,27/03/2024
html-keyboard-response,218,441727,0.0-90.0-0.0,,,,,,mood_trial_fixation,JTdAqTukGUSL9kSsLWYAQFwqSaC2,,,,,,,,,,,,,,,,,,,,,,,63ceed4669bb4db75ade6a1c,16:53:54,27/03/2024
lmdlab-html-vas-response,219,444789,0.0-90.0-1.0,2050.0,How happy are you right now?,0.5543478260869565,delaylearn,learning,mood_trial,JTdAqTukGUSL9kSsLWYAQFwqSaC2,JTdAqTukGUSL9kSsLWYAQFwqSaC2,,,,,,,,,,,,,,,,,,,,"['Very unhappy', 'Very happy']",,63ceed4669bb4db75ade6a1c,16:53:54,27/03/2024
html-keyboard-response,220,446900,0.0-91.0,,"<div style=""font-size:100px;"">+</div>",,delaylearn,learning,ITI,JTdAqTukGUSL9kSsLWYAQFwqSaC2,JTdAqTukGUSL9kSsLWYAQFwqSaC2,,,,,,,,,,,,,,,,,,,2105.0,,,63ceed4669bb4db75ade6a1c,16:53:54,27/03/2024
html-keyboard-response,221,448387,0.0-92.0-0.0,1481.8000000002794,"<div style=""display: flex; flex-direction: column; align-items: center; margin-top: -40px;""><img src=""images/pattern_3.png"" style=""width: 234px; height: 230px; margin-top: -50px;""><div style=""display: flex; justify-content: space-between; margin-top: 33px;""><img src=""images/choice_trial_16.png"" style=""width: 408px; height: 417px; margin-right: 200px;""><img src=""images/choice_trial_2.png"" style=""width: 408px; height: 417px;""></div></div>",f,delaylearn,learning,trial,JTdAqTukGUSL9kSsLWYAQFwqSaC2,JTdAqTukGUSL9kSsLWYAQFwqSaC2,5.0,images/choice_trial_16.png,images/choice_trial_2.png,images/pattern_3.png,j,f,7000.0,16.0,2.0,2.0,0.0,40.0,1.0,0.0,16.0,210.0,,,,,,63ceed4669bb4db75ade6a1c,16:53:54,27/03/2024
html-keyboard-response,222,449395,0.0-92.0-1.0,,"<div style=""display: flex; flex-direction: column; align-items: center; margin-top: -40px;""><img src=""images/pattern_3.png"" style=""width: 234px; height: 230px; margin-top: -50px;""><div style=""display: flex; justify-content: space-between; margin-top: 33px;""><img src=""images/choice_trial_16.png"" style=""width: 408px; height: 417px; margin-right: 608px;""></div></div>",,delaylearn,learning,display_response,JTdAqTukGUSL9kSsLWYAQFwqSaC2,JTdAqTukGUSL9kSsLWYAQFwqSaC2,,,,,,,,,,,,,,,,,chosen stimuli: images/choice_trial_16.png,,,,,63ceed4669bb4db75ade6a1c,16:53:54,27/03/2024
html-keyboard-response,223,456401,0.0-92.0-2.0,,,,delaylearn,learning,feedback_duration_window,JTdAqTukGUSL9kSsLWYAQFwqSaC2,JTdAqTukGUSL9kSsLWYAQFwqSaC2,,,,,,,,,,,,,,,,,,7000.0,,,,63ceed4669bb4db75ade6a1c,16:53:54,27/03/2024
html-keyboard-response,224,457909,0.0-92.0-3.0,,<div style='margin:auto;width: auto; font-size: 150%'><span style='font-weight: bold; font-size: 100px; color: red;'>0 points!</span><br><br></div>,,delaylearn,learning,feedback_image_window,JTdAqTukGUSL9kSsLWYAQFwqSaC2,JTdAqTukGUSL9kSsLWYAQFwqSaC2,,,,,,,,,,,,,,,,,,,,,,63ceed4669bb4db75ade6a1c,16:53:54,27/03/2024
html-keyboard-response,225,459952,0.0-93.0,,"<div style=""font-size:100px;"">+</div>",,delaylearn,learning,ITI,JTdAqTukGUSL9kSsLWYAQFwqSaC2,JTdAqTukGUSL9kSsLWYAQFwqSaC2,,,,,,,,,,,,,,,,,,,2036.0,,,63ceed4669bb4db75ade6a1c,16:53:54,27/03/2024
html-keyboard-response,226,461495,0.0-94.0-0.0,1538.6999999997206,"<div style=""display: flex; flex-direction: column; align-items: center; margin-top: -40px;""><img src=""images/pattern_7.png"" style=""width: 234px; height: 230px; margin-top: -50px;""><div style=""display: flex; justify-content: space-between; margin-top: 33px;""><img src=""images/choice_trial_10.png"" style=""width: 408px; height: 417px; margin-right: 200px;""><img src=""images/choice_trial_8.png"" style=""width: 408px; height: 417px;""></div></div>",j,delaylearn,learning,trial,JTdAqTukGUSL9kSsLWYAQFwqSaC2,JTdAqTukGUSL9kSsLWYAQFwqSaC2,5.0,images/choice_trial_10.png,images/choice_trial_8.png,images/pattern_7.png,j,j,750.0,10.0,8.0,6.0,1.0,41.0,1.0,1.0,8.0,220.0,,,,,,63ceed4669bb4db75ade6a1c,16:53:54,27/03/2024
html-keyboard-response,227,462502,0.0-94.0-1.0,,"<div style=""display: flex; flex-direction: column; align-items: center; margin-top: -40px;""><img src=""images/pattern_7.png"" style=""width: 234px; height: 230px; margin-top: -50px;""><div style=""display: flex; justify-content: space-between; margin-top: 33px;""><img src=""images/choice_trial_8.png"" style=""width: 408px; height: 417px; margin-left:608px;""></div></div>",,delaylearn,learning,display_response,JTdAqTukGUSL9kSsLWYAQFwqSaC2,JTdAqTukGUSL9kSsLWYAQFwqSaC2,,,,,,,,,,,,,,,,,chosen stimuli: images/choice_trial_8.png,,,,,63ceed4669bb4db75ade6a1c,16:53:54,27/03/2024
html-keyboard-response,228,463258,0.0-94.0-2.0,,,,delaylearn,learning,feedback_duration_window,JTdAqTukGUSL9kSsLWYAQFwqSaC2,JTdAqTukGUSL9kSsLWYAQFwqSaC2,,,,,,,,,,,,,,,,,,750.0,,,,63ceed4669bb4db75ade6a1c,16:53:54,27/03/2024
html-keyboard-response,229,464760,0.0-94.0-3.0,,<div style='margin:auto;width: auto; font-size: 150%'><span style='font-weight: bold; font-size: 100px; color: green;'>+10 points!</span><br><br></div>,,delaylearn,learning,feedback_image_window,JTdAqTukGUSL9kSsLWYAQFwqSaC2,JTdAqTukGUSL9kSsLWYAQFwqSaC2,,,,,,,,,,,,,,,,,,,,,,63ceed4669bb4db75ade6a1c,16:53:54,27/03/2024
html-keyboard-response,230,466267,0.0-95.0,,"<div style=""font-size:100px;"">+</div>",,delaylearn,learning,ITI,JTdAqTukGUSL9kSsLWYAQFwqSaC2,JTdAqTukGUSL9kSsLWYAQFwqSaC2,,,,,,,,,,,,,,,,,,,1504.0,,,63ceed4669bb4db75ade6a1c,16:53:54,27/03/2024
html-keyboard-response,231,467574,0.0-96.0-0.0,1302.8000000002794,"<div style=""display: flex; flex-direction: column; align-items: center; margin-top: -40px;""><img src=""images/pattern_5.png"" style=""width: 234px; height: 230px; margin-top: -50px;""><div style=""display: flex; justify-content: space-between; margin-top: 33px;""><img src=""images/choice_trial_13.png"" style=""width: 408px; height: 417px; margin-right: 200px;""><img src=""images/choice_trial_7.png"" style=""width: 408px; height: 417px;""></div></div>",j,delaylearn,learning,trial,JTdAqTukGUSL9kSsLWYAQFwqSaC2,JTdAqTukGUSL9kSsLWYAQFwqSaC2,5.0,images/choice_trial_13.png,images/choice_trial_7.png,images/pattern_5.png,j,j,750.0,13.0,7.0,4.0,1.0,42.0,1.0,1.0,7.0,230.0,,,,,,63ceed4669bb4db75ade6a1c,16:53:54,27/03/2024
