trial_type,trial_index,time_elapsed,internal_node_id,rt,stimulus,response,exp_name,exp_stage,test_part,subjectID,databaseID,counterbal,choice_stimuli_1,choice_stimuli_2,pattern_stimuli,rewarded_answer,correct_answer,feedback_duration_times,stim_left,stim_right,pair,leftright_counter,trial,response_correct,response_rewarded,chosen_stim,counter,displayed_choice,feedback_durations,ITI_duration,labels,rest_warning,prolificID,start_time,date
pavlovia,0,573,0.0-0.0,,,,,,,hi82H05q8pgWRa5VYOmuguW2o023,,,,,,,,,,,,,,,,,,,,,,,5de6cfc6b5bed765473c624b,16:35:18,27/03/2024
html-keyboard-response,1,3589,0.0-1.0,,"<div style=""font-size:100px;"">+</div>",,delaylearn,learning,pre_fixation,hi82H05q8pgWRa5VYOmuguW2o023,,,,,,,,,,,,,,,,,,,,,,,5de6cfc6b5bed765473c624b,16:35:18,27/03/2024
html-keyboard-response,2,4894,0.0-2.0-0.0,1302.1999998092651,"<div style=""display: flex; flex-direction: column; align-items: center; margin-top: -40px;""><img src=""images/demo_images/pattern_1.png"" style=""width: 234px; height: 230px; margin-top: -50px;""><div style=""display: flex; justify-content: space-between; margin-top: 33px;""><img src=""images/demo_images/choice_trial_2.png"" style=""width: 408px; height: 417px; margin-right: 200px;""><img src=""images/demo_images/choice_trial_1.png"" style=""width: 408px; height: 417px;""></div></div>",j,delaylearn,learning,trial,hi82H05q8pgWRa5VYOmuguW2o023,hi82H05q8pgWRa5VYOmuguW2o023,4.0,images/demo_images/choice_trial_2.png,images/demo_images/choice_trial_1.png,images/demo_images/pattern_1.png,j,j,3000.0,2.0,1.0,20.0,1.0,1.0,1.0,1.0,1.0,10.0,,,,,,5de6cfc6b5bed765473c624b,16:35:18,27/03/2024
html-keyboard-response,3,5903,0.0-2.0-1.0,,"<div style=""display: flex; flex-direction: column; align-items: center; margin-top: -40px;""><img src=""images/demo_images/pattern_1.png"" style=""width: 234px; height: 230px; margin-top: -50px;""><div style=""display: flex; justify-content: space-between; margin-top: 33px;""><img src=""images/demo_images/choice_trial_1.png"" style=""width: 408px; height: 417px; margin-left:608px;""></div></div>",,delaylearn,learning,display_response,hi82H05q8pgWRa5VYOmuguW2o023,hi82H05q8pgWRa5VYOmuguW2o023,,,,,,,,,,,,,,,,,chosen stimuli: images/demo_images/choice_trial_1.png,,,,,5de6cfc6b5bed765473c624b,16:35:18,27/03/2024
html-keyboard-response,4,8917,0.0-2.0-2.0,,,,delaylearn,learning,feedback_duration_window,hi82H05q8pgWRa5VYOmuguW2o023,hi82H05q8pgWRa5VYOmuguW2o023,,,,,,,,,,,,,,,,,,3000.0,,,,5de6cfc6b5bed765473c624b,16:35:18,27/03/2024
html-keyboard-response,5,10425,0.0-2.0-3.0,,<div style='margin:auto;width: auto; font-size: 150%'><span style='font-weight: bold; font-size: 100px; color: green;'>+10 points!</span><br><br></div>,,delaylearn,learning,feedback_image_window,hi82H05q8pgWRa5VYOmuguW2o023,hi82H05q8pgWRa5VYOmuguW2o023,,,,,,,,,,,,,,,,,,,,,,5de6cfc6b5bed765473c624b,16:35:18,27/03/2024
html-keyboard-response,6,12537,0.0-3.0,,"<div style=""font-size:100px;"">+</div>",,delaylearn,learning,ITI,hi82H05q8pgWRa5VYOmuguW2o023,hi82H05q8pgWRa5VYOmuguW2o023,,,,,,,,,,,,,,,,,,,2099.0,,,5de6cfc6b5bed765473c624b,16:35:18,27/03/2024
html-keyboard-response,7,13023,0.0-4.0-0.0,482.80000019073486,"<div style=""display: flex; flex-direction: column; align-items: center; margin-top: -40px;""><img src=""images/demo_images/pattern_1.png"" style=""width: 234px; height: 230px; margin-top: -50px;""><div style=""display: flex; justify-content: space-between; margin-top: 33px;""><img src=""images/demo_images/choice_trial_2.png"" style=""width: 408px; height: 417px; margin-right: 200px;""><img src=""images/demo_images/choice_trial_1.png"" style=""width: 408px; height: 417px;""></div></div>",j,delaylearn,learning,trial,hi82H05q8pgWRa5VYOmuguW2o023,hi82H05q8pgWRa5VYOmuguW2o023,4.0,images/demo_images/choice_trial_2.png,images/demo_images/choice_trial_1.png,images/demo_images/pattern_1.png,j,j,3000.0,2.0,1.0,20.0,1.0,2.0,1.0,1.0,1.0,20.0,,,,,,5de6cfc6b5bed765473c624b,16:35:18,27/03/2024
html-keyboard-response,8,14030,0.0-4.0-1.0,,"<div style=""display: flex; flex-direction: column; align-items: center; margin-top: -40px;""><img src=""images/demo_images/pattern_1.png"" style=""width: 234px; height: 230px; margin-top: -50px;""><div style=""display: flex; justify-content: space-between; margin-top: 33px;""><img src=""images/demo_images/choice_trial_1.png"" style=""width: 408px; height: 417px; margin-left:608px;""></div></div>",,delaylearn,learning,display_response,hi82H05q8pgWRa5VYOmuguW2o023,hi82H05q8pgWRa5VYOmuguW2o023,,,,,,,,,,,,,,,,,chosen stimuli: images/demo_images/choice_trial_1.png,,,,,5de6cfc6b5bed765473c624b,16:35:18,27/03/2024
html-keyboard-response,9,17046,0.0-4.0-2.0,,,,delaylearn,learning,feedback_duration_window,hi82H05q8pgWRa5VYOmuguW2o023,hi82H05q8pgWRa5VYOmuguW2o023,,,,,,,,,,,,,,,,,,3000.0,,,,5de6cfc6b5bed765473c624b,16:35:18,27/03/2024
html-keyboard-response,10,18552,0.0-4.0-3.0,,<div style='margin:auto;width: auto; font-size: 150%'><span style='font-weight: bold; font-size: 100px; color: green;'>+10 points!</span><br><br></div>,,delaylearn,learning,feedback_image_window,hi82H05q8pgWRa5VYOmuguW2o023,hi82H05q8pgWRa5VYOmuguW2o023,,,,,,,,,,,,,,,,,,,,,,5de6cfc6b5bed765473c624b,16:35:18,27/03/2024
html-keyboard-response,11,20361,0.0-5.0,,"<div style=""font-size:100px;"">+</div>",,delaylearn,learning,ITI,hi82H05q8pgWRa5VYOmuguW2o023,hi82H05q8pgWRa5VYOmuguW2o023,,,,,,,,,,,,,,,,,,,1799.0,,,5de6cfc6b5bed765473c624b,16:35:18,27/03/2024
html-keyboard-response,12,20719,0.0-6.0-0.0,354.9000005722046,"<div style=""display: flex; flex-direction: column; align-items: center; margin-top: -40px;""><img src=""images/demo_images/pattern_1.png"" style=""width: 234px; height: 230px; margin-top: -50px;""><div style=""display: flex; justify-content: space-between; margin-top: 33px;""><img src=""images/demo_images/choice_trial_1.png"" style=""width: 408px; height: 417px; margin-right: 200px;""><img src=""images/demo_images/choice_trial_2.png"" style=""width: 408px; height: 417px;""></div></div>",f,delaylearn,learning,trial,hi82H05q8pgWRa5VYOmuguW2o023,hi82H05q8pgWRa5VYOmuguW2o023,4.0,images/demo_images/choice_trial_1.png,images/demo_images/choice_trial_2.png,images/demo_images/pattern_1.png,j,f,3000.0,1.0,2.0,20.0,0.0,3.0,1.0,0.0,1.0,20.0,,,,,,5de6cfc6b5bed765473c624b,16:35:18,27/03/2024
html-keyboard-response,13,21722,0.0-6.0-1.0,,"<div style=""display: flex; flex-direction: column; align-items: center; margin-top: -40px;""><img src=""images/demo_images/pattern_1.png"" style=""width: 234px; height: 230px; margin-top: -50px;""><div style=""display: flex; justify-content: space-between; margin-top: 33px;""><img src=""images/demo_images/choice_trial_1.png"" style=""width: 408px; height: 417px; margin-right: 608px;""></div></div>",,delaylearn,learning,display_response,hi82H05q8pgWRa5VYOmuguW2o023,hi82H05q8pgWRa5VYOmuguW2o023,,,,,,,,,,,,,,,,,chosen stimuli: images/demo_images/choice_trial_1.png,,,,,5de6cfc6b5bed765473c624b,16:35:18,27/03/2024
html-keyboard-response,14,24740,0.0-6.0-2.0,,,,delaylearn,learning,feedback_duration_window,hi82H05q8pgWRa5VYOmuguW2o023,hi82H05q8pgWRa5VYOmuguW2o023,,,,,,,,,,,,,,,,,,3000.0,,,,5de6cfc6b5bed765473c624b,16:35:18,27/03/2024
html-keyboard-response,15,26245,0.0-6.0-3.0,,<div style='margin:auto;width: auto; font-size: 150%'><span style='font-weight: bold; font-size: 100px; color: red;'>0 points!</span><br><br></div>,,delaylearn,learning,feedback_image_window,hi82H05q8pgWRa5VYOmuguW2o023,hi82H05q8pgWRa5VYOmuguW2o023,,,,,,,,,,,,,,,,,,,,,,5de6cfc6b5bed765473c624b,16:35:18,27/03/2024
html-keyboard-response,16,27800,0.0-7.0,,"<div style=""font-size:100px;"">+</div>",,delaylearn,learning,ITI,hi82H05q8pgWRa5VYOmuguW2o023,hi82H05q8pgWRa5VYOmuguW2o023,,,,,,,,,,,,,,,,,,,1552.0,,,5de6cfc6b5bed765473c624b,16:35:18,27/03/2024
html-keyboard-response,17,28514,0.0-8.0-0.0,711.0999994277954,"<div style=""display: flex; flex-direction: column; align-items: center; margin-top: -40px;""><img src=""images/demo_images/pattern_1.png"" style=""width: 234px; height: 230px; margin-top: -50px;""><div style=""display: flex; justify-content: space-between; margin-top: 33px;""><img src=""images/demo_images/choice_trial_1.png"" style=""width: 408px; height: 417px; margin-right: 200px;""><img src=""images/demo_images/choice_trial_2.png"" style=""width: 408px; height: 417px;""></div></div>",j,delaylearn,learning,trial,hi82H05q8pgWRa5VYOmuguW2o023,hi82H05q8pgWRa5VYOmuguW2o023,4.0,images/demo_images/choice_trial_1.png,images/demo_images/choice_trial_2.png,images/demo_images/pattern_1.png,f,f,3000.0,1.0,2.0,20.0,0.0,4.0,0.0,0.0,2.0,20.0,,,,,,5de6cfc6b5bed765473c624b,16:35:18,27/03/2024
html-keyboard-response,18,29523,0.0-8.0-1.0,,"<div style=""display: flex; flex-direction: column; align-items: center; margin-top: -40px;""><img src=""images/demo_images/pattern_1.png"" style=""width: 234px; height: 230px; margin-top: -50px;""><div style=""display: flex; justify-content: space-between; margin-top: 33px;""><img src=""images/demo_images/choice_trial_2.png"" style=""width: 408px; height: 417px; margin-left:608px;""></div></div>",,delaylearn,learning,display_response,hi82H05q8pgWRa5VYOmuguW2o023,hi82H05q8pgWRa5VYOmuguW2o023,,,,,,,,,,,,,,,,,chosen stimuli: images/demo_images/choice_trial_2.png,,,,,5de6cfc6b5bed765473c624b,16:35:18,27/03/2024
html-keyboard-response,19,32530,0.0-8.0-2.0,,,,delaylearn,learning,feedback_duration_window,hi82H05q8pgWRa5VYOmuguW2o023,hi82H05q8pgWRa5VYOmuguW2o023,,,,,,,,,,,,,,,,,,3000.0,,,,5de6cfc6b5bed765473c624b,16:35:18,27/03/2024
html-keyboard-response,20,34043,0.0-8.0-3.0,,<div style='margin:auto;width: auto; font-size: 150%'><span style='font-weight: bold; font-size: 100px; color: red;'>0 points!</span><br><br></div>,,delaylearn,learning,feedback_image_window,hi82H05q8pgWRa5VYOmuguW2o023,hi82H05q8pgWRa5VYOmuguW2o023,,,,,,,,,,,,,,,,,,,,,,5de6cfc6b5bed765473c624b,16:35:18,27/03/2024
html-keyboard-response,21,34557,0.0-9.0-0.0,,,,,,mood_trial_fixation,hi82H05q8pgWRa5VYOmuguW2o023,,,,,,,,,,,,,,,,,,,,,,,5de6cfc6b5bed765473c624b,16:35:18,27/03/2024
lmdlab-html-vas-response,22,46617,0.0-9.0-1.0,11029.0,How happy are you right now?,0.2824074074074074,delaylearn,learning,mood_trial,hi82H05q8pgWRa5VYOmuguW2o023,hi82H05q8pgWRa5VYOmuguW2o023,,,,,,,,,,,,,,,,,,,,"['Very unhappy', 'Very happy']",,5de6cfc6b5bed765473c624b,16:35:18,27/03/2024
html-keyboard-response,23,48403,0.0-10.0,,"<div style=""font-size:100px;"">+</div>",,delaylearn,learning,ITI,hi82H05q8pgWRa5VYOmuguW2o023,hi82H05q8pgWRa5VYOmuguW2o023,,,,,,,,,,,,,,,,,,,1776.0,,,5de6cfc6b5bed765473c624b,16:35:18,27/03/2024
html-keyboard-response,24,49401,0.0-11.0-0.0,994.3000001907349,"<div style=""display: flex; flex-direction: column; align-items: center; margin-top: -40px;""><img src=""images/demo_images/pattern_1.png"" style=""width: 234px; height: 230px; margin-top: -50px;""><div style=""display: flex; justify-content: space-between; margin-top: 33px;""><img src=""images/demo_images/choice_trial_2.png"" style=""width: 408px; height: 417px; margin-right: 200px;""><img src=""images/demo_images/choice_trial_1.png"" style=""width: 408px; height: 417px;""></div></div>",f,delaylearn,learning,trial,hi82H05q8pgWRa5VYOmuguW2o023,hi82H05q8pgWRa5VYOmuguW2o023,4.0,images/demo_images/choice_trial_2.png,images/demo_images/choice_trial_1.png,images/demo_images/pattern_1.png,j,j,3000.0,2.0,1.0,20.0,1.0,5.0,0.0,0.0,2.0,20.0,,,,,,5de6cfc6b5bed765473c624b,16:35:18,27/03/2024
html-keyboard-response,25,50413,0.0-11.0-1.0,,"<div style=""display: flex; flex-direction: column; align-items: center; margin-top: -40px;""><img src=""images/demo_images/pattern_1.png"" style=""width: 234px; height: 230px; margin-top: -50px;""><div style=""display: flex; justify-content: space-between; margin-top: 33px;""><img src=""images/demo_images/choice_trial_2.png"" style=""width: 408px; height: 417px; margin-right: 608px;""></div></div>",,delaylearn,learning,display_response,hi82H05q8pgWRa5VYOmuguW2o023,hi82H05q8pgWRa5VYOmuguW2o023,,,,,,,,,,,,,,,,,chosen stimuli: images/demo_images/choice_trial_2.png,,,,,5de6cfc6b5bed765473c624b,16:35:18,27/03/2024
html-keyboard-response,26,53431,0.0-11.0-2.0,,,,delaylearn,learning,feedback_duration_window,hi82H05q8pgWRa5VYOmuguW2o023,hi82H05q8pgWRa5VYOmuguW2o023,,,,,,,,,,,,,,,,,,3000.0,,,,5de6cfc6b5bed765473c624b,16:35:18,27/03/2024
html-keyboard-response,27,54942,0.0-11.0-3.0,,<div style='margin:auto;width: auto; font-size: 150%'><span style='font-weight: bold; font-size: 100px; color: red;'>0 points!</span><br><br></div>,,delaylearn,learning,feedback_image_window,hi82H05q8pgWRa5VYOmuguW2o023,hi82H05q8pgWRa5VYOmuguW2o023,,,,,,,,,,,,,,,,,,,,,,5de6cfc6b5bed765473c624b,16:35:18,27/03/2024
html-keyboard-response,28,56935,0.0-12.0,,"<div style=""font-size:100px;"">+</div>",,delaylearn,learning,ITI,hi82H05q8pgWRa5VYOmuguW2o023,hi82H05q8pgWRa5VYOmuguW2o023,,,,,,,,,,,,,,,,,,,1981.0,,,5de6cfc6b5bed765473c624b,16:35:18,27/03/2024
html-keyboard-response,29,57413,0.0-13.0-0.0,474.9000005722046,"<div style=""display: flex; flex-direction: column; align-items: center; margin-top: -40px;""><img src=""images/demo_images/pattern_1.png"" style=""width: 234px; height: 230px; margin-top: -50px;""><div style=""display: flex; justify-content: space-between; margin-top: 33px;""><img src=""images/demo_images/choice_trial_1.png"" style=""width: 408px; height: 417px; margin-right: 200px;""><img src=""images/demo_images/choice_trial_2.png"" style=""width: 408px; height: 417px;""></div></div>",f,delaylearn,learning,trial,hi82H05q8pgWRa5VYOmuguW2o023,hi82H05q8pgWRa5VYOmuguW2o023,4.0,images/demo_images/choice_trial_1.png,images/demo_images/choice_trial_2.png,images/demo_images/pattern_1.png,f,f,3000.0,1.0,2.0,20.0,0.0,6.0,1.0,1.0,1.0,30.0,,,,,,5de6cfc6b5bed765473c624b,16:35:18,27/03/2024
html-keyboard-response,30,58419,0.0-13.0-1.0,,"<div style=""display: flex; flex-direction: column; align-items: center; margin-top: -40px;""><img src=""images/demo_images/pattern_1.png"" style=""width: 234px; height: 230px; margin-top: -50px;""><div style=""display: flex; justify-content: space-between; margin-top: 33px;""><img src=""images/demo_images/choice_trial_1.png"" style=""width: 408px; height: 417px; margin-right: 608px;""></div></div>",,delaylearn,learning,display_response,hi82H05q8pgWRa5VYOmuguW2o023,hi82H05q8pgWRa5VYOmuguW2o023,,,,,,,,,,,,,,,,,chosen stimuli: images/demo_images/choice_trial_1.png,,,,,5de6cfc6b5bed765473c624b,16:35:18,27/03/2024
html-keyboard-response,31,61425,0.0-13.0-2.0,,,,delaylearn,learning,feedback_duration_window,hi82H05q8pgWRa5VYOmuguW2o023,hi82H05q8pgWRa5VYOmuguW2o023,,,,,,,,,,,,,,,,,,3000.0,,,,5de6cfc6b5bed765473c624b,16:35:18,27/03/2024
html-keyboard-response,32,62938,0.0-13.0-3.0,,<div style='margin:auto;width: auto; font-size: 150%'><span style='font-weight: bold; font-size: 100px; color: green;'>+10 points!</span><br><br></div>,,delaylearn,learning,feedback_image_window,hi82H05q8pgWRa5VYOmuguW2o023,hi82H05q8pgWRa5VYOmuguW2o023,,,,,,,,,,,,,,,,,,,,,,5de6cfc6b5bed765473c624b,16:35:18,27/03/2024
html-keyboard-response,33,65068,0.0-14.0,,"<div style=""font-size:100px;"">+</div>",,delaylearn,learning,ITI,hi82H05q8pgWRa5VYOmuguW2o023,hi82H05q8pgWRa5VYOmuguW2o023,,,,,,,,,,,,,,,,,,,2120.0,,,5de6cfc6b5bed765473c624b,16:35:18,27/03/2024
html-keyboard-response,34,68081,0.0-15.0-0.0,,"<div style=""display: flex; flex-direction: column; align-items: center; margin-top: -40px;""><img src=""images/demo_images/pattern_1.png"" style=""width: 234px; height: 230px; margin-top: -50px;""><div style=""display: flex; justify-content: space-between; margin-top: 33px;""><img src=""images/demo_images/choice_trial_2.png"" style=""width: 408px; height: 417px; margin-right: 200px;""><img src=""images/demo_images/choice_trial_1.png"" style=""width: 408px; height: 417px;""></div></div>",,delaylearn,learning,trial,hi82H05q8pgWRa5VYOmuguW2o023,hi82H05q8pgWRa5VYOmuguW2o023,4.0,images/demo_images/choice_trial_2.png,images/demo_images/choice_trial_1.png,images/demo_images/pattern_1.png,j,j,3000.0,2.0,1.0,20.0,1.0,7.0,0.0,0.0,0.0,30.0,,,,,,5de6cfc6b5bed765473c624b,16:35:18,27/03/2024
html-keyboard-response,35,69101,0.0-15.0-1.0,,<div style='font-weight: bold; font-size: 75px; color: red;'>Missed Trial <br><br><br><br> Please respond faster</div>,,delaylearn,learning,display_response,hi82H05q8pgWRa5VYOmuguW2o023,hi82H05q8pgWRa5VYOmuguW2o023,,,,,,,,,,,,,,,,,Missed trial,,,,,5de6cfc6b5bed765473c624b,16:35:18,27/03/2024
html-keyboard-response,36,69109,0.0-15.0-2.0,,,,delaylearn,learning,feedback_duration_window,hi82H05q8pgWRa5VYOmuguW2o023,hi82H05q8pgWRa5VYOmuguW2o023,,,,,,,,,,,,,,,,,,0.0,,,,5de6cfc6b5bed765473c624b,16:35:18,27/03/2024
html-keyboard-response,37,69118,0.0-15.0-3.0,,,,delaylearn,learning,feedback_image_window,hi82H05q8pgWRa5VYOmuguW2o023,hi82H05q8pgWRa5VYOmuguW2o023,,,,,,,,,,,,,,,,,,,,,,5de6cfc6b5bed765473c624b,16:35:18,27/03/2024
html-keyboard-response,38,71548,0.0-16.0,,"<div style=""font-size:100px;"">+</div>",,delaylearn,learning,ITI,hi82H05q8pgWRa5VYOmuguW2o023,hi82H05q8pgWRa5VYOmuguW2o023,,,,,,,,,,,,,,,,,,,2424.0,,,5de6cfc6b5bed765473c624b,16:35:18,27/03/2024
html-keyboard-response,39,72080,0.0-17.0-0.0,528.6999998092651,"<div style=""display: flex; flex-direction: column; align-items: center; margin-top: -40px;""><img src=""images/demo_images/pattern_1.png"" style=""width: 234px; height: 230px; margin-top: -50px;""><div style=""display: flex; justify-content: space-between; margin-top: 33px;""><img src=""images/demo_images/choice_trial_1.png"" style=""width: 408px; height: 417px; margin-right: 200px;""><img src=""images/demo_images/choice_trial_2.png"" style=""width: 408px; height: 417px;""></div></div>",f,delaylearn,learning,trial,hi82H05q8pgWRa5VYOmuguW2o023,hi82H05q8pgWRa5VYOmuguW2o023,4.0,images/demo_images/choice_trial_1.png,images/demo_images/choice_trial_2.png,images/demo_images/pattern_1.png,f,f,3000.0,1.0,2.0,20.0,0.0,8.0,1.0,1.0,1.0,40.0,,,,,,5de6cfc6b5bed765473c624b,16:35:18,27/03/2024
html-keyboard-response,40,73086,0.0-17.0-1.0,,"<div style=""display: flex; flex-direction: column; align-items: center; margin-top: -40px;""><img src=""images/demo_images/pattern_1.png"" style=""width: 234px; height: 230px; margin-top: -50px;""><div style=""display: flex; justify-content: space-between; margin-top: 33px;""><img src=""images/demo_images/choice_trial_1.png"" style=""width: 408px; height: 417px; margin-right: 608px;""></div></div>",,delaylearn,learning,display_response,hi82H05q8pgWRa5VYOmuguW2o023,hi82H05q8pgWRa5VYOmuguW2o023,,,,,,,,,,,,,,,,,chosen stimuli: images/demo_images/choice_trial_1.png,,,,,5de6cfc6b5bed765473c624b,16:35:18,27/03/2024
html-keyboard-response,41,76100,0.0-17.0-2.0,,,,delaylearn,learning,feedback_duration_window,hi82H05q8pgWRa5VYOmuguW2o023,hi82H05q8pgWRa5VYOmuguW2o023,,,,,,,,,,,,,,,,,,3000.0,,,,5de6cfc6b5bed765473c624b,16:35:18,27/03/2024
html-keyboard-response,42,77603,0.0-17.0-3.0,,<div style='margin:auto;width: auto; font-size: 150%'><span style='font-weight: bold; font-size: 100px; color: green;'>+10 points!</span><br><br></div>,,delaylearn,learning,feedback_image_window,hi82H05q8pgWRa5VYOmuguW2o023,hi82H05q8pgWRa5VYOmuguW2o023,,,,,,,,,,,,,,,,,,,,,,5de6cfc6b5bed765473c624b,16:35:18,27/03/2024
html-button-response,43,84540,0.0-18.0,6934.800000190735,"
  <div style=""display: flex; align-items: center; justify-content: center; height: 80vh;"">
  <div>
          <img src=""images/inst_demo_finish.png"" style=""width: 80vw; height:auto;"">
          <br><br>
      </div>
      <br><br>
  </div>",0,,,,hi82H05q8pgWRa5VYOmuguW2o023,,,,,,,,,,,,,,,,,,,,,,,5de6cfc6b5bed765473c624b,16:35:18,27/03/2024
html-keyboard-response,44,89110,0.0-19.0,4568.5,"
  <div style=""display: flex; align-items: center; justify-content: center; height: 80vh;"">
  <div>
          <img src=""images/inst_6.png"" style=""width: 80vw; height:auto;"">
          <br><br>
      </div>
      <br><br>
  </div>",f,,,,hi82H05q8pgWRa5VYOmuguW2o023,,,,,,,,,,,,,,,,,,,,,,,5de6cfc6b5bed765473c624b,16:35:18,27/03/2024
html-keyboard-response,45,92112,0.0-20.0,,"<div style=""font-size:100px;"">+</div>",,delaylearn,learning,pre_fixation,hi82H05q8pgWRa5VYOmuguW2o023,,,,,,,,,,,,,,,,,,,,,,,5de6cfc6b5bed765473c624b,16:35:18,27/03/2024
html-keyboard-response,46,94112,0.0-21.0,,"<div style=""font-size:100px;"">+</div>",,delaylearn,learning,ITI,hi82H05q8pgWRa5VYOmuguW2o023,hi82H05q8pgWRa5VYOmuguW2o023,,,,,,,,,,,,,,,,,,,1986.0,,,5de6cfc6b5bed765473c624b,16:35:18,27/03/2024
html-keyboard-response,47,94959,0.0-22.0-0.0,843.5999994277954,"<div style=""display: flex; flex-direction: column; align-items: center; margin-top: -40px;""><img src=""images/pattern_3.png"" style=""width: 234px; height: 230px; margin-top: -50px;""><div style=""display: flex; justify-content: space-between; margin-top: 33px;""><img src=""images/choice_trial_16.png"" style=""width: 408px; height: 417px; margin-right: 200px;""><img src=""images/choice_trial_6.png"" style=""width: 408px; height: 417px;""></div></div>",f,delaylearn,learning,trial,hi82H05q8pgWRa5VYOmuguW2o023,hi82H05q8pgWRa5VYOmuguW2o023,4.0,images/choice_trial_16.png,images/choice_trial_6.png,images/pattern_3.png,f,f,7000.0,16.0,6.0,2.0,0.0,9.0,1.0,1.0,16.0,50.0,,,,,,5de6cfc6b5bed765473c624b,16:35:18,27/03/2024
html-keyboard-response,48,95965,0.0-22.0-1.0,,"<div style=""display: flex; flex-direction: column; align-items: center; margin-top: -40px;""><img src=""images/pattern_3.png"" style=""width: 234px; height: 230px; margin-top: -50px;""><div style=""display: flex; justify-content: space-between; margin-top: 33px;""><img src=""images/choice_trial_16.png"" style=""width: 408px; height: 417px; margin-right: 608px;""></div></div>",,delaylearn,learning,display_response,hi82H05q8pgWRa5VYOmuguW2o023,hi82H05q8pgWRa5VYOmuguW2o023,,,,,,,,,,,,,,,,,chosen stimuli: images/choice_trial_16.png,,,,,5de6cfc6b5bed765473c624b,16:35:18,27/03/2024
html-keyboard-response,49,102968,0.0-22.0-2.0,,,,delaylearn,learning,feedback_duration_window,hi82H05q8pgWRa5VYOmuguW2o023,hi82H05q8pgWRa5VYOmuguW2o023,,,,,,,,,,,,,,,,,,7000.0,,,,5de6cfc6b5bed765473c624b,16:35:18,27/03/2024
html-keyboard-response,50,104472,0.0-22.0-3.0,,<div style='margin:auto;width: auto; font-size: 150%'><span style='font-weight: bold; font-size: 100px; color: green;'>+10 points!</span><br><br></div>,,delaylearn,learning,feedback_image_window,hi82H05q8pgWRa5VYOmuguW2o023,hi82H05q8pgWRa5VYOmuguW2o023,,,,,,,,,,,,,,,,,,,,,,5de6cfc6b5bed765473c624b,16:35:18,27/03/2024
html-keyboard-response,51,106732,0.0-23.0,,"<div style=""font-size:100px;"">+</div>",,delaylearn,learning,ITI,hi82H05q8pgWRa5VYOmuguW2o023,hi82H05q8pgWRa5VYOmuguW2o023,,,,,,,,,,,,,,,,,,,2256.0,,,5de6cfc6b5bed765473c624b,16:35:18,27/03/2024
html-keyboard-response,52,108043,0.0-24.0-0.0,1307.8000001907349,"<div style=""display: flex; flex-direction: column; align-items: center; margin-top: -40px;""><img src=""images/pattern_7.png"" style=""width: 234px; height: 230px; margin-top: -50px;""><div style=""display: flex; justify-content: space-between; margin-top: 33px;""><img src=""images/choice_trial_4.png"" style=""width: 408px; height: 417px; margin-right: 200px;""><img src=""images/choice_trial_13.png"" style=""width: 408px; height: 417px;""></div></div>",f,delaylearn,learning,trial,hi82H05q8pgWRa5VYOmuguW2o023,hi82H05q8pgWRa5VYOmuguW2o023,4.0,images/choice_trial_4.png,images/choice_trial_13.png,images/pattern_7.png,j,j,750.0,4.0,13.0,6.0,1.0,10.0,0.0,0.0,4.0,50.0,,,,,,5de6cfc6b5bed765473c624b,16:35:18,27/03/2024
html-keyboard-response,53,109052,0.0-24.0-1.0,,"<div style=""display: flex; flex-direction: column; align-items: center; margin-top: -40px;""><img src=""images/pattern_7.png"" style=""width: 234px; height: 230px; margin-top: -50px;""><div style=""display: flex; justify-content: space-between; margin-top: 33px;""><img src=""images/choice_trial_4.png"" style=""width: 408px; height: 417px; margin-right: 608px;""></div></div>",,delaylearn,learning,display_response,hi82H05q8pgWRa5VYOmuguW2o023,hi82H05q8pgWRa5VYOmuguW2o023,,,,,,,,,,,,,,,,,chosen stimuli: images/choice_trial_4.png,,,,,5de6cfc6b5bed765473c624b,16:35:18,27/03/2024
html-keyboard-response,54,109818,0.0-24.0-2.0,,,,delaylearn,learning,feedback_duration_window,hi82H05q8pgWRa5VYOmuguW2o023,hi82H05q8pgWRa5VYOmuguW2o023,,,,,,,,,,,,,,,,,,750.0,,,,5de6cfc6b5bed765473c624b,16:35:18,27/03/2024
html-keyboard-response,55,111335,0.0-24.0-3.0,,<div style='margin:auto;width: auto; font-size: 150%'><span style='font-weight: bold; font-size: 100px; color: red;'>0 points!</span><br><br></div>,,delaylearn,learning,feedback_image_window,hi82H05q8pgWRa5VYOmuguW2o023,hi82H05q8pgWRa5VYOmuguW2o023,,,,,,,,,,,,,,,,,,,,,,5de6cfc6b5bed765473c624b,16:35:18,27/03/2024
html-keyboard-response,56,113152,0.0-25.0,,"<div style=""font-size:100px;"">+</div>",,delaylearn,learning,ITI,hi82H05q8pgWRa5VYOmuguW2o023,hi82H05q8pgWRa5VYOmuguW2o023,,,,,,,,,,,,,,,,,,,1801.0,,,5de6cfc6b5bed765473c624b,16:35:18,27/03/2024
html-keyboard-response,57,114469,0.0-26.0-0.0,1315.1999998092651,"<div style=""display: flex; flex-direction: column; align-items: center; margin-top: -40px;""><img src=""images/pattern_4.png"" style=""width: 234px; height: 230px; margin-top: -50px;""><div style=""display: flex; justify-content: space-between; margin-top: 33px;""><img src=""images/choice_trial_8.png"" style=""width: 408px; height: 417px; margin-right: 200px;""><img src=""images/choice_trial_7.png"" style=""width: 408px; height: 417px;""></div></div>",f,delaylearn,learning,trial,hi82H05q8pgWRa5VYOmuguW2o023,hi82H05q8pgWRa5VYOmuguW2o023,4.0,images/choice_trial_8.png,images/choice_trial_7.png,images/pattern_4.png,f,f,7000.0,8.0,7.0,3.0,0.0,11.0,1.0,1.0,8.0,60.0,,,,,,5de6cfc6b5bed765473c624b,16:35:18,27/03/2024
html-keyboard-response,58,115474,0.0-26.0-1.0,,"<div style=""display: flex; flex-direction: column; align-items: center; margin-top: -40px;""><img src=""images/pattern_4.png"" style=""width: 234px; height: 230px; margin-top: -50px;""><div style=""display: flex; justify-content: space-between; margin-top: 33px;""><img src=""images/choice_trial_8.png"" style=""width: 408px; height: 417px; margin-right: 608px;""></div></div>",,delaylearn,learning,display_response,hi82H05q8pgWRa5VYOmuguW2o023,hi82H05q8pgWRa5VYOmuguW2o023,,,,,,,,,,,,,,,,,chosen stimuli: images/choice_trial_8.png,,,,,5de6cfc6b5bed765473c624b,16:35:18,27/03/2024
html-keyboard-response,59,122487,0.0-26.0-2.0,,,,delaylearn,learning,feedback_duration_window,hi82H05q8pgWRa5VYOmuguW2o023,hi82H05q8pgWRa5VYOmuguW2o023,,,,,,,,,,,,,,,,,,7000.0,,,,5de6cfc6b5bed765473c624b,16:35:18,27/03/2024
html-keyboard-response,60,124002,0.0-26.0-3.0,,<div style='margin:auto;width: auto; font-size: 150%'><span style='font-weight: bold; font-size: 100px; color: green;'>+10 points!</span><br><br></div>,,delaylearn,learning,feedback_image_window,hi82H05q8pgWRa5VYOmuguW2o023,hi82H05q8pgWRa5VYOmuguW2o023,,,,,,,,,,,,,,,,,,,,,,5de6cfc6b5bed765473c624b,16:35:18,27/03/2024
html-keyboard-response,61,125520,0.0-27.0,,"<div style=""font-size:100px;"">+</div>",,delaylearn,learning,ITI,hi82H05q8pgWRa5VYOmuguW2o023,hi82H05q8pgWRa5VYOmuguW2o023,,,,,,,,,,,,,,,,,,,1506.0,,,5de6cfc6b5bed765473c624b,16:35:18,27/03/2024
html-keyboard-response,62,126537,0.0-28.0-0.0,1013.8000001907349,"<div style=""display: flex; flex-direction: column; align-items: center; margin-top: -40px;""><img src=""images/pattern_5.png"" style=""width: 234px; height: 230px; margin-top: -50px;""><div style=""display: flex; justify-content: space-between; margin-top: 33px;""><img src=""images/choice_trial_15.png"" style=""width: 408px; height: 417px; margin-right: 200px;""><img src=""images/choice_trial_5.png"" style=""width: 408px; height: 417px;""></div></div>",j,delaylearn,learning,trial,hi82H05q8pgWRa5VYOmuguW2o023,hi82H05q8pgWRa5VYOmuguW2o023,4.0,images/choice_trial_15.png,images/choice_trial_5.png,images/pattern_5.png,j,j,750.0,15.0,5.0,4.0,1.0,12.0,1.0,1.0,5.0,70.0,,,,,,5de6cfc6b5bed765473c624b,16:35:18,27/03/2024
html-keyboard-response,63,127544,0.0-28.0-1.0,,"<div style=""display: flex; flex-direction: column; align-items: center; margin-top: -40px;""><img src=""images/pattern_5.png"" style=""width: 234px; height: 230px; margin-top: -50px;""><div style=""display: flex; justify-content: space-between; margin-top: 33px;""><img src=""images/choice_trial_5.png"" style=""width: 408px; height: 417px; margin-left:608px;""></div></div>",,delaylearn,learning,display_response,hi82H05q8pgWRa5VYOmuguW2o023,hi82H05q8pgWRa5VYOmuguW2o023,,,,,,,,,,,,,,,,,chosen stimuli: images/choice_trial_5.png,,,,,5de6cfc6b5bed765473c624b,16:35:18,27/03/2024
html-keyboard-response,64,128309,0.0-28.0-2.0,,,,delaylearn,learning,feedback_duration_window,hi82H05q8pgWRa5VYOmuguW2o023,hi82H05q8pgWRa5VYOmuguW2o023,,,,,,,,,,,,,,,,,,750.0,,,,5de6cfc6b5bed765473c624b,16:35:18,27/03/2024
html-keyboard-response,65,129812,0.0-28.0-3.0,,<div style='margin:auto;width: auto; font-size: 150%'><span style='font-weight: bold; font-size: 100px; color: green;'>+10 points!</span><br><br></div>,,delaylearn,learning,feedback_image_window,hi82H05q8pgWRa5VYOmuguW2o023,hi82H05q8pgWRa5VYOmuguW2o023,,,,,,,,,,,,,,,,,,,,,,5de6cfc6b5bed765473c624b,16:35:18,27/03/2024
html-keyboard-response,66,131802,0.0-29.0,,"<div style=""font-size:100px;"">+</div>",,delaylearn,learning,ITI,hi82H05q8pgWRa5VYOmuguW2o023,hi82H05q8pgWRa5VYOmuguW2o023,,,,,,,,,,,,,,,,,,,1976.0,,,5de6cfc6b5bed765473c624b,16:35:18,27/03/2024
html-keyboard-response,67,133078,0.0-30.0-0.0,1273.3000001907349,"<div style=""display: flex; flex-direction: column; align-items: center; margin-top: -40px;""><img src=""images/pattern_6.png"" style=""width: 234px; height: 230px; margin-top: -50px;""><div style=""display: flex; justify-content: space-between; margin-top: 33px;""><img src=""images/choice_trial_10.png"" style=""width: 408px; height: 417px; margin-right: 200px;""><img src=""images/choice_trial_3.png"" style=""width: 408px; height: 417px;""></div></div>",j,delaylearn,learning,trial,hi82H05q8pgWRa5VYOmuguW2o023,hi82H05q8pgWRa5VYOmuguW2o023,4.0,images/choice_trial_10.png,images/choice_trial_3.png,images/pattern_6.png,j,f,750.0,10.0,3.0,5.0,0.0,13.0,0.0,1.0,3.0,80.0,,,,,,5de6cfc6b5bed765473c624b,16:35:18,27/03/2024
html-keyboard-response,68,134089,0.0-30.0-1.0,,"<div style=""display: flex; flex-direction: column; align-items: center; margin-top: -40px;""><img src=""images/pattern_6.png"" style=""width: 234px; height: 230px; margin-top: -50px;""><div style=""display: flex; justify-content: space-between; margin-top: 33px;""><img src=""images/choice_trial_3.png"" style=""width: 408px; height: 417px; margin-left:608px;""></div></div>",,delaylearn,learning,display_response,hi82H05q8pgWRa5VYOmuguW2o023,hi82H05q8pgWRa5VYOmuguW2o023,,,,,,,,,,,,,,,,,chosen stimuli: images/choice_trial_3.png,,,,,5de6cfc6b5bed765473c624b,16:35:18,27/03/2024
html-keyboard-response,69,134854,0.0-30.0-2.0,,,,delaylearn,learning,feedback_duration_window,hi82H05q8pgWRa5VYOmuguW2o023,hi82H05q8pgWRa5VYOmuguW2o023,,,,,,,,,,,,,,,,,,750.0,,,,5de6cfc6b5bed765473c624b,16:35:18,27/03/2024
html-keyboard-response,70,136357,0.0-30.0-3.0,,<div style='margin:auto;width: auto; font-size: 150%'><span style='font-weight: bold; font-size: 100px; color: green;'>+10 points!</span><br><br></div>,,delaylearn,learning,feedback_image_window,hi82H05q8pgWRa5VYOmuguW2o023,hi82H05q8pgWRa5VYOmuguW2o023,,,,,,,,,,,,,,,,,,,,,,5de6cfc6b5bed765473c624b,16:35:18,27/03/2024
html-keyboard-response,71,136868,0.0-31.0-0.0,,,,,,mood_trial_fixation,hi82H05q8pgWRa5VYOmuguW2o023,,,,,,,,,,,,,,,,,,,,,,,5de6cfc6b5bed765473c624b,16:35:18,27/03/2024
lmdlab-html-vas-response,72,142125,0.0-31.0-1.0,4238.0,How happy are you right now?,0.3055555555555556,delaylearn,learning,mood_trial,hi82H05q8pgWRa5VYOmuguW2o023,hi82H05q8pgWRa5VYOmuguW2o023,,,,,,,,,,,,,,,,,,,,"['Very unhappy', 'Very happy']",,5de6cfc6b5bed765473c624b,16:35:18,27/03/2024
html-keyboard-response,73,144065,0.0-32.0,,"<div style=""font-size:100px;"">+</div>",,delaylearn,learning,ITI,hi82H05q8pgWRa5VYOmuguW2o023,hi82H05q8pgWRa5VYOmuguW2o023,,,,,,,,,,,,,,,,,,,1934.0,,,5de6cfc6b5bed765473c624b,16:35:18,27/03/2024
html-keyboard-response,74,145492,0.0-33.0-0.0,1424.6999998092651,"<div style=""display: flex; flex-direction: column; align-items: center; margin-top: -40px;""><img src=""images/pattern_1.png"" style=""width: 234px; height: 230px; margin-top: -50px;""><div style=""display: flex; justify-content: space-between; margin-top: 33px;""><img src=""images/choice_trial_9.png"" style=""width: 408px; height: 417px; margin-right: 200px;""><img src=""images/choice_trial_1.png"" style=""width: 408px; height: 417px;""></div></div>",f,delaylearn,learning,trial,hi82H05q8pgWRa5VYOmuguW2o023,hi82H05q8pgWRa5VYOmuguW2o023,4.0,images/choice_trial_9.png,images/choice_trial_1.png,images/pattern_1.png,j,j,7000.0,9.0,1.0,1.0,1.0,14.0,0.0,0.0,9.0,80.0,,,,,,5de6cfc6b5bed765473c624b,16:35:18,27/03/2024
html-keyboard-response,75,146496,0.0-33.0-1.0,,"<div style=""display: flex; flex-direction: column; align-items: center; margin-top: -40px;""><img src=""images/pattern_1.png"" style=""width: 234px; height: 230px; margin-top: -50px;""><div style=""display: flex; justify-content: space-between; margin-top: 33px;""><img src=""images/choice_trial_9.png"" style=""width: 408px; height: 417px; margin-right: 608px;""></div></div>",,delaylearn,learning,display_response,hi82H05q8pgWRa5VYOmuguW2o023,hi82H05q8pgWRa5VYOmuguW2o023,,,,,,,,,,,,,,,,,chosen stimuli: images/choice_trial_9.png,,,,,5de6cfc6b5bed765473c624b,16:35:18,27/03/2024
html-keyboard-response,76,153504,0.0-33.0-2.0,,,,delaylearn,learning,feedback_duration_window,hi82H05q8pgWRa5VYOmuguW2o023,hi82H05q8pgWRa5VYOmuguW2o023,,,,,,,,,,,,,,,,,,7000.0,,,,5de6cfc6b5bed765473c624b,16:35:18,27/03/2024
html-keyboard-response,77,155016,0.0-33.0-3.0,,<div style='margin:auto;width: auto; font-size: 150%'><span style='font-weight: bold; font-size: 100px; color: red;'>0 points!</span><br><br></div>,,delaylearn,learning,feedback_image_window,hi82H05q8pgWRa5VYOmuguW2o023,hi82H05q8pgWRa5VYOmuguW2o023,,,,,,,,,,,,,,,,,,,,,,5de6cfc6b5bed765473c624b,16:35:18,27/03/2024
html-keyboard-response,78,157319,0.0-34.0,,"<div style=""font-size:100px;"">+</div>",,delaylearn,learning,ITI,hi82H05q8pgWRa5VYOmuguW2o023,hi82H05q8pgWRa5VYOmuguW2o023,,,,,,,,,,,,,,,,,,,2288.0,,,5de6cfc6b5bed765473c624b,16:35:18,27/03/2024
html-keyboard-response,79,158336,0.0-35.0-0.0,1013.2000007629395,"<div style=""display: flex; flex-direction: column; align-items: center; margin-top: -40px;""><img src=""images/pattern_3.png"" style=""width: 234px; height: 230px; margin-top: -50px;""><div style=""display: flex; justify-content: space-between; margin-top: 33px;""><img src=""images/choice_trial_6.png"" style=""width: 408px; height: 417px; margin-right: 200px;""><img src=""images/choice_trial_16.png"" style=""width: 408px; height: 417px;""></div></div>",j,delaylearn,learning,trial,hi82H05q8pgWRa5VYOmuguW2o023,hi82H05q8pgWRa5VYOmuguW2o023,4.0,images/choice_trial_6.png,images/choice_trial_16.png,images/pattern_3.png,f,j,7000.0,6.0,16.0,2.0,1.0,15.0,1.0,0.0,16.0,80.0,,,,,,5de6cfc6b5bed765473c624b,16:35:18,27/03/2024
html-keyboard-response,80,159352,0.0-35.0-1.0,,"<div style=""display: flex; flex-direction: column; align-items: center; margin-top: -40px;""><img src=""images/pattern_3.png"" style=""width: 234px; height: 230px; margin-top: -50px;""><div style=""display: flex; justify-content: space-between; margin-top: 33px;""><img src=""images/choice_trial_16.png"" style=""width: 408px; height: 417px; margin-left:608px;""></div></div>",,delaylearn,learning,display_response,hi82H05q8pgWRa5VYOmuguW2o023,hi82H05q8pgWRa5VYOmuguW2o023,,,,,,,,,,,,,,,,,chosen stimuli: images/choice_trial_16.png,,,,,5de6cfc6b5bed765473c624b,16:35:18,27/03/2024
html-keyboard-response,81,166356,0.0-35.0-2.0,,,,delaylearn,learning,feedback_duration_window,hi82H05q8pgWRa5VYOmuguW2o023,hi82H05q8pgWRa5VYOmuguW2o023,,,,,,,,,,,,,,,,,,7000.0,,,,5de6cfc6b5bed765473c624b,16:35:18,27/03/2024
html-keyboard-response,82,167860,0.0-35.0-3.0,,<div style='margin:auto;width: auto; font-size: 150%'><span style='font-weight: bold; font-size: 100px; color: red;'>0 points!</span><br><br></div>,,delaylearn,learning,feedback_image_window,hi82H05q8pgWRa5VYOmuguW2o023,hi82H05q8pgWRa5VYOmuguW2o023,,,,,,,,,,,,,,,,,,,,,,5de6cfc6b5bed765473c624b,16:35:18,27/03/2024
html-keyboard-response,83,170161,0.0-36.0,,"<div style=""font-size:100px;"">+</div>",,delaylearn,learning,ITI,hi82H05q8pgWRa5VYOmuguW2o023,hi82H05q8pgWRa5VYOmuguW2o023,,,,,,,,,,,,,,,,,,,2293.0,,,5de6cfc6b5bed765473c624b,16:35:18,27/03/2024
html-keyboard-response,84,171162,0.0-37.0-0.0,997.8999996185303,"<div style=""display: flex; flex-direction: column; align-items: center; margin-top: -40px;""><img src=""images/pattern_5.png"" style=""width: 234px; height: 230px; margin-top: -50px;""><div style=""display: flex; justify-content: space-between; margin-top: 33px;""><img src=""images/choice_trial_5.png"" style=""width: 408px; height: 417px; margin-right: 200px;""><img src=""images/choice_trial_15.png"" style=""width: 408px; height: 417px;""></div></div>",j,delaylearn,learning,trial,hi82H05q8pgWRa5VYOmuguW2o023,hi82H05q8pgWRa5VYOmuguW2o023,4.0,images/choice_trial_5.png,images/choice_trial_15.png,images/pattern_5.png,f,f,750.0,5.0,15.0,4.0,0.0,16.0,0.0,0.0,15.0,80.0,,,,,,5de6cfc6b5bed765473c624b,16:35:18,27/03/2024
html-keyboard-response,85,172177,0.0-37.0-1.0,,"<div style=""display: flex; flex-direction: column; align-items: center; margin-top: -40px;""><img src=""images/pattern_5.png"" style=""width: 234px; height: 230px; margin-top: -50px;""><div style=""display: flex; justify-content: space-between; margin-top: 33px;""><img src=""images/choice_trial_15.png"" style=""width: 408px; height: 417px; margin-left:608px;""></div></div>",,delaylearn,learning,display_response,hi82H05q8pgWRa5VYOmuguW2o023,hi82H05q8pgWRa5VYOmuguW2o023,,,,,,,,,,,,,,,,,chosen stimuli: images/choice_trial_15.png,,,,,5de6cfc6b5bed765473c624b,16:35:18,27/03/2024
html-keyboard-response,86,172939,0.0-37.0-2.0,,,,delaylearn,learning,feedback_duration_window,hi82H05q8pgWRa5VYOmuguW2o023,hi82H05q8pgWRa5VYOmuguW2o023,,,,,,,,,,,,,,,,,,750.0,,,,5de6cfc6b5bed765473c624b,16:35:18,27/03/2024
html-keyboard-response,87,174450,0.0-37.0-3.0,,<div style='margin:auto;width: auto; font-size: 150%'><span style='font-weight: bold; font-size: 100px; color: red;'>0 points!</span><br><br></div>,,delaylearn,learning,feedback_image_window,hi82H05q8pgWRa5VYOmuguW2o023,hi82H05q8pgWRa5VYOmuguW2o023,,,,,,,,,,,,,,,,,,,,,,5de6cfc6b5bed765473c624b,16:35:18,27/03/2024
html-keyboard-response,88,174962,0.0-38.0-0.0,,,,,,mood_trial_fixation,hi82H05q8pgWRa5VYOmuguW2o023,,,,,,,,,,,,,,,,,,,,,,,5de6cfc6b5bed765473c624b,16:35:18,27/03/2024
lmdlab-html-vas-response,89,179318,0.0-38.0-1.0,3336.0,How happy are you right now?,0.2916666666666667,delaylearn,learning,mood_trial,hi82H05q8pgWRa5VYOmuguW2o023,hi82H05q8pgWRa5VYOmuguW2o023,,,,,,,,,,,,,,,,,,,,"['Very unhappy', 'Very happy']",,5de6cfc6b5bed765473c624b,16:35:18,27/03/2024
html-keyboard-response,90,181131,0.0-39.0,,"<div style=""font-size:100px;"">+</div>",,delaylearn,learning,ITI,hi82H05q8pgWRa5VYOmuguW2o023,hi82H05q8pgWRa5VYOmuguW2o023,,,,,,,,,,,,,,,,,,,1807.0,,,5de6cfc6b5bed765473c624b,16:35:18,27/03/2024
html-keyboard-response,91,182946,0.0-40.0-0.0,1811.7000007629395,"<div style=""display: flex; flex-direction: column; align-items: center; margin-top: -40px;""><img src=""images/pattern_6.png"" style=""width: 234px; height: 230px; margin-top: -50px;""><div style=""display: flex; justify-content: space-between; margin-top: 33px;""><img src=""images/choice_trial_10.png"" style=""width: 408px; height: 417px; margin-right: 200px;""><img src=""images/choice_trial_3.png"" style=""width: 408px; height: 417px;""></div></div>",j,delaylearn,learning,trial,hi82H05q8pgWRa5VYOmuguW2o023,hi82H05q8pgWRa5VYOmuguW2o023,4.0,images/choice_trial_10.png,images/choice_trial_3.png,images/pattern_6.png,f,f,750.0,10.0,3.0,5.0,0.0,17.0,0.0,0.0,3.0,80.0,,,,,,5de6cfc6b5bed765473c624b,16:35:18,27/03/2024
html-keyboard-response,92,183964,0.0-40.0-1.0,,"<div style=""display: flex; flex-direction: column; align-items: center; margin-top: -40px;""><img src=""images/pattern_6.png"" style=""width: 234px; height: 230px; margin-top: -50px;""><div style=""display: flex; justify-content: space-between; margin-top: 33px;""><img src=""images/choice_trial_3.png"" style=""width: 408px; height: 417px; margin-left:608px;""></div></div>",,delaylearn,learning,display_response,hi82H05q8pgWRa5VYOmuguW2o023,hi82H05q8pgWRa5VYOmuguW2o023,,,,,,,,,,,,,,,,,chosen stimuli: images/choice_trial_3.png,,,,,5de6cfc6b5bed765473c624b,16:35:18,27/03/2024
html-keyboard-response,93,184723,0.0-40.0-2.0,,,,delaylearn,learning,feedback_duration_window,hi82H05q8pgWRa5VYOmuguW2o023,hi82H05q8pgWRa5VYOmuguW2o023,,,,,,,,,,,,,,,,,,750.0,,,,5de6cfc6b5bed765473c624b,16:35:18,27/03/2024
html-keyboard-response,94,186229,0.0-40.0-3.0,,<div style='margin:auto;width: auto; font-size: 150%'><span style='font-weight: bold; font-size: 100px; color: red;'>0 points!</span><br><br></div>,,delaylearn,learning,feedback_image_window,hi82H05q8pgWRa5VYOmuguW2o023,hi82H05q8pgWRa5VYOmuguW2o023,,,,,,,,,,,,,,,,,,,,,,5de6cfc6b5bed765473c624b,16:35:18,27/03/2024
html-keyboard-response,95,188404,0.0-41.0,,"<div style=""font-size:100px;"">+</div>",,delaylearn,learning,ITI,hi82H05q8pgWRa5VYOmuguW2o023,hi82H05q8pgWRa5VYOmuguW2o023,,,,,,,,,,,,,,,,,,,2171.0,,,5de6cfc6b5bed765473c624b,16:35:18,27/03/2024
html-keyboard-response,96,190021,0.0-42.0-0.0,1606.1999998092651,"<div style=""display: flex; flex-direction: column; align-items: center; margin-top: -40px;""><img src=""images/pattern_4.png"" style=""width: 234px; height: 230px; margin-top: -50px;""><div style=""display: flex; justify-content: space-between; margin-top: 33px;""><img src=""images/choice_trial_7.png"" style=""width: 408px; height: 417px; margin-right: 200px;""><img src=""images/choice_trial_8.png"" style=""width: 408px; height: 417px;""></div></div>",f,delaylearn,learning,trial,hi82H05q8pgWRa5VYOmuguW2o023,hi82H05q8pgWRa5VYOmuguW2o023,4.0,images/choice_trial_7.png,images/choice_trial_8.png,images/pattern_4.png,j,j,7000.0,7.0,8.0,3.0,1.0,18.0,0.0,0.0,7.0,80.0,,,,,,5de6cfc6b5bed765473c624b,16:35:18,27/03/2024
html-keyboard-response,97,191039,0.0-42.0-1.0,,"<div style=""display: flex; flex-direction: column; align-items: center; margin-top: -40px;""><img src=""images/pattern_4.png"" style=""width: 234px; height: 230px; margin-top: -50px;""><div style=""display: flex; justify-content: space-between; margin-top: 33px;""><img src=""images/choice_trial_7.png"" style=""width: 408px; height: 417px; margin-right: 608px;""></div></div>",,delaylearn,learning,display_response,hi82H05q8pgWRa5VYOmuguW2o023,hi82H05q8pgWRa5VYOmuguW2o023,,,,,,,,,,,,,,,,,chosen stimuli: images/choice_trial_7.png,,,,,5de6cfc6b5bed765473c624b,16:35:18,27/03/2024
html-keyboard-response,98,198044,0.0-42.0-2.0,,,,delaylearn,learning,feedback_duration_window,hi82H05q8pgWRa5VYOmuguW2o023,hi82H05q8pgWRa5VYOmuguW2o023,,,,,,,,,,,,,,,,,,7000.0,,,,5de6cfc6b5bed765473c624b,16:35:18,27/03/2024
html-keyboard-response,99,199563,0.0-42.0-3.0,,<div style='margin:auto;width: auto; font-size: 150%'><span style='font-weight: bold; font-size: 100px; color: red;'>0 points!</span><br><br></div>,,delaylearn,learning,feedback_image_window,hi82H05q8pgWRa5VYOmuguW2o023,hi82H05q8pgWRa5VYOmuguW2o023,,,,,,,,,,,,,,,,,,,,,,5de6cfc6b5bed765473c624b,16:35:18,27/03/2024
html-keyboard-response,100,201525,0.0-43.0,,"<div style=""font-size:100px;"">+</div>",,delaylearn,learning,ITI,hi82H05q8pgWRa5VYOmuguW2o023,hi82H05q8pgWRa5VYOmuguW2o023,,,,,,,,,,,,,,,,,,,1960.0,,,5de6cfc6b5bed765473c624b,16:35:18,27/03/2024
html-keyboard-response,101,202913,0.0-44.0-0.0,1384.9000005722046,"<div style=""display: flex; flex-direction: column; align-items: center; margin-top: -40px;""><img src=""images/pattern_7.png"" style=""width: 234px; height: 230px; margin-top: -50px;""><div style=""display: flex; justify-content: space-between; margin-top: 33px;""><img src=""images/choice_trial_13.png"" style=""width: 408px; height: 417px; margin-right: 200px;""><img src=""images/choice_trial_4.png"" style=""width: 408px; height: 417px;""></div></div>",j,delaylearn,learning,trial,hi82H05q8pgWRa5VYOmuguW2o023,hi82H05q8pgWRa5VYOmuguW2o023,4.0,images/choice_trial_13.png,images/choice_trial_4.png,images/pattern_7.png,j,f,750.0,13.0,4.0,6.0,0.0,19.0,0.0,1.0,4.0,90.0,,,,,,5de6cfc6b5bed765473c624b,16:35:18,27/03/2024
html-keyboard-response,102,203916,0.0-44.0-1.0,,"<div style=""display: flex; flex-direction: column; align-items: center; margin-top: -40px;""><img src=""images/pattern_7.png"" style=""width: 234px; height: 230px; margin-top: -50px;""><div style=""display: flex; justify-content: space-between; margin-top: 33px;""><img src=""images/choice_trial_4.png"" style=""width: 408px; height: 417px; margin-left:608px;""></div></div>",,delaylearn,learning,display_response,hi82H05q8pgWRa5VYOmuguW2o023,hi82H05q8pgWRa5VYOmuguW2o023,,,,,,,,,,,,,,,,,chosen stimuli: images/choice_trial_4.png,,,,,5de6cfc6b5bed765473c624b,16:35:18,27/03/2024
html-keyboard-response,103,204681,0.0-44.0-2.0,,,,delaylearn,learning,feedback_duration_window,hi82H05q8pgWRa5VYOmuguW2o023,hi82H05q8pgWRa5VYOmuguW2o023,,,,,,,,,,,,,,,,,,750.0,,,,5de6cfc6b5bed765473c624b,16:35:18,27/03/2024
html-keyboard-response,104,206193,0.0-44.0-3.0,,<div style='margin:auto;width: auto; font-size: 150%'><span style='font-weight: bold; font-size: 100px; color: green;'>+10 points!</span><br><br></div>,,delaylearn,learning,feedback_image_window,hi82H05q8pgWRa5VYOmuguW2o023,hi82H05q8pgWRa5VYOmuguW2o023,,,,,,,,,,,,,,,,,,,,,,5de6cfc6b5bed765473c624b,16:35:18,27/03/2024
html-keyboard-response,105,207736,0.0-45.0,,"<div style=""font-size:100px;"">+</div>",,delaylearn,learning,ITI,hi82H05q8pgWRa5VYOmuguW2o023,hi82H05q8pgWRa5VYOmuguW2o023,,,,,,,,,,,,,,,,,,,1529.0,,,5de6cfc6b5bed765473c624b,16:35:18,27/03/2024
html-keyboard-response,106,209366,0.0-46.0-0.0,1626.8999996185303,"<div style=""display: flex; flex-direction: column; align-items: center; margin-top: -40px;""><img src=""images/pattern_1.png"" style=""width: 234px; height: 230px; margin-top: -50px;""><div style=""display: flex; justify-content: space-between; margin-top: 33px;""><img src=""images/choice_trial_1.png"" style=""width: 408px; height: 417px; margin-right: 200px;""><img src=""images/choice_trial_9.png"" style=""width: 408px; height: 417px;""></div></div>",j,delaylearn,learning,trial,hi82H05q8pgWRa5VYOmuguW2o023,hi82H05q8pgWRa5VYOmuguW2o023,4.0,images/choice_trial_1.png,images/choice_trial_9.png,images/pattern_1.png,f,f,7000.0,1.0,9.0,1.0,0.0,20.0,0.0,0.0,9.0,90.0,,,,,,5de6cfc6b5bed765473c624b,16:35:18,27/03/2024
html-keyboard-response,107,210375,0.0-46.0-1.0,,"<div style=""display: flex; flex-direction: column; align-items: center; margin-top: -40px;""><img src=""images/pattern_1.png"" style=""width: 234px; height: 230px; margin-top: -50px;""><div style=""display: flex; justify-content: space-between; margin-top: 33px;""><img src=""images/choice_trial_9.png"" style=""width: 408px; height: 417px; margin-left:608px;""></div></div>",,delaylearn,learning,display_response,hi82H05q8pgWRa5VYOmuguW2o023,hi82H05q8pgWRa5VYOmuguW2o023,,,,,,,,,,,,,,,,,chosen stimuli: images/choice_trial_9.png,,,,,5de6cfc6b5bed765473c624b,16:35:18,27/03/2024
html-keyboard-response,108,217390,0.0-46.0-2.0,,,,delaylearn,learning,feedback_duration_window,hi82H05q8pgWRa5VYOmuguW2o023,hi82H05q8pgWRa5VYOmuguW2o023,,,,,,,,,,,,,,,,,,7000.0,,,,5de6cfc6b5bed765473c624b,16:35:18,27/03/2024
html-keyboard-response,109,218893,0.0-46.0-3.0,,<div style='margin:auto;width: auto; font-size: 150%'><span style='font-weight: bold; font-size: 100px; color: red;'>0 points!</span><br><br></div>,,delaylearn,learning,feedback_image_window,hi82H05q8pgWRa5VYOmuguW2o023,hi82H05q8pgWRa5VYOmuguW2o023,,,,,,,,,,,,,,,,,,,,,,5de6cfc6b5bed765473c624b,16:35:18,27/03/2024
html-keyboard-response,110,220979,0.0-47.0,,"<div style=""font-size:100px;"">+</div>",,delaylearn,learning,ITI,hi82H05q8pgWRa5VYOmuguW2o023,hi82H05q8pgWRa5VYOmuguW2o023,,,,,,,,,,,,,,,,,,,2071.0,,,5de6cfc6b5bed765473c624b,16:35:18,27/03/2024
html-keyboard-response,111,222113,0.0-48.0-0.0,1131.5,"<div style=""display: flex; flex-direction: column; align-items: center; margin-top: -40px;""><img src=""images/pattern_6.png"" style=""width: 234px; height: 230px; margin-top: -50px;""><div style=""display: flex; justify-content: space-between; margin-top: 33px;""><img src=""images/choice_trial_3.png"" style=""width: 408px; height: 417px; margin-right: 200px;""><img src=""images/choice_trial_10.png"" style=""width: 408px; height: 417px;""></div></div>",j,delaylearn,learning,trial,hi82H05q8pgWRa5VYOmuguW2o023,hi82H05q8pgWRa5VYOmuguW2o023,4.0,images/choice_trial_3.png,images/choice_trial_10.png,images/pattern_6.png,j,j,750.0,3.0,10.0,5.0,1.0,21.0,1.0,1.0,10.0,100.0,,,,,,5de6cfc6b5bed765473c624b,16:35:18,27/03/2024
html-keyboard-response,112,223126,0.0-48.0-1.0,,"<div style=""display: flex; flex-direction: column; align-items: center; margin-top: -40px;""><img src=""images/pattern_6.png"" style=""width: 234px; height: 230px; margin-top: -50px;""><div style=""display: flex; justify-content: space-between; margin-top: 33px;""><img src=""images/choice_trial_10.png"" style=""width: 408px; height: 417px; margin-left:608px;""></div></div>",,delaylearn,learning,display_response,hi82H05q8pgWRa5VYOmuguW2o023,hi82H05q8pgWRa5VYOmuguW2o023,,,,,,,,,,,,,,,,,chosen stimuli: images/choice_trial_10.png,,,,,5de6cfc6b5bed765473c624b,16:35:18,27/03/2024
html-keyboard-response,113,223891,0.0-48.0-2.0,,,,delaylearn,learning,feedback_duration_window,hi82H05q8pgWRa5VYOmuguW2o023,hi82H05q8pgWRa5VYOmuguW2o023,,,,,,,,,,,,,,,,,,750.0,,,,5de6cfc6b5bed765473c624b,16:35:18,27/03/2024
html-keyboard-response,114,225395,0.0-48.0-3.0,,<div style='margin:auto;width: auto; font-size: 150%'><span style='font-weight: bold; font-size: 100px; color: green;'>+10 points!</span><br><br></div>,,delaylearn,learning,feedback_image_window,hi82H05q8pgWRa5VYOmuguW2o023,hi82H05q8pgWRa5VYOmuguW2o023,,,,,,,,,,,,,,,,,,,,,,5de6cfc6b5bed765473c624b,16:35:18,27/03/2024
html-keyboard-response,115,227396,0.0-49.0,,"<div style=""font-size:100px;"">+</div>",,delaylearn,learning,ITI,hi82H05q8pgWRa5VYOmuguW2o023,hi82H05q8pgWRa5VYOmuguW2o023,,,,,,,,,,,,,,,,,,,1984.0,,,5de6cfc6b5bed765473c624b,16:35:18,27/03/2024
html-keyboard-response,116,228706,0.0-50.0-0.0,1305.5,"<div style=""display: flex; flex-direction: column; align-items: center; margin-top: -40px;""><img src=""images/pattern_4.png"" style=""width: 234px; height: 230px; margin-top: -50px;""><div style=""display: flex; justify-content: space-between; margin-top: 33px;""><img src=""images/choice_trial_8.png"" style=""width: 408px; height: 417px; margin-right: 200px;""><img src=""images/choice_trial_7.png"" style=""width: 408px; height: 417px;""></div></div>",j,delaylearn,learning,trial,hi82H05q8pgWRa5VYOmuguW2o023,hi82H05q8pgWRa5VYOmuguW2o023,4.0,images/choice_trial_8.png,images/choice_trial_7.png,images/pattern_4.png,f,f,7000.0,8.0,7.0,3.0,0.0,22.0,0.0,0.0,7.0,100.0,,,,,,5de6cfc6b5bed765473c624b,16:35:18,27/03/2024
html-keyboard-response,117,229709,0.0-50.0-1.0,,"<div style=""display: flex; flex-direction: column; align-items: center; margin-top: -40px;""><img src=""images/pattern_4.png"" style=""width: 234px; height: 230px; margin-top: -50px;""><div style=""display: flex; justify-content: space-between; margin-top: 33px;""><img src=""images/choice_trial_7.png"" style=""width: 408px; height: 417px; margin-left:608px;""></div></div>",,delaylearn,learning,display_response,hi82H05q8pgWRa5VYOmuguW2o023,hi82H05q8pgWRa5VYOmuguW2o023,,,,,,,,,,,,,,,,,chosen stimuli: images/choice_trial_7.png,,,,,5de6cfc6b5bed765473c624b,16:35:18,27/03/2024
html-keyboard-response,118,236712,0.0-50.0-2.0,,,,delaylearn,learning,feedback_duration_window,hi82H05q8pgWRa5VYOmuguW2o023,hi82H05q8pgWRa5VYOmuguW2o023,,,,,,,,,,,,,,,,,,7000.0,,,,5de6cfc6b5bed765473c624b,16:35:18,27/03/2024
html-keyboard-response,119,238229,0.0-50.0-3.0,,<div style='margin:auto;width: auto; font-size: 150%'><span style='font-weight: bold; font-size: 100px; color: red;'>0 points!</span><br><br></div>,,delaylearn,learning,feedback_image_window,hi82H05q8pgWRa5VYOmuguW2o023,hi82H05q8pgWRa5VYOmuguW2o023,,,,,,,,,,,,,,,,,,,,,,5de6cfc6b5bed765473c624b,16:35:18,27/03/2024
html-keyboard-response,120,238737,0.0-51.0-0.0,,,,,,mood_trial_fixation,hi82H05q8pgWRa5VYOmuguW2o023,,,,,,,,,,,,,,,,,,,,,,,5de6cfc6b5bed765473c624b,16:35:18,27/03/2024
lmdlab-html-vas-response,121,243094,0.0-51.0-1.0,3341.0,How happy are you right now?,0.2916666666666667,delaylearn,learning,mood_trial,hi82H05q8pgWRa5VYOmuguW2o023,hi82H05q8pgWRa5VYOmuguW2o023,,,,,,,,,,,,,,,,,,,,"['Very unhappy', 'Very happy']",,5de6cfc6b5bed765473c624b,16:35:18,27/03/2024
html-keyboard-response,122,245191,0.0-52.0,,"<div style=""font-size:100px;"">+</div>",,delaylearn,learning,ITI,hi82H05q8pgWRa5VYOmuguW2o023,hi82H05q8pgWRa5VYOmuguW2o023,,,,,,,,,,,,,,,,,,,2088.0,,,5de6cfc6b5bed765473c624b,16:35:18,27/03/2024
html-keyboard-response,123,246667,0.0-53.0-0.0,1473.0,"<div style=""display: flex; flex-direction: column; align-items: center; margin-top: -40px;""><img src=""images/pattern_7.png"" style=""width: 234px; height: 230px; margin-top: -50px;""><div style=""display: flex; justify-content: space-between; margin-top: 33px;""><img src=""images/choice_trial_4.png"" style=""width: 408px; height: 417px; margin-right: 200px;""><img src=""images/choice_trial_13.png"" style=""width: 408px; height: 417px;""></div></div>",f,delaylearn,learning,trial,hi82H05q8pgWRa5VYOmuguW2o023,hi82H05q8pgWRa5VYOmuguW2o023,4.0,images/choice_trial_4.png,images/choice_trial_13.png,images/pattern_7.png,j,j,750.0,4.0,13.0,6.0,1.0,23.0,0.0,0.0,4.0,100.0,,,,,,5de6cfc6b5bed765473c624b,16:35:18,27/03/2024
html-keyboard-response,124,247685,0.0-53.0-1.0,,"<div style=""display: flex; flex-direction: column; align-items: center; margin-top: -40px;""><img src=""images/pattern_7.png"" style=""width: 234px; height: 230px; margin-top: -50px;""><div style=""display: flex; justify-content: space-between; margin-top: 33px;""><img src=""images/choice_trial_4.png"" style=""width: 408px; height: 417px; margin-right: 608px;""></div></div>",,delaylearn,learning,display_response,hi82H05q8pgWRa5VYOmuguW2o023,hi82H05q8pgWRa5VYOmuguW2o023,,,,,,,,,,,,,,,,,chosen stimuli: images/choice_trial_4.png,,,,,5de6cfc6b5bed765473c624b,16:35:18,27/03/2024
html-keyboard-response,125,248446,0.0-53.0-2.0,,,,delaylearn,learning,feedback_duration_window,hi82H05q8pgWRa5VYOmuguW2o023,hi82H05q8pgWRa5VYOmuguW2o023,,,,,,,,,,,,,,,,,,750.0,,,,5de6cfc6b5bed765473c624b,16:35:18,27/03/2024
html-keyboard-response,126,249955,0.0-53.0-3.0,,<div style='margin:auto;width: auto; font-size: 150%'><span style='font-weight: bold; font-size: 100px; color: red;'>0 points!</span><br><br></div>,,delaylearn,learning,feedback_image_window,hi82H05q8pgWRa5VYOmuguW2o023,hi82H05q8pgWRa5VYOmuguW2o023,,,,,,,,,,,,,,,,,,,,,,5de6cfc6b5bed765473c624b,16:35:18,27/03/2024
html-keyboard-response,127,251689,0.0-54.0,,"<div style=""font-size:100px;"">+</div>",,delaylearn,learning,ITI,hi82H05q8pgWRa5VYOmuguW2o023,hi82H05q8pgWRa5VYOmuguW2o023,,,,,,,,,,,,,,,,,,,1728.0,,,5de6cfc6b5bed765473c624b,16:35:18,27/03/2024
html-keyboard-response,128,253057,0.0-55.0-0.0,1364.3999996185303,"<div style=""display: flex; flex-direction: column; align-items: center; margin-top: -40px;""><img src=""images/pattern_1.png"" style=""width: 234px; height: 230px; margin-top: -50px;""><div style=""display: flex; justify-content: space-between; margin-top: 33px;""><img src=""images/choice_trial_9.png"" style=""width: 408px; height: 417px; margin-right: 200px;""><img src=""images/choice_trial_1.png"" style=""width: 408px; height: 417px;""></div></div>",j,delaylearn,learning,trial,hi82H05q8pgWRa5VYOmuguW2o023,hi82H05q8pgWRa5VYOmuguW2o023,4.0,images/choice_trial_9.png,images/choice_trial_1.png,images/pattern_1.png,f,j,7000.0,9.0,1.0,1.0,1.0,24.0,1.0,0.0,1.0,100.0,,,,,,5de6cfc6b5bed765473c624b,16:35:18,27/03/2024
html-keyboard-response,129,254070,0.0-55.0-1.0,,"<div style=""display: flex; flex-direction: column; align-items: center; margin-top: -40px;""><img src=""images/pattern_1.png"" style=""width: 234px; height: 230px; margin-top: -50px;""><div style=""display: flex; justify-content: space-between; margin-top: 33px;""><img src=""images/choice_trial_1.png"" style=""width: 408px; height: 417px; margin-left:608px;""></div></div>",,delaylearn,learning,display_response,hi82H05q8pgWRa5VYOmuguW2o023,hi82H05q8pgWRa5VYOmuguW2o023,,,,,,,,,,,,,,,,,chosen stimuli: images/choice_trial_1.png,,,,,5de6cfc6b5bed765473c624b,16:35:18,27/03/2024
html-keyboard-response,130,261076,0.0-55.0-2.0,,,,delaylearn,learning,feedback_duration_window,hi82H05q8pgWRa5VYOmuguW2o023,hi82H05q8pgWRa5VYOmuguW2o023,,,,,,,,,,,,,,,,,,7000.0,,,,5de6cfc6b5bed765473c624b,16:35:18,27/03/2024
html-keyboard-response,131,262592,0.0-55.0-3.0,,<div style='margin:auto;width: auto; font-size: 150%'><span style='font-weight: bold; font-size: 100px; color: red;'>0 points!</span><br><br></div>,,delaylearn,learning,feedback_image_window,hi82H05q8pgWRa5VYOmuguW2o023,hi82H05q8pgWRa5VYOmuguW2o023,,,,,,,,,,,,,,,,,,,,,,5de6cfc6b5bed765473c624b,16:35:18,27/03/2024
html-keyboard-response,132,264718,0.0-56.0,,"<div style=""font-size:100px;"">+</div>",,delaylearn,learning,ITI,hi82H05q8pgWRa5VYOmuguW2o023,hi82H05q8pgWRa5VYOmuguW2o023,,,,,,,,,,,,,,,,,,,2115.0,,,5de6cfc6b5bed765473c624b,16:35:18,27/03/2024
html-keyboard-response,133,266118,0.0-57.0-0.0,1396.9000005722046,"<div style=""display: flex; flex-direction: column; align-items: center; margin-top: -40px;""><img src=""images/pattern_5.png"" style=""width: 234px; height: 230px; margin-top: -50px;""><div style=""display: flex; justify-content: space-between; margin-top: 33px;""><img src=""images/choice_trial_15.png"" style=""width: 408px; height: 417px; margin-right: 200px;""><img src=""images/choice_trial_5.png"" style=""width: 408px; height: 417px;""></div></div>",f,delaylearn,learning,trial,hi82H05q8pgWRa5VYOmuguW2o023,hi82H05q8pgWRa5VYOmuguW2o023,4.0,images/choice_trial_15.png,images/choice_trial_5.png,images/pattern_5.png,j,j,750.0,15.0,5.0,4.0,1.0,25.0,0.0,0.0,15.0,100.0,,,,,,5de6cfc6b5bed765473c624b,16:35:18,27/03/2024
html-keyboard-response,134,267134,0.0-57.0-1.0,,"<div style=""display: flex; flex-direction: column; align-items: center; margin-top: -40px;""><img src=""images/pattern_5.png"" style=""width: 234px; height: 230px; margin-top: -50px;""><div style=""display: flex; justify-content: space-between; margin-top: 33px;""><img src=""images/choice_trial_15.png"" style=""width: 408px; height: 417px; margin-right: 608px;""></div></div>",,delaylearn,learning,display_response,hi82H05q8pgWRa5VYOmuguW2o023,hi82H05q8pgWRa5VYOmuguW2o023,,,,,,,,,,,,,,,,,chosen stimuli: images/choice_trial_15.png,,,,,5de6cfc6b5bed765473c624b,16:35:18,27/03/2024
html-keyboard-response,135,267895,0.0-57.0-2.0,,,,delaylearn,learning,feedback_duration_window,hi82H05q8pgWRa5VYOmuguW2o023,hi82H05q8pgWRa5VYOmuguW2o023,,,,,,,,,,,,,,,,,,750.0,,,,5de6cfc6b5bed765473c624b,16:35:18,27/03/2024
html-keyboard-response,136,269406,0.0-57.0-3.0,,<div style='margin:auto;width: auto; font-size: 150%'><span style='font-weight: bold; font-size: 100px; color: red;'>0 points!</span><br><br></div>,,delaylearn,learning,feedback_image_window,hi82H05q8pgWRa5VYOmuguW2o023,hi82H05q8pgWRa5VYOmuguW2o023,,,,,,,,,,,,,,,,,,,,,,5de6cfc6b5bed765473c624b,16:35:18,27/03/2024
html-keyboard-response,137,271661,0.0-58.0,,"<div style=""font-size:100px;"">+</div>",,delaylearn,learning,ITI,hi82H05q8pgWRa5VYOmuguW2o023,hi82H05q8pgWRa5VYOmuguW2o023,,,,,,,,,,,,,,,,,,,2252.0,,,5de6cfc6b5bed765473c624b,16:35:18,27/03/2024
html-keyboard-response,138,272655,0.0-59.0-0.0,989.7999992370605,"<div style=""display: flex; flex-direction: column; align-items: center; margin-top: -40px;""><img src=""images/pattern_3.png"" style=""width: 234px; height: 230px; margin-top: -50px;""><div style=""display: flex; justify-content: space-between; margin-top: 33px;""><img src=""images/choice_trial_6.png"" style=""width: 408px; height: 417px; margin-right: 200px;""><img src=""images/choice_trial_16.png"" style=""width: 408px; height: 417px;""></div></div>",j,delaylearn,learning,trial,hi82H05q8pgWRa5VYOmuguW2o023,hi82H05q8pgWRa5VYOmuguW2o023,4.0,images/choice_trial_6.png,images/choice_trial_16.png,images/pattern_3.png,j,j,7000.0,6.0,16.0,2.0,1.0,26.0,1.0,1.0,16.0,110.0,,,,,,5de6cfc6b5bed765473c624b,16:35:18,27/03/2024
html-keyboard-response,139,273670,0.0-59.0-1.0,,"<div style=""display: flex; flex-direction: column; align-items: center; margin-top: -40px;""><img src=""images/pattern_3.png"" style=""width: 234px; height: 230px; margin-top: -50px;""><div style=""display: flex; justify-content: space-between; margin-top: 33px;""><img src=""images/choice_trial_16.png"" style=""width: 408px; height: 417px; margin-left:608px;""></div></div>",,delaylearn,learning,display_response,hi82H05q8pgWRa5VYOmuguW2o023,hi82H05q8pgWRa5VYOmuguW2o023,,,,,,,,,,,,,,,,,chosen stimuli: images/choice_trial_16.png,,,,,5de6cfc6b5bed765473c624b,16:35:18,27/03/2024
html-keyboard-response,140,280682,0.0-59.0-2.0,,,,delaylearn,learning,feedback_duration_window,hi82H05q8pgWRa5VYOmuguW2o023,hi82H05q8pgWRa5VYOmuguW2o023,,,,,,,,,,,,,,,,,,7000.0,,,,5de6cfc6b5bed765473c624b,16:35:18,27/03/2024
html-keyboard-response,141,282186,0.0-59.0-3.0,,<div style='margin:auto;width: auto; font-size: 150%'><span style='font-weight: bold; font-size: 100px; color: green;'>+10 points!</span><br><br></div>,,delaylearn,learning,feedback_image_window,hi82H05q8pgWRa5VYOmuguW2o023,hi82H05q8pgWRa5VYOmuguW2o023,,,,,,,,,,,,,,,,,,,,,,5de6cfc6b5bed765473c624b,16:35:18,27/03/2024
lmdlab-html-vas-response,142,287598,0.0-60.0-0.0,3892.0,*How <b><u>confident</u></b> are you feeling about your answers at this moment?*,0.33564814814814814,rewlearn,rate_confidence,,hi82H05q8pgWRa5VYOmuguW2o023,hi82H05q8pgWRa5VYOmuguW2o023,,,,,,,,,,,,,,,,,,,,"['No confidence', 'Complete confidence']",,5de6cfc6b5bed765473c624b,16:35:18,27/03/2024
lmdlab-rest-trial-limit,143,295912,0.0-60.0-1.0,6804.099999427795,"<div style=""font-size:40px;""><b>Please take a break!</b><br><br><br><br><p>Great work: you earned 110 points.<br><br><br><p>You have completed part(s) 1 of 5.<br><br><br><br>When you are ready to continue<br><br><br>please click the button.</p><br><br>",0,delaylearn,learning,break,hi82H05q8pgWRa5VYOmuguW2o023,hi82H05q8pgWRa5VYOmuguW2o023,,,,,,,,,,,,,,,,,,,,,0.0,5de6cfc6b5bed765473c624b,16:35:18,27/03/2024
html-keyboard-response,144,298916,0.0-60.0-2.0,,"<div style=""font-size:100px;"">+</div>",,delaylearn,learning,pre_fixation,hi82H05q8pgWRa5VYOmuguW2o023,,,,,,,,,,,,,,,,,,,,,,,5de6cfc6b5bed765473c624b,16:35:18,27/03/2024
lmdlab-html-vas-response,145,302598,0.0-60.0-3.0-0.0,2677.0,How happy are you right now?,0.33796296296296297,delaylearn,learning,mood_baseline,hi82H05q8pgWRa5VYOmuguW2o023,hi82H05q8pgWRa5VYOmuguW2o023,,,,,,,,,,,,,,,,,,,,"['Very unhappy', 'Very happy']",,5de6cfc6b5bed765473c624b,16:35:18,27/03/2024
html-keyboard-response,146,304105,0.0-60.0-3.0-1.0,,,,,,mood_baseline_fixation,hi82H05q8pgWRa5VYOmuguW2o023,,,,,,,,,,,,,,,,,,,,,,,5de6cfc6b5bed765473c624b,16:35:18,27/03/2024
html-keyboard-response,147,306291,0.0-61.0,,"<div style=""font-size:100px;"">+</div>",,delaylearn,learning,ITI,hi82H05q8pgWRa5VYOmuguW2o023,hi82H05q8pgWRa5VYOmuguW2o023,,,,,,,,,,,,,,,,,,,2175.0,,,5de6cfc6b5bed765473c624b,16:35:18,27/03/2024
html-keyboard-response,148,307608,0.0-62.0-0.0,1312.5,"<div style=""display: flex; flex-direction: column; align-items: center; margin-top: -40px;""><img src=""images/pattern_7.png"" style=""width: 234px; height: 230px; margin-top: -50px;""><div style=""display: flex; justify-content: space-between; margin-top: 33px;""><img src=""images/choice_trial_4.png"" style=""width: 408px; height: 417px; margin-right: 200px;""><img src=""images/choice_trial_13.png"" style=""width: 408px; height: 417px;""></div></div>",j,delaylearn,learning,trial,hi82H05q8pgWRa5VYOmuguW2o023,hi82H05q8pgWRa5VYOmuguW2o023,4.0,images/choice_trial_4.png,images/choice_trial_13.png,images/pattern_7.png,j,j,750.0,4.0,13.0,6.0,1.0,27.0,1.0,1.0,13.0,120.0,,,,,,5de6cfc6b5bed765473c624b,16:35:18,27/03/2024
html-keyboard-response,149,308621,0.0-62.0-1.0,,"<div style=""display: flex; flex-direction: column; align-items: center; margin-top: -40px;""><img src=""images/pattern_7.png"" style=""width: 234px; height: 230px; margin-top: -50px;""><div style=""display: flex; justify-content: space-between; margin-top: 33px;""><img src=""images/choice_trial_13.png"" style=""width: 408px; height: 417px; margin-left:608px;""></div></div>",,delaylearn,learning,display_response,hi82H05q8pgWRa5VYOmuguW2o023,hi82H05q8pgWRa5VYOmuguW2o023,,,,,,,,,,,,,,,,,chosen stimuli: images/choice_trial_13.png,,,,,5de6cfc6b5bed765473c624b,16:35:18,27/03/2024
html-keyboard-response,150,309375,0.0-62.0-2.0,,,,delaylearn,learning,feedback_duration_window,hi82H05q8pgWRa5VYOmuguW2o023,hi82H05q8pgWRa5VYOmuguW2o023,,,,,,,,,,,,,,,,,,750.0,,,,5de6cfc6b5bed765473c624b,16:35:18,27/03/2024
html-keyboard-response,151,310883,0.0-62.0-3.0,,<div style='margin:auto;width: auto; font-size: 150%'><span style='font-weight: bold; font-size: 100px; color: green;'>+10 points!</span><br><br></div>,,delaylearn,learning,feedback_image_window,hi82H05q8pgWRa5VYOmuguW2o023,hi82H05q8pgWRa5VYOmuguW2o023,,,,,,,,,,,,,,,,,,,,,,5de6cfc6b5bed765473c624b,16:35:18,27/03/2024
html-keyboard-response,152,311392,0.0-63.0-0.0,,,,,,mood_trial_fixation,hi82H05q8pgWRa5VYOmuguW2o023,,,,,,,,,,,,,,,,,,,,,,,5de6cfc6b5bed765473c624b,16:35:18,27/03/2024
lmdlab-html-vas-response,153,315400,0.0-63.0-1.0,3001.0,How happy are you right now?,0.3587962962962963,delaylearn,learning,mood_trial,hi82H05q8pgWRa5VYOmuguW2o023,hi82H05q8pgWRa5VYOmuguW2o023,,,,,,,,,,,,,,,,,,,,"['Very unhappy', 'Very happy']",,5de6cfc6b5bed765473c624b,16:35:18,27/03/2024
html-keyboard-response,154,317692,0.0-64.0,,"<div style=""font-size:100px;"">+</div>",,delaylearn,learning,ITI,hi82H05q8pgWRa5VYOmuguW2o023,hi82H05q8pgWRa5VYOmuguW2o023,,,,,,,,,,,,,,,,,,,2289.0,,,5de6cfc6b5bed765473c624b,16:35:18,27/03/2024
html-keyboard-response,155,319811,0.0-65.0-0.0,2116.1000003814697,"<div style=""display: flex; flex-direction: column; align-items: center; margin-top: -40px;""><img src=""images/pattern_1.png"" style=""width: 234px; height: 230px; margin-top: -50px;""><div style=""display: flex; justify-content: space-between; margin-top: 33px;""><img src=""images/choice_trial_1.png"" style=""width: 408px; height: 417px; margin-right: 200px;""><img src=""images/choice_trial_9.png"" style=""width: 408px; height: 417px;""></div></div>",j,delaylearn,learning,trial,hi82H05q8pgWRa5VYOmuguW2o023,hi82H05q8pgWRa5VYOmuguW2o023,4.0,images/choice_trial_1.png,images/choice_trial_9.png,images/pattern_1.png,f,f,7000.0,1.0,9.0,1.0,0.0,28.0,0.0,0.0,9.0,120.0,,,,,,5de6cfc6b5bed765473c624b,16:35:18,27/03/2024
html-keyboard-response,156,320823,0.0-65.0-1.0,,"<div style=""display: flex; flex-direction: column; align-items: center; margin-top: -40px;""><img src=""images/pattern_1.png"" style=""width: 234px; height: 230px; margin-top: -50px;""><div style=""display: flex; justify-content: space-between; margin-top: 33px;""><img src=""images/choice_trial_9.png"" style=""width: 408px; height: 417px; margin-left:608px;""></div></div>",,delaylearn,learning,display_response,hi82H05q8pgWRa5VYOmuguW2o023,hi82H05q8pgWRa5VYOmuguW2o023,,,,,,,,,,,,,,,,,chosen stimuli: images/choice_trial_9.png,,,,,5de6cfc6b5bed765473c624b,16:35:18,27/03/2024
html-keyboard-response,157,327828,0.0-65.0-2.0,,,,delaylearn,learning,feedback_duration_window,hi82H05q8pgWRa5VYOmuguW2o023,hi82H05q8pgWRa5VYOmuguW2o023,,,,,,,,,,,,,,,,,,7000.0,,,,5de6cfc6b5bed765473c624b,16:35:18,27/03/2024
html-keyboard-response,158,329334,0.0-65.0-3.0,,<div style='margin:auto;width: auto; font-size: 150%'><span style='font-weight: bold; font-size: 100px; color: red;'>0 points!</span><br><br></div>,,delaylearn,learning,feedback_image_window,hi82H05q8pgWRa5VYOmuguW2o023,hi82H05q8pgWRa5VYOmuguW2o023,,,,,,,,,,,,,,,,,,,,,,5de6cfc6b5bed765473c624b,16:35:18,27/03/2024
html-keyboard-response,159,331597,0.0-66.0,,"<div style=""font-size:100px;"">+</div>",,delaylearn,learning,ITI,hi82H05q8pgWRa5VYOmuguW2o023,hi82H05q8pgWRa5VYOmuguW2o023,,,,,,,,,,,,,,,,,,,2249.0,,,5de6cfc6b5bed765473c624b,16:35:18,27/03/2024
html-keyboard-response,160,332985,0.0-67.0-0.0,1384.6999998092651,"<div style=""display: flex; flex-direction: column; align-items: center; margin-top: -40px;""><img src=""images/pattern_5.png"" style=""width: 234px; height: 230px; margin-top: -50px;""><div style=""display: flex; justify-content: space-between; margin-top: 33px;""><img src=""images/choice_trial_5.png"" style=""width: 408px; height: 417px; margin-right: 200px;""><img src=""images/choice_trial_15.png"" style=""width: 408px; height: 417px;""></div></div>",f,delaylearn,learning,trial,hi82H05q8pgWRa5VYOmuguW2o023,hi82H05q8pgWRa5VYOmuguW2o023,4.0,images/choice_trial_5.png,images/choice_trial_15.png,images/pattern_5.png,f,f,750.0,5.0,15.0,4.0,0.0,29.0,1.0,1.0,5.0,130.0,,,,,,5de6cfc6b5bed765473c624b,16:35:18,27/03/2024
html-keyboard-response,161,334003,0.0-67.0-1.0,,"<div style=""display: flex; flex-direction: column; align-items: center; margin-top: -40px;""><img src=""images/pattern_5.png"" style=""width: 234px; height: 230px; margin-top: -50px;""><div style=""display: flex; justify-content: space-between; margin-top: 33px;""><img src=""images/choice_trial_5.png"" style=""width: 408px; height: 417px; margin-right: 608px;""></div></div>",,delaylearn,learning,display_response,hi82H05q8pgWRa5VYOmuguW2o023,hi82H05q8pgWRa5VYOmuguW2o023,,,,,,,,,,,,,,,,,chosen stimuli: images/choice_trial_5.png,,,,,5de6cfc6b5bed765473c624b,16:35:18,27/03/2024
html-keyboard-response,162,334760,0.0-67.0-2.0,,,,delaylearn,learning,feedback_duration_window,hi82H05q8pgWRa5VYOmuguW2o023,hi82H05q8pgWRa5VYOmuguW2o023,,,,,,,,,,,,,,,,,,750.0,,,,5de6cfc6b5bed765473c624b,16:35:18,27/03/2024
html-keyboard-response,163,336276,0.0-67.0-3.0,,<div style='margin:auto;width: auto; font-size: 150%'><span style='font-weight: bold; font-size: 100px; color: green;'>+10 points!</span><br><br></div>,,delaylearn,learning,feedback_image_window,hi82H05q8pgWRa5VYOmuguW2o023,hi82H05q8pgWRa5VYOmuguW2o023,,,,,,,,,,,,,,,,,,,,,,5de6cfc6b5bed765473c624b,16:35:18,27/03/2024
html-keyboard-response,164,338328,0.0-68.0,,"<div style=""font-size:100px;"">+</div>",,delaylearn,learning,ITI,hi82H05q8pgWRa5VYOmuguW2o023,hi82H05q8pgWRa5VYOmuguW2o023,,,,,,,,,,,,,,,,,,,2047.0,,,5de6cfc6b5bed765473c624b,16:35:18,27/03/2024
html-keyboard-response,165,339499,0.0-69.0-0.0,1167.3000001907349,"<div style=""display: flex; flex-direction: column; align-items: center; margin-top: -40px;""><img src=""images/pattern_6.png"" style=""width: 234px; height: 230px; margin-top: -50px;""><div style=""display: flex; justify-content: space-between; margin-top: 33px;""><img src=""images/choice_trial_3.png"" style=""width: 408px; height: 417px; margin-right: 200px;""><img src=""images/choice_trial_10.png"" style=""width: 408px; height: 417px;""></div></div>",f,delaylearn,learning,trial,hi82H05q8pgWRa5VYOmuguW2o023,hi82H05q8pgWRa5VYOmuguW2o023,4.0,images/choice_trial_3.png,images/choice_trial_10.png,images/pattern_6.png,j,j,750.0,3.0,10.0,5.0,1.0,30.0,0.0,0.0,3.0,130.0,,,,,,5de6cfc6b5bed765473c624b,16:35:18,27/03/2024
html-keyboard-response,166,340502,0.0-69.0-1.0,,"<div style=""display: flex; flex-direction: column; align-items: center; margin-top: -40px;""><img src=""images/pattern_6.png"" style=""width: 234px; height: 230px; margin-top: -50px;""><div style=""display: flex; justify-content: space-between; margin-top: 33px;""><img src=""images/choice_trial_3.png"" style=""width: 408px; height: 417px; margin-right: 608px;""></div></div>",,delaylearn,learning,display_response,hi82H05q8pgWRa5VYOmuguW2o023,hi82H05q8pgWRa5VYOmuguW2o023,,,,,,,,,,,,,,,,,chosen stimuli: images/choice_trial_3.png,,,,,5de6cfc6b5bed765473c624b,16:35:18,27/03/2024
html-keyboard-response,167,341262,0.0-69.0-2.0,,,,delaylearn,learning,feedback_duration_window,hi82H05q8pgWRa5VYOmuguW2o023,hi82H05q8pgWRa5VYOmuguW2o023,,,,,,,,,,,,,,,,,,750.0,,,,5de6cfc6b5bed765473c624b,16:35:18,27/03/2024
html-keyboard-response,168,342772,0.0-69.0-3.0,,<div style='margin:auto;width: auto; font-size: 150%'><span style='font-weight: bold; font-size: 100px; color: red;'>0 points!</span><br><br></div>,,delaylearn,learning,feedback_image_window,hi82H05q8pgWRa5VYOmuguW2o023,hi82H05q8pgWRa5VYOmuguW2o023,,,,,,,,,,,,,,,,,,,,,,5de6cfc6b5bed765473c624b,16:35:18,27/03/2024
html-keyboard-response,169,343288,0.0-70.0-0.0,,,,,,mood_trial_fixation,hi82H05q8pgWRa5VYOmuguW2o023,,,,,,,,,,,,,,,,,,,,,,,5de6cfc6b5bed765473c624b,16:35:18,27/03/2024
lmdlab-html-vas-response,170,346731,0.0-70.0-1.0,2435.0,How happy are you right now?,0.27314814814814814,delaylearn,learning,mood_trial,hi82H05q8pgWRa5VYOmuguW2o023,hi82H05q8pgWRa5VYOmuguW2o023,,,,,,,,,,,,,,,,,,,,"['Very unhappy', 'Very happy']",,5de6cfc6b5bed765473c624b,16:35:18,27/03/2024
html-keyboard-response,171,348526,0.0-71.0,,"<div style=""font-size:100px;"">+</div>",,delaylearn,learning,ITI,hi82H05q8pgWRa5VYOmuguW2o023,hi82H05q8pgWRa5VYOmuguW2o023,,,,,,,,,,,,,,,,,,,1781.0,,,5de6cfc6b5bed765473c624b,16:35:18,27/03/2024
html-keyboard-response,172,350067,0.0-72.0-0.0,1538.0,"<div style=""display: flex; flex-direction: column; align-items: center; margin-top: -40px;""><img src=""images/pattern_4.png"" style=""width: 234px; height: 230px; margin-top: -50px;""><div style=""display: flex; justify-content: space-between; margin-top: 33px;""><img src=""images/choice_trial_7.png"" style=""width: 408px; height: 417px; margin-right: 200px;""><img src=""images/choice_trial_8.png"" style=""width: 408px; height: 417px;""></div></div>",f,delaylearn,learning,trial,hi82H05q8pgWRa5VYOmuguW2o023,hi82H05q8pgWRa5VYOmuguW2o023,4.0,images/choice_trial_7.png,images/choice_trial_8.png,images/pattern_4.png,j,j,7000.0,7.0,8.0,3.0,1.0,31.0,0.0,0.0,7.0,130.0,,,,,,5de6cfc6b5bed765473c624b,16:35:18,27/03/2024
html-keyboard-response,173,351084,0.0-72.0-1.0,,"<div style=""display: flex; flex-direction: column; align-items: center; margin-top: -40px;""><img src=""images/pattern_4.png"" style=""width: 234px; height: 230px; margin-top: -50px;""><div style=""display: flex; justify-content: space-between; margin-top: 33px;""><img src=""images/choice_trial_7.png"" style=""width: 408px; height: 417px; margin-right: 608px;""></div></div>",,delaylearn,learning,display_response,hi82H05q8pgWRa5VYOmuguW2o023,hi82H05q8pgWRa5VYOmuguW2o023,,,,,,,,,,,,,,,,,chosen stimuli: images/choice_trial_7.png,,,,,5de6cfc6b5bed765473c624b,16:35:18,27/03/2024
html-keyboard-response,174,358099,0.0-72.0-2.0,,,,delaylearn,learning,feedback_duration_window,hi82H05q8pgWRa5VYOmuguW2o023,hi82H05q8pgWRa5VYOmuguW2o023,,,,,,,,,,,,,,,,,,7000.0,,,,5de6cfc6b5bed765473c624b,16:35:18,27/03/2024
html-keyboard-response,175,359615,0.0-72.0-3.0,,<div style='margin:auto;width: auto; font-size: 150%'><span style='font-weight: bold; font-size: 100px; color: red;'>0 points!</span><br><br></div>,,delaylearn,learning,feedback_image_window,hi82H05q8pgWRa5VYOmuguW2o023,hi82H05q8pgWRa5VYOmuguW2o023,,,,,,,,,,,,,,,,,,,,,,5de6cfc6b5bed765473c624b,16:35:18,27/03/2024
html-keyboard-response,176,361220,0.0-73.0,,"<div style=""font-size:100px;"">+</div>",,delaylearn,learning,ITI,hi82H05q8pgWRa5VYOmuguW2o023,hi82H05q8pgWRa5VYOmuguW2o023,,,,,,,,,,,,,,,,,,,1590.0,,,5de6cfc6b5bed765473c624b,16:35:18,27/03/2024
html-keyboard-response,177,362311,0.0-74.0-0.0,1087.0,"<div style=""display: flex; flex-direction: column; align-items: center; margin-top: -40px;""><img src=""images/pattern_3.png"" style=""width: 234px; height: 230px; margin-top: -50px;""><div style=""display: flex; justify-content: space-between; margin-top: 33px;""><img src=""images/choice_trial_6.png"" style=""width: 408px; height: 417px; margin-right: 200px;""><img src=""images/choice_trial_16.png"" style=""width: 408px; height: 417px;""></div></div>",j,delaylearn,learning,trial,hi82H05q8pgWRa5VYOmuguW2o023,hi82H05q8pgWRa5VYOmuguW2o023,4.0,images/choice_trial_6.png,images/choice_trial_16.png,images/pattern_3.png,j,j,7000.0,6.0,16.0,2.0,1.0,32.0,1.0,1.0,16.0,140.0,,,,,,5de6cfc6b5bed765473c624b,16:35:18,27/03/2024
html-keyboard-response,178,363323,0.0-74.0-1.0,,"<div style=""display: flex; flex-direction: column; align-items: center; margin-top: -40px;""><img src=""images/pattern_3.png"" style=""width: 234px; height: 230px; margin-top: -50px;""><div style=""display: flex; justify-content: space-between; margin-top: 33px;""><img src=""images/choice_trial_16.png"" style=""width: 408px; height: 417px; margin-left:608px;""></div></div>",,delaylearn,learning,display_response,hi82H05q8pgWRa5VYOmuguW2o023,hi82H05q8pgWRa5VYOmuguW2o023,,,,,,,,,,,,,,,,,chosen stimuli: images/choice_trial_16.png,,,,,5de6cfc6b5bed765473c624b,16:35:18,27/03/2024
html-keyboard-response,179,370325,0.0-74.0-2.0,,,,delaylearn,learning,feedback_duration_window,hi82H05q8pgWRa5VYOmuguW2o023,hi82H05q8pgWRa5VYOmuguW2o023,,,,,,,,,,,,,,,,,,7000.0,,,,5de6cfc6b5bed765473c624b,16:35:18,27/03/2024
html-keyboard-response,180,371839,0.0-74.0-3.0,,<div style='margin:auto;width: auto; font-size: 150%'><span style='font-weight: bold; font-size: 100px; color: green;'>+10 points!</span><br><br></div>,,delaylearn,learning,feedback_image_window,hi82H05q8pgWRa5VYOmuguW2o023,hi82H05q8pgWRa5VYOmuguW2o023,,,,,,,,,,,,,,,,,,,,,,5de6cfc6b5bed765473c624b,16:35:18,27/03/2024
html-keyboard-response,181,374117,0.0-75.0,,"<div style=""font-size:100px;"">+</div>",,delaylearn,learning,ITI,hi82H05q8pgWRa5VYOmuguW2o023,hi82H05q8pgWRa5VYOmuguW2o023,,,,,,,,,,,,,,,,,,,2260.0,,,5de6cfc6b5bed765473c624b,16:35:18,27/03/2024
html-keyboard-response,182,375807,0.0-76.0-0.0,1687.1999998092651,"<div style=""display: flex; flex-direction: column; align-items: center; margin-top: -40px;""><img src=""images/pattern_5.png"" style=""width: 234px; height: 230px; margin-top: -50px;""><div style=""display: flex; justify-content: space-between; margin-top: 33px;""><img src=""images/choice_trial_5.png"" style=""width: 408px; height: 417px; margin-right: 200px;""><img src=""images/choice_trial_15.png"" style=""width: 408px; height: 417px;""></div></div>",j,delaylearn,learning,trial,hi82H05q8pgWRa5VYOmuguW2o023,hi82H05q8pgWRa5VYOmuguW2o023,4.0,images/choice_trial_5.png,images/choice_trial_15.png,images/pattern_5.png,j,f,750.0,5.0,15.0,4.0,0.0,33.0,0.0,1.0,15.0,150.0,,,,,,5de6cfc6b5bed765473c624b,16:35:18,27/03/2024
html-keyboard-response,183,376812,0.0-76.0-1.0,,"<div style=""display: flex; flex-direction: column; align-items: center; margin-top: -40px;""><img src=""images/pattern_5.png"" style=""width: 234px; height: 230px; margin-top: -50px;""><div style=""display: flex; justify-content: space-between; margin-top: 33px;""><img src=""images/choice_trial_15.png"" style=""width: 408px; height: 417px; margin-left:608px;""></div></div>",,delaylearn,learning,display_response,hi82H05q8pgWRa5VYOmuguW2o023,hi82H05q8pgWRa5VYOmuguW2o023,,,,,,,,,,,,,,,,,chosen stimuli: images/choice_trial_15.png,,,,,5de6cfc6b5bed765473c624b,16:35:18,27/03/2024
html-keyboard-response,184,377571,0.0-76.0-2.0,,,,delaylearn,learning,feedback_duration_window,hi82H05q8pgWRa5VYOmuguW2o023,hi82H05q8pgWRa5VYOmuguW2o023,,,,,,,,,,,,,,,,,,750.0,,,,5de6cfc6b5bed765473c624b,16:35:18,27/03/2024
html-keyboard-response,185,379084,0.0-76.0-3.0,,<div style='margin:auto;width: auto; font-size: 150%'><span style='font-weight: bold; font-size: 100px; color: green;'>+10 points!</span><br><br></div>,,delaylearn,learning,feedback_image_window,hi82H05q8pgWRa5VYOmuguW2o023,hi82H05q8pgWRa5VYOmuguW2o023,,,,,,,,,,,,,,,,,,,,,,5de6cfc6b5bed765473c624b,16:35:18,27/03/2024
html-keyboard-response,186,380620,0.0-77.0,,"<div style=""font-size:100px;"">+</div>",,delaylearn,learning,ITI,hi82H05q8pgWRa5VYOmuguW2o023,hi82H05q8pgWRa5VYOmuguW2o023,,,,,,,,,,,,,,,,,,,1525.0,,,5de6cfc6b5bed765473c624b,16:35:18,27/03/2024
html-keyboard-response,187,382157,0.0-78.0-0.0,1532.3000001907349,"<div style=""display: flex; flex-direction: column; align-items: center; margin-top: -40px;""><img src=""images/pattern_1.png"" style=""width: 234px; height: 230px; margin-top: -50px;""><div style=""display: flex; justify-content: space-between; margin-top: 33px;""><img src=""images/choice_trial_1.png"" style=""width: 408px; height: 417px; margin-right: 200px;""><img src=""images/choice_trial_9.png"" style=""width: 408px; height: 417px;""></div></div>",f,delaylearn,learning,trial,hi82H05q8pgWRa5VYOmuguW2o023,hi82H05q8pgWRa5VYOmuguW2o023,4.0,images/choice_trial_1.png,images/choice_trial_9.png,images/pattern_1.png,f,f,7000.0,1.0,9.0,1.0,0.0,34.0,1.0,1.0,1.0,160.0,,,,,,5de6cfc6b5bed765473c624b,16:35:18,27/03/2024
html-keyboard-response,188,383174,0.0-78.0-1.0,,"<div style=""display: flex; flex-direction: column; align-items: center; margin-top: -40px;""><img src=""images/pattern_1.png"" style=""width: 234px; height: 230px; margin-top: -50px;""><div style=""display: flex; justify-content: space-between; margin-top: 33px;""><img src=""images/choice_trial_1.png"" style=""width: 408px; height: 417px; margin-right: 608px;""></div></div>",,delaylearn,learning,display_response,hi82H05q8pgWRa5VYOmuguW2o023,hi82H05q8pgWRa5VYOmuguW2o023,,,,,,,,,,,,,,,,,chosen stimuli: images/choice_trial_1.png,,,,,5de6cfc6b5bed765473c624b,16:35:18,27/03/2024
html-keyboard-response,189,390186,0.0-78.0-2.0,,,,delaylearn,learning,feedback_duration_window,hi82H05q8pgWRa5VYOmuguW2o023,hi82H05q8pgWRa5VYOmuguW2o023,,,,,,,,,,,,,,,,,,7000.0,,,,5de6cfc6b5bed765473c624b,16:35:18,27/03/2024
html-keyboard-response,190,391699,0.0-78.0-3.0,,<div style='margin:auto;width: auto; font-size: 150%'><span style='font-weight: bold; font-size: 100px; color: green;'>+10 points!</span><br><br></div>,,delaylearn,learning,feedback_image_window,hi82H05q8pgWRa5VYOmuguW2o023,hi82H05q8pgWRa5VYOmuguW2o023,,,,,,,,,,,,,,,,,,,,,,5de6cfc6b5bed765473c624b,16:35:18,27/03/2024
html-keyboard-response,191,392209,0.0-79.0-0.0,,,,,,mood_trial_fixation,hi82H05q8pgWRa5VYOmuguW2o023,,,,,,,,,,,,,,,,,,,,,,,5de6cfc6b5bed765473c624b,16:35:18,27/03/2024
lmdlab-html-vas-response,192,395920,0.0-79.0-1.0,2691.0,How happy are you right now?,0.4583333333333333,delaylearn,learning,mood_trial,hi82H05q8pgWRa5VYOmuguW2o023,hi82H05q8pgWRa5VYOmuguW2o023,,,,,,,,,,,,,,,,,,,,"['Very unhappy', 'Very happy']",,5de6cfc6b5bed765473c624b,16:35:18,27/03/2024
html-keyboard-response,193,398087,0.0-80.0,,"<div style=""font-size:100px;"">+</div>",,delaylearn,learning,ITI,hi82H05q8pgWRa5VYOmuguW2o023,hi82H05q8pgWRa5VYOmuguW2o023,,,,,,,,,,,,,,,,,,,2152.0,,,5de6cfc6b5bed765473c624b,16:35:18,27/03/2024
html-keyboard-response,194,399758,0.0-81.0-0.0,1667.5999994277954,"<div style=""display: flex; flex-direction: column; align-items: center; margin-top: -40px;""><img src=""images/pattern_6.png"" style=""width: 234px; height: 230px; margin-top: -50px;""><div style=""display: flex; justify-content: space-between; margin-top: 33px;""><img src=""images/choice_trial_10.png"" style=""width: 408px; height: 417px; margin-right: 200px;""><img src=""images/choice_trial_3.png"" style=""width: 408px; height: 417px;""></div></div>",j,delaylearn,learning,trial,hi82H05q8pgWRa5VYOmuguW2o023,hi82H05q8pgWRa5VYOmuguW2o023,4.0,images/choice_trial_10.png,images/choice_trial_3.png,images/pattern_6.png,j,f,750.0,10.0,3.0,5.0,0.0,35.0,0.0,1.0,3.0,170.0,,,,,,5de6cfc6b5bed765473c624b,16:35:18,27/03/2024
html-keyboard-response,195,400761,0.0-81.0-1.0,,"<div style=""display: flex; flex-direction: column; align-items: center; margin-top: -40px;""><img src=""images/pattern_6.png"" style=""width: 234px; height: 230px; margin-top: -50px;""><div style=""display: flex; justify-content: space-between; margin-top: 33px;""><img src=""images/choice_trial_3.png"" style=""width: 408px; height: 417px; margin-left:608px;""></div></div>",,delaylearn,learning,display_response,hi82H05q8pgWRa5VYOmuguW2o023,hi82H05q8pgWRa5VYOmuguW2o023,,,,,,,,,,,,,,,,,chosen stimuli: images/choice_trial_3.png,,,,,5de6cfc6b5bed765473c624b,16:35:18,27/03/2024
html-keyboard-response,196,401524,0.0-81.0-2.0,,,,delaylearn,learning,feedback_duration_window,hi82H05q8pgWRa5VYOmuguW2o023,hi82H05q8pgWRa5VYOmuguW2o023,,,,,,,,,,,,,,,,,,750.0,,,,5de6cfc6b5bed765473c624b,16:35:18,27/03/2024
html-keyboard-response,197,403037,0.0-81.0-3.0,,<div style='margin:auto;width: auto; font-size: 150%'><span style='font-weight: bold; font-size: 100px; color: green;'>+10 points!</span><br><br></div>,,delaylearn,learning,feedback_image_window,hi82H05q8pgWRa5VYOmuguW2o023,hi82H05q8pgWRa5VYOmuguW2o023,,,,,,,,,,,,,,,,,,,,,,5de6cfc6b5bed765473c624b,16:35:18,27/03/2024
html-keyboard-response,198,404653,0.0-82.0,,"<div style=""font-size:100px;"">+</div>",,delaylearn,learning,ITI,hi82H05q8pgWRa5VYOmuguW2o023,hi82H05q8pgWRa5VYOmuguW2o023,,,,,,,,,,,,,,,,,,,1610.0,,,5de6cfc6b5bed765473c624b,16:35:18,27/03/2024
html-keyboard-response,199,405529,0.0-83.0-0.0,871.3000001907349,"<div style=""display: flex; flex-direction: column; align-items: center; margin-top: -40px;""><img src=""images/pattern_3.png"" style=""width: 234px; height: 230px; margin-top: -50px;""><div style=""display: flex; justify-content: space-between; margin-top: 33px;""><img src=""images/choice_trial_6.png"" style=""width: 408px; height: 417px; margin-right: 200px;""><img src=""images/choice_trial_16.png"" style=""width: 408px; height: 417px;""></div></div>",j,delaylearn,learning,trial,hi82H05q8pgWRa5VYOmuguW2o023,hi82H05q8pgWRa5VYOmuguW2o023,4.0,images/choice_trial_6.png,images/choice_trial_16.png,images/pattern_3.png,j,j,7000.0,6.0,16.0,2.0,1.0,36.0,1.0,1.0,16.0,180.0,,,,,,5de6cfc6b5bed765473c624b,16:35:18,27/03/2024
html-keyboard-response,200,406540,0.0-83.0-1.0,,"<div style=""display: flex; flex-direction: column; align-items: center; margin-top: -40px;""><img src=""images/pattern_3.png"" style=""width: 234px; height: 230px; margin-top: -50px;""><div style=""display: flex; justify-content: space-between; margin-top: 33px;""><img src=""images/choice_trial_16.png"" style=""width: 408px; height: 417px; margin-left:608px;""></div></div>",,delaylearn,learning,display_response,hi82H05q8pgWRa5VYOmuguW2o023,hi82H05q8pgWRa5VYOmuguW2o023,,,,,,,,,,,,,,,,,chosen stimuli: images/choice_trial_16.png,,,,,5de6cfc6b5bed765473c624b,16:35:18,27/03/2024
html-keyboard-response,201,413542,0.0-83.0-2.0,,,,delaylearn,learning,feedback_duration_window,hi82H05q8pgWRa5VYOmuguW2o023,hi82H05q8pgWRa5VYOmuguW2o023,,,,,,,,,,,,,,,,,,7000.0,,,,5de6cfc6b5bed765473c624b,16:35:18,27/03/2024
html-keyboard-response,202,415050,0.0-83.0-3.0,,<div style='margin:auto;width: auto; font-size: 150%'><span style='font-weight: bold; font-size: 100px; color: green;'>+10 points!</span><br><br></div>,,delaylearn,learning,feedback_image_window,hi82H05q8pgWRa5VYOmuguW2o023,hi82H05q8pgWRa5VYOmuguW2o023,,,,,,,,,,,,,,,,,,,,,,5de6cfc6b5bed765473c624b,16:35:18,27/03/2024
html-keyboard-response,203,417317,0.0-84.0,,"<div style=""font-size:100px;"">+</div>",,delaylearn,learning,ITI,hi82H05q8pgWRa5VYOmuguW2o023,hi82H05q8pgWRa5VYOmuguW2o023,,,,,,,,,,,,,,,,,,,2259.0,,,5de6cfc6b5bed765473c624b,16:35:18,27/03/2024
html-keyboard-response,204,419296,0.0-85.0-0.0,1975.6000003814697,"<div style=""display: flex; flex-direction: column; align-items: center; margin-top: -40px;""><img src=""images/pattern_4.png"" style=""width: 234px; height: 230px; margin-top: -50px;""><div style=""display: flex; justify-content: space-between; margin-top: 33px;""><img src=""images/choice_trial_7.png"" style=""width: 408px; height: 417px; margin-right: 200px;""><img src=""images/choice_trial_8.png"" style=""width: 408px; height: 417px;""></div></div>",f,delaylearn,learning,trial,hi82H05q8pgWRa5VYOmuguW2o023,hi82H05q8pgWRa5VYOmuguW2o023,4.0,images/choice_trial_7.png,images/choice_trial_8.png,images/pattern_4.png,f,j,7000.0,7.0,8.0,3.0,1.0,37.0,0.0,1.0,7.0,190.0,,,,,,5de6cfc6b5bed765473c624b,16:35:18,27/03/2024
html-keyboard-response,205,420309,0.0-85.0-1.0,,"<div style=""display: flex; flex-direction: column; align-items: center; margin-top: -40px;""><img src=""images/pattern_4.png"" style=""width: 234px; height: 230px; margin-top: -50px;""><div style=""display: flex; justify-content: space-between; margin-top: 33px;""><img src=""images/choice_trial_7.png"" style=""width: 408px; height: 417px; margin-right: 608px;""></div></div>",,delaylearn,learning,display_response,hi82H05q8pgWRa5VYOmuguW2o023,hi82H05q8pgWRa5VYOmuguW2o023,,,,,,,,,,,,,,,,,chosen stimuli: images/choice_trial_7.png,,,,,5de6cfc6b5bed765473c624b,16:35:18,27/03/2024
html-keyboard-response,206,427313,0.0-85.0-2.0,,,,delaylearn,learning,feedback_duration_window,hi82H05q8pgWRa5VYOmuguW2o023,hi82H05q8pgWRa5VYOmuguW2o023,,,,,,,,,,,,,,,,,,7000.0,,,,5de6cfc6b5bed765473c624b,16:35:18,27/03/2024
html-keyboard-response,207,428825,0.0-85.0-3.0,,<div style='margin:auto;width: auto; font-size: 150%'><span style='font-weight: bold; font-size: 100px; color: green;'>+10 points!</span><br><br></div>,,delaylearn,learning,feedback_image_window,hi82H05q8pgWRa5VYOmuguW2o023,hi82H05q8pgWRa5VYOmuguW2o023,,,,,,,,,,,,,,,,,,,,,,5de6cfc6b5bed765473c624b,16:35:18,27/03/2024
html-keyboard-response,208,430781,0.0-86.0,,"<div style=""font-size:100px;"">+</div>",,delaylearn,learning,ITI,hi82H05q8pgWRa5VYOmuguW2o023,hi82H05q8pgWRa5VYOmuguW2o023,,,,,,,,,,,,,,,,,,,1941.0,,,5de6cfc6b5bed765473c624b,16:35:18,27/03/2024
html-keyboard-response,209,431841,0.0-87.0-0.0,1056.5,"<div style=""display: flex; flex-direction: column; align-items: center; margin-top: -40px;""><img src=""images/pattern_7.png"" style=""width: 234px; height: 230px; margin-top: -50px;""><div style=""display: flex; justify-content: space-between; margin-top: 33px;""><img src=""images/choice_trial_13.png"" style=""width: 408px; height: 417px; margin-right: 200px;""><img src=""images/choice_trial_4.png"" style=""width: 408px; height: 417px;""></div></div>",f,delaylearn,learning,trial,hi82H05q8pgWRa5VYOmuguW2o023,hi82H05q8pgWRa5VYOmuguW2o023,4.0,images/choice_trial_13.png,images/choice_trial_4.png,images/pattern_7.png,f,f,750.0,13.0,4.0,6.0,0.0,38.0,1.0,1.0,13.0,200.0,,,,,,5de6cfc6b5bed765473c624b,16:35:18,27/03/2024
html-keyboard-response,210,432854,0.0-87.0-1.0,,"<div style=""display: flex; flex-direction: column; align-items: center; margin-top: -40px;""><img src=""images/pattern_7.png"" style=""width: 234px; height: 230px; margin-top: -50px;""><div style=""display: flex; justify-content: space-between; margin-top: 33px;""><img src=""images/choice_trial_13.png"" style=""width: 408px; height: 417px; margin-right: 608px;""></div></div>",,delaylearn,learning,display_response,hi82H05q8pgWRa5VYOmuguW2o023,hi82H05q8pgWRa5VYOmuguW2o023,,,,,,,,,,,,,,,,,chosen stimuli: images/choice_trial_13.png,,,,,5de6cfc6b5bed765473c624b,16:35:18,27/03/2024
html-keyboard-response,211,433611,0.0-87.0-2.0,,,,delaylearn,learning,feedback_duration_window,hi82H05q8pgWRa5VYOmuguW2o023,hi82H05q8pgWRa5VYOmuguW2o023,,,,,,,,,,,,,,,,,,750.0,,,,5de6cfc6b5bed765473c624b,16:35:18,27/03/2024
html-keyboard-response,212,435125,0.0-87.0-3.0,,<div style='margin:auto;width: auto; font-size: 150%'><span style='font-weight: bold; font-size: 100px; color: green;'>+10 points!</span><br><br></div>,,delaylearn,learning,feedback_image_window,hi82H05q8pgWRa5VYOmuguW2o023,hi82H05q8pgWRa5VYOmuguW2o023,,,,,,,,,,,,,,,,,,,,,,5de6cfc6b5bed765473c624b,16:35:18,27/03/2024
html-keyboard-response,213,437490,0.0-88.0,,"<div style=""font-size:100px;"">+</div>",,delaylearn,learning,ITI,hi82H05q8pgWRa5VYOmuguW2o023,hi82H05q8pgWRa5VYOmuguW2o023,,,,,,,,,,,,,,,,,,,2351.0,,,5de6cfc6b5bed765473c624b,16:35:18,27/03/2024
html-keyboard-response,214,438900,0.0-89.0-0.0,1406.6000003814697,"<div style=""display: flex; flex-direction: column; align-items: center; margin-top: -40px;""><img src=""images/pattern_1.png"" style=""width: 234px; height: 230px; margin-top: -50px;""><div style=""display: flex; justify-content: space-between; margin-top: 33px;""><img src=""images/choice_trial_1.png"" style=""width: 408px; height: 417px; margin-right: 200px;""><img src=""images/choice_trial_9.png"" style=""width: 408px; height: 417px;""></div></div>",j,delaylearn,learning,trial,hi82H05q8pgWRa5VYOmuguW2o023,hi82H05q8pgWRa5VYOmuguW2o023,4.0,images/choice_trial_1.png,images/choice_trial_9.png,images/pattern_1.png,f,f,7000.0,1.0,9.0,1.0,0.0,39.0,0.0,0.0,9.0,200.0,,,,,,5de6cfc6b5bed765473c624b,16:35:18,27/03/2024
html-keyboard-response,215,439904,0.0-89.0-1.0,,"<div style=""display: flex; flex-direction: column; align-items: center; margin-top: -40px;""><img src=""images/pattern_1.png"" style=""width: 234px; height: 230px; margin-top: -50px;""><div style=""display: flex; justify-content: space-between; margin-top: 33px;""><img src=""images/choice_trial_9.png"" style=""width: 408px; height: 417px; margin-left:608px;""></div></div>",,delaylearn,learning,display_response,hi82H05q8pgWRa5VYOmuguW2o023,hi82H05q8pgWRa5VYOmuguW2o023,,,,,,,,,,,,,,,,,chosen stimuli: images/choice_trial_9.png,,,,,5de6cfc6b5bed765473c624b,16:35:18,27/03/2024
html-keyboard-response,216,446919,0.0-89.0-2.0,,,,delaylearn,learning,feedback_duration_window,hi82H05q8pgWRa5VYOmuguW2o023,hi82H05q8pgWRa5VYOmuguW2o023,,,,,,,,,,,,,,,,,,7000.0,,,,5de6cfc6b5bed765473c624b,16:35:18,27/03/2024
html-keyboard-response,217,448429,0.0-89.0-3.0,,<div style='margin:auto;width: auto; font-size: 150%'><span style='font-weight: bold; font-size: 100px; color: red;'>0 points!</span><br><br></div>,,delaylearn,learning,feedback_image_window,hi82H05q8pgWRa5VYOmuguW2o023,hi82H05q8pgWRa5VYOmuguW2o023,,,,,,,,,,,,,,,,,,,,,,5de6cfc6b5bed765473c624b,16:35:18,27/03/2024
html-keyboard-response,218,448948,0.0-90.0-0.0,,,,,,mood_trial_fixation,hi82H05q8pgWRa5VYOmuguW2o023,,,,,,,,,,,,,,,,,,,,,,,5de6cfc6b5bed765473c624b,16:35:18,27/03/2024
lmdlab-html-vas-response,219,452901,0.0-90.0-1.0,2938.0,How happy are you right now?,0.2916666666666667,delaylearn,learning,mood_trial,hi82H05q8pgWRa5VYOmuguW2o023,hi82H05q8pgWRa5VYOmuguW2o023,,,,,,,,,,,,,,,,,,,,"['Very unhappy', 'Very happy']",,5de6cfc6b5bed765473c624b,16:35:18,27/03/2024
html-keyboard-response,220,454741,0.0-91.0,,"<div style=""font-size:100px;"">+</div>",,delaylearn,learning,ITI,hi82H05q8pgWRa5VYOmuguW2o023,hi82H05q8pgWRa5VYOmuguW2o023,,,,,,,,,,,,,,,,,,,1833.0,,,5de6cfc6b5bed765473c624b,16:35:18,27/03/2024
html-keyboard-response,221,455603,0.0-92.0-0.0,857.6000003814697,"<div style=""display: flex; flex-direction: column; align-items: center; margin-top: -40px;""><img src=""images/pattern_3.png"" style=""width: 234px; height: 230px; margin-top: -50px;""><div style=""display: flex; justify-content: space-between; margin-top: 33px;""><img src=""images/choice_trial_16.png"" style=""width: 408px; height: 417px; margin-right: 200px;""><img src=""images/choice_trial_6.png"" style=""width: 408px; height: 417px;""></div></div>",f,delaylearn,learning,trial,hi82H05q8pgWRa5VYOmuguW2o023,hi82H05q8pgWRa5VYOmuguW2o023,4.0,images/choice_trial_16.png,images/choice_trial_6.png,images/pattern_3.png,j,f,7000.0,16.0,6.0,2.0,0.0,40.0,1.0,0.0,16.0,200.0,,,,,,5de6cfc6b5bed765473c624b,16:35:18,27/03/2024
html-keyboard-response,222,456610,0.0-92.0-1.0,,"<div style=""display: flex; flex-direction: column; align-items: center; margin-top: -40px;""><img src=""images/pattern_3.png"" style=""width: 234px; height: 230px; margin-top: -50px;""><div style=""display: flex; justify-content: space-between; margin-top: 33px;""><img src=""images/choice_trial_16.png"" style=""width: 408px; height: 417px; margin-right: 608px;""></div></div>",,delaylearn,learning,display_response,hi82H05q8pgWRa5VYOmuguW2o023,hi82H05q8pgWRa5VYOmuguW2o023,,,,,,,,,,,,,,,,,chosen stimuli: images/choice_trial_16.png,,,,,5de6cfc6b5bed765473c624b,16:35:18,27/03/2024
html-keyboard-response,223,463624,0.0-92.0-2.0,,,,delaylearn,learning,feedback_duration_window,hi82H05q8pgWRa5VYOmuguW2o023,hi82H05q8pgWRa5VYOmuguW2o023,,,,,,,,,,,,,,,,,,7000.0,,,,5de6cfc6b5bed765473c624b,16:35:18,27/03/2024
html-keyboard-response,224,465129,0.0-92.0-3.0,,<div style='margin:auto;width: auto; font-size: 150%'><span style='font-weight: bold; font-size: 100px; color: red;'>0 points!</span><br><br></div>,,delaylearn,learning,feedback_image_window,hi82H05q8pgWRa5VYOmuguW2o023,hi82H05q8pgWRa5VYOmuguW2o023,,,,,,,,,,,,,,,,,,,,,,5de6cfc6b5bed765473c624b,16:35:18,27/03/2024
html-keyboard-response,225,466755,0.0-93.0,,"<div style=""font-size:100px;"">+</div>",,delaylearn,learning,ITI,hi82H05q8pgWRa5VYOmuguW2o023,hi82H05q8pgWRa5VYOmuguW2o023,,,,,,,,,,,,,,,,,,,1612.0,,,5de6cfc6b5bed765473c624b,16:35:18,27/03/2024
html-keyboard-response,226,468098,0.0-94.0-0.0,1336.8999996185303,"<div style=""display: flex; flex-direction: column; align-items: center; margin-top: -40px;""><img src=""images/pattern_7.png"" style=""width: 234px; height: 230px; margin-top: -50px;""><div style=""display: flex; justify-content: space-between; margin-top: 33px;""><img src=""images/choice_trial_4.png"" style=""width: 408px; height: 417px; margin-right: 200px;""><img src=""images/choice_trial_13.png"" style=""width: 408px; height: 417px;""></div></div>",j,delaylearn,learning,trial,hi82H05q8pgWRa5VYOmuguW2o023,hi82H05q8pgWRa5VYOmuguW2o023,4.0,images/choice_trial_4.png,images/choice_trial_13.png,images/pattern_7.png,j,j,750.0,4.0,13.0,6.0,1.0,41.0,1.0,1.0,13.0,210.0,,,,,,5de6cfc6b5bed765473c624b,16:35:18,27/03/2024
html-keyboard-response,227,469105,0.0-94.0-1.0,,"<div style=""display: flex; flex-direction: column; align-items: center; margin-top: -40px;""><img src=""images/pattern_7.png"" style=""width: 234px; height: 230px; margin-top: -50px;""><div style=""display: flex; justify-content: space-between; margin-top: 33px;""><img src=""images/choice_trial_13.png"" style=""width: 408px; height: 417px; margin-left:608px;""></div></div>",,delaylearn,learning,display_response,hi82H05q8pgWRa5VYOmuguW2o023,hi82H05q8pgWRa5VYOmuguW2o023,,,,,,,,,,,,,,,,,chosen stimuli: images/choice_trial_13.png,,,,,5de6cfc6b5bed765473c624b,16:35:18,27/03/2024
html-keyboard-response,228,469858,0.0-94.0-2.0,,,,delaylearn,learning,feedback_duration_window,hi82H05q8pgWRa5VYOmuguW2o023,hi82H05q8pgWRa5VYOmuguW2o023,,,,,,,,,,,,,,,,,,750.0,,,,5de6cfc6b5bed765473c624b,16:35:18,27/03/2024
html-keyboard-response,229,471374,0.0-94.0-3.0,,<div style='margin:auto;width: auto; font-size: 150%'><span style='font-weight: bold; font-size: 100px; color: green;'>+10 points!</span><br><br></div>,,delaylearn,learning,feedback_image_window,hi82H05q8pgWRa5VYOmuguW2o023,hi82H05q8pgWRa5VYOmuguW2o023,,,,,,,,,,,,,,,,,,,,,,5de6cfc6b5bed765473c624b,16:35:18,27/03/2024
html-keyboard-response,230,473529,0.0-95.0,,"<div style=""font-size:100px;"">+</div>",,delaylearn,learning,ITI,hi82H05q8pgWRa5VYOmuguW2o023,hi82H05q8pgWRa5VYOmuguW2o023,,,,,,,,,,,,,,,,,,,2150.0,,,5de6cfc6b5bed765473c624b,16:35:18,27/03/2024
