trial_type,trial_index,time_elapsed,internal_node_id,rt,stimulus,response,exp_name,exp_stage,test_part,subjectID,databaseID,counterbal,choice_stimuli_1,choice_stimuli_2,pattern_stimuli,rewarded_answer,correct_answer,feedback_duration_times,stim_left,stim_right,pair,leftright_counter,trial,response_correct,response_rewarded,chosen_stim,counter,displayed_choice,feedback_durations,ITI_duration,labels,rest_warning,prolificID,start_time,date
pavlovia,0,1480,0.0-0.0,,,,,,,LpneGG4dU5PP4iMhfGSCTnGa74v1,,,,,,,,,,,,,,,,,,,,,,,63d19839498b3afe724b69d6,09:41:42,27/02/2024
html-keyboard-response,1,4499,0.0-1.0,,"<div style=""font-size:100px;"">+</div>",,delaylearn,learning,pre_fixation,LpneGG4dU5PP4iMhfGSCTnGa74v1,,,,,,,,,,,,,,,,,,,,,,,63d19839498b3afe724b69d6,09:41:42,27/02/2024
html-keyboard-response,2,5919,0.0-2.0-0.0,1415.2999997138977,"<div style=""display: flex; flex-direction: column; align-items: center; margin-top: -40px;""><img src=""images/demo_images/pattern_1.png"" style=""width: 234px; height: 230px; margin-top: -50px;""><div style=""display: flex; justify-content: space-between; margin-top: 33px;""><img src=""images/demo_images/choice_trial_2.png"" style=""width: 408px; height: 417px; margin-right: 200px;""><img src=""images/demo_images/choice_trial_1.png"" style=""width: 408px; height: 417px;""></div></div>",f,delaylearn,learning,trial,LpneGG4dU5PP4iMhfGSCTnGa74v1,LpneGG4dU5PP4iMhfGSCTnGa74v1,5.0,images/demo_images/choice_trial_2.png,images/demo_images/choice_trial_1.png,images/demo_images/pattern_1.png,j,j,3000.0,2.0,1.0,20.0,1.0,1.0,0.0,0.0,2.0,0.0,,,,,,63d19839498b3afe724b69d6,09:41:42,27/02/2024
html-keyboard-response,3,6942,0.0-2.0-1.0,,"<div style=""display: flex; flex-direction: column; align-items: center; margin-top: -40px;""><img src=""images/demo_images/pattern_1.png"" style=""width: 234px; height: 230px; margin-top: -50px;""><div style=""display: flex; justify-content: space-between; margin-top: 33px;""><img src=""images/demo_images/choice_trial_2.png"" style=""width: 408px; height: 417px; margin-right: 608px;""></div></div>",,delaylearn,learning,display_response,LpneGG4dU5PP4iMhfGSCTnGa74v1,LpneGG4dU5PP4iMhfGSCTnGa74v1,,,,,,,,,,,,,,,,,chosen stimuli: images/demo_images/choice_trial_2.png,,,,,63d19839498b3afe724b69d6,09:41:42,27/02/2024
html-keyboard-response,4,9950,0.0-2.0-2.0,,,,delaylearn,learning,feedback_duration_window,LpneGG4dU5PP4iMhfGSCTnGa74v1,LpneGG4dU5PP4iMhfGSCTnGa74v1,,,,,,,,,,,,,,,,,,3000.0,,,,63d19839498b3afe724b69d6,09:41:42,27/02/2024
html-keyboard-response,5,11464,0.0-2.0-3.0,,<div style='margin:auto;width: auto; font-size: 150%'><span style='font-weight: bold; font-size: 100px; color: red;'>0 points!</span><br><br></div>,,delaylearn,learning,feedback_image_window,LpneGG4dU5PP4iMhfGSCTnGa74v1,LpneGG4dU5PP4iMhfGSCTnGa74v1,,,,,,,,,,,,,,,,,,,,,,63d19839498b3afe724b69d6,09:41:42,27/02/2024
html-keyboard-response,6,13619,0.0-3.0,,"<div style=""font-size:100px;"">+</div>",,delaylearn,learning,ITI,LpneGG4dU5PP4iMhfGSCTnGa74v1,LpneGG4dU5PP4iMhfGSCTnGa74v1,,,,,,,,,,,,,,,,,,,2145.0,,,63d19839498b3afe724b69d6,09:41:42,27/02/2024
html-keyboard-response,7,14712,0.0-4.0-0.0,1087.1999998092651,"<div style=""display: flex; flex-direction: column; align-items: center; margin-top: -40px;""><img src=""images/demo_images/pattern_1.png"" style=""width: 234px; height: 230px; margin-top: -50px;""><div style=""display: flex; justify-content: space-between; margin-top: 33px;""><img src=""images/demo_images/choice_trial_2.png"" style=""width: 408px; height: 417px; margin-right: 200px;""><img src=""images/demo_images/choice_trial_1.png"" style=""width: 408px; height: 417px;""></div></div>",j,delaylearn,learning,trial,LpneGG4dU5PP4iMhfGSCTnGa74v1,LpneGG4dU5PP4iMhfGSCTnGa74v1,5.0,images/demo_images/choice_trial_2.png,images/demo_images/choice_trial_1.png,images/demo_images/pattern_1.png,j,j,3000.0,2.0,1.0,20.0,1.0,2.0,1.0,1.0,1.0,10.0,,,,,,63d19839498b3afe724b69d6,09:41:42,27/02/2024
html-keyboard-response,8,15725,0.0-4.0-1.0,,"<div style=""display: flex; flex-direction: column; align-items: center; margin-top: -40px;""><img src=""images/demo_images/pattern_1.png"" style=""width: 234px; height: 230px; margin-top: -50px;""><div style=""display: flex; justify-content: space-between; margin-top: 33px;""><img src=""images/demo_images/choice_trial_1.png"" style=""width: 408px; height: 417px; margin-left:608px;""></div></div>",,delaylearn,learning,display_response,LpneGG4dU5PP4iMhfGSCTnGa74v1,LpneGG4dU5PP4iMhfGSCTnGa74v1,,,,,,,,,,,,,,,,,chosen stimuli: images/demo_images/choice_trial_1.png,,,,,63d19839498b3afe724b69d6,09:41:42,27/02/2024
html-keyboard-response,9,18732,0.0-4.0-2.0,,,,delaylearn,learning,feedback_duration_window,LpneGG4dU5PP4iMhfGSCTnGa74v1,LpneGG4dU5PP4iMhfGSCTnGa74v1,,,,,,,,,,,,,,,,,,3000.0,,,,63d19839498b3afe724b69d6,09:41:42,27/02/2024
html-keyboard-response,10,20245,0.0-4.0-3.0,,<div style='margin:auto;width: auto; font-size: 150%'><span style='font-weight: bold; font-size: 100px; color: green;'>+10 points!</span><br><br></div>,,delaylearn,learning,feedback_image_window,LpneGG4dU5PP4iMhfGSCTnGa74v1,LpneGG4dU5PP4iMhfGSCTnGa74v1,,,,,,,,,,,,,,,,,,,,,,63d19839498b3afe724b69d6,09:41:42,27/02/2024
html-keyboard-response,11,21838,0.0-5.0,,"<div style=""font-size:100px;"">+</div>",,delaylearn,learning,ITI,LpneGG4dU5PP4iMhfGSCTnGa74v1,LpneGG4dU5PP4iMhfGSCTnGa74v1,,,,,,,,,,,,,,,,,,,1583.0,,,63d19839498b3afe724b69d6,09:41:42,27/02/2024
html-keyboard-response,12,22350,0.0-6.0-0.0,507.80000019073486,"<div style=""display: flex; flex-direction: column; align-items: center; margin-top: -40px;""><img src=""images/demo_images/pattern_1.png"" style=""width: 234px; height: 230px; margin-top: -50px;""><div style=""display: flex; justify-content: space-between; margin-top: 33px;""><img src=""images/demo_images/choice_trial_1.png"" style=""width: 408px; height: 417px; margin-right: 200px;""><img src=""images/demo_images/choice_trial_2.png"" style=""width: 408px; height: 417px;""></div></div>",j,delaylearn,learning,trial,LpneGG4dU5PP4iMhfGSCTnGa74v1,LpneGG4dU5PP4iMhfGSCTnGa74v1,5.0,images/demo_images/choice_trial_1.png,images/demo_images/choice_trial_2.png,images/demo_images/pattern_1.png,j,f,3000.0,1.0,2.0,20.0,0.0,3.0,0.0,1.0,2.0,20.0,,,,,,63d19839498b3afe724b69d6,09:41:42,27/02/2024
html-keyboard-response,13,23359,0.0-6.0-1.0,,"<div style=""display: flex; flex-direction: column; align-items: center; margin-top: -40px;""><img src=""images/demo_images/pattern_1.png"" style=""width: 234px; height: 230px; margin-top: -50px;""><div style=""display: flex; justify-content: space-between; margin-top: 33px;""><img src=""images/demo_images/choice_trial_2.png"" style=""width: 408px; height: 417px; margin-left:608px;""></div></div>",,delaylearn,learning,display_response,LpneGG4dU5PP4iMhfGSCTnGa74v1,LpneGG4dU5PP4iMhfGSCTnGa74v1,,,,,,,,,,,,,,,,,chosen stimuli: images/demo_images/choice_trial_2.png,,,,,63d19839498b3afe724b69d6,09:41:42,27/02/2024
html-keyboard-response,14,26379,0.0-6.0-2.0,,,,delaylearn,learning,feedback_duration_window,LpneGG4dU5PP4iMhfGSCTnGa74v1,LpneGG4dU5PP4iMhfGSCTnGa74v1,,,,,,,,,,,,,,,,,,3000.0,,,,63d19839498b3afe724b69d6,09:41:42,27/02/2024
html-keyboard-response,15,27894,0.0-6.0-3.0,,<div style='margin:auto;width: auto; font-size: 150%'><span style='font-weight: bold; font-size: 100px; color: green;'>+10 points!</span><br><br></div>,,delaylearn,learning,feedback_image_window,LpneGG4dU5PP4iMhfGSCTnGa74v1,LpneGG4dU5PP4iMhfGSCTnGa74v1,,,,,,,,,,,,,,,,,,,,,,63d19839498b3afe724b69d6,09:41:42,27/02/2024
html-keyboard-response,16,29526,0.0-7.0,,"<div style=""font-size:100px;"">+</div>",,delaylearn,learning,ITI,LpneGG4dU5PP4iMhfGSCTnGa74v1,LpneGG4dU5PP4iMhfGSCTnGa74v1,,,,,,,,,,,,,,,,,,,1618.0,,,63d19839498b3afe724b69d6,09:41:42,27/02/2024
html-keyboard-response,17,30467,0.0-8.0-0.0,938.5,"<div style=""display: flex; flex-direction: column; align-items: center; margin-top: -40px;""><img src=""images/demo_images/pattern_1.png"" style=""width: 234px; height: 230px; margin-top: -50px;""><div style=""display: flex; justify-content: space-between; margin-top: 33px;""><img src=""images/demo_images/choice_trial_1.png"" style=""width: 408px; height: 417px; margin-right: 200px;""><img src=""images/demo_images/choice_trial_2.png"" style=""width: 408px; height: 417px;""></div></div>",f,delaylearn,learning,trial,LpneGG4dU5PP4iMhfGSCTnGa74v1,LpneGG4dU5PP4iMhfGSCTnGa74v1,5.0,images/demo_images/choice_trial_1.png,images/demo_images/choice_trial_2.png,images/demo_images/pattern_1.png,f,f,3000.0,1.0,2.0,20.0,0.0,4.0,1.0,1.0,1.0,30.0,,,,,,63d19839498b3afe724b69d6,09:41:42,27/02/2024
html-keyboard-response,18,31475,0.0-8.0-1.0,,"<div style=""display: flex; flex-direction: column; align-items: center; margin-top: -40px;""><img src=""images/demo_images/pattern_1.png"" style=""width: 234px; height: 230px; margin-top: -50px;""><div style=""display: flex; justify-content: space-between; margin-top: 33px;""><img src=""images/demo_images/choice_trial_1.png"" style=""width: 408px; height: 417px; margin-right: 608px;""></div></div>",,delaylearn,learning,display_response,LpneGG4dU5PP4iMhfGSCTnGa74v1,LpneGG4dU5PP4iMhfGSCTnGa74v1,,,,,,,,,,,,,,,,,chosen stimuli: images/demo_images/choice_trial_1.png,,,,,63d19839498b3afe724b69d6,09:41:42,27/02/2024
html-keyboard-response,19,34483,0.0-8.0-2.0,,,,delaylearn,learning,feedback_duration_window,LpneGG4dU5PP4iMhfGSCTnGa74v1,LpneGG4dU5PP4iMhfGSCTnGa74v1,,,,,,,,,,,,,,,,,,3000.0,,,,63d19839498b3afe724b69d6,09:41:42,27/02/2024
html-keyboard-response,20,35997,0.0-8.0-3.0,,<div style='margin:auto;width: auto; font-size: 150%'><span style='font-weight: bold; font-size: 100px; color: green;'>+10 points!</span><br><br></div>,,delaylearn,learning,feedback_image_window,LpneGG4dU5PP4iMhfGSCTnGa74v1,LpneGG4dU5PP4iMhfGSCTnGa74v1,,,,,,,,,,,,,,,,,,,,,,63d19839498b3afe724b69d6,09:41:42,27/02/2024
html-keyboard-response,21,36511,0.0-9.0-0.0,,,,,,mood_trial_fixation,LpneGG4dU5PP4iMhfGSCTnGa74v1,,,,,,,,,,,,,,,,,,,,,,,63d19839498b3afe724b69d6,09:41:42,27/02/2024
lmdlab-html-vas-response,22,41276,0.0-9.0-1.0,3740.0,How happy are you right now?,0.5352141203703704,delaylearn,learning,mood_trial,LpneGG4dU5PP4iMhfGSCTnGa74v1,LpneGG4dU5PP4iMhfGSCTnGa74v1,,,,,,,,,,,,,,,,,,,,"['Very unhappy', 'Very happy']",,63d19839498b3afe724b69d6,09:41:42,27/02/2024
html-keyboard-response,23,43581,0.0-10.0,,"<div style=""font-size:100px;"">+</div>",,delaylearn,learning,ITI,LpneGG4dU5PP4iMhfGSCTnGa74v1,LpneGG4dU5PP4iMhfGSCTnGa74v1,,,,,,,,,,,,,,,,,,,2290.0,,,63d19839498b3afe724b69d6,09:41:42,27/02/2024
html-keyboard-response,24,44484,0.0-11.0-0.0,898.4000000953674,"<div style=""display: flex; flex-direction: column; align-items: center; margin-top: -40px;""><img src=""images/demo_images/pattern_1.png"" style=""width: 234px; height: 230px; margin-top: -50px;""><div style=""display: flex; justify-content: space-between; margin-top: 33px;""><img src=""images/demo_images/choice_trial_2.png"" style=""width: 408px; height: 417px; margin-right: 200px;""><img src=""images/demo_images/choice_trial_1.png"" style=""width: 408px; height: 417px;""></div></div>",j,delaylearn,learning,trial,LpneGG4dU5PP4iMhfGSCTnGa74v1,LpneGG4dU5PP4iMhfGSCTnGa74v1,5.0,images/demo_images/choice_trial_2.png,images/demo_images/choice_trial_1.png,images/demo_images/pattern_1.png,j,j,3000.0,2.0,1.0,20.0,1.0,5.0,1.0,1.0,1.0,40.0,,,,,,63d19839498b3afe724b69d6,09:41:42,27/02/2024
html-keyboard-response,25,45504,0.0-11.0-1.0,,"<div style=""display: flex; flex-direction: column; align-items: center; margin-top: -40px;""><img src=""images/demo_images/pattern_1.png"" style=""width: 234px; height: 230px; margin-top: -50px;""><div style=""display: flex; justify-content: space-between; margin-top: 33px;""><img src=""images/demo_images/choice_trial_1.png"" style=""width: 408px; height: 417px; margin-left:608px;""></div></div>",,delaylearn,learning,display_response,LpneGG4dU5PP4iMhfGSCTnGa74v1,LpneGG4dU5PP4iMhfGSCTnGa74v1,,,,,,,,,,,,,,,,,chosen stimuli: images/demo_images/choice_trial_1.png,,,,,63d19839498b3afe724b69d6,09:41:42,27/02/2024
html-keyboard-response,26,48513,0.0-11.0-2.0,,,,delaylearn,learning,feedback_duration_window,LpneGG4dU5PP4iMhfGSCTnGa74v1,LpneGG4dU5PP4iMhfGSCTnGa74v1,,,,,,,,,,,,,,,,,,3000.0,,,,63d19839498b3afe724b69d6,09:41:42,27/02/2024
html-keyboard-response,27,50022,0.0-11.0-3.0,,<div style='margin:auto;width: auto; font-size: 150%'><span style='font-weight: bold; font-size: 100px; color: green;'>+10 points!</span><br><br></div>,,delaylearn,learning,feedback_image_window,LpneGG4dU5PP4iMhfGSCTnGa74v1,LpneGG4dU5PP4iMhfGSCTnGa74v1,,,,,,,,,,,,,,,,,,,,,,63d19839498b3afe724b69d6,09:41:42,27/02/2024
html-keyboard-response,28,51836,0.0-12.0,,"<div style=""font-size:100px;"">+</div>",,delaylearn,learning,ITI,LpneGG4dU5PP4iMhfGSCTnGa74v1,LpneGG4dU5PP4iMhfGSCTnGa74v1,,,,,,,,,,,,,,,,,,,1812.0,,,63d19839498b3afe724b69d6,09:41:42,27/02/2024
html-keyboard-response,29,52464,0.0-13.0-0.0,623.1999998092651,"<div style=""display: flex; flex-direction: column; align-items: center; margin-top: -40px;""><img src=""images/demo_images/pattern_1.png"" style=""width: 234px; height: 230px; margin-top: -50px;""><div style=""display: flex; justify-content: space-between; margin-top: 33px;""><img src=""images/demo_images/choice_trial_1.png"" style=""width: 408px; height: 417px; margin-right: 200px;""><img src=""images/demo_images/choice_trial_2.png"" style=""width: 408px; height: 417px;""></div></div>",f,delaylearn,learning,trial,LpneGG4dU5PP4iMhfGSCTnGa74v1,LpneGG4dU5PP4iMhfGSCTnGa74v1,5.0,images/demo_images/choice_trial_1.png,images/demo_images/choice_trial_2.png,images/demo_images/pattern_1.png,f,f,3000.0,1.0,2.0,20.0,0.0,6.0,1.0,1.0,1.0,50.0,,,,,,63d19839498b3afe724b69d6,09:41:42,27/02/2024
html-keyboard-response,30,53480,0.0-13.0-1.0,,"<div style=""display: flex; flex-direction: column; align-items: center; margin-top: -40px;""><img src=""images/demo_images/pattern_1.png"" style=""width: 234px; height: 230px; margin-top: -50px;""><div style=""display: flex; justify-content: space-between; margin-top: 33px;""><img src=""images/demo_images/choice_trial_1.png"" style=""width: 408px; height: 417px; margin-right: 608px;""></div></div>",,delaylearn,learning,display_response,LpneGG4dU5PP4iMhfGSCTnGa74v1,LpneGG4dU5PP4iMhfGSCTnGa74v1,,,,,,,,,,,,,,,,,chosen stimuli: images/demo_images/choice_trial_1.png,,,,,63d19839498b3afe724b69d6,09:41:42,27/02/2024
html-keyboard-response,31,56488,0.0-13.0-2.0,,,,delaylearn,learning,feedback_duration_window,LpneGG4dU5PP4iMhfGSCTnGa74v1,LpneGG4dU5PP4iMhfGSCTnGa74v1,,,,,,,,,,,,,,,,,,3000.0,,,,63d19839498b3afe724b69d6,09:41:42,27/02/2024
html-keyboard-response,32,58001,0.0-13.0-3.0,,<div style='margin:auto;width: auto; font-size: 150%'><span style='font-weight: bold; font-size: 100px; color: green;'>+10 points!</span><br><br></div>,,delaylearn,learning,feedback_image_window,LpneGG4dU5PP4iMhfGSCTnGa74v1,LpneGG4dU5PP4iMhfGSCTnGa74v1,,,,,,,,,,,,,,,,,,,,,,63d19839498b3afe724b69d6,09:41:42,27/02/2024
html-button-response,33,61893,0.0-14.0,3889.699999809265,"
  <div style=""display: flex; align-items: center; justify-content: center; height: 80vh;"">
  <div>
          <img src=""images/inst_demo_finish.png"" style=""width: 80vw; height:auto;"">
          <br><br>
      </div>
      <br><br>
  </div>",0,,,,LpneGG4dU5PP4iMhfGSCTnGa74v1,,,,,,,,,,,,,,,,,,,,,,,63d19839498b3afe724b69d6,09:41:42,27/02/2024
html-keyboard-response,34,69483,0.0-15.0,7587.299999713898,"
  <div style=""display: flex; align-items: center; justify-content: center; height: 80vh;"">
  <div>
          <img src=""images/inst_6.png"" style=""width: 80vw; height:auto;"">
          <br><br>
      </div>
      <br><br>
  </div>",f,,,,LpneGG4dU5PP4iMhfGSCTnGa74v1,,,,,,,,,,,,,,,,,,,,,,,63d19839498b3afe724b69d6,09:41:42,27/02/2024
html-keyboard-response,35,72500,0.0-16.0,,"<div style=""font-size:100px;"">+</div>",,delaylearn,learning,pre_fixation,LpneGG4dU5PP4iMhfGSCTnGa74v1,,,,,,,,,,,,,,,,,,,,,,,63d19839498b3afe724b69d6,09:41:42,27/02/2024
html-keyboard-response,36,74165,0.0-17.0,,"<div style=""font-size:100px;"">+</div>",,delaylearn,learning,ITI,LpneGG4dU5PP4iMhfGSCTnGa74v1,LpneGG4dU5PP4iMhfGSCTnGa74v1,,,,,,,,,,,,,,,,,,,1658.0,,,63d19839498b3afe724b69d6,09:41:42,27/02/2024
html-keyboard-response,37,75719,0.0-18.0-0.0,1551.1999998092651,"<div style=""display: flex; flex-direction: column; align-items: center; margin-top: -40px;""><img src=""images/pattern_3.png"" style=""width: 234px; height: 230px; margin-top: -50px;""><div style=""display: flex; justify-content: space-between; margin-top: 33px;""><img src=""images/choice_trial_16.png"" style=""width: 408px; height: 417px; margin-right: 200px;""><img src=""images/choice_trial_2.png"" style=""width: 408px; height: 417px;""></div></div>",j,delaylearn,learning,trial,LpneGG4dU5PP4iMhfGSCTnGa74v1,LpneGG4dU5PP4iMhfGSCTnGa74v1,5.0,images/choice_trial_16.png,images/choice_trial_2.png,images/pattern_3.png,f,f,7000.0,16.0,2.0,2.0,0.0,7.0,0.0,0.0,2.0,50.0,,,,,,63d19839498b3afe724b69d6,09:41:42,27/02/2024
html-keyboard-response,38,76735,0.0-18.0-1.0,,"<div style=""display: flex; flex-direction: column; align-items: center; margin-top: -40px;""><img src=""images/pattern_3.png"" style=""width: 234px; height: 230px; margin-top: -50px;""><div style=""display: flex; justify-content: space-between; margin-top: 33px;""><img src=""images/choice_trial_2.png"" style=""width: 408px; height: 417px; margin-left:608px;""></div></div>",,delaylearn,learning,display_response,LpneGG4dU5PP4iMhfGSCTnGa74v1,LpneGG4dU5PP4iMhfGSCTnGa74v1,,,,,,,,,,,,,,,,,chosen stimuli: images/choice_trial_2.png,,,,,63d19839498b3afe724b69d6,09:41:42,27/02/2024
html-keyboard-response,39,83748,0.0-18.0-2.0,,,,delaylearn,learning,feedback_duration_window,LpneGG4dU5PP4iMhfGSCTnGa74v1,LpneGG4dU5PP4iMhfGSCTnGa74v1,,,,,,,,,,,,,,,,,,7000.0,,,,63d19839498b3afe724b69d6,09:41:42,27/02/2024
html-keyboard-response,40,85259,0.0-18.0-3.0,,<div style='margin:auto;width: auto; font-size: 150%'><span style='font-weight: bold; font-size: 100px; color: red;'>0 points!</span><br><br></div>,,delaylearn,learning,feedback_image_window,LpneGG4dU5PP4iMhfGSCTnGa74v1,LpneGG4dU5PP4iMhfGSCTnGa74v1,,,,,,,,,,,,,,,,,,,,,,63d19839498b3afe724b69d6,09:41:42,27/02/2024
html-keyboard-response,41,87664,0.0-19.0,,"<div style=""font-size:100px;"">+</div>",,delaylearn,learning,ITI,LpneGG4dU5PP4iMhfGSCTnGa74v1,LpneGG4dU5PP4iMhfGSCTnGa74v1,,,,,,,,,,,,,,,,,,,2395.0,,,63d19839498b3afe724b69d6,09:41:42,27/02/2024
html-keyboard-response,42,89441,0.0-20.0-0.0,1771.8999996185303,"<div style=""display: flex; flex-direction: column; align-items: center; margin-top: -40px;""><img src=""images/pattern_7.png"" style=""width: 234px; height: 230px; margin-top: -50px;""><div style=""display: flex; justify-content: space-between; margin-top: 33px;""><img src=""images/choice_trial_10.png"" style=""width: 408px; height: 417px; margin-right: 200px;""><img src=""images/choice_trial_8.png"" style=""width: 408px; height: 417px;""></div></div>",f,delaylearn,learning,trial,LpneGG4dU5PP4iMhfGSCTnGa74v1,LpneGG4dU5PP4iMhfGSCTnGa74v1,5.0,images/choice_trial_10.png,images/choice_trial_8.png,images/pattern_7.png,j,j,750.0,10.0,8.0,6.0,1.0,8.0,0.0,0.0,10.0,50.0,,,,,,63d19839498b3afe724b69d6,09:41:42,27/02/2024
html-keyboard-response,43,90454,0.0-20.0-1.0,,"<div style=""display: flex; flex-direction: column; align-items: center; margin-top: -40px;""><img src=""images/pattern_7.png"" style=""width: 234px; height: 230px; margin-top: -50px;""><div style=""display: flex; justify-content: space-between; margin-top: 33px;""><img src=""images/choice_trial_10.png"" style=""width: 408px; height: 417px; margin-right: 608px;""></div></div>",,delaylearn,learning,display_response,LpneGG4dU5PP4iMhfGSCTnGa74v1,LpneGG4dU5PP4iMhfGSCTnGa74v1,,,,,,,,,,,,,,,,,chosen stimuli: images/choice_trial_10.png,,,,,63d19839498b3afe724b69d6,09:41:42,27/02/2024
html-keyboard-response,44,91218,0.0-20.0-2.0,,,,delaylearn,learning,feedback_duration_window,LpneGG4dU5PP4iMhfGSCTnGa74v1,LpneGG4dU5PP4iMhfGSCTnGa74v1,,,,,,,,,,,,,,,,,,750.0,,,,63d19839498b3afe724b69d6,09:41:42,27/02/2024
html-keyboard-response,45,92734,0.0-20.0-3.0,,<div style='margin:auto;width: auto; font-size: 150%'><span style='font-weight: bold; font-size: 100px; color: red;'>0 points!</span><br><br></div>,,delaylearn,learning,feedback_image_window,LpneGG4dU5PP4iMhfGSCTnGa74v1,LpneGG4dU5PP4iMhfGSCTnGa74v1,,,,,,,,,,,,,,,,,,,,,,63d19839498b3afe724b69d6,09:41:42,27/02/2024
html-keyboard-response,46,95102,0.0-21.0,,"<div style=""font-size:100px;"">+</div>",,delaylearn,learning,ITI,LpneGG4dU5PP4iMhfGSCTnGa74v1,LpneGG4dU5PP4iMhfGSCTnGa74v1,,,,,,,,,,,,,,,,,,,2354.0,,,63d19839498b3afe724b69d6,09:41:42,27/02/2024
html-keyboard-response,47,96576,0.0-22.0-0.0,1469.0999999046326,"<div style=""display: flex; flex-direction: column; align-items: center; margin-top: -40px;""><img src=""images/pattern_4.png"" style=""width: 234px; height: 230px; margin-top: -50px;""><div style=""display: flex; justify-content: space-between; margin-top: 33px;""><img src=""images/choice_trial_11.png"" style=""width: 408px; height: 417px; margin-right: 200px;""><img src=""images/choice_trial_4.png"" style=""width: 408px; height: 417px;""></div></div>",f,delaylearn,learning,trial,LpneGG4dU5PP4iMhfGSCTnGa74v1,LpneGG4dU5PP4iMhfGSCTnGa74v1,5.0,images/choice_trial_11.png,images/choice_trial_4.png,images/pattern_4.png,f,f,7000.0,11.0,4.0,3.0,0.0,9.0,1.0,1.0,11.0,60.0,,,,,,63d19839498b3afe724b69d6,09:41:42,27/02/2024
html-keyboard-response,48,97598,0.0-22.0-1.0,,"<div style=""display: flex; flex-direction: column; align-items: center; margin-top: -40px;""><img src=""images/pattern_4.png"" style=""width: 234px; height: 230px; margin-top: -50px;""><div style=""display: flex; justify-content: space-between; margin-top: 33px;""><img src=""images/choice_trial_11.png"" style=""width: 408px; height: 417px; margin-right: 608px;""></div></div>",,delaylearn,learning,display_response,LpneGG4dU5PP4iMhfGSCTnGa74v1,LpneGG4dU5PP4iMhfGSCTnGa74v1,,,,,,,,,,,,,,,,,chosen stimuli: images/choice_trial_11.png,,,,,63d19839498b3afe724b69d6,09:41:42,27/02/2024
html-keyboard-response,49,104605,0.0-22.0-2.0,,,,delaylearn,learning,feedback_duration_window,LpneGG4dU5PP4iMhfGSCTnGa74v1,LpneGG4dU5PP4iMhfGSCTnGa74v1,,,,,,,,,,,,,,,,,,7000.0,,,,63d19839498b3afe724b69d6,09:41:42,27/02/2024
html-keyboard-response,50,106121,0.0-22.0-3.0,,<div style='margin:auto;width: auto; font-size: 150%'><span style='font-weight: bold; font-size: 100px; color: green;'>+10 points!</span><br><br></div>,,delaylearn,learning,feedback_image_window,LpneGG4dU5PP4iMhfGSCTnGa74v1,LpneGG4dU5PP4iMhfGSCTnGa74v1,,,,,,,,,,,,,,,,,,,,,,63d19839498b3afe724b69d6,09:41:42,27/02/2024
html-keyboard-response,51,108432,0.0-23.0,,"<div style=""font-size:100px;"">+</div>",,delaylearn,learning,ITI,LpneGG4dU5PP4iMhfGSCTnGa74v1,LpneGG4dU5PP4iMhfGSCTnGa74v1,,,,,,,,,,,,,,,,,,,2307.0,,,63d19839498b3afe724b69d6,09:41:42,27/02/2024
html-keyboard-response,52,109530,0.0-24.0-0.0,1095.1999998092651,"<div style=""display: flex; flex-direction: column; align-items: center; margin-top: -40px;""><img src=""images/pattern_5.png"" style=""width: 234px; height: 230px; margin-top: -50px;""><div style=""display: flex; justify-content: space-between; margin-top: 33px;""><img src=""images/choice_trial_13.png"" style=""width: 408px; height: 417px; margin-right: 200px;""><img src=""images/choice_trial_7.png"" style=""width: 408px; height: 417px;""></div></div>",j,delaylearn,learning,trial,LpneGG4dU5PP4iMhfGSCTnGa74v1,LpneGG4dU5PP4iMhfGSCTnGa74v1,5.0,images/choice_trial_13.png,images/choice_trial_7.png,images/pattern_5.png,j,j,750.0,13.0,7.0,4.0,1.0,10.0,1.0,1.0,7.0,70.0,,,,,,63d19839498b3afe724b69d6,09:41:42,27/02/2024
html-keyboard-response,53,110550,0.0-24.0-1.0,,"<div style=""display: flex; flex-direction: column; align-items: center; margin-top: -40px;""><img src=""images/pattern_5.png"" style=""width: 234px; height: 230px; margin-top: -50px;""><div style=""display: flex; justify-content: space-between; margin-top: 33px;""><img src=""images/choice_trial_7.png"" style=""width: 408px; height: 417px; margin-left:608px;""></div></div>",,delaylearn,learning,display_response,LpneGG4dU5PP4iMhfGSCTnGa74v1,LpneGG4dU5PP4iMhfGSCTnGa74v1,,,,,,,,,,,,,,,,,chosen stimuli: images/choice_trial_7.png,,,,,63d19839498b3afe724b69d6,09:41:42,27/02/2024
html-keyboard-response,54,111316,0.0-24.0-2.0,,,,delaylearn,learning,feedback_duration_window,LpneGG4dU5PP4iMhfGSCTnGa74v1,LpneGG4dU5PP4iMhfGSCTnGa74v1,,,,,,,,,,,,,,,,,,750.0,,,,63d19839498b3afe724b69d6,09:41:42,27/02/2024
html-keyboard-response,55,112832,0.0-24.0-3.0,,<div style='margin:auto;width: auto; font-size: 150%'><span style='font-weight: bold; font-size: 100px; color: green;'>+10 points!</span><br><br></div>,,delaylearn,learning,feedback_image_window,LpneGG4dU5PP4iMhfGSCTnGa74v1,LpneGG4dU5PP4iMhfGSCTnGa74v1,,,,,,,,,,,,,,,,,,,,,,63d19839498b3afe724b69d6,09:41:42,27/02/2024
html-keyboard-response,56,114825,0.0-25.0,,"<div style=""font-size:100px;"">+</div>",,delaylearn,learning,ITI,LpneGG4dU5PP4iMhfGSCTnGa74v1,LpneGG4dU5PP4iMhfGSCTnGa74v1,,,,,,,,,,,,,,,,,,,1984.0,,,63d19839498b3afe724b69d6,09:41:42,27/02/2024
html-keyboard-response,57,115948,0.0-26.0-0.0,1116.0999999046326,"<div style=""display: flex; flex-direction: column; align-items: center; margin-top: -40px;""><img src=""images/pattern_6.png"" style=""width: 234px; height: 230px; margin-top: -50px;""><div style=""display: flex; justify-content: space-between; margin-top: 33px;""><img src=""images/choice_trial_14.png"" style=""width: 408px; height: 417px; margin-right: 200px;""><img src=""images/choice_trial_9.png"" style=""width: 408px; height: 417px;""></div></div>",j,delaylearn,learning,trial,LpneGG4dU5PP4iMhfGSCTnGa74v1,LpneGG4dU5PP4iMhfGSCTnGa74v1,5.0,images/choice_trial_14.png,images/choice_trial_9.png,images/pattern_6.png,j,f,750.0,14.0,9.0,5.0,0.0,11.0,0.0,1.0,9.0,80.0,,,,,,63d19839498b3afe724b69d6,09:41:42,27/02/2024
html-keyboard-response,58,116959,0.0-26.0-1.0,,"<div style=""display: flex; flex-direction: column; align-items: center; margin-top: -40px;""><img src=""images/pattern_6.png"" style=""width: 234px; height: 230px; margin-top: -50px;""><div style=""display: flex; justify-content: space-between; margin-top: 33px;""><img src=""images/choice_trial_9.png"" style=""width: 408px; height: 417px; margin-left:608px;""></div></div>",,delaylearn,learning,display_response,LpneGG4dU5PP4iMhfGSCTnGa74v1,LpneGG4dU5PP4iMhfGSCTnGa74v1,,,,,,,,,,,,,,,,,chosen stimuli: images/choice_trial_9.png,,,,,63d19839498b3afe724b69d6,09:41:42,27/02/2024
html-keyboard-response,59,117718,0.0-26.0-2.0,,,,delaylearn,learning,feedback_duration_window,LpneGG4dU5PP4iMhfGSCTnGa74v1,LpneGG4dU5PP4iMhfGSCTnGa74v1,,,,,,,,,,,,,,,,,,750.0,,,,63d19839498b3afe724b69d6,09:41:42,27/02/2024
html-keyboard-response,60,119226,0.0-26.0-3.0,,<div style='margin:auto;width: auto; font-size: 150%'><span style='font-weight: bold; font-size: 100px; color: green;'>+10 points!</span><br><br></div>,,delaylearn,learning,feedback_image_window,LpneGG4dU5PP4iMhfGSCTnGa74v1,LpneGG4dU5PP4iMhfGSCTnGa74v1,,,,,,,,,,,,,,,,,,,,,,63d19839498b3afe724b69d6,09:41:42,27/02/2024
html-keyboard-response,61,119733,0.0-27.0-0.0,,,,,,mood_trial_fixation,LpneGG4dU5PP4iMhfGSCTnGa74v1,,,,,,,,,,,,,,,,,,,,,,,63d19839498b3afe724b69d6,09:41:42,27/02/2024
lmdlab-html-vas-response,62,124871,0.0-27.0-1.0,4133.0,How happy are you right now?,0.6222511574074074,delaylearn,learning,mood_trial,LpneGG4dU5PP4iMhfGSCTnGa74v1,LpneGG4dU5PP4iMhfGSCTnGa74v1,,,,,,,,,,,,,,,,,,,,"['Very unhappy', 'Very happy']",,63d19839498b3afe724b69d6,09:41:42,27/02/2024
html-keyboard-response,63,127139,0.0-28.0,,"<div style=""font-size:100px;"">+</div>",,delaylearn,learning,ITI,LpneGG4dU5PP4iMhfGSCTnGa74v1,LpneGG4dU5PP4iMhfGSCTnGa74v1,,,,,,,,,,,,,,,,,,,2260.0,,,63d19839498b3afe724b69d6,09:41:42,27/02/2024
html-keyboard-response,64,128601,0.0-29.0-0.0,1458.3000001907349,"<div style=""display: flex; flex-direction: column; align-items: center; margin-top: -40px;""><img src=""images/pattern_1.png"" style=""width: 234px; height: 230px; margin-top: -50px;""><div style=""display: flex; justify-content: space-between; margin-top: 33px;""><img src=""images/choice_trial_15.png"" style=""width: 408px; height: 417px; margin-right: 200px;""><img src=""images/choice_trial_6.png"" style=""width: 408px; height: 417px;""></div></div>",j,delaylearn,learning,trial,LpneGG4dU5PP4iMhfGSCTnGa74v1,LpneGG4dU5PP4iMhfGSCTnGa74v1,5.0,images/choice_trial_15.png,images/choice_trial_6.png,images/pattern_1.png,j,j,7000.0,15.0,6.0,1.0,1.0,12.0,1.0,1.0,6.0,90.0,,,,,,63d19839498b3afe724b69d6,09:41:42,27/02/2024
html-keyboard-response,65,129616,0.0-29.0-1.0,,"<div style=""display: flex; flex-direction: column; align-items: center; margin-top: -40px;""><img src=""images/pattern_1.png"" style=""width: 234px; height: 230px; margin-top: -50px;""><div style=""display: flex; justify-content: space-between; margin-top: 33px;""><img src=""images/choice_trial_6.png"" style=""width: 408px; height: 417px; margin-left:608px;""></div></div>",,delaylearn,learning,display_response,LpneGG4dU5PP4iMhfGSCTnGa74v1,LpneGG4dU5PP4iMhfGSCTnGa74v1,,,,,,,,,,,,,,,,,chosen stimuli: images/choice_trial_6.png,,,,,63d19839498b3afe724b69d6,09:41:42,27/02/2024
html-keyboard-response,66,136629,0.0-29.0-2.0,,,,delaylearn,learning,feedback_duration_window,LpneGG4dU5PP4iMhfGSCTnGa74v1,LpneGG4dU5PP4iMhfGSCTnGa74v1,,,,,,,,,,,,,,,,,,7000.0,,,,63d19839498b3afe724b69d6,09:41:42,27/02/2024
html-keyboard-response,67,138137,0.0-29.0-3.0,,<div style='margin:auto;width: auto; font-size: 150%'><span style='font-weight: bold; font-size: 100px; color: green;'>+10 points!</span><br><br></div>,,delaylearn,learning,feedback_image_window,LpneGG4dU5PP4iMhfGSCTnGa74v1,LpneGG4dU5PP4iMhfGSCTnGa74v1,,,,,,,,,,,,,,,,,,,,,,63d19839498b3afe724b69d6,09:41:42,27/02/2024
html-keyboard-response,68,139668,0.0-30.0,,"<div style=""font-size:100px;"">+</div>",,delaylearn,learning,ITI,LpneGG4dU5PP4iMhfGSCTnGa74v1,LpneGG4dU5PP4iMhfGSCTnGa74v1,,,,,,,,,,,,,,,,,,,1514.0,,,63d19839498b3afe724b69d6,09:41:42,27/02/2024
html-keyboard-response,69,141588,0.0-31.0-0.0,1918.0,"<div style=""display: flex; flex-direction: column; align-items: center; margin-top: -40px;""><img src=""images/pattern_3.png"" style=""width: 234px; height: 230px; margin-top: -50px;""><div style=""display: flex; justify-content: space-between; margin-top: 33px;""><img src=""images/choice_trial_2.png"" style=""width: 408px; height: 417px; margin-right: 200px;""><img src=""images/choice_trial_16.png"" style=""width: 408px; height: 417px;""></div></div>",j,delaylearn,learning,trial,LpneGG4dU5PP4iMhfGSCTnGa74v1,LpneGG4dU5PP4iMhfGSCTnGa74v1,5.0,images/choice_trial_2.png,images/choice_trial_16.png,images/pattern_3.png,f,j,7000.0,2.0,16.0,2.0,1.0,13.0,1.0,0.0,16.0,90.0,,,,,,63d19839498b3afe724b69d6,09:41:42,27/02/2024
html-keyboard-response,70,142604,0.0-31.0-1.0,,"<div style=""display: flex; flex-direction: column; align-items: center; margin-top: -40px;""><img src=""images/pattern_3.png"" style=""width: 234px; height: 230px; margin-top: -50px;""><div style=""display: flex; justify-content: space-between; margin-top: 33px;""><img src=""images/choice_trial_16.png"" style=""width: 408px; height: 417px; margin-left:608px;""></div></div>",,delaylearn,learning,display_response,LpneGG4dU5PP4iMhfGSCTnGa74v1,LpneGG4dU5PP4iMhfGSCTnGa74v1,,,,,,,,,,,,,,,,,chosen stimuli: images/choice_trial_16.png,,,,,63d19839498b3afe724b69d6,09:41:42,27/02/2024
html-keyboard-response,71,149618,0.0-31.0-2.0,,,,delaylearn,learning,feedback_duration_window,LpneGG4dU5PP4iMhfGSCTnGa74v1,LpneGG4dU5PP4iMhfGSCTnGa74v1,,,,,,,,,,,,,,,,,,7000.0,,,,63d19839498b3afe724b69d6,09:41:42,27/02/2024
html-keyboard-response,72,151133,0.0-31.0-3.0,,<div style='margin:auto;width: auto; font-size: 150%'><span style='font-weight: bold; font-size: 100px; color: red;'>0 points!</span><br><br></div>,,delaylearn,learning,feedback_image_window,LpneGG4dU5PP4iMhfGSCTnGa74v1,LpneGG4dU5PP4iMhfGSCTnGa74v1,,,,,,,,,,,,,,,,,,,,,,63d19839498b3afe724b69d6,09:41:42,27/02/2024
html-keyboard-response,73,152717,0.0-32.0,,"<div style=""font-size:100px;"">+</div>",,delaylearn,learning,ITI,LpneGG4dU5PP4iMhfGSCTnGa74v1,LpneGG4dU5PP4iMhfGSCTnGa74v1,,,,,,,,,,,,,,,,,,,1569.0,,,63d19839498b3afe724b69d6,09:41:42,27/02/2024
html-keyboard-response,74,154040,0.0-33.0-0.0,1320.5,"<div style=""display: flex; flex-direction: column; align-items: center; margin-top: -40px;""><img src=""images/pattern_5.png"" style=""width: 234px; height: 230px; margin-top: -50px;""><div style=""display: flex; justify-content: space-between; margin-top: 33px;""><img src=""images/choice_trial_7.png"" style=""width: 408px; height: 417px; margin-right: 200px;""><img src=""images/choice_trial_13.png"" style=""width: 408px; height: 417px;""></div></div>",f,delaylearn,learning,trial,LpneGG4dU5PP4iMhfGSCTnGa74v1,LpneGG4dU5PP4iMhfGSCTnGa74v1,5.0,images/choice_trial_7.png,images/choice_trial_13.png,images/pattern_5.png,f,f,750.0,7.0,13.0,4.0,0.0,14.0,1.0,1.0,7.0,100.0,,,,,,63d19839498b3afe724b69d6,09:41:42,27/02/2024
html-keyboard-response,75,155048,0.0-33.0-1.0,,"<div style=""display: flex; flex-direction: column; align-items: center; margin-top: -40px;""><img src=""images/pattern_5.png"" style=""width: 234px; height: 230px; margin-top: -50px;""><div style=""display: flex; justify-content: space-between; margin-top: 33px;""><img src=""images/choice_trial_7.png"" style=""width: 408px; height: 417px; margin-right: 608px;""></div></div>",,delaylearn,learning,display_response,LpneGG4dU5PP4iMhfGSCTnGa74v1,LpneGG4dU5PP4iMhfGSCTnGa74v1,,,,,,,,,,,,,,,,,chosen stimuli: images/choice_trial_7.png,,,,,63d19839498b3afe724b69d6,09:41:42,27/02/2024
html-keyboard-response,76,155813,0.0-33.0-2.0,,,,delaylearn,learning,feedback_duration_window,LpneGG4dU5PP4iMhfGSCTnGa74v1,LpneGG4dU5PP4iMhfGSCTnGa74v1,,,,,,,,,,,,,,,,,,750.0,,,,63d19839498b3afe724b69d6,09:41:42,27/02/2024
html-keyboard-response,77,157332,0.0-33.0-3.0,,<div style='margin:auto;width: auto; font-size: 150%'><span style='font-weight: bold; font-size: 100px; color: green;'>+10 points!</span><br><br></div>,,delaylearn,learning,feedback_image_window,LpneGG4dU5PP4iMhfGSCTnGa74v1,LpneGG4dU5PP4iMhfGSCTnGa74v1,,,,,,,,,,,,,,,,,,,,,,63d19839498b3afe724b69d6,09:41:42,27/02/2024
html-keyboard-response,78,157839,0.0-34.0-0.0,,,,,,mood_trial_fixation,LpneGG4dU5PP4iMhfGSCTnGa74v1,,,,,,,,,,,,,,,,,,,,,,,63d19839498b3afe724b69d6,09:41:42,27/02/2024
lmdlab-html-vas-response,79,162440,0.0-34.0-1.0,3595.0,How happy are you right now?,0.5963252314814815,delaylearn,learning,mood_trial,LpneGG4dU5PP4iMhfGSCTnGa74v1,LpneGG4dU5PP4iMhfGSCTnGa74v1,,,,,,,,,,,,,,,,,,,,"['Very unhappy', 'Very happy']",,63d19839498b3afe724b69d6,09:41:42,27/02/2024
html-keyboard-response,80,164747,0.0-35.0,,"<div style=""font-size:100px;"">+</div>",,delaylearn,learning,ITI,LpneGG4dU5PP4iMhfGSCTnGa74v1,LpneGG4dU5PP4iMhfGSCTnGa74v1,,,,,,,,,,,,,,,,,,,2295.0,,,63d19839498b3afe724b69d6,09:41:42,27/02/2024
html-keyboard-response,81,165826,0.0-36.0-0.0,1075.3000001907349,"<div style=""display: flex; flex-direction: column; align-items: center; margin-top: -40px;""><img src=""images/pattern_6.png"" style=""width: 234px; height: 230px; margin-top: -50px;""><div style=""display: flex; justify-content: space-between; margin-top: 33px;""><img src=""images/choice_trial_14.png"" style=""width: 408px; height: 417px; margin-right: 200px;""><img src=""images/choice_trial_9.png"" style=""width: 408px; height: 417px;""></div></div>",j,delaylearn,learning,trial,LpneGG4dU5PP4iMhfGSCTnGa74v1,LpneGG4dU5PP4iMhfGSCTnGa74v1,5.0,images/choice_trial_14.png,images/choice_trial_9.png,images/pattern_6.png,f,f,750.0,14.0,9.0,5.0,0.0,15.0,0.0,0.0,9.0,100.0,,,,,,63d19839498b3afe724b69d6,09:41:42,27/02/2024
html-keyboard-response,82,166839,0.0-36.0-1.0,,"<div style=""display: flex; flex-direction: column; align-items: center; margin-top: -40px;""><img src=""images/pattern_6.png"" style=""width: 234px; height: 230px; margin-top: -50px;""><div style=""display: flex; justify-content: space-between; margin-top: 33px;""><img src=""images/choice_trial_9.png"" style=""width: 408px; height: 417px; margin-left:608px;""></div></div>",,delaylearn,learning,display_response,LpneGG4dU5PP4iMhfGSCTnGa74v1,LpneGG4dU5PP4iMhfGSCTnGa74v1,,,,,,,,,,,,,,,,,chosen stimuli: images/choice_trial_9.png,,,,,63d19839498b3afe724b69d6,09:41:42,27/02/2024
html-keyboard-response,83,167604,0.0-36.0-2.0,,,,delaylearn,learning,feedback_duration_window,LpneGG4dU5PP4iMhfGSCTnGa74v1,LpneGG4dU5PP4iMhfGSCTnGa74v1,,,,,,,,,,,,,,,,,,750.0,,,,63d19839498b3afe724b69d6,09:41:42,27/02/2024
html-keyboard-response,84,169112,0.0-36.0-3.0,,<div style='margin:auto;width: auto; font-size: 150%'><span style='font-weight: bold; font-size: 100px; color: red;'>0 points!</span><br><br></div>,,delaylearn,learning,feedback_image_window,LpneGG4dU5PP4iMhfGSCTnGa74v1,LpneGG4dU5PP4iMhfGSCTnGa74v1,,,,,,,,,,,,,,,,,,,,,,63d19839498b3afe724b69d6,09:41:42,27/02/2024
html-keyboard-response,85,170981,0.0-37.0,,"<div style=""font-size:100px;"">+</div>",,delaylearn,learning,ITI,LpneGG4dU5PP4iMhfGSCTnGa74v1,LpneGG4dU5PP4iMhfGSCTnGa74v1,,,,,,,,,,,,,,,,,,,1853.0,,,63d19839498b3afe724b69d6,09:41:42,27/02/2024
html-keyboard-response,86,171850,0.0-38.0-0.0,866.5,"<div style=""display: flex; flex-direction: column; align-items: center; margin-top: -40px;""><img src=""images/pattern_4.png"" style=""width: 234px; height: 230px; margin-top: -50px;""><div style=""display: flex; justify-content: space-between; margin-top: 33px;""><img src=""images/choice_trial_4.png"" style=""width: 408px; height: 417px; margin-right: 200px;""><img src=""images/choice_trial_11.png"" style=""width: 408px; height: 417px;""></div></div>",j,delaylearn,learning,trial,LpneGG4dU5PP4iMhfGSCTnGa74v1,LpneGG4dU5PP4iMhfGSCTnGa74v1,5.0,images/choice_trial_4.png,images/choice_trial_11.png,images/pattern_4.png,j,j,7000.0,4.0,11.0,3.0,1.0,16.0,1.0,1.0,11.0,110.0,,,,,,63d19839498b3afe724b69d6,09:41:42,27/02/2024
html-keyboard-response,87,172863,0.0-38.0-1.0,,"<div style=""display: flex; flex-direction: column; align-items: center; margin-top: -40px;""><img src=""images/pattern_4.png"" style=""width: 234px; height: 230px; margin-top: -50px;""><div style=""display: flex; justify-content: space-between; margin-top: 33px;""><img src=""images/choice_trial_11.png"" style=""width: 408px; height: 417px; margin-left:608px;""></div></div>",,delaylearn,learning,display_response,LpneGG4dU5PP4iMhfGSCTnGa74v1,LpneGG4dU5PP4iMhfGSCTnGa74v1,,,,,,,,,,,,,,,,,chosen stimuli: images/choice_trial_11.png,,,,,63d19839498b3afe724b69d6,09:41:42,27/02/2024
html-keyboard-response,88,179873,0.0-38.0-2.0,,,,delaylearn,learning,feedback_duration_window,LpneGG4dU5PP4iMhfGSCTnGa74v1,LpneGG4dU5PP4iMhfGSCTnGa74v1,,,,,,,,,,,,,,,,,,7000.0,,,,63d19839498b3afe724b69d6,09:41:42,27/02/2024
html-keyboard-response,89,181382,0.0-38.0-3.0,,<div style='margin:auto;width: auto; font-size: 150%'><span style='font-weight: bold; font-size: 100px; color: green;'>+10 points!</span><br><br></div>,,delaylearn,learning,feedback_image_window,LpneGG4dU5PP4iMhfGSCTnGa74v1,LpneGG4dU5PP4iMhfGSCTnGa74v1,,,,,,,,,,,,,,,,,,,,,,63d19839498b3afe724b69d6,09:41:42,27/02/2024
html-keyboard-response,90,183524,0.0-39.0,,"<div style=""font-size:100px;"">+</div>",,delaylearn,learning,ITI,LpneGG4dU5PP4iMhfGSCTnGa74v1,LpneGG4dU5PP4iMhfGSCTnGa74v1,,,,,,,,,,,,,,,,,,,2108.0,,,63d19839498b3afe724b69d6,09:41:42,27/02/2024
html-keyboard-response,91,184978,0.0-40.0-0.0,1449.6999998092651,"<div style=""display: flex; flex-direction: column; align-items: center; margin-top: -40px;""><img src=""images/pattern_7.png"" style=""width: 234px; height: 230px; margin-top: -50px;""><div style=""display: flex; justify-content: space-between; margin-top: 33px;""><img src=""images/choice_trial_8.png"" style=""width: 408px; height: 417px; margin-right: 200px;""><img src=""images/choice_trial_10.png"" style=""width: 408px; height: 417px;""></div></div>",j,delaylearn,learning,trial,LpneGG4dU5PP4iMhfGSCTnGa74v1,LpneGG4dU5PP4iMhfGSCTnGa74v1,5.0,images/choice_trial_8.png,images/choice_trial_10.png,images/pattern_7.png,j,f,750.0,8.0,10.0,6.0,0.0,17.0,0.0,1.0,10.0,120.0,,,,,,63d19839498b3afe724b69d6,09:41:42,27/02/2024
html-keyboard-response,92,185994,0.0-40.0-1.0,,"<div style=""display: flex; flex-direction: column; align-items: center; margin-top: -40px;""><img src=""images/pattern_7.png"" style=""width: 234px; height: 230px; margin-top: -50px;""><div style=""display: flex; justify-content: space-between; margin-top: 33px;""><img src=""images/choice_trial_10.png"" style=""width: 408px; height: 417px; margin-left:608px;""></div></div>",,delaylearn,learning,display_response,LpneGG4dU5PP4iMhfGSCTnGa74v1,LpneGG4dU5PP4iMhfGSCTnGa74v1,,,,,,,,,,,,,,,,,chosen stimuli: images/choice_trial_10.png,,,,,63d19839498b3afe724b69d6,09:41:42,27/02/2024
html-keyboard-response,93,186775,0.0-40.0-2.0,,,,delaylearn,learning,feedback_duration_window,LpneGG4dU5PP4iMhfGSCTnGa74v1,LpneGG4dU5PP4iMhfGSCTnGa74v1,,,,,,,,,,,,,,,,,,750.0,,,,63d19839498b3afe724b69d6,09:41:42,27/02/2024
html-keyboard-response,94,188292,0.0-40.0-3.0,,<div style='margin:auto;width: auto; font-size: 150%'><span style='font-weight: bold; font-size: 100px; color: green;'>+10 points!</span><br><br></div>,,delaylearn,learning,feedback_image_window,LpneGG4dU5PP4iMhfGSCTnGa74v1,LpneGG4dU5PP4iMhfGSCTnGa74v1,,,,,,,,,,,,,,,,,,,,,,63d19839498b3afe724b69d6,09:41:42,27/02/2024
html-keyboard-response,95,190501,0.0-41.0,,"<div style=""font-size:100px;"">+</div>",,delaylearn,learning,ITI,LpneGG4dU5PP4iMhfGSCTnGa74v1,LpneGG4dU5PP4iMhfGSCTnGa74v1,,,,,,,,,,,,,,,,,,,2193.0,,,63d19839498b3afe724b69d6,09:41:42,27/02/2024
html-keyboard-response,96,191386,0.0-42.0-0.0,880.2000002861023,"<div style=""display: flex; flex-direction: column; align-items: center; margin-top: -40px;""><img src=""images/pattern_1.png"" style=""width: 234px; height: 230px; margin-top: -50px;""><div style=""display: flex; justify-content: space-between; margin-top: 33px;""><img src=""images/choice_trial_6.png"" style=""width: 408px; height: 417px; margin-right: 200px;""><img src=""images/choice_trial_15.png"" style=""width: 408px; height: 417px;""></div></div>",f,delaylearn,learning,trial,LpneGG4dU5PP4iMhfGSCTnGa74v1,LpneGG4dU5PP4iMhfGSCTnGa74v1,5.0,images/choice_trial_6.png,images/choice_trial_15.png,images/pattern_1.png,f,f,7000.0,6.0,15.0,1.0,0.0,18.0,1.0,1.0,6.0,130.0,,,,,,63d19839498b3afe724b69d6,09:41:42,27/02/2024
html-keyboard-response,97,192393,0.0-42.0-1.0,,"<div style=""display: flex; flex-direction: column; align-items: center; margin-top: -40px;""><img src=""images/pattern_1.png"" style=""width: 234px; height: 230px; margin-top: -50px;""><div style=""display: flex; justify-content: space-between; margin-top: 33px;""><img src=""images/choice_trial_6.png"" style=""width: 408px; height: 417px; margin-right: 608px;""></div></div>",,delaylearn,learning,display_response,LpneGG4dU5PP4iMhfGSCTnGa74v1,LpneGG4dU5PP4iMhfGSCTnGa74v1,,,,,,,,,,,,,,,,,chosen stimuli: images/choice_trial_6.png,,,,,63d19839498b3afe724b69d6,09:41:42,27/02/2024
html-keyboard-response,98,199406,0.0-42.0-2.0,,,,delaylearn,learning,feedback_duration_window,LpneGG4dU5PP4iMhfGSCTnGa74v1,LpneGG4dU5PP4iMhfGSCTnGa74v1,,,,,,,,,,,,,,,,,,7000.0,,,,63d19839498b3afe724b69d6,09:41:42,27/02/2024
html-keyboard-response,99,200914,0.0-42.0-3.0,,<div style='margin:auto;width: auto; font-size: 150%'><span style='font-weight: bold; font-size: 100px; color: green;'>+10 points!</span><br><br></div>,,delaylearn,learning,feedback_image_window,LpneGG4dU5PP4iMhfGSCTnGa74v1,LpneGG4dU5PP4iMhfGSCTnGa74v1,,,,,,,,,,,,,,,,,,,,,,63d19839498b3afe724b69d6,09:41:42,27/02/2024
html-keyboard-response,100,203134,0.0-43.0,,"<div style=""font-size:100px;"">+</div>",,delaylearn,learning,ITI,LpneGG4dU5PP4iMhfGSCTnGa74v1,LpneGG4dU5PP4iMhfGSCTnGa74v1,,,,,,,,,,,,,,,,,,,2215.0,,,63d19839498b3afe724b69d6,09:41:42,27/02/2024
html-keyboard-response,101,204114,0.0-44.0-0.0,975.0999999046326,"<div style=""display: flex; flex-direction: column; align-items: center; margin-top: -40px;""><img src=""images/pattern_6.png"" style=""width: 234px; height: 230px; margin-top: -50px;""><div style=""display: flex; justify-content: space-between; margin-top: 33px;""><img src=""images/choice_trial_9.png"" style=""width: 408px; height: 417px; margin-right: 200px;""><img src=""images/choice_trial_14.png"" style=""width: 408px; height: 417px;""></div></div>",f,delaylearn,learning,trial,LpneGG4dU5PP4iMhfGSCTnGa74v1,LpneGG4dU5PP4iMhfGSCTnGa74v1,5.0,images/choice_trial_9.png,images/choice_trial_14.png,images/pattern_6.png,j,j,750.0,9.0,14.0,5.0,1.0,19.0,0.0,0.0,9.0,130.0,,,,,,63d19839498b3afe724b69d6,09:41:42,27/02/2024
html-keyboard-response,102,205126,0.0-44.0-1.0,,"<div style=""display: flex; flex-direction: column; align-items: center; margin-top: -40px;""><img src=""images/pattern_6.png"" style=""width: 234px; height: 230px; margin-top: -50px;""><div style=""display: flex; justify-content: space-between; margin-top: 33px;""><img src=""images/choice_trial_9.png"" style=""width: 408px; height: 417px; margin-right: 608px;""></div></div>",,delaylearn,learning,display_response,LpneGG4dU5PP4iMhfGSCTnGa74v1,LpneGG4dU5PP4iMhfGSCTnGa74v1,,,,,,,,,,,,,,,,,chosen stimuli: images/choice_trial_9.png,,,,,63d19839498b3afe724b69d6,09:41:42,27/02/2024
html-keyboard-response,103,205892,0.0-44.0-2.0,,,,delaylearn,learning,feedback_duration_window,LpneGG4dU5PP4iMhfGSCTnGa74v1,LpneGG4dU5PP4iMhfGSCTnGa74v1,,,,,,,,,,,,,,,,,,750.0,,,,63d19839498b3afe724b69d6,09:41:42,27/02/2024
html-keyboard-response,104,207400,0.0-44.0-3.0,,<div style='margin:auto;width: auto; font-size: 150%'><span style='font-weight: bold; font-size: 100px; color: red;'>0 points!</span><br><br></div>,,delaylearn,learning,feedback_image_window,LpneGG4dU5PP4iMhfGSCTnGa74v1,LpneGG4dU5PP4iMhfGSCTnGa74v1,,,,,,,,,,,,,,,,,,,,,,63d19839498b3afe724b69d6,09:41:42,27/02/2024
html-keyboard-response,105,209817,0.0-45.0,,"<div style=""font-size:100px;"">+</div>",,delaylearn,learning,ITI,LpneGG4dU5PP4iMhfGSCTnGa74v1,LpneGG4dU5PP4iMhfGSCTnGa74v1,,,,,,,,,,,,,,,,,,,2403.0,,,63d19839498b3afe724b69d6,09:41:42,27/02/2024
html-keyboard-response,106,211127,0.0-46.0-0.0,1302.5999999046326,"<div style=""display: flex; flex-direction: column; align-items: center; margin-top: -40px;""><img src=""images/pattern_4.png"" style=""width: 234px; height: 230px; margin-top: -50px;""><div style=""display: flex; justify-content: space-between; margin-top: 33px;""><img src=""images/choice_trial_11.png"" style=""width: 408px; height: 417px; margin-right: 200px;""><img src=""images/choice_trial_4.png"" style=""width: 408px; height: 417px;""></div></div>",f,delaylearn,learning,trial,LpneGG4dU5PP4iMhfGSCTnGa74v1,LpneGG4dU5PP4iMhfGSCTnGa74v1,5.0,images/choice_trial_11.png,images/choice_trial_4.png,images/pattern_4.png,f,f,7000.0,11.0,4.0,3.0,0.0,20.0,1.0,1.0,11.0,140.0,,,,,,63d19839498b3afe724b69d6,09:41:42,27/02/2024
html-keyboard-response,107,212138,0.0-46.0-1.0,,"<div style=""display: flex; flex-direction: column; align-items: center; margin-top: -40px;""><img src=""images/pattern_4.png"" style=""width: 234px; height: 230px; margin-top: -50px;""><div style=""display: flex; justify-content: space-between; margin-top: 33px;""><img src=""images/choice_trial_11.png"" style=""width: 408px; height: 417px; margin-right: 608px;""></div></div>",,delaylearn,learning,display_response,LpneGG4dU5PP4iMhfGSCTnGa74v1,LpneGG4dU5PP4iMhfGSCTnGa74v1,,,,,,,,,,,,,,,,,chosen stimuli: images/choice_trial_11.png,,,,,63d19839498b3afe724b69d6,09:41:42,27/02/2024
html-keyboard-response,108,219154,0.0-46.0-2.0,,,,delaylearn,learning,feedback_duration_window,LpneGG4dU5PP4iMhfGSCTnGa74v1,LpneGG4dU5PP4iMhfGSCTnGa74v1,,,,,,,,,,,,,,,,,,7000.0,,,,63d19839498b3afe724b69d6,09:41:42,27/02/2024
html-keyboard-response,109,220671,0.0-46.0-3.0,,<div style='margin:auto;width: auto; font-size: 150%'><span style='font-weight: bold; font-size: 100px; color: green;'>+10 points!</span><br><br></div>,,delaylearn,learning,feedback_image_window,LpneGG4dU5PP4iMhfGSCTnGa74v1,LpneGG4dU5PP4iMhfGSCTnGa74v1,,,,,,,,,,,,,,,,,,,,,,63d19839498b3afe724b69d6,09:41:42,27/02/2024
html-keyboard-response,110,221185,0.0-47.0-0.0,,,,,,mood_trial_fixation,LpneGG4dU5PP4iMhfGSCTnGa74v1,,,,,,,,,,,,,,,,,,,,,,,63d19839498b3afe724b69d6,09:41:42,27/02/2024
lmdlab-html-vas-response,111,225888,0.0-47.0-1.0,3699.0,How happy are you right now?,0.6018807870370371,delaylearn,learning,mood_trial,LpneGG4dU5PP4iMhfGSCTnGa74v1,LpneGG4dU5PP4iMhfGSCTnGa74v1,,,,,,,,,,,,,,,,,,,,"['Very unhappy', 'Very happy']",,63d19839498b3afe724b69d6,09:41:42,27/02/2024
html-keyboard-response,112,228299,0.0-48.0,,"<div style=""font-size:100px;"">+</div>",,delaylearn,learning,ITI,LpneGG4dU5PP4iMhfGSCTnGa74v1,LpneGG4dU5PP4iMhfGSCTnGa74v1,,,,,,,,,,,,,,,,,,,2395.0,,,63d19839498b3afe724b69d6,09:41:42,27/02/2024
html-keyboard-response,113,229246,0.0-49.0-0.0,941.2000002861023,"<div style=""display: flex; flex-direction: column; align-items: center; margin-top: -40px;""><img src=""images/pattern_7.png"" style=""width: 234px; height: 230px; margin-top: -50px;""><div style=""display: flex; justify-content: space-between; margin-top: 33px;""><img src=""images/choice_trial_10.png"" style=""width: 408px; height: 417px; margin-right: 200px;""><img src=""images/choice_trial_8.png"" style=""width: 408px; height: 417px;""></div></div>",f,delaylearn,learning,trial,LpneGG4dU5PP4iMhfGSCTnGa74v1,LpneGG4dU5PP4iMhfGSCTnGa74v1,5.0,images/choice_trial_10.png,images/choice_trial_8.png,images/pattern_7.png,j,j,750.0,10.0,8.0,6.0,1.0,21.0,0.0,0.0,10.0,140.0,,,,,,63d19839498b3afe724b69d6,09:41:42,27/02/2024
html-keyboard-response,114,230261,0.0-49.0-1.0,,"<div style=""display: flex; flex-direction: column; align-items: center; margin-top: -40px;""><img src=""images/pattern_7.png"" style=""width: 234px; height: 230px; margin-top: -50px;""><div style=""display: flex; justify-content: space-between; margin-top: 33px;""><img src=""images/choice_trial_10.png"" style=""width: 408px; height: 417px; margin-right: 608px;""></div></div>",,delaylearn,learning,display_response,LpneGG4dU5PP4iMhfGSCTnGa74v1,LpneGG4dU5PP4iMhfGSCTnGa74v1,,,,,,,,,,,,,,,,,chosen stimuli: images/choice_trial_10.png,,,,,63d19839498b3afe724b69d6,09:41:42,27/02/2024
html-keyboard-response,115,231027,0.0-49.0-2.0,,,,delaylearn,learning,feedback_duration_window,LpneGG4dU5PP4iMhfGSCTnGa74v1,LpneGG4dU5PP4iMhfGSCTnGa74v1,,,,,,,,,,,,,,,,,,750.0,,,,63d19839498b3afe724b69d6,09:41:42,27/02/2024
html-keyboard-response,116,232539,0.0-49.0-3.0,,<div style='margin:auto;width: auto; font-size: 150%'><span style='font-weight: bold; font-size: 100px; color: red;'>0 points!</span><br><br></div>,,delaylearn,learning,feedback_image_window,LpneGG4dU5PP4iMhfGSCTnGa74v1,LpneGG4dU5PP4iMhfGSCTnGa74v1,,,,,,,,,,,,,,,,,,,,,,63d19839498b3afe724b69d6,09:41:42,27/02/2024
html-keyboard-response,117,234963,0.0-50.0,,"<div style=""font-size:100px;"">+</div>",,delaylearn,learning,ITI,LpneGG4dU5PP4iMhfGSCTnGa74v1,LpneGG4dU5PP4iMhfGSCTnGa74v1,,,,,,,,,,,,,,,,,,,2411.0,,,63d19839498b3afe724b69d6,09:41:42,27/02/2024
html-keyboard-response,118,235877,0.0-51.0-0.0,908.2999997138977,"<div style=""display: flex; flex-direction: column; align-items: center; margin-top: -40px;""><img src=""images/pattern_1.png"" style=""width: 234px; height: 230px; margin-top: -50px;""><div style=""display: flex; justify-content: space-between; margin-top: 33px;""><img src=""images/choice_trial_15.png"" style=""width: 408px; height: 417px; margin-right: 200px;""><img src=""images/choice_trial_6.png"" style=""width: 408px; height: 417px;""></div></div>",j,delaylearn,learning,trial,LpneGG4dU5PP4iMhfGSCTnGa74v1,LpneGG4dU5PP4iMhfGSCTnGa74v1,5.0,images/choice_trial_15.png,images/choice_trial_6.png,images/pattern_1.png,f,j,7000.0,15.0,6.0,1.0,1.0,22.0,1.0,0.0,6.0,140.0,,,,,,63d19839498b3afe724b69d6,09:41:42,27/02/2024
html-keyboard-response,119,236880,0.0-51.0-1.0,,"<div style=""display: flex; flex-direction: column; align-items: center; margin-top: -40px;""><img src=""images/pattern_1.png"" style=""width: 234px; height: 230px; margin-top: -50px;""><div style=""display: flex; justify-content: space-between; margin-top: 33px;""><img src=""images/choice_trial_6.png"" style=""width: 408px; height: 417px; margin-left:608px;""></div></div>",,delaylearn,learning,display_response,LpneGG4dU5PP4iMhfGSCTnGa74v1,LpneGG4dU5PP4iMhfGSCTnGa74v1,,,,,,,,,,,,,,,,,chosen stimuli: images/choice_trial_6.png,,,,,63d19839498b3afe724b69d6,09:41:42,27/02/2024
html-keyboard-response,120,243896,0.0-51.0-2.0,,,,delaylearn,learning,feedback_duration_window,LpneGG4dU5PP4iMhfGSCTnGa74v1,LpneGG4dU5PP4iMhfGSCTnGa74v1,,,,,,,,,,,,,,,,,,7000.0,,,,63d19839498b3afe724b69d6,09:41:42,27/02/2024
html-keyboard-response,121,245413,0.0-51.0-3.0,,<div style='margin:auto;width: auto; font-size: 150%'><span style='font-weight: bold; font-size: 100px; color: red;'>0 points!</span><br><br></div>,,delaylearn,learning,feedback_image_window,LpneGG4dU5PP4iMhfGSCTnGa74v1,LpneGG4dU5PP4iMhfGSCTnGa74v1,,,,,,,,,,,,,,,,,,,,,,63d19839498b3afe724b69d6,09:41:42,27/02/2024
html-keyboard-response,122,247683,0.0-52.0,,"<div style=""font-size:100px;"">+</div>",,delaylearn,learning,ITI,LpneGG4dU5PP4iMhfGSCTnGa74v1,LpneGG4dU5PP4iMhfGSCTnGa74v1,,,,,,,,,,,,,,,,,,,2262.0,,,63d19839498b3afe724b69d6,09:41:42,27/02/2024
html-keyboard-response,123,248498,0.0-53.0-0.0,811.5,"<div style=""display: flex; flex-direction: column; align-items: center; margin-top: -40px;""><img src=""images/pattern_5.png"" style=""width: 234px; height: 230px; margin-top: -50px;""><div style=""display: flex; justify-content: space-between; margin-top: 33px;""><img src=""images/choice_trial_13.png"" style=""width: 408px; height: 417px; margin-right: 200px;""><img src=""images/choice_trial_7.png"" style=""width: 408px; height: 417px;""></div></div>",j,delaylearn,learning,trial,LpneGG4dU5PP4iMhfGSCTnGa74v1,LpneGG4dU5PP4iMhfGSCTnGa74v1,5.0,images/choice_trial_13.png,images/choice_trial_7.png,images/pattern_5.png,j,j,750.0,13.0,7.0,4.0,1.0,23.0,1.0,1.0,7.0,150.0,,,,,,63d19839498b3afe724b69d6,09:41:42,27/02/2024
html-keyboard-response,124,249514,0.0-53.0-1.0,,"<div style=""display: flex; flex-direction: column; align-items: center; margin-top: -40px;""><img src=""images/pattern_5.png"" style=""width: 234px; height: 230px; margin-top: -50px;""><div style=""display: flex; justify-content: space-between; margin-top: 33px;""><img src=""images/choice_trial_7.png"" style=""width: 408px; height: 417px; margin-left:608px;""></div></div>",,delaylearn,learning,display_response,LpneGG4dU5PP4iMhfGSCTnGa74v1,LpneGG4dU5PP4iMhfGSCTnGa74v1,,,,,,,,,,,,,,,,,chosen stimuli: images/choice_trial_7.png,,,,,63d19839498b3afe724b69d6,09:41:42,27/02/2024
html-keyboard-response,125,250273,0.0-53.0-2.0,,,,delaylearn,learning,feedback_duration_window,LpneGG4dU5PP4iMhfGSCTnGa74v1,LpneGG4dU5PP4iMhfGSCTnGa74v1,,,,,,,,,,,,,,,,,,750.0,,,,63d19839498b3afe724b69d6,09:41:42,27/02/2024
html-keyboard-response,126,251789,0.0-53.0-3.0,,<div style='margin:auto;width: auto; font-size: 150%'><span style='font-weight: bold; font-size: 100px; color: green;'>+10 points!</span><br><br></div>,,delaylearn,learning,feedback_image_window,LpneGG4dU5PP4iMhfGSCTnGa74v1,LpneGG4dU5PP4iMhfGSCTnGa74v1,,,,,,,,,,,,,,,,,,,,,,63d19839498b3afe724b69d6,09:41:42,27/02/2024
html-keyboard-response,127,253665,0.0-54.0,,"<div style=""font-size:100px;"">+</div>",,delaylearn,learning,ITI,LpneGG4dU5PP4iMhfGSCTnGa74v1,LpneGG4dU5PP4iMhfGSCTnGa74v1,,,,,,,,,,,,,,,,,,,1867.0,,,63d19839498b3afe724b69d6,09:41:42,27/02/2024
html-keyboard-response,128,255109,0.0-55.0-0.0,1438.5999999046326,"<div style=""display: flex; flex-direction: column; align-items: center; margin-top: -40px;""><img src=""images/pattern_3.png"" style=""width: 234px; height: 230px; margin-top: -50px;""><div style=""display: flex; justify-content: space-between; margin-top: 33px;""><img src=""images/choice_trial_2.png"" style=""width: 408px; height: 417px; margin-right: 200px;""><img src=""images/choice_trial_16.png"" style=""width: 408px; height: 417px;""></div></div>",f,delaylearn,learning,trial,LpneGG4dU5PP4iMhfGSCTnGa74v1,LpneGG4dU5PP4iMhfGSCTnGa74v1,5.0,images/choice_trial_2.png,images/choice_trial_16.png,images/pattern_3.png,j,j,7000.0,2.0,16.0,2.0,1.0,24.0,0.0,0.0,2.0,150.0,,,,,,63d19839498b3afe724b69d6,09:41:42,27/02/2024
html-keyboard-response,129,256126,0.0-55.0-1.0,,"<div style=""display: flex; flex-direction: column; align-items: center; margin-top: -40px;""><img src=""images/pattern_3.png"" style=""width: 234px; height: 230px; margin-top: -50px;""><div style=""display: flex; justify-content: space-between; margin-top: 33px;""><img src=""images/choice_trial_2.png"" style=""width: 408px; height: 417px; margin-right: 608px;""></div></div>",,delaylearn,learning,display_response,LpneGG4dU5PP4iMhfGSCTnGa74v1,LpneGG4dU5PP4iMhfGSCTnGa74v1,,,,,,,,,,,,,,,,,chosen stimuli: images/choice_trial_2.png,,,,,63d19839498b3afe724b69d6,09:41:42,27/02/2024
html-keyboard-response,130,263140,0.0-55.0-2.0,,,,delaylearn,learning,feedback_duration_window,LpneGG4dU5PP4iMhfGSCTnGa74v1,LpneGG4dU5PP4iMhfGSCTnGa74v1,,,,,,,,,,,,,,,,,,7000.0,,,,63d19839498b3afe724b69d6,09:41:42,27/02/2024
html-keyboard-response,131,264645,0.0-55.0-3.0,,<div style='margin:auto;width: auto; font-size: 150%'><span style='font-weight: bold; font-size: 100px; color: red;'>0 points!</span><br><br></div>,,delaylearn,learning,feedback_image_window,LpneGG4dU5PP4iMhfGSCTnGa74v1,LpneGG4dU5PP4iMhfGSCTnGa74v1,,,,,,,,,,,,,,,,,,,,,,63d19839498b3afe724b69d6,09:41:42,27/02/2024
lmdlab-html-vas-response,132,272875,0.0-56.0-0.0,6717.0,*How <b><u>confident</u></b> are you feeling about your answers at this moment?*,0.5037037037037037,rewlearn,rate_confidence,,LpneGG4dU5PP4iMhfGSCTnGa74v1,LpneGG4dU5PP4iMhfGSCTnGa74v1,,,,,,,,,,,,,,,,,,,,"['No confidence', 'Complete confidence']",,63d19839498b3afe724b69d6,09:41:42,27/02/2024
lmdlab-rest-trial-limit,133,393818,0.0-56.0-1.0,119435.5,"<div style=""font-size:40px;""><b>Please take a break!</b><br><br><br><br><p>Great work: you earned undefined points.<br><br><br><p>You have completed part(s) 1 of 6.<br><br><br><br>When you are ready to continue<br><br><br>please click the button.</p><br><br>",0,delaylearn,learning,break,LpneGG4dU5PP4iMhfGSCTnGa74v1,LpneGG4dU5PP4iMhfGSCTnGa74v1,,,,,,,,,,,,,,,,,,,,,0.0,63d19839498b3afe724b69d6,09:41:42,27/02/2024
html-keyboard-response,134,396824,0.0-56.0-2.0,,"<div style=""font-size:100px;"">+</div>",,delaylearn,learning,pre_fixation,LpneGG4dU5PP4iMhfGSCTnGa74v1,,,,,,,,,,,,,,,,,,,,,,,63d19839498b3afe724b69d6,09:41:42,27/02/2024
lmdlab-html-vas-response,135,401487,0.0-56.0-3.0-0.0,3643.0,How happy are you right now?,0.5741030092592593,delaylearn,learning,mood_baseline,LpneGG4dU5PP4iMhfGSCTnGa74v1,LpneGG4dU5PP4iMhfGSCTnGa74v1,,,,,,,,,,,,,,,,,,,,"['Very unhappy', 'Very happy']",,63d19839498b3afe724b69d6,09:41:42,27/02/2024
html-keyboard-response,136,403005,0.0-56.0-3.0-1.0,,,,,,mood_baseline_fixation,LpneGG4dU5PP4iMhfGSCTnGa74v1,,,,,,,,,,,,,,,,,,,,,,,63d19839498b3afe724b69d6,09:41:42,27/02/2024
html-keyboard-response,137,405042,0.0-57.0,,"<div style=""font-size:100px;"">+</div>",,delaylearn,learning,ITI,LpneGG4dU5PP4iMhfGSCTnGa74v1,LpneGG4dU5PP4iMhfGSCTnGa74v1,,,,,,,,,,,,,,,,,,,2025.0,,,63d19839498b3afe724b69d6,09:41:42,27/02/2024
html-keyboard-response,138,406049,0.0-58.0-0.0,998.3000001907349,"<div style=""display: flex; flex-direction: column; align-items: center; margin-top: -40px;""><img src=""images/pattern_7.png"" style=""width: 234px; height: 230px; margin-top: -50px;""><div style=""display: flex; justify-content: space-between; margin-top: 33px;""><img src=""images/choice_trial_10.png"" style=""width: 408px; height: 417px; margin-right: 200px;""><img src=""images/choice_trial_8.png"" style=""width: 408px; height: 417px;""></div></div>",f,delaylearn,learning,trial,LpneGG4dU5PP4iMhfGSCTnGa74v1,LpneGG4dU5PP4iMhfGSCTnGa74v1,5.0,images/choice_trial_10.png,images/choice_trial_8.png,images/pattern_7.png,j,j,750.0,10.0,8.0,6.0,1.0,25.0,0.0,0.0,10.0,150.0,,,,,,63d19839498b3afe724b69d6,09:41:42,27/02/2024
html-keyboard-response,139,407059,0.0-58.0-1.0,,"<div style=""display: flex; flex-direction: column; align-items: center; margin-top: -40px;""><img src=""images/pattern_7.png"" style=""width: 234px; height: 230px; margin-top: -50px;""><div style=""display: flex; justify-content: space-between; margin-top: 33px;""><img src=""images/choice_trial_10.png"" style=""width: 408px; height: 417px; margin-right: 608px;""></div></div>",,delaylearn,learning,display_response,LpneGG4dU5PP4iMhfGSCTnGa74v1,LpneGG4dU5PP4iMhfGSCTnGa74v1,,,,,,,,,,,,,,,,,chosen stimuli: images/choice_trial_10.png,,,,,63d19839498b3afe724b69d6,09:41:42,27/02/2024
html-keyboard-response,140,407823,0.0-58.0-2.0,,,,delaylearn,learning,feedback_duration_window,LpneGG4dU5PP4iMhfGSCTnGa74v1,LpneGG4dU5PP4iMhfGSCTnGa74v1,,,,,,,,,,,,,,,,,,750.0,,,,63d19839498b3afe724b69d6,09:41:42,27/02/2024
html-keyboard-response,141,409335,0.0-58.0-3.0,,<div style='margin:auto;width: auto; font-size: 150%'><span style='font-weight: bold; font-size: 100px; color: red;'>0 points!</span><br><br></div>,,delaylearn,learning,feedback_image_window,LpneGG4dU5PP4iMhfGSCTnGa74v1,LpneGG4dU5PP4iMhfGSCTnGa74v1,,,,,,,,,,,,,,,,,,,,,,63d19839498b3afe724b69d6,09:41:42,27/02/2024
html-keyboard-response,142,409838,0.0-59.0-0.0,,,,,,mood_trial_fixation,LpneGG4dU5PP4iMhfGSCTnGa74v1,,,,,,,,,,,,,,,,,,,,,,,63d19839498b3afe724b69d6,09:41:42,27/02/2024
lmdlab-html-vas-response,143,415646,0.0-59.0-1.0,4802.0,How happy are you right now?,0.5852141203703703,delaylearn,learning,mood_trial,LpneGG4dU5PP4iMhfGSCTnGa74v1,LpneGG4dU5PP4iMhfGSCTnGa74v1,,,,,,,,,,,,,,,,,,,,"['Very unhappy', 'Very happy']",,63d19839498b3afe724b69d6,09:41:42,27/02/2024
html-keyboard-response,144,417269,0.0-60.0,,"<div style=""font-size:100px;"">+</div>",,delaylearn,learning,ITI,LpneGG4dU5PP4iMhfGSCTnGa74v1,LpneGG4dU5PP4iMhfGSCTnGa74v1,,,,,,,,,,,,,,,,,,,1609.0,,,63d19839498b3afe724b69d6,09:41:42,27/02/2024
html-keyboard-response,145,418369,0.0-61.0-0.0,1096.9000000953674,"<div style=""display: flex; flex-direction: column; align-items: center; margin-top: -40px;""><img src=""images/pattern_1.png"" style=""width: 234px; height: 230px; margin-top: -50px;""><div style=""display: flex; justify-content: space-between; margin-top: 33px;""><img src=""images/choice_trial_6.png"" style=""width: 408px; height: 417px; margin-right: 200px;""><img src=""images/choice_trial_15.png"" style=""width: 408px; height: 417px;""></div></div>",f,delaylearn,learning,trial,LpneGG4dU5PP4iMhfGSCTnGa74v1,LpneGG4dU5PP4iMhfGSCTnGa74v1,5.0,images/choice_trial_6.png,images/choice_trial_15.png,images/pattern_1.png,f,f,7000.0,6.0,15.0,1.0,0.0,26.0,1.0,1.0,6.0,160.0,,,,,,63d19839498b3afe724b69d6,09:41:42,27/02/2024
html-keyboard-response,146,419373,0.0-61.0-1.0,,"<div style=""display: flex; flex-direction: column; align-items: center; margin-top: -40px;""><img src=""images/pattern_1.png"" style=""width: 234px; height: 230px; margin-top: -50px;""><div style=""display: flex; justify-content: space-between; margin-top: 33px;""><img src=""images/choice_trial_6.png"" style=""width: 408px; height: 417px; margin-right: 608px;""></div></div>",,delaylearn,learning,display_response,LpneGG4dU5PP4iMhfGSCTnGa74v1,LpneGG4dU5PP4iMhfGSCTnGa74v1,,,,,,,,,,,,,,,,,chosen stimuli: images/choice_trial_6.png,,,,,63d19839498b3afe724b69d6,09:41:42,27/02/2024
html-keyboard-response,147,426388,0.0-61.0-2.0,,,,delaylearn,learning,feedback_duration_window,LpneGG4dU5PP4iMhfGSCTnGa74v1,LpneGG4dU5PP4iMhfGSCTnGa74v1,,,,,,,,,,,,,,,,,,7000.0,,,,63d19839498b3afe724b69d6,09:41:42,27/02/2024
html-keyboard-response,148,427899,0.0-61.0-3.0,,<div style='margin:auto;width: auto; font-size: 150%'><span style='font-weight: bold; font-size: 100px; color: green;'>+10 points!</span><br><br></div>,,delaylearn,learning,feedback_image_window,LpneGG4dU5PP4iMhfGSCTnGa74v1,LpneGG4dU5PP4iMhfGSCTnGa74v1,,,,,,,,,,,,,,,,,,,,,,63d19839498b3afe724b69d6,09:41:42,27/02/2024
html-keyboard-response,149,429591,0.0-62.0,,"<div style=""font-size:100px;"">+</div>",,delaylearn,learning,ITI,LpneGG4dU5PP4iMhfGSCTnGa74v1,LpneGG4dU5PP4iMhfGSCTnGa74v1,,,,,,,,,,,,,,,,,,,1685.0,,,63d19839498b3afe724b69d6,09:41:42,27/02/2024
html-keyboard-response,150,430488,0.0-63.0-0.0,890.6999998092651,"<div style=""display: flex; flex-direction: column; align-items: center; margin-top: -40px;""><img src=""images/pattern_5.png"" style=""width: 234px; height: 230px; margin-top: -50px;""><div style=""display: flex; justify-content: space-between; margin-top: 33px;""><img src=""images/choice_trial_7.png"" style=""width: 408px; height: 417px; margin-right: 200px;""><img src=""images/choice_trial_13.png"" style=""width: 408px; height: 417px;""></div></div>",f,delaylearn,learning,trial,LpneGG4dU5PP4iMhfGSCTnGa74v1,LpneGG4dU5PP4iMhfGSCTnGa74v1,5.0,images/choice_trial_7.png,images/choice_trial_13.png,images/pattern_5.png,f,f,750.0,7.0,13.0,4.0,0.0,27.0,1.0,1.0,7.0,170.0,,,,,,63d19839498b3afe724b69d6,09:41:42,27/02/2024
html-keyboard-response,151,431494,0.0-63.0-1.0,,"<div style=""display: flex; flex-direction: column; align-items: center; margin-top: -40px;""><img src=""images/pattern_5.png"" style=""width: 234px; height: 230px; margin-top: -50px;""><div style=""display: flex; justify-content: space-between; margin-top: 33px;""><img src=""images/choice_trial_7.png"" style=""width: 408px; height: 417px; margin-right: 608px;""></div></div>",,delaylearn,learning,display_response,LpneGG4dU5PP4iMhfGSCTnGa74v1,LpneGG4dU5PP4iMhfGSCTnGa74v1,,,,,,,,,,,,,,,,,chosen stimuli: images/choice_trial_7.png,,,,,63d19839498b3afe724b69d6,09:41:42,27/02/2024
html-keyboard-response,152,432246,0.0-63.0-2.0,,,,delaylearn,learning,feedback_duration_window,LpneGG4dU5PP4iMhfGSCTnGa74v1,LpneGG4dU5PP4iMhfGSCTnGa74v1,,,,,,,,,,,,,,,,,,750.0,,,,63d19839498b3afe724b69d6,09:41:42,27/02/2024
html-keyboard-response,153,433749,0.0-63.0-3.0,,<div style='margin:auto;width: auto; font-size: 150%'><span style='font-weight: bold; font-size: 100px; color: green;'>+10 points!</span><br><br></div>,,delaylearn,learning,feedback_image_window,LpneGG4dU5PP4iMhfGSCTnGa74v1,LpneGG4dU5PP4iMhfGSCTnGa74v1,,,,,,,,,,,,,,,,,,,,,,63d19839498b3afe724b69d6,09:41:42,27/02/2024
html-keyboard-response,154,435343,0.0-64.0,,"<div style=""font-size:100px;"">+</div>",,delaylearn,learning,ITI,LpneGG4dU5PP4iMhfGSCTnGa74v1,LpneGG4dU5PP4iMhfGSCTnGa74v1,,,,,,,,,,,,,,,,,,,1584.0,,,63d19839498b3afe724b69d6,09:41:42,27/02/2024
html-keyboard-response,155,436169,0.0-65.0-0.0,816.2000002861023,"<div style=""display: flex; flex-direction: column; align-items: center; margin-top: -40px;""><img src=""images/pattern_6.png"" style=""width: 234px; height: 230px; margin-top: -50px;""><div style=""display: flex; justify-content: space-between; margin-top: 33px;""><img src=""images/choice_trial_9.png"" style=""width: 408px; height: 417px; margin-right: 200px;""><img src=""images/choice_trial_14.png"" style=""width: 408px; height: 417px;""></div></div>",f,delaylearn,learning,trial,LpneGG4dU5PP4iMhfGSCTnGa74v1,LpneGG4dU5PP4iMhfGSCTnGa74v1,5.0,images/choice_trial_9.png,images/choice_trial_14.png,images/pattern_6.png,j,j,750.0,9.0,14.0,5.0,1.0,28.0,0.0,0.0,9.0,170.0,,,,,,63d19839498b3afe724b69d6,09:41:42,27/02/2024
html-keyboard-response,156,437178,0.0-65.0-1.0,,"<div style=""display: flex; flex-direction: column; align-items: center; margin-top: -40px;""><img src=""images/pattern_6.png"" style=""width: 234px; height: 230px; margin-top: -50px;""><div style=""display: flex; justify-content: space-between; margin-top: 33px;""><img src=""images/choice_trial_9.png"" style=""width: 408px; height: 417px; margin-right: 608px;""></div></div>",,delaylearn,learning,display_response,LpneGG4dU5PP4iMhfGSCTnGa74v1,LpneGG4dU5PP4iMhfGSCTnGa74v1,,,,,,,,,,,,,,,,,chosen stimuli: images/choice_trial_9.png,,,,,63d19839498b3afe724b69d6,09:41:42,27/02/2024
html-keyboard-response,157,437944,0.0-65.0-2.0,,,,delaylearn,learning,feedback_duration_window,LpneGG4dU5PP4iMhfGSCTnGa74v1,LpneGG4dU5PP4iMhfGSCTnGa74v1,,,,,,,,,,,,,,,,,,750.0,,,,63d19839498b3afe724b69d6,09:41:42,27/02/2024
html-keyboard-response,158,439460,0.0-65.0-3.0,,<div style='margin:auto;width: auto; font-size: 150%'><span style='font-weight: bold; font-size: 100px; color: red;'>0 points!</span><br><br></div>,,delaylearn,learning,feedback_image_window,LpneGG4dU5PP4iMhfGSCTnGa74v1,LpneGG4dU5PP4iMhfGSCTnGa74v1,,,,,,,,,,,,,,,,,,,,,,63d19839498b3afe724b69d6,09:41:42,27/02/2024
html-keyboard-response,159,439967,0.0-66.0-0.0,,,,,,mood_trial_fixation,LpneGG4dU5PP4iMhfGSCTnGa74v1,,,,,,,,,,,,,,,,,,,,,,,63d19839498b3afe724b69d6,09:41:42,27/02/2024
lmdlab-html-vas-response,160,445148,0.0-66.0-1.0,4175.0,How happy are you right now?,0.5963252314814815,delaylearn,learning,mood_trial,LpneGG4dU5PP4iMhfGSCTnGa74v1,LpneGG4dU5PP4iMhfGSCTnGa74v1,,,,,,,,,,,,,,,,,,,,"['Very unhappy', 'Very happy']",,63d19839498b3afe724b69d6,09:41:42,27/02/2024
html-keyboard-response,161,447500,0.0-67.0,,"<div style=""font-size:100px;"">+</div>",,delaylearn,learning,ITI,LpneGG4dU5PP4iMhfGSCTnGa74v1,LpneGG4dU5PP4iMhfGSCTnGa74v1,,,,,,,,,,,,,,,,,,,2350.0,,,63d19839498b3afe724b69d6,09:41:42,27/02/2024
html-keyboard-response,162,448619,0.0-68.0-0.0,1112.0999999046326,"<div style=""display: flex; flex-direction: column; align-items: center; margin-top: -40px;""><img src=""images/pattern_4.png"" style=""width: 234px; height: 230px; margin-top: -50px;""><div style=""display: flex; justify-content: space-between; margin-top: 33px;""><img src=""images/choice_trial_4.png"" style=""width: 408px; height: 417px; margin-right: 200px;""><img src=""images/choice_trial_11.png"" style=""width: 408px; height: 417px;""></div></div>",j,delaylearn,learning,trial,LpneGG4dU5PP4iMhfGSCTnGa74v1,LpneGG4dU5PP4iMhfGSCTnGa74v1,5.0,images/choice_trial_4.png,images/choice_trial_11.png,images/pattern_4.png,j,j,7000.0,4.0,11.0,3.0,1.0,29.0,1.0,1.0,11.0,180.0,,,,,,63d19839498b3afe724b69d6,09:41:42,27/02/2024
html-keyboard-response,163,449634,0.0-68.0-1.0,,"<div style=""display: flex; flex-direction: column; align-items: center; margin-top: -40px;""><img src=""images/pattern_4.png"" style=""width: 234px; height: 230px; margin-top: -50px;""><div style=""display: flex; justify-content: space-between; margin-top: 33px;""><img src=""images/choice_trial_11.png"" style=""width: 408px; height: 417px; margin-left:608px;""></div></div>",,delaylearn,learning,display_response,LpneGG4dU5PP4iMhfGSCTnGa74v1,LpneGG4dU5PP4iMhfGSCTnGa74v1,,,,,,,,,,,,,,,,,chosen stimuli: images/choice_trial_11.png,,,,,63d19839498b3afe724b69d6,09:41:42,27/02/2024
html-keyboard-response,164,456641,0.0-68.0-2.0,,,,delaylearn,learning,feedback_duration_window,LpneGG4dU5PP4iMhfGSCTnGa74v1,LpneGG4dU5PP4iMhfGSCTnGa74v1,,,,,,,,,,,,,,,,,,7000.0,,,,63d19839498b3afe724b69d6,09:41:42,27/02/2024
html-keyboard-response,165,458160,0.0-68.0-3.0,,<div style='margin:auto;width: auto; font-size: 150%'><span style='font-weight: bold; font-size: 100px; color: green;'>+10 points!</span><br><br></div>,,delaylearn,learning,feedback_image_window,LpneGG4dU5PP4iMhfGSCTnGa74v1,LpneGG4dU5PP4iMhfGSCTnGa74v1,,,,,,,,,,,,,,,,,,,,,,63d19839498b3afe724b69d6,09:41:42,27/02/2024
html-keyboard-response,166,459893,0.0-69.0,,"<div style=""font-size:100px;"">+</div>",,delaylearn,learning,ITI,LpneGG4dU5PP4iMhfGSCTnGa74v1,LpneGG4dU5PP4iMhfGSCTnGa74v1,,,,,,,,,,,,,,,,,,,1728.0,,,63d19839498b3afe724b69d6,09:41:42,27/02/2024
html-keyboard-response,167,461464,0.0-70.0-0.0,1564.1999998092651,"<div style=""display: flex; flex-direction: column; align-items: center; margin-top: -40px;""><img src=""images/pattern_3.png"" style=""width: 234px; height: 230px; margin-top: -50px;""><div style=""display: flex; justify-content: space-between; margin-top: 33px;""><img src=""images/choice_trial_2.png"" style=""width: 408px; height: 417px; margin-right: 200px;""><img src=""images/choice_trial_16.png"" style=""width: 408px; height: 417px;""></div></div>",f,delaylearn,learning,trial,LpneGG4dU5PP4iMhfGSCTnGa74v1,LpneGG4dU5PP4iMhfGSCTnGa74v1,5.0,images/choice_trial_2.png,images/choice_trial_16.png,images/pattern_3.png,j,j,7000.0,2.0,16.0,2.0,1.0,30.0,0.0,0.0,2.0,180.0,,,,,,63d19839498b3afe724b69d6,09:41:42,27/02/2024
html-keyboard-response,168,462471,0.0-70.0-1.0,,"<div style=""display: flex; flex-direction: column; align-items: center; margin-top: -40px;""><img src=""images/pattern_3.png"" style=""width: 234px; height: 230px; margin-top: -50px;""><div style=""display: flex; justify-content: space-between; margin-top: 33px;""><img src=""images/choice_trial_2.png"" style=""width: 408px; height: 417px; margin-right: 608px;""></div></div>",,delaylearn,learning,display_response,LpneGG4dU5PP4iMhfGSCTnGa74v1,LpneGG4dU5PP4iMhfGSCTnGa74v1,,,,,,,,,,,,,,,,,chosen stimuli: images/choice_trial_2.png,,,,,63d19839498b3afe724b69d6,09:41:42,27/02/2024
html-keyboard-response,169,469486,0.0-70.0-2.0,,,,delaylearn,learning,feedback_duration_window,LpneGG4dU5PP4iMhfGSCTnGa74v1,LpneGG4dU5PP4iMhfGSCTnGa74v1,,,,,,,,,,,,,,,,,,7000.0,,,,63d19839498b3afe724b69d6,09:41:42,27/02/2024
html-keyboard-response,170,471003,0.0-70.0-3.0,,<div style='margin:auto;width: auto; font-size: 150%'><span style='font-weight: bold; font-size: 100px; color: red;'>0 points!</span><br><br></div>,,delaylearn,learning,feedback_image_window,LpneGG4dU5PP4iMhfGSCTnGa74v1,LpneGG4dU5PP4iMhfGSCTnGa74v1,,,,,,,,,,,,,,,,,,,,,,63d19839498b3afe724b69d6,09:41:42,27/02/2024
html-keyboard-response,171,473216,0.0-71.0,,"<div style=""font-size:100px;"">+</div>",,delaylearn,learning,ITI,LpneGG4dU5PP4iMhfGSCTnGa74v1,LpneGG4dU5PP4iMhfGSCTnGa74v1,,,,,,,,,,,,,,,,,,,2202.0,,,63d19839498b3afe724b69d6,09:41:42,27/02/2024
html-keyboard-response,172,474679,0.0-72.0-0.0,1458.1999998092651,"<div style=""display: flex; flex-direction: column; align-items: center; margin-top: -40px;""><img src=""images/pattern_5.png"" style=""width: 234px; height: 230px; margin-top: -50px;""><div style=""display: flex; justify-content: space-between; margin-top: 33px;""><img src=""images/choice_trial_7.png"" style=""width: 408px; height: 417px; margin-right: 200px;""><img src=""images/choice_trial_13.png"" style=""width: 408px; height: 417px;""></div></div>",f,delaylearn,learning,trial,LpneGG4dU5PP4iMhfGSCTnGa74v1,LpneGG4dU5PP4iMhfGSCTnGa74v1,5.0,images/choice_trial_7.png,images/choice_trial_13.png,images/pattern_5.png,j,f,750.0,7.0,13.0,4.0,0.0,31.0,1.0,0.0,7.0,180.0,,,,,,63d19839498b3afe724b69d6,09:41:42,27/02/2024
html-keyboard-response,173,475693,0.0-72.0-1.0,,"<div style=""display: flex; flex-direction: column; align-items: center; margin-top: -40px;""><img src=""images/pattern_5.png"" style=""width: 234px; height: 230px; margin-top: -50px;""><div style=""display: flex; justify-content: space-between; margin-top: 33px;""><img src=""images/choice_trial_7.png"" style=""width: 408px; height: 417px; margin-right: 608px;""></div></div>",,delaylearn,learning,display_response,LpneGG4dU5PP4iMhfGSCTnGa74v1,LpneGG4dU5PP4iMhfGSCTnGa74v1,,,,,,,,,,,,,,,,,chosen stimuli: images/choice_trial_7.png,,,,,63d19839498b3afe724b69d6,09:41:42,27/02/2024
html-keyboard-response,174,476457,0.0-72.0-2.0,,,,delaylearn,learning,feedback_duration_window,LpneGG4dU5PP4iMhfGSCTnGa74v1,LpneGG4dU5PP4iMhfGSCTnGa74v1,,,,,,,,,,,,,,,,,,750.0,,,,63d19839498b3afe724b69d6,09:41:42,27/02/2024
html-keyboard-response,175,477965,0.0-72.0-3.0,,<div style='margin:auto;width: auto; font-size: 150%'><span style='font-weight: bold; font-size: 100px; color: red;'>0 points!</span><br><br></div>,,delaylearn,learning,feedback_image_window,LpneGG4dU5PP4iMhfGSCTnGa74v1,LpneGG4dU5PP4iMhfGSCTnGa74v1,,,,,,,,,,,,,,,,,,,,,,63d19839498b3afe724b69d6,09:41:42,27/02/2024
html-keyboard-response,176,479543,0.0-73.0,,"<div style=""font-size:100px;"">+</div>",,delaylearn,learning,ITI,LpneGG4dU5PP4iMhfGSCTnGa74v1,LpneGG4dU5PP4iMhfGSCTnGa74v1,,,,,,,,,,,,,,,,,,,1571.0,,,63d19839498b3afe724b69d6,09:41:42,27/02/2024
html-keyboard-response,177,481069,0.0-74.0-0.0,1520.5999999046326,"<div style=""display: flex; flex-direction: column; align-items: center; margin-top: -40px;""><img src=""images/pattern_1.png"" style=""width: 234px; height: 230px; margin-top: -50px;""><div style=""display: flex; justify-content: space-between; margin-top: 33px;""><img src=""images/choice_trial_6.png"" style=""width: 408px; height: 417px; margin-right: 200px;""><img src=""images/choice_trial_15.png"" style=""width: 408px; height: 417px;""></div></div>",f,delaylearn,learning,trial,LpneGG4dU5PP4iMhfGSCTnGa74v1,LpneGG4dU5PP4iMhfGSCTnGa74v1,5.0,images/choice_trial_6.png,images/choice_trial_15.png,images/pattern_1.png,f,f,7000.0,6.0,15.0,1.0,0.0,32.0,1.0,1.0,6.0,190.0,,,,,,63d19839498b3afe724b69d6,09:41:42,27/02/2024
html-keyboard-response,178,482078,0.0-74.0-1.0,,"<div style=""display: flex; flex-direction: column; align-items: center; margin-top: -40px;""><img src=""images/pattern_1.png"" style=""width: 234px; height: 230px; margin-top: -50px;""><div style=""display: flex; justify-content: space-between; margin-top: 33px;""><img src=""images/choice_trial_6.png"" style=""width: 408px; height: 417px; margin-right: 608px;""></div></div>",,delaylearn,learning,display_response,LpneGG4dU5PP4iMhfGSCTnGa74v1,LpneGG4dU5PP4iMhfGSCTnGa74v1,,,,,,,,,,,,,,,,,chosen stimuli: images/choice_trial_6.png,,,,,63d19839498b3afe724b69d6,09:41:42,27/02/2024
html-keyboard-response,179,489093,0.0-74.0-2.0,,,,delaylearn,learning,feedback_duration_window,LpneGG4dU5PP4iMhfGSCTnGa74v1,LpneGG4dU5PP4iMhfGSCTnGa74v1,,,,,,,,,,,,,,,,,,7000.0,,,,63d19839498b3afe724b69d6,09:41:42,27/02/2024
html-keyboard-response,180,490607,0.0-74.0-3.0,,<div style='margin:auto;width: auto; font-size: 150%'><span style='font-weight: bold; font-size: 100px; color: green;'>+10 points!</span><br><br></div>,,delaylearn,learning,feedback_image_window,LpneGG4dU5PP4iMhfGSCTnGa74v1,LpneGG4dU5PP4iMhfGSCTnGa74v1,,,,,,,,,,,,,,,,,,,,,,63d19839498b3afe724b69d6,09:41:42,27/02/2024
html-keyboard-response,181,491124,0.0-75.0-0.0,,,,,,mood_trial_fixation,LpneGG4dU5PP4iMhfGSCTnGa74v1,,,,,,,,,,,,,,,,,,,,,,,63d19839498b3afe724b69d6,09:41:42,27/02/2024
lmdlab-html-vas-response,182,505346,0.0-75.0-1.0,13205.0,How happy are you right now?,0.61484375,delaylearn,learning,mood_trial,LpneGG4dU5PP4iMhfGSCTnGa74v1,LpneGG4dU5PP4iMhfGSCTnGa74v1,,,,,,,,,,,,,,,,,,,,"['Very unhappy', 'Very happy']",,63d19839498b3afe724b69d6,09:41:42,27/02/2024
html-keyboard-response,183,507104,0.0-76.0,,"<div style=""font-size:100px;"">+</div>",,delaylearn,learning,ITI,LpneGG4dU5PP4iMhfGSCTnGa74v1,LpneGG4dU5PP4iMhfGSCTnGa74v1,,,,,,,,,,,,,,,,,,,1746.0,,,63d19839498b3afe724b69d6,09:41:42,27/02/2024
html-keyboard-response,184,508453,0.0-77.0-0.0,1350.2000002861023,"<div style=""display: flex; flex-direction: column; align-items: center; margin-top: -40px;""><img src=""images/pattern_6.png"" style=""width: 234px; height: 230px; margin-top: -50px;""><div style=""display: flex; justify-content: space-between; margin-top: 33px;""><img src=""images/choice_trial_14.png"" style=""width: 408px; height: 417px; margin-right: 200px;""><img src=""images/choice_trial_9.png"" style=""width: 408px; height: 417px;""></div></div>",j,delaylearn,learning,trial,LpneGG4dU5PP4iMhfGSCTnGa74v1,LpneGG4dU5PP4iMhfGSCTnGa74v1,5.0,images/choice_trial_14.png,images/choice_trial_9.png,images/pattern_6.png,j,f,750.0,14.0,9.0,5.0,0.0,33.0,0.0,1.0,9.0,200.0,,,,,,63d19839498b3afe724b69d6,09:41:42,27/02/2024
html-keyboard-response,185,509470,0.0-77.0-1.0,,"<div style=""display: flex; flex-direction: column; align-items: center; margin-top: -40px;""><img src=""images/pattern_6.png"" style=""width: 234px; height: 230px; margin-top: -50px;""><div style=""display: flex; justify-content: space-between; margin-top: 33px;""><img src=""images/choice_trial_9.png"" style=""width: 408px; height: 417px; margin-left:608px;""></div></div>",,delaylearn,learning,display_response,LpneGG4dU5PP4iMhfGSCTnGa74v1,LpneGG4dU5PP4iMhfGSCTnGa74v1,,,,,,,,,,,,,,,,,chosen stimuli: images/choice_trial_9.png,,,,,63d19839498b3afe724b69d6,09:41:42,27/02/2024
html-keyboard-response,186,510227,0.0-77.0-2.0,,,,delaylearn,learning,feedback_duration_window,LpneGG4dU5PP4iMhfGSCTnGa74v1,LpneGG4dU5PP4iMhfGSCTnGa74v1,,,,,,,,,,,,,,,,,,750.0,,,,63d19839498b3afe724b69d6,09:41:42,27/02/2024
html-keyboard-response,187,511735,0.0-77.0-3.0,,<div style='margin:auto;width: auto; font-size: 150%'><span style='font-weight: bold; font-size: 100px; color: green;'>+10 points!</span><br><br></div>,,delaylearn,learning,feedback_image_window,LpneGG4dU5PP4iMhfGSCTnGa74v1,LpneGG4dU5PP4iMhfGSCTnGa74v1,,,,,,,,,,,,,,,,,,,,,,63d19839498b3afe724b69d6,09:41:42,27/02/2024
html-keyboard-response,188,513358,0.0-78.0,,"<div style=""font-size:100px;"">+</div>",,delaylearn,learning,ITI,LpneGG4dU5PP4iMhfGSCTnGa74v1,LpneGG4dU5PP4iMhfGSCTnGa74v1,,,,,,,,,,,,,,,,,,,1620.0,,,63d19839498b3afe724b69d6,09:41:42,27/02/2024
html-keyboard-response,189,515046,0.0-79.0-0.0,1683.5,"<div style=""display: flex; flex-direction: column; align-items: center; margin-top: -40px;""><img src=""images/pattern_3.png"" style=""width: 234px; height: 230px; margin-top: -50px;""><div style=""display: flex; justify-content: space-between; margin-top: 33px;""><img src=""images/choice_trial_2.png"" style=""width: 408px; height: 417px; margin-right: 200px;""><img src=""images/choice_trial_16.png"" style=""width: 408px; height: 417px;""></div></div>",f,delaylearn,learning,trial,LpneGG4dU5PP4iMhfGSCTnGa74v1,LpneGG4dU5PP4iMhfGSCTnGa74v1,5.0,images/choice_trial_2.png,images/choice_trial_16.png,images/pattern_3.png,j,j,7000.0,2.0,16.0,2.0,1.0,34.0,0.0,0.0,2.0,200.0,,,,,,63d19839498b3afe724b69d6,09:41:42,27/02/2024
html-keyboard-response,190,516055,0.0-79.0-1.0,,"<div style=""display: flex; flex-direction: column; align-items: center; margin-top: -40px;""><img src=""images/pattern_3.png"" style=""width: 234px; height: 230px; margin-top: -50px;""><div style=""display: flex; justify-content: space-between; margin-top: 33px;""><img src=""images/choice_trial_2.png"" style=""width: 408px; height: 417px; margin-right: 608px;""></div></div>",,delaylearn,learning,display_response,LpneGG4dU5PP4iMhfGSCTnGa74v1,LpneGG4dU5PP4iMhfGSCTnGa74v1,,,,,,,,,,,,,,,,,chosen stimuli: images/choice_trial_2.png,,,,,63d19839498b3afe724b69d6,09:41:42,27/02/2024
html-keyboard-response,191,523070,0.0-79.0-2.0,,,,delaylearn,learning,feedback_duration_window,LpneGG4dU5PP4iMhfGSCTnGa74v1,LpneGG4dU5PP4iMhfGSCTnGa74v1,,,,,,,,,,,,,,,,,,7000.0,,,,63d19839498b3afe724b69d6,09:41:42,27/02/2024
html-keyboard-response,192,524583,0.0-79.0-3.0,,<div style='margin:auto;width: auto; font-size: 150%'><span style='font-weight: bold; font-size: 100px; color: red;'>0 points!</span><br><br></div>,,delaylearn,learning,feedback_image_window,LpneGG4dU5PP4iMhfGSCTnGa74v1,LpneGG4dU5PP4iMhfGSCTnGa74v1,,,,,,,,,,,,,,,,,,,,,,63d19839498b3afe724b69d6,09:41:42,27/02/2024
html-keyboard-response,193,526557,0.0-80.0,,"<div style=""font-size:100px;"">+</div>",,delaylearn,learning,ITI,LpneGG4dU5PP4iMhfGSCTnGa74v1,LpneGG4dU5PP4iMhfGSCTnGa74v1,,,,,,,,,,,,,,,,,,,1967.0,,,63d19839498b3afe724b69d6,09:41:42,27/02/2024
html-keyboard-response,194,528340,0.0-81.0-0.0,1777.1000003814697,"<div style=""display: flex; flex-direction: column; align-items: center; margin-top: -40px;""><img src=""images/pattern_4.png"" style=""width: 234px; height: 230px; margin-top: -50px;""><div style=""display: flex; justify-content: space-between; margin-top: 33px;""><img src=""images/choice_trial_4.png"" style=""width: 408px; height: 417px; margin-right: 200px;""><img src=""images/choice_trial_11.png"" style=""width: 408px; height: 417px;""></div></div>",j,delaylearn,learning,trial,LpneGG4dU5PP4iMhfGSCTnGa74v1,LpneGG4dU5PP4iMhfGSCTnGa74v1,5.0,images/choice_trial_4.png,images/choice_trial_11.png,images/pattern_4.png,f,j,7000.0,4.0,11.0,3.0,1.0,35.0,1.0,0.0,11.0,200.0,,,,,,63d19839498b3afe724b69d6,09:41:42,27/02/2024
html-keyboard-response,195,529358,0.0-81.0-1.0,,"<div style=""display: flex; flex-direction: column; align-items: center; margin-top: -40px;""><img src=""images/pattern_4.png"" style=""width: 234px; height: 230px; margin-top: -50px;""><div style=""display: flex; justify-content: space-between; margin-top: 33px;""><img src=""images/choice_trial_11.png"" style=""width: 408px; height: 417px; margin-left:608px;""></div></div>",,delaylearn,learning,display_response,LpneGG4dU5PP4iMhfGSCTnGa74v1,LpneGG4dU5PP4iMhfGSCTnGa74v1,,,,,,,,,,,,,,,,,chosen stimuli: images/choice_trial_11.png,,,,,63d19839498b3afe724b69d6,09:41:42,27/02/2024
html-keyboard-response,196,536367,0.0-81.0-2.0,,,,delaylearn,learning,feedback_duration_window,LpneGG4dU5PP4iMhfGSCTnGa74v1,LpneGG4dU5PP4iMhfGSCTnGa74v1,,,,,,,,,,,,,,,,,,7000.0,,,,63d19839498b3afe724b69d6,09:41:42,27/02/2024
html-keyboard-response,197,537873,0.0-81.0-3.0,,<div style='margin:auto;width: auto; font-size: 150%'><span style='font-weight: bold; font-size: 100px; color: red;'>0 points!</span><br><br></div>,,delaylearn,learning,feedback_image_window,LpneGG4dU5PP4iMhfGSCTnGa74v1,LpneGG4dU5PP4iMhfGSCTnGa74v1,,,,,,,,,,,,,,,,,,,,,,63d19839498b3afe724b69d6,09:41:42,27/02/2024
html-keyboard-response,198,539904,0.0-82.0,,"<div style=""font-size:100px;"">+</div>",,delaylearn,learning,ITI,LpneGG4dU5PP4iMhfGSCTnGa74v1,LpneGG4dU5PP4iMhfGSCTnGa74v1,,,,,,,,,,,,,,,,,,,2017.0,,,63d19839498b3afe724b69d6,09:41:42,27/02/2024
html-keyboard-response,199,541674,0.0-83.0-0.0,1765.3000001907349,"<div style=""display: flex; flex-direction: column; align-items: center; margin-top: -40px;""><img src=""images/pattern_7.png"" style=""width: 234px; height: 230px; margin-top: -50px;""><div style=""display: flex; justify-content: space-between; margin-top: 33px;""><img src=""images/choice_trial_8.png"" style=""width: 408px; height: 417px; margin-right: 200px;""><img src=""images/choice_trial_10.png"" style=""width: 408px; height: 417px;""></div></div>",f,delaylearn,learning,trial,LpneGG4dU5PP4iMhfGSCTnGa74v1,LpneGG4dU5PP4iMhfGSCTnGa74v1,5.0,images/choice_trial_8.png,images/choice_trial_10.png,images/pattern_7.png,f,f,750.0,8.0,10.0,6.0,0.0,36.0,1.0,1.0,8.0,210.0,,,,,,63d19839498b3afe724b69d6,09:41:42,27/02/2024
html-keyboard-response,200,542689,0.0-83.0-1.0,,"<div style=""display: flex; flex-direction: column; align-items: center; margin-top: -40px;""><img src=""images/pattern_7.png"" style=""width: 234px; height: 230px; margin-top: -50px;""><div style=""display: flex; justify-content: space-between; margin-top: 33px;""><img src=""images/choice_trial_8.png"" style=""width: 408px; height: 417px; margin-right: 608px;""></div></div>",,delaylearn,learning,display_response,LpneGG4dU5PP4iMhfGSCTnGa74v1,LpneGG4dU5PP4iMhfGSCTnGa74v1,,,,,,,,,,,,,,,,,chosen stimuli: images/choice_trial_8.png,,,,,63d19839498b3afe724b69d6,09:41:42,27/02/2024
html-keyboard-response,201,543453,0.0-83.0-2.0,,,,delaylearn,learning,feedback_duration_window,LpneGG4dU5PP4iMhfGSCTnGa74v1,LpneGG4dU5PP4iMhfGSCTnGa74v1,,,,,,,,,,,,,,,,,,750.0,,,,63d19839498b3afe724b69d6,09:41:42,27/02/2024
html-keyboard-response,202,544966,0.0-83.0-3.0,,<div style='margin:auto;width: auto; font-size: 150%'><span style='font-weight: bold; font-size: 100px; color: green;'>+10 points!</span><br><br></div>,,delaylearn,learning,feedback_image_window,LpneGG4dU5PP4iMhfGSCTnGa74v1,LpneGG4dU5PP4iMhfGSCTnGa74v1,,,,,,,,,,,,,,,,,,,,,,63d19839498b3afe724b69d6,09:41:42,27/02/2024
html-keyboard-response,203,547101,0.0-84.0,,"<div style=""font-size:100px;"">+</div>",,delaylearn,learning,ITI,LpneGG4dU5PP4iMhfGSCTnGa74v1,LpneGG4dU5PP4iMhfGSCTnGa74v1,,,,,,,,,,,,,,,,,,,2129.0,,,63d19839498b3afe724b69d6,09:41:42,27/02/2024
html-keyboard-response,204,548265,0.0-85.0-0.0,1159.8999996185303,"<div style=""display: flex; flex-direction: column; align-items: center; margin-top: -40px;""><img src=""images/pattern_1.png"" style=""width: 234px; height: 230px; margin-top: -50px;""><div style=""display: flex; justify-content: space-between; margin-top: 33px;""><img src=""images/choice_trial_6.png"" style=""width: 408px; height: 417px; margin-right: 200px;""><img src=""images/choice_trial_15.png"" style=""width: 408px; height: 417px;""></div></div>",f,delaylearn,learning,trial,LpneGG4dU5PP4iMhfGSCTnGa74v1,LpneGG4dU5PP4iMhfGSCTnGa74v1,5.0,images/choice_trial_6.png,images/choice_trial_15.png,images/pattern_1.png,f,f,7000.0,6.0,15.0,1.0,0.0,37.0,1.0,1.0,6.0,220.0,,,,,,63d19839498b3afe724b69d6,09:41:42,27/02/2024
html-keyboard-response,205,549284,0.0-85.0-1.0,,"<div style=""display: flex; flex-direction: column; align-items: center; margin-top: -40px;""><img src=""images/pattern_1.png"" style=""width: 234px; height: 230px; margin-top: -50px;""><div style=""display: flex; justify-content: space-between; margin-top: 33px;""><img src=""images/choice_trial_6.png"" style=""width: 408px; height: 417px; margin-right: 608px;""></div></div>",,delaylearn,learning,display_response,LpneGG4dU5PP4iMhfGSCTnGa74v1,LpneGG4dU5PP4iMhfGSCTnGa74v1,,,,,,,,,,,,,,,,,chosen stimuli: images/choice_trial_6.png,,,,,63d19839498b3afe724b69d6,09:41:42,27/02/2024
html-keyboard-response,206,556297,0.0-85.0-2.0,,,,delaylearn,learning,feedback_duration_window,LpneGG4dU5PP4iMhfGSCTnGa74v1,LpneGG4dU5PP4iMhfGSCTnGa74v1,,,,,,,,,,,,,,,,,,7000.0,,,,63d19839498b3afe724b69d6,09:41:42,27/02/2024
html-keyboard-response,207,557809,0.0-85.0-3.0,,<div style='margin:auto;width: auto; font-size: 150%'><span style='font-weight: bold; font-size: 100px; color: green;'>+10 points!</span><br><br></div>,,delaylearn,learning,feedback_image_window,LpneGG4dU5PP4iMhfGSCTnGa74v1,LpneGG4dU5PP4iMhfGSCTnGa74v1,,,,,,,,,,,,,,,,,,,,,,63d19839498b3afe724b69d6,09:41:42,27/02/2024
html-keyboard-response,208,558316,0.0-86.0-0.0,,,,,,mood_trial_fixation,LpneGG4dU5PP4iMhfGSCTnGa74v1,,,,,,,,,,,,,,,,,,,,,,,63d19839498b3afe724b69d6,09:41:42,27/02/2024
lmdlab-html-vas-response,209,562824,0.0-86.0-1.0,3503.0,How happy are you right now?,0.6000289351851852,delaylearn,learning,mood_trial,LpneGG4dU5PP4iMhfGSCTnGa74v1,LpneGG4dU5PP4iMhfGSCTnGa74v1,,,,,,,,,,,,,,,,,,,,"['Very unhappy', 'Very happy']",,63d19839498b3afe724b69d6,09:41:42,27/02/2024
html-keyboard-response,210,565288,0.0-87.0,,"<div style=""font-size:100px;"">+</div>",,delaylearn,learning,ITI,LpneGG4dU5PP4iMhfGSCTnGa74v1,LpneGG4dU5PP4iMhfGSCTnGa74v1,,,,,,,,,,,,,,,,,,,2451.0,,,63d19839498b3afe724b69d6,09:41:42,27/02/2024
html-keyboard-response,211,566526,0.0-88.0-0.0,1232.1000003814697,"<div style=""display: flex; flex-direction: column; align-items: center; margin-top: -40px;""><img src=""images/pattern_3.png"" style=""width: 234px; height: 230px; margin-top: -50px;""><div style=""display: flex; justify-content: space-between; margin-top: 33px;""><img src=""images/choice_trial_16.png"" style=""width: 408px; height: 417px; margin-right: 200px;""><img src=""images/choice_trial_2.png"" style=""width: 408px; height: 417px;""></div></div>",j,delaylearn,learning,trial,LpneGG4dU5PP4iMhfGSCTnGa74v1,LpneGG4dU5PP4iMhfGSCTnGa74v1,5.0,images/choice_trial_16.png,images/choice_trial_2.png,images/pattern_3.png,j,f,7000.0,16.0,2.0,2.0,0.0,38.0,0.0,1.0,2.0,230.0,,,,,,63d19839498b3afe724b69d6,09:41:42,27/02/2024
html-keyboard-response,212,567531,0.0-88.0-1.0,,"<div style=""display: flex; flex-direction: column; align-items: center; margin-top: -40px;""><img src=""images/pattern_3.png"" style=""width: 234px; height: 230px; margin-top: -50px;""><div style=""display: flex; justify-content: space-between; margin-top: 33px;""><img src=""images/choice_trial_2.png"" style=""width: 408px; height: 417px; margin-left:608px;""></div></div>",,delaylearn,learning,display_response,LpneGG4dU5PP4iMhfGSCTnGa74v1,LpneGG4dU5PP4iMhfGSCTnGa74v1,,,,,,,,,,,,,,,,,chosen stimuli: images/choice_trial_2.png,,,,,63d19839498b3afe724b69d6,09:41:42,27/02/2024
html-keyboard-response,213,574550,0.0-88.0-2.0,,,,delaylearn,learning,feedback_duration_window,LpneGG4dU5PP4iMhfGSCTnGa74v1,LpneGG4dU5PP4iMhfGSCTnGa74v1,,,,,,,,,,,,,,,,,,7000.0,,,,63d19839498b3afe724b69d6,09:41:42,27/02/2024
html-keyboard-response,214,576063,0.0-88.0-3.0,,<div style='margin:auto;width: auto; font-size: 150%'><span style='font-weight: bold; font-size: 100px; color: green;'>+10 points!</span><br><br></div>,,delaylearn,learning,feedback_image_window,LpneGG4dU5PP4iMhfGSCTnGa74v1,LpneGG4dU5PP4iMhfGSCTnGa74v1,,,,,,,,,,,,,,,,,,,,,,63d19839498b3afe724b69d6,09:41:42,27/02/2024
html-keyboard-response,215,578258,0.0-89.0,,"<div style=""font-size:100px;"">+</div>",,delaylearn,learning,ITI,LpneGG4dU5PP4iMhfGSCTnGa74v1,LpneGG4dU5PP4iMhfGSCTnGa74v1,,,,,,,,,,,,,,,,,,,2178.0,,,63d19839498b3afe724b69d6,09:41:42,27/02/2024
html-keyboard-response,216,579110,0.0-90.0-0.0,845.9000000953674,"<div style=""display: flex; flex-direction: column; align-items: center; margin-top: -40px;""><img src=""images/pattern_7.png"" style=""width: 234px; height: 230px; margin-top: -50px;""><div style=""display: flex; justify-content: space-between; margin-top: 33px;""><img src=""images/choice_trial_10.png"" style=""width: 408px; height: 417px; margin-right: 200px;""><img src=""images/choice_trial_8.png"" style=""width: 408px; height: 417px;""></div></div>",j,delaylearn,learning,trial,LpneGG4dU5PP4iMhfGSCTnGa74v1,LpneGG4dU5PP4iMhfGSCTnGa74v1,5.0,images/choice_trial_10.png,images/choice_trial_8.png,images/pattern_7.png,j,j,750.0,10.0,8.0,6.0,1.0,39.0,1.0,1.0,8.0,240.0,,,,,,63d19839498b3afe724b69d6,09:41:42,27/02/2024
html-keyboard-response,217,580125,0.0-90.0-1.0,,"<div style=""display: flex; flex-direction: column; align-items: center; margin-top: -40px;""><img src=""images/pattern_7.png"" style=""width: 234px; height: 230px; margin-top: -50px;""><div style=""display: flex; justify-content: space-between; margin-top: 33px;""><img src=""images/choice_trial_8.png"" style=""width: 408px; height: 417px; margin-left:608px;""></div></div>",,delaylearn,learning,display_response,LpneGG4dU5PP4iMhfGSCTnGa74v1,LpneGG4dU5PP4iMhfGSCTnGa74v1,,,,,,,,,,,,,,,,,chosen stimuli: images/choice_trial_8.png,,,,,63d19839498b3afe724b69d6,09:41:42,27/02/2024
html-keyboard-response,218,580890,0.0-90.0-2.0,,,,delaylearn,learning,feedback_duration_window,LpneGG4dU5PP4iMhfGSCTnGa74v1,LpneGG4dU5PP4iMhfGSCTnGa74v1,,,,,,,,,,,,,,,,,,750.0,,,,63d19839498b3afe724b69d6,09:41:42,27/02/2024
html-keyboard-response,219,582399,0.0-90.0-3.0,,<div style='margin:auto;width: auto; font-size: 150%'><span style='font-weight: bold; font-size: 100px; color: green;'>+10 points!</span><br><br></div>,,delaylearn,learning,feedback_image_window,LpneGG4dU5PP4iMhfGSCTnGa74v1,LpneGG4dU5PP4iMhfGSCTnGa74v1,,,,,,,,,,,,,,,,,,,,,,63d19839498b3afe724b69d6,09:41:42,27/02/2024
html-keyboard-response,220,584546,0.0-91.0,,"<div style=""font-size:100px;"">+</div>",,delaylearn,learning,ITI,LpneGG4dU5PP4iMhfGSCTnGa74v1,LpneGG4dU5PP4iMhfGSCTnGa74v1,,,,,,,,,,,,,,,,,,,2134.0,,,63d19839498b3afe724b69d6,09:41:42,27/02/2024
html-keyboard-response,221,585419,0.0-92.0-0.0,865.4000000953674,"<div style=""display: flex; flex-direction: column; align-items: center; margin-top: -40px;""><img src=""images/pattern_5.png"" style=""width: 234px; height: 230px; margin-top: -50px;""><div style=""display: flex; justify-content: space-between; margin-top: 33px;""><img src=""images/choice_trial_13.png"" style=""width: 408px; height: 417px; margin-right: 200px;""><img src=""images/choice_trial_7.png"" style=""width: 408px; height: 417px;""></div></div>",j,delaylearn,learning,trial,LpneGG4dU5PP4iMhfGSCTnGa74v1,LpneGG4dU5PP4iMhfGSCTnGa74v1,5.0,images/choice_trial_13.png,images/choice_trial_7.png,images/pattern_5.png,j,j,750.0,13.0,7.0,4.0,1.0,40.0,1.0,1.0,7.0,250.0,,,,,,63d19839498b3afe724b69d6,09:41:42,27/02/2024
html-keyboard-response,222,586427,0.0-92.0-1.0,,"<div style=""display: flex; flex-direction: column; align-items: center; margin-top: -40px;""><img src=""images/pattern_5.png"" style=""width: 234px; height: 230px; margin-top: -50px;""><div style=""display: flex; justify-content: space-between; margin-top: 33px;""><img src=""images/choice_trial_7.png"" style=""width: 408px; height: 417px; margin-left:608px;""></div></div>",,delaylearn,learning,display_response,LpneGG4dU5PP4iMhfGSCTnGa74v1,LpneGG4dU5PP4iMhfGSCTnGa74v1,,,,,,,,,,,,,,,,,chosen stimuli: images/choice_trial_7.png,,,,,63d19839498b3afe724b69d6,09:41:42,27/02/2024
html-keyboard-response,223,587187,0.0-92.0-2.0,,,,delaylearn,learning,feedback_duration_window,LpneGG4dU5PP4iMhfGSCTnGa74v1,LpneGG4dU5PP4iMhfGSCTnGa74v1,,,,,,,,,,,,,,,,,,750.0,,,,63d19839498b3afe724b69d6,09:41:42,27/02/2024
html-keyboard-response,224,588702,0.0-92.0-3.0,,<div style='margin:auto;width: auto; font-size: 150%'><span style='font-weight: bold; font-size: 100px; color: green;'>+10 points!</span><br><br></div>,,delaylearn,learning,feedback_image_window,LpneGG4dU5PP4iMhfGSCTnGa74v1,LpneGG4dU5PP4iMhfGSCTnGa74v1,,,,,,,,,,,,,,,,,,,,,,63d19839498b3afe724b69d6,09:41:42,27/02/2024
html-keyboard-response,225,589209,0.0-93.0-0.0,,,,,,mood_trial_fixation,LpneGG4dU5PP4iMhfGSCTnGa74v1,,,,,,,,,,,,,,,,,,,,,,,63d19839498b3afe724b69d6,09:41:42,27/02/2024
lmdlab-html-vas-response,226,593706,0.0-93.0-1.0,3490.0,How happy are you right now?,0.61484375,delaylearn,learning,mood_trial,LpneGG4dU5PP4iMhfGSCTnGa74v1,LpneGG4dU5PP4iMhfGSCTnGa74v1,,,,,,,,,,,,,,,,,,,,"['Very unhappy', 'Very happy']",,63d19839498b3afe724b69d6,09:41:42,27/02/2024
html-keyboard-response,227,595496,0.0-94.0,,"<div style=""font-size:100px;"">+</div>",,delaylearn,learning,ITI,LpneGG4dU5PP4iMhfGSCTnGa74v1,LpneGG4dU5PP4iMhfGSCTnGa74v1,,,,,,,,,,,,,,,,,,,1785.0,,,63d19839498b3afe724b69d6,09:41:42,27/02/2024
html-keyboard-response,228,596468,0.0-95.0-0.0,964.5,"<div style=""display: flex; flex-direction: column; align-items: center; margin-top: -40px;""><img src=""images/pattern_4.png"" style=""width: 234px; height: 230px; margin-top: -50px;""><div style=""display: flex; justify-content: space-between; margin-top: 33px;""><img src=""images/choice_trial_11.png"" style=""width: 408px; height: 417px; margin-right: 200px;""><img src=""images/choice_trial_4.png"" style=""width: 408px; height: 417px;""></div></div>",f,delaylearn,learning,trial,LpneGG4dU5PP4iMhfGSCTnGa74v1,LpneGG4dU5PP4iMhfGSCTnGa74v1,5.0,images/choice_trial_11.png,images/choice_trial_4.png,images/pattern_4.png,f,f,7000.0,11.0,4.0,3.0,0.0,41.0,1.0,1.0,11.0,260.0,,,,,,63d19839498b3afe724b69d6,09:41:42,27/02/2024
html-keyboard-response,229,597475,0.0-95.0-1.0,,"<div style=""display: flex; flex-direction: column; align-items: center; margin-top: -40px;""><img src=""images/pattern_4.png"" style=""width: 234px; height: 230px; margin-top: -50px;""><div style=""display: flex; justify-content: space-between; margin-top: 33px;""><img src=""images/choice_trial_11.png"" style=""width: 408px; height: 417px; margin-right: 608px;""></div></div>",,delaylearn,learning,display_response,LpneGG4dU5PP4iMhfGSCTnGa74v1,LpneGG4dU5PP4iMhfGSCTnGa74v1,,,,,,,,,,,,,,,,,chosen stimuli: images/choice_trial_11.png,,,,,63d19839498b3afe724b69d6,09:41:42,27/02/2024
html-keyboard-response,230,604485,0.0-95.0-2.0,,,,delaylearn,learning,feedback_duration_window,LpneGG4dU5PP4iMhfGSCTnGa74v1,LpneGG4dU5PP4iMhfGSCTnGa74v1,,,,,,,,,,,,,,,,,,7000.0,,,,63d19839498b3afe724b69d6,09:41:42,27/02/2024
html-keyboard-response,231,605996,0.0-95.0-3.0,,<div style='margin:auto;width: auto; font-size: 150%'><span style='font-weight: bold; font-size: 100px; color: green;'>+10 points!</span><br><br></div>,,delaylearn,learning,feedback_image_window,LpneGG4dU5PP4iMhfGSCTnGa74v1,LpneGG4dU5PP4iMhfGSCTnGa74v1,,,,,,,,,,,,,,,,,,,,,,63d19839498b3afe724b69d6,09:41:42,27/02/2024
