trial_type,trial_index,time_elapsed,internal_node_id,rt,stimulus,response,exp_name,exp_stage,test_part,subjectID,databaseID,counterbal,choice_stimuli_1,choice_stimuli_2,pattern_stimuli,rewarded_answer,correct_answer,feedback_duration_times,stim_left,stim_right,pair,leftright_counter,trial,response_correct,response_rewarded,chosen_stim,counter,displayed_choice,feedback_durations,ITI_duration,labels,rest_warning,prolificID,start_time,date
pavlovia,0,722,0.0-0.0,,,,,,,KjAuYK4PpoRA3i5LZmkmZDeF8n52,,,,,,,,,,,,,,,,,,,,,,,606f1462c3fcfaeb5c52bec8,16:32:56,27/03/2024
html-keyboard-response,1,3724,0.0-1.0,,"<div style=""font-size:100px;"">+</div>",,delaylearn,learning,pre_fixation,KjAuYK4PpoRA3i5LZmkmZDeF8n52,,,,,,,,,,,,,,,,,,,,,,,606f1462c3fcfaeb5c52bec8,16:32:56,27/03/2024
html-keyboard-response,2,4649,0.0-2.0-0.0,921.7999999523163,"<div style=""display: flex; flex-direction: column; align-items: center; margin-top: -40px;""><img src=""images/demo_images/pattern_1.png"" style=""width: 234px; height: 230px; margin-top: -50px;""><div style=""display: flex; justify-content: space-between; margin-top: 33px;""><img src=""images/demo_images/choice_trial_2.png"" style=""width: 408px; height: 417px; margin-right: 200px;""><img src=""images/demo_images/choice_trial_1.png"" style=""width: 408px; height: 417px;""></div></div>",f,delaylearn,learning,trial,KjAuYK4PpoRA3i5LZmkmZDeF8n52,KjAuYK4PpoRA3i5LZmkmZDeF8n52,2.0,images/demo_images/choice_trial_2.png,images/demo_images/choice_trial_1.png,images/demo_images/pattern_1.png,j,j,3000.0,2.0,1.0,20.0,1.0,1.0,0.0,0.0,2.0,0.0,,,,,,606f1462c3fcfaeb5c52bec8,16:32:56,27/03/2024
html-keyboard-response,3,5653,0.0-2.0-1.0,,"<div style=""display: flex; flex-direction: column; align-items: center; margin-top: -40px;""><img src=""images/demo_images/pattern_1.png"" style=""width: 234px; height: 230px; margin-top: -50px;""><div style=""display: flex; justify-content: space-between; margin-top: 33px;""><img src=""images/demo_images/choice_trial_2.png"" style=""width: 408px; height: 417px; margin-right: 608px;""></div></div>",,delaylearn,learning,display_response,KjAuYK4PpoRA3i5LZmkmZDeF8n52,KjAuYK4PpoRA3i5LZmkmZDeF8n52,,,,,,,,,,,,,,,,,chosen stimuli: images/demo_images/choice_trial_2.png,,,,,606f1462c3fcfaeb5c52bec8,16:32:56,27/03/2024
html-keyboard-response,4,8656,0.0-2.0-2.0,,,,delaylearn,learning,feedback_duration_window,KjAuYK4PpoRA3i5LZmkmZDeF8n52,KjAuYK4PpoRA3i5LZmkmZDeF8n52,,,,,,,,,,,,,,,,,,3000.0,,,,606f1462c3fcfaeb5c52bec8,16:32:56,27/03/2024
html-keyboard-response,5,10159,0.0-2.0-3.0,,<div style='margin:auto;width: auto; font-size: 150%'><span style='font-weight: bold; font-size: 100px; color: red;'>0 points!</span><br><br></div>,,delaylearn,learning,feedback_image_window,KjAuYK4PpoRA3i5LZmkmZDeF8n52,KjAuYK4PpoRA3i5LZmkmZDeF8n52,,,,,,,,,,,,,,,,,,,,,,606f1462c3fcfaeb5c52bec8,16:32:56,27/03/2024
html-keyboard-response,6,11730,0.0-3.0,,"<div style=""font-size:100px;"">+</div>",,delaylearn,learning,ITI,KjAuYK4PpoRA3i5LZmkmZDeF8n52,KjAuYK4PpoRA3i5LZmkmZDeF8n52,,,,,,,,,,,,,,,,,,,1568.0,,,606f1462c3fcfaeb5c52bec8,16:32:56,27/03/2024
html-keyboard-response,7,13079,0.0-4.0-0.0,1345.7999999523163,"<div style=""display: flex; flex-direction: column; align-items: center; margin-top: -40px;""><img src=""images/demo_images/pattern_1.png"" style=""width: 234px; height: 230px; margin-top: -50px;""><div style=""display: flex; justify-content: space-between; margin-top: 33px;""><img src=""images/demo_images/choice_trial_2.png"" style=""width: 408px; height: 417px; margin-right: 200px;""><img src=""images/demo_images/choice_trial_1.png"" style=""width: 408px; height: 417px;""></div></div>",j,delaylearn,learning,trial,KjAuYK4PpoRA3i5LZmkmZDeF8n52,KjAuYK4PpoRA3i5LZmkmZDeF8n52,2.0,images/demo_images/choice_trial_2.png,images/demo_images/choice_trial_1.png,images/demo_images/pattern_1.png,j,j,3000.0,2.0,1.0,20.0,1.0,2.0,1.0,1.0,1.0,10.0,,,,,,606f1462c3fcfaeb5c52bec8,16:32:56,27/03/2024
html-keyboard-response,8,14082,0.0-4.0-1.0,,"<div style=""display: flex; flex-direction: column; align-items: center; margin-top: -40px;""><img src=""images/demo_images/pattern_1.png"" style=""width: 234px; height: 230px; margin-top: -50px;""><div style=""display: flex; justify-content: space-between; margin-top: 33px;""><img src=""images/demo_images/choice_trial_1.png"" style=""width: 408px; height: 417px; margin-left:608px;""></div></div>",,delaylearn,learning,display_response,KjAuYK4PpoRA3i5LZmkmZDeF8n52,KjAuYK4PpoRA3i5LZmkmZDeF8n52,,,,,,,,,,,,,,,,,chosen stimuli: images/demo_images/choice_trial_1.png,,,,,606f1462c3fcfaeb5c52bec8,16:32:56,27/03/2024
html-keyboard-response,9,17085,0.0-4.0-2.0,,,,delaylearn,learning,feedback_duration_window,KjAuYK4PpoRA3i5LZmkmZDeF8n52,KjAuYK4PpoRA3i5LZmkmZDeF8n52,,,,,,,,,,,,,,,,,,3000.0,,,,606f1462c3fcfaeb5c52bec8,16:32:56,27/03/2024
html-keyboard-response,10,18588,0.0-4.0-3.0,,<div style='margin:auto;width: auto; font-size: 150%'><span style='font-weight: bold; font-size: 100px; color: green;'>+10 points!</span><br><br></div>,,delaylearn,learning,feedback_image_window,KjAuYK4PpoRA3i5LZmkmZDeF8n52,KjAuYK4PpoRA3i5LZmkmZDeF8n52,,,,,,,,,,,,,,,,,,,,,,606f1462c3fcfaeb5c52bec8,16:32:56,27/03/2024
html-keyboard-response,11,20691,0.0-5.0,,"<div style=""font-size:100px;"">+</div>",,delaylearn,learning,ITI,KjAuYK4PpoRA3i5LZmkmZDeF8n52,KjAuYK4PpoRA3i5LZmkmZDeF8n52,,,,,,,,,,,,,,,,,,,2101.0,,,606f1462c3fcfaeb5c52bec8,16:32:56,27/03/2024
html-keyboard-response,12,21295,0.0-6.0-0.0,601.3000000715256,"<div style=""display: flex; flex-direction: column; align-items: center; margin-top: -40px;""><img src=""images/demo_images/pattern_1.png"" style=""width: 234px; height: 230px; margin-top: -50px;""><div style=""display: flex; justify-content: space-between; margin-top: 33px;""><img src=""images/demo_images/choice_trial_1.png"" style=""width: 408px; height: 417px; margin-right: 200px;""><img src=""images/demo_images/choice_trial_2.png"" style=""width: 408px; height: 417px;""></div></div>",f,delaylearn,learning,trial,KjAuYK4PpoRA3i5LZmkmZDeF8n52,KjAuYK4PpoRA3i5LZmkmZDeF8n52,2.0,images/demo_images/choice_trial_1.png,images/demo_images/choice_trial_2.png,images/demo_images/pattern_1.png,j,f,3000.0,1.0,2.0,20.0,0.0,3.0,1.0,0.0,1.0,10.0,,,,,,606f1462c3fcfaeb5c52bec8,16:32:56,27/03/2024
html-keyboard-response,13,22299,0.0-6.0-1.0,,"<div style=""display: flex; flex-direction: column; align-items: center; margin-top: -40px;""><img src=""images/demo_images/pattern_1.png"" style=""width: 234px; height: 230px; margin-top: -50px;""><div style=""display: flex; justify-content: space-between; margin-top: 33px;""><img src=""images/demo_images/choice_trial_1.png"" style=""width: 408px; height: 417px; margin-right: 608px;""></div></div>",,delaylearn,learning,display_response,KjAuYK4PpoRA3i5LZmkmZDeF8n52,KjAuYK4PpoRA3i5LZmkmZDeF8n52,,,,,,,,,,,,,,,,,chosen stimuli: images/demo_images/choice_trial_1.png,,,,,606f1462c3fcfaeb5c52bec8,16:32:56,27/03/2024
html-keyboard-response,14,25302,0.0-6.0-2.0,,,,delaylearn,learning,feedback_duration_window,KjAuYK4PpoRA3i5LZmkmZDeF8n52,KjAuYK4PpoRA3i5LZmkmZDeF8n52,,,,,,,,,,,,,,,,,,3000.0,,,,606f1462c3fcfaeb5c52bec8,16:32:56,27/03/2024
html-keyboard-response,15,26805,0.0-6.0-3.0,,<div style='margin:auto;width: auto; font-size: 150%'><span style='font-weight: bold; font-size: 100px; color: red;'>0 points!</span><br><br></div>,,delaylearn,learning,feedback_image_window,KjAuYK4PpoRA3i5LZmkmZDeF8n52,KjAuYK4PpoRA3i5LZmkmZDeF8n52,,,,,,,,,,,,,,,,,,,,,,606f1462c3fcfaeb5c52bec8,16:32:56,27/03/2024
html-keyboard-response,16,29110,0.0-7.0,,"<div style=""font-size:100px;"">+</div>",,delaylearn,learning,ITI,KjAuYK4PpoRA3i5LZmkmZDeF8n52,KjAuYK4PpoRA3i5LZmkmZDeF8n52,,,,,,,,,,,,,,,,,,,2303.0,,,606f1462c3fcfaeb5c52bec8,16:32:56,27/03/2024
html-keyboard-response,17,29885,0.0-8.0-0.0,772.6999999284744,"<div style=""display: flex; flex-direction: column; align-items: center; margin-top: -40px;""><img src=""images/demo_images/pattern_1.png"" style=""width: 234px; height: 230px; margin-top: -50px;""><div style=""display: flex; justify-content: space-between; margin-top: 33px;""><img src=""images/demo_images/choice_trial_1.png"" style=""width: 408px; height: 417px; margin-right: 200px;""><img src=""images/demo_images/choice_trial_2.png"" style=""width: 408px; height: 417px;""></div></div>",f,delaylearn,learning,trial,KjAuYK4PpoRA3i5LZmkmZDeF8n52,KjAuYK4PpoRA3i5LZmkmZDeF8n52,2.0,images/demo_images/choice_trial_1.png,images/demo_images/choice_trial_2.png,images/demo_images/pattern_1.png,f,f,3000.0,1.0,2.0,20.0,0.0,4.0,1.0,1.0,1.0,20.0,,,,,,606f1462c3fcfaeb5c52bec8,16:32:56,27/03/2024
html-keyboard-response,18,30888,0.0-8.0-1.0,,"<div style=""display: flex; flex-direction: column; align-items: center; margin-top: -40px;""><img src=""images/demo_images/pattern_1.png"" style=""width: 234px; height: 230px; margin-top: -50px;""><div style=""display: flex; justify-content: space-between; margin-top: 33px;""><img src=""images/demo_images/choice_trial_1.png"" style=""width: 408px; height: 417px; margin-right: 608px;""></div></div>",,delaylearn,learning,display_response,KjAuYK4PpoRA3i5LZmkmZDeF8n52,KjAuYK4PpoRA3i5LZmkmZDeF8n52,,,,,,,,,,,,,,,,,chosen stimuli: images/demo_images/choice_trial_1.png,,,,,606f1462c3fcfaeb5c52bec8,16:32:56,27/03/2024
html-keyboard-response,19,33891,0.0-8.0-2.0,,,,delaylearn,learning,feedback_duration_window,KjAuYK4PpoRA3i5LZmkmZDeF8n52,KjAuYK4PpoRA3i5LZmkmZDeF8n52,,,,,,,,,,,,,,,,,,3000.0,,,,606f1462c3fcfaeb5c52bec8,16:32:56,27/03/2024
html-keyboard-response,20,35393,0.0-8.0-3.0,,<div style='margin:auto;width: auto; font-size: 150%'><span style='font-weight: bold; font-size: 100px; color: green;'>+10 points!</span><br><br></div>,,delaylearn,learning,feedback_image_window,KjAuYK4PpoRA3i5LZmkmZDeF8n52,KjAuYK4PpoRA3i5LZmkmZDeF8n52,,,,,,,,,,,,,,,,,,,,,,606f1462c3fcfaeb5c52bec8,16:32:56,27/03/2024
html-keyboard-response,21,35895,0.0-9.0-0.0,,,,,,mood_trial_fixation,KjAuYK4PpoRA3i5LZmkmZDeF8n52,,,,,,,,,,,,,,,,,,,,,,,606f1462c3fcfaeb5c52bec8,16:32:56,27/03/2024
lmdlab-html-vas-response,22,40434,0.0-9.0-1.0,3524.0,How happy are you right now?,0.4925925925925926,delaylearn,learning,mood_trial,KjAuYK4PpoRA3i5LZmkmZDeF8n52,KjAuYK4PpoRA3i5LZmkmZDeF8n52,,,,,,,,,,,,,,,,,,,,"['Very unhappy', 'Very happy']",,606f1462c3fcfaeb5c52bec8,16:32:56,27/03/2024
html-keyboard-response,23,42011,0.0-10.0,,"<div style=""font-size:100px;"">+</div>",,delaylearn,learning,ITI,KjAuYK4PpoRA3i5LZmkmZDeF8n52,KjAuYK4PpoRA3i5LZmkmZDeF8n52,,,,,,,,,,,,,,,,,,,1576.0,,,606f1462c3fcfaeb5c52bec8,16:32:56,27/03/2024
html-keyboard-response,24,43107,0.0-11.0-0.0,1093.3000000715256,"<div style=""display: flex; flex-direction: column; align-items: center; margin-top: -40px;""><img src=""images/demo_images/pattern_1.png"" style=""width: 234px; height: 230px; margin-top: -50px;""><div style=""display: flex; justify-content: space-between; margin-top: 33px;""><img src=""images/demo_images/choice_trial_2.png"" style=""width: 408px; height: 417px; margin-right: 200px;""><img src=""images/demo_images/choice_trial_1.png"" style=""width: 408px; height: 417px;""></div></div>",j,delaylearn,learning,trial,KjAuYK4PpoRA3i5LZmkmZDeF8n52,KjAuYK4PpoRA3i5LZmkmZDeF8n52,2.0,images/demo_images/choice_trial_2.png,images/demo_images/choice_trial_1.png,images/demo_images/pattern_1.png,j,j,3000.0,2.0,1.0,20.0,1.0,5.0,1.0,1.0,1.0,30.0,,,,,,606f1462c3fcfaeb5c52bec8,16:32:56,27/03/2024
html-keyboard-response,25,44111,0.0-11.0-1.0,,"<div style=""display: flex; flex-direction: column; align-items: center; margin-top: -40px;""><img src=""images/demo_images/pattern_1.png"" style=""width: 234px; height: 230px; margin-top: -50px;""><div style=""display: flex; justify-content: space-between; margin-top: 33px;""><img src=""images/demo_images/choice_trial_1.png"" style=""width: 408px; height: 417px; margin-left:608px;""></div></div>",,delaylearn,learning,display_response,KjAuYK4PpoRA3i5LZmkmZDeF8n52,KjAuYK4PpoRA3i5LZmkmZDeF8n52,,,,,,,,,,,,,,,,,chosen stimuli: images/demo_images/choice_trial_1.png,,,,,606f1462c3fcfaeb5c52bec8,16:32:56,27/03/2024
html-keyboard-response,26,47114,0.0-11.0-2.0,,,,delaylearn,learning,feedback_duration_window,KjAuYK4PpoRA3i5LZmkmZDeF8n52,KjAuYK4PpoRA3i5LZmkmZDeF8n52,,,,,,,,,,,,,,,,,,3000.0,,,,606f1462c3fcfaeb5c52bec8,16:32:56,27/03/2024
html-keyboard-response,27,48617,0.0-11.0-3.0,,<div style='margin:auto;width: auto; font-size: 150%'><span style='font-weight: bold; font-size: 100px; color: green;'>+10 points!</span><br><br></div>,,delaylearn,learning,feedback_image_window,KjAuYK4PpoRA3i5LZmkmZDeF8n52,KjAuYK4PpoRA3i5LZmkmZDeF8n52,,,,,,,,,,,,,,,,,,,,,,606f1462c3fcfaeb5c52bec8,16:32:56,27/03/2024
html-keyboard-response,28,50726,0.0-12.0,,"<div style=""font-size:100px;"">+</div>",,delaylearn,learning,ITI,KjAuYK4PpoRA3i5LZmkmZDeF8n52,KjAuYK4PpoRA3i5LZmkmZDeF8n52,,,,,,,,,,,,,,,,,,,2107.0,,,606f1462c3fcfaeb5c52bec8,16:32:56,27/03/2024
html-keyboard-response,29,51787,0.0-13.0-0.0,1058.3999999761581,"<div style=""display: flex; flex-direction: column; align-items: center; margin-top: -40px;""><img src=""images/demo_images/pattern_1.png"" style=""width: 234px; height: 230px; margin-top: -50px;""><div style=""display: flex; justify-content: space-between; margin-top: 33px;""><img src=""images/demo_images/choice_trial_1.png"" style=""width: 408px; height: 417px; margin-right: 200px;""><img src=""images/demo_images/choice_trial_2.png"" style=""width: 408px; height: 417px;""></div></div>",f,delaylearn,learning,trial,KjAuYK4PpoRA3i5LZmkmZDeF8n52,KjAuYK4PpoRA3i5LZmkmZDeF8n52,2.0,images/demo_images/choice_trial_1.png,images/demo_images/choice_trial_2.png,images/demo_images/pattern_1.png,f,f,3000.0,1.0,2.0,20.0,0.0,6.0,1.0,1.0,1.0,40.0,,,,,,606f1462c3fcfaeb5c52bec8,16:32:56,27/03/2024
html-keyboard-response,30,52790,0.0-13.0-1.0,,"<div style=""display: flex; flex-direction: column; align-items: center; margin-top: -40px;""><img src=""images/demo_images/pattern_1.png"" style=""width: 234px; height: 230px; margin-top: -50px;""><div style=""display: flex; justify-content: space-between; margin-top: 33px;""><img src=""images/demo_images/choice_trial_1.png"" style=""width: 408px; height: 417px; margin-right: 608px;""></div></div>",,delaylearn,learning,display_response,KjAuYK4PpoRA3i5LZmkmZDeF8n52,KjAuYK4PpoRA3i5LZmkmZDeF8n52,,,,,,,,,,,,,,,,,chosen stimuli: images/demo_images/choice_trial_1.png,,,,,606f1462c3fcfaeb5c52bec8,16:32:56,27/03/2024
html-keyboard-response,31,55792,0.0-13.0-2.0,,,,delaylearn,learning,feedback_duration_window,KjAuYK4PpoRA3i5LZmkmZDeF8n52,KjAuYK4PpoRA3i5LZmkmZDeF8n52,,,,,,,,,,,,,,,,,,3000.0,,,,606f1462c3fcfaeb5c52bec8,16:32:56,27/03/2024
html-keyboard-response,32,57296,0.0-13.0-3.0,,<div style='margin:auto;width: auto; font-size: 150%'><span style='font-weight: bold; font-size: 100px; color: green;'>+10 points!</span><br><br></div>,,delaylearn,learning,feedback_image_window,KjAuYK4PpoRA3i5LZmkmZDeF8n52,KjAuYK4PpoRA3i5LZmkmZDeF8n52,,,,,,,,,,,,,,,,,,,,,,606f1462c3fcfaeb5c52bec8,16:32:56,27/03/2024
html-keyboard-response,33,59789,0.0-14.0,,"<div style=""font-size:100px;"">+</div>",,delaylearn,learning,ITI,KjAuYK4PpoRA3i5LZmkmZDeF8n52,KjAuYK4PpoRA3i5LZmkmZDeF8n52,,,,,,,,,,,,,,,,,,,2490.0,,,606f1462c3fcfaeb5c52bec8,16:32:56,27/03/2024
html-keyboard-response,34,60433,0.0-15.0-0.0,641.8000000715256,"<div style=""display: flex; flex-direction: column; align-items: center; margin-top: -40px;""><img src=""images/demo_images/pattern_1.png"" style=""width: 234px; height: 230px; margin-top: -50px;""><div style=""display: flex; justify-content: space-between; margin-top: 33px;""><img src=""images/demo_images/choice_trial_2.png"" style=""width: 408px; height: 417px; margin-right: 200px;""><img src=""images/demo_images/choice_trial_1.png"" style=""width: 408px; height: 417px;""></div></div>",j,delaylearn,learning,trial,KjAuYK4PpoRA3i5LZmkmZDeF8n52,KjAuYK4PpoRA3i5LZmkmZDeF8n52,2.0,images/demo_images/choice_trial_2.png,images/demo_images/choice_trial_1.png,images/demo_images/pattern_1.png,j,j,3000.0,2.0,1.0,20.0,1.0,7.0,1.0,1.0,1.0,50.0,,,,,,606f1462c3fcfaeb5c52bec8,16:32:56,27/03/2024
html-keyboard-response,35,61436,0.0-15.0-1.0,,"<div style=""display: flex; flex-direction: column; align-items: center; margin-top: -40px;""><img src=""images/demo_images/pattern_1.png"" style=""width: 234px; height: 230px; margin-top: -50px;""><div style=""display: flex; justify-content: space-between; margin-top: 33px;""><img src=""images/demo_images/choice_trial_1.png"" style=""width: 408px; height: 417px; margin-left:608px;""></div></div>",,delaylearn,learning,display_response,KjAuYK4PpoRA3i5LZmkmZDeF8n52,KjAuYK4PpoRA3i5LZmkmZDeF8n52,,,,,,,,,,,,,,,,,chosen stimuli: images/demo_images/choice_trial_1.png,,,,,606f1462c3fcfaeb5c52bec8,16:32:56,27/03/2024
html-keyboard-response,36,64439,0.0-15.0-2.0,,,,delaylearn,learning,feedback_duration_window,KjAuYK4PpoRA3i5LZmkmZDeF8n52,KjAuYK4PpoRA3i5LZmkmZDeF8n52,,,,,,,,,,,,,,,,,,3000.0,,,,606f1462c3fcfaeb5c52bec8,16:32:56,27/03/2024
html-keyboard-response,37,65942,0.0-15.0-3.0,,<div style='margin:auto;width: auto; font-size: 150%'><span style='font-weight: bold; font-size: 100px; color: green;'>+10 points!</span><br><br></div>,,delaylearn,learning,feedback_image_window,KjAuYK4PpoRA3i5LZmkmZDeF8n52,KjAuYK4PpoRA3i5LZmkmZDeF8n52,,,,,,,,,,,,,,,,,,,,,,606f1462c3fcfaeb5c52bec8,16:32:56,27/03/2024
html-keyboard-response,38,67776,0.0-16.0,,"<div style=""font-size:100px;"">+</div>",,delaylearn,learning,ITI,KjAuYK4PpoRA3i5LZmkmZDeF8n52,KjAuYK4PpoRA3i5LZmkmZDeF8n52,,,,,,,,,,,,,,,,,,,1832.0,,,606f1462c3fcfaeb5c52bec8,16:32:56,27/03/2024
html-keyboard-response,39,68330,0.0-17.0-0.0,550.7999999523163,"<div style=""display: flex; flex-direction: column; align-items: center; margin-top: -40px;""><img src=""images/demo_images/pattern_1.png"" style=""width: 234px; height: 230px; margin-top: -50px;""><div style=""display: flex; justify-content: space-between; margin-top: 33px;""><img src=""images/demo_images/choice_trial_1.png"" style=""width: 408px; height: 417px; margin-right: 200px;""><img src=""images/demo_images/choice_trial_2.png"" style=""width: 408px; height: 417px;""></div></div>",f,delaylearn,learning,trial,KjAuYK4PpoRA3i5LZmkmZDeF8n52,KjAuYK4PpoRA3i5LZmkmZDeF8n52,2.0,images/demo_images/choice_trial_1.png,images/demo_images/choice_trial_2.png,images/demo_images/pattern_1.png,f,f,3000.0,1.0,2.0,20.0,0.0,8.0,1.0,1.0,1.0,60.0,,,,,,606f1462c3fcfaeb5c52bec8,16:32:56,27/03/2024
html-keyboard-response,40,69333,0.0-17.0-1.0,,"<div style=""display: flex; flex-direction: column; align-items: center; margin-top: -40px;""><img src=""images/demo_images/pattern_1.png"" style=""width: 234px; height: 230px; margin-top: -50px;""><div style=""display: flex; justify-content: space-between; margin-top: 33px;""><img src=""images/demo_images/choice_trial_1.png"" style=""width: 408px; height: 417px; margin-right: 608px;""></div></div>",,delaylearn,learning,display_response,KjAuYK4PpoRA3i5LZmkmZDeF8n52,KjAuYK4PpoRA3i5LZmkmZDeF8n52,,,,,,,,,,,,,,,,,chosen stimuli: images/demo_images/choice_trial_1.png,,,,,606f1462c3fcfaeb5c52bec8,16:32:56,27/03/2024
html-keyboard-response,41,72336,0.0-17.0-2.0,,,,delaylearn,learning,feedback_duration_window,KjAuYK4PpoRA3i5LZmkmZDeF8n52,KjAuYK4PpoRA3i5LZmkmZDeF8n52,,,,,,,,,,,,,,,,,,3000.0,,,,606f1462c3fcfaeb5c52bec8,16:32:56,27/03/2024
html-keyboard-response,42,73839,0.0-17.0-3.0,,<div style='margin:auto;width: auto; font-size: 150%'><span style='font-weight: bold; font-size: 100px; color: green;'>+10 points!</span><br><br></div>,,delaylearn,learning,feedback_image_window,KjAuYK4PpoRA3i5LZmkmZDeF8n52,KjAuYK4PpoRA3i5LZmkmZDeF8n52,,,,,,,,,,,,,,,,,,,,,,606f1462c3fcfaeb5c52bec8,16:32:56,27/03/2024
html-button-response,43,75908,0.0-18.0,2066.899999976158,"
  <div style=""display: flex; align-items: center; justify-content: center; height: 80vh;"">
  <div>
          <img src=""images/inst_demo_finish.png"" style=""width: 80vw; height:auto;"">
          <br><br>
      </div>
      <br><br>
  </div>",0,,,,KjAuYK4PpoRA3i5LZmkmZDeF8n52,,,,,,,,,,,,,,,,,,,,,,,606f1462c3fcfaeb5c52bec8,16:32:56,27/03/2024
html-keyboard-response,44,80074,0.0-19.0,4164.299999952316,"
  <div style=""display: flex; align-items: center; justify-content: center; height: 80vh;"">
  <div>
          <img src=""images/inst_6.png"" style=""width: 80vw; height:auto;"">
          <br><br>
      </div>
      <br><br>
  </div>",j,,,,KjAuYK4PpoRA3i5LZmkmZDeF8n52,,,,,,,,,,,,,,,,,,,,,,,606f1462c3fcfaeb5c52bec8,16:32:56,27/03/2024
html-keyboard-response,45,83076,0.0-20.0,,"<div style=""font-size:100px;"">+</div>",,delaylearn,learning,pre_fixation,KjAuYK4PpoRA3i5LZmkmZDeF8n52,,,,,,,,,,,,,,,,,,,,,,,606f1462c3fcfaeb5c52bec8,16:32:56,27/03/2024
html-keyboard-response,46,85570,0.0-21.0,,"<div style=""font-size:100px;"">+</div>",,delaylearn,learning,ITI,KjAuYK4PpoRA3i5LZmkmZDeF8n52,KjAuYK4PpoRA3i5LZmkmZDeF8n52,,,,,,,,,,,,,,,,,,,2490.0,,,606f1462c3fcfaeb5c52bec8,16:32:56,27/03/2024
html-keyboard-response,47,86397,0.0-22.0-0.0,824.4000000953674,"<div style=""display: flex; flex-direction: column; align-items: center; margin-top: -40px;""><img src=""images/pattern_3.png"" style=""width: 234px; height: 230px; margin-top: -50px;""><div style=""display: flex; justify-content: space-between; margin-top: 33px;""><img src=""images/choice_trial_12.png"" style=""width: 408px; height: 417px; margin-right: 200px;""><img src=""images/choice_trial_14.png"" style=""width: 408px; height: 417px;""></div></div>",j,delaylearn,learning,trial,KjAuYK4PpoRA3i5LZmkmZDeF8n52,KjAuYK4PpoRA3i5LZmkmZDeF8n52,2.0,images/choice_trial_12.png,images/choice_trial_14.png,images/pattern_3.png,f,f,7000.0,12.0,14.0,2.0,0.0,9.0,0.0,0.0,14.0,60.0,,,,,,606f1462c3fcfaeb5c52bec8,16:32:56,27/03/2024
html-keyboard-response,48,87401,0.0-22.0-1.0,,"<div style=""display: flex; flex-direction: column; align-items: center; margin-top: -40px;""><img src=""images/pattern_3.png"" style=""width: 234px; height: 230px; margin-top: -50px;""><div style=""display: flex; justify-content: space-between; margin-top: 33px;""><img src=""images/choice_trial_14.png"" style=""width: 408px; height: 417px; margin-left:608px;""></div></div>",,delaylearn,learning,display_response,KjAuYK4PpoRA3i5LZmkmZDeF8n52,KjAuYK4PpoRA3i5LZmkmZDeF8n52,,,,,,,,,,,,,,,,,chosen stimuli: images/choice_trial_14.png,,,,,606f1462c3fcfaeb5c52bec8,16:32:56,27/03/2024
html-keyboard-response,49,94405,0.0-22.0-2.0,,,,delaylearn,learning,feedback_duration_window,KjAuYK4PpoRA3i5LZmkmZDeF8n52,KjAuYK4PpoRA3i5LZmkmZDeF8n52,,,,,,,,,,,,,,,,,,7000.0,,,,606f1462c3fcfaeb5c52bec8,16:32:56,27/03/2024
html-keyboard-response,50,95907,0.0-22.0-3.0,,<div style='margin:auto;width: auto; font-size: 150%'><span style='font-weight: bold; font-size: 100px; color: red;'>0 points!</span><br><br></div>,,delaylearn,learning,feedback_image_window,KjAuYK4PpoRA3i5LZmkmZDeF8n52,KjAuYK4PpoRA3i5LZmkmZDeF8n52,,,,,,,,,,,,,,,,,,,,,,606f1462c3fcfaeb5c52bec8,16:32:56,27/03/2024
html-keyboard-response,51,97965,0.0-23.0,,"<div style=""font-size:100px;"">+</div>",,delaylearn,learning,ITI,KjAuYK4PpoRA3i5LZmkmZDeF8n52,KjAuYK4PpoRA3i5LZmkmZDeF8n52,,,,,,,,,,,,,,,,,,,2054.0,,,606f1462c3fcfaeb5c52bec8,16:32:56,27/03/2024
html-keyboard-response,52,99476,0.0-24.0-0.0,1508.2999999523163,"<div style=""display: flex; flex-direction: column; align-items: center; margin-top: -40px;""><img src=""images/pattern_7.png"" style=""width: 234px; height: 230px; margin-top: -50px;""><div style=""display: flex; justify-content: space-between; margin-top: 33px;""><img src=""images/choice_trial_15.png"" style=""width: 408px; height: 417px; margin-right: 200px;""><img src=""images/choice_trial_8.png"" style=""width: 408px; height: 417px;""></div></div>",f,delaylearn,learning,trial,KjAuYK4PpoRA3i5LZmkmZDeF8n52,KjAuYK4PpoRA3i5LZmkmZDeF8n52,2.0,images/choice_trial_15.png,images/choice_trial_8.png,images/pattern_7.png,j,j,750.0,15.0,8.0,6.0,1.0,10.0,0.0,0.0,15.0,60.0,,,,,,606f1462c3fcfaeb5c52bec8,16:32:56,27/03/2024
html-keyboard-response,53,100479,0.0-24.0-1.0,,"<div style=""display: flex; flex-direction: column; align-items: center; margin-top: -40px;""><img src=""images/pattern_7.png"" style=""width: 234px; height: 230px; margin-top: -50px;""><div style=""display: flex; justify-content: space-between; margin-top: 33px;""><img src=""images/choice_trial_15.png"" style=""width: 408px; height: 417px; margin-right: 608px;""></div></div>",,delaylearn,learning,display_response,KjAuYK4PpoRA3i5LZmkmZDeF8n52,KjAuYK4PpoRA3i5LZmkmZDeF8n52,,,,,,,,,,,,,,,,,chosen stimuli: images/choice_trial_15.png,,,,,606f1462c3fcfaeb5c52bec8,16:32:56,27/03/2024
html-keyboard-response,54,101232,0.0-24.0-2.0,,,,delaylearn,learning,feedback_duration_window,KjAuYK4PpoRA3i5LZmkmZDeF8n52,KjAuYK4PpoRA3i5LZmkmZDeF8n52,,,,,,,,,,,,,,,,,,750.0,,,,606f1462c3fcfaeb5c52bec8,16:32:56,27/03/2024
html-keyboard-response,55,102734,0.0-24.0-3.0,,<div style='margin:auto;width: auto; font-size: 150%'><span style='font-weight: bold; font-size: 100px; color: red;'>0 points!</span><br><br></div>,,delaylearn,learning,feedback_image_window,KjAuYK4PpoRA3i5LZmkmZDeF8n52,KjAuYK4PpoRA3i5LZmkmZDeF8n52,,,,,,,,,,,,,,,,,,,,,,606f1462c3fcfaeb5c52bec8,16:32:56,27/03/2024
html-keyboard-response,56,105134,0.0-25.0,,"<div style=""font-size:100px;"">+</div>",,delaylearn,learning,ITI,KjAuYK4PpoRA3i5LZmkmZDeF8n52,KjAuYK4PpoRA3i5LZmkmZDeF8n52,,,,,,,,,,,,,,,,,,,2398.0,,,606f1462c3fcfaeb5c52bec8,16:32:56,27/03/2024
html-keyboard-response,57,106475,0.0-26.0-0.0,1338.5,"<div style=""display: flex; flex-direction: column; align-items: center; margin-top: -40px;""><img src=""images/pattern_4.png"" style=""width: 234px; height: 230px; margin-top: -50px;""><div style=""display: flex; justify-content: space-between; margin-top: 33px;""><img src=""images/choice_trial_4.png"" style=""width: 408px; height: 417px; margin-right: 200px;""><img src=""images/choice_trial_16.png"" style=""width: 408px; height: 417px;""></div></div>",j,delaylearn,learning,trial,KjAuYK4PpoRA3i5LZmkmZDeF8n52,KjAuYK4PpoRA3i5LZmkmZDeF8n52,2.0,images/choice_trial_4.png,images/choice_trial_16.png,images/pattern_4.png,f,f,7000.0,4.0,16.0,3.0,0.0,11.0,0.0,0.0,16.0,60.0,,,,,,606f1462c3fcfaeb5c52bec8,16:32:56,27/03/2024
html-keyboard-response,58,107478,0.0-26.0-1.0,,"<div style=""display: flex; flex-direction: column; align-items: center; margin-top: -40px;""><img src=""images/pattern_4.png"" style=""width: 234px; height: 230px; margin-top: -50px;""><div style=""display: flex; justify-content: space-between; margin-top: 33px;""><img src=""images/choice_trial_16.png"" style=""width: 408px; height: 417px; margin-left:608px;""></div></div>",,delaylearn,learning,display_response,KjAuYK4PpoRA3i5LZmkmZDeF8n52,KjAuYK4PpoRA3i5LZmkmZDeF8n52,,,,,,,,,,,,,,,,,chosen stimuli: images/choice_trial_16.png,,,,,606f1462c3fcfaeb5c52bec8,16:32:56,27/03/2024
html-keyboard-response,59,114482,0.0-26.0-2.0,,,,delaylearn,learning,feedback_duration_window,KjAuYK4PpoRA3i5LZmkmZDeF8n52,KjAuYK4PpoRA3i5LZmkmZDeF8n52,,,,,,,,,,,,,,,,,,7000.0,,,,606f1462c3fcfaeb5c52bec8,16:32:56,27/03/2024
html-keyboard-response,60,115985,0.0-26.0-3.0,,<div style='margin:auto;width: auto; font-size: 150%'><span style='font-weight: bold; font-size: 100px; color: red;'>0 points!</span><br><br></div>,,delaylearn,learning,feedback_image_window,KjAuYK4PpoRA3i5LZmkmZDeF8n52,KjAuYK4PpoRA3i5LZmkmZDeF8n52,,,,,,,,,,,,,,,,,,,,,,606f1462c3fcfaeb5c52bec8,16:32:56,27/03/2024
html-keyboard-response,61,117547,0.0-27.0,,"<div style=""font-size:100px;"">+</div>",,delaylearn,learning,ITI,KjAuYK4PpoRA3i5LZmkmZDeF8n52,KjAuYK4PpoRA3i5LZmkmZDeF8n52,,,,,,,,,,,,,,,,,,,1559.0,,,606f1462c3fcfaeb5c52bec8,16:32:56,27/03/2024
html-keyboard-response,62,118969,0.0-28.0-0.0,1419.8999999761581,"<div style=""display: flex; flex-direction: column; align-items: center; margin-top: -40px;""><img src=""images/pattern_5.png"" style=""width: 234px; height: 230px; margin-top: -50px;""><div style=""display: flex; justify-content: space-between; margin-top: 33px;""><img src=""images/choice_trial_9.png"" style=""width: 408px; height: 417px; margin-right: 200px;""><img src=""images/choice_trial_2.png"" style=""width: 408px; height: 417px;""></div></div>",j,delaylearn,learning,trial,KjAuYK4PpoRA3i5LZmkmZDeF8n52,KjAuYK4PpoRA3i5LZmkmZDeF8n52,2.0,images/choice_trial_9.png,images/choice_trial_2.png,images/pattern_5.png,j,j,750.0,9.0,2.0,4.0,1.0,12.0,1.0,1.0,2.0,70.0,,,,,,606f1462c3fcfaeb5c52bec8,16:32:56,27/03/2024
html-keyboard-response,63,119972,0.0-28.0-1.0,,"<div style=""display: flex; flex-direction: column; align-items: center; margin-top: -40px;""><img src=""images/pattern_5.png"" style=""width: 234px; height: 230px; margin-top: -50px;""><div style=""display: flex; justify-content: space-between; margin-top: 33px;""><img src=""images/choice_trial_2.png"" style=""width: 408px; height: 417px; margin-left:608px;""></div></div>",,delaylearn,learning,display_response,KjAuYK4PpoRA3i5LZmkmZDeF8n52,KjAuYK4PpoRA3i5LZmkmZDeF8n52,,,,,,,,,,,,,,,,,chosen stimuli: images/choice_trial_2.png,,,,,606f1462c3fcfaeb5c52bec8,16:32:56,27/03/2024
html-keyboard-response,64,120724,0.0-28.0-2.0,,,,delaylearn,learning,feedback_duration_window,KjAuYK4PpoRA3i5LZmkmZDeF8n52,KjAuYK4PpoRA3i5LZmkmZDeF8n52,,,,,,,,,,,,,,,,,,750.0,,,,606f1462c3fcfaeb5c52bec8,16:32:56,27/03/2024
html-keyboard-response,65,122227,0.0-28.0-3.0,,<div style='margin:auto;width: auto; font-size: 150%'><span style='font-weight: bold; font-size: 100px; color: green;'>+10 points!</span><br><br></div>,,delaylearn,learning,feedback_image_window,KjAuYK4PpoRA3i5LZmkmZDeF8n52,KjAuYK4PpoRA3i5LZmkmZDeF8n52,,,,,,,,,,,,,,,,,,,,,,606f1462c3fcfaeb5c52bec8,16:32:56,27/03/2024
html-keyboard-response,66,124247,0.0-29.0,,"<div style=""font-size:100px;"">+</div>",,delaylearn,learning,ITI,KjAuYK4PpoRA3i5LZmkmZDeF8n52,KjAuYK4PpoRA3i5LZmkmZDeF8n52,,,,,,,,,,,,,,,,,,,2018.0,,,606f1462c3fcfaeb5c52bec8,16:32:56,27/03/2024
html-keyboard-response,67,125475,0.0-30.0-0.0,1225.7000000476837,"<div style=""display: flex; flex-direction: column; align-items: center; margin-top: -40px;""><img src=""images/pattern_6.png"" style=""width: 234px; height: 230px; margin-top: -50px;""><div style=""display: flex; justify-content: space-between; margin-top: 33px;""><img src=""images/choice_trial_11.png"" style=""width: 408px; height: 417px; margin-right: 200px;""><img src=""images/choice_trial_5.png"" style=""width: 408px; height: 417px;""></div></div>",j,delaylearn,learning,trial,KjAuYK4PpoRA3i5LZmkmZDeF8n52,KjAuYK4PpoRA3i5LZmkmZDeF8n52,2.0,images/choice_trial_11.png,images/choice_trial_5.png,images/pattern_6.png,j,f,750.0,11.0,5.0,5.0,0.0,13.0,0.0,1.0,5.0,80.0,,,,,,606f1462c3fcfaeb5c52bec8,16:32:56,27/03/2024
html-keyboard-response,68,126479,0.0-30.0-1.0,,"<div style=""display: flex; flex-direction: column; align-items: center; margin-top: -40px;""><img src=""images/pattern_6.png"" style=""width: 234px; height: 230px; margin-top: -50px;""><div style=""display: flex; justify-content: space-between; margin-top: 33px;""><img src=""images/choice_trial_5.png"" style=""width: 408px; height: 417px; margin-left:608px;""></div></div>",,delaylearn,learning,display_response,KjAuYK4PpoRA3i5LZmkmZDeF8n52,KjAuYK4PpoRA3i5LZmkmZDeF8n52,,,,,,,,,,,,,,,,,chosen stimuli: images/choice_trial_5.png,,,,,606f1462c3fcfaeb5c52bec8,16:32:56,27/03/2024
html-keyboard-response,69,127232,0.0-30.0-2.0,,,,delaylearn,learning,feedback_duration_window,KjAuYK4PpoRA3i5LZmkmZDeF8n52,KjAuYK4PpoRA3i5LZmkmZDeF8n52,,,,,,,,,,,,,,,,,,750.0,,,,606f1462c3fcfaeb5c52bec8,16:32:56,27/03/2024
html-keyboard-response,70,128735,0.0-30.0-3.0,,<div style='margin:auto;width: auto; font-size: 150%'><span style='font-weight: bold; font-size: 100px; color: green;'>+10 points!</span><br><br></div>,,delaylearn,learning,feedback_image_window,KjAuYK4PpoRA3i5LZmkmZDeF8n52,KjAuYK4PpoRA3i5LZmkmZDeF8n52,,,,,,,,,,,,,,,,,,,,,,606f1462c3fcfaeb5c52bec8,16:32:56,27/03/2024
html-keyboard-response,71,129237,0.0-31.0-0.0,,,,,,mood_trial_fixation,KjAuYK4PpoRA3i5LZmkmZDeF8n52,,,,,,,,,,,,,,,,,,,,,,,606f1462c3fcfaeb5c52bec8,16:32:56,27/03/2024
lmdlab-html-vas-response,72,133536,0.0-31.0-1.0,3293.0,How happy are you right now?,0.5074074074074074,delaylearn,learning,mood_trial,KjAuYK4PpoRA3i5LZmkmZDeF8n52,KjAuYK4PpoRA3i5LZmkmZDeF8n52,,,,,,,,,,,,,,,,,,,,"['Very unhappy', 'Very happy']",,606f1462c3fcfaeb5c52bec8,16:32:56,27/03/2024
html-keyboard-response,73,135644,0.0-32.0,,"<div style=""font-size:100px;"">+</div>",,delaylearn,learning,ITI,KjAuYK4PpoRA3i5LZmkmZDeF8n52,KjAuYK4PpoRA3i5LZmkmZDeF8n52,,,,,,,,,,,,,,,,,,,2104.0,,,606f1462c3fcfaeb5c52bec8,16:32:56,27/03/2024
html-keyboard-response,74,136881,0.0-33.0-0.0,1234.6000000238419,"<div style=""display: flex; flex-direction: column; align-items: center; margin-top: -40px;""><img src=""images/pattern_1.png"" style=""width: 234px; height: 230px; margin-top: -50px;""><div style=""display: flex; justify-content: space-between; margin-top: 33px;""><img src=""images/choice_trial_10.png"" style=""width: 408px; height: 417px; margin-right: 200px;""><img src=""images/choice_trial_3.png"" style=""width: 408px; height: 417px;""></div></div>",j,delaylearn,learning,trial,KjAuYK4PpoRA3i5LZmkmZDeF8n52,KjAuYK4PpoRA3i5LZmkmZDeF8n52,2.0,images/choice_trial_10.png,images/choice_trial_3.png,images/pattern_1.png,j,j,7000.0,10.0,3.0,1.0,1.0,14.0,1.0,1.0,3.0,90.0,,,,,,606f1462c3fcfaeb5c52bec8,16:32:56,27/03/2024
html-keyboard-response,75,137884,0.0-33.0-1.0,,"<div style=""display: flex; flex-direction: column; align-items: center; margin-top: -40px;""><img src=""images/pattern_1.png"" style=""width: 234px; height: 230px; margin-top: -50px;""><div style=""display: flex; justify-content: space-between; margin-top: 33px;""><img src=""images/choice_trial_3.png"" style=""width: 408px; height: 417px; margin-left:608px;""></div></div>",,delaylearn,learning,display_response,KjAuYK4PpoRA3i5LZmkmZDeF8n52,KjAuYK4PpoRA3i5LZmkmZDeF8n52,,,,,,,,,,,,,,,,,chosen stimuli: images/choice_trial_3.png,,,,,606f1462c3fcfaeb5c52bec8,16:32:56,27/03/2024
html-keyboard-response,76,144887,0.0-33.0-2.0,,,,delaylearn,learning,feedback_duration_window,KjAuYK4PpoRA3i5LZmkmZDeF8n52,KjAuYK4PpoRA3i5LZmkmZDeF8n52,,,,,,,,,,,,,,,,,,7000.0,,,,606f1462c3fcfaeb5c52bec8,16:32:56,27/03/2024
html-keyboard-response,77,146390,0.0-33.0-3.0,,<div style='margin:auto;width: auto; font-size: 150%'><span style='font-weight: bold; font-size: 100px; color: green;'>+10 points!</span><br><br></div>,,delaylearn,learning,feedback_image_window,KjAuYK4PpoRA3i5LZmkmZDeF8n52,KjAuYK4PpoRA3i5LZmkmZDeF8n52,,,,,,,,,,,,,,,,,,,,,,606f1462c3fcfaeb5c52bec8,16:32:56,27/03/2024
html-keyboard-response,78,147925,0.0-34.0,,"<div style=""font-size:100px;"">+</div>",,delaylearn,learning,ITI,KjAuYK4PpoRA3i5LZmkmZDeF8n52,KjAuYK4PpoRA3i5LZmkmZDeF8n52,,,,,,,,,,,,,,,,,,,1532.0,,,606f1462c3fcfaeb5c52bec8,16:32:56,27/03/2024
html-keyboard-response,79,149903,0.0-35.0-0.0,1975.6999999284744,"<div style=""display: flex; flex-direction: column; align-items: center; margin-top: -40px;""><img src=""images/pattern_3.png"" style=""width: 234px; height: 230px; margin-top: -50px;""><div style=""display: flex; justify-content: space-between; margin-top: 33px;""><img src=""images/choice_trial_14.png"" style=""width: 408px; height: 417px; margin-right: 200px;""><img src=""images/choice_trial_12.png"" style=""width: 408px; height: 417px;""></div></div>",j,delaylearn,learning,trial,KjAuYK4PpoRA3i5LZmkmZDeF8n52,KjAuYK4PpoRA3i5LZmkmZDeF8n52,2.0,images/choice_trial_14.png,images/choice_trial_12.png,images/pattern_3.png,f,j,7000.0,14.0,12.0,2.0,1.0,15.0,1.0,0.0,12.0,90.0,,,,,,606f1462c3fcfaeb5c52bec8,16:32:56,27/03/2024
html-keyboard-response,80,150906,0.0-35.0-1.0,,"<div style=""display: flex; flex-direction: column; align-items: center; margin-top: -40px;""><img src=""images/pattern_3.png"" style=""width: 234px; height: 230px; margin-top: -50px;""><div style=""display: flex; justify-content: space-between; margin-top: 33px;""><img src=""images/choice_trial_12.png"" style=""width: 408px; height: 417px; margin-left:608px;""></div></div>",,delaylearn,learning,display_response,KjAuYK4PpoRA3i5LZmkmZDeF8n52,KjAuYK4PpoRA3i5LZmkmZDeF8n52,,,,,,,,,,,,,,,,,chosen stimuli: images/choice_trial_12.png,,,,,606f1462c3fcfaeb5c52bec8,16:32:56,27/03/2024
html-keyboard-response,81,157909,0.0-35.0-2.0,,,,delaylearn,learning,feedback_duration_window,KjAuYK4PpoRA3i5LZmkmZDeF8n52,KjAuYK4PpoRA3i5LZmkmZDeF8n52,,,,,,,,,,,,,,,,,,7000.0,,,,606f1462c3fcfaeb5c52bec8,16:32:56,27/03/2024
html-keyboard-response,82,159411,0.0-35.0-3.0,,<div style='margin:auto;width: auto; font-size: 150%'><span style='font-weight: bold; font-size: 100px; color: red;'>0 points!</span><br><br></div>,,delaylearn,learning,feedback_image_window,KjAuYK4PpoRA3i5LZmkmZDeF8n52,KjAuYK4PpoRA3i5LZmkmZDeF8n52,,,,,,,,,,,,,,,,,,,,,,606f1462c3fcfaeb5c52bec8,16:32:56,27/03/2024
html-keyboard-response,83,161822,0.0-36.0,,"<div style=""font-size:100px;"">+</div>",,delaylearn,learning,ITI,KjAuYK4PpoRA3i5LZmkmZDeF8n52,KjAuYK4PpoRA3i5LZmkmZDeF8n52,,,,,,,,,,,,,,,,,,,2407.0,,,606f1462c3fcfaeb5c52bec8,16:32:56,27/03/2024
html-keyboard-response,84,163093,0.0-37.0-0.0,1269.0,"<div style=""display: flex; flex-direction: column; align-items: center; margin-top: -40px;""><img src=""images/pattern_5.png"" style=""width: 234px; height: 230px; margin-top: -50px;""><div style=""display: flex; justify-content: space-between; margin-top: 33px;""><img src=""images/choice_trial_2.png"" style=""width: 408px; height: 417px; margin-right: 200px;""><img src=""images/choice_trial_9.png"" style=""width: 408px; height: 417px;""></div></div>",j,delaylearn,learning,trial,KjAuYK4PpoRA3i5LZmkmZDeF8n52,KjAuYK4PpoRA3i5LZmkmZDeF8n52,2.0,images/choice_trial_2.png,images/choice_trial_9.png,images/pattern_5.png,f,f,750.0,2.0,9.0,4.0,0.0,16.0,0.0,0.0,9.0,90.0,,,,,,606f1462c3fcfaeb5c52bec8,16:32:56,27/03/2024
html-keyboard-response,85,164097,0.0-37.0-1.0,,"<div style=""display: flex; flex-direction: column; align-items: center; margin-top: -40px;""><img src=""images/pattern_5.png"" style=""width: 234px; height: 230px; margin-top: -50px;""><div style=""display: flex; justify-content: space-between; margin-top: 33px;""><img src=""images/choice_trial_9.png"" style=""width: 408px; height: 417px; margin-left:608px;""></div></div>",,delaylearn,learning,display_response,KjAuYK4PpoRA3i5LZmkmZDeF8n52,KjAuYK4PpoRA3i5LZmkmZDeF8n52,,,,,,,,,,,,,,,,,chosen stimuli: images/choice_trial_9.png,,,,,606f1462c3fcfaeb5c52bec8,16:32:56,27/03/2024
html-keyboard-response,86,164849,0.0-37.0-2.0,,,,delaylearn,learning,feedback_duration_window,KjAuYK4PpoRA3i5LZmkmZDeF8n52,KjAuYK4PpoRA3i5LZmkmZDeF8n52,,,,,,,,,,,,,,,,,,750.0,,,,606f1462c3fcfaeb5c52bec8,16:32:56,27/03/2024
html-keyboard-response,87,166352,0.0-37.0-3.0,,<div style='margin:auto;width: auto; font-size: 150%'><span style='font-weight: bold; font-size: 100px; color: red;'>0 points!</span><br><br></div>,,delaylearn,learning,feedback_image_window,KjAuYK4PpoRA3i5LZmkmZDeF8n52,KjAuYK4PpoRA3i5LZmkmZDeF8n52,,,,,,,,,,,,,,,,,,,,,,606f1462c3fcfaeb5c52bec8,16:32:56,27/03/2024
html-keyboard-response,88,166855,0.0-38.0-0.0,,,,,,mood_trial_fixation,KjAuYK4PpoRA3i5LZmkmZDeF8n52,,,,,,,,,,,,,,,,,,,,,,,606f1462c3fcfaeb5c52bec8,16:32:56,27/03/2024
lmdlab-html-vas-response,89,171300,0.0-38.0-1.0,3440.0,How happy are you right now?,0.47962962962962963,delaylearn,learning,mood_trial,KjAuYK4PpoRA3i5LZmkmZDeF8n52,KjAuYK4PpoRA3i5LZmkmZDeF8n52,,,,,,,,,,,,,,,,,,,,"['Very unhappy', 'Very happy']",,606f1462c3fcfaeb5c52bec8,16:32:56,27/03/2024
html-keyboard-response,90,173373,0.0-39.0,,"<div style=""font-size:100px;"">+</div>",,delaylearn,learning,ITI,KjAuYK4PpoRA3i5LZmkmZDeF8n52,KjAuYK4PpoRA3i5LZmkmZDeF8n52,,,,,,,,,,,,,,,,,,,2069.0,,,606f1462c3fcfaeb5c52bec8,16:32:56,27/03/2024
html-keyboard-response,91,175098,0.0-40.0-0.0,1722.1000000238419,"<div style=""display: flex; flex-direction: column; align-items: center; margin-top: -40px;""><img src=""images/pattern_6.png"" style=""width: 234px; height: 230px; margin-top: -50px;""><div style=""display: flex; justify-content: space-between; margin-top: 33px;""><img src=""images/choice_trial_11.png"" style=""width: 408px; height: 417px; margin-right: 200px;""><img src=""images/choice_trial_5.png"" style=""width: 408px; height: 417px;""></div></div>",f,delaylearn,learning,trial,KjAuYK4PpoRA3i5LZmkmZDeF8n52,KjAuYK4PpoRA3i5LZmkmZDeF8n52,2.0,images/choice_trial_11.png,images/choice_trial_5.png,images/pattern_6.png,f,f,750.0,11.0,5.0,5.0,0.0,17.0,1.0,1.0,11.0,100.0,,,,,,606f1462c3fcfaeb5c52bec8,16:32:56,27/03/2024
html-keyboard-response,92,176101,0.0-40.0-1.0,,"<div style=""display: flex; flex-direction: column; align-items: center; margin-top: -40px;""><img src=""images/pattern_6.png"" style=""width: 234px; height: 230px; margin-top: -50px;""><div style=""display: flex; justify-content: space-between; margin-top: 33px;""><img src=""images/choice_trial_11.png"" style=""width: 408px; height: 417px; margin-right: 608px;""></div></div>",,delaylearn,learning,display_response,KjAuYK4PpoRA3i5LZmkmZDeF8n52,KjAuYK4PpoRA3i5LZmkmZDeF8n52,,,,,,,,,,,,,,,,,chosen stimuli: images/choice_trial_11.png,,,,,606f1462c3fcfaeb5c52bec8,16:32:56,27/03/2024
html-keyboard-response,93,176854,0.0-40.0-2.0,,,,delaylearn,learning,feedback_duration_window,KjAuYK4PpoRA3i5LZmkmZDeF8n52,KjAuYK4PpoRA3i5LZmkmZDeF8n52,,,,,,,,,,,,,,,,,,750.0,,,,606f1462c3fcfaeb5c52bec8,16:32:56,27/03/2024
html-keyboard-response,94,178358,0.0-40.0-3.0,,<div style='margin:auto;width: auto; font-size: 150%'><span style='font-weight: bold; font-size: 100px; color: green;'>+10 points!</span><br><br></div>,,delaylearn,learning,feedback_image_window,KjAuYK4PpoRA3i5LZmkmZDeF8n52,KjAuYK4PpoRA3i5LZmkmZDeF8n52,,,,,,,,,,,,,,,,,,,,,,606f1462c3fcfaeb5c52bec8,16:32:56,27/03/2024
html-keyboard-response,95,180433,0.0-41.0,,"<div style=""font-size:100px;"">+</div>",,delaylearn,learning,ITI,KjAuYK4PpoRA3i5LZmkmZDeF8n52,KjAuYK4PpoRA3i5LZmkmZDeF8n52,,,,,,,,,,,,,,,,,,,2072.0,,,606f1462c3fcfaeb5c52bec8,16:32:56,27/03/2024
html-keyboard-response,96,182171,0.0-42.0-0.0,1735.7000000476837,"<div style=""display: flex; flex-direction: column; align-items: center; margin-top: -40px;""><img src=""images/pattern_4.png"" style=""width: 234px; height: 230px; margin-top: -50px;""><div style=""display: flex; justify-content: space-between; margin-top: 33px;""><img src=""images/choice_trial_16.png"" style=""width: 408px; height: 417px; margin-right: 200px;""><img src=""images/choice_trial_4.png"" style=""width: 408px; height: 417px;""></div></div>",j,delaylearn,learning,trial,KjAuYK4PpoRA3i5LZmkmZDeF8n52,KjAuYK4PpoRA3i5LZmkmZDeF8n52,2.0,images/choice_trial_16.png,images/choice_trial_4.png,images/pattern_4.png,j,j,7000.0,16.0,4.0,3.0,1.0,18.0,1.0,1.0,4.0,110.0,,,,,,606f1462c3fcfaeb5c52bec8,16:32:56,27/03/2024
html-keyboard-response,97,183175,0.0-42.0-1.0,,"<div style=""display: flex; flex-direction: column; align-items: center; margin-top: -40px;""><img src=""images/pattern_4.png"" style=""width: 234px; height: 230px; margin-top: -50px;""><div style=""display: flex; justify-content: space-between; margin-top: 33px;""><img src=""images/choice_trial_4.png"" style=""width: 408px; height: 417px; margin-left:608px;""></div></div>",,delaylearn,learning,display_response,KjAuYK4PpoRA3i5LZmkmZDeF8n52,KjAuYK4PpoRA3i5LZmkmZDeF8n52,,,,,,,,,,,,,,,,,chosen stimuli: images/choice_trial_4.png,,,,,606f1462c3fcfaeb5c52bec8,16:32:56,27/03/2024
html-keyboard-response,98,190177,0.0-42.0-2.0,,,,delaylearn,learning,feedback_duration_window,KjAuYK4PpoRA3i5LZmkmZDeF8n52,KjAuYK4PpoRA3i5LZmkmZDeF8n52,,,,,,,,,,,,,,,,,,7000.0,,,,606f1462c3fcfaeb5c52bec8,16:32:56,27/03/2024
html-keyboard-response,99,191681,0.0-42.0-3.0,,<div style='margin:auto;width: auto; font-size: 150%'><span style='font-weight: bold; font-size: 100px; color: green;'>+10 points!</span><br><br></div>,,delaylearn,learning,feedback_image_window,KjAuYK4PpoRA3i5LZmkmZDeF8n52,KjAuYK4PpoRA3i5LZmkmZDeF8n52,,,,,,,,,,,,,,,,,,,,,,606f1462c3fcfaeb5c52bec8,16:32:56,27/03/2024
html-keyboard-response,100,193354,0.0-43.0,,"<div style=""font-size:100px;"">+</div>",,delaylearn,learning,ITI,KjAuYK4PpoRA3i5LZmkmZDeF8n52,KjAuYK4PpoRA3i5LZmkmZDeF8n52,,,,,,,,,,,,,,,,,,,1671.0,,,606f1462c3fcfaeb5c52bec8,16:32:56,27/03/2024
html-keyboard-response,101,194828,0.0-44.0-0.0,1471.5,"<div style=""display: flex; flex-direction: column; align-items: center; margin-top: -40px;""><img src=""images/pattern_7.png"" style=""width: 234px; height: 230px; margin-top: -50px;""><div style=""display: flex; justify-content: space-between; margin-top: 33px;""><img src=""images/choice_trial_8.png"" style=""width: 408px; height: 417px; margin-right: 200px;""><img src=""images/choice_trial_15.png"" style=""width: 408px; height: 417px;""></div></div>",f,delaylearn,learning,trial,KjAuYK4PpoRA3i5LZmkmZDeF8n52,KjAuYK4PpoRA3i5LZmkmZDeF8n52,2.0,images/choice_trial_8.png,images/choice_trial_15.png,images/pattern_7.png,j,f,750.0,8.0,15.0,6.0,0.0,19.0,1.0,0.0,8.0,110.0,,,,,,606f1462c3fcfaeb5c52bec8,16:32:56,27/03/2024
html-keyboard-response,102,195831,0.0-44.0-1.0,,"<div style=""display: flex; flex-direction: column; align-items: center; margin-top: -40px;""><img src=""images/pattern_7.png"" style=""width: 234px; height: 230px; margin-top: -50px;""><div style=""display: flex; justify-content: space-between; margin-top: 33px;""><img src=""images/choice_trial_8.png"" style=""width: 408px; height: 417px; margin-right: 608px;""></div></div>",,delaylearn,learning,display_response,KjAuYK4PpoRA3i5LZmkmZDeF8n52,KjAuYK4PpoRA3i5LZmkmZDeF8n52,,,,,,,,,,,,,,,,,chosen stimuli: images/choice_trial_8.png,,,,,606f1462c3fcfaeb5c52bec8,16:32:56,27/03/2024
html-keyboard-response,103,196585,0.0-44.0-2.0,,,,delaylearn,learning,feedback_duration_window,KjAuYK4PpoRA3i5LZmkmZDeF8n52,KjAuYK4PpoRA3i5LZmkmZDeF8n52,,,,,,,,,,,,,,,,,,750.0,,,,606f1462c3fcfaeb5c52bec8,16:32:56,27/03/2024
html-keyboard-response,104,198086,0.0-44.0-3.0,,<div style='margin:auto;width: auto; font-size: 150%'><span style='font-weight: bold; font-size: 100px; color: red;'>0 points!</span><br><br></div>,,delaylearn,learning,feedback_image_window,KjAuYK4PpoRA3i5LZmkmZDeF8n52,KjAuYK4PpoRA3i5LZmkmZDeF8n52,,,,,,,,,,,,,,,,,,,,,,606f1462c3fcfaeb5c52bec8,16:32:56,27/03/2024
html-keyboard-response,105,199592,0.0-45.0,,"<div style=""font-size:100px;"">+</div>",,delaylearn,learning,ITI,KjAuYK4PpoRA3i5LZmkmZDeF8n52,KjAuYK4PpoRA3i5LZmkmZDeF8n52,,,,,,,,,,,,,,,,,,,1502.0,,,606f1462c3fcfaeb5c52bec8,16:32:56,27/03/2024
html-keyboard-response,106,201217,0.0-46.0-0.0,1622.6000000238419,"<div style=""display: flex; flex-direction: column; align-items: center; margin-top: -40px;""><img src=""images/pattern_1.png"" style=""width: 234px; height: 230px; margin-top: -50px;""><div style=""display: flex; justify-content: space-between; margin-top: 33px;""><img src=""images/choice_trial_3.png"" style=""width: 408px; height: 417px; margin-right: 200px;""><img src=""images/choice_trial_10.png"" style=""width: 408px; height: 417px;""></div></div>",j,delaylearn,learning,trial,KjAuYK4PpoRA3i5LZmkmZDeF8n52,KjAuYK4PpoRA3i5LZmkmZDeF8n52,2.0,images/choice_trial_3.png,images/choice_trial_10.png,images/pattern_1.png,f,f,7000.0,3.0,10.0,1.0,0.0,20.0,0.0,0.0,10.0,110.0,,,,,,606f1462c3fcfaeb5c52bec8,16:32:56,27/03/2024
html-keyboard-response,107,202221,0.0-46.0-1.0,,"<div style=""display: flex; flex-direction: column; align-items: center; margin-top: -40px;""><img src=""images/pattern_1.png"" style=""width: 234px; height: 230px; margin-top: -50px;""><div style=""display: flex; justify-content: space-between; margin-top: 33px;""><img src=""images/choice_trial_10.png"" style=""width: 408px; height: 417px; margin-left:608px;""></div></div>",,delaylearn,learning,display_response,KjAuYK4PpoRA3i5LZmkmZDeF8n52,KjAuYK4PpoRA3i5LZmkmZDeF8n52,,,,,,,,,,,,,,,,,chosen stimuli: images/choice_trial_10.png,,,,,606f1462c3fcfaeb5c52bec8,16:32:56,27/03/2024
html-keyboard-response,108,209224,0.0-46.0-2.0,,,,delaylearn,learning,feedback_duration_window,KjAuYK4PpoRA3i5LZmkmZDeF8n52,KjAuYK4PpoRA3i5LZmkmZDeF8n52,,,,,,,,,,,,,,,,,,7000.0,,,,606f1462c3fcfaeb5c52bec8,16:32:56,27/03/2024
html-keyboard-response,109,210726,0.0-46.0-3.0,,<div style='margin:auto;width: auto; font-size: 150%'><span style='font-weight: bold; font-size: 100px; color: red;'>0 points!</span><br><br></div>,,delaylearn,learning,feedback_image_window,KjAuYK4PpoRA3i5LZmkmZDeF8n52,KjAuYK4PpoRA3i5LZmkmZDeF8n52,,,,,,,,,,,,,,,,,,,,,,606f1462c3fcfaeb5c52bec8,16:32:56,27/03/2024
html-keyboard-response,110,213016,0.0-47.0,,"<div style=""font-size:100px;"">+</div>",,delaylearn,learning,ITI,KjAuYK4PpoRA3i5LZmkmZDeF8n52,KjAuYK4PpoRA3i5LZmkmZDeF8n52,,,,,,,,,,,,,,,,,,,2287.0,,,606f1462c3fcfaeb5c52bec8,16:32:56,27/03/2024
html-keyboard-response,111,214902,0.0-48.0-0.0,1883.4000000953674,"<div style=""display: flex; flex-direction: column; align-items: center; margin-top: -40px;""><img src=""images/pattern_6.png"" style=""width: 234px; height: 230px; margin-top: -50px;""><div style=""display: flex; justify-content: space-between; margin-top: 33px;""><img src=""images/choice_trial_5.png"" style=""width: 408px; height: 417px; margin-right: 200px;""><img src=""images/choice_trial_11.png"" style=""width: 408px; height: 417px;""></div></div>",j,delaylearn,learning,trial,KjAuYK4PpoRA3i5LZmkmZDeF8n52,KjAuYK4PpoRA3i5LZmkmZDeF8n52,2.0,images/choice_trial_5.png,images/choice_trial_11.png,images/pattern_6.png,j,j,750.0,5.0,11.0,5.0,1.0,21.0,1.0,1.0,11.0,120.0,,,,,,606f1462c3fcfaeb5c52bec8,16:32:56,27/03/2024
html-keyboard-response,112,215906,0.0-48.0-1.0,,"<div style=""display: flex; flex-direction: column; align-items: center; margin-top: -40px;""><img src=""images/pattern_6.png"" style=""width: 234px; height: 230px; margin-top: -50px;""><div style=""display: flex; justify-content: space-between; margin-top: 33px;""><img src=""images/choice_trial_11.png"" style=""width: 408px; height: 417px; margin-left:608px;""></div></div>",,delaylearn,learning,display_response,KjAuYK4PpoRA3i5LZmkmZDeF8n52,KjAuYK4PpoRA3i5LZmkmZDeF8n52,,,,,,,,,,,,,,,,,chosen stimuli: images/choice_trial_11.png,,,,,606f1462c3fcfaeb5c52bec8,16:32:56,27/03/2024
html-keyboard-response,113,216659,0.0-48.0-2.0,,,,delaylearn,learning,feedback_duration_window,KjAuYK4PpoRA3i5LZmkmZDeF8n52,KjAuYK4PpoRA3i5LZmkmZDeF8n52,,,,,,,,,,,,,,,,,,750.0,,,,606f1462c3fcfaeb5c52bec8,16:32:56,27/03/2024
html-keyboard-response,114,218162,0.0-48.0-3.0,,<div style='margin:auto;width: auto; font-size: 150%'><span style='font-weight: bold; font-size: 100px; color: green;'>+10 points!</span><br><br></div>,,delaylearn,learning,feedback_image_window,KjAuYK4PpoRA3i5LZmkmZDeF8n52,KjAuYK4PpoRA3i5LZmkmZDeF8n52,,,,,,,,,,,,,,,,,,,,,,606f1462c3fcfaeb5c52bec8,16:32:56,27/03/2024
html-keyboard-response,115,220629,0.0-49.0,,"<div style=""font-size:100px;"">+</div>",,delaylearn,learning,ITI,KjAuYK4PpoRA3i5LZmkmZDeF8n52,KjAuYK4PpoRA3i5LZmkmZDeF8n52,,,,,,,,,,,,,,,,,,,2464.0,,,606f1462c3fcfaeb5c52bec8,16:32:56,27/03/2024
html-keyboard-response,116,222300,0.0-50.0-0.0,1667.2999999523163,"<div style=""display: flex; flex-direction: column; align-items: center; margin-top: -40px;""><img src=""images/pattern_4.png"" style=""width: 234px; height: 230px; margin-top: -50px;""><div style=""display: flex; justify-content: space-between; margin-top: 33px;""><img src=""images/choice_trial_4.png"" style=""width: 408px; height: 417px; margin-right: 200px;""><img src=""images/choice_trial_16.png"" style=""width: 408px; height: 417px;""></div></div>",j,delaylearn,learning,trial,KjAuYK4PpoRA3i5LZmkmZDeF8n52,KjAuYK4PpoRA3i5LZmkmZDeF8n52,2.0,images/choice_trial_4.png,images/choice_trial_16.png,images/pattern_4.png,f,f,7000.0,4.0,16.0,3.0,0.0,22.0,0.0,0.0,16.0,120.0,,,,,,606f1462c3fcfaeb5c52bec8,16:32:56,27/03/2024
html-keyboard-response,117,223303,0.0-50.0-1.0,,"<div style=""display: flex; flex-direction: column; align-items: center; margin-top: -40px;""><img src=""images/pattern_4.png"" style=""width: 234px; height: 230px; margin-top: -50px;""><div style=""display: flex; justify-content: space-between; margin-top: 33px;""><img src=""images/choice_trial_16.png"" style=""width: 408px; height: 417px; margin-left:608px;""></div></div>",,delaylearn,learning,display_response,KjAuYK4PpoRA3i5LZmkmZDeF8n52,KjAuYK4PpoRA3i5LZmkmZDeF8n52,,,,,,,,,,,,,,,,,chosen stimuli: images/choice_trial_16.png,,,,,606f1462c3fcfaeb5c52bec8,16:32:56,27/03/2024
html-keyboard-response,118,230305,0.0-50.0-2.0,,,,delaylearn,learning,feedback_duration_window,KjAuYK4PpoRA3i5LZmkmZDeF8n52,KjAuYK4PpoRA3i5LZmkmZDeF8n52,,,,,,,,,,,,,,,,,,7000.0,,,,606f1462c3fcfaeb5c52bec8,16:32:56,27/03/2024
html-keyboard-response,119,231808,0.0-50.0-3.0,,<div style='margin:auto;width: auto; font-size: 150%'><span style='font-weight: bold; font-size: 100px; color: red;'>0 points!</span><br><br></div>,,delaylearn,learning,feedback_image_window,KjAuYK4PpoRA3i5LZmkmZDeF8n52,KjAuYK4PpoRA3i5LZmkmZDeF8n52,,,,,,,,,,,,,,,,,,,,,,606f1462c3fcfaeb5c52bec8,16:32:56,27/03/2024
html-keyboard-response,120,232311,0.0-51.0-0.0,,,,,,mood_trial_fixation,KjAuYK4PpoRA3i5LZmkmZDeF8n52,,,,,,,,,,,,,,,,,,,,,,,606f1462c3fcfaeb5c52bec8,16:32:56,27/03/2024
lmdlab-html-vas-response,121,236253,0.0-51.0-1.0,2936.0,How happy are you right now?,0.44814814814814813,delaylearn,learning,mood_trial,KjAuYK4PpoRA3i5LZmkmZDeF8n52,KjAuYK4PpoRA3i5LZmkmZDeF8n52,,,,,,,,,,,,,,,,,,,,"['Very unhappy', 'Very happy']",,606f1462c3fcfaeb5c52bec8,16:32:56,27/03/2024
html-keyboard-response,122,238269,0.0-52.0,,"<div style=""font-size:100px;"">+</div>",,delaylearn,learning,ITI,KjAuYK4PpoRA3i5LZmkmZDeF8n52,KjAuYK4PpoRA3i5LZmkmZDeF8n52,,,,,,,,,,,,,,,,,,,2013.0,,,606f1462c3fcfaeb5c52bec8,16:32:56,27/03/2024
html-keyboard-response,123,241132,0.0-53.0-0.0,2860.0,"<div style=""display: flex; flex-direction: column; align-items: center; margin-top: -40px;""><img src=""images/pattern_7.png"" style=""width: 234px; height: 230px; margin-top: -50px;""><div style=""display: flex; justify-content: space-between; margin-top: 33px;""><img src=""images/choice_trial_15.png"" style=""width: 408px; height: 417px; margin-right: 200px;""><img src=""images/choice_trial_8.png"" style=""width: 408px; height: 417px;""></div></div>",j,delaylearn,learning,trial,KjAuYK4PpoRA3i5LZmkmZDeF8n52,KjAuYK4PpoRA3i5LZmkmZDeF8n52,2.0,images/choice_trial_15.png,images/choice_trial_8.png,images/pattern_7.png,j,j,750.0,15.0,8.0,6.0,1.0,23.0,1.0,1.0,8.0,130.0,,,,,,606f1462c3fcfaeb5c52bec8,16:32:56,27/03/2024
html-keyboard-response,124,242136,0.0-53.0-1.0,,"<div style=""display: flex; flex-direction: column; align-items: center; margin-top: -40px;""><img src=""images/pattern_7.png"" style=""width: 234px; height: 230px; margin-top: -50px;""><div style=""display: flex; justify-content: space-between; margin-top: 33px;""><img src=""images/choice_trial_8.png"" style=""width: 408px; height: 417px; margin-left:608px;""></div></div>",,delaylearn,learning,display_response,KjAuYK4PpoRA3i5LZmkmZDeF8n52,KjAuYK4PpoRA3i5LZmkmZDeF8n52,,,,,,,,,,,,,,,,,chosen stimuli: images/choice_trial_8.png,,,,,606f1462c3fcfaeb5c52bec8,16:32:56,27/03/2024
html-keyboard-response,125,242889,0.0-53.0-2.0,,,,delaylearn,learning,feedback_duration_window,KjAuYK4PpoRA3i5LZmkmZDeF8n52,KjAuYK4PpoRA3i5LZmkmZDeF8n52,,,,,,,,,,,,,,,,,,750.0,,,,606f1462c3fcfaeb5c52bec8,16:32:56,27/03/2024
html-keyboard-response,126,244392,0.0-53.0-3.0,,<div style='margin:auto;width: auto; font-size: 150%'><span style='font-weight: bold; font-size: 100px; color: green;'>+10 points!</span><br><br></div>,,delaylearn,learning,feedback_image_window,KjAuYK4PpoRA3i5LZmkmZDeF8n52,KjAuYK4PpoRA3i5LZmkmZDeF8n52,,,,,,,,,,,,,,,,,,,,,,606f1462c3fcfaeb5c52bec8,16:32:56,27/03/2024
html-keyboard-response,127,246478,0.0-54.0,,"<div style=""font-size:100px;"">+</div>",,delaylearn,learning,ITI,KjAuYK4PpoRA3i5LZmkmZDeF8n52,KjAuYK4PpoRA3i5LZmkmZDeF8n52,,,,,,,,,,,,,,,,,,,2083.0,,,606f1462c3fcfaeb5c52bec8,16:32:56,27/03/2024
html-keyboard-response,128,249114,0.0-55.0-0.0,2633.7000000476837,"<div style=""display: flex; flex-direction: column; align-items: center; margin-top: -40px;""><img src=""images/pattern_1.png"" style=""width: 234px; height: 230px; margin-top: -50px;""><div style=""display: flex; justify-content: space-between; margin-top: 33px;""><img src=""images/choice_trial_10.png"" style=""width: 408px; height: 417px; margin-right: 200px;""><img src=""images/choice_trial_3.png"" style=""width: 408px; height: 417px;""></div></div>",j,delaylearn,learning,trial,KjAuYK4PpoRA3i5LZmkmZDeF8n52,KjAuYK4PpoRA3i5LZmkmZDeF8n52,2.0,images/choice_trial_10.png,images/choice_trial_3.png,images/pattern_1.png,f,j,7000.0,10.0,3.0,1.0,1.0,24.0,1.0,0.0,3.0,130.0,,,,,,606f1462c3fcfaeb5c52bec8,16:32:56,27/03/2024
html-keyboard-response,129,250117,0.0-55.0-1.0,,"<div style=""display: flex; flex-direction: column; align-items: center; margin-top: -40px;""><img src=""images/pattern_1.png"" style=""width: 234px; height: 230px; margin-top: -50px;""><div style=""display: flex; justify-content: space-between; margin-top: 33px;""><img src=""images/choice_trial_3.png"" style=""width: 408px; height: 417px; margin-left:608px;""></div></div>",,delaylearn,learning,display_response,KjAuYK4PpoRA3i5LZmkmZDeF8n52,KjAuYK4PpoRA3i5LZmkmZDeF8n52,,,,,,,,,,,,,,,,,chosen stimuli: images/choice_trial_3.png,,,,,606f1462c3fcfaeb5c52bec8,16:32:56,27/03/2024
html-keyboard-response,130,257120,0.0-55.0-2.0,,,,delaylearn,learning,feedback_duration_window,KjAuYK4PpoRA3i5LZmkmZDeF8n52,KjAuYK4PpoRA3i5LZmkmZDeF8n52,,,,,,,,,,,,,,,,,,7000.0,,,,606f1462c3fcfaeb5c52bec8,16:32:56,27/03/2024
html-keyboard-response,131,258623,0.0-55.0-3.0,,<div style='margin:auto;width: auto; font-size: 150%'><span style='font-weight: bold; font-size: 100px; color: red;'>0 points!</span><br><br></div>,,delaylearn,learning,feedback_image_window,KjAuYK4PpoRA3i5LZmkmZDeF8n52,KjAuYK4PpoRA3i5LZmkmZDeF8n52,,,,,,,,,,,,,,,,,,,,,,606f1462c3fcfaeb5c52bec8,16:32:56,27/03/2024
html-keyboard-response,132,261051,0.0-56.0,,"<div style=""font-size:100px;"">+</div>",,delaylearn,learning,ITI,KjAuYK4PpoRA3i5LZmkmZDeF8n52,KjAuYK4PpoRA3i5LZmkmZDeF8n52,,,,,,,,,,,,,,,,,,,2425.0,,,606f1462c3fcfaeb5c52bec8,16:32:56,27/03/2024
html-keyboard-response,133,264055,0.0-57.0-0.0,,"<div style=""display: flex; flex-direction: column; align-items: center; margin-top: -40px;""><img src=""images/pattern_5.png"" style=""width: 234px; height: 230px; margin-top: -50px;""><div style=""display: flex; justify-content: space-between; margin-top: 33px;""><img src=""images/choice_trial_9.png"" style=""width: 408px; height: 417px; margin-right: 200px;""><img src=""images/choice_trial_2.png"" style=""width: 408px; height: 417px;""></div></div>",,delaylearn,learning,trial,KjAuYK4PpoRA3i5LZmkmZDeF8n52,KjAuYK4PpoRA3i5LZmkmZDeF8n52,2.0,images/choice_trial_9.png,images/choice_trial_2.png,images/pattern_5.png,j,j,750.0,9.0,2.0,4.0,1.0,25.0,0.0,0.0,0.0,130.0,,,,,,606f1462c3fcfaeb5c52bec8,16:32:56,27/03/2024
html-keyboard-response,134,265056,0.0-57.0-1.0,,<div style='font-weight: bold; font-size: 75px; color: red;'>Missed Trial <br><br><br><br> Please respond faster</div>,,delaylearn,learning,display_response,KjAuYK4PpoRA3i5LZmkmZDeF8n52,KjAuYK4PpoRA3i5LZmkmZDeF8n52,,,,,,,,,,,,,,,,,Missed trial,,,,,606f1462c3fcfaeb5c52bec8,16:32:56,27/03/2024
html-keyboard-response,135,265062,0.0-57.0-2.0,,,,delaylearn,learning,feedback_duration_window,KjAuYK4PpoRA3i5LZmkmZDeF8n52,KjAuYK4PpoRA3i5LZmkmZDeF8n52,,,,,,,,,,,,,,,,,,0.0,,,,606f1462c3fcfaeb5c52bec8,16:32:56,27/03/2024
html-keyboard-response,136,265068,0.0-57.0-3.0,,,,delaylearn,learning,feedback_image_window,KjAuYK4PpoRA3i5LZmkmZDeF8n52,KjAuYK4PpoRA3i5LZmkmZDeF8n52,,,,,,,,,,,,,,,,,,,,,,606f1462c3fcfaeb5c52bec8,16:32:56,27/03/2024
html-keyboard-response,137,267114,0.0-58.0,,"<div style=""font-size:100px;"">+</div>",,delaylearn,learning,ITI,KjAuYK4PpoRA3i5LZmkmZDeF8n52,KjAuYK4PpoRA3i5LZmkmZDeF8n52,,,,,,,,,,,,,,,,,,,2043.0,,,606f1462c3fcfaeb5c52bec8,16:32:56,27/03/2024
html-keyboard-response,138,268883,0.0-59.0-0.0,1766.8999999761581,"<div style=""display: flex; flex-direction: column; align-items: center; margin-top: -40px;""><img src=""images/pattern_3.png"" style=""width: 234px; height: 230px; margin-top: -50px;""><div style=""display: flex; justify-content: space-between; margin-top: 33px;""><img src=""images/choice_trial_14.png"" style=""width: 408px; height: 417px; margin-right: 200px;""><img src=""images/choice_trial_12.png"" style=""width: 408px; height: 417px;""></div></div>",j,delaylearn,learning,trial,KjAuYK4PpoRA3i5LZmkmZDeF8n52,KjAuYK4PpoRA3i5LZmkmZDeF8n52,2.0,images/choice_trial_14.png,images/choice_trial_12.png,images/pattern_3.png,j,j,7000.0,14.0,12.0,2.0,1.0,26.0,1.0,1.0,12.0,140.0,,,,,,606f1462c3fcfaeb5c52bec8,16:32:56,27/03/2024
html-keyboard-response,139,269886,0.0-59.0-1.0,,"<div style=""display: flex; flex-direction: column; align-items: center; margin-top: -40px;""><img src=""images/pattern_3.png"" style=""width: 234px; height: 230px; margin-top: -50px;""><div style=""display: flex; justify-content: space-between; margin-top: 33px;""><img src=""images/choice_trial_12.png"" style=""width: 408px; height: 417px; margin-left:608px;""></div></div>",,delaylearn,learning,display_response,KjAuYK4PpoRA3i5LZmkmZDeF8n52,KjAuYK4PpoRA3i5LZmkmZDeF8n52,,,,,,,,,,,,,,,,,chosen stimuli: images/choice_trial_12.png,,,,,606f1462c3fcfaeb5c52bec8,16:32:56,27/03/2024
html-keyboard-response,140,276889,0.0-59.0-2.0,,,,delaylearn,learning,feedback_duration_window,KjAuYK4PpoRA3i5LZmkmZDeF8n52,KjAuYK4PpoRA3i5LZmkmZDeF8n52,,,,,,,,,,,,,,,,,,7000.0,,,,606f1462c3fcfaeb5c52bec8,16:32:56,27/03/2024
html-keyboard-response,141,278392,0.0-59.0-3.0,,<div style='margin:auto;width: auto; font-size: 150%'><span style='font-weight: bold; font-size: 100px; color: green;'>+10 points!</span><br><br></div>,,delaylearn,learning,feedback_image_window,KjAuYK4PpoRA3i5LZmkmZDeF8n52,KjAuYK4PpoRA3i5LZmkmZDeF8n52,,,,,,,,,,,,,,,,,,,,,,606f1462c3fcfaeb5c52bec8,16:32:56,27/03/2024
lmdlab-html-vas-response,142,285828,0.0-60.0-0.0,5925.0,*How <b><u>confident</u></b> are you feeling about your answers at this moment?*,0.4111111111111111,rewlearn,rate_confidence,,KjAuYK4PpoRA3i5LZmkmZDeF8n52,KjAuYK4PpoRA3i5LZmkmZDeF8n52,,,,,,,,,,,,,,,,,,,,"['No confidence', 'Complete confidence']",,606f1462c3fcfaeb5c52bec8,16:32:56,27/03/2024
lmdlab-rest-trial-limit,143,291683,0.0-60.0-1.0,4352.199999928474,"<div style=""font-size:40px;""><b>Please take a break!</b><br><br><br><br><p>Great work: you earned 140 points.<br><br><br><p>You have completed part(s) 1 of 5.<br><br><br><br>When you are ready to continue<br><br><br>please click the button.</p><br><br>",0,delaylearn,learning,break,KjAuYK4PpoRA3i5LZmkmZDeF8n52,KjAuYK4PpoRA3i5LZmkmZDeF8n52,,,,,,,,,,,,,,,,,,,,,0.0,606f1462c3fcfaeb5c52bec8,16:32:56,27/03/2024
html-keyboard-response,144,294686,0.0-60.0-2.0,,"<div style=""font-size:100px;"">+</div>",,delaylearn,learning,pre_fixation,KjAuYK4PpoRA3i5LZmkmZDeF8n52,,,,,,,,,,,,,,,,,,,,,,,606f1462c3fcfaeb5c52bec8,16:32:56,27/03/2024
lmdlab-html-vas-response,145,299422,0.0-60.0-3.0-0.0,3730.0,How happy are you right now?,0.5222222222222223,delaylearn,learning,mood_baseline,KjAuYK4PpoRA3i5LZmkmZDeF8n52,KjAuYK4PpoRA3i5LZmkmZDeF8n52,,,,,,,,,,,,,,,,,,,,"['Very unhappy', 'Very happy']",,606f1462c3fcfaeb5c52bec8,16:32:56,27/03/2024
html-keyboard-response,146,300925,0.0-60.0-3.0-1.0,,,,,,mood_baseline_fixation,KjAuYK4PpoRA3i5LZmkmZDeF8n52,,,,,,,,,,,,,,,,,,,,,,,606f1462c3fcfaeb5c52bec8,16:32:56,27/03/2024
html-keyboard-response,147,302755,0.0-61.0,,"<div style=""font-size:100px;"">+</div>",,delaylearn,learning,ITI,KjAuYK4PpoRA3i5LZmkmZDeF8n52,KjAuYK4PpoRA3i5LZmkmZDeF8n52,,,,,,,,,,,,,,,,,,,1826.0,,,606f1462c3fcfaeb5c52bec8,16:32:56,27/03/2024
html-keyboard-response,148,304370,0.0-62.0-0.0,1612.2000000476837,"<div style=""display: flex; flex-direction: column; align-items: center; margin-top: -40px;""><img src=""images/pattern_7.png"" style=""width: 234px; height: 230px; margin-top: -50px;""><div style=""display: flex; justify-content: space-between; margin-top: 33px;""><img src=""images/choice_trial_15.png"" style=""width: 408px; height: 417px; margin-right: 200px;""><img src=""images/choice_trial_8.png"" style=""width: 408px; height: 417px;""></div></div>",j,delaylearn,learning,trial,KjAuYK4PpoRA3i5LZmkmZDeF8n52,KjAuYK4PpoRA3i5LZmkmZDeF8n52,2.0,images/choice_trial_15.png,images/choice_trial_8.png,images/pattern_7.png,j,j,750.0,15.0,8.0,6.0,1.0,27.0,1.0,1.0,8.0,150.0,,,,,,606f1462c3fcfaeb5c52bec8,16:32:56,27/03/2024
html-keyboard-response,149,305373,0.0-62.0-1.0,,"<div style=""display: flex; flex-direction: column; align-items: center; margin-top: -40px;""><img src=""images/pattern_7.png"" style=""width: 234px; height: 230px; margin-top: -50px;""><div style=""display: flex; justify-content: space-between; margin-top: 33px;""><img src=""images/choice_trial_8.png"" style=""width: 408px; height: 417px; margin-left:608px;""></div></div>",,delaylearn,learning,display_response,KjAuYK4PpoRA3i5LZmkmZDeF8n52,KjAuYK4PpoRA3i5LZmkmZDeF8n52,,,,,,,,,,,,,,,,,chosen stimuli: images/choice_trial_8.png,,,,,606f1462c3fcfaeb5c52bec8,16:32:56,27/03/2024
html-keyboard-response,150,306126,0.0-62.0-2.0,,,,delaylearn,learning,feedback_duration_window,KjAuYK4PpoRA3i5LZmkmZDeF8n52,KjAuYK4PpoRA3i5LZmkmZDeF8n52,,,,,,,,,,,,,,,,,,750.0,,,,606f1462c3fcfaeb5c52bec8,16:32:56,27/03/2024
html-keyboard-response,151,307629,0.0-62.0-3.0,,<div style='margin:auto;width: auto; font-size: 150%'><span style='font-weight: bold; font-size: 100px; color: green;'>+10 points!</span><br><br></div>,,delaylearn,learning,feedback_image_window,KjAuYK4PpoRA3i5LZmkmZDeF8n52,KjAuYK4PpoRA3i5LZmkmZDeF8n52,,,,,,,,,,,,,,,,,,,,,,606f1462c3fcfaeb5c52bec8,16:32:56,27/03/2024
html-keyboard-response,152,308131,0.0-63.0-0.0,,,,,,mood_trial_fixation,KjAuYK4PpoRA3i5LZmkmZDeF8n52,,,,,,,,,,,,,,,,,,,,,,,606f1462c3fcfaeb5c52bec8,16:32:56,27/03/2024
lmdlab-html-vas-response,153,313374,0.0-63.0-1.0,4238.0,How happy are you right now?,0.5351851851851852,delaylearn,learning,mood_trial,KjAuYK4PpoRA3i5LZmkmZDeF8n52,KjAuYK4PpoRA3i5LZmkmZDeF8n52,,,,,,,,,,,,,,,,,,,,"['Very unhappy', 'Very happy']",,606f1462c3fcfaeb5c52bec8,16:32:56,27/03/2024
html-keyboard-response,154,315670,0.0-64.0,,"<div style=""font-size:100px;"">+</div>",,delaylearn,learning,ITI,KjAuYK4PpoRA3i5LZmkmZDeF8n52,KjAuYK4PpoRA3i5LZmkmZDeF8n52,,,,,,,,,,,,,,,,,,,2293.0,,,606f1462c3fcfaeb5c52bec8,16:32:56,27/03/2024
html-keyboard-response,155,318595,0.0-65.0-0.0,2922.5,"<div style=""display: flex; flex-direction: column; align-items: center; margin-top: -40px;""><img src=""images/pattern_1.png"" style=""width: 234px; height: 230px; margin-top: -50px;""><div style=""display: flex; justify-content: space-between; margin-top: 33px;""><img src=""images/choice_trial_3.png"" style=""width: 408px; height: 417px; margin-right: 200px;""><img src=""images/choice_trial_10.png"" style=""width: 408px; height: 417px;""></div></div>",j,delaylearn,learning,trial,KjAuYK4PpoRA3i5LZmkmZDeF8n52,KjAuYK4PpoRA3i5LZmkmZDeF8n52,2.0,images/choice_trial_3.png,images/choice_trial_10.png,images/pattern_1.png,f,f,7000.0,3.0,10.0,1.0,0.0,28.0,0.0,0.0,10.0,150.0,,,,,,606f1462c3fcfaeb5c52bec8,16:32:56,27/03/2024
html-keyboard-response,156,319600,0.0-65.0-1.0,,"<div style=""display: flex; flex-direction: column; align-items: center; margin-top: -40px;""><img src=""images/pattern_1.png"" style=""width: 234px; height: 230px; margin-top: -50px;""><div style=""display: flex; justify-content: space-between; margin-top: 33px;""><img src=""images/choice_trial_10.png"" style=""width: 408px; height: 417px; margin-left:608px;""></div></div>",,delaylearn,learning,display_response,KjAuYK4PpoRA3i5LZmkmZDeF8n52,KjAuYK4PpoRA3i5LZmkmZDeF8n52,,,,,,,,,,,,,,,,,chosen stimuli: images/choice_trial_10.png,,,,,606f1462c3fcfaeb5c52bec8,16:32:56,27/03/2024
html-keyboard-response,157,326603,0.0-65.0-2.0,,,,delaylearn,learning,feedback_duration_window,KjAuYK4PpoRA3i5LZmkmZDeF8n52,KjAuYK4PpoRA3i5LZmkmZDeF8n52,,,,,,,,,,,,,,,,,,7000.0,,,,606f1462c3fcfaeb5c52bec8,16:32:56,27/03/2024
html-keyboard-response,158,328106,0.0-65.0-3.0,,<div style='margin:auto;width: auto; font-size: 150%'><span style='font-weight: bold; font-size: 100px; color: red;'>0 points!</span><br><br></div>,,delaylearn,learning,feedback_image_window,KjAuYK4PpoRA3i5LZmkmZDeF8n52,KjAuYK4PpoRA3i5LZmkmZDeF8n52,,,,,,,,,,,,,,,,,,,,,,606f1462c3fcfaeb5c52bec8,16:32:56,27/03/2024
html-keyboard-response,159,330393,0.0-66.0,,"<div style=""font-size:100px;"">+</div>",,delaylearn,learning,ITI,KjAuYK4PpoRA3i5LZmkmZDeF8n52,KjAuYK4PpoRA3i5LZmkmZDeF8n52,,,,,,,,,,,,,,,,,,,2284.0,,,606f1462c3fcfaeb5c52bec8,16:32:56,27/03/2024
html-keyboard-response,160,331990,0.0-67.0-0.0,1594.0,"<div style=""display: flex; flex-direction: column; align-items: center; margin-top: -40px;""><img src=""images/pattern_5.png"" style=""width: 234px; height: 230px; margin-top: -50px;""><div style=""display: flex; justify-content: space-between; margin-top: 33px;""><img src=""images/choice_trial_2.png"" style=""width: 408px; height: 417px; margin-right: 200px;""><img src=""images/choice_trial_9.png"" style=""width: 408px; height: 417px;""></div></div>",j,delaylearn,learning,trial,KjAuYK4PpoRA3i5LZmkmZDeF8n52,KjAuYK4PpoRA3i5LZmkmZDeF8n52,2.0,images/choice_trial_2.png,images/choice_trial_9.png,images/pattern_5.png,f,f,750.0,2.0,9.0,4.0,0.0,29.0,0.0,0.0,9.0,150.0,,,,,,606f1462c3fcfaeb5c52bec8,16:32:56,27/03/2024
html-keyboard-response,161,332992,0.0-67.0-1.0,,"<div style=""display: flex; flex-direction: column; align-items: center; margin-top: -40px;""><img src=""images/pattern_5.png"" style=""width: 234px; height: 230px; margin-top: -50px;""><div style=""display: flex; justify-content: space-between; margin-top: 33px;""><img src=""images/choice_trial_9.png"" style=""width: 408px; height: 417px; margin-left:608px;""></div></div>",,delaylearn,learning,display_response,KjAuYK4PpoRA3i5LZmkmZDeF8n52,KjAuYK4PpoRA3i5LZmkmZDeF8n52,,,,,,,,,,,,,,,,,chosen stimuli: images/choice_trial_9.png,,,,,606f1462c3fcfaeb5c52bec8,16:32:56,27/03/2024
html-keyboard-response,162,333745,0.0-67.0-2.0,,,,delaylearn,learning,feedback_duration_window,KjAuYK4PpoRA3i5LZmkmZDeF8n52,KjAuYK4PpoRA3i5LZmkmZDeF8n52,,,,,,,,,,,,,,,,,,750.0,,,,606f1462c3fcfaeb5c52bec8,16:32:56,27/03/2024
html-keyboard-response,163,335248,0.0-67.0-3.0,,<div style='margin:auto;width: auto; font-size: 150%'><span style='font-weight: bold; font-size: 100px; color: red;'>0 points!</span><br><br></div>,,delaylearn,learning,feedback_image_window,KjAuYK4PpoRA3i5LZmkmZDeF8n52,KjAuYK4PpoRA3i5LZmkmZDeF8n52,,,,,,,,,,,,,,,,,,,,,,606f1462c3fcfaeb5c52bec8,16:32:56,27/03/2024
html-keyboard-response,164,337687,0.0-68.0,,"<div style=""font-size:100px;"">+</div>",,delaylearn,learning,ITI,KjAuYK4PpoRA3i5LZmkmZDeF8n52,KjAuYK4PpoRA3i5LZmkmZDeF8n52,,,,,,,,,,,,,,,,,,,2436.0,,,606f1462c3fcfaeb5c52bec8,16:32:56,27/03/2024
html-keyboard-response,165,339284,0.0-69.0-0.0,1594.0,"<div style=""display: flex; flex-direction: column; align-items: center; margin-top: -40px;""><img src=""images/pattern_6.png"" style=""width: 234px; height: 230px; margin-top: -50px;""><div style=""display: flex; justify-content: space-between; margin-top: 33px;""><img src=""images/choice_trial_5.png"" style=""width: 408px; height: 417px; margin-right: 200px;""><img src=""images/choice_trial_11.png"" style=""width: 408px; height: 417px;""></div></div>",j,delaylearn,learning,trial,KjAuYK4PpoRA3i5LZmkmZDeF8n52,KjAuYK4PpoRA3i5LZmkmZDeF8n52,2.0,images/choice_trial_5.png,images/choice_trial_11.png,images/pattern_6.png,j,j,750.0,5.0,11.0,5.0,1.0,30.0,1.0,1.0,11.0,160.0,,,,,,606f1462c3fcfaeb5c52bec8,16:32:56,27/03/2024
html-keyboard-response,166,340287,0.0-69.0-1.0,,"<div style=""display: flex; flex-direction: column; align-items: center; margin-top: -40px;""><img src=""images/pattern_6.png"" style=""width: 234px; height: 230px; margin-top: -50px;""><div style=""display: flex; justify-content: space-between; margin-top: 33px;""><img src=""images/choice_trial_11.png"" style=""width: 408px; height: 417px; margin-left:608px;""></div></div>",,delaylearn,learning,display_response,KjAuYK4PpoRA3i5LZmkmZDeF8n52,KjAuYK4PpoRA3i5LZmkmZDeF8n52,,,,,,,,,,,,,,,,,chosen stimuli: images/choice_trial_11.png,,,,,606f1462c3fcfaeb5c52bec8,16:32:56,27/03/2024
html-keyboard-response,167,341041,0.0-69.0-2.0,,,,delaylearn,learning,feedback_duration_window,KjAuYK4PpoRA3i5LZmkmZDeF8n52,KjAuYK4PpoRA3i5LZmkmZDeF8n52,,,,,,,,,,,,,,,,,,750.0,,,,606f1462c3fcfaeb5c52bec8,16:32:56,27/03/2024
html-keyboard-response,168,342544,0.0-69.0-3.0,,<div style='margin:auto;width: auto; font-size: 150%'><span style='font-weight: bold; font-size: 100px; color: green;'>+10 points!</span><br><br></div>,,delaylearn,learning,feedback_image_window,KjAuYK4PpoRA3i5LZmkmZDeF8n52,KjAuYK4PpoRA3i5LZmkmZDeF8n52,,,,,,,,,,,,,,,,,,,,,,606f1462c3fcfaeb5c52bec8,16:32:56,27/03/2024
html-keyboard-response,169,343046,0.0-70.0-0.0,,,,,,mood_trial_fixation,KjAuYK4PpoRA3i5LZmkmZDeF8n52,,,,,,,,,,,,,,,,,,,,,,,606f1462c3fcfaeb5c52bec8,16:32:56,27/03/2024
lmdlab-html-vas-response,170,347624,0.0-70.0-1.0,3572.0,How happy are you right now?,0.6,delaylearn,learning,mood_trial,KjAuYK4PpoRA3i5LZmkmZDeF8n52,KjAuYK4PpoRA3i5LZmkmZDeF8n52,,,,,,,,,,,,,,,,,,,,"['Very unhappy', 'Very happy']",,606f1462c3fcfaeb5c52bec8,16:32:56,27/03/2024
html-keyboard-response,171,349516,0.0-71.0,,"<div style=""font-size:100px;"">+</div>",,delaylearn,learning,ITI,KjAuYK4PpoRA3i5LZmkmZDeF8n52,KjAuYK4PpoRA3i5LZmkmZDeF8n52,,,,,,,,,,,,,,,,,,,1888.0,,,606f1462c3fcfaeb5c52bec8,16:32:56,27/03/2024
html-keyboard-response,172,352520,0.0-72.0-0.0,,"<div style=""display: flex; flex-direction: column; align-items: center; margin-top: -40px;""><img src=""images/pattern_4.png"" style=""width: 234px; height: 230px; margin-top: -50px;""><div style=""display: flex; justify-content: space-between; margin-top: 33px;""><img src=""images/choice_trial_16.png"" style=""width: 408px; height: 417px; margin-right: 200px;""><img src=""images/choice_trial_4.png"" style=""width: 408px; height: 417px;""></div></div>",,delaylearn,learning,trial,KjAuYK4PpoRA3i5LZmkmZDeF8n52,KjAuYK4PpoRA3i5LZmkmZDeF8n52,2.0,images/choice_trial_16.png,images/choice_trial_4.png,images/pattern_4.png,j,j,7000.0,16.0,4.0,3.0,1.0,31.0,0.0,0.0,0.0,160.0,,,,,,606f1462c3fcfaeb5c52bec8,16:32:56,27/03/2024
html-keyboard-response,173,353523,0.0-72.0-1.0,,<div style='font-weight: bold; font-size: 75px; color: red;'>Missed Trial <br><br><br><br> Please respond faster</div>,,delaylearn,learning,display_response,KjAuYK4PpoRA3i5LZmkmZDeF8n52,KjAuYK4PpoRA3i5LZmkmZDeF8n52,,,,,,,,,,,,,,,,,Missed trial,,,,,606f1462c3fcfaeb5c52bec8,16:32:56,27/03/2024
html-keyboard-response,174,353529,0.0-72.0-2.0,,,,delaylearn,learning,feedback_duration_window,KjAuYK4PpoRA3i5LZmkmZDeF8n52,KjAuYK4PpoRA3i5LZmkmZDeF8n52,,,,,,,,,,,,,,,,,,0.0,,,,606f1462c3fcfaeb5c52bec8,16:32:56,27/03/2024
html-keyboard-response,175,353535,0.0-72.0-3.0,,,,delaylearn,learning,feedback_image_window,KjAuYK4PpoRA3i5LZmkmZDeF8n52,KjAuYK4PpoRA3i5LZmkmZDeF8n52,,,,,,,,,,,,,,,,,,,,,,606f1462c3fcfaeb5c52bec8,16:32:56,27/03/2024
html-keyboard-response,176,355993,0.0-73.0,,"<div style=""font-size:100px;"">+</div>",,delaylearn,learning,ITI,KjAuYK4PpoRA3i5LZmkmZDeF8n52,KjAuYK4PpoRA3i5LZmkmZDeF8n52,,,,,,,,,,,,,,,,,,,2455.0,,,606f1462c3fcfaeb5c52bec8,16:32:56,27/03/2024
html-keyboard-response,177,357463,0.0-74.0-0.0,1466.2000000476837,"<div style=""display: flex; flex-direction: column; align-items: center; margin-top: -40px;""><img src=""images/pattern_3.png"" style=""width: 234px; height: 230px; margin-top: -50px;""><div style=""display: flex; justify-content: space-between; margin-top: 33px;""><img src=""images/choice_trial_14.png"" style=""width: 408px; height: 417px; margin-right: 200px;""><img src=""images/choice_trial_12.png"" style=""width: 408px; height: 417px;""></div></div>",j,delaylearn,learning,trial,KjAuYK4PpoRA3i5LZmkmZDeF8n52,KjAuYK4PpoRA3i5LZmkmZDeF8n52,2.0,images/choice_trial_14.png,images/choice_trial_12.png,images/pattern_3.png,j,j,7000.0,14.0,12.0,2.0,1.0,32.0,1.0,1.0,12.0,170.0,,,,,,606f1462c3fcfaeb5c52bec8,16:32:56,27/03/2024
html-keyboard-response,178,358466,0.0-74.0-1.0,,"<div style=""display: flex; flex-direction: column; align-items: center; margin-top: -40px;""><img src=""images/pattern_3.png"" style=""width: 234px; height: 230px; margin-top: -50px;""><div style=""display: flex; justify-content: space-between; margin-top: 33px;""><img src=""images/choice_trial_12.png"" style=""width: 408px; height: 417px; margin-left:608px;""></div></div>",,delaylearn,learning,display_response,KjAuYK4PpoRA3i5LZmkmZDeF8n52,KjAuYK4PpoRA3i5LZmkmZDeF8n52,,,,,,,,,,,,,,,,,chosen stimuli: images/choice_trial_12.png,,,,,606f1462c3fcfaeb5c52bec8,16:32:56,27/03/2024
html-keyboard-response,179,365468,0.0-74.0-2.0,,,,delaylearn,learning,feedback_duration_window,KjAuYK4PpoRA3i5LZmkmZDeF8n52,KjAuYK4PpoRA3i5LZmkmZDeF8n52,,,,,,,,,,,,,,,,,,7000.0,,,,606f1462c3fcfaeb5c52bec8,16:32:56,27/03/2024
html-keyboard-response,180,366970,0.0-74.0-3.0,,<div style='margin:auto;width: auto; font-size: 150%'><span style='font-weight: bold; font-size: 100px; color: green;'>+10 points!</span><br><br></div>,,delaylearn,learning,feedback_image_window,KjAuYK4PpoRA3i5LZmkmZDeF8n52,KjAuYK4PpoRA3i5LZmkmZDeF8n52,,,,,,,,,,,,,,,,,,,,,,606f1462c3fcfaeb5c52bec8,16:32:56,27/03/2024
html-keyboard-response,181,368621,0.0-75.0,,"<div style=""font-size:100px;"">+</div>",,delaylearn,learning,ITI,KjAuYK4PpoRA3i5LZmkmZDeF8n52,KjAuYK4PpoRA3i5LZmkmZDeF8n52,,,,,,,,,,,,,,,,,,,1649.0,,,606f1462c3fcfaeb5c52bec8,16:32:56,27/03/2024
html-keyboard-response,182,369810,0.0-76.0-0.0,1186.1999999284744,"<div style=""display: flex; flex-direction: column; align-items: center; margin-top: -40px;""><img src=""images/pattern_5.png"" style=""width: 234px; height: 230px; margin-top: -50px;""><div style=""display: flex; justify-content: space-between; margin-top: 33px;""><img src=""images/choice_trial_2.png"" style=""width: 408px; height: 417px; margin-right: 200px;""><img src=""images/choice_trial_9.png"" style=""width: 408px; height: 417px;""></div></div>",f,delaylearn,learning,trial,KjAuYK4PpoRA3i5LZmkmZDeF8n52,KjAuYK4PpoRA3i5LZmkmZDeF8n52,2.0,images/choice_trial_2.png,images/choice_trial_9.png,images/pattern_5.png,j,f,750.0,2.0,9.0,4.0,0.0,33.0,1.0,0.0,2.0,170.0,,,,,,606f1462c3fcfaeb5c52bec8,16:32:56,27/03/2024
html-keyboard-response,183,370813,0.0-76.0-1.0,,"<div style=""display: flex; flex-direction: column; align-items: center; margin-top: -40px;""><img src=""images/pattern_5.png"" style=""width: 234px; height: 230px; margin-top: -50px;""><div style=""display: flex; justify-content: space-between; margin-top: 33px;""><img src=""images/choice_trial_2.png"" style=""width: 408px; height: 417px; margin-right: 608px;""></div></div>",,delaylearn,learning,display_response,KjAuYK4PpoRA3i5LZmkmZDeF8n52,KjAuYK4PpoRA3i5LZmkmZDeF8n52,,,,,,,,,,,,,,,,,chosen stimuli: images/choice_trial_2.png,,,,,606f1462c3fcfaeb5c52bec8,16:32:56,27/03/2024
html-keyboard-response,184,371566,0.0-76.0-2.0,,,,delaylearn,learning,feedback_duration_window,KjAuYK4PpoRA3i5LZmkmZDeF8n52,KjAuYK4PpoRA3i5LZmkmZDeF8n52,,,,,,,,,,,,,,,,,,750.0,,,,606f1462c3fcfaeb5c52bec8,16:32:56,27/03/2024
html-keyboard-response,185,373069,0.0-76.0-3.0,,<div style='margin:auto;width: auto; font-size: 150%'><span style='font-weight: bold; font-size: 100px; color: red;'>0 points!</span><br><br></div>,,delaylearn,learning,feedback_image_window,KjAuYK4PpoRA3i5LZmkmZDeF8n52,KjAuYK4PpoRA3i5LZmkmZDeF8n52,,,,,,,,,,,,,,,,,,,,,,606f1462c3fcfaeb5c52bec8,16:32:56,27/03/2024
html-keyboard-response,186,374808,0.0-77.0,,"<div style=""font-size:100px;"">+</div>",,delaylearn,learning,ITI,KjAuYK4PpoRA3i5LZmkmZDeF8n52,KjAuYK4PpoRA3i5LZmkmZDeF8n52,,,,,,,,,,,,,,,,,,,1737.0,,,606f1462c3fcfaeb5c52bec8,16:32:56,27/03/2024
html-keyboard-response,187,376359,0.0-78.0-0.0,1547.2999999523163,"<div style=""display: flex; flex-direction: column; align-items: center; margin-top: -40px;""><img src=""images/pattern_1.png"" style=""width: 234px; height: 230px; margin-top: -50px;""><div style=""display: flex; justify-content: space-between; margin-top: 33px;""><img src=""images/choice_trial_3.png"" style=""width: 408px; height: 417px; margin-right: 200px;""><img src=""images/choice_trial_10.png"" style=""width: 408px; height: 417px;""></div></div>",j,delaylearn,learning,trial,KjAuYK4PpoRA3i5LZmkmZDeF8n52,KjAuYK4PpoRA3i5LZmkmZDeF8n52,2.0,images/choice_trial_3.png,images/choice_trial_10.png,images/pattern_1.png,f,f,7000.0,3.0,10.0,1.0,0.0,34.0,0.0,0.0,10.0,170.0,,,,,,606f1462c3fcfaeb5c52bec8,16:32:56,27/03/2024
html-keyboard-response,188,377362,0.0-78.0-1.0,,"<div style=""display: flex; flex-direction: column; align-items: center; margin-top: -40px;""><img src=""images/pattern_1.png"" style=""width: 234px; height: 230px; margin-top: -50px;""><div style=""display: flex; justify-content: space-between; margin-top: 33px;""><img src=""images/choice_trial_10.png"" style=""width: 408px; height: 417px; margin-left:608px;""></div></div>",,delaylearn,learning,display_response,KjAuYK4PpoRA3i5LZmkmZDeF8n52,KjAuYK4PpoRA3i5LZmkmZDeF8n52,,,,,,,,,,,,,,,,,chosen stimuli: images/choice_trial_10.png,,,,,606f1462c3fcfaeb5c52bec8,16:32:56,27/03/2024
html-keyboard-response,189,384365,0.0-78.0-2.0,,,,delaylearn,learning,feedback_duration_window,KjAuYK4PpoRA3i5LZmkmZDeF8n52,KjAuYK4PpoRA3i5LZmkmZDeF8n52,,,,,,,,,,,,,,,,,,7000.0,,,,606f1462c3fcfaeb5c52bec8,16:32:56,27/03/2024
html-keyboard-response,190,385868,0.0-78.0-3.0,,<div style='margin:auto;width: auto; font-size: 150%'><span style='font-weight: bold; font-size: 100px; color: red;'>0 points!</span><br><br></div>,,delaylearn,learning,feedback_image_window,KjAuYK4PpoRA3i5LZmkmZDeF8n52,KjAuYK4PpoRA3i5LZmkmZDeF8n52,,,,,,,,,,,,,,,,,,,,,,606f1462c3fcfaeb5c52bec8,16:32:56,27/03/2024
html-keyboard-response,191,386370,0.0-79.0-0.0,,,,,,mood_trial_fixation,KjAuYK4PpoRA3i5LZmkmZDeF8n52,,,,,,,,,,,,,,,,,,,,,,,606f1462c3fcfaeb5c52bec8,16:32:56,27/03/2024
lmdlab-html-vas-response,192,390891,0.0-79.0-1.0,3515.0,How happy are you right now?,0.43148148148148147,delaylearn,learning,mood_trial,KjAuYK4PpoRA3i5LZmkmZDeF8n52,KjAuYK4PpoRA3i5LZmkmZDeF8n52,,,,,,,,,,,,,,,,,,,,"['Very unhappy', 'Very happy']",,606f1462c3fcfaeb5c52bec8,16:32:56,27/03/2024
html-keyboard-response,193,393195,0.0-80.0,,"<div style=""font-size:100px;"">+</div>",,delaylearn,learning,ITI,KjAuYK4PpoRA3i5LZmkmZDeF8n52,KjAuYK4PpoRA3i5LZmkmZDeF8n52,,,,,,,,,,,,,,,,,,,2301.0,,,606f1462c3fcfaeb5c52bec8,16:32:56,27/03/2024
html-keyboard-response,194,394415,0.0-81.0-0.0,1216.7999999523163,"<div style=""display: flex; flex-direction: column; align-items: center; margin-top: -40px;""><img src=""images/pattern_6.png"" style=""width: 234px; height: 230px; margin-top: -50px;""><div style=""display: flex; justify-content: space-between; margin-top: 33px;""><img src=""images/choice_trial_11.png"" style=""width: 408px; height: 417px; margin-right: 200px;""><img src=""images/choice_trial_5.png"" style=""width: 408px; height: 417px;""></div></div>",f,delaylearn,learning,trial,KjAuYK4PpoRA3i5LZmkmZDeF8n52,KjAuYK4PpoRA3i5LZmkmZDeF8n52,2.0,images/choice_trial_11.png,images/choice_trial_5.png,images/pattern_6.png,j,f,750.0,11.0,5.0,5.0,0.0,35.0,1.0,0.0,11.0,170.0,,,,,,606f1462c3fcfaeb5c52bec8,16:32:56,27/03/2024
html-keyboard-response,195,395418,0.0-81.0-1.0,,"<div style=""display: flex; flex-direction: column; align-items: center; margin-top: -40px;""><img src=""images/pattern_6.png"" style=""width: 234px; height: 230px; margin-top: -50px;""><div style=""display: flex; justify-content: space-between; margin-top: 33px;""><img src=""images/choice_trial_11.png"" style=""width: 408px; height: 417px; margin-right: 608px;""></div></div>",,delaylearn,learning,display_response,KjAuYK4PpoRA3i5LZmkmZDeF8n52,KjAuYK4PpoRA3i5LZmkmZDeF8n52,,,,,,,,,,,,,,,,,chosen stimuli: images/choice_trial_11.png,,,,,606f1462c3fcfaeb5c52bec8,16:32:56,27/03/2024
html-keyboard-response,196,396171,0.0-81.0-2.0,,,,delaylearn,learning,feedback_duration_window,KjAuYK4PpoRA3i5LZmkmZDeF8n52,KjAuYK4PpoRA3i5LZmkmZDeF8n52,,,,,,,,,,,,,,,,,,750.0,,,,606f1462c3fcfaeb5c52bec8,16:32:56,27/03/2024
html-keyboard-response,197,397674,0.0-81.0-3.0,,<div style='margin:auto;width: auto; font-size: 150%'><span style='font-weight: bold; font-size: 100px; color: red;'>0 points!</span><br><br></div>,,delaylearn,learning,feedback_image_window,KjAuYK4PpoRA3i5LZmkmZDeF8n52,KjAuYK4PpoRA3i5LZmkmZDeF8n52,,,,,,,,,,,,,,,,,,,,,,606f1462c3fcfaeb5c52bec8,16:32:56,27/03/2024
html-keyboard-response,198,400139,0.0-82.0,,"<div style=""font-size:100px;"">+</div>",,delaylearn,learning,ITI,KjAuYK4PpoRA3i5LZmkmZDeF8n52,KjAuYK4PpoRA3i5LZmkmZDeF8n52,,,,,,,,,,,,,,,,,,,2462.0,,,606f1462c3fcfaeb5c52bec8,16:32:56,27/03/2024
html-keyboard-response,199,400965,0.0-83.0-0.0,822.8000000715256,"<div style=""display: flex; flex-direction: column; align-items: center; margin-top: -40px;""><img src=""images/pattern_3.png"" style=""width: 234px; height: 230px; margin-top: -50px;""><div style=""display: flex; justify-content: space-between; margin-top: 33px;""><img src=""images/choice_trial_14.png"" style=""width: 408px; height: 417px; margin-right: 200px;""><img src=""images/choice_trial_12.png"" style=""width: 408px; height: 417px;""></div></div>",j,delaylearn,learning,trial,KjAuYK4PpoRA3i5LZmkmZDeF8n52,KjAuYK4PpoRA3i5LZmkmZDeF8n52,2.0,images/choice_trial_14.png,images/choice_trial_12.png,images/pattern_3.png,j,j,7000.0,14.0,12.0,2.0,1.0,36.0,1.0,1.0,12.0,180.0,,,,,,606f1462c3fcfaeb5c52bec8,16:32:56,27/03/2024
html-keyboard-response,200,401969,0.0-83.0-1.0,,"<div style=""display: flex; flex-direction: column; align-items: center; margin-top: -40px;""><img src=""images/pattern_3.png"" style=""width: 234px; height: 230px; margin-top: -50px;""><div style=""display: flex; justify-content: space-between; margin-top: 33px;""><img src=""images/choice_trial_12.png"" style=""width: 408px; height: 417px; margin-left:608px;""></div></div>",,delaylearn,learning,display_response,KjAuYK4PpoRA3i5LZmkmZDeF8n52,KjAuYK4PpoRA3i5LZmkmZDeF8n52,,,,,,,,,,,,,,,,,chosen stimuli: images/choice_trial_12.png,,,,,606f1462c3fcfaeb5c52bec8,16:32:56,27/03/2024
html-keyboard-response,201,408972,0.0-83.0-2.0,,,,delaylearn,learning,feedback_duration_window,KjAuYK4PpoRA3i5LZmkmZDeF8n52,KjAuYK4PpoRA3i5LZmkmZDeF8n52,,,,,,,,,,,,,,,,,,7000.0,,,,606f1462c3fcfaeb5c52bec8,16:32:56,27/03/2024
html-keyboard-response,202,410475,0.0-83.0-3.0,,<div style='margin:auto;width: auto; font-size: 150%'><span style='font-weight: bold; font-size: 100px; color: green;'>+10 points!</span><br><br></div>,,delaylearn,learning,feedback_image_window,KjAuYK4PpoRA3i5LZmkmZDeF8n52,KjAuYK4PpoRA3i5LZmkmZDeF8n52,,,,,,,,,,,,,,,,,,,,,,606f1462c3fcfaeb5c52bec8,16:32:56,27/03/2024
html-keyboard-response,203,412513,0.0-84.0,,"<div style=""font-size:100px;"">+</div>",,delaylearn,learning,ITI,KjAuYK4PpoRA3i5LZmkmZDeF8n52,KjAuYK4PpoRA3i5LZmkmZDeF8n52,,,,,,,,,,,,,,,,,,,2035.0,,,606f1462c3fcfaeb5c52bec8,16:32:56,27/03/2024
html-keyboard-response,204,413610,0.0-85.0-0.0,1094.1999999284744,"<div style=""display: flex; flex-direction: column; align-items: center; margin-top: -40px;""><img src=""images/pattern_4.png"" style=""width: 234px; height: 230px; margin-top: -50px;""><div style=""display: flex; justify-content: space-between; margin-top: 33px;""><img src=""images/choice_trial_16.png"" style=""width: 408px; height: 417px; margin-right: 200px;""><img src=""images/choice_trial_4.png"" style=""width: 408px; height: 417px;""></div></div>",j,delaylearn,learning,trial,KjAuYK4PpoRA3i5LZmkmZDeF8n52,KjAuYK4PpoRA3i5LZmkmZDeF8n52,2.0,images/choice_trial_16.png,images/choice_trial_4.png,images/pattern_4.png,f,j,7000.0,16.0,4.0,3.0,1.0,37.0,1.0,0.0,4.0,180.0,,,,,,606f1462c3fcfaeb5c52bec8,16:32:56,27/03/2024
html-keyboard-response,205,414613,0.0-85.0-1.0,,"<div style=""display: flex; flex-direction: column; align-items: center; margin-top: -40px;""><img src=""images/pattern_4.png"" style=""width: 234px; height: 230px; margin-top: -50px;""><div style=""display: flex; justify-content: space-between; margin-top: 33px;""><img src=""images/choice_trial_4.png"" style=""width: 408px; height: 417px; margin-left:608px;""></div></div>",,delaylearn,learning,display_response,KjAuYK4PpoRA3i5LZmkmZDeF8n52,KjAuYK4PpoRA3i5LZmkmZDeF8n52,,,,,,,,,,,,,,,,,chosen stimuli: images/choice_trial_4.png,,,,,606f1462c3fcfaeb5c52bec8,16:32:56,27/03/2024
html-keyboard-response,206,421615,0.0-85.0-2.0,,,,delaylearn,learning,feedback_duration_window,KjAuYK4PpoRA3i5LZmkmZDeF8n52,KjAuYK4PpoRA3i5LZmkmZDeF8n52,,,,,,,,,,,,,,,,,,7000.0,,,,606f1462c3fcfaeb5c52bec8,16:32:56,27/03/2024
html-keyboard-response,207,423118,0.0-85.0-3.0,,<div style='margin:auto;width: auto; font-size: 150%'><span style='font-weight: bold; font-size: 100px; color: red;'>0 points!</span><br><br></div>,,delaylearn,learning,feedback_image_window,KjAuYK4PpoRA3i5LZmkmZDeF8n52,KjAuYK4PpoRA3i5LZmkmZDeF8n52,,,,,,,,,,,,,,,,,,,,,,606f1462c3fcfaeb5c52bec8,16:32:56,27/03/2024
html-keyboard-response,208,425524,0.0-86.0,,"<div style=""font-size:100px;"">+</div>",,delaylearn,learning,ITI,KjAuYK4PpoRA3i5LZmkmZDeF8n52,KjAuYK4PpoRA3i5LZmkmZDeF8n52,,,,,,,,,,,,,,,,,,,2403.0,,,606f1462c3fcfaeb5c52bec8,16:32:56,27/03/2024
html-keyboard-response,209,427044,0.0-87.0-0.0,1515.6000000238419,"<div style=""display: flex; flex-direction: column; align-items: center; margin-top: -40px;""><img src=""images/pattern_7.png"" style=""width: 234px; height: 230px; margin-top: -50px;""><div style=""display: flex; justify-content: space-between; margin-top: 33px;""><img src=""images/choice_trial_8.png"" style=""width: 408px; height: 417px; margin-right: 200px;""><img src=""images/choice_trial_15.png"" style=""width: 408px; height: 417px;""></div></div>",j,delaylearn,learning,trial,KjAuYK4PpoRA3i5LZmkmZDeF8n52,KjAuYK4PpoRA3i5LZmkmZDeF8n52,2.0,images/choice_trial_8.png,images/choice_trial_15.png,images/pattern_7.png,f,f,750.0,8.0,15.0,6.0,0.0,38.0,0.0,0.0,15.0,180.0,,,,,,606f1462c3fcfaeb5c52bec8,16:32:56,27/03/2024
html-keyboard-response,210,428047,0.0-87.0-1.0,,"<div style=""display: flex; flex-direction: column; align-items: center; margin-top: -40px;""><img src=""images/pattern_7.png"" style=""width: 234px; height: 230px; margin-top: -50px;""><div style=""display: flex; justify-content: space-between; margin-top: 33px;""><img src=""images/choice_trial_15.png"" style=""width: 408px; height: 417px; margin-left:608px;""></div></div>",,delaylearn,learning,display_response,KjAuYK4PpoRA3i5LZmkmZDeF8n52,KjAuYK4PpoRA3i5LZmkmZDeF8n52,,,,,,,,,,,,,,,,,chosen stimuli: images/choice_trial_15.png,,,,,606f1462c3fcfaeb5c52bec8,16:32:56,27/03/2024
html-keyboard-response,211,428800,0.0-87.0-2.0,,,,delaylearn,learning,feedback_duration_window,KjAuYK4PpoRA3i5LZmkmZDeF8n52,KjAuYK4PpoRA3i5LZmkmZDeF8n52,,,,,,,,,,,,,,,,,,750.0,,,,606f1462c3fcfaeb5c52bec8,16:32:56,27/03/2024
html-keyboard-response,212,430303,0.0-87.0-3.0,,<div style='margin:auto;width: auto; font-size: 150%'><span style='font-weight: bold; font-size: 100px; color: red;'>0 points!</span><br><br></div>,,delaylearn,learning,feedback_image_window,KjAuYK4PpoRA3i5LZmkmZDeF8n52,KjAuYK4PpoRA3i5LZmkmZDeF8n52,,,,,,,,,,,,,,,,,,,,,,606f1462c3fcfaeb5c52bec8,16:32:56,27/03/2024
html-keyboard-response,213,432398,0.0-88.0,,"<div style=""font-size:100px;"">+</div>",,delaylearn,learning,ITI,KjAuYK4PpoRA3i5LZmkmZDeF8n52,KjAuYK4PpoRA3i5LZmkmZDeF8n52,,,,,,,,,,,,,,,,,,,2093.0,,,606f1462c3fcfaeb5c52bec8,16:32:56,27/03/2024
html-keyboard-response,214,433512,0.0-89.0-0.0,1110.8000000715256,"<div style=""display: flex; flex-direction: column; align-items: center; margin-top: -40px;""><img src=""images/pattern_1.png"" style=""width: 234px; height: 230px; margin-top: -50px;""><div style=""display: flex; justify-content: space-between; margin-top: 33px;""><img src=""images/choice_trial_3.png"" style=""width: 408px; height: 417px; margin-right: 200px;""><img src=""images/choice_trial_10.png"" style=""width: 408px; height: 417px;""></div></div>",f,delaylearn,learning,trial,KjAuYK4PpoRA3i5LZmkmZDeF8n52,KjAuYK4PpoRA3i5LZmkmZDeF8n52,2.0,images/choice_trial_3.png,images/choice_trial_10.png,images/pattern_1.png,f,f,7000.0,3.0,10.0,1.0,0.0,39.0,1.0,1.0,3.0,190.0,,,,,,606f1462c3fcfaeb5c52bec8,16:32:56,27/03/2024
html-keyboard-response,215,434515,0.0-89.0-1.0,,"<div style=""display: flex; flex-direction: column; align-items: center; margin-top: -40px;""><img src=""images/pattern_1.png"" style=""width: 234px; height: 230px; margin-top: -50px;""><div style=""display: flex; justify-content: space-between; margin-top: 33px;""><img src=""images/choice_trial_3.png"" style=""width: 408px; height: 417px; margin-right: 608px;""></div></div>",,delaylearn,learning,display_response,KjAuYK4PpoRA3i5LZmkmZDeF8n52,KjAuYK4PpoRA3i5LZmkmZDeF8n52,,,,,,,,,,,,,,,,,chosen stimuli: images/choice_trial_3.png,,,,,606f1462c3fcfaeb5c52bec8,16:32:56,27/03/2024
html-keyboard-response,216,441517,0.0-89.0-2.0,,,,delaylearn,learning,feedback_duration_window,KjAuYK4PpoRA3i5LZmkmZDeF8n52,KjAuYK4PpoRA3i5LZmkmZDeF8n52,,,,,,,,,,,,,,,,,,7000.0,,,,606f1462c3fcfaeb5c52bec8,16:32:56,27/03/2024
html-keyboard-response,217,443020,0.0-89.0-3.0,,<div style='margin:auto;width: auto; font-size: 150%'><span style='font-weight: bold; font-size: 100px; color: green;'>+10 points!</span><br><br></div>,,delaylearn,learning,feedback_image_window,KjAuYK4PpoRA3i5LZmkmZDeF8n52,KjAuYK4PpoRA3i5LZmkmZDeF8n52,,,,,,,,,,,,,,,,,,,,,,606f1462c3fcfaeb5c52bec8,16:32:56,27/03/2024
html-keyboard-response,218,443522,0.0-90.0-0.0,,,,,,mood_trial_fixation,KjAuYK4PpoRA3i5LZmkmZDeF8n52,,,,,,,,,,,,,,,,,,,,,,,606f1462c3fcfaeb5c52bec8,16:32:56,27/03/2024
lmdlab-html-vas-response,219,447030,0.0-90.0-1.0,2502.0,How happy are you right now?,0.5481481481481482,delaylearn,learning,mood_trial,KjAuYK4PpoRA3i5LZmkmZDeF8n52,KjAuYK4PpoRA3i5LZmkmZDeF8n52,,,,,,,,,,,,,,,,,,,,"['Very unhappy', 'Very happy']",,606f1462c3fcfaeb5c52bec8,16:32:56,27/03/2024
html-keyboard-response,220,449379,0.0-91.0,,"<div style=""font-size:100px;"">+</div>",,delaylearn,learning,ITI,KjAuYK4PpoRA3i5LZmkmZDeF8n52,KjAuYK4PpoRA3i5LZmkmZDeF8n52,,,,,,,,,,,,,,,,,,,2346.0,,,606f1462c3fcfaeb5c52bec8,16:32:56,27/03/2024
html-keyboard-response,221,450260,0.0-92.0-0.0,877.6000000238419,"<div style=""display: flex; flex-direction: column; align-items: center; margin-top: -40px;""><img src=""images/pattern_3.png"" style=""width: 234px; height: 230px; margin-top: -50px;""><div style=""display: flex; justify-content: space-between; margin-top: 33px;""><img src=""images/choice_trial_12.png"" style=""width: 408px; height: 417px; margin-right: 200px;""><img src=""images/choice_trial_14.png"" style=""width: 408px; height: 417px;""></div></div>",f,delaylearn,learning,trial,KjAuYK4PpoRA3i5LZmkmZDeF8n52,KjAuYK4PpoRA3i5LZmkmZDeF8n52,2.0,images/choice_trial_12.png,images/choice_trial_14.png,images/pattern_3.png,j,f,7000.0,12.0,14.0,2.0,0.0,40.0,1.0,0.0,12.0,190.0,,,,,,606f1462c3fcfaeb5c52bec8,16:32:56,27/03/2024
html-keyboard-response,222,451264,0.0-92.0-1.0,,"<div style=""display: flex; flex-direction: column; align-items: center; margin-top: -40px;""><img src=""images/pattern_3.png"" style=""width: 234px; height: 230px; margin-top: -50px;""><div style=""display: flex; justify-content: space-between; margin-top: 33px;""><img src=""images/choice_trial_12.png"" style=""width: 408px; height: 417px; margin-right: 608px;""></div></div>",,delaylearn,learning,display_response,KjAuYK4PpoRA3i5LZmkmZDeF8n52,KjAuYK4PpoRA3i5LZmkmZDeF8n52,,,,,,,,,,,,,,,,,chosen stimuli: images/choice_trial_12.png,,,,,606f1462c3fcfaeb5c52bec8,16:32:56,27/03/2024
html-keyboard-response,223,458267,0.0-92.0-2.0,,,,delaylearn,learning,feedback_duration_window,KjAuYK4PpoRA3i5LZmkmZDeF8n52,KjAuYK4PpoRA3i5LZmkmZDeF8n52,,,,,,,,,,,,,,,,,,7000.0,,,,606f1462c3fcfaeb5c52bec8,16:32:56,27/03/2024
html-keyboard-response,224,459770,0.0-92.0-3.0,,<div style='margin:auto;width: auto; font-size: 150%'><span style='font-weight: bold; font-size: 100px; color: red;'>0 points!</span><br><br></div>,,delaylearn,learning,feedback_image_window,KjAuYK4PpoRA3i5LZmkmZDeF8n52,KjAuYK4PpoRA3i5LZmkmZDeF8n52,,,,,,,,,,,,,,,,,,,,,,606f1462c3fcfaeb5c52bec8,16:32:56,27/03/2024
html-keyboard-response,225,461740,0.0-93.0,,"<div style=""font-size:100px;"">+</div>",,delaylearn,learning,ITI,KjAuYK4PpoRA3i5LZmkmZDeF8n52,KjAuYK4PpoRA3i5LZmkmZDeF8n52,,,,,,,,,,,,,,,,,,,1966.0,,,606f1462c3fcfaeb5c52bec8,16:32:56,27/03/2024
html-keyboard-response,226,462411,0.0-94.0-0.0,667.7000000476837,"<div style=""display: flex; flex-direction: column; align-items: center; margin-top: -40px;""><img src=""images/pattern_7.png"" style=""width: 234px; height: 230px; margin-top: -50px;""><div style=""display: flex; justify-content: space-between; margin-top: 33px;""><img src=""images/choice_trial_15.png"" style=""width: 408px; height: 417px; margin-right: 200px;""><img src=""images/choice_trial_8.png"" style=""width: 408px; height: 417px;""></div></div>",f,delaylearn,learning,trial,KjAuYK4PpoRA3i5LZmkmZDeF8n52,KjAuYK4PpoRA3i5LZmkmZDeF8n52,2.0,images/choice_trial_15.png,images/choice_trial_8.png,images/pattern_7.png,j,j,750.0,15.0,8.0,6.0,1.0,41.0,0.0,0.0,15.0,190.0,,,,,,606f1462c3fcfaeb5c52bec8,16:32:56,27/03/2024
html-keyboard-response,227,463414,0.0-94.0-1.0,,"<div style=""display: flex; flex-direction: column; align-items: center; margin-top: -40px;""><img src=""images/pattern_7.png"" style=""width: 234px; height: 230px; margin-top: -50px;""><div style=""display: flex; justify-content: space-between; margin-top: 33px;""><img src=""images/choice_trial_15.png"" style=""width: 408px; height: 417px; margin-right: 608px;""></div></div>",,delaylearn,learning,display_response,KjAuYK4PpoRA3i5LZmkmZDeF8n52,KjAuYK4PpoRA3i5LZmkmZDeF8n52,,,,,,,,,,,,,,,,,chosen stimuli: images/choice_trial_15.png,,,,,606f1462c3fcfaeb5c52bec8,16:32:56,27/03/2024
html-keyboard-response,228,464167,0.0-94.0-2.0,,,,delaylearn,learning,feedback_duration_window,KjAuYK4PpoRA3i5LZmkmZDeF8n52,KjAuYK4PpoRA3i5LZmkmZDeF8n52,,,,,,,,,,,,,,,,,,750.0,,,,606f1462c3fcfaeb5c52bec8,16:32:56,27/03/2024
html-keyboard-response,229,465670,0.0-94.0-3.0,,<div style='margin:auto;width: auto; font-size: 150%'><span style='font-weight: bold; font-size: 100px; color: red;'>0 points!</span><br><br></div>,,delaylearn,learning,feedback_image_window,KjAuYK4PpoRA3i5LZmkmZDeF8n52,KjAuYK4PpoRA3i5LZmkmZDeF8n52,,,,,,,,,,,,,,,,,,,,,,606f1462c3fcfaeb5c52bec8,16:32:56,27/03/2024
html-keyboard-response,230,467563,0.0-95.0,,"<div style=""font-size:100px;"">+</div>",,delaylearn,learning,ITI,KjAuYK4PpoRA3i5LZmkmZDeF8n52,KjAuYK4PpoRA3i5LZmkmZDeF8n52,,,,,,,,,,,,,,,,,,,1890.0,,,606f1462c3fcfaeb5c52bec8,16:32:56,27/03/2024
html-keyboard-response,231,469089,0.0-96.0-0.0,1523.1000000238419,"<div style=""display: flex; flex-direction: column; align-items: center; margin-top: -40px;""><img src=""images/pattern_5.png"" style=""width: 234px; height: 230px; margin-top: -50px;""><div style=""display: flex; justify-content: space-between; margin-top: 33px;""><img src=""images/choice_trial_9.png"" style=""width: 408px; height: 417px; margin-right: 200px;""><img src=""images/choice_trial_2.png"" style=""width: 408px; height: 417px;""></div></div>",j,delaylearn,learning,trial,KjAuYK4PpoRA3i5LZmkmZDeF8n52,KjAuYK4PpoRA3i5LZmkmZDeF8n52,2.0,images/choice_trial_9.png,images/choice_trial_2.png,images/pattern_5.png,j,j,750.0,9.0,2.0,4.0,1.0,42.0,1.0,1.0,2.0,200.0,,,,,,606f1462c3fcfaeb5c52bec8,16:32:56,27/03/2024
