trial_type,trial_index,time_elapsed,internal_node_id,rt,stimulus,response,exp_name,exp_stage,test_part,subjectID,databaseID,counterbal,choice_stimuli_1,choice_stimuli_2,pattern_stimuli,rewarded_answer,correct_answer,feedback_duration_times,stim_left,stim_right,pair,leftright_counter,trial,response_correct,response_rewarded,chosen_stim,counter,displayed_choice,feedback_durations,ITI_duration,labels,rest_warning,prolificID,start_time,date
pavlovia,0,1643,0.0-0.0,,,,,,,W3lYnXarOHWz1dTrxCC1C2qdqEy2,,,,,,,,,,,,,,,,,,,,,,,65be5c84defe30b60960f46f,10:12:19,27/02/2024
html-keyboard-response,1,4664,0.0-1.0,,"<div style=""font-size:100px;"">+</div>",,delaylearn,learning,pre_fixation,W3lYnXarOHWz1dTrxCC1C2qdqEy2,,,,,,,,,,,,,,,,,,,,,,,65be5c84defe30b60960f46f,10:12:19,27/02/2024
html-keyboard-response,2,5805,0.0-2.0-0.0,1133.2000000178814,"<div style=""display: flex; flex-direction: column; align-items: center; margin-top: -40px;""><img src=""images/demo_images/pattern_1.png"" style=""width: 234px; height: 230px; margin-top: -50px;""><div style=""display: flex; justify-content: space-between; margin-top: 33px;""><img src=""images/demo_images/choice_trial_2.png"" style=""width: 408px; height: 417px; margin-right: 200px;""><img src=""images/demo_images/choice_trial_1.png"" style=""width: 408px; height: 417px;""></div></div>",f,delaylearn,learning,trial,W3lYnXarOHWz1dTrxCC1C2qdqEy2,W3lYnXarOHWz1dTrxCC1C2qdqEy2,3.0,images/demo_images/choice_trial_2.png,images/demo_images/choice_trial_1.png,images/demo_images/pattern_1.png,j,j,3000.0,2.0,1.0,20.0,1.0,1.0,0.0,0.0,2.0,0.0,,,,,,65be5c84defe30b60960f46f,10:12:19,27/02/2024
html-keyboard-response,3,6813,0.0-2.0-1.0,,"<div style=""display: flex; flex-direction: column; align-items: center; margin-top: -40px;""><img src=""images/demo_images/pattern_1.png"" style=""width: 234px; height: 230px; margin-top: -50px;""><div style=""display: flex; justify-content: space-between; margin-top: 33px;""><img src=""images/demo_images/choice_trial_2.png"" style=""width: 408px; height: 417px; margin-right: 608px;""></div></div>",,delaylearn,learning,display_response,W3lYnXarOHWz1dTrxCC1C2qdqEy2,W3lYnXarOHWz1dTrxCC1C2qdqEy2,,,,,,,,,,,,,,,,,chosen stimuli: images/demo_images/choice_trial_2.png,,,,,65be5c84defe30b60960f46f,10:12:19,27/02/2024
html-keyboard-response,4,9817,0.0-2.0-2.0,,,,delaylearn,learning,feedback_duration_window,W3lYnXarOHWz1dTrxCC1C2qdqEy2,W3lYnXarOHWz1dTrxCC1C2qdqEy2,,,,,,,,,,,,,,,,,,3000.0,,,,65be5c84defe30b60960f46f,10:12:19,27/02/2024
html-keyboard-response,5,11322,0.0-2.0-3.0,,<div style='margin:auto;width: auto; font-size: 150%'><span style='font-weight: bold; font-size: 100px; color: red;'>0 points!</span><br><br></div>,,delaylearn,learning,feedback_image_window,W3lYnXarOHWz1dTrxCC1C2qdqEy2,W3lYnXarOHWz1dTrxCC1C2qdqEy2,,,,,,,,,,,,,,,,,,,,,,65be5c84defe30b60960f46f,10:12:19,27/02/2024
html-keyboard-response,6,13410,0.0-3.0,,"<div style=""font-size:100px;"">+</div>",,delaylearn,learning,ITI,W3lYnXarOHWz1dTrxCC1C2qdqEy2,W3lYnXarOHWz1dTrxCC1C2qdqEy2,,,,,,,,,,,,,,,,,,,2082.0,,,65be5c84defe30b60960f46f,10:12:19,27/02/2024
html-keyboard-response,7,14390,0.0-4.0-0.0,977.4000000059605,"<div style=""display: flex; flex-direction: column; align-items: center; margin-top: -40px;""><img src=""images/demo_images/pattern_1.png"" style=""width: 234px; height: 230px; margin-top: -50px;""><div style=""display: flex; justify-content: space-between; margin-top: 33px;""><img src=""images/demo_images/choice_trial_2.png"" style=""width: 408px; height: 417px; margin-right: 200px;""><img src=""images/demo_images/choice_trial_1.png"" style=""width: 408px; height: 417px;""></div></div>",f,delaylearn,learning,trial,W3lYnXarOHWz1dTrxCC1C2qdqEy2,W3lYnXarOHWz1dTrxCC1C2qdqEy2,3.0,images/demo_images/choice_trial_2.png,images/demo_images/choice_trial_1.png,images/demo_images/pattern_1.png,j,j,3000.0,2.0,1.0,20.0,1.0,2.0,0.0,0.0,2.0,0.0,,,,,,65be5c84defe30b60960f46f,10:12:19,27/02/2024
html-keyboard-response,8,15400,0.0-4.0-1.0,,"<div style=""display: flex; flex-direction: column; align-items: center; margin-top: -40px;""><img src=""images/demo_images/pattern_1.png"" style=""width: 234px; height: 230px; margin-top: -50px;""><div style=""display: flex; justify-content: space-between; margin-top: 33px;""><img src=""images/demo_images/choice_trial_2.png"" style=""width: 408px; height: 417px; margin-right: 608px;""></div></div>",,delaylearn,learning,display_response,W3lYnXarOHWz1dTrxCC1C2qdqEy2,W3lYnXarOHWz1dTrxCC1C2qdqEy2,,,,,,,,,,,,,,,,,chosen stimuli: images/demo_images/choice_trial_2.png,,,,,65be5c84defe30b60960f46f,10:12:19,27/02/2024
html-keyboard-response,9,18416,0.0-4.0-2.0,,,,delaylearn,learning,feedback_duration_window,W3lYnXarOHWz1dTrxCC1C2qdqEy2,W3lYnXarOHWz1dTrxCC1C2qdqEy2,,,,,,,,,,,,,,,,,,3000.0,,,,65be5c84defe30b60960f46f,10:12:19,27/02/2024
html-keyboard-response,10,19920,0.0-4.0-3.0,,<div style='margin:auto;width: auto; font-size: 150%'><span style='font-weight: bold; font-size: 100px; color: red;'>0 points!</span><br><br></div>,,delaylearn,learning,feedback_image_window,W3lYnXarOHWz1dTrxCC1C2qdqEy2,W3lYnXarOHWz1dTrxCC1C2qdqEy2,,,,,,,,,,,,,,,,,,,,,,65be5c84defe30b60960f46f,10:12:19,27/02/2024
html-keyboard-response,11,22323,0.0-5.0,,"<div style=""font-size:100px;"">+</div>",,delaylearn,learning,ITI,W3lYnXarOHWz1dTrxCC1C2qdqEy2,W3lYnXarOHWz1dTrxCC1C2qdqEy2,,,,,,,,,,,,,,,,,,,2392.0,,,65be5c84defe30b60960f46f,10:12:19,27/02/2024
html-keyboard-response,12,23374,0.0-6.0-0.0,1046.3999999761581,"<div style=""display: flex; flex-direction: column; align-items: center; margin-top: -40px;""><img src=""images/demo_images/pattern_1.png"" style=""width: 234px; height: 230px; margin-top: -50px;""><div style=""display: flex; justify-content: space-between; margin-top: 33px;""><img src=""images/demo_images/choice_trial_1.png"" style=""width: 408px; height: 417px; margin-right: 200px;""><img src=""images/demo_images/choice_trial_2.png"" style=""width: 408px; height: 417px;""></div></div>",j,delaylearn,learning,trial,W3lYnXarOHWz1dTrxCC1C2qdqEy2,W3lYnXarOHWz1dTrxCC1C2qdqEy2,3.0,images/demo_images/choice_trial_1.png,images/demo_images/choice_trial_2.png,images/demo_images/pattern_1.png,j,f,3000.0,1.0,2.0,20.0,0.0,3.0,0.0,1.0,2.0,10.0,,,,,,65be5c84defe30b60960f46f,10:12:19,27/02/2024
html-keyboard-response,13,24384,0.0-6.0-1.0,,"<div style=""display: flex; flex-direction: column; align-items: center; margin-top: -40px;""><img src=""images/demo_images/pattern_1.png"" style=""width: 234px; height: 230px; margin-top: -50px;""><div style=""display: flex; justify-content: space-between; margin-top: 33px;""><img src=""images/demo_images/choice_trial_2.png"" style=""width: 408px; height: 417px; margin-left:608px;""></div></div>",,delaylearn,learning,display_response,W3lYnXarOHWz1dTrxCC1C2qdqEy2,W3lYnXarOHWz1dTrxCC1C2qdqEy2,,,,,,,,,,,,,,,,,chosen stimuli: images/demo_images/choice_trial_2.png,,,,,65be5c84defe30b60960f46f,10:12:19,27/02/2024
html-keyboard-response,14,27394,0.0-6.0-2.0,,,,delaylearn,learning,feedback_duration_window,W3lYnXarOHWz1dTrxCC1C2qdqEy2,W3lYnXarOHWz1dTrxCC1C2qdqEy2,,,,,,,,,,,,,,,,,,3000.0,,,,65be5c84defe30b60960f46f,10:12:19,27/02/2024
html-keyboard-response,15,28898,0.0-6.0-3.0,,<div style='margin:auto;width: auto; font-size: 150%'><span style='font-weight: bold; font-size: 100px; color: green;'>+10 points!</span><br><br></div>,,delaylearn,learning,feedback_image_window,W3lYnXarOHWz1dTrxCC1C2qdqEy2,W3lYnXarOHWz1dTrxCC1C2qdqEy2,,,,,,,,,,,,,,,,,,,,,,65be5c84defe30b60960f46f,10:12:19,27/02/2024
html-keyboard-response,16,30680,0.0-7.0,,"<div style=""font-size:100px;"">+</div>",,delaylearn,learning,ITI,W3lYnXarOHWz1dTrxCC1C2qdqEy2,W3lYnXarOHWz1dTrxCC1C2qdqEy2,,,,,,,,,,,,,,,,,,,1771.0,,,65be5c84defe30b60960f46f,10:12:19,27/02/2024
html-keyboard-response,17,31854,0.0-8.0-0.0,1169.5999999940395,"<div style=""display: flex; flex-direction: column; align-items: center; margin-top: -40px;""><img src=""images/demo_images/pattern_1.png"" style=""width: 234px; height: 230px; margin-top: -50px;""><div style=""display: flex; justify-content: space-between; margin-top: 33px;""><img src=""images/demo_images/choice_trial_1.png"" style=""width: 408px; height: 417px; margin-right: 200px;""><img src=""images/demo_images/choice_trial_2.png"" style=""width: 408px; height: 417px;""></div></div>",f,delaylearn,learning,trial,W3lYnXarOHWz1dTrxCC1C2qdqEy2,W3lYnXarOHWz1dTrxCC1C2qdqEy2,3.0,images/demo_images/choice_trial_1.png,images/demo_images/choice_trial_2.png,images/demo_images/pattern_1.png,f,f,3000.0,1.0,2.0,20.0,0.0,4.0,1.0,1.0,1.0,20.0,,,,,,65be5c84defe30b60960f46f,10:12:19,27/02/2024
html-keyboard-response,18,32862,0.0-8.0-1.0,,"<div style=""display: flex; flex-direction: column; align-items: center; margin-top: -40px;""><img src=""images/demo_images/pattern_1.png"" style=""width: 234px; height: 230px; margin-top: -50px;""><div style=""display: flex; justify-content: space-between; margin-top: 33px;""><img src=""images/demo_images/choice_trial_1.png"" style=""width: 408px; height: 417px; margin-right: 608px;""></div></div>",,delaylearn,learning,display_response,W3lYnXarOHWz1dTrxCC1C2qdqEy2,W3lYnXarOHWz1dTrxCC1C2qdqEy2,,,,,,,,,,,,,,,,,chosen stimuli: images/demo_images/choice_trial_1.png,,,,,65be5c84defe30b60960f46f,10:12:19,27/02/2024
html-keyboard-response,19,35874,0.0-8.0-2.0,,,,delaylearn,learning,feedback_duration_window,W3lYnXarOHWz1dTrxCC1C2qdqEy2,W3lYnXarOHWz1dTrxCC1C2qdqEy2,,,,,,,,,,,,,,,,,,3000.0,,,,65be5c84defe30b60960f46f,10:12:19,27/02/2024
html-keyboard-response,20,37382,0.0-8.0-3.0,,<div style='margin:auto;width: auto; font-size: 150%'><span style='font-weight: bold; font-size: 100px; color: green;'>+10 points!</span><br><br></div>,,delaylearn,learning,feedback_image_window,W3lYnXarOHWz1dTrxCC1C2qdqEy2,W3lYnXarOHWz1dTrxCC1C2qdqEy2,,,,,,,,,,,,,,,,,,,,,,65be5c84defe30b60960f46f,10:12:19,27/02/2024
html-keyboard-response,21,37892,0.0-9.0-0.0,,,,,,mood_trial_fixation,W3lYnXarOHWz1dTrxCC1C2qdqEy2,,,,,,,,,,,,,,,,,,,,,,,65be5c84defe30b60960f46f,10:12:19,27/02/2024
lmdlab-html-vas-response,22,44289,0.0-9.0-1.0,5382.0,How happy are you right now?,0.9089746753563268,delaylearn,learning,mood_trial,W3lYnXarOHWz1dTrxCC1C2qdqEy2,W3lYnXarOHWz1dTrxCC1C2qdqEy2,,,,,,,,,,,,,,,,,,,,"['Very unhappy', 'Very happy']",,65be5c84defe30b60960f46f,10:12:19,27/02/2024
html-keyboard-response,23,46444,0.0-10.0,,"<div style=""font-size:100px;"">+</div>",,delaylearn,learning,ITI,W3lYnXarOHWz1dTrxCC1C2qdqEy2,W3lYnXarOHWz1dTrxCC1C2qdqEy2,,,,,,,,,,,,,,,,,,,2137.0,,,65be5c84defe30b60960f46f,10:12:19,27/02/2024
html-keyboard-response,24,46843,0.0-11.0-0.0,394.60000002384186,"<div style=""display: flex; flex-direction: column; align-items: center; margin-top: -40px;""><img src=""images/demo_images/pattern_1.png"" style=""width: 234px; height: 230px; margin-top: -50px;""><div style=""display: flex; justify-content: space-between; margin-top: 33px;""><img src=""images/demo_images/choice_trial_2.png"" style=""width: 408px; height: 417px; margin-right: 200px;""><img src=""images/demo_images/choice_trial_1.png"" style=""width: 408px; height: 417px;""></div></div>",f,delaylearn,learning,trial,W3lYnXarOHWz1dTrxCC1C2qdqEy2,W3lYnXarOHWz1dTrxCC1C2qdqEy2,3.0,images/demo_images/choice_trial_2.png,images/demo_images/choice_trial_1.png,images/demo_images/pattern_1.png,j,j,3000.0,2.0,1.0,20.0,1.0,5.0,0.0,0.0,2.0,20.0,,,,,,65be5c84defe30b60960f46f,10:12:19,27/02/2024
html-keyboard-response,25,47860,0.0-11.0-1.0,,"<div style=""display: flex; flex-direction: column; align-items: center; margin-top: -40px;""><img src=""images/demo_images/pattern_1.png"" style=""width: 234px; height: 230px; margin-top: -50px;""><div style=""display: flex; justify-content: space-between; margin-top: 33px;""><img src=""images/demo_images/choice_trial_2.png"" style=""width: 408px; height: 417px; margin-right: 608px;""></div></div>",,delaylearn,learning,display_response,W3lYnXarOHWz1dTrxCC1C2qdqEy2,W3lYnXarOHWz1dTrxCC1C2qdqEy2,,,,,,,,,,,,,,,,,chosen stimuli: images/demo_images/choice_trial_2.png,,,,,65be5c84defe30b60960f46f,10:12:19,27/02/2024
html-keyboard-response,26,50874,0.0-11.0-2.0,,,,delaylearn,learning,feedback_duration_window,W3lYnXarOHWz1dTrxCC1C2qdqEy2,W3lYnXarOHWz1dTrxCC1C2qdqEy2,,,,,,,,,,,,,,,,,,3000.0,,,,65be5c84defe30b60960f46f,10:12:19,27/02/2024
html-keyboard-response,27,52380,0.0-11.0-3.0,,<div style='margin:auto;width: auto; font-size: 150%'><span style='font-weight: bold; font-size: 100px; color: red;'>0 points!</span><br><br></div>,,delaylearn,learning,feedback_image_window,W3lYnXarOHWz1dTrxCC1C2qdqEy2,W3lYnXarOHWz1dTrxCC1C2qdqEy2,,,,,,,,,,,,,,,,,,,,,,65be5c84defe30b60960f46f,10:12:19,27/02/2024
html-keyboard-response,28,54327,0.0-12.0,,"<div style=""font-size:100px;"">+</div>",,delaylearn,learning,ITI,W3lYnXarOHWz1dTrxCC1C2qdqEy2,W3lYnXarOHWz1dTrxCC1C2qdqEy2,,,,,,,,,,,,,,,,,,,1942.0,,,65be5c84defe30b60960f46f,10:12:19,27/02/2024
html-keyboard-response,29,54740,0.0-13.0-0.0,408.0,"<div style=""display: flex; flex-direction: column; align-items: center; margin-top: -40px;""><img src=""images/demo_images/pattern_1.png"" style=""width: 234px; height: 230px; margin-top: -50px;""><div style=""display: flex; justify-content: space-between; margin-top: 33px;""><img src=""images/demo_images/choice_trial_1.png"" style=""width: 408px; height: 417px; margin-right: 200px;""><img src=""images/demo_images/choice_trial_2.png"" style=""width: 408px; height: 417px;""></div></div>",j,delaylearn,learning,trial,W3lYnXarOHWz1dTrxCC1C2qdqEy2,W3lYnXarOHWz1dTrxCC1C2qdqEy2,3.0,images/demo_images/choice_trial_1.png,images/demo_images/choice_trial_2.png,images/demo_images/pattern_1.png,f,f,3000.0,1.0,2.0,20.0,0.0,6.0,0.0,0.0,2.0,20.0,,,,,,65be5c84defe30b60960f46f,10:12:19,27/02/2024
html-keyboard-response,30,55749,0.0-13.0-1.0,,"<div style=""display: flex; flex-direction: column; align-items: center; margin-top: -40px;""><img src=""images/demo_images/pattern_1.png"" style=""width: 234px; height: 230px; margin-top: -50px;""><div style=""display: flex; justify-content: space-between; margin-top: 33px;""><img src=""images/demo_images/choice_trial_2.png"" style=""width: 408px; height: 417px; margin-left:608px;""></div></div>",,delaylearn,learning,display_response,W3lYnXarOHWz1dTrxCC1C2qdqEy2,W3lYnXarOHWz1dTrxCC1C2qdqEy2,,,,,,,,,,,,,,,,,chosen stimuli: images/demo_images/choice_trial_2.png,,,,,65be5c84defe30b60960f46f,10:12:19,27/02/2024
html-keyboard-response,31,58761,0.0-13.0-2.0,,,,delaylearn,learning,feedback_duration_window,W3lYnXarOHWz1dTrxCC1C2qdqEy2,W3lYnXarOHWz1dTrxCC1C2qdqEy2,,,,,,,,,,,,,,,,,,3000.0,,,,65be5c84defe30b60960f46f,10:12:19,27/02/2024
html-keyboard-response,32,60270,0.0-13.0-3.0,,<div style='margin:auto;width: auto; font-size: 150%'><span style='font-weight: bold; font-size: 100px; color: red;'>0 points!</span><br><br></div>,,delaylearn,learning,feedback_image_window,W3lYnXarOHWz1dTrxCC1C2qdqEy2,W3lYnXarOHWz1dTrxCC1C2qdqEy2,,,,,,,,,,,,,,,,,,,,,,65be5c84defe30b60960f46f,10:12:19,27/02/2024
html-button-response,33,62738,0.0-14.0,2465.0999999940395,"
  <div style=""display: flex; align-items: center; justify-content: center; height: 80vh;"">
  <div>
          <img src=""images/inst_demo_finish.png"" style=""width: 80vw; height:auto;"">
          <br><br>
      </div>
      <br><br>
  </div>",0,,,,W3lYnXarOHWz1dTrxCC1C2qdqEy2,,,,,,,,,,,,,,,,,,,,,,,65be5c84defe30b60960f46f,10:12:19,27/02/2024
html-keyboard-response,34,73270,0.0-15.0,10531.0,"
  <div style=""display: flex; align-items: center; justify-content: center; height: 80vh;"">
  <div>
          <img src=""images/inst_6.png"" style=""width: 80vw; height:auto;"">
          <br><br>
      </div>
      <br><br>
  </div>",j,,,,W3lYnXarOHWz1dTrxCC1C2qdqEy2,,,,,,,,,,,,,,,,,,,,,,,65be5c84defe30b60960f46f,10:12:19,27/02/2024
html-keyboard-response,35,76284,0.0-16.0,,"<div style=""font-size:100px;"">+</div>",,delaylearn,learning,pre_fixation,W3lYnXarOHWz1dTrxCC1C2qdqEy2,,,,,,,,,,,,,,,,,,,,,,,65be5c84defe30b60960f46f,10:12:19,27/02/2024
html-keyboard-response,36,78174,0.0-17.0,,"<div style=""font-size:100px;"">+</div>",,delaylearn,learning,ITI,W3lYnXarOHWz1dTrxCC1C2qdqEy2,W3lYnXarOHWz1dTrxCC1C2qdqEy2,,,,,,,,,,,,,,,,,,,1878.0,,,65be5c84defe30b60960f46f,10:12:19,27/02/2024
html-keyboard-response,37,78966,0.0-18.0-0.0,788.6999999880791,"<div style=""display: flex; flex-direction: column; align-items: center; margin-top: -40px;""><img src=""images/pattern_3.png"" style=""width: 234px; height: 230px; margin-top: -50px;""><div style=""display: flex; justify-content: space-between; margin-top: 33px;""><img src=""images/choice_trial_13.png"" style=""width: 408px; height: 417px; margin-right: 200px;""><img src=""images/choice_trial_10.png"" style=""width: 408px; height: 417px;""></div></div>",j,delaylearn,learning,trial,W3lYnXarOHWz1dTrxCC1C2qdqEy2,W3lYnXarOHWz1dTrxCC1C2qdqEy2,3.0,images/choice_trial_13.png,images/choice_trial_10.png,images/pattern_3.png,f,f,7000.0,13.0,10.0,2.0,0.0,7.0,0.0,0.0,10.0,20.0,,,,,,65be5c84defe30b60960f46f,10:12:19,27/02/2024
html-keyboard-response,38,79976,0.0-18.0-1.0,,"<div style=""display: flex; flex-direction: column; align-items: center; margin-top: -40px;""><img src=""images/pattern_3.png"" style=""width: 234px; height: 230px; margin-top: -50px;""><div style=""display: flex; justify-content: space-between; margin-top: 33px;""><img src=""images/choice_trial_10.png"" style=""width: 408px; height: 417px; margin-left:608px;""></div></div>",,delaylearn,learning,display_response,W3lYnXarOHWz1dTrxCC1C2qdqEy2,W3lYnXarOHWz1dTrxCC1C2qdqEy2,,,,,,,,,,,,,,,,,chosen stimuli: images/choice_trial_10.png,,,,,65be5c84defe30b60960f46f,10:12:19,27/02/2024
html-keyboard-response,39,86982,0.0-18.0-2.0,,,,delaylearn,learning,feedback_duration_window,W3lYnXarOHWz1dTrxCC1C2qdqEy2,W3lYnXarOHWz1dTrxCC1C2qdqEy2,,,,,,,,,,,,,,,,,,7000.0,,,,65be5c84defe30b60960f46f,10:12:19,27/02/2024
html-keyboard-response,40,88495,0.0-18.0-3.0,,<div style='margin:auto;width: auto; font-size: 150%'><span style='font-weight: bold; font-size: 100px; color: red;'>0 points!</span><br><br></div>,,delaylearn,learning,feedback_image_window,W3lYnXarOHWz1dTrxCC1C2qdqEy2,W3lYnXarOHWz1dTrxCC1C2qdqEy2,,,,,,,,,,,,,,,,,,,,,,65be5c84defe30b60960f46f,10:12:19,27/02/2024
html-keyboard-response,41,90902,0.0-19.0,,"<div style=""font-size:100px;"">+</div>",,delaylearn,learning,ITI,W3lYnXarOHWz1dTrxCC1C2qdqEy2,W3lYnXarOHWz1dTrxCC1C2qdqEy2,,,,,,,,,,,,,,,,,,,2391.0,,,65be5c84defe30b60960f46f,10:12:19,27/02/2024
html-keyboard-response,42,92489,0.0-20.0-0.0,1585.2000000178814,"<div style=""display: flex; flex-direction: column; align-items: center; margin-top: -40px;""><img src=""images/pattern_7.png"" style=""width: 234px; height: 230px; margin-top: -50px;""><div style=""display: flex; justify-content: space-between; margin-top: 33px;""><img src=""images/choice_trial_12.png"" style=""width: 408px; height: 417px; margin-right: 200px;""><img src=""images/choice_trial_6.png"" style=""width: 408px; height: 417px;""></div></div>",j,delaylearn,learning,trial,W3lYnXarOHWz1dTrxCC1C2qdqEy2,W3lYnXarOHWz1dTrxCC1C2qdqEy2,3.0,images/choice_trial_12.png,images/choice_trial_6.png,images/pattern_7.png,j,j,750.0,12.0,6.0,6.0,1.0,8.0,1.0,1.0,6.0,30.0,,,,,,65be5c84defe30b60960f46f,10:12:19,27/02/2024
html-keyboard-response,43,93496,0.0-20.0-1.0,,"<div style=""display: flex; flex-direction: column; align-items: center; margin-top: -40px;""><img src=""images/pattern_7.png"" style=""width: 234px; height: 230px; margin-top: -50px;""><div style=""display: flex; justify-content: space-between; margin-top: 33px;""><img src=""images/choice_trial_6.png"" style=""width: 408px; height: 417px; margin-left:608px;""></div></div>",,delaylearn,learning,display_response,W3lYnXarOHWz1dTrxCC1C2qdqEy2,W3lYnXarOHWz1dTrxCC1C2qdqEy2,,,,,,,,,,,,,,,,,chosen stimuli: images/choice_trial_6.png,,,,,65be5c84defe30b60960f46f,10:12:19,27/02/2024
html-keyboard-response,44,94261,0.0-20.0-2.0,,,,delaylearn,learning,feedback_duration_window,W3lYnXarOHWz1dTrxCC1C2qdqEy2,W3lYnXarOHWz1dTrxCC1C2qdqEy2,,,,,,,,,,,,,,,,,,750.0,,,,65be5c84defe30b60960f46f,10:12:19,27/02/2024
html-keyboard-response,45,95767,0.0-20.0-3.0,,<div style='margin:auto;width: auto; font-size: 150%'><span style='font-weight: bold; font-size: 100px; color: green;'>+10 points!</span><br><br></div>,,delaylearn,learning,feedback_image_window,W3lYnXarOHWz1dTrxCC1C2qdqEy2,W3lYnXarOHWz1dTrxCC1C2qdqEy2,,,,,,,,,,,,,,,,,,,,,,65be5c84defe30b60960f46f,10:12:19,27/02/2024
html-keyboard-response,46,97968,0.0-21.0,,"<div style=""font-size:100px;"">+</div>",,delaylearn,learning,ITI,W3lYnXarOHWz1dTrxCC1C2qdqEy2,W3lYnXarOHWz1dTrxCC1C2qdqEy2,,,,,,,,,,,,,,,,,,,2192.0,,,65be5c84defe30b60960f46f,10:12:19,27/02/2024
html-keyboard-response,47,98615,0.0-22.0-0.0,642.7999999821186,"<div style=""display: flex; flex-direction: column; align-items: center; margin-top: -40px;""><img src=""images/pattern_4.png"" style=""width: 234px; height: 230px; margin-top: -50px;""><div style=""display: flex; justify-content: space-between; margin-top: 33px;""><img src=""images/choice_trial_15.png"" style=""width: 408px; height: 417px; margin-right: 200px;""><img src=""images/choice_trial_9.png"" style=""width: 408px; height: 417px;""></div></div>",f,delaylearn,learning,trial,W3lYnXarOHWz1dTrxCC1C2qdqEy2,W3lYnXarOHWz1dTrxCC1C2qdqEy2,3.0,images/choice_trial_15.png,images/choice_trial_9.png,images/pattern_4.png,f,f,7000.0,15.0,9.0,3.0,0.0,9.0,1.0,1.0,15.0,40.0,,,,,,65be5c84defe30b60960f46f,10:12:19,27/02/2024
html-keyboard-response,48,99636,0.0-22.0-1.0,,"<div style=""display: flex; flex-direction: column; align-items: center; margin-top: -40px;""><img src=""images/pattern_4.png"" style=""width: 234px; height: 230px; margin-top: -50px;""><div style=""display: flex; justify-content: space-between; margin-top: 33px;""><img src=""images/choice_trial_15.png"" style=""width: 408px; height: 417px; margin-right: 608px;""></div></div>",,delaylearn,learning,display_response,W3lYnXarOHWz1dTrxCC1C2qdqEy2,W3lYnXarOHWz1dTrxCC1C2qdqEy2,,,,,,,,,,,,,,,,,chosen stimuli: images/choice_trial_15.png,,,,,65be5c84defe30b60960f46f,10:12:19,27/02/2024
html-keyboard-response,49,106641,0.0-22.0-2.0,,,,delaylearn,learning,feedback_duration_window,W3lYnXarOHWz1dTrxCC1C2qdqEy2,W3lYnXarOHWz1dTrxCC1C2qdqEy2,,,,,,,,,,,,,,,,,,7000.0,,,,65be5c84defe30b60960f46f,10:12:19,27/02/2024
html-keyboard-response,50,108155,0.0-22.0-3.0,,<div style='margin:auto;width: auto; font-size: 150%'><span style='font-weight: bold; font-size: 100px; color: green;'>+10 points!</span><br><br></div>,,delaylearn,learning,feedback_image_window,W3lYnXarOHWz1dTrxCC1C2qdqEy2,W3lYnXarOHWz1dTrxCC1C2qdqEy2,,,,,,,,,,,,,,,,,,,,,,65be5c84defe30b60960f46f,10:12:19,27/02/2024
html-keyboard-response,51,110362,0.0-23.0,,"<div style=""font-size:100px;"">+</div>",,delaylearn,learning,ITI,W3lYnXarOHWz1dTrxCC1C2qdqEy2,W3lYnXarOHWz1dTrxCC1C2qdqEy2,,,,,,,,,,,,,,,,,,,2192.0,,,65be5c84defe30b60960f46f,10:12:19,27/02/2024
html-keyboard-response,52,111727,0.0-24.0-0.0,1362.5,"<div style=""display: flex; flex-direction: column; align-items: center; margin-top: -40px;""><img src=""images/pattern_5.png"" style=""width: 234px; height: 230px; margin-top: -50px;""><div style=""display: flex; justify-content: space-between; margin-top: 33px;""><img src=""images/choice_trial_2.png"" style=""width: 408px; height: 417px; margin-right: 200px;""><img src=""images/choice_trial_11.png"" style=""width: 408px; height: 417px;""></div></div>",j,delaylearn,learning,trial,W3lYnXarOHWz1dTrxCC1C2qdqEy2,W3lYnXarOHWz1dTrxCC1C2qdqEy2,3.0,images/choice_trial_2.png,images/choice_trial_11.png,images/pattern_5.png,j,j,750.0,2.0,11.0,4.0,1.0,10.0,1.0,1.0,11.0,50.0,,,,,,65be5c84defe30b60960f46f,10:12:19,27/02/2024
html-keyboard-response,53,112743,0.0-24.0-1.0,,"<div style=""display: flex; flex-direction: column; align-items: center; margin-top: -40px;""><img src=""images/pattern_5.png"" style=""width: 234px; height: 230px; margin-top: -50px;""><div style=""display: flex; justify-content: space-between; margin-top: 33px;""><img src=""images/choice_trial_11.png"" style=""width: 408px; height: 417px; margin-left:608px;""></div></div>",,delaylearn,learning,display_response,W3lYnXarOHWz1dTrxCC1C2qdqEy2,W3lYnXarOHWz1dTrxCC1C2qdqEy2,,,,,,,,,,,,,,,,,chosen stimuli: images/choice_trial_11.png,,,,,65be5c84defe30b60960f46f,10:12:19,27/02/2024
html-keyboard-response,54,113504,0.0-24.0-2.0,,,,delaylearn,learning,feedback_duration_window,W3lYnXarOHWz1dTrxCC1C2qdqEy2,W3lYnXarOHWz1dTrxCC1C2qdqEy2,,,,,,,,,,,,,,,,,,750.0,,,,65be5c84defe30b60960f46f,10:12:19,27/02/2024
html-keyboard-response,55,115010,0.0-24.0-3.0,,<div style='margin:auto;width: auto; font-size: 150%'><span style='font-weight: bold; font-size: 100px; color: green;'>+10 points!</span><br><br></div>,,delaylearn,learning,feedback_image_window,W3lYnXarOHWz1dTrxCC1C2qdqEy2,W3lYnXarOHWz1dTrxCC1C2qdqEy2,,,,,,,,,,,,,,,,,,,,,,65be5c84defe30b60960f46f,10:12:19,27/02/2024
html-keyboard-response,56,117228,0.0-25.0,,"<div style=""font-size:100px;"">+</div>",,delaylearn,learning,ITI,W3lYnXarOHWz1dTrxCC1C2qdqEy2,W3lYnXarOHWz1dTrxCC1C2qdqEy2,,,,,,,,,,,,,,,,,,,2215.0,,,65be5c84defe30b60960f46f,10:12:19,27/02/2024
html-keyboard-response,57,118017,0.0-26.0-0.0,786.7000000178814,"<div style=""display: flex; flex-direction: column; align-items: center; margin-top: -40px;""><img src=""images/pattern_6.png"" style=""width: 234px; height: 230px; margin-top: -50px;""><div style=""display: flex; justify-content: space-between; margin-top: 33px;""><img src=""images/choice_trial_16.png"" style=""width: 408px; height: 417px; margin-right: 200px;""><img src=""images/choice_trial_3.png"" style=""width: 408px; height: 417px;""></div></div>",f,delaylearn,learning,trial,W3lYnXarOHWz1dTrxCC1C2qdqEy2,W3lYnXarOHWz1dTrxCC1C2qdqEy2,3.0,images/choice_trial_16.png,images/choice_trial_3.png,images/pattern_6.png,j,f,750.0,16.0,3.0,5.0,0.0,11.0,1.0,0.0,16.0,50.0,,,,,,65be5c84defe30b60960f46f,10:12:19,27/02/2024
html-keyboard-response,58,119029,0.0-26.0-1.0,,"<div style=""display: flex; flex-direction: column; align-items: center; margin-top: -40px;""><img src=""images/pattern_6.png"" style=""width: 234px; height: 230px; margin-top: -50px;""><div style=""display: flex; justify-content: space-between; margin-top: 33px;""><img src=""images/choice_trial_16.png"" style=""width: 408px; height: 417px; margin-right: 608px;""></div></div>",,delaylearn,learning,display_response,W3lYnXarOHWz1dTrxCC1C2qdqEy2,W3lYnXarOHWz1dTrxCC1C2qdqEy2,,,,,,,,,,,,,,,,,chosen stimuli: images/choice_trial_16.png,,,,,65be5c84defe30b60960f46f,10:12:19,27/02/2024
html-keyboard-response,59,119785,0.0-26.0-2.0,,,,delaylearn,learning,feedback_duration_window,W3lYnXarOHWz1dTrxCC1C2qdqEy2,W3lYnXarOHWz1dTrxCC1C2qdqEy2,,,,,,,,,,,,,,,,,,750.0,,,,65be5c84defe30b60960f46f,10:12:19,27/02/2024
html-keyboard-response,60,121300,0.0-26.0-3.0,,<div style='margin:auto;width: auto; font-size: 150%'><span style='font-weight: bold; font-size: 100px; color: red;'>0 points!</span><br><br></div>,,delaylearn,learning,feedback_image_window,W3lYnXarOHWz1dTrxCC1C2qdqEy2,W3lYnXarOHWz1dTrxCC1C2qdqEy2,,,,,,,,,,,,,,,,,,,,,,65be5c84defe30b60960f46f,10:12:19,27/02/2024
html-keyboard-response,61,121811,0.0-27.0-0.0,,,,,,mood_trial_fixation,W3lYnXarOHWz1dTrxCC1C2qdqEy2,,,,,,,,,,,,,,,,,,,,,,,65be5c84defe30b60960f46f,10:12:19,27/02/2024
lmdlab-html-vas-response,62,127092,0.0-27.0-1.0,4274.0,How happy are you right now?,0.8858265282983413,delaylearn,learning,mood_trial,W3lYnXarOHWz1dTrxCC1C2qdqEy2,W3lYnXarOHWz1dTrxCC1C2qdqEy2,,,,,,,,,,,,,,,,,,,,"['Very unhappy', 'Very happy']",,65be5c84defe30b60960f46f,10:12:19,27/02/2024
html-keyboard-response,63,128895,0.0-28.0,,"<div style=""font-size:100px;"">+</div>",,delaylearn,learning,ITI,W3lYnXarOHWz1dTrxCC1C2qdqEy2,W3lYnXarOHWz1dTrxCC1C2qdqEy2,,,,,,,,,,,,,,,,,,,1798.0,,,65be5c84defe30b60960f46f,10:12:19,27/02/2024
html-keyboard-response,64,129511,0.0-29.0-0.0,615.1999999880791,"<div style=""display: flex; flex-direction: column; align-items: center; margin-top: -40px;""><img src=""images/pattern_1.png"" style=""width: 234px; height: 230px; margin-top: -50px;""><div style=""display: flex; justify-content: space-between; margin-top: 33px;""><img src=""images/choice_trial_8.png"" style=""width: 408px; height: 417px; margin-right: 200px;""><img src=""images/choice_trial_14.png"" style=""width: 408px; height: 417px;""></div></div>",j,delaylearn,learning,trial,W3lYnXarOHWz1dTrxCC1C2qdqEy2,W3lYnXarOHWz1dTrxCC1C2qdqEy2,3.0,images/choice_trial_8.png,images/choice_trial_14.png,images/pattern_1.png,j,j,7000.0,8.0,14.0,1.0,1.0,12.0,1.0,1.0,14.0,60.0,,,,,,65be5c84defe30b60960f46f,10:12:19,27/02/2024
html-keyboard-response,65,130522,0.0-29.0-1.0,,"<div style=""display: flex; flex-direction: column; align-items: center; margin-top: -40px;""><img src=""images/pattern_1.png"" style=""width: 234px; height: 230px; margin-top: -50px;""><div style=""display: flex; justify-content: space-between; margin-top: 33px;""><img src=""images/choice_trial_14.png"" style=""width: 408px; height: 417px; margin-left:608px;""></div></div>",,delaylearn,learning,display_response,W3lYnXarOHWz1dTrxCC1C2qdqEy2,W3lYnXarOHWz1dTrxCC1C2qdqEy2,,,,,,,,,,,,,,,,,chosen stimuli: images/choice_trial_14.png,,,,,65be5c84defe30b60960f46f,10:12:19,27/02/2024
html-keyboard-response,66,137531,0.0-29.0-2.0,,,,delaylearn,learning,feedback_duration_window,W3lYnXarOHWz1dTrxCC1C2qdqEy2,W3lYnXarOHWz1dTrxCC1C2qdqEy2,,,,,,,,,,,,,,,,,,7000.0,,,,65be5c84defe30b60960f46f,10:12:19,27/02/2024
html-keyboard-response,67,139048,0.0-29.0-3.0,,<div style='margin:auto;width: auto; font-size: 150%'><span style='font-weight: bold; font-size: 100px; color: green;'>+10 points!</span><br><br></div>,,delaylearn,learning,feedback_image_window,W3lYnXarOHWz1dTrxCC1C2qdqEy2,W3lYnXarOHWz1dTrxCC1C2qdqEy2,,,,,,,,,,,,,,,,,,,,,,65be5c84defe30b60960f46f,10:12:19,27/02/2024
html-keyboard-response,68,141223,0.0-30.0,,"<div style=""font-size:100px;"">+</div>",,delaylearn,learning,ITI,W3lYnXarOHWz1dTrxCC1C2qdqEy2,W3lYnXarOHWz1dTrxCC1C2qdqEy2,,,,,,,,,,,,,,,,,,,2169.0,,,65be5c84defe30b60960f46f,10:12:19,27/02/2024
html-keyboard-response,69,141742,0.0-31.0-0.0,513.0,"<div style=""display: flex; flex-direction: column; align-items: center; margin-top: -40px;""><img src=""images/pattern_3.png"" style=""width: 234px; height: 230px; margin-top: -50px;""><div style=""display: flex; justify-content: space-between; margin-top: 33px;""><img src=""images/choice_trial_10.png"" style=""width: 408px; height: 417px; margin-right: 200px;""><img src=""images/choice_trial_13.png"" style=""width: 408px; height: 417px;""></div></div>",f,delaylearn,learning,trial,W3lYnXarOHWz1dTrxCC1C2qdqEy2,W3lYnXarOHWz1dTrxCC1C2qdqEy2,3.0,images/choice_trial_10.png,images/choice_trial_13.png,images/pattern_3.png,f,j,7000.0,10.0,13.0,2.0,1.0,13.0,0.0,1.0,10.0,70.0,,,,,,65be5c84defe30b60960f46f,10:12:19,27/02/2024
html-keyboard-response,70,142760,0.0-31.0-1.0,,"<div style=""display: flex; flex-direction: column; align-items: center; margin-top: -40px;""><img src=""images/pattern_3.png"" style=""width: 234px; height: 230px; margin-top: -50px;""><div style=""display: flex; justify-content: space-between; margin-top: 33px;""><img src=""images/choice_trial_10.png"" style=""width: 408px; height: 417px; margin-right: 608px;""></div></div>",,delaylearn,learning,display_response,W3lYnXarOHWz1dTrxCC1C2qdqEy2,W3lYnXarOHWz1dTrxCC1C2qdqEy2,,,,,,,,,,,,,,,,,chosen stimuli: images/choice_trial_10.png,,,,,65be5c84defe30b60960f46f,10:12:19,27/02/2024
html-keyboard-response,71,149767,0.0-31.0-2.0,,,,delaylearn,learning,feedback_duration_window,W3lYnXarOHWz1dTrxCC1C2qdqEy2,W3lYnXarOHWz1dTrxCC1C2qdqEy2,,,,,,,,,,,,,,,,,,7000.0,,,,65be5c84defe30b60960f46f,10:12:19,27/02/2024
html-keyboard-response,72,151279,0.0-31.0-3.0,,<div style='margin:auto;width: auto; font-size: 150%'><span style='font-weight: bold; font-size: 100px; color: green;'>+10 points!</span><br><br></div>,,delaylearn,learning,feedback_image_window,W3lYnXarOHWz1dTrxCC1C2qdqEy2,W3lYnXarOHWz1dTrxCC1C2qdqEy2,,,,,,,,,,,,,,,,,,,,,,65be5c84defe30b60960f46f,10:12:19,27/02/2024
html-keyboard-response,73,153153,0.0-32.0,,"<div style=""font-size:100px;"">+</div>",,delaylearn,learning,ITI,W3lYnXarOHWz1dTrxCC1C2qdqEy2,W3lYnXarOHWz1dTrxCC1C2qdqEy2,,,,,,,,,,,,,,,,,,,1864.0,,,65be5c84defe30b60960f46f,10:12:19,27/02/2024
html-keyboard-response,74,154100,0.0-33.0-0.0,942.5,"<div style=""display: flex; flex-direction: column; align-items: center; margin-top: -40px;""><img src=""images/pattern_5.png"" style=""width: 234px; height: 230px; margin-top: -50px;""><div style=""display: flex; justify-content: space-between; margin-top: 33px;""><img src=""images/choice_trial_11.png"" style=""width: 408px; height: 417px; margin-right: 200px;""><img src=""images/choice_trial_2.png"" style=""width: 408px; height: 417px;""></div></div>",j,delaylearn,learning,trial,W3lYnXarOHWz1dTrxCC1C2qdqEy2,W3lYnXarOHWz1dTrxCC1C2qdqEy2,3.0,images/choice_trial_11.png,images/choice_trial_2.png,images/pattern_5.png,f,f,750.0,11.0,2.0,4.0,0.0,14.0,0.0,0.0,2.0,70.0,,,,,,65be5c84defe30b60960f46f,10:12:19,27/02/2024
html-keyboard-response,75,155105,0.0-33.0-1.0,,"<div style=""display: flex; flex-direction: column; align-items: center; margin-top: -40px;""><img src=""images/pattern_5.png"" style=""width: 234px; height: 230px; margin-top: -50px;""><div style=""display: flex; justify-content: space-between; margin-top: 33px;""><img src=""images/choice_trial_2.png"" style=""width: 408px; height: 417px; margin-left:608px;""></div></div>",,delaylearn,learning,display_response,W3lYnXarOHWz1dTrxCC1C2qdqEy2,W3lYnXarOHWz1dTrxCC1C2qdqEy2,,,,,,,,,,,,,,,,,chosen stimuli: images/choice_trial_2.png,,,,,65be5c84defe30b60960f46f,10:12:19,27/02/2024
html-keyboard-response,76,155874,0.0-33.0-2.0,,,,delaylearn,learning,feedback_duration_window,W3lYnXarOHWz1dTrxCC1C2qdqEy2,W3lYnXarOHWz1dTrxCC1C2qdqEy2,,,,,,,,,,,,,,,,,,750.0,,,,65be5c84defe30b60960f46f,10:12:19,27/02/2024
html-keyboard-response,77,157385,0.0-33.0-3.0,,<div style='margin:auto;width: auto; font-size: 150%'><span style='font-weight: bold; font-size: 100px; color: red;'>0 points!</span><br><br></div>,,delaylearn,learning,feedback_image_window,W3lYnXarOHWz1dTrxCC1C2qdqEy2,W3lYnXarOHWz1dTrxCC1C2qdqEy2,,,,,,,,,,,,,,,,,,,,,,65be5c84defe30b60960f46f,10:12:19,27/02/2024
html-keyboard-response,78,157895,0.0-34.0-0.0,,,,,,mood_trial_fixation,W3lYnXarOHWz1dTrxCC1C2qdqEy2,,,,,,,,,,,,,,,,,,,,,,,65be5c84defe30b60960f46f,10:12:19,27/02/2024
lmdlab-html-vas-response,79,163595,0.0-34.0-1.0,4700.0,How happy are you right now?,0.8742524547693485,delaylearn,learning,mood_trial,W3lYnXarOHWz1dTrxCC1C2qdqEy2,W3lYnXarOHWz1dTrxCC1C2qdqEy2,,,,,,,,,,,,,,,,,,,,"['Very unhappy', 'Very happy']",,65be5c84defe30b60960f46f,10:12:19,27/02/2024
html-keyboard-response,80,166025,0.0-35.0,,"<div style=""font-size:100px;"">+</div>",,delaylearn,learning,ITI,W3lYnXarOHWz1dTrxCC1C2qdqEy2,W3lYnXarOHWz1dTrxCC1C2qdqEy2,,,,,,,,,,,,,,,,,,,2416.0,,,65be5c84defe30b60960f46f,10:12:19,27/02/2024
html-keyboard-response,81,167764,0.0-36.0-0.0,1733.5999999940395,"<div style=""display: flex; flex-direction: column; align-items: center; margin-top: -40px;""><img src=""images/pattern_6.png"" style=""width: 234px; height: 230px; margin-top: -50px;""><div style=""display: flex; justify-content: space-between; margin-top: 33px;""><img src=""images/choice_trial_16.png"" style=""width: 408px; height: 417px; margin-right: 200px;""><img src=""images/choice_trial_3.png"" style=""width: 408px; height: 417px;""></div></div>",j,delaylearn,learning,trial,W3lYnXarOHWz1dTrxCC1C2qdqEy2,W3lYnXarOHWz1dTrxCC1C2qdqEy2,3.0,images/choice_trial_16.png,images/choice_trial_3.png,images/pattern_6.png,f,f,750.0,16.0,3.0,5.0,0.0,15.0,0.0,0.0,3.0,70.0,,,,,,65be5c84defe30b60960f46f,10:12:19,27/02/2024
html-keyboard-response,82,168769,0.0-36.0-1.0,,"<div style=""display: flex; flex-direction: column; align-items: center; margin-top: -40px;""><img src=""images/pattern_6.png"" style=""width: 234px; height: 230px; margin-top: -50px;""><div style=""display: flex; justify-content: space-between; margin-top: 33px;""><img src=""images/choice_trial_3.png"" style=""width: 408px; height: 417px; margin-left:608px;""></div></div>",,delaylearn,learning,display_response,W3lYnXarOHWz1dTrxCC1C2qdqEy2,W3lYnXarOHWz1dTrxCC1C2qdqEy2,,,,,,,,,,,,,,,,,chosen stimuli: images/choice_trial_3.png,,,,,65be5c84defe30b60960f46f,10:12:19,27/02/2024
html-keyboard-response,83,169524,0.0-36.0-2.0,,,,delaylearn,learning,feedback_duration_window,W3lYnXarOHWz1dTrxCC1C2qdqEy2,W3lYnXarOHWz1dTrxCC1C2qdqEy2,,,,,,,,,,,,,,,,,,750.0,,,,65be5c84defe30b60960f46f,10:12:19,27/02/2024
html-keyboard-response,84,171040,0.0-36.0-3.0,,<div style='margin:auto;width: auto; font-size: 150%'><span style='font-weight: bold; font-size: 100px; color: red;'>0 points!</span><br><br></div>,,delaylearn,learning,feedback_image_window,W3lYnXarOHWz1dTrxCC1C2qdqEy2,W3lYnXarOHWz1dTrxCC1C2qdqEy2,,,,,,,,,,,,,,,,,,,,,,65be5c84defe30b60960f46f,10:12:19,27/02/2024
html-keyboard-response,85,172700,0.0-37.0,,"<div style=""font-size:100px;"">+</div>",,delaylearn,learning,ITI,W3lYnXarOHWz1dTrxCC1C2qdqEy2,W3lYnXarOHWz1dTrxCC1C2qdqEy2,,,,,,,,,,,,,,,,,,,1645.0,,,65be5c84defe30b60960f46f,10:12:19,27/02/2024
html-keyboard-response,86,174315,0.0-38.0-0.0,1610.4000000059605,"<div style=""display: flex; flex-direction: column; align-items: center; margin-top: -40px;""><img src=""images/pattern_4.png"" style=""width: 234px; height: 230px; margin-top: -50px;""><div style=""display: flex; justify-content: space-between; margin-top: 33px;""><img src=""images/choice_trial_9.png"" style=""width: 408px; height: 417px; margin-right: 200px;""><img src=""images/choice_trial_15.png"" style=""width: 408px; height: 417px;""></div></div>",j,delaylearn,learning,trial,W3lYnXarOHWz1dTrxCC1C2qdqEy2,W3lYnXarOHWz1dTrxCC1C2qdqEy2,3.0,images/choice_trial_9.png,images/choice_trial_15.png,images/pattern_4.png,j,j,7000.0,9.0,15.0,3.0,1.0,16.0,1.0,1.0,15.0,80.0,,,,,,65be5c84defe30b60960f46f,10:12:19,27/02/2024
html-keyboard-response,87,175330,0.0-38.0-1.0,,"<div style=""display: flex; flex-direction: column; align-items: center; margin-top: -40px;""><img src=""images/pattern_4.png"" style=""width: 234px; height: 230px; margin-top: -50px;""><div style=""display: flex; justify-content: space-between; margin-top: 33px;""><img src=""images/choice_trial_15.png"" style=""width: 408px; height: 417px; margin-left:608px;""></div></div>",,delaylearn,learning,display_response,W3lYnXarOHWz1dTrxCC1C2qdqEy2,W3lYnXarOHWz1dTrxCC1C2qdqEy2,,,,,,,,,,,,,,,,,chosen stimuli: images/choice_trial_15.png,,,,,65be5c84defe30b60960f46f,10:12:19,27/02/2024
html-keyboard-response,88,182336,0.0-38.0-2.0,,,,delaylearn,learning,feedback_duration_window,W3lYnXarOHWz1dTrxCC1C2qdqEy2,W3lYnXarOHWz1dTrxCC1C2qdqEy2,,,,,,,,,,,,,,,,,,7000.0,,,,65be5c84defe30b60960f46f,10:12:19,27/02/2024
html-keyboard-response,89,183846,0.0-38.0-3.0,,<div style='margin:auto;width: auto; font-size: 150%'><span style='font-weight: bold; font-size: 100px; color: green;'>+10 points!</span><br><br></div>,,delaylearn,learning,feedback_image_window,W3lYnXarOHWz1dTrxCC1C2qdqEy2,W3lYnXarOHWz1dTrxCC1C2qdqEy2,,,,,,,,,,,,,,,,,,,,,,65be5c84defe30b60960f46f,10:12:19,27/02/2024
html-keyboard-response,90,185492,0.0-39.0,,"<div style=""font-size:100px;"">+</div>",,delaylearn,learning,ITI,W3lYnXarOHWz1dTrxCC1C2qdqEy2,W3lYnXarOHWz1dTrxCC1C2qdqEy2,,,,,,,,,,,,,,,,,,,1638.0,,,65be5c84defe30b60960f46f,10:12:19,27/02/2024
html-keyboard-response,91,186715,0.0-40.0-0.0,1217.5,"<div style=""display: flex; flex-direction: column; align-items: center; margin-top: -40px;""><img src=""images/pattern_7.png"" style=""width: 234px; height: 230px; margin-top: -50px;""><div style=""display: flex; justify-content: space-between; margin-top: 33px;""><img src=""images/choice_trial_6.png"" style=""width: 408px; height: 417px; margin-right: 200px;""><img src=""images/choice_trial_12.png"" style=""width: 408px; height: 417px;""></div></div>",f,delaylearn,learning,trial,W3lYnXarOHWz1dTrxCC1C2qdqEy2,W3lYnXarOHWz1dTrxCC1C2qdqEy2,3.0,images/choice_trial_6.png,images/choice_trial_12.png,images/pattern_7.png,j,f,750.0,6.0,12.0,6.0,0.0,17.0,1.0,0.0,6.0,80.0,,,,,,65be5c84defe30b60960f46f,10:12:19,27/02/2024
html-keyboard-response,92,187725,0.0-40.0-1.0,,"<div style=""display: flex; flex-direction: column; align-items: center; margin-top: -40px;""><img src=""images/pattern_7.png"" style=""width: 234px; height: 230px; margin-top: -50px;""><div style=""display: flex; justify-content: space-between; margin-top: 33px;""><img src=""images/choice_trial_6.png"" style=""width: 408px; height: 417px; margin-right: 608px;""></div></div>",,delaylearn,learning,display_response,W3lYnXarOHWz1dTrxCC1C2qdqEy2,W3lYnXarOHWz1dTrxCC1C2qdqEy2,,,,,,,,,,,,,,,,,chosen stimuli: images/choice_trial_6.png,,,,,65be5c84defe30b60960f46f,10:12:19,27/02/2024
html-keyboard-response,93,188480,0.0-40.0-2.0,,,,delaylearn,learning,feedback_duration_window,W3lYnXarOHWz1dTrxCC1C2qdqEy2,W3lYnXarOHWz1dTrxCC1C2qdqEy2,,,,,,,,,,,,,,,,,,750.0,,,,65be5c84defe30b60960f46f,10:12:19,27/02/2024
html-keyboard-response,94,189995,0.0-40.0-3.0,,<div style='margin:auto;width: auto; font-size: 150%'><span style='font-weight: bold; font-size: 100px; color: red;'>0 points!</span><br><br></div>,,delaylearn,learning,feedback_image_window,W3lYnXarOHWz1dTrxCC1C2qdqEy2,W3lYnXarOHWz1dTrxCC1C2qdqEy2,,,,,,,,,,,,,,,,,,,,,,65be5c84defe30b60960f46f,10:12:19,27/02/2024
html-keyboard-response,95,191688,0.0-41.0,,"<div style=""font-size:100px;"">+</div>",,delaylearn,learning,ITI,W3lYnXarOHWz1dTrxCC1C2qdqEy2,W3lYnXarOHWz1dTrxCC1C2qdqEy2,,,,,,,,,,,,,,,,,,,1685.0,,,65be5c84defe30b60960f46f,10:12:19,27/02/2024
html-keyboard-response,96,193541,0.0-42.0-0.0,1848.5999999940395,"<div style=""display: flex; flex-direction: column; align-items: center; margin-top: -40px;""><img src=""images/pattern_1.png"" style=""width: 234px; height: 230px; margin-top: -50px;""><div style=""display: flex; justify-content: space-between; margin-top: 33px;""><img src=""images/choice_trial_14.png"" style=""width: 408px; height: 417px; margin-right: 200px;""><img src=""images/choice_trial_8.png"" style=""width: 408px; height: 417px;""></div></div>",j,delaylearn,learning,trial,W3lYnXarOHWz1dTrxCC1C2qdqEy2,W3lYnXarOHWz1dTrxCC1C2qdqEy2,3.0,images/choice_trial_14.png,images/choice_trial_8.png,images/pattern_1.png,f,f,7000.0,14.0,8.0,1.0,0.0,18.0,0.0,0.0,8.0,80.0,,,,,,65be5c84defe30b60960f46f,10:12:19,27/02/2024
html-keyboard-response,97,194554,0.0-42.0-1.0,,"<div style=""display: flex; flex-direction: column; align-items: center; margin-top: -40px;""><img src=""images/pattern_1.png"" style=""width: 234px; height: 230px; margin-top: -50px;""><div style=""display: flex; justify-content: space-between; margin-top: 33px;""><img src=""images/choice_trial_8.png"" style=""width: 408px; height: 417px; margin-left:608px;""></div></div>",,delaylearn,learning,display_response,W3lYnXarOHWz1dTrxCC1C2qdqEy2,W3lYnXarOHWz1dTrxCC1C2qdqEy2,,,,,,,,,,,,,,,,,chosen stimuli: images/choice_trial_8.png,,,,,65be5c84defe30b60960f46f,10:12:19,27/02/2024
html-keyboard-response,98,201558,0.0-42.0-2.0,,,,delaylearn,learning,feedback_duration_window,W3lYnXarOHWz1dTrxCC1C2qdqEy2,W3lYnXarOHWz1dTrxCC1C2qdqEy2,,,,,,,,,,,,,,,,,,7000.0,,,,65be5c84defe30b60960f46f,10:12:19,27/02/2024
html-keyboard-response,99,203077,0.0-42.0-3.0,,<div style='margin:auto;width: auto; font-size: 150%'><span style='font-weight: bold; font-size: 100px; color: red;'>0 points!</span><br><br></div>,,delaylearn,learning,feedback_image_window,W3lYnXarOHWz1dTrxCC1C2qdqEy2,W3lYnXarOHWz1dTrxCC1C2qdqEy2,,,,,,,,,,,,,,,,,,,,,,65be5c84defe30b60960f46f,10:12:19,27/02/2024
html-keyboard-response,100,205176,0.0-43.0,,"<div style=""font-size:100px;"">+</div>",,delaylearn,learning,ITI,W3lYnXarOHWz1dTrxCC1C2qdqEy2,W3lYnXarOHWz1dTrxCC1C2qdqEy2,,,,,,,,,,,,,,,,,,,2083.0,,,65be5c84defe30b60960f46f,10:12:19,27/02/2024
html-keyboard-response,101,206100,0.0-44.0-0.0,920.0,"<div style=""display: flex; flex-direction: column; align-items: center; margin-top: -40px;""><img src=""images/pattern_6.png"" style=""width: 234px; height: 230px; margin-top: -50px;""><div style=""display: flex; justify-content: space-between; margin-top: 33px;""><img src=""images/choice_trial_3.png"" style=""width: 408px; height: 417px; margin-right: 200px;""><img src=""images/choice_trial_16.png"" style=""width: 408px; height: 417px;""></div></div>",f,delaylearn,learning,trial,W3lYnXarOHWz1dTrxCC1C2qdqEy2,W3lYnXarOHWz1dTrxCC1C2qdqEy2,3.0,images/choice_trial_3.png,images/choice_trial_16.png,images/pattern_6.png,j,j,750.0,3.0,16.0,5.0,1.0,19.0,0.0,0.0,3.0,80.0,,,,,,65be5c84defe30b60960f46f,10:12:19,27/02/2024
html-keyboard-response,102,207118,0.0-44.0-1.0,,"<div style=""display: flex; flex-direction: column; align-items: center; margin-top: -40px;""><img src=""images/pattern_6.png"" style=""width: 234px; height: 230px; margin-top: -50px;""><div style=""display: flex; justify-content: space-between; margin-top: 33px;""><img src=""images/choice_trial_3.png"" style=""width: 408px; height: 417px; margin-right: 608px;""></div></div>",,delaylearn,learning,display_response,W3lYnXarOHWz1dTrxCC1C2qdqEy2,W3lYnXarOHWz1dTrxCC1C2qdqEy2,,,,,,,,,,,,,,,,,chosen stimuli: images/choice_trial_3.png,,,,,65be5c84defe30b60960f46f,10:12:19,27/02/2024
html-keyboard-response,103,207873,0.0-44.0-2.0,,,,delaylearn,learning,feedback_duration_window,W3lYnXarOHWz1dTrxCC1C2qdqEy2,W3lYnXarOHWz1dTrxCC1C2qdqEy2,,,,,,,,,,,,,,,,,,750.0,,,,65be5c84defe30b60960f46f,10:12:19,27/02/2024
html-keyboard-response,104,209389,0.0-44.0-3.0,,<div style='margin:auto;width: auto; font-size: 150%'><span style='font-weight: bold; font-size: 100px; color: red;'>0 points!</span><br><br></div>,,delaylearn,learning,feedback_image_window,W3lYnXarOHWz1dTrxCC1C2qdqEy2,W3lYnXarOHWz1dTrxCC1C2qdqEy2,,,,,,,,,,,,,,,,,,,,,,65be5c84defe30b60960f46f,10:12:19,27/02/2024
html-keyboard-response,105,211358,0.0-45.0,,"<div style=""font-size:100px;"">+</div>",,delaylearn,learning,ITI,W3lYnXarOHWz1dTrxCC1C2qdqEy2,W3lYnXarOHWz1dTrxCC1C2qdqEy2,,,,,,,,,,,,,,,,,,,1955.0,,,65be5c84defe30b60960f46f,10:12:19,27/02/2024
html-keyboard-response,106,212044,0.0-46.0-0.0,681.8999999761581,"<div style=""display: flex; flex-direction: column; align-items: center; margin-top: -40px;""><img src=""images/pattern_4.png"" style=""width: 234px; height: 230px; margin-top: -50px;""><div style=""display: flex; justify-content: space-between; margin-top: 33px;""><img src=""images/choice_trial_15.png"" style=""width: 408px; height: 417px; margin-right: 200px;""><img src=""images/choice_trial_9.png"" style=""width: 408px; height: 417px;""></div></div>",j,delaylearn,learning,trial,W3lYnXarOHWz1dTrxCC1C2qdqEy2,W3lYnXarOHWz1dTrxCC1C2qdqEy2,3.0,images/choice_trial_15.png,images/choice_trial_9.png,images/pattern_4.png,f,f,7000.0,15.0,9.0,3.0,0.0,20.0,0.0,0.0,9.0,80.0,,,,,,65be5c84defe30b60960f46f,10:12:19,27/02/2024
html-keyboard-response,107,213060,0.0-46.0-1.0,,"<div style=""display: flex; flex-direction: column; align-items: center; margin-top: -40px;""><img src=""images/pattern_4.png"" style=""width: 234px; height: 230px; margin-top: -50px;""><div style=""display: flex; justify-content: space-between; margin-top: 33px;""><img src=""images/choice_trial_9.png"" style=""width: 408px; height: 417px; margin-left:608px;""></div></div>",,delaylearn,learning,display_response,W3lYnXarOHWz1dTrxCC1C2qdqEy2,W3lYnXarOHWz1dTrxCC1C2qdqEy2,,,,,,,,,,,,,,,,,chosen stimuli: images/choice_trial_9.png,,,,,65be5c84defe30b60960f46f,10:12:19,27/02/2024
html-keyboard-response,108,220065,0.0-46.0-2.0,,,,delaylearn,learning,feedback_duration_window,W3lYnXarOHWz1dTrxCC1C2qdqEy2,W3lYnXarOHWz1dTrxCC1C2qdqEy2,,,,,,,,,,,,,,,,,,7000.0,,,,65be5c84defe30b60960f46f,10:12:19,27/02/2024
html-keyboard-response,109,221574,0.0-46.0-3.0,,<div style='margin:auto;width: auto; font-size: 150%'><span style='font-weight: bold; font-size: 100px; color: red;'>0 points!</span><br><br></div>,,delaylearn,learning,feedback_image_window,W3lYnXarOHWz1dTrxCC1C2qdqEy2,W3lYnXarOHWz1dTrxCC1C2qdqEy2,,,,,,,,,,,,,,,,,,,,,,65be5c84defe30b60960f46f,10:12:19,27/02/2024
html-keyboard-response,110,222083,0.0-47.0-0.0,,,,,,mood_trial_fixation,W3lYnXarOHWz1dTrxCC1C2qdqEy2,,,,,,,,,,,,,,,,,,,,,,,65be5c84defe30b60960f46f,10:12:19,27/02/2024
lmdlab-html-vas-response,111,227119,0.0-47.0-1.0,4028.0,How happy are you right now?,0.6697771557571432,delaylearn,learning,mood_trial,W3lYnXarOHWz1dTrxCC1C2qdqEy2,W3lYnXarOHWz1dTrxCC1C2qdqEy2,,,,,,,,,,,,,,,,,,,,"['Very unhappy', 'Very happy']",,65be5c84defe30b60960f46f,10:12:19,27/02/2024
html-keyboard-response,112,228902,0.0-48.0,,"<div style=""font-size:100px;"">+</div>",,delaylearn,learning,ITI,W3lYnXarOHWz1dTrxCC1C2qdqEy2,W3lYnXarOHWz1dTrxCC1C2qdqEy2,,,,,,,,,,,,,,,,,,,1771.0,,,65be5c84defe30b60960f46f,10:12:19,27/02/2024
html-keyboard-response,113,230090,0.0-49.0-0.0,1182.2000000178814,"<div style=""display: flex; flex-direction: column; align-items: center; margin-top: -40px;""><img src=""images/pattern_7.png"" style=""width: 234px; height: 230px; margin-top: -50px;""><div style=""display: flex; justify-content: space-between; margin-top: 33px;""><img src=""images/choice_trial_12.png"" style=""width: 408px; height: 417px; margin-right: 200px;""><img src=""images/choice_trial_6.png"" style=""width: 408px; height: 417px;""></div></div>",j,delaylearn,learning,trial,W3lYnXarOHWz1dTrxCC1C2qdqEy2,W3lYnXarOHWz1dTrxCC1C2qdqEy2,3.0,images/choice_trial_12.png,images/choice_trial_6.png,images/pattern_7.png,j,j,750.0,12.0,6.0,6.0,1.0,21.0,1.0,1.0,6.0,90.0,,,,,,65be5c84defe30b60960f46f,10:12:19,27/02/2024
html-keyboard-response,114,231097,0.0-49.0-1.0,,"<div style=""display: flex; flex-direction: column; align-items: center; margin-top: -40px;""><img src=""images/pattern_7.png"" style=""width: 234px; height: 230px; margin-top: -50px;""><div style=""display: flex; justify-content: space-between; margin-top: 33px;""><img src=""images/choice_trial_6.png"" style=""width: 408px; height: 417px; margin-left:608px;""></div></div>",,delaylearn,learning,display_response,W3lYnXarOHWz1dTrxCC1C2qdqEy2,W3lYnXarOHWz1dTrxCC1C2qdqEy2,,,,,,,,,,,,,,,,,chosen stimuli: images/choice_trial_6.png,,,,,65be5c84defe30b60960f46f,10:12:19,27/02/2024
html-keyboard-response,115,231860,0.0-49.0-2.0,,,,delaylearn,learning,feedback_duration_window,W3lYnXarOHWz1dTrxCC1C2qdqEy2,W3lYnXarOHWz1dTrxCC1C2qdqEy2,,,,,,,,,,,,,,,,,,750.0,,,,65be5c84defe30b60960f46f,10:12:19,27/02/2024
html-keyboard-response,116,233369,0.0-49.0-3.0,,<div style='margin:auto;width: auto; font-size: 150%'><span style='font-weight: bold; font-size: 100px; color: green;'>+10 points!</span><br><br></div>,,delaylearn,learning,feedback_image_window,W3lYnXarOHWz1dTrxCC1C2qdqEy2,W3lYnXarOHWz1dTrxCC1C2qdqEy2,,,,,,,,,,,,,,,,,,,,,,65be5c84defe30b60960f46f,10:12:19,27/02/2024
html-keyboard-response,117,235452,0.0-50.0,,"<div style=""font-size:100px;"">+</div>",,delaylearn,learning,ITI,W3lYnXarOHWz1dTrxCC1C2qdqEy2,W3lYnXarOHWz1dTrxCC1C2qdqEy2,,,,,,,,,,,,,,,,,,,2080.0,,,65be5c84defe30b60960f46f,10:12:19,27/02/2024
html-keyboard-response,118,237000,0.0-51.0-0.0,1542.9000000059605,"<div style=""display: flex; flex-direction: column; align-items: center; margin-top: -40px;""><img src=""images/pattern_1.png"" style=""width: 234px; height: 230px; margin-top: -50px;""><div style=""display: flex; justify-content: space-between; margin-top: 33px;""><img src=""images/choice_trial_8.png"" style=""width: 408px; height: 417px; margin-right: 200px;""><img src=""images/choice_trial_14.png"" style=""width: 408px; height: 417px;""></div></div>",f,delaylearn,learning,trial,W3lYnXarOHWz1dTrxCC1C2qdqEy2,W3lYnXarOHWz1dTrxCC1C2qdqEy2,3.0,images/choice_trial_8.png,images/choice_trial_14.png,images/pattern_1.png,f,j,7000.0,8.0,14.0,1.0,1.0,22.0,0.0,1.0,8.0,100.0,,,,,,65be5c84defe30b60960f46f,10:12:19,27/02/2024
html-keyboard-response,119,238015,0.0-51.0-1.0,,"<div style=""display: flex; flex-direction: column; align-items: center; margin-top: -40px;""><img src=""images/pattern_1.png"" style=""width: 234px; height: 230px; margin-top: -50px;""><div style=""display: flex; justify-content: space-between; margin-top: 33px;""><img src=""images/choice_trial_8.png"" style=""width: 408px; height: 417px; margin-right: 608px;""></div></div>",,delaylearn,learning,display_response,W3lYnXarOHWz1dTrxCC1C2qdqEy2,W3lYnXarOHWz1dTrxCC1C2qdqEy2,,,,,,,,,,,,,,,,,chosen stimuli: images/choice_trial_8.png,,,,,65be5c84defe30b60960f46f,10:12:19,27/02/2024
html-keyboard-response,120,245021,0.0-51.0-2.0,,,,delaylearn,learning,feedback_duration_window,W3lYnXarOHWz1dTrxCC1C2qdqEy2,W3lYnXarOHWz1dTrxCC1C2qdqEy2,,,,,,,,,,,,,,,,,,7000.0,,,,65be5c84defe30b60960f46f,10:12:19,27/02/2024
html-keyboard-response,121,246532,0.0-51.0-3.0,,<div style='margin:auto;width: auto; font-size: 150%'><span style='font-weight: bold; font-size: 100px; color: green;'>+10 points!</span><br><br></div>,,delaylearn,learning,feedback_image_window,W3lYnXarOHWz1dTrxCC1C2qdqEy2,W3lYnXarOHWz1dTrxCC1C2qdqEy2,,,,,,,,,,,,,,,,,,,,,,65be5c84defe30b60960f46f,10:12:19,27/02/2024
html-keyboard-response,122,248648,0.0-52.0,,"<div style=""font-size:100px;"">+</div>",,delaylearn,learning,ITI,W3lYnXarOHWz1dTrxCC1C2qdqEy2,W3lYnXarOHWz1dTrxCC1C2qdqEy2,,,,,,,,,,,,,,,,,,,2109.0,,,65be5c84defe30b60960f46f,10:12:19,27/02/2024
html-keyboard-response,123,249194,0.0-53.0-0.0,540.1999999880791,"<div style=""display: flex; flex-direction: column; align-items: center; margin-top: -40px;""><img src=""images/pattern_5.png"" style=""width: 234px; height: 230px; margin-top: -50px;""><div style=""display: flex; justify-content: space-between; margin-top: 33px;""><img src=""images/choice_trial_2.png"" style=""width: 408px; height: 417px; margin-right: 200px;""><img src=""images/choice_trial_11.png"" style=""width: 408px; height: 417px;""></div></div>",j,delaylearn,learning,trial,W3lYnXarOHWz1dTrxCC1C2qdqEy2,W3lYnXarOHWz1dTrxCC1C2qdqEy2,3.0,images/choice_trial_2.png,images/choice_trial_11.png,images/pattern_5.png,j,j,750.0,2.0,11.0,4.0,1.0,23.0,1.0,1.0,11.0,110.0,,,,,,65be5c84defe30b60960f46f,10:12:19,27/02/2024
html-keyboard-response,124,250207,0.0-53.0-1.0,,"<div style=""display: flex; flex-direction: column; align-items: center; margin-top: -40px;""><img src=""images/pattern_5.png"" style=""width: 234px; height: 230px; margin-top: -50px;""><div style=""display: flex; justify-content: space-between; margin-top: 33px;""><img src=""images/choice_trial_11.png"" style=""width: 408px; height: 417px; margin-left:608px;""></div></div>",,delaylearn,learning,display_response,W3lYnXarOHWz1dTrxCC1C2qdqEy2,W3lYnXarOHWz1dTrxCC1C2qdqEy2,,,,,,,,,,,,,,,,,chosen stimuli: images/choice_trial_11.png,,,,,65be5c84defe30b60960f46f,10:12:19,27/02/2024
html-keyboard-response,125,250972,0.0-53.0-2.0,,,,delaylearn,learning,feedback_duration_window,W3lYnXarOHWz1dTrxCC1C2qdqEy2,W3lYnXarOHWz1dTrxCC1C2qdqEy2,,,,,,,,,,,,,,,,,,750.0,,,,65be5c84defe30b60960f46f,10:12:19,27/02/2024
html-keyboard-response,126,252477,0.0-53.0-3.0,,<div style='margin:auto;width: auto; font-size: 150%'><span style='font-weight: bold; font-size: 100px; color: green;'>+10 points!</span><br><br></div>,,delaylearn,learning,feedback_image_window,W3lYnXarOHWz1dTrxCC1C2qdqEy2,W3lYnXarOHWz1dTrxCC1C2qdqEy2,,,,,,,,,,,,,,,,,,,,,,65be5c84defe30b60960f46f,10:12:19,27/02/2024
html-keyboard-response,127,254476,0.0-54.0,,"<div style=""font-size:100px;"">+</div>",,delaylearn,learning,ITI,W3lYnXarOHWz1dTrxCC1C2qdqEy2,W3lYnXarOHWz1dTrxCC1C2qdqEy2,,,,,,,,,,,,,,,,,,,1994.0,,,65be5c84defe30b60960f46f,10:12:19,27/02/2024
html-keyboard-response,128,255407,0.0-55.0-0.0,925.3999999761581,"<div style=""display: flex; flex-direction: column; align-items: center; margin-top: -40px;""><img src=""images/pattern_3.png"" style=""width: 234px; height: 230px; margin-top: -50px;""><div style=""display: flex; justify-content: space-between; margin-top: 33px;""><img src=""images/choice_trial_10.png"" style=""width: 408px; height: 417px; margin-right: 200px;""><img src=""images/choice_trial_13.png"" style=""width: 408px; height: 417px;""></div></div>",j,delaylearn,learning,trial,W3lYnXarOHWz1dTrxCC1C2qdqEy2,W3lYnXarOHWz1dTrxCC1C2qdqEy2,3.0,images/choice_trial_10.png,images/choice_trial_13.png,images/pattern_3.png,j,j,7000.0,10.0,13.0,2.0,1.0,24.0,1.0,1.0,13.0,120.0,,,,,,65be5c84defe30b60960f46f,10:12:19,27/02/2024
html-keyboard-response,129,256426,0.0-55.0-1.0,,"<div style=""display: flex; flex-direction: column; align-items: center; margin-top: -40px;""><img src=""images/pattern_3.png"" style=""width: 234px; height: 230px; margin-top: -50px;""><div style=""display: flex; justify-content: space-between; margin-top: 33px;""><img src=""images/choice_trial_13.png"" style=""width: 408px; height: 417px; margin-left:608px;""></div></div>",,delaylearn,learning,display_response,W3lYnXarOHWz1dTrxCC1C2qdqEy2,W3lYnXarOHWz1dTrxCC1C2qdqEy2,,,,,,,,,,,,,,,,,chosen stimuli: images/choice_trial_13.png,,,,,65be5c84defe30b60960f46f,10:12:19,27/02/2024
html-keyboard-response,130,263434,0.0-55.0-2.0,,,,delaylearn,learning,feedback_duration_window,W3lYnXarOHWz1dTrxCC1C2qdqEy2,W3lYnXarOHWz1dTrxCC1C2qdqEy2,,,,,,,,,,,,,,,,,,7000.0,,,,65be5c84defe30b60960f46f,10:12:19,27/02/2024
html-keyboard-response,131,264944,0.0-55.0-3.0,,<div style='margin:auto;width: auto; font-size: 150%'><span style='font-weight: bold; font-size: 100px; color: green;'>+10 points!</span><br><br></div>,,delaylearn,learning,feedback_image_window,W3lYnXarOHWz1dTrxCC1C2qdqEy2,W3lYnXarOHWz1dTrxCC1C2qdqEy2,,,,,,,,,,,,,,,,,,,,,,65be5c84defe30b60960f46f,10:12:19,27/02/2024
lmdlab-html-vas-response,132,271842,0.0-56.0-0.0,5381.0,*How <b><u>confident</u></b> are you feeling about your answers at this moment?*,0.6658949950467806,rewlearn,rate_confidence,,W3lYnXarOHWz1dTrxCC1C2qdqEy2,W3lYnXarOHWz1dTrxCC1C2qdqEy2,,,,,,,,,,,,,,,,,,,,"['No confidence', 'Complete confidence']",,65be5c84defe30b60960f46f,10:12:19,27/02/2024
lmdlab-rest-trial-limit,133,279506,0.0-56.0-1.0,6151.5999999940395,"<div style=""font-size:40px;""><b>Please take a break!</b><br><br><br><br><p>Great work: you earned undefined points.<br><br><br><p>You have completed part(s) 1 of 6.<br><br><br><br>When you are ready to continue<br><br><br>please click the button.</p><br><br>",0,delaylearn,learning,break,W3lYnXarOHWz1dTrxCC1C2qdqEy2,W3lYnXarOHWz1dTrxCC1C2qdqEy2,,,,,,,,,,,,,,,,,,,,,0.0,65be5c84defe30b60960f46f,10:12:19,27/02/2024
html-keyboard-response,134,282525,0.0-56.0-2.0,,"<div style=""font-size:100px;"">+</div>",,delaylearn,learning,pre_fixation,W3lYnXarOHWz1dTrxCC1C2qdqEy2,,,,,,,,,,,,,,,,,,,,,,,65be5c84defe30b60960f46f,10:12:19,27/02/2024
lmdlab-html-vas-response,135,287521,0.0-56.0-3.0-0.0,3979.0,How happy are you right now?,0.7392215969310998,delaylearn,learning,mood_baseline,W3lYnXarOHWz1dTrxCC1C2qdqEy2,W3lYnXarOHWz1dTrxCC1C2qdqEy2,,,,,,,,,,,,,,,,,,,,"['Very unhappy', 'Very happy']",,65be5c84defe30b60960f46f,10:12:19,27/02/2024
html-keyboard-response,136,289036,0.0-56.0-3.0-1.0,,,,,,mood_baseline_fixation,W3lYnXarOHWz1dTrxCC1C2qdqEy2,,,,,,,,,,,,,,,,,,,,,,,65be5c84defe30b60960f46f,10:12:19,27/02/2024
html-keyboard-response,137,290848,0.0-57.0,,"<div style=""font-size:100px;"">+</div>",,delaylearn,learning,ITI,W3lYnXarOHWz1dTrxCC1C2qdqEy2,W3lYnXarOHWz1dTrxCC1C2qdqEy2,,,,,,,,,,,,,,,,,,,1805.0,,,65be5c84defe30b60960f46f,10:12:19,27/02/2024
html-keyboard-response,138,291656,0.0-58.0-0.0,803.0,"<div style=""display: flex; flex-direction: column; align-items: center; margin-top: -40px;""><img src=""images/pattern_7.png"" style=""width: 234px; height: 230px; margin-top: -50px;""><div style=""display: flex; justify-content: space-between; margin-top: 33px;""><img src=""images/choice_trial_12.png"" style=""width: 408px; height: 417px; margin-right: 200px;""><img src=""images/choice_trial_6.png"" style=""width: 408px; height: 417px;""></div></div>",j,delaylearn,learning,trial,W3lYnXarOHWz1dTrxCC1C2qdqEy2,W3lYnXarOHWz1dTrxCC1C2qdqEy2,3.0,images/choice_trial_12.png,images/choice_trial_6.png,images/pattern_7.png,j,j,750.0,12.0,6.0,6.0,1.0,25.0,1.0,1.0,6.0,130.0,,,,,,65be5c84defe30b60960f46f,10:12:19,27/02/2024
html-keyboard-response,139,292675,0.0-58.0-1.0,,"<div style=""display: flex; flex-direction: column; align-items: center; margin-top: -40px;""><img src=""images/pattern_7.png"" style=""width: 234px; height: 230px; margin-top: -50px;""><div style=""display: flex; justify-content: space-between; margin-top: 33px;""><img src=""images/choice_trial_6.png"" style=""width: 408px; height: 417px; margin-left:608px;""></div></div>",,delaylearn,learning,display_response,W3lYnXarOHWz1dTrxCC1C2qdqEy2,W3lYnXarOHWz1dTrxCC1C2qdqEy2,,,,,,,,,,,,,,,,,chosen stimuli: images/choice_trial_6.png,,,,,65be5c84defe30b60960f46f,10:12:19,27/02/2024
html-keyboard-response,140,293430,0.0-58.0-2.0,,,,delaylearn,learning,feedback_duration_window,W3lYnXarOHWz1dTrxCC1C2qdqEy2,W3lYnXarOHWz1dTrxCC1C2qdqEy2,,,,,,,,,,,,,,,,,,750.0,,,,65be5c84defe30b60960f46f,10:12:19,27/02/2024
html-keyboard-response,141,294935,0.0-58.0-3.0,,<div style='margin:auto;width: auto; font-size: 150%'><span style='font-weight: bold; font-size: 100px; color: green;'>+10 points!</span><br><br></div>,,delaylearn,learning,feedback_image_window,W3lYnXarOHWz1dTrxCC1C2qdqEy2,W3lYnXarOHWz1dTrxCC1C2qdqEy2,,,,,,,,,,,,,,,,,,,,,,65be5c84defe30b60960f46f,10:12:19,27/02/2024
html-keyboard-response,142,295440,0.0-59.0-0.0,,,,,,mood_trial_fixation,W3lYnXarOHWz1dTrxCC1C2qdqEy2,,,,,,,,,,,,,,,,,,,,,,,65be5c84defe30b60960f46f,10:12:19,27/02/2024
lmdlab-html-vas-response,143,302704,0.0-59.0-1.0,6258.0,How happy are you right now?,0.7469376459504282,delaylearn,learning,mood_trial,W3lYnXarOHWz1dTrxCC1C2qdqEy2,W3lYnXarOHWz1dTrxCC1C2qdqEy2,,,,,,,,,,,,,,,,,,,,"['Very unhappy', 'Very happy']",,65be5c84defe30b60960f46f,10:12:19,27/02/2024
html-keyboard-response,144,304406,0.0-60.0,,"<div style=""font-size:100px;"">+</div>",,delaylearn,learning,ITI,W3lYnXarOHWz1dTrxCC1C2qdqEy2,W3lYnXarOHWz1dTrxCC1C2qdqEy2,,,,,,,,,,,,,,,,,,,1696.0,,,65be5c84defe30b60960f46f,10:12:19,27/02/2024
html-keyboard-response,145,306245,0.0-61.0-0.0,1833.4000000059605,"<div style=""display: flex; flex-direction: column; align-items: center; margin-top: -40px;""><img src=""images/pattern_1.png"" style=""width: 234px; height: 230px; margin-top: -50px;""><div style=""display: flex; justify-content: space-between; margin-top: 33px;""><img src=""images/choice_trial_14.png"" style=""width: 408px; height: 417px; margin-right: 200px;""><img src=""images/choice_trial_8.png"" style=""width: 408px; height: 417px;""></div></div>",f,delaylearn,learning,trial,W3lYnXarOHWz1dTrxCC1C2qdqEy2,W3lYnXarOHWz1dTrxCC1C2qdqEy2,3.0,images/choice_trial_14.png,images/choice_trial_8.png,images/pattern_1.png,f,f,7000.0,14.0,8.0,1.0,0.0,26.0,1.0,1.0,14.0,140.0,,,,,,65be5c84defe30b60960f46f,10:12:19,27/02/2024
html-keyboard-response,146,307253,0.0-61.0-1.0,,"<div style=""display: flex; flex-direction: column; align-items: center; margin-top: -40px;""><img src=""images/pattern_1.png"" style=""width: 234px; height: 230px; margin-top: -50px;""><div style=""display: flex; justify-content: space-between; margin-top: 33px;""><img src=""images/choice_trial_14.png"" style=""width: 408px; height: 417px; margin-right: 608px;""></div></div>",,delaylearn,learning,display_response,W3lYnXarOHWz1dTrxCC1C2qdqEy2,W3lYnXarOHWz1dTrxCC1C2qdqEy2,,,,,,,,,,,,,,,,,chosen stimuli: images/choice_trial_14.png,,,,,65be5c84defe30b60960f46f,10:12:19,27/02/2024
html-keyboard-response,147,314256,0.0-61.0-2.0,,,,delaylearn,learning,feedback_duration_window,W3lYnXarOHWz1dTrxCC1C2qdqEy2,W3lYnXarOHWz1dTrxCC1C2qdqEy2,,,,,,,,,,,,,,,,,,7000.0,,,,65be5c84defe30b60960f46f,10:12:19,27/02/2024
html-keyboard-response,148,315772,0.0-61.0-3.0,,<div style='margin:auto;width: auto; font-size: 150%'><span style='font-weight: bold; font-size: 100px; color: green;'>+10 points!</span><br><br></div>,,delaylearn,learning,feedback_image_window,W3lYnXarOHWz1dTrxCC1C2qdqEy2,W3lYnXarOHWz1dTrxCC1C2qdqEy2,,,,,,,,,,,,,,,,,,,,,,65be5c84defe30b60960f46f,10:12:19,27/02/2024
html-keyboard-response,149,317547,0.0-62.0,,"<div style=""font-size:100px;"">+</div>",,delaylearn,learning,ITI,W3lYnXarOHWz1dTrxCC1C2qdqEy2,W3lYnXarOHWz1dTrxCC1C2qdqEy2,,,,,,,,,,,,,,,,,,,1769.0,,,65be5c84defe30b60960f46f,10:12:19,27/02/2024
html-keyboard-response,150,320568,0.0-63.0-0.0,,"<div style=""display: flex; flex-direction: column; align-items: center; margin-top: -40px;""><img src=""images/pattern_5.png"" style=""width: 234px; height: 230px; margin-top: -50px;""><div style=""display: flex; justify-content: space-between; margin-top: 33px;""><img src=""images/choice_trial_11.png"" style=""width: 408px; height: 417px; margin-right: 200px;""><img src=""images/choice_trial_2.png"" style=""width: 408px; height: 417px;""></div></div>",,delaylearn,learning,trial,W3lYnXarOHWz1dTrxCC1C2qdqEy2,W3lYnXarOHWz1dTrxCC1C2qdqEy2,3.0,images/choice_trial_11.png,images/choice_trial_2.png,images/pattern_5.png,f,f,750.0,11.0,2.0,4.0,0.0,27.0,0.0,0.0,0.0,140.0,,,,,,65be5c84defe30b60960f46f,10:12:19,27/02/2024
html-keyboard-response,151,321584,0.0-63.0-1.0,,<div style='font-weight: bold; font-size: 75px; color: red;'>Missed Trial <br><br><br><br> Please respond faster</div>,,delaylearn,learning,display_response,W3lYnXarOHWz1dTrxCC1C2qdqEy2,W3lYnXarOHWz1dTrxCC1C2qdqEy2,,,,,,,,,,,,,,,,,Missed trial,,,,,65be5c84defe30b60960f46f,10:12:19,27/02/2024
html-keyboard-response,152,321594,0.0-63.0-2.0,,,,delaylearn,learning,feedback_duration_window,W3lYnXarOHWz1dTrxCC1C2qdqEy2,W3lYnXarOHWz1dTrxCC1C2qdqEy2,,,,,,,,,,,,,,,,,,0.0,,,,65be5c84defe30b60960f46f,10:12:19,27/02/2024
html-keyboard-response,153,321603,0.0-63.0-3.0,,,,delaylearn,learning,feedback_image_window,W3lYnXarOHWz1dTrxCC1C2qdqEy2,W3lYnXarOHWz1dTrxCC1C2qdqEy2,,,,,,,,,,,,,,,,,,,,,,65be5c84defe30b60960f46f,10:12:19,27/02/2024
html-keyboard-response,154,323616,0.0-64.0,,"<div style=""font-size:100px;"">+</div>",,delaylearn,learning,ITI,W3lYnXarOHWz1dTrxCC1C2qdqEy2,W3lYnXarOHWz1dTrxCC1C2qdqEy2,,,,,,,,,,,,,,,,,,,1996.0,,,65be5c84defe30b60960f46f,10:12:19,27/02/2024
html-keyboard-response,155,324311,0.0-65.0-0.0,691.8000000119209,"<div style=""display: flex; flex-direction: column; align-items: center; margin-top: -40px;""><img src=""images/pattern_6.png"" style=""width: 234px; height: 230px; margin-top: -50px;""><div style=""display: flex; justify-content: space-between; margin-top: 33px;""><img src=""images/choice_trial_3.png"" style=""width: 408px; height: 417px; margin-right: 200px;""><img src=""images/choice_trial_16.png"" style=""width: 408px; height: 417px;""></div></div>",f,delaylearn,learning,trial,W3lYnXarOHWz1dTrxCC1C2qdqEy2,W3lYnXarOHWz1dTrxCC1C2qdqEy2,3.0,images/choice_trial_3.png,images/choice_trial_16.png,images/pattern_6.png,j,j,750.0,3.0,16.0,5.0,1.0,28.0,0.0,0.0,3.0,140.0,,,,,,65be5c84defe30b60960f46f,10:12:19,27/02/2024
html-keyboard-response,156,325321,0.0-65.0-1.0,,"<div style=""display: flex; flex-direction: column; align-items: center; margin-top: -40px;""><img src=""images/pattern_6.png"" style=""width: 234px; height: 230px; margin-top: -50px;""><div style=""display: flex; justify-content: space-between; margin-top: 33px;""><img src=""images/choice_trial_3.png"" style=""width: 408px; height: 417px; margin-right: 608px;""></div></div>",,delaylearn,learning,display_response,W3lYnXarOHWz1dTrxCC1C2qdqEy2,W3lYnXarOHWz1dTrxCC1C2qdqEy2,,,,,,,,,,,,,,,,,chosen stimuli: images/choice_trial_3.png,,,,,65be5c84defe30b60960f46f,10:12:19,27/02/2024
html-keyboard-response,157,326089,0.0-65.0-2.0,,,,delaylearn,learning,feedback_duration_window,W3lYnXarOHWz1dTrxCC1C2qdqEy2,W3lYnXarOHWz1dTrxCC1C2qdqEy2,,,,,,,,,,,,,,,,,,750.0,,,,65be5c84defe30b60960f46f,10:12:19,27/02/2024
html-keyboard-response,158,327592,0.0-65.0-3.0,,<div style='margin:auto;width: auto; font-size: 150%'><span style='font-weight: bold; font-size: 100px; color: red;'>0 points!</span><br><br></div>,,delaylearn,learning,feedback_image_window,W3lYnXarOHWz1dTrxCC1C2qdqEy2,W3lYnXarOHWz1dTrxCC1C2qdqEy2,,,,,,,,,,,,,,,,,,,,,,65be5c84defe30b60960f46f,10:12:19,27/02/2024
html-keyboard-response,159,328097,0.0-66.0-0.0,,,,,,mood_trial_fixation,W3lYnXarOHWz1dTrxCC1C2qdqEy2,,,,,,,,,,,,,,,,,,,,,,,65be5c84defe30b60960f46f,10:12:19,27/02/2024
lmdlab-html-vas-response,160,332916,0.0-66.0-1.0,3810.0,How happy are you right now?,0.5791135797800333,delaylearn,learning,mood_trial,W3lYnXarOHWz1dTrxCC1C2qdqEy2,W3lYnXarOHWz1dTrxCC1C2qdqEy2,,,,,,,,,,,,,,,,,,,,"['Very unhappy', 'Very happy']",,65be5c84defe30b60960f46f,10:12:19,27/02/2024
html-keyboard-response,161,334630,0.0-67.0,,"<div style=""font-size:100px;"">+</div>",,delaylearn,learning,ITI,W3lYnXarOHWz1dTrxCC1C2qdqEy2,W3lYnXarOHWz1dTrxCC1C2qdqEy2,,,,,,,,,,,,,,,,,,,1697.0,,,65be5c84defe30b60960f46f,10:12:19,27/02/2024
html-keyboard-response,162,335335,0.0-68.0-0.0,699.5,"<div style=""display: flex; flex-direction: column; align-items: center; margin-top: -40px;""><img src=""images/pattern_4.png"" style=""width: 234px; height: 230px; margin-top: -50px;""><div style=""display: flex; justify-content: space-between; margin-top: 33px;""><img src=""images/choice_trial_9.png"" style=""width: 408px; height: 417px; margin-right: 200px;""><img src=""images/choice_trial_15.png"" style=""width: 408px; height: 417px;""></div></div>",j,delaylearn,learning,trial,W3lYnXarOHWz1dTrxCC1C2qdqEy2,W3lYnXarOHWz1dTrxCC1C2qdqEy2,3.0,images/choice_trial_9.png,images/choice_trial_15.png,images/pattern_4.png,j,j,7000.0,9.0,15.0,3.0,1.0,29.0,1.0,1.0,15.0,150.0,,,,,,65be5c84defe30b60960f46f,10:12:19,27/02/2024
html-keyboard-response,163,336348,0.0-68.0-1.0,,"<div style=""display: flex; flex-direction: column; align-items: center; margin-top: -40px;""><img src=""images/pattern_4.png"" style=""width: 234px; height: 230px; margin-top: -50px;""><div style=""display: flex; justify-content: space-between; margin-top: 33px;""><img src=""images/choice_trial_15.png"" style=""width: 408px; height: 417px; margin-left:608px;""></div></div>",,delaylearn,learning,display_response,W3lYnXarOHWz1dTrxCC1C2qdqEy2,W3lYnXarOHWz1dTrxCC1C2qdqEy2,,,,,,,,,,,,,,,,,chosen stimuli: images/choice_trial_15.png,,,,,65be5c84defe30b60960f46f,10:12:19,27/02/2024
html-keyboard-response,164,343363,0.0-68.0-2.0,,,,delaylearn,learning,feedback_duration_window,W3lYnXarOHWz1dTrxCC1C2qdqEy2,W3lYnXarOHWz1dTrxCC1C2qdqEy2,,,,,,,,,,,,,,,,,,7000.0,,,,65be5c84defe30b60960f46f,10:12:19,27/02/2024
html-keyboard-response,165,344874,0.0-68.0-3.0,,<div style='margin:auto;width: auto; font-size: 150%'><span style='font-weight: bold; font-size: 100px; color: green;'>+10 points!</span><br><br></div>,,delaylearn,learning,feedback_image_window,W3lYnXarOHWz1dTrxCC1C2qdqEy2,W3lYnXarOHWz1dTrxCC1C2qdqEy2,,,,,,,,,,,,,,,,,,,,,,65be5c84defe30b60960f46f,10:12:19,27/02/2024
html-keyboard-response,166,346586,0.0-69.0,,"<div style=""font-size:100px;"">+</div>",,delaylearn,learning,ITI,W3lYnXarOHWz1dTrxCC1C2qdqEy2,W3lYnXarOHWz1dTrxCC1C2qdqEy2,,,,,,,,,,,,,,,,,,,1706.0,,,65be5c84defe30b60960f46f,10:12:19,27/02/2024
html-keyboard-response,167,349606,0.0-70.0-0.0,,"<div style=""display: flex; flex-direction: column; align-items: center; margin-top: -40px;""><img src=""images/pattern_3.png"" style=""width: 234px; height: 230px; margin-top: -50px;""><div style=""display: flex; justify-content: space-between; margin-top: 33px;""><img src=""images/choice_trial_10.png"" style=""width: 408px; height: 417px; margin-right: 200px;""><img src=""images/choice_trial_13.png"" style=""width: 408px; height: 417px;""></div></div>",,delaylearn,learning,trial,W3lYnXarOHWz1dTrxCC1C2qdqEy2,W3lYnXarOHWz1dTrxCC1C2qdqEy2,3.0,images/choice_trial_10.png,images/choice_trial_13.png,images/pattern_3.png,j,j,7000.0,10.0,13.0,2.0,1.0,30.0,0.0,0.0,0.0,150.0,,,,,,65be5c84defe30b60960f46f,10:12:19,27/02/2024
html-keyboard-response,168,350623,0.0-70.0-1.0,,<div style='font-weight: bold; font-size: 75px; color: red;'>Missed Trial <br><br><br><br> Please respond faster</div>,,delaylearn,learning,display_response,W3lYnXarOHWz1dTrxCC1C2qdqEy2,W3lYnXarOHWz1dTrxCC1C2qdqEy2,,,,,,,,,,,,,,,,,Missed trial,,,,,65be5c84defe30b60960f46f,10:12:19,27/02/2024
html-keyboard-response,169,350635,0.0-70.0-2.0,,,,delaylearn,learning,feedback_duration_window,W3lYnXarOHWz1dTrxCC1C2qdqEy2,W3lYnXarOHWz1dTrxCC1C2qdqEy2,,,,,,,,,,,,,,,,,,0.0,,,,65be5c84defe30b60960f46f,10:12:19,27/02/2024
html-keyboard-response,170,350645,0.0-70.0-3.0,,,,delaylearn,learning,feedback_image_window,W3lYnXarOHWz1dTrxCC1C2qdqEy2,W3lYnXarOHWz1dTrxCC1C2qdqEy2,,,,,,,,,,,,,,,,,,,,,,65be5c84defe30b60960f46f,10:12:19,27/02/2024
html-keyboard-response,171,352996,0.0-71.0,,"<div style=""font-size:100px;"">+</div>",,delaylearn,learning,ITI,W3lYnXarOHWz1dTrxCC1C2qdqEy2,W3lYnXarOHWz1dTrxCC1C2qdqEy2,,,,,,,,,,,,,,,,,,,2342.0,,,65be5c84defe30b60960f46f,10:12:19,27/02/2024
html-keyboard-response,172,353985,0.0-72.0-0.0,982.8000000119209,"<div style=""display: flex; flex-direction: column; align-items: center; margin-top: -40px;""><img src=""images/pattern_5.png"" style=""width: 234px; height: 230px; margin-top: -50px;""><div style=""display: flex; justify-content: space-between; margin-top: 33px;""><img src=""images/choice_trial_11.png"" style=""width: 408px; height: 417px; margin-right: 200px;""><img src=""images/choice_trial_2.png"" style=""width: 408px; height: 417px;""></div></div>",f,delaylearn,learning,trial,W3lYnXarOHWz1dTrxCC1C2qdqEy2,W3lYnXarOHWz1dTrxCC1C2qdqEy2,3.0,images/choice_trial_11.png,images/choice_trial_2.png,images/pattern_5.png,j,f,750.0,11.0,2.0,4.0,0.0,31.0,1.0,0.0,11.0,150.0,,,,,,65be5c84defe30b60960f46f,10:12:19,27/02/2024
html-keyboard-response,173,354992,0.0-72.0-1.0,,"<div style=""display: flex; flex-direction: column; align-items: center; margin-top: -40px;""><img src=""images/pattern_5.png"" style=""width: 234px; height: 230px; margin-top: -50px;""><div style=""display: flex; justify-content: space-between; margin-top: 33px;""><img src=""images/choice_trial_11.png"" style=""width: 408px; height: 417px; margin-right: 608px;""></div></div>",,delaylearn,learning,display_response,W3lYnXarOHWz1dTrxCC1C2qdqEy2,W3lYnXarOHWz1dTrxCC1C2qdqEy2,,,,,,,,,,,,,,,,,chosen stimuli: images/choice_trial_11.png,,,,,65be5c84defe30b60960f46f,10:12:19,27/02/2024
html-keyboard-response,174,355757,0.0-72.0-2.0,,,,delaylearn,learning,feedback_duration_window,W3lYnXarOHWz1dTrxCC1C2qdqEy2,W3lYnXarOHWz1dTrxCC1C2qdqEy2,,,,,,,,,,,,,,,,,,750.0,,,,65be5c84defe30b60960f46f,10:12:19,27/02/2024
html-keyboard-response,175,357272,0.0-72.0-3.0,,<div style='margin:auto;width: auto; font-size: 150%'><span style='font-weight: bold; font-size: 100px; color: red;'>0 points!</span><br><br></div>,,delaylearn,learning,feedback_image_window,W3lYnXarOHWz1dTrxCC1C2qdqEy2,W3lYnXarOHWz1dTrxCC1C2qdqEy2,,,,,,,,,,,,,,,,,,,,,,65be5c84defe30b60960f46f,10:12:19,27/02/2024
html-keyboard-response,176,359667,0.0-73.0,,"<div style=""font-size:100px;"">+</div>",,delaylearn,learning,ITI,W3lYnXarOHWz1dTrxCC1C2qdqEy2,W3lYnXarOHWz1dTrxCC1C2qdqEy2,,,,,,,,,,,,,,,,,,,2386.0,,,65be5c84defe30b60960f46f,10:12:19,27/02/2024
html-keyboard-response,177,360219,0.0-74.0-0.0,545.6999999880791,"<div style=""display: flex; flex-direction: column; align-items: center; margin-top: -40px;""><img src=""images/pattern_1.png"" style=""width: 234px; height: 230px; margin-top: -50px;""><div style=""display: flex; justify-content: space-between; margin-top: 33px;""><img src=""images/choice_trial_14.png"" style=""width: 408px; height: 417px; margin-right: 200px;""><img src=""images/choice_trial_8.png"" style=""width: 408px; height: 417px;""></div></div>",j,delaylearn,learning,trial,W3lYnXarOHWz1dTrxCC1C2qdqEy2,W3lYnXarOHWz1dTrxCC1C2qdqEy2,3.0,images/choice_trial_14.png,images/choice_trial_8.png,images/pattern_1.png,f,f,7000.0,14.0,8.0,1.0,0.0,32.0,0.0,0.0,8.0,150.0,,,,,,65be5c84defe30b60960f46f,10:12:19,27/02/2024
html-keyboard-response,178,361236,0.0-74.0-1.0,,"<div style=""display: flex; flex-direction: column; align-items: center; margin-top: -40px;""><img src=""images/pattern_1.png"" style=""width: 234px; height: 230px; margin-top: -50px;""><div style=""display: flex; justify-content: space-between; margin-top: 33px;""><img src=""images/choice_trial_8.png"" style=""width: 408px; height: 417px; margin-left:608px;""></div></div>",,delaylearn,learning,display_response,W3lYnXarOHWz1dTrxCC1C2qdqEy2,W3lYnXarOHWz1dTrxCC1C2qdqEy2,,,,,,,,,,,,,,,,,chosen stimuli: images/choice_trial_8.png,,,,,65be5c84defe30b60960f46f,10:12:19,27/02/2024
html-keyboard-response,179,368242,0.0-74.0-2.0,,,,delaylearn,learning,feedback_duration_window,W3lYnXarOHWz1dTrxCC1C2qdqEy2,W3lYnXarOHWz1dTrxCC1C2qdqEy2,,,,,,,,,,,,,,,,,,7000.0,,,,65be5c84defe30b60960f46f,10:12:19,27/02/2024
html-keyboard-response,180,369747,0.0-74.0-3.0,,<div style='margin:auto;width: auto; font-size: 150%'><span style='font-weight: bold; font-size: 100px; color: red;'>0 points!</span><br><br></div>,,delaylearn,learning,feedback_image_window,W3lYnXarOHWz1dTrxCC1C2qdqEy2,W3lYnXarOHWz1dTrxCC1C2qdqEy2,,,,,,,,,,,,,,,,,,,,,,65be5c84defe30b60960f46f,10:12:19,27/02/2024
html-keyboard-response,181,370250,0.0-75.0-0.0,,,,,,mood_trial_fixation,W3lYnXarOHWz1dTrxCC1C2qdqEy2,,,,,,,,,,,,,,,,,,,,,,,65be5c84defe30b60960f46f,10:12:19,27/02/2024
lmdlab-html-vas-response,182,378644,0.0-75.0-1.0,7379.0,How happy are you right now?,0.8125240626147205,delaylearn,learning,mood_trial,W3lYnXarOHWz1dTrxCC1C2qdqEy2,W3lYnXarOHWz1dTrxCC1C2qdqEy2,,,,,,,,,,,,,,,,,,,,"['Very unhappy', 'Very happy']",,65be5c84defe30b60960f46f,10:12:19,27/02/2024
html-keyboard-response,183,380806,0.0-76.0,,"<div style=""font-size:100px;"">+</div>",,delaylearn,learning,ITI,W3lYnXarOHWz1dTrxCC1C2qdqEy2,W3lYnXarOHWz1dTrxCC1C2qdqEy2,,,,,,,,,,,,,,,,,,,2150.0,,,65be5c84defe30b60960f46f,10:12:19,27/02/2024
html-keyboard-response,184,383612,0.0-77.0-0.0,2801.5999999940395,"<div style=""display: flex; flex-direction: column; align-items: center; margin-top: -40px;""><img src=""images/pattern_6.png"" style=""width: 234px; height: 230px; margin-top: -50px;""><div style=""display: flex; justify-content: space-between; margin-top: 33px;""><img src=""images/choice_trial_16.png"" style=""width: 408px; height: 417px; margin-right: 200px;""><img src=""images/choice_trial_3.png"" style=""width: 408px; height: 417px;""></div></div>",j,delaylearn,learning,trial,W3lYnXarOHWz1dTrxCC1C2qdqEy2,W3lYnXarOHWz1dTrxCC1C2qdqEy2,3.0,images/choice_trial_16.png,images/choice_trial_3.png,images/pattern_6.png,j,f,750.0,16.0,3.0,5.0,0.0,33.0,0.0,1.0,3.0,160.0,,,,,,65be5c84defe30b60960f46f,10:12:19,27/02/2024
html-keyboard-response,185,384618,0.0-77.0-1.0,,"<div style=""display: flex; flex-direction: column; align-items: center; margin-top: -40px;""><img src=""images/pattern_6.png"" style=""width: 234px; height: 230px; margin-top: -50px;""><div style=""display: flex; justify-content: space-between; margin-top: 33px;""><img src=""images/choice_trial_3.png"" style=""width: 408px; height: 417px; margin-left:608px;""></div></div>",,delaylearn,learning,display_response,W3lYnXarOHWz1dTrxCC1C2qdqEy2,W3lYnXarOHWz1dTrxCC1C2qdqEy2,,,,,,,,,,,,,,,,,chosen stimuli: images/choice_trial_3.png,,,,,65be5c84defe30b60960f46f,10:12:19,27/02/2024
html-keyboard-response,186,385373,0.0-77.0-2.0,,,,delaylearn,learning,feedback_duration_window,W3lYnXarOHWz1dTrxCC1C2qdqEy2,W3lYnXarOHWz1dTrxCC1C2qdqEy2,,,,,,,,,,,,,,,,,,750.0,,,,65be5c84defe30b60960f46f,10:12:19,27/02/2024
html-keyboard-response,187,386889,0.0-77.0-3.0,,<div style='margin:auto;width: auto; font-size: 150%'><span style='font-weight: bold; font-size: 100px; color: green;'>+10 points!</span><br><br></div>,,delaylearn,learning,feedback_image_window,W3lYnXarOHWz1dTrxCC1C2qdqEy2,W3lYnXarOHWz1dTrxCC1C2qdqEy2,,,,,,,,,,,,,,,,,,,,,,65be5c84defe30b60960f46f,10:12:19,27/02/2024
html-keyboard-response,188,388471,0.0-78.0,,"<div style=""font-size:100px;"">+</div>",,delaylearn,learning,ITI,W3lYnXarOHWz1dTrxCC1C2qdqEy2,W3lYnXarOHWz1dTrxCC1C2qdqEy2,,,,,,,,,,,,,,,,,,,1574.0,,,65be5c84defe30b60960f46f,10:12:19,27/02/2024
html-keyboard-response,189,388782,0.0-79.0-0.0,307.2000000178814,"<div style=""display: flex; flex-direction: column; align-items: center; margin-top: -40px;""><img src=""images/pattern_3.png"" style=""width: 234px; height: 230px; margin-top: -50px;""><div style=""display: flex; justify-content: space-between; margin-top: 33px;""><img src=""images/choice_trial_10.png"" style=""width: 408px; height: 417px; margin-right: 200px;""><img src=""images/choice_trial_13.png"" style=""width: 408px; height: 417px;""></div></div>",f,delaylearn,learning,trial,W3lYnXarOHWz1dTrxCC1C2qdqEy2,W3lYnXarOHWz1dTrxCC1C2qdqEy2,3.0,images/choice_trial_10.png,images/choice_trial_13.png,images/pattern_3.png,j,j,7000.0,10.0,13.0,2.0,1.0,34.0,0.0,0.0,10.0,160.0,,,,,,65be5c84defe30b60960f46f,10:12:19,27/02/2024
html-keyboard-response,190,389788,0.0-79.0-1.0,,"<div style=""display: flex; flex-direction: column; align-items: center; margin-top: -40px;""><img src=""images/pattern_3.png"" style=""width: 234px; height: 230px; margin-top: -50px;""><div style=""display: flex; justify-content: space-between; margin-top: 33px;""><img src=""images/choice_trial_10.png"" style=""width: 408px; height: 417px; margin-right: 608px;""></div></div>",,delaylearn,learning,display_response,W3lYnXarOHWz1dTrxCC1C2qdqEy2,W3lYnXarOHWz1dTrxCC1C2qdqEy2,,,,,,,,,,,,,,,,,chosen stimuli: images/choice_trial_10.png,,,,,65be5c84defe30b60960f46f,10:12:19,27/02/2024
html-keyboard-response,191,396805,0.0-79.0-2.0,,,,delaylearn,learning,feedback_duration_window,W3lYnXarOHWz1dTrxCC1C2qdqEy2,W3lYnXarOHWz1dTrxCC1C2qdqEy2,,,,,,,,,,,,,,,,,,7000.0,,,,65be5c84defe30b60960f46f,10:12:19,27/02/2024
html-keyboard-response,192,398314,0.0-79.0-3.0,,<div style='margin:auto;width: auto; font-size: 150%'><span style='font-weight: bold; font-size: 100px; color: red;'>0 points!</span><br><br></div>,,delaylearn,learning,feedback_image_window,W3lYnXarOHWz1dTrxCC1C2qdqEy2,W3lYnXarOHWz1dTrxCC1C2qdqEy2,,,,,,,,,,,,,,,,,,,,,,65be5c84defe30b60960f46f,10:12:19,27/02/2024
html-keyboard-response,193,400725,0.0-80.0,,"<div style=""font-size:100px;"">+</div>",,delaylearn,learning,ITI,W3lYnXarOHWz1dTrxCC1C2qdqEy2,W3lYnXarOHWz1dTrxCC1C2qdqEy2,,,,,,,,,,,,,,,,,,,2402.0,,,65be5c84defe30b60960f46f,10:12:19,27/02/2024
html-keyboard-response,194,401223,0.0-81.0-0.0,493.10000002384186,"<div style=""display: flex; flex-direction: column; align-items: center; margin-top: -40px;""><img src=""images/pattern_4.png"" style=""width: 234px; height: 230px; margin-top: -50px;""><div style=""display: flex; justify-content: space-between; margin-top: 33px;""><img src=""images/choice_trial_9.png"" style=""width: 408px; height: 417px; margin-right: 200px;""><img src=""images/choice_trial_15.png"" style=""width: 408px; height: 417px;""></div></div>",j,delaylearn,learning,trial,W3lYnXarOHWz1dTrxCC1C2qdqEy2,W3lYnXarOHWz1dTrxCC1C2qdqEy2,3.0,images/choice_trial_9.png,images/choice_trial_15.png,images/pattern_4.png,f,j,7000.0,9.0,15.0,3.0,1.0,35.0,1.0,0.0,15.0,160.0,,,,,,65be5c84defe30b60960f46f,10:12:19,27/02/2024
html-keyboard-response,195,402230,0.0-81.0-1.0,,"<div style=""display: flex; flex-direction: column; align-items: center; margin-top: -40px;""><img src=""images/pattern_4.png"" style=""width: 234px; height: 230px; margin-top: -50px;""><div style=""display: flex; justify-content: space-between; margin-top: 33px;""><img src=""images/choice_trial_15.png"" style=""width: 408px; height: 417px; margin-left:608px;""></div></div>",,delaylearn,learning,display_response,W3lYnXarOHWz1dTrxCC1C2qdqEy2,W3lYnXarOHWz1dTrxCC1C2qdqEy2,,,,,,,,,,,,,,,,,chosen stimuli: images/choice_trial_15.png,,,,,65be5c84defe30b60960f46f,10:12:19,27/02/2024
html-keyboard-response,196,409244,0.0-81.0-2.0,,,,delaylearn,learning,feedback_duration_window,W3lYnXarOHWz1dTrxCC1C2qdqEy2,W3lYnXarOHWz1dTrxCC1C2qdqEy2,,,,,,,,,,,,,,,,,,7000.0,,,,65be5c84defe30b60960f46f,10:12:19,27/02/2024
html-keyboard-response,197,410754,0.0-81.0-3.0,,<div style='margin:auto;width: auto; font-size: 150%'><span style='font-weight: bold; font-size: 100px; color: red;'>0 points!</span><br><br></div>,,delaylearn,learning,feedback_image_window,W3lYnXarOHWz1dTrxCC1C2qdqEy2,W3lYnXarOHWz1dTrxCC1C2qdqEy2,,,,,,,,,,,,,,,,,,,,,,65be5c84defe30b60960f46f,10:12:19,27/02/2024
html-keyboard-response,198,413186,0.0-82.0,,"<div style=""font-size:100px;"">+</div>",,delaylearn,learning,ITI,W3lYnXarOHWz1dTrxCC1C2qdqEy2,W3lYnXarOHWz1dTrxCC1C2qdqEy2,,,,,,,,,,,,,,,,,,,2420.0,,,65be5c84defe30b60960f46f,10:12:19,27/02/2024
html-keyboard-response,199,413910,0.0-83.0-0.0,719.0999999940395,"<div style=""display: flex; flex-direction: column; align-items: center; margin-top: -40px;""><img src=""images/pattern_7.png"" style=""width: 234px; height: 230px; margin-top: -50px;""><div style=""display: flex; justify-content: space-between; margin-top: 33px;""><img src=""images/choice_trial_6.png"" style=""width: 408px; height: 417px; margin-right: 200px;""><img src=""images/choice_trial_12.png"" style=""width: 408px; height: 417px;""></div></div>",f,delaylearn,learning,trial,W3lYnXarOHWz1dTrxCC1C2qdqEy2,W3lYnXarOHWz1dTrxCC1C2qdqEy2,3.0,images/choice_trial_6.png,images/choice_trial_12.png,images/pattern_7.png,f,f,750.0,6.0,12.0,6.0,0.0,36.0,1.0,1.0,6.0,170.0,,,,,,65be5c84defe30b60960f46f,10:12:19,27/02/2024
html-keyboard-response,200,414921,0.0-83.0-1.0,,"<div style=""display: flex; flex-direction: column; align-items: center; margin-top: -40px;""><img src=""images/pattern_7.png"" style=""width: 234px; height: 230px; margin-top: -50px;""><div style=""display: flex; justify-content: space-between; margin-top: 33px;""><img src=""images/choice_trial_6.png"" style=""width: 408px; height: 417px; margin-right: 608px;""></div></div>",,delaylearn,learning,display_response,W3lYnXarOHWz1dTrxCC1C2qdqEy2,W3lYnXarOHWz1dTrxCC1C2qdqEy2,,,,,,,,,,,,,,,,,chosen stimuli: images/choice_trial_6.png,,,,,65be5c84defe30b60960f46f,10:12:19,27/02/2024
html-keyboard-response,201,415685,0.0-83.0-2.0,,,,delaylearn,learning,feedback_duration_window,W3lYnXarOHWz1dTrxCC1C2qdqEy2,W3lYnXarOHWz1dTrxCC1C2qdqEy2,,,,,,,,,,,,,,,,,,750.0,,,,65be5c84defe30b60960f46f,10:12:19,27/02/2024
html-keyboard-response,202,417202,0.0-83.0-3.0,,<div style='margin:auto;width: auto; font-size: 150%'><span style='font-weight: bold; font-size: 100px; color: green;'>+10 points!</span><br><br></div>,,delaylearn,learning,feedback_image_window,W3lYnXarOHWz1dTrxCC1C2qdqEy2,W3lYnXarOHWz1dTrxCC1C2qdqEy2,,,,,,,,,,,,,,,,,,,,,,65be5c84defe30b60960f46f,10:12:19,27/02/2024
html-keyboard-response,203,419067,0.0-84.0,,"<div style=""font-size:100px;"">+</div>",,delaylearn,learning,ITI,W3lYnXarOHWz1dTrxCC1C2qdqEy2,W3lYnXarOHWz1dTrxCC1C2qdqEy2,,,,,,,,,,,,,,,,,,,1851.0,,,65be5c84defe30b60960f46f,10:12:19,27/02/2024
html-keyboard-response,204,422081,0.0-85.0-0.0,,"<div style=""display: flex; flex-direction: column; align-items: center; margin-top: -40px;""><img src=""images/pattern_1.png"" style=""width: 234px; height: 230px; margin-top: -50px;""><div style=""display: flex; justify-content: space-between; margin-top: 33px;""><img src=""images/choice_trial_14.png"" style=""width: 408px; height: 417px; margin-right: 200px;""><img src=""images/choice_trial_8.png"" style=""width: 408px; height: 417px;""></div></div>",,delaylearn,learning,trial,W3lYnXarOHWz1dTrxCC1C2qdqEy2,W3lYnXarOHWz1dTrxCC1C2qdqEy2,3.0,images/choice_trial_14.png,images/choice_trial_8.png,images/pattern_1.png,f,f,7000.0,14.0,8.0,1.0,0.0,37.0,0.0,0.0,0.0,170.0,,,,,,65be5c84defe30b60960f46f,10:12:19,27/02/2024
html-keyboard-response,205,423097,0.0-85.0-1.0,,<div style='font-weight: bold; font-size: 75px; color: red;'>Missed Trial <br><br><br><br> Please respond faster</div>,,delaylearn,learning,display_response,W3lYnXarOHWz1dTrxCC1C2qdqEy2,W3lYnXarOHWz1dTrxCC1C2qdqEy2,,,,,,,,,,,,,,,,,Missed trial,,,,,65be5c84defe30b60960f46f,10:12:19,27/02/2024
html-keyboard-response,206,423109,0.0-85.0-2.0,,,,delaylearn,learning,feedback_duration_window,W3lYnXarOHWz1dTrxCC1C2qdqEy2,W3lYnXarOHWz1dTrxCC1C2qdqEy2,,,,,,,,,,,,,,,,,,0.0,,,,65be5c84defe30b60960f46f,10:12:19,27/02/2024
html-keyboard-response,207,423119,0.0-85.0-3.0,,,,delaylearn,learning,feedback_image_window,W3lYnXarOHWz1dTrxCC1C2qdqEy2,W3lYnXarOHWz1dTrxCC1C2qdqEy2,,,,,,,,,,,,,,,,,,,,,,65be5c84defe30b60960f46f,10:12:19,27/02/2024
html-keyboard-response,208,423629,0.0-86.0-0.0,,,,,,mood_trial_fixation,W3lYnXarOHWz1dTrxCC1C2qdqEy2,,,,,,,,,,,,,,,,,,,,,,,65be5c84defe30b60960f46f,10:12:19,27/02/2024
lmdlab-html-vas-response,209,430916,0.0-86.0-1.0,6278.0,How happy are you right now?,0.6890672783054644,delaylearn,learning,mood_trial,W3lYnXarOHWz1dTrxCC1C2qdqEy2,W3lYnXarOHWz1dTrxCC1C2qdqEy2,,,,,,,,,,,,,,,,,,,,"['Very unhappy', 'Very happy']",,65be5c84defe30b60960f46f,10:12:19,27/02/2024
html-keyboard-response,210,432899,0.0-87.0,,"<div style=""font-size:100px;"">+</div>",,delaylearn,learning,ITI,W3lYnXarOHWz1dTrxCC1C2qdqEy2,W3lYnXarOHWz1dTrxCC1C2qdqEy2,,,,,,,,,,,,,,,,,,,1971.0,,,65be5c84defe30b60960f46f,10:12:19,27/02/2024
html-keyboard-response,211,433704,0.0-88.0-0.0,802.0999999940395,"<div style=""display: flex; flex-direction: column; align-items: center; margin-top: -40px;""><img src=""images/pattern_3.png"" style=""width: 234px; height: 230px; margin-top: -50px;""><div style=""display: flex; justify-content: space-between; margin-top: 33px;""><img src=""images/choice_trial_13.png"" style=""width: 408px; height: 417px; margin-right: 200px;""><img src=""images/choice_trial_10.png"" style=""width: 408px; height: 417px;""></div></div>",j,delaylearn,learning,trial,W3lYnXarOHWz1dTrxCC1C2qdqEy2,W3lYnXarOHWz1dTrxCC1C2qdqEy2,3.0,images/choice_trial_13.png,images/choice_trial_10.png,images/pattern_3.png,j,f,7000.0,13.0,10.0,2.0,0.0,38.0,0.0,1.0,10.0,180.0,,,,,,65be5c84defe30b60960f46f,10:12:19,27/02/2024
html-keyboard-response,212,434720,0.0-88.0-1.0,,"<div style=""display: flex; flex-direction: column; align-items: center; margin-top: -40px;""><img src=""images/pattern_3.png"" style=""width: 234px; height: 230px; margin-top: -50px;""><div style=""display: flex; justify-content: space-between; margin-top: 33px;""><img src=""images/choice_trial_10.png"" style=""width: 408px; height: 417px; margin-left:608px;""></div></div>",,delaylearn,learning,display_response,W3lYnXarOHWz1dTrxCC1C2qdqEy2,W3lYnXarOHWz1dTrxCC1C2qdqEy2,,,,,,,,,,,,,,,,,chosen stimuli: images/choice_trial_10.png,,,,,65be5c84defe30b60960f46f,10:12:19,27/02/2024
html-keyboard-response,213,441723,0.0-88.0-2.0,,,,delaylearn,learning,feedback_duration_window,W3lYnXarOHWz1dTrxCC1C2qdqEy2,W3lYnXarOHWz1dTrxCC1C2qdqEy2,,,,,,,,,,,,,,,,,,7000.0,,,,65be5c84defe30b60960f46f,10:12:19,27/02/2024
html-keyboard-response,214,443227,0.0-88.0-3.0,,<div style='margin:auto;width: auto; font-size: 150%'><span style='font-weight: bold; font-size: 100px; color: green;'>+10 points!</span><br><br></div>,,delaylearn,learning,feedback_image_window,W3lYnXarOHWz1dTrxCC1C2qdqEy2,W3lYnXarOHWz1dTrxCC1C2qdqEy2,,,,,,,,,,,,,,,,,,,,,,65be5c84defe30b60960f46f,10:12:19,27/02/2024
html-keyboard-response,215,445612,0.0-89.0,,"<div style=""font-size:100px;"">+</div>",,delaylearn,learning,ITI,W3lYnXarOHWz1dTrxCC1C2qdqEy2,W3lYnXarOHWz1dTrxCC1C2qdqEy2,,,,,,,,,,,,,,,,,,,2382.0,,,65be5c84defe30b60960f46f,10:12:19,27/02/2024
html-keyboard-response,216,446902,0.0-90.0-0.0,1287.4000000059605,"<div style=""display: flex; flex-direction: column; align-items: center; margin-top: -40px;""><img src=""images/pattern_7.png"" style=""width: 234px; height: 230px; margin-top: -50px;""><div style=""display: flex; justify-content: space-between; margin-top: 33px;""><img src=""images/choice_trial_12.png"" style=""width: 408px; height: 417px; margin-right: 200px;""><img src=""images/choice_trial_6.png"" style=""width: 408px; height: 417px;""></div></div>",j,delaylearn,learning,trial,W3lYnXarOHWz1dTrxCC1C2qdqEy2,W3lYnXarOHWz1dTrxCC1C2qdqEy2,3.0,images/choice_trial_12.png,images/choice_trial_6.png,images/pattern_7.png,j,j,750.0,12.0,6.0,6.0,1.0,39.0,1.0,1.0,6.0,190.0,,,,,,65be5c84defe30b60960f46f,10:12:19,27/02/2024
html-keyboard-response,217,447904,0.0-90.0-1.0,,"<div style=""display: flex; flex-direction: column; align-items: center; margin-top: -40px;""><img src=""images/pattern_7.png"" style=""width: 234px; height: 230px; margin-top: -50px;""><div style=""display: flex; justify-content: space-between; margin-top: 33px;""><img src=""images/choice_trial_6.png"" style=""width: 408px; height: 417px; margin-left:608px;""></div></div>",,delaylearn,learning,display_response,W3lYnXarOHWz1dTrxCC1C2qdqEy2,W3lYnXarOHWz1dTrxCC1C2qdqEy2,,,,,,,,,,,,,,,,,chosen stimuli: images/choice_trial_6.png,,,,,65be5c84defe30b60960f46f,10:12:19,27/02/2024
html-keyboard-response,218,448660,0.0-90.0-2.0,,,,delaylearn,learning,feedback_duration_window,W3lYnXarOHWz1dTrxCC1C2qdqEy2,W3lYnXarOHWz1dTrxCC1C2qdqEy2,,,,,,,,,,,,,,,,,,750.0,,,,65be5c84defe30b60960f46f,10:12:19,27/02/2024
html-keyboard-response,219,450177,0.0-90.0-3.0,,<div style='margin:auto;width: auto; font-size: 150%'><span style='font-weight: bold; font-size: 100px; color: green;'>+10 points!</span><br><br></div>,,delaylearn,learning,feedback_image_window,W3lYnXarOHWz1dTrxCC1C2qdqEy2,W3lYnXarOHWz1dTrxCC1C2qdqEy2,,,,,,,,,,,,,,,,,,,,,,65be5c84defe30b60960f46f,10:12:19,27/02/2024
html-keyboard-response,220,452182,0.0-91.0,,"<div style=""font-size:100px;"">+</div>",,delaylearn,learning,ITI,W3lYnXarOHWz1dTrxCC1C2qdqEy2,W3lYnXarOHWz1dTrxCC1C2qdqEy2,,,,,,,,,,,,,,,,,,,1993.0,,,65be5c84defe30b60960f46f,10:12:19,27/02/2024
html-keyboard-response,221,452282,0.0-92.0-0.0,95.5,"<div style=""display: flex; flex-direction: column; align-items: center; margin-top: -40px;""><img src=""images/pattern_5.png"" style=""width: 234px; height: 230px; margin-top: -50px;""><div style=""display: flex; justify-content: space-between; margin-top: 33px;""><img src=""images/choice_trial_2.png"" style=""width: 408px; height: 417px; margin-right: 200px;""><img src=""images/choice_trial_11.png"" style=""width: 408px; height: 417px;""></div></div>",f,delaylearn,learning,trial,W3lYnXarOHWz1dTrxCC1C2qdqEy2,W3lYnXarOHWz1dTrxCC1C2qdqEy2,3.0,images/choice_trial_2.png,images/choice_trial_11.png,images/pattern_5.png,j,j,750.0,2.0,11.0,4.0,1.0,40.0,0.0,0.0,2.0,190.0,,,,,,65be5c84defe30b60960f46f,10:12:19,27/02/2024
html-keyboard-response,222,453285,0.0-92.0-1.0,,"<div style=""display: flex; flex-direction: column; align-items: center; margin-top: -40px;""><img src=""images/pattern_5.png"" style=""width: 234px; height: 230px; margin-top: -50px;""><div style=""display: flex; justify-content: space-between; margin-top: 33px;""><img src=""images/choice_trial_2.png"" style=""width: 408px; height: 417px; margin-right: 608px;""></div></div>",,delaylearn,learning,display_response,W3lYnXarOHWz1dTrxCC1C2qdqEy2,W3lYnXarOHWz1dTrxCC1C2qdqEy2,,,,,,,,,,,,,,,,,chosen stimuli: images/choice_trial_2.png,,,,,65be5c84defe30b60960f46f,10:12:19,27/02/2024
html-keyboard-response,223,454052,0.0-92.0-2.0,,,,delaylearn,learning,feedback_duration_window,W3lYnXarOHWz1dTrxCC1C2qdqEy2,W3lYnXarOHWz1dTrxCC1C2qdqEy2,,,,,,,,,,,,,,,,,,750.0,,,,65be5c84defe30b60960f46f,10:12:19,27/02/2024
html-keyboard-response,224,455557,0.0-92.0-3.0,,<div style='margin:auto;width: auto; font-size: 150%'><span style='font-weight: bold; font-size: 100px; color: red;'>0 points!</span><br><br></div>,,delaylearn,learning,feedback_image_window,W3lYnXarOHWz1dTrxCC1C2qdqEy2,W3lYnXarOHWz1dTrxCC1C2qdqEy2,,,,,,,,,,,,,,,,,,,,,,65be5c84defe30b60960f46f,10:12:19,27/02/2024
html-keyboard-response,225,456072,0.0-93.0-0.0,,,,,,mood_trial_fixation,W3lYnXarOHWz1dTrxCC1C2qdqEy2,,,,,,,,,,,,,,,,,,,,,,,65be5c84defe30b60960f46f,10:12:19,27/02/2024
lmdlab-html-vas-response,226,460716,0.0-93.0-1.0,3636.0,How happy are you right now?,0.5849006165445296,delaylearn,learning,mood_trial,W3lYnXarOHWz1dTrxCC1C2qdqEy2,W3lYnXarOHWz1dTrxCC1C2qdqEy2,,,,,,,,,,,,,,,,,,,,"['Very unhappy', 'Very happy']",,65be5c84defe30b60960f46f,10:12:19,27/02/2024
html-keyboard-response,227,462681,0.0-94.0,,"<div style=""font-size:100px;"">+</div>",,delaylearn,learning,ITI,W3lYnXarOHWz1dTrxCC1C2qdqEy2,W3lYnXarOHWz1dTrxCC1C2qdqEy2,,,,,,,,,,,,,,,,,,,1960.0,,,65be5c84defe30b60960f46f,10:12:19,27/02/2024
html-keyboard-response,228,463968,0.0-95.0-0.0,1283.199999988079,"<div style=""display: flex; flex-direction: column; align-items: center; margin-top: -40px;""><img src=""images/pattern_4.png"" style=""width: 234px; height: 230px; margin-top: -50px;""><div style=""display: flex; justify-content: space-between; margin-top: 33px;""><img src=""images/choice_trial_15.png"" style=""width: 408px; height: 417px; margin-right: 200px;""><img src=""images/choice_trial_9.png"" style=""width: 408px; height: 417px;""></div></div>",j,delaylearn,learning,trial,W3lYnXarOHWz1dTrxCC1C2qdqEy2,W3lYnXarOHWz1dTrxCC1C2qdqEy2,3.0,images/choice_trial_15.png,images/choice_trial_9.png,images/pattern_4.png,f,f,7000.0,15.0,9.0,3.0,0.0,41.0,0.0,0.0,9.0,190.0,,,,,,65be5c84defe30b60960f46f,10:12:19,27/02/2024
html-keyboard-response,229,464988,0.0-95.0-1.0,,"<div style=""display: flex; flex-direction: column; align-items: center; margin-top: -40px;""><img src=""images/pattern_4.png"" style=""width: 234px; height: 230px; margin-top: -50px;""><div style=""display: flex; justify-content: space-between; margin-top: 33px;""><img src=""images/choice_trial_9.png"" style=""width: 408px; height: 417px; margin-left:608px;""></div></div>",,delaylearn,learning,display_response,W3lYnXarOHWz1dTrxCC1C2qdqEy2,W3lYnXarOHWz1dTrxCC1C2qdqEy2,,,,,,,,,,,,,,,,,chosen stimuli: images/choice_trial_9.png,,,,,65be5c84defe30b60960f46f,10:12:19,27/02/2024
html-keyboard-response,230,471990,0.0-95.0-2.0,,,,delaylearn,learning,feedback_duration_window,W3lYnXarOHWz1dTrxCC1C2qdqEy2,W3lYnXarOHWz1dTrxCC1C2qdqEy2,,,,,,,,,,,,,,,,,,7000.0,,,,65be5c84defe30b60960f46f,10:12:19,27/02/2024
html-keyboard-response,231,473504,0.0-95.0-3.0,,<div style='margin:auto;width: auto; font-size: 150%'><span style='font-weight: bold; font-size: 100px; color: red;'>0 points!</span><br><br></div>,,delaylearn,learning,feedback_image_window,W3lYnXarOHWz1dTrxCC1C2qdqEy2,W3lYnXarOHWz1dTrxCC1C2qdqEy2,,,,,,,,,,,,,,,,,,,,,,65be5c84defe30b60960f46f,10:12:19,27/02/2024
html-keyboard-response,232,475379,0.0-96.0,,"<div style=""font-size:100px;"">+</div>",,delaylearn,learning,ITI,W3lYnXarOHWz1dTrxCC1C2qdqEy2,W3lYnXarOHWz1dTrxCC1C2qdqEy2,,,,,,,,,,,,,,,,,,,1863.0,,,65be5c84defe30b60960f46f,10:12:19,27/02/2024
html-keyboard-response,233,475936,0.0-97.0-0.0,552.5,"<div style=""display: flex; flex-direction: column; align-items: center; margin-top: -40px;""><img src=""images/pattern_6.png"" style=""width: 234px; height: 230px; margin-top: -50px;""><div style=""display: flex; justify-content: space-between; margin-top: 33px;""><img src=""images/choice_trial_3.png"" style=""width: 408px; height: 417px; margin-right: 200px;""><img src=""images/choice_trial_16.png"" style=""width: 408px; height: 417px;""></div></div>",f,delaylearn,learning,trial,W3lYnXarOHWz1dTrxCC1C2qdqEy2,W3lYnXarOHWz1dTrxCC1C2qdqEy2,3.0,images/choice_trial_3.png,images/choice_trial_16.png,images/pattern_6.png,j,j,750.0,3.0,16.0,5.0,1.0,42.0,0.0,0.0,3.0,190.0,,,,,,65be5c84defe30b60960f46f,10:12:19,27/02/2024
