trial_type,trial_index,time_elapsed,internal_node_id,rt,stimulus,response,exp_name,exp_stage,test_part,subjectID,databaseID,counterbal,choice_stimuli_1,choice_stimuli_2,pattern_stimuli,rewarded_answer,correct_answer,feedback_duration_times,stim_left,stim_right,pair,leftright_counter,trial,response_correct,response_rewarded,chosen_stim,counter,displayed_choice,feedback_durations,ITI_duration,labels,rest_warning,prolificID,start_time,date
pavlovia,0,517,0.0-0.0,,,,,,,OShMZSBECRYy9VNGpRij6UFmQi12,,,,,,,,,,,,,,,,,,,,,,,5a8a8de6000dab00018cc170,16:53:47,27/03/2024
html-keyboard-response,1,3532,0.0-1.0,,"<div style=""font-size:100px;"">+</div>",,delaylearn,learning,pre_fixation,OShMZSBECRYy9VNGpRij6UFmQi12,,,,,,,,,,,,,,,,,,,,,,,5a8a8de6000dab00018cc170,16:53:47,27/03/2024
html-keyboard-response,2,4337,0.0-2.0-0.0,804.5999999046326,"<div style=""display: flex; flex-direction: column; align-items: center; margin-top: -40px;""><img src=""images/demo_images/pattern_1.png"" style=""width: 234px; height: 230px; margin-top: -50px;""><div style=""display: flex; justify-content: space-between; margin-top: 33px;""><img src=""images/demo_images/choice_trial_2.png"" style=""width: 408px; height: 417px; margin-right: 200px;""><img src=""images/demo_images/choice_trial_1.png"" style=""width: 408px; height: 417px;""></div></div>",f,delaylearn,learning,trial,OShMZSBECRYy9VNGpRij6UFmQi12,OShMZSBECRYy9VNGpRij6UFmQi12,4.0,images/demo_images/choice_trial_2.png,images/demo_images/choice_trial_1.png,images/demo_images/pattern_1.png,j,j,3000.0,2.0,1.0,20.0,1.0,1.0,0.0,0.0,2.0,0.0,,,,,,5a8a8de6000dab00018cc170,16:53:47,27/03/2024
html-keyboard-response,3,5340,0.0-2.0-1.0,,"<div style=""display: flex; flex-direction: column; align-items: center; margin-top: -40px;""><img src=""images/demo_images/pattern_1.png"" style=""width: 234px; height: 230px; margin-top: -50px;""><div style=""display: flex; justify-content: space-between; margin-top: 33px;""><img src=""images/demo_images/choice_trial_2.png"" style=""width: 408px; height: 417px; margin-right: 608px;""></div></div>",,delaylearn,learning,display_response,OShMZSBECRYy9VNGpRij6UFmQi12,OShMZSBECRYy9VNGpRij6UFmQi12,,,,,,,,,,,,,,,,,chosen stimuli: images/demo_images/choice_trial_2.png,,,,,5a8a8de6000dab00018cc170,16:53:47,27/03/2024
html-keyboard-response,4,8348,0.0-2.0-2.0,,,,delaylearn,learning,feedback_duration_window,OShMZSBECRYy9VNGpRij6UFmQi12,OShMZSBECRYy9VNGpRij6UFmQi12,,,,,,,,,,,,,,,,,,3000.0,,,,5a8a8de6000dab00018cc170,16:53:47,27/03/2024
html-keyboard-response,5,9852,0.0-2.0-3.0,,<div style='margin:auto;width: auto; font-size: 150%'><span style='font-weight: bold; font-size: 100px; color: red;'>0 points!</span><br><br></div>,,delaylearn,learning,feedback_image_window,OShMZSBECRYy9VNGpRij6UFmQi12,OShMZSBECRYy9VNGpRij6UFmQi12,,,,,,,,,,,,,,,,,,,,,,5a8a8de6000dab00018cc170,16:53:47,27/03/2024
html-keyboard-response,6,12348,0.0-3.0,,"<div style=""font-size:100px;"">+</div>",,delaylearn,learning,ITI,OShMZSBECRYy9VNGpRij6UFmQi12,OShMZSBECRYy9VNGpRij6UFmQi12,,,,,,,,,,,,,,,,,,,2487.0,,,5a8a8de6000dab00018cc170,16:53:47,27/03/2024
html-keyboard-response,7,13041,0.0-4.0-0.0,692.6000003814697,"<div style=""display: flex; flex-direction: column; align-items: center; margin-top: -40px;""><img src=""images/demo_images/pattern_1.png"" style=""width: 234px; height: 230px; margin-top: -50px;""><div style=""display: flex; justify-content: space-between; margin-top: 33px;""><img src=""images/demo_images/choice_trial_2.png"" style=""width: 408px; height: 417px; margin-right: 200px;""><img src=""images/demo_images/choice_trial_1.png"" style=""width: 408px; height: 417px;""></div></div>",j,delaylearn,learning,trial,OShMZSBECRYy9VNGpRij6UFmQi12,OShMZSBECRYy9VNGpRij6UFmQi12,4.0,images/demo_images/choice_trial_2.png,images/demo_images/choice_trial_1.png,images/demo_images/pattern_1.png,j,j,3000.0,2.0,1.0,20.0,1.0,2.0,1.0,1.0,1.0,10.0,,,,,,5a8a8de6000dab00018cc170,16:53:47,27/03/2024
html-keyboard-response,8,14045,0.0-4.0-1.0,,"<div style=""display: flex; flex-direction: column; align-items: center; margin-top: -40px;""><img src=""images/demo_images/pattern_1.png"" style=""width: 234px; height: 230px; margin-top: -50px;""><div style=""display: flex; justify-content: space-between; margin-top: 33px;""><img src=""images/demo_images/choice_trial_1.png"" style=""width: 408px; height: 417px; margin-left:608px;""></div></div>",,delaylearn,learning,display_response,OShMZSBECRYy9VNGpRij6UFmQi12,OShMZSBECRYy9VNGpRij6UFmQi12,,,,,,,,,,,,,,,,,chosen stimuli: images/demo_images/choice_trial_1.png,,,,,5a8a8de6000dab00018cc170,16:53:47,27/03/2024
html-keyboard-response,9,17052,0.0-4.0-2.0,,,,delaylearn,learning,feedback_duration_window,OShMZSBECRYy9VNGpRij6UFmQi12,OShMZSBECRYy9VNGpRij6UFmQi12,,,,,,,,,,,,,,,,,,3000.0,,,,5a8a8de6000dab00018cc170,16:53:47,27/03/2024
html-keyboard-response,10,18556,0.0-4.0-3.0,,<div style='margin:auto;width: auto; font-size: 150%'><span style='font-weight: bold; font-size: 100px; color: green;'>+10 points!</span><br><br></div>,,delaylearn,learning,feedback_image_window,OShMZSBECRYy9VNGpRij6UFmQi12,OShMZSBECRYy9VNGpRij6UFmQi12,,,,,,,,,,,,,,,,,,,,,,5a8a8de6000dab00018cc170,16:53:47,27/03/2024
html-keyboard-response,11,21052,0.0-5.0,,"<div style=""font-size:100px;"">+</div>",,delaylearn,learning,ITI,OShMZSBECRYy9VNGpRij6UFmQi12,OShMZSBECRYy9VNGpRij6UFmQi12,,,,,,,,,,,,,,,,,,,2486.0,,,5a8a8de6000dab00018cc170,16:53:47,27/03/2024
html-keyboard-response,12,21697,0.0-6.0-0.0,645.1000003814697,"<div style=""display: flex; flex-direction: column; align-items: center; margin-top: -40px;""><img src=""images/demo_images/pattern_1.png"" style=""width: 234px; height: 230px; margin-top: -50px;""><div style=""display: flex; justify-content: space-between; margin-top: 33px;""><img src=""images/demo_images/choice_trial_1.png"" style=""width: 408px; height: 417px; margin-right: 200px;""><img src=""images/demo_images/choice_trial_2.png"" style=""width: 408px; height: 417px;""></div></div>",f,delaylearn,learning,trial,OShMZSBECRYy9VNGpRij6UFmQi12,OShMZSBECRYy9VNGpRij6UFmQi12,4.0,images/demo_images/choice_trial_1.png,images/demo_images/choice_trial_2.png,images/demo_images/pattern_1.png,j,f,3000.0,1.0,2.0,20.0,0.0,3.0,1.0,0.0,1.0,10.0,,,,,,5a8a8de6000dab00018cc170,16:53:47,27/03/2024
html-keyboard-response,13,22700,0.0-6.0-1.0,,"<div style=""display: flex; flex-direction: column; align-items: center; margin-top: -40px;""><img src=""images/demo_images/pattern_1.png"" style=""width: 234px; height: 230px; margin-top: -50px;""><div style=""display: flex; justify-content: space-between; margin-top: 33px;""><img src=""images/demo_images/choice_trial_1.png"" style=""width: 408px; height: 417px; margin-right: 608px;""></div></div>",,delaylearn,learning,display_response,OShMZSBECRYy9VNGpRij6UFmQi12,OShMZSBECRYy9VNGpRij6UFmQi12,,,,,,,,,,,,,,,,,chosen stimuli: images/demo_images/choice_trial_1.png,,,,,5a8a8de6000dab00018cc170,16:53:47,27/03/2024
html-keyboard-response,14,25708,0.0-6.0-2.0,,,,delaylearn,learning,feedback_duration_window,OShMZSBECRYy9VNGpRij6UFmQi12,OShMZSBECRYy9VNGpRij6UFmQi12,,,,,,,,,,,,,,,,,,3000.0,,,,5a8a8de6000dab00018cc170,16:53:47,27/03/2024
html-keyboard-response,15,27212,0.0-6.0-3.0,,<div style='margin:auto;width: auto; font-size: 150%'><span style='font-weight: bold; font-size: 100px; color: red;'>0 points!</span><br><br></div>,,delaylearn,learning,feedback_image_window,OShMZSBECRYy9VNGpRij6UFmQi12,OShMZSBECRYy9VNGpRij6UFmQi12,,,,,,,,,,,,,,,,,,,,,,5a8a8de6000dab00018cc170,16:53:47,27/03/2024
html-keyboard-response,16,28795,0.0-7.0,,"<div style=""font-size:100px;"">+</div>",,delaylearn,learning,ITI,OShMZSBECRYy9VNGpRij6UFmQi12,OShMZSBECRYy9VNGpRij6UFmQi12,,,,,,,,,,,,,,,,,,,1577.0,,,5a8a8de6000dab00018cc170,16:53:47,27/03/2024
html-keyboard-response,17,29569,0.0-8.0-0.0,773.0,"<div style=""display: flex; flex-direction: column; align-items: center; margin-top: -40px;""><img src=""images/demo_images/pattern_1.png"" style=""width: 234px; height: 230px; margin-top: -50px;""><div style=""display: flex; justify-content: space-between; margin-top: 33px;""><img src=""images/demo_images/choice_trial_1.png"" style=""width: 408px; height: 417px; margin-right: 200px;""><img src=""images/demo_images/choice_trial_2.png"" style=""width: 408px; height: 417px;""></div></div>",f,delaylearn,learning,trial,OShMZSBECRYy9VNGpRij6UFmQi12,OShMZSBECRYy9VNGpRij6UFmQi12,4.0,images/demo_images/choice_trial_1.png,images/demo_images/choice_trial_2.png,images/demo_images/pattern_1.png,f,f,3000.0,1.0,2.0,20.0,0.0,4.0,1.0,1.0,1.0,20.0,,,,,,5a8a8de6000dab00018cc170,16:53:47,27/03/2024
html-keyboard-response,18,30572,0.0-8.0-1.0,,"<div style=""display: flex; flex-direction: column; align-items: center; margin-top: -40px;""><img src=""images/demo_images/pattern_1.png"" style=""width: 234px; height: 230px; margin-top: -50px;""><div style=""display: flex; justify-content: space-between; margin-top: 33px;""><img src=""images/demo_images/choice_trial_1.png"" style=""width: 408px; height: 417px; margin-right: 608px;""></div></div>",,delaylearn,learning,display_response,OShMZSBECRYy9VNGpRij6UFmQi12,OShMZSBECRYy9VNGpRij6UFmQi12,,,,,,,,,,,,,,,,,chosen stimuli: images/demo_images/choice_trial_1.png,,,,,5a8a8de6000dab00018cc170,16:53:47,27/03/2024
html-keyboard-response,19,33580,0.0-8.0-2.0,,,,delaylearn,learning,feedback_duration_window,OShMZSBECRYy9VNGpRij6UFmQi12,OShMZSBECRYy9VNGpRij6UFmQi12,,,,,,,,,,,,,,,,,,3000.0,,,,5a8a8de6000dab00018cc170,16:53:47,27/03/2024
html-keyboard-response,20,35084,0.0-8.0-3.0,,<div style='margin:auto;width: auto; font-size: 150%'><span style='font-weight: bold; font-size: 100px; color: green;'>+10 points!</span><br><br></div>,,delaylearn,learning,feedback_image_window,OShMZSBECRYy9VNGpRij6UFmQi12,OShMZSBECRYy9VNGpRij6UFmQi12,,,,,,,,,,,,,,,,,,,,,,5a8a8de6000dab00018cc170,16:53:47,27/03/2024
html-keyboard-response,21,35596,0.0-9.0-0.0,,,,,,mood_trial_fixation,OShMZSBECRYy9VNGpRij6UFmQi12,,,,,,,,,,,,,,,,,,,,,,,5a8a8de6000dab00018cc170,16:53:47,27/03/2024
lmdlab-html-vas-response,22,39931,0.0-9.0-1.0,3323.0,How happy are you right now?,0.2808641975308642,delaylearn,learning,mood_trial,OShMZSBECRYy9VNGpRij6UFmQi12,OShMZSBECRYy9VNGpRij6UFmQi12,,,,,,,,,,,,,,,,,,,,"['Very unhappy', 'Very happy']",,5a8a8de6000dab00018cc170,16:53:47,27/03/2024
html-keyboard-response,23,42252,0.0-10.0,,"<div style=""font-size:100px;"">+</div>",,delaylearn,learning,ITI,OShMZSBECRYy9VNGpRij6UFmQi12,OShMZSBECRYy9VNGpRij6UFmQi12,,,,,,,,,,,,,,,,,,,2309.0,,,5a8a8de6000dab00018cc170,16:53:47,27/03/2024
html-keyboard-response,24,42985,0.0-11.0-0.0,732.6999998092651,"<div style=""display: flex; flex-direction: column; align-items: center; margin-top: -40px;""><img src=""images/demo_images/pattern_1.png"" style=""width: 234px; height: 230px; margin-top: -50px;""><div style=""display: flex; justify-content: space-between; margin-top: 33px;""><img src=""images/demo_images/choice_trial_2.png"" style=""width: 408px; height: 417px; margin-right: 200px;""><img src=""images/demo_images/choice_trial_1.png"" style=""width: 408px; height: 417px;""></div></div>",j,delaylearn,learning,trial,OShMZSBECRYy9VNGpRij6UFmQi12,OShMZSBECRYy9VNGpRij6UFmQi12,4.0,images/demo_images/choice_trial_2.png,images/demo_images/choice_trial_1.png,images/demo_images/pattern_1.png,j,j,3000.0,2.0,1.0,20.0,1.0,5.0,1.0,1.0,1.0,30.0,,,,,,5a8a8de6000dab00018cc170,16:53:47,27/03/2024
html-keyboard-response,25,43996,0.0-11.0-1.0,,"<div style=""display: flex; flex-direction: column; align-items: center; margin-top: -40px;""><img src=""images/demo_images/pattern_1.png"" style=""width: 234px; height: 230px; margin-top: -50px;""><div style=""display: flex; justify-content: space-between; margin-top: 33px;""><img src=""images/demo_images/choice_trial_1.png"" style=""width: 408px; height: 417px; margin-left:608px;""></div></div>",,delaylearn,learning,display_response,OShMZSBECRYy9VNGpRij6UFmQi12,OShMZSBECRYy9VNGpRij6UFmQi12,,,,,,,,,,,,,,,,,chosen stimuli: images/demo_images/choice_trial_1.png,,,,,5a8a8de6000dab00018cc170,16:53:47,27/03/2024
html-keyboard-response,26,47004,0.0-11.0-2.0,,,,delaylearn,learning,feedback_duration_window,OShMZSBECRYy9VNGpRij6UFmQi12,OShMZSBECRYy9VNGpRij6UFmQi12,,,,,,,,,,,,,,,,,,3000.0,,,,5a8a8de6000dab00018cc170,16:53:47,27/03/2024
html-keyboard-response,27,48508,0.0-11.0-3.0,,<div style='margin:auto;width: auto; font-size: 150%'><span style='font-weight: bold; font-size: 100px; color: green;'>+10 points!</span><br><br></div>,,delaylearn,learning,feedback_image_window,OShMZSBECRYy9VNGpRij6UFmQi12,OShMZSBECRYy9VNGpRij6UFmQi12,,,,,,,,,,,,,,,,,,,,,,5a8a8de6000dab00018cc170,16:53:47,27/03/2024
html-keyboard-response,28,50444,0.0-12.0,,"<div style=""font-size:100px;"">+</div>",,delaylearn,learning,ITI,OShMZSBECRYy9VNGpRij6UFmQi12,OShMZSBECRYy9VNGpRij6UFmQi12,,,,,,,,,,,,,,,,,,,1926.0,,,5a8a8de6000dab00018cc170,16:53:47,27/03/2024
html-keyboard-response,29,50921,0.0-13.0-0.0,476.80000019073486,"<div style=""display: flex; flex-direction: column; align-items: center; margin-top: -40px;""><img src=""images/demo_images/pattern_1.png"" style=""width: 234px; height: 230px; margin-top: -50px;""><div style=""display: flex; justify-content: space-between; margin-top: 33px;""><img src=""images/demo_images/choice_trial_1.png"" style=""width: 408px; height: 417px; margin-right: 200px;""><img src=""images/demo_images/choice_trial_2.png"" style=""width: 408px; height: 417px;""></div></div>",f,delaylearn,learning,trial,OShMZSBECRYy9VNGpRij6UFmQi12,OShMZSBECRYy9VNGpRij6UFmQi12,4.0,images/demo_images/choice_trial_1.png,images/demo_images/choice_trial_2.png,images/demo_images/pattern_1.png,f,f,3000.0,1.0,2.0,20.0,0.0,6.0,1.0,1.0,1.0,40.0,,,,,,5a8a8de6000dab00018cc170,16:53:47,27/03/2024
html-keyboard-response,30,51932,0.0-13.0-1.0,,"<div style=""display: flex; flex-direction: column; align-items: center; margin-top: -40px;""><img src=""images/demo_images/pattern_1.png"" style=""width: 234px; height: 230px; margin-top: -50px;""><div style=""display: flex; justify-content: space-between; margin-top: 33px;""><img src=""images/demo_images/choice_trial_1.png"" style=""width: 408px; height: 417px; margin-right: 608px;""></div></div>",,delaylearn,learning,display_response,OShMZSBECRYy9VNGpRij6UFmQi12,OShMZSBECRYy9VNGpRij6UFmQi12,,,,,,,,,,,,,,,,,chosen stimuli: images/demo_images/choice_trial_1.png,,,,,5a8a8de6000dab00018cc170,16:53:47,27/03/2024
html-keyboard-response,31,54940,0.0-13.0-2.0,,,,delaylearn,learning,feedback_duration_window,OShMZSBECRYy9VNGpRij6UFmQi12,OShMZSBECRYy9VNGpRij6UFmQi12,,,,,,,,,,,,,,,,,,3000.0,,,,5a8a8de6000dab00018cc170,16:53:47,27/03/2024
html-keyboard-response,32,56444,0.0-13.0-3.0,,<div style='margin:auto;width: auto; font-size: 150%'><span style='font-weight: bold; font-size: 100px; color: green;'>+10 points!</span><br><br></div>,,delaylearn,learning,feedback_image_window,OShMZSBECRYy9VNGpRij6UFmQi12,OShMZSBECRYy9VNGpRij6UFmQi12,,,,,,,,,,,,,,,,,,,,,,5a8a8de6000dab00018cc170,16:53:47,27/03/2024
html-keyboard-response,33,58124,0.0-14.0,,"<div style=""font-size:100px;"">+</div>",,delaylearn,learning,ITI,OShMZSBECRYy9VNGpRij6UFmQi12,OShMZSBECRYy9VNGpRij6UFmQi12,,,,,,,,,,,,,,,,,,,1676.0,,,5a8a8de6000dab00018cc170,16:53:47,27/03/2024
html-keyboard-response,34,58641,0.0-15.0-0.0,516.0999999046326,"<div style=""display: flex; flex-direction: column; align-items: center; margin-top: -40px;""><img src=""images/demo_images/pattern_1.png"" style=""width: 234px; height: 230px; margin-top: -50px;""><div style=""display: flex; justify-content: space-between; margin-top: 33px;""><img src=""images/demo_images/choice_trial_2.png"" style=""width: 408px; height: 417px; margin-right: 200px;""><img src=""images/demo_images/choice_trial_1.png"" style=""width: 408px; height: 417px;""></div></div>",j,delaylearn,learning,trial,OShMZSBECRYy9VNGpRij6UFmQi12,OShMZSBECRYy9VNGpRij6UFmQi12,4.0,images/demo_images/choice_trial_2.png,images/demo_images/choice_trial_1.png,images/demo_images/pattern_1.png,j,j,3000.0,2.0,1.0,20.0,1.0,7.0,1.0,1.0,1.0,50.0,,,,,,5a8a8de6000dab00018cc170,16:53:47,27/03/2024
html-keyboard-response,35,59644,0.0-15.0-1.0,,"<div style=""display: flex; flex-direction: column; align-items: center; margin-top: -40px;""><img src=""images/demo_images/pattern_1.png"" style=""width: 234px; height: 230px; margin-top: -50px;""><div style=""display: flex; justify-content: space-between; margin-top: 33px;""><img src=""images/demo_images/choice_trial_1.png"" style=""width: 408px; height: 417px; margin-left:608px;""></div></div>",,delaylearn,learning,display_response,OShMZSBECRYy9VNGpRij6UFmQi12,OShMZSBECRYy9VNGpRij6UFmQi12,,,,,,,,,,,,,,,,,chosen stimuli: images/demo_images/choice_trial_1.png,,,,,5a8a8de6000dab00018cc170,16:53:47,27/03/2024
html-keyboard-response,36,62652,0.0-15.0-2.0,,,,delaylearn,learning,feedback_duration_window,OShMZSBECRYy9VNGpRij6UFmQi12,OShMZSBECRYy9VNGpRij6UFmQi12,,,,,,,,,,,,,,,,,,3000.0,,,,5a8a8de6000dab00018cc170,16:53:47,27/03/2024
html-keyboard-response,37,64157,0.0-15.0-3.0,,<div style='margin:auto;width: auto; font-size: 150%'><span style='font-weight: bold; font-size: 100px; color: green;'>+10 points!</span><br><br></div>,,delaylearn,learning,feedback_image_window,OShMZSBECRYy9VNGpRij6UFmQi12,OShMZSBECRYy9VNGpRij6UFmQi12,,,,,,,,,,,,,,,,,,,,,,5a8a8de6000dab00018cc170,16:53:47,27/03/2024
html-keyboard-response,38,66077,0.0-16.0,,"<div style=""font-size:100px;"">+</div>",,delaylearn,learning,ITI,OShMZSBECRYy9VNGpRij6UFmQi12,OShMZSBECRYy9VNGpRij6UFmQi12,,,,,,,,,,,,,,,,,,,1912.0,,,5a8a8de6000dab00018cc170,16:53:47,27/03/2024
html-keyboard-response,39,66593,0.0-17.0-0.0,516.0,"<div style=""display: flex; flex-direction: column; align-items: center; margin-top: -40px;""><img src=""images/demo_images/pattern_1.png"" style=""width: 234px; height: 230px; margin-top: -50px;""><div style=""display: flex; justify-content: space-between; margin-top: 33px;""><img src=""images/demo_images/choice_trial_1.png"" style=""width: 408px; height: 417px; margin-right: 200px;""><img src=""images/demo_images/choice_trial_2.png"" style=""width: 408px; height: 417px;""></div></div>",f,delaylearn,learning,trial,OShMZSBECRYy9VNGpRij6UFmQi12,OShMZSBECRYy9VNGpRij6UFmQi12,4.0,images/demo_images/choice_trial_1.png,images/demo_images/choice_trial_2.png,images/demo_images/pattern_1.png,f,f,3000.0,1.0,2.0,20.0,0.0,8.0,1.0,1.0,1.0,60.0,,,,,,5a8a8de6000dab00018cc170,16:53:47,27/03/2024
html-keyboard-response,40,67597,0.0-17.0-1.0,,"<div style=""display: flex; flex-direction: column; align-items: center; margin-top: -40px;""><img src=""images/demo_images/pattern_1.png"" style=""width: 234px; height: 230px; margin-top: -50px;""><div style=""display: flex; justify-content: space-between; margin-top: 33px;""><img src=""images/demo_images/choice_trial_1.png"" style=""width: 408px; height: 417px; margin-right: 608px;""></div></div>",,delaylearn,learning,display_response,OShMZSBECRYy9VNGpRij6UFmQi12,OShMZSBECRYy9VNGpRij6UFmQi12,,,,,,,,,,,,,,,,,chosen stimuli: images/demo_images/choice_trial_1.png,,,,,5a8a8de6000dab00018cc170,16:53:47,27/03/2024
html-keyboard-response,41,70604,0.0-17.0-2.0,,,,delaylearn,learning,feedback_duration_window,OShMZSBECRYy9VNGpRij6UFmQi12,OShMZSBECRYy9VNGpRij6UFmQi12,,,,,,,,,,,,,,,,,,3000.0,,,,5a8a8de6000dab00018cc170,16:53:47,27/03/2024
html-keyboard-response,42,72108,0.0-17.0-3.0,,<div style='margin:auto;width: auto; font-size: 150%'><span style='font-weight: bold; font-size: 100px; color: green;'>+10 points!</span><br><br></div>,,delaylearn,learning,feedback_image_window,OShMZSBECRYy9VNGpRij6UFmQi12,OShMZSBECRYy9VNGpRij6UFmQi12,,,,,,,,,,,,,,,,,,,,,,5a8a8de6000dab00018cc170,16:53:47,27/03/2024
html-button-response,43,74650,0.0-18.0,2541.5,"
  <div style=""display: flex; align-items: center; justify-content: center; height: 80vh;"">
  <div>
          <img src=""images/inst_demo_finish.png"" style=""width: 80vw; height:auto;"">
          <br><br>
      </div>
      <br><br>
  </div>",0,,,,OShMZSBECRYy9VNGpRij6UFmQi12,,,,,,,,,,,,,,,,,,,,,,,5a8a8de6000dab00018cc170,16:53:47,27/03/2024
html-keyboard-response,44,77657,0.0-19.0,3006.6000003814697,"
  <div style=""display: flex; align-items: center; justify-content: center; height: 80vh;"">
  <div>
          <img src=""images/inst_6.png"" style=""width: 80vw; height:auto;"">
          <br><br>
      </div>
      <br><br>
  </div>",f,,,,OShMZSBECRYy9VNGpRij6UFmQi12,,,,,,,,,,,,,,,,,,,,,,,5a8a8de6000dab00018cc170,16:53:47,27/03/2024
html-keyboard-response,45,80668,0.0-20.0,,"<div style=""font-size:100px;"">+</div>",,delaylearn,learning,pre_fixation,OShMZSBECRYy9VNGpRij6UFmQi12,,,,,,,,,,,,,,,,,,,,,,,5a8a8de6000dab00018cc170,16:53:47,27/03/2024
html-keyboard-response,46,82924,0.0-21.0,,"<div style=""font-size:100px;"">+</div>",,delaylearn,learning,ITI,OShMZSBECRYy9VNGpRij6UFmQi12,OShMZSBECRYy9VNGpRij6UFmQi12,,,,,,,,,,,,,,,,,,,2241.0,,,5a8a8de6000dab00018cc170,16:53:47,27/03/2024
html-keyboard-response,47,83841,0.0-22.0-0.0,916.1999998092651,"<div style=""display: flex; flex-direction: column; align-items: center; margin-top: -40px;""><img src=""images/pattern_3.png"" style=""width: 234px; height: 230px; margin-top: -50px;""><div style=""display: flex; justify-content: space-between; margin-top: 33px;""><img src=""images/choice_trial_16.png"" style=""width: 408px; height: 417px; margin-right: 200px;""><img src=""images/choice_trial_6.png"" style=""width: 408px; height: 417px;""></div></div>",f,delaylearn,learning,trial,OShMZSBECRYy9VNGpRij6UFmQi12,OShMZSBECRYy9VNGpRij6UFmQi12,4.0,images/choice_trial_16.png,images/choice_trial_6.png,images/pattern_3.png,f,f,7000.0,16.0,6.0,2.0,0.0,9.0,1.0,1.0,16.0,70.0,,,,,,5a8a8de6000dab00018cc170,16:53:47,27/03/2024
html-keyboard-response,48,84845,0.0-22.0-1.0,,"<div style=""display: flex; flex-direction: column; align-items: center; margin-top: -40px;""><img src=""images/pattern_3.png"" style=""width: 234px; height: 230px; margin-top: -50px;""><div style=""display: flex; justify-content: space-between; margin-top: 33px;""><img src=""images/choice_trial_16.png"" style=""width: 408px; height: 417px; margin-right: 608px;""></div></div>",,delaylearn,learning,display_response,OShMZSBECRYy9VNGpRij6UFmQi12,OShMZSBECRYy9VNGpRij6UFmQi12,,,,,,,,,,,,,,,,,chosen stimuli: images/choice_trial_16.png,,,,,5a8a8de6000dab00018cc170,16:53:47,27/03/2024
html-keyboard-response,49,91853,0.0-22.0-2.0,,,,delaylearn,learning,feedback_duration_window,OShMZSBECRYy9VNGpRij6UFmQi12,OShMZSBECRYy9VNGpRij6UFmQi12,,,,,,,,,,,,,,,,,,7000.0,,,,5a8a8de6000dab00018cc170,16:53:47,27/03/2024
html-keyboard-response,50,93356,0.0-22.0-3.0,,<div style='margin:auto;width: auto; font-size: 150%'><span style='font-weight: bold; font-size: 100px; color: green;'>+10 points!</span><br><br></div>,,delaylearn,learning,feedback_image_window,OShMZSBECRYy9VNGpRij6UFmQi12,OShMZSBECRYy9VNGpRij6UFmQi12,,,,,,,,,,,,,,,,,,,,,,5a8a8de6000dab00018cc170,16:53:47,27/03/2024
html-keyboard-response,51,95132,0.0-23.0,,"<div style=""font-size:100px;"">+</div>",,delaylearn,learning,ITI,OShMZSBECRYy9VNGpRij6UFmQi12,OShMZSBECRYy9VNGpRij6UFmQi12,,,,,,,,,,,,,,,,,,,1774.0,,,5a8a8de6000dab00018cc170,16:53:47,27/03/2024
html-keyboard-response,52,96641,0.0-24.0-0.0,1508.3999996185303,"<div style=""display: flex; flex-direction: column; align-items: center; margin-top: -40px;""><img src=""images/pattern_7.png"" style=""width: 234px; height: 230px; margin-top: -50px;""><div style=""display: flex; justify-content: space-between; margin-top: 33px;""><img src=""images/choice_trial_4.png"" style=""width: 408px; height: 417px; margin-right: 200px;""><img src=""images/choice_trial_13.png"" style=""width: 408px; height: 417px;""></div></div>",j,delaylearn,learning,trial,OShMZSBECRYy9VNGpRij6UFmQi12,OShMZSBECRYy9VNGpRij6UFmQi12,4.0,images/choice_trial_4.png,images/choice_trial_13.png,images/pattern_7.png,j,j,750.0,4.0,13.0,6.0,1.0,10.0,1.0,1.0,13.0,80.0,,,,,,5a8a8de6000dab00018cc170,16:53:47,27/03/2024
html-keyboard-response,53,97644,0.0-24.0-1.0,,"<div style=""display: flex; flex-direction: column; align-items: center; margin-top: -40px;""><img src=""images/pattern_7.png"" style=""width: 234px; height: 230px; margin-top: -50px;""><div style=""display: flex; justify-content: space-between; margin-top: 33px;""><img src=""images/choice_trial_13.png"" style=""width: 408px; height: 417px; margin-left:608px;""></div></div>",,delaylearn,learning,display_response,OShMZSBECRYy9VNGpRij6UFmQi12,OShMZSBECRYy9VNGpRij6UFmQi12,,,,,,,,,,,,,,,,,chosen stimuli: images/choice_trial_13.png,,,,,5a8a8de6000dab00018cc170,16:53:47,27/03/2024
html-keyboard-response,54,98396,0.0-24.0-2.0,,,,delaylearn,learning,feedback_duration_window,OShMZSBECRYy9VNGpRij6UFmQi12,OShMZSBECRYy9VNGpRij6UFmQi12,,,,,,,,,,,,,,,,,,750.0,,,,5a8a8de6000dab00018cc170,16:53:47,27/03/2024
html-keyboard-response,55,99901,0.0-24.0-3.0,,<div style='margin:auto;width: auto; font-size: 150%'><span style='font-weight: bold; font-size: 100px; color: green;'>+10 points!</span><br><br></div>,,delaylearn,learning,feedback_image_window,OShMZSBECRYy9VNGpRij6UFmQi12,OShMZSBECRYy9VNGpRij6UFmQi12,,,,,,,,,,,,,,,,,,,,,,5a8a8de6000dab00018cc170,16:53:47,27/03/2024
html-keyboard-response,56,101740,0.0-25.0,,"<div style=""font-size:100px;"">+</div>",,delaylearn,learning,ITI,OShMZSBECRYy9VNGpRij6UFmQi12,OShMZSBECRYy9VNGpRij6UFmQi12,,,,,,,,,,,,,,,,,,,1838.0,,,5a8a8de6000dab00018cc170,16:53:47,27/03/2024
html-keyboard-response,57,102969,0.0-26.0-0.0,1228.3000001907349,"<div style=""display: flex; flex-direction: column; align-items: center; margin-top: -40px;""><img src=""images/pattern_4.png"" style=""width: 234px; height: 230px; margin-top: -50px;""><div style=""display: flex; justify-content: space-between; margin-top: 33px;""><img src=""images/choice_trial_8.png"" style=""width: 408px; height: 417px; margin-right: 200px;""><img src=""images/choice_trial_7.png"" style=""width: 408px; height: 417px;""></div></div>",j,delaylearn,learning,trial,OShMZSBECRYy9VNGpRij6UFmQi12,OShMZSBECRYy9VNGpRij6UFmQi12,4.0,images/choice_trial_8.png,images/choice_trial_7.png,images/pattern_4.png,f,f,7000.0,8.0,7.0,3.0,0.0,11.0,0.0,0.0,7.0,80.0,,,,,,5a8a8de6000dab00018cc170,16:53:47,27/03/2024
html-keyboard-response,58,103981,0.0-26.0-1.0,,"<div style=""display: flex; flex-direction: column; align-items: center; margin-top: -40px;""><img src=""images/pattern_4.png"" style=""width: 234px; height: 230px; margin-top: -50px;""><div style=""display: flex; justify-content: space-between; margin-top: 33px;""><img src=""images/choice_trial_7.png"" style=""width: 408px; height: 417px; margin-left:608px;""></div></div>",,delaylearn,learning,display_response,OShMZSBECRYy9VNGpRij6UFmQi12,OShMZSBECRYy9VNGpRij6UFmQi12,,,,,,,,,,,,,,,,,chosen stimuli: images/choice_trial_7.png,,,,,5a8a8de6000dab00018cc170,16:53:47,27/03/2024
html-keyboard-response,59,110988,0.0-26.0-2.0,,,,delaylearn,learning,feedback_duration_window,OShMZSBECRYy9VNGpRij6UFmQi12,OShMZSBECRYy9VNGpRij6UFmQi12,,,,,,,,,,,,,,,,,,7000.0,,,,5a8a8de6000dab00018cc170,16:53:47,27/03/2024
html-keyboard-response,60,112493,0.0-26.0-3.0,,<div style='margin:auto;width: auto; font-size: 150%'><span style='font-weight: bold; font-size: 100px; color: red;'>0 points!</span><br><br></div>,,delaylearn,learning,feedback_image_window,OShMZSBECRYy9VNGpRij6UFmQi12,OShMZSBECRYy9VNGpRij6UFmQi12,,,,,,,,,,,,,,,,,,,,,,5a8a8de6000dab00018cc170,16:53:47,27/03/2024
html-keyboard-response,61,114908,0.0-27.0,,"<div style=""font-size:100px;"">+</div>",,delaylearn,learning,ITI,OShMZSBECRYy9VNGpRij6UFmQi12,OShMZSBECRYy9VNGpRij6UFmQi12,,,,,,,,,,,,,,,,,,,2409.0,,,5a8a8de6000dab00018cc170,16:53:47,27/03/2024
html-keyboard-response,62,116153,0.0-28.0-0.0,1244.0,"<div style=""display: flex; flex-direction: column; align-items: center; margin-top: -40px;""><img src=""images/pattern_5.png"" style=""width: 234px; height: 230px; margin-top: -50px;""><div style=""display: flex; justify-content: space-between; margin-top: 33px;""><img src=""images/choice_trial_15.png"" style=""width: 408px; height: 417px; margin-right: 200px;""><img src=""images/choice_trial_5.png"" style=""width: 408px; height: 417px;""></div></div>",j,delaylearn,learning,trial,OShMZSBECRYy9VNGpRij6UFmQi12,OShMZSBECRYy9VNGpRij6UFmQi12,4.0,images/choice_trial_15.png,images/choice_trial_5.png,images/pattern_5.png,j,j,750.0,15.0,5.0,4.0,1.0,12.0,1.0,1.0,5.0,90.0,,,,,,5a8a8de6000dab00018cc170,16:53:47,27/03/2024
html-keyboard-response,63,117164,0.0-28.0-1.0,,"<div style=""display: flex; flex-direction: column; align-items: center; margin-top: -40px;""><img src=""images/pattern_5.png"" style=""width: 234px; height: 230px; margin-top: -50px;""><div style=""display: flex; justify-content: space-between; margin-top: 33px;""><img src=""images/choice_trial_5.png"" style=""width: 408px; height: 417px; margin-left:608px;""></div></div>",,delaylearn,learning,display_response,OShMZSBECRYy9VNGpRij6UFmQi12,OShMZSBECRYy9VNGpRij6UFmQi12,,,,,,,,,,,,,,,,,chosen stimuli: images/choice_trial_5.png,,,,,5a8a8de6000dab00018cc170,16:53:47,27/03/2024
html-keyboard-response,64,117916,0.0-28.0-2.0,,,,delaylearn,learning,feedback_duration_window,OShMZSBECRYy9VNGpRij6UFmQi12,OShMZSBECRYy9VNGpRij6UFmQi12,,,,,,,,,,,,,,,,,,750.0,,,,5a8a8de6000dab00018cc170,16:53:47,27/03/2024
html-keyboard-response,65,119420,0.0-28.0-3.0,,<div style='margin:auto;width: auto; font-size: 150%'><span style='font-weight: bold; font-size: 100px; color: green;'>+10 points!</span><br><br></div>,,delaylearn,learning,feedback_image_window,OShMZSBECRYy9VNGpRij6UFmQi12,OShMZSBECRYy9VNGpRij6UFmQi12,,,,,,,,,,,,,,,,,,,,,,5a8a8de6000dab00018cc170,16:53:47,27/03/2024
html-keyboard-response,66,121773,0.0-29.0,,"<div style=""font-size:100px;"">+</div>",,delaylearn,learning,ITI,OShMZSBECRYy9VNGpRij6UFmQi12,OShMZSBECRYy9VNGpRij6UFmQi12,,,,,,,,,,,,,,,,,,,2350.0,,,5a8a8de6000dab00018cc170,16:53:47,27/03/2024
html-keyboard-response,67,123169,0.0-30.0-0.0,1396.0,"<div style=""display: flex; flex-direction: column; align-items: center; margin-top: -40px;""><img src=""images/pattern_6.png"" style=""width: 234px; height: 230px; margin-top: -50px;""><div style=""display: flex; justify-content: space-between; margin-top: 33px;""><img src=""images/choice_trial_10.png"" style=""width: 408px; height: 417px; margin-right: 200px;""><img src=""images/choice_trial_3.png"" style=""width: 408px; height: 417px;""></div></div>",j,delaylearn,learning,trial,OShMZSBECRYy9VNGpRij6UFmQi12,OShMZSBECRYy9VNGpRij6UFmQi12,4.0,images/choice_trial_10.png,images/choice_trial_3.png,images/pattern_6.png,j,f,750.0,10.0,3.0,5.0,0.0,13.0,0.0,1.0,3.0,100.0,,,,,,5a8a8de6000dab00018cc170,16:53:47,27/03/2024
html-keyboard-response,68,124172,0.0-30.0-1.0,,"<div style=""display: flex; flex-direction: column; align-items: center; margin-top: -40px;""><img src=""images/pattern_6.png"" style=""width: 234px; height: 230px; margin-top: -50px;""><div style=""display: flex; justify-content: space-between; margin-top: 33px;""><img src=""images/choice_trial_3.png"" style=""width: 408px; height: 417px; margin-left:608px;""></div></div>",,delaylearn,learning,display_response,OShMZSBECRYy9VNGpRij6UFmQi12,OShMZSBECRYy9VNGpRij6UFmQi12,,,,,,,,,,,,,,,,,chosen stimuli: images/choice_trial_3.png,,,,,5a8a8de6000dab00018cc170,16:53:47,27/03/2024
html-keyboard-response,69,124924,0.0-30.0-2.0,,,,delaylearn,learning,feedback_duration_window,OShMZSBECRYy9VNGpRij6UFmQi12,OShMZSBECRYy9VNGpRij6UFmQi12,,,,,,,,,,,,,,,,,,750.0,,,,5a8a8de6000dab00018cc170,16:53:47,27/03/2024
html-keyboard-response,70,126429,0.0-30.0-3.0,,<div style='margin:auto;width: auto; font-size: 150%'><span style='font-weight: bold; font-size: 100px; color: green;'>+10 points!</span><br><br></div>,,delaylearn,learning,feedback_image_window,OShMZSBECRYy9VNGpRij6UFmQi12,OShMZSBECRYy9VNGpRij6UFmQi12,,,,,,,,,,,,,,,,,,,,,,5a8a8de6000dab00018cc170,16:53:47,27/03/2024
html-keyboard-response,71,126940,0.0-31.0-0.0,,,,,,mood_trial_fixation,OShMZSBECRYy9VNGpRij6UFmQi12,,,,,,,,,,,,,,,,,,,,,,,5a8a8de6000dab00018cc170,16:53:47,27/03/2024
lmdlab-html-vas-response,72,130795,0.0-31.0-1.0,2846.0,How happy are you right now?,0.3410493827160494,delaylearn,learning,mood_trial,OShMZSBECRYy9VNGpRij6UFmQi12,OShMZSBECRYy9VNGpRij6UFmQi12,,,,,,,,,,,,,,,,,,,,"['Very unhappy', 'Very happy']",,5a8a8de6000dab00018cc170,16:53:47,27/03/2024
html-keyboard-response,73,133213,0.0-32.0,,"<div style=""font-size:100px;"">+</div>",,delaylearn,learning,ITI,OShMZSBECRYy9VNGpRij6UFmQi12,OShMZSBECRYy9VNGpRij6UFmQi12,,,,,,,,,,,,,,,,,,,2408.0,,,5a8a8de6000dab00018cc170,16:53:47,27/03/2024
html-keyboard-response,74,134449,0.0-33.0-0.0,1235.6999998092651,"<div style=""display: flex; flex-direction: column; align-items: center; margin-top: -40px;""><img src=""images/pattern_1.png"" style=""width: 234px; height: 230px; margin-top: -50px;""><div style=""display: flex; justify-content: space-between; margin-top: 33px;""><img src=""images/choice_trial_9.png"" style=""width: 408px; height: 417px; margin-right: 200px;""><img src=""images/choice_trial_1.png"" style=""width: 408px; height: 417px;""></div></div>",f,delaylearn,learning,trial,OShMZSBECRYy9VNGpRij6UFmQi12,OShMZSBECRYy9VNGpRij6UFmQi12,4.0,images/choice_trial_9.png,images/choice_trial_1.png,images/pattern_1.png,j,j,7000.0,9.0,1.0,1.0,1.0,14.0,0.0,0.0,9.0,100.0,,,,,,5a8a8de6000dab00018cc170,16:53:47,27/03/2024
html-keyboard-response,75,135452,0.0-33.0-1.0,,"<div style=""display: flex; flex-direction: column; align-items: center; margin-top: -40px;""><img src=""images/pattern_1.png"" style=""width: 234px; height: 230px; margin-top: -50px;""><div style=""display: flex; justify-content: space-between; margin-top: 33px;""><img src=""images/choice_trial_9.png"" style=""width: 408px; height: 417px; margin-right: 608px;""></div></div>",,delaylearn,learning,display_response,OShMZSBECRYy9VNGpRij6UFmQi12,OShMZSBECRYy9VNGpRij6UFmQi12,,,,,,,,,,,,,,,,,chosen stimuli: images/choice_trial_9.png,,,,,5a8a8de6000dab00018cc170,16:53:47,27/03/2024
html-keyboard-response,76,142461,0.0-33.0-2.0,,,,delaylearn,learning,feedback_duration_window,OShMZSBECRYy9VNGpRij6UFmQi12,OShMZSBECRYy9VNGpRij6UFmQi12,,,,,,,,,,,,,,,,,,7000.0,,,,5a8a8de6000dab00018cc170,16:53:47,27/03/2024
html-keyboard-response,77,143965,0.0-33.0-3.0,,<div style='margin:auto;width: auto; font-size: 150%'><span style='font-weight: bold; font-size: 100px; color: red;'>0 points!</span><br><br></div>,,delaylearn,learning,feedback_image_window,OShMZSBECRYy9VNGpRij6UFmQi12,OShMZSBECRYy9VNGpRij6UFmQi12,,,,,,,,,,,,,,,,,,,,,,5a8a8de6000dab00018cc170,16:53:47,27/03/2024
html-keyboard-response,78,145692,0.0-34.0,,"<div style=""font-size:100px;"">+</div>",,delaylearn,learning,ITI,OShMZSBECRYy9VNGpRij6UFmQi12,OShMZSBECRYy9VNGpRij6UFmQi12,,,,,,,,,,,,,,,,,,,1713.0,,,5a8a8de6000dab00018cc170,16:53:47,27/03/2024
html-keyboard-response,79,147329,0.0-35.0-0.0,1636.1999998092651,"<div style=""display: flex; flex-direction: column; align-items: center; margin-top: -40px;""><img src=""images/pattern_3.png"" style=""width: 234px; height: 230px; margin-top: -50px;""><div style=""display: flex; justify-content: space-between; margin-top: 33px;""><img src=""images/choice_trial_6.png"" style=""width: 408px; height: 417px; margin-right: 200px;""><img src=""images/choice_trial_16.png"" style=""width: 408px; height: 417px;""></div></div>",j,delaylearn,learning,trial,OShMZSBECRYy9VNGpRij6UFmQi12,OShMZSBECRYy9VNGpRij6UFmQi12,4.0,images/choice_trial_6.png,images/choice_trial_16.png,images/pattern_3.png,f,j,7000.0,6.0,16.0,2.0,1.0,15.0,1.0,0.0,16.0,100.0,,,,,,5a8a8de6000dab00018cc170,16:53:47,27/03/2024
html-keyboard-response,80,148333,0.0-35.0-1.0,,"<div style=""display: flex; flex-direction: column; align-items: center; margin-top: -40px;""><img src=""images/pattern_3.png"" style=""width: 234px; height: 230px; margin-top: -50px;""><div style=""display: flex; justify-content: space-between; margin-top: 33px;""><img src=""images/choice_trial_16.png"" style=""width: 408px; height: 417px; margin-left:608px;""></div></div>",,delaylearn,learning,display_response,OShMZSBECRYy9VNGpRij6UFmQi12,OShMZSBECRYy9VNGpRij6UFmQi12,,,,,,,,,,,,,,,,,chosen stimuli: images/choice_trial_16.png,,,,,5a8a8de6000dab00018cc170,16:53:47,27/03/2024
html-keyboard-response,81,155340,0.0-35.0-2.0,,,,delaylearn,learning,feedback_duration_window,OShMZSBECRYy9VNGpRij6UFmQi12,OShMZSBECRYy9VNGpRij6UFmQi12,,,,,,,,,,,,,,,,,,7000.0,,,,5a8a8de6000dab00018cc170,16:53:47,27/03/2024
html-keyboard-response,82,156845,0.0-35.0-3.0,,<div style='margin:auto;width: auto; font-size: 150%'><span style='font-weight: bold; font-size: 100px; color: red;'>0 points!</span><br><br></div>,,delaylearn,learning,feedback_image_window,OShMZSBECRYy9VNGpRij6UFmQi12,OShMZSBECRYy9VNGpRij6UFmQi12,,,,,,,,,,,,,,,,,,,,,,5a8a8de6000dab00018cc170,16:53:47,27/03/2024
html-keyboard-response,83,158861,0.0-36.0,,"<div style=""font-size:100px;"">+</div>",,delaylearn,learning,ITI,OShMZSBECRYy9VNGpRij6UFmQi12,OShMZSBECRYy9VNGpRij6UFmQi12,,,,,,,,,,,,,,,,,,,2002.0,,,5a8a8de6000dab00018cc170,16:53:47,27/03/2024
html-keyboard-response,84,160705,0.0-37.0-0.0,1843.9000000953674,"<div style=""display: flex; flex-direction: column; align-items: center; margin-top: -40px;""><img src=""images/pattern_5.png"" style=""width: 234px; height: 230px; margin-top: -50px;""><div style=""display: flex; justify-content: space-between; margin-top: 33px;""><img src=""images/choice_trial_5.png"" style=""width: 408px; height: 417px; margin-right: 200px;""><img src=""images/choice_trial_15.png"" style=""width: 408px; height: 417px;""></div></div>",f,delaylearn,learning,trial,OShMZSBECRYy9VNGpRij6UFmQi12,OShMZSBECRYy9VNGpRij6UFmQi12,4.0,images/choice_trial_5.png,images/choice_trial_15.png,images/pattern_5.png,f,f,750.0,5.0,15.0,4.0,0.0,16.0,1.0,1.0,5.0,110.0,,,,,,5a8a8de6000dab00018cc170,16:53:47,27/03/2024
html-keyboard-response,85,161708,0.0-37.0-1.0,,"<div style=""display: flex; flex-direction: column; align-items: center; margin-top: -40px;""><img src=""images/pattern_5.png"" style=""width: 234px; height: 230px; margin-top: -50px;""><div style=""display: flex; justify-content: space-between; margin-top: 33px;""><img src=""images/choice_trial_5.png"" style=""width: 408px; height: 417px; margin-right: 608px;""></div></div>",,delaylearn,learning,display_response,OShMZSBECRYy9VNGpRij6UFmQi12,OShMZSBECRYy9VNGpRij6UFmQi12,,,,,,,,,,,,,,,,,chosen stimuli: images/choice_trial_5.png,,,,,5a8a8de6000dab00018cc170,16:53:47,27/03/2024
html-keyboard-response,86,162460,0.0-37.0-2.0,,,,delaylearn,learning,feedback_duration_window,OShMZSBECRYy9VNGpRij6UFmQi12,OShMZSBECRYy9VNGpRij6UFmQi12,,,,,,,,,,,,,,,,,,750.0,,,,5a8a8de6000dab00018cc170,16:53:47,27/03/2024
html-keyboard-response,87,163964,0.0-37.0-3.0,,<div style='margin:auto;width: auto; font-size: 150%'><span style='font-weight: bold; font-size: 100px; color: green;'>+10 points!</span><br><br></div>,,delaylearn,learning,feedback_image_window,OShMZSBECRYy9VNGpRij6UFmQi12,OShMZSBECRYy9VNGpRij6UFmQi12,,,,,,,,,,,,,,,,,,,,,,5a8a8de6000dab00018cc170,16:53:47,27/03/2024
html-keyboard-response,88,164476,0.0-38.0-0.0,,,,,,mood_trial_fixation,OShMZSBECRYy9VNGpRij6UFmQi12,,,,,,,,,,,,,,,,,,,,,,,5a8a8de6000dab00018cc170,16:53:47,27/03/2024
lmdlab-html-vas-response,89,168243,0.0-38.0-1.0,2758.0,How happy are you right now?,0.35030864197530864,delaylearn,learning,mood_trial,OShMZSBECRYy9VNGpRij6UFmQi12,OShMZSBECRYy9VNGpRij6UFmQi12,,,,,,,,,,,,,,,,,,,,"['Very unhappy', 'Very happy']",,5a8a8de6000dab00018cc170,16:53:47,27/03/2024
html-keyboard-response,90,170221,0.0-39.0,,"<div style=""font-size:100px;"">+</div>",,delaylearn,learning,ITI,OShMZSBECRYy9VNGpRij6UFmQi12,OShMZSBECRYy9VNGpRij6UFmQi12,,,,,,,,,,,,,,,,,,,1974.0,,,5a8a8de6000dab00018cc170,16:53:47,27/03/2024
html-keyboard-response,91,171897,0.0-40.0-0.0,1675.5999999046326,"<div style=""display: flex; flex-direction: column; align-items: center; margin-top: -40px;""><img src=""images/pattern_6.png"" style=""width: 234px; height: 230px; margin-top: -50px;""><div style=""display: flex; justify-content: space-between; margin-top: 33px;""><img src=""images/choice_trial_10.png"" style=""width: 408px; height: 417px; margin-right: 200px;""><img src=""images/choice_trial_3.png"" style=""width: 408px; height: 417px;""></div></div>",f,delaylearn,learning,trial,OShMZSBECRYy9VNGpRij6UFmQi12,OShMZSBECRYy9VNGpRij6UFmQi12,4.0,images/choice_trial_10.png,images/choice_trial_3.png,images/pattern_6.png,f,f,750.0,10.0,3.0,5.0,0.0,17.0,1.0,1.0,10.0,120.0,,,,,,5a8a8de6000dab00018cc170,16:53:47,27/03/2024
html-keyboard-response,92,172909,0.0-40.0-1.0,,"<div style=""display: flex; flex-direction: column; align-items: center; margin-top: -40px;""><img src=""images/pattern_6.png"" style=""width: 234px; height: 230px; margin-top: -50px;""><div style=""display: flex; justify-content: space-between; margin-top: 33px;""><img src=""images/choice_trial_10.png"" style=""width: 408px; height: 417px; margin-right: 608px;""></div></div>",,delaylearn,learning,display_response,OShMZSBECRYy9VNGpRij6UFmQi12,OShMZSBECRYy9VNGpRij6UFmQi12,,,,,,,,,,,,,,,,,chosen stimuli: images/choice_trial_10.png,,,,,5a8a8de6000dab00018cc170,16:53:47,27/03/2024
html-keyboard-response,93,173660,0.0-40.0-2.0,,,,delaylearn,learning,feedback_duration_window,OShMZSBECRYy9VNGpRij6UFmQi12,OShMZSBECRYy9VNGpRij6UFmQi12,,,,,,,,,,,,,,,,,,750.0,,,,5a8a8de6000dab00018cc170,16:53:47,27/03/2024
html-keyboard-response,94,175164,0.0-40.0-3.0,,<div style='margin:auto;width: auto; font-size: 150%'><span style='font-weight: bold; font-size: 100px; color: green;'>+10 points!</span><br><br></div>,,delaylearn,learning,feedback_image_window,OShMZSBECRYy9VNGpRij6UFmQi12,OShMZSBECRYy9VNGpRij6UFmQi12,,,,,,,,,,,,,,,,,,,,,,5a8a8de6000dab00018cc170,16:53:47,27/03/2024
html-keyboard-response,95,177325,0.0-41.0,,"<div style=""font-size:100px;"">+</div>",,delaylearn,learning,ITI,OShMZSBECRYy9VNGpRij6UFmQi12,OShMZSBECRYy9VNGpRij6UFmQi12,,,,,,,,,,,,,,,,,,,2144.0,,,5a8a8de6000dab00018cc170,16:53:47,27/03/2024
html-keyboard-response,96,178970,0.0-42.0-0.0,1644.0999999046326,"<div style=""display: flex; flex-direction: column; align-items: center; margin-top: -40px;""><img src=""images/pattern_4.png"" style=""width: 234px; height: 230px; margin-top: -50px;""><div style=""display: flex; justify-content: space-between; margin-top: 33px;""><img src=""images/choice_trial_7.png"" style=""width: 408px; height: 417px; margin-right: 200px;""><img src=""images/choice_trial_8.png"" style=""width: 408px; height: 417px;""></div></div>",f,delaylearn,learning,trial,OShMZSBECRYy9VNGpRij6UFmQi12,OShMZSBECRYy9VNGpRij6UFmQi12,4.0,images/choice_trial_7.png,images/choice_trial_8.png,images/pattern_4.png,j,j,7000.0,7.0,8.0,3.0,1.0,18.0,0.0,0.0,7.0,120.0,,,,,,5a8a8de6000dab00018cc170,16:53:47,27/03/2024
html-keyboard-response,97,179981,0.0-42.0-1.0,,"<div style=""display: flex; flex-direction: column; align-items: center; margin-top: -40px;""><img src=""images/pattern_4.png"" style=""width: 234px; height: 230px; margin-top: -50px;""><div style=""display: flex; justify-content: space-between; margin-top: 33px;""><img src=""images/choice_trial_7.png"" style=""width: 408px; height: 417px; margin-right: 608px;""></div></div>",,delaylearn,learning,display_response,OShMZSBECRYy9VNGpRij6UFmQi12,OShMZSBECRYy9VNGpRij6UFmQi12,,,,,,,,,,,,,,,,,chosen stimuli: images/choice_trial_7.png,,,,,5a8a8de6000dab00018cc170,16:53:47,27/03/2024
html-keyboard-response,98,186989,0.0-42.0-2.0,,,,delaylearn,learning,feedback_duration_window,OShMZSBECRYy9VNGpRij6UFmQi12,OShMZSBECRYy9VNGpRij6UFmQi12,,,,,,,,,,,,,,,,,,7000.0,,,,5a8a8de6000dab00018cc170,16:53:47,27/03/2024
html-keyboard-response,99,188492,0.0-42.0-3.0,,<div style='margin:auto;width: auto; font-size: 150%'><span style='font-weight: bold; font-size: 100px; color: red;'>0 points!</span><br><br></div>,,delaylearn,learning,feedback_image_window,OShMZSBECRYy9VNGpRij6UFmQi12,OShMZSBECRYy9VNGpRij6UFmQi12,,,,,,,,,,,,,,,,,,,,,,5a8a8de6000dab00018cc170,16:53:47,27/03/2024
html-keyboard-response,100,190908,0.0-43.0,,"<div style=""font-size:100px;"">+</div>",,delaylearn,learning,ITI,OShMZSBECRYy9VNGpRij6UFmQi12,OShMZSBECRYy9VNGpRij6UFmQi12,,,,,,,,,,,,,,,,,,,2412.0,,,5a8a8de6000dab00018cc170,16:53:47,27/03/2024
html-keyboard-response,101,192370,0.0-44.0-0.0,1460.5999999046326,"<div style=""display: flex; flex-direction: column; align-items: center; margin-top: -40px;""><img src=""images/pattern_7.png"" style=""width: 234px; height: 230px; margin-top: -50px;""><div style=""display: flex; justify-content: space-between; margin-top: 33px;""><img src=""images/choice_trial_13.png"" style=""width: 408px; height: 417px; margin-right: 200px;""><img src=""images/choice_trial_4.png"" style=""width: 408px; height: 417px;""></div></div>",f,delaylearn,learning,trial,OShMZSBECRYy9VNGpRij6UFmQi12,OShMZSBECRYy9VNGpRij6UFmQi12,4.0,images/choice_trial_13.png,images/choice_trial_4.png,images/pattern_7.png,j,f,750.0,13.0,4.0,6.0,0.0,19.0,1.0,0.0,13.0,120.0,,,,,,5a8a8de6000dab00018cc170,16:53:47,27/03/2024
html-keyboard-response,102,193372,0.0-44.0-1.0,,"<div style=""display: flex; flex-direction: column; align-items: center; margin-top: -40px;""><img src=""images/pattern_7.png"" style=""width: 234px; height: 230px; margin-top: -50px;""><div style=""display: flex; justify-content: space-between; margin-top: 33px;""><img src=""images/choice_trial_13.png"" style=""width: 408px; height: 417px; margin-right: 608px;""></div></div>",,delaylearn,learning,display_response,OShMZSBECRYy9VNGpRij6UFmQi12,OShMZSBECRYy9VNGpRij6UFmQi12,,,,,,,,,,,,,,,,,chosen stimuli: images/choice_trial_13.png,,,,,5a8a8de6000dab00018cc170,16:53:47,27/03/2024
html-keyboard-response,103,194125,0.0-44.0-2.0,,,,delaylearn,learning,feedback_duration_window,OShMZSBECRYy9VNGpRij6UFmQi12,OShMZSBECRYy9VNGpRij6UFmQi12,,,,,,,,,,,,,,,,,,750.0,,,,5a8a8de6000dab00018cc170,16:53:47,27/03/2024
html-keyboard-response,104,195628,0.0-44.0-3.0,,<div style='margin:auto;width: auto; font-size: 150%'><span style='font-weight: bold; font-size: 100px; color: red;'>0 points!</span><br><br></div>,,delaylearn,learning,feedback_image_window,OShMZSBECRYy9VNGpRij6UFmQi12,OShMZSBECRYy9VNGpRij6UFmQi12,,,,,,,,,,,,,,,,,,,,,,5a8a8de6000dab00018cc170,16:53:47,27/03/2024
html-keyboard-response,105,197229,0.0-45.0,,"<div style=""font-size:100px;"">+</div>",,delaylearn,learning,ITI,OShMZSBECRYy9VNGpRij6UFmQi12,OShMZSBECRYy9VNGpRij6UFmQi12,,,,,,,,,,,,,,,,,,,1590.0,,,5a8a8de6000dab00018cc170,16:53:47,27/03/2024
html-keyboard-response,106,198897,0.0-46.0-0.0,1667.6999998092651,"<div style=""display: flex; flex-direction: column; align-items: center; margin-top: -40px;""><img src=""images/pattern_1.png"" style=""width: 234px; height: 230px; margin-top: -50px;""><div style=""display: flex; justify-content: space-between; margin-top: 33px;""><img src=""images/choice_trial_1.png"" style=""width: 408px; height: 417px; margin-right: 200px;""><img src=""images/choice_trial_9.png"" style=""width: 408px; height: 417px;""></div></div>",j,delaylearn,learning,trial,OShMZSBECRYy9VNGpRij6UFmQi12,OShMZSBECRYy9VNGpRij6UFmQi12,4.0,images/choice_trial_1.png,images/choice_trial_9.png,images/pattern_1.png,f,f,7000.0,1.0,9.0,1.0,0.0,20.0,0.0,0.0,9.0,120.0,,,,,,5a8a8de6000dab00018cc170,16:53:47,27/03/2024
html-keyboard-response,107,199901,0.0-46.0-1.0,,"<div style=""display: flex; flex-direction: column; align-items: center; margin-top: -40px;""><img src=""images/pattern_1.png"" style=""width: 234px; height: 230px; margin-top: -50px;""><div style=""display: flex; justify-content: space-between; margin-top: 33px;""><img src=""images/choice_trial_9.png"" style=""width: 408px; height: 417px; margin-left:608px;""></div></div>",,delaylearn,learning,display_response,OShMZSBECRYy9VNGpRij6UFmQi12,OShMZSBECRYy9VNGpRij6UFmQi12,,,,,,,,,,,,,,,,,chosen stimuli: images/choice_trial_9.png,,,,,5a8a8de6000dab00018cc170,16:53:47,27/03/2024
html-keyboard-response,108,206908,0.0-46.0-2.0,,,,delaylearn,learning,feedback_duration_window,OShMZSBECRYy9VNGpRij6UFmQi12,OShMZSBECRYy9VNGpRij6UFmQi12,,,,,,,,,,,,,,,,,,7000.0,,,,5a8a8de6000dab00018cc170,16:53:47,27/03/2024
html-keyboard-response,109,208413,0.0-46.0-3.0,,<div style='margin:auto;width: auto; font-size: 150%'><span style='font-weight: bold; font-size: 100px; color: red;'>0 points!</span><br><br></div>,,delaylearn,learning,feedback_image_window,OShMZSBECRYy9VNGpRij6UFmQi12,OShMZSBECRYy9VNGpRij6UFmQi12,,,,,,,,,,,,,,,,,,,,,,5a8a8de6000dab00018cc170,16:53:47,27/03/2024
html-keyboard-response,110,210476,0.0-47.0,,"<div style=""font-size:100px;"">+</div>",,delaylearn,learning,ITI,OShMZSBECRYy9VNGpRij6UFmQi12,OShMZSBECRYy9VNGpRij6UFmQi12,,,,,,,,,,,,,,,,,,,2049.0,,,5a8a8de6000dab00018cc170,16:53:47,27/03/2024
html-keyboard-response,111,211609,0.0-48.0-0.0,1132.5999999046326,"<div style=""display: flex; flex-direction: column; align-items: center; margin-top: -40px;""><img src=""images/pattern_6.png"" style=""width: 234px; height: 230px; margin-top: -50px;""><div style=""display: flex; justify-content: space-between; margin-top: 33px;""><img src=""images/choice_trial_3.png"" style=""width: 408px; height: 417px; margin-right: 200px;""><img src=""images/choice_trial_10.png"" style=""width: 408px; height: 417px;""></div></div>",j,delaylearn,learning,trial,OShMZSBECRYy9VNGpRij6UFmQi12,OShMZSBECRYy9VNGpRij6UFmQi12,4.0,images/choice_trial_3.png,images/choice_trial_10.png,images/pattern_6.png,j,j,750.0,3.0,10.0,5.0,1.0,21.0,1.0,1.0,10.0,130.0,,,,,,5a8a8de6000dab00018cc170,16:53:47,27/03/2024
html-keyboard-response,112,212620,0.0-48.0-1.0,,"<div style=""display: flex; flex-direction: column; align-items: center; margin-top: -40px;""><img src=""images/pattern_6.png"" style=""width: 234px; height: 230px; margin-top: -50px;""><div style=""display: flex; justify-content: space-between; margin-top: 33px;""><img src=""images/choice_trial_10.png"" style=""width: 408px; height: 417px; margin-left:608px;""></div></div>",,delaylearn,learning,display_response,OShMZSBECRYy9VNGpRij6UFmQi12,OShMZSBECRYy9VNGpRij6UFmQi12,,,,,,,,,,,,,,,,,chosen stimuli: images/choice_trial_10.png,,,,,5a8a8de6000dab00018cc170,16:53:47,27/03/2024
html-keyboard-response,113,213373,0.0-48.0-2.0,,,,delaylearn,learning,feedback_duration_window,OShMZSBECRYy9VNGpRij6UFmQi12,OShMZSBECRYy9VNGpRij6UFmQi12,,,,,,,,,,,,,,,,,,750.0,,,,5a8a8de6000dab00018cc170,16:53:47,27/03/2024
html-keyboard-response,114,214876,0.0-48.0-3.0,,<div style='margin:auto;width: auto; font-size: 150%'><span style='font-weight: bold; font-size: 100px; color: green;'>+10 points!</span><br><br></div>,,delaylearn,learning,feedback_image_window,OShMZSBECRYy9VNGpRij6UFmQi12,OShMZSBECRYy9VNGpRij6UFmQi12,,,,,,,,,,,,,,,,,,,,,,5a8a8de6000dab00018cc170,16:53:47,27/03/2024
html-keyboard-response,115,217068,0.0-49.0,,"<div style=""font-size:100px;"">+</div>",,delaylearn,learning,ITI,OShMZSBECRYy9VNGpRij6UFmQi12,OShMZSBECRYy9VNGpRij6UFmQi12,,,,,,,,,,,,,,,,,,,2186.0,,,5a8a8de6000dab00018cc170,16:53:47,27/03/2024
html-keyboard-response,116,218545,0.0-50.0-0.0,1476.2000002861023,"<div style=""display: flex; flex-direction: column; align-items: center; margin-top: -40px;""><img src=""images/pattern_4.png"" style=""width: 234px; height: 230px; margin-top: -50px;""><div style=""display: flex; justify-content: space-between; margin-top: 33px;""><img src=""images/choice_trial_8.png"" style=""width: 408px; height: 417px; margin-right: 200px;""><img src=""images/choice_trial_7.png"" style=""width: 408px; height: 417px;""></div></div>",f,delaylearn,learning,trial,OShMZSBECRYy9VNGpRij6UFmQi12,OShMZSBECRYy9VNGpRij6UFmQi12,4.0,images/choice_trial_8.png,images/choice_trial_7.png,images/pattern_4.png,f,f,7000.0,8.0,7.0,3.0,0.0,22.0,1.0,1.0,8.0,140.0,,,,,,5a8a8de6000dab00018cc170,16:53:47,27/03/2024
html-keyboard-response,117,219549,0.0-50.0-1.0,,"<div style=""display: flex; flex-direction: column; align-items: center; margin-top: -40px;""><img src=""images/pattern_4.png"" style=""width: 234px; height: 230px; margin-top: -50px;""><div style=""display: flex; justify-content: space-between; margin-top: 33px;""><img src=""images/choice_trial_8.png"" style=""width: 408px; height: 417px; margin-right: 608px;""></div></div>",,delaylearn,learning,display_response,OShMZSBECRYy9VNGpRij6UFmQi12,OShMZSBECRYy9VNGpRij6UFmQi12,,,,,,,,,,,,,,,,,chosen stimuli: images/choice_trial_8.png,,,,,5a8a8de6000dab00018cc170,16:53:47,27/03/2024
html-keyboard-response,118,226556,0.0-50.0-2.0,,,,delaylearn,learning,feedback_duration_window,OShMZSBECRYy9VNGpRij6UFmQi12,OShMZSBECRYy9VNGpRij6UFmQi12,,,,,,,,,,,,,,,,,,7000.0,,,,5a8a8de6000dab00018cc170,16:53:47,27/03/2024
html-keyboard-response,119,228060,0.0-50.0-3.0,,<div style='margin:auto;width: auto; font-size: 150%'><span style='font-weight: bold; font-size: 100px; color: green;'>+10 points!</span><br><br></div>,,delaylearn,learning,feedback_image_window,OShMZSBECRYy9VNGpRij6UFmQi12,OShMZSBECRYy9VNGpRij6UFmQi12,,,,,,,,,,,,,,,,,,,,,,5a8a8de6000dab00018cc170,16:53:47,27/03/2024
html-keyboard-response,120,228572,0.0-51.0-0.0,,,,,,mood_trial_fixation,OShMZSBECRYy9VNGpRij6UFmQi12,,,,,,,,,,,,,,,,,,,,,,,5a8a8de6000dab00018cc170,16:53:47,27/03/2024
lmdlab-html-vas-response,121,232507,0.0-51.0-1.0,2926.0,How happy are you right now?,0.3904320987654321,delaylearn,learning,mood_trial,OShMZSBECRYy9VNGpRij6UFmQi12,OShMZSBECRYy9VNGpRij6UFmQi12,,,,,,,,,,,,,,,,,,,,"['Very unhappy', 'Very happy']",,5a8a8de6000dab00018cc170,16:53:47,27/03/2024
html-keyboard-response,122,234637,0.0-52.0,,"<div style=""font-size:100px;"">+</div>",,delaylearn,learning,ITI,OShMZSBECRYy9VNGpRij6UFmQi12,OShMZSBECRYy9VNGpRij6UFmQi12,,,,,,,,,,,,,,,,,,,2115.0,,,5a8a8de6000dab00018cc170,16:53:47,27/03/2024
html-keyboard-response,123,235777,0.0-53.0-0.0,1139.5,"<div style=""display: flex; flex-direction: column; align-items: center; margin-top: -40px;""><img src=""images/pattern_7.png"" style=""width: 234px; height: 230px; margin-top: -50px;""><div style=""display: flex; justify-content: space-between; margin-top: 33px;""><img src=""images/choice_trial_4.png"" style=""width: 408px; height: 417px; margin-right: 200px;""><img src=""images/choice_trial_13.png"" style=""width: 408px; height: 417px;""></div></div>",f,delaylearn,learning,trial,OShMZSBECRYy9VNGpRij6UFmQi12,OShMZSBECRYy9VNGpRij6UFmQi12,4.0,images/choice_trial_4.png,images/choice_trial_13.png,images/pattern_7.png,j,j,750.0,4.0,13.0,6.0,1.0,23.0,0.0,0.0,4.0,140.0,,,,,,5a8a8de6000dab00018cc170,16:53:47,27/03/2024
html-keyboard-response,124,236780,0.0-53.0-1.0,,"<div style=""display: flex; flex-direction: column; align-items: center; margin-top: -40px;""><img src=""images/pattern_7.png"" style=""width: 234px; height: 230px; margin-top: -50px;""><div style=""display: flex; justify-content: space-between; margin-top: 33px;""><img src=""images/choice_trial_4.png"" style=""width: 408px; height: 417px; margin-right: 608px;""></div></div>",,delaylearn,learning,display_response,OShMZSBECRYy9VNGpRij6UFmQi12,OShMZSBECRYy9VNGpRij6UFmQi12,,,,,,,,,,,,,,,,,chosen stimuli: images/choice_trial_4.png,,,,,5a8a8de6000dab00018cc170,16:53:47,27/03/2024
html-keyboard-response,125,237532,0.0-53.0-2.0,,,,delaylearn,learning,feedback_duration_window,OShMZSBECRYy9VNGpRij6UFmQi12,OShMZSBECRYy9VNGpRij6UFmQi12,,,,,,,,,,,,,,,,,,750.0,,,,5a8a8de6000dab00018cc170,16:53:47,27/03/2024
html-keyboard-response,126,239037,0.0-53.0-3.0,,<div style='margin:auto;width: auto; font-size: 150%'><span style='font-weight: bold; font-size: 100px; color: red;'>0 points!</span><br><br></div>,,delaylearn,learning,feedback_image_window,OShMZSBECRYy9VNGpRij6UFmQi12,OShMZSBECRYy9VNGpRij6UFmQi12,,,,,,,,,,,,,,,,,,,,,,5a8a8de6000dab00018cc170,16:53:47,27/03/2024
html-keyboard-response,127,240877,0.0-54.0,,"<div style=""font-size:100px;"">+</div>",,delaylearn,learning,ITI,OShMZSBECRYy9VNGpRij6UFmQi12,OShMZSBECRYy9VNGpRij6UFmQi12,,,,,,,,,,,,,,,,,,,1837.0,,,5a8a8de6000dab00018cc170,16:53:47,27/03/2024
html-keyboard-response,128,242538,0.0-55.0-0.0,1660.1999998092651,"<div style=""display: flex; flex-direction: column; align-items: center; margin-top: -40px;""><img src=""images/pattern_1.png"" style=""width: 234px; height: 230px; margin-top: -50px;""><div style=""display: flex; justify-content: space-between; margin-top: 33px;""><img src=""images/choice_trial_9.png"" style=""width: 408px; height: 417px; margin-right: 200px;""><img src=""images/choice_trial_1.png"" style=""width: 408px; height: 417px;""></div></div>",j,delaylearn,learning,trial,OShMZSBECRYy9VNGpRij6UFmQi12,OShMZSBECRYy9VNGpRij6UFmQi12,4.0,images/choice_trial_9.png,images/choice_trial_1.png,images/pattern_1.png,f,j,7000.0,9.0,1.0,1.0,1.0,24.0,1.0,0.0,1.0,140.0,,,,,,5a8a8de6000dab00018cc170,16:53:47,27/03/2024
html-keyboard-response,129,243549,0.0-55.0-1.0,,"<div style=""display: flex; flex-direction: column; align-items: center; margin-top: -40px;""><img src=""images/pattern_1.png"" style=""width: 234px; height: 230px; margin-top: -50px;""><div style=""display: flex; justify-content: space-between; margin-top: 33px;""><img src=""images/choice_trial_1.png"" style=""width: 408px; height: 417px; margin-left:608px;""></div></div>",,delaylearn,learning,display_response,OShMZSBECRYy9VNGpRij6UFmQi12,OShMZSBECRYy9VNGpRij6UFmQi12,,,,,,,,,,,,,,,,,chosen stimuli: images/choice_trial_1.png,,,,,5a8a8de6000dab00018cc170,16:53:47,27/03/2024
html-keyboard-response,130,250557,0.0-55.0-2.0,,,,delaylearn,learning,feedback_duration_window,OShMZSBECRYy9VNGpRij6UFmQi12,OShMZSBECRYy9VNGpRij6UFmQi12,,,,,,,,,,,,,,,,,,7000.0,,,,5a8a8de6000dab00018cc170,16:53:47,27/03/2024
html-keyboard-response,131,252061,0.0-55.0-3.0,,<div style='margin:auto;width: auto; font-size: 150%'><span style='font-weight: bold; font-size: 100px; color: red;'>0 points!</span><br><br></div>,,delaylearn,learning,feedback_image_window,OShMZSBECRYy9VNGpRij6UFmQi12,OShMZSBECRYy9VNGpRij6UFmQi12,,,,,,,,,,,,,,,,,,,,,,5a8a8de6000dab00018cc170,16:53:47,27/03/2024
html-keyboard-response,132,254237,0.0-56.0,,"<div style=""font-size:100px;"">+</div>",,delaylearn,learning,ITI,OShMZSBECRYy9VNGpRij6UFmQi12,OShMZSBECRYy9VNGpRij6UFmQi12,,,,,,,,,,,,,,,,,,,2161.0,,,5a8a8de6000dab00018cc170,16:53:47,27/03/2024
html-keyboard-response,133,256314,0.0-57.0-0.0,2075.9000000953674,"<div style=""display: flex; flex-direction: column; align-items: center; margin-top: -40px;""><img src=""images/pattern_5.png"" style=""width: 234px; height: 230px; margin-top: -50px;""><div style=""display: flex; justify-content: space-between; margin-top: 33px;""><img src=""images/choice_trial_15.png"" style=""width: 408px; height: 417px; margin-right: 200px;""><img src=""images/choice_trial_5.png"" style=""width: 408px; height: 417px;""></div></div>",f,delaylearn,learning,trial,OShMZSBECRYy9VNGpRij6UFmQi12,OShMZSBECRYy9VNGpRij6UFmQi12,4.0,images/choice_trial_15.png,images/choice_trial_5.png,images/pattern_5.png,j,j,750.0,15.0,5.0,4.0,1.0,25.0,0.0,0.0,15.0,140.0,,,,,,5a8a8de6000dab00018cc170,16:53:47,27/03/2024
html-keyboard-response,134,257325,0.0-57.0-1.0,,"<div style=""display: flex; flex-direction: column; align-items: center; margin-top: -40px;""><img src=""images/pattern_5.png"" style=""width: 234px; height: 230px; margin-top: -50px;""><div style=""display: flex; justify-content: space-between; margin-top: 33px;""><img src=""images/choice_trial_15.png"" style=""width: 408px; height: 417px; margin-right: 608px;""></div></div>",,delaylearn,learning,display_response,OShMZSBECRYy9VNGpRij6UFmQi12,OShMZSBECRYy9VNGpRij6UFmQi12,,,,,,,,,,,,,,,,,chosen stimuli: images/choice_trial_15.png,,,,,5a8a8de6000dab00018cc170,16:53:47,27/03/2024
html-keyboard-response,135,258077,0.0-57.0-2.0,,,,delaylearn,learning,feedback_duration_window,OShMZSBECRYy9VNGpRij6UFmQi12,OShMZSBECRYy9VNGpRij6UFmQi12,,,,,,,,,,,,,,,,,,750.0,,,,5a8a8de6000dab00018cc170,16:53:47,27/03/2024
html-keyboard-response,136,259581,0.0-57.0-3.0,,<div style='margin:auto;width: auto; font-size: 150%'><span style='font-weight: bold; font-size: 100px; color: red;'>0 points!</span><br><br></div>,,delaylearn,learning,feedback_image_window,OShMZSBECRYy9VNGpRij6UFmQi12,OShMZSBECRYy9VNGpRij6UFmQi12,,,,,,,,,,,,,,,,,,,,,,5a8a8de6000dab00018cc170,16:53:47,27/03/2024
html-keyboard-response,137,261420,0.0-58.0,,"<div style=""font-size:100px;"">+</div>",,delaylearn,learning,ITI,OShMZSBECRYy9VNGpRij6UFmQi12,OShMZSBECRYy9VNGpRij6UFmQi12,,,,,,,,,,,,,,,,,,,1839.0,,,5a8a8de6000dab00018cc170,16:53:47,27/03/2024
html-keyboard-response,138,262937,0.0-59.0-0.0,1516.0999999046326,"<div style=""display: flex; flex-direction: column; align-items: center; margin-top: -40px;""><img src=""images/pattern_3.png"" style=""width: 234px; height: 230px; margin-top: -50px;""><div style=""display: flex; justify-content: space-between; margin-top: 33px;""><img src=""images/choice_trial_6.png"" style=""width: 408px; height: 417px; margin-right: 200px;""><img src=""images/choice_trial_16.png"" style=""width: 408px; height: 417px;""></div></div>",f,delaylearn,learning,trial,OShMZSBECRYy9VNGpRij6UFmQi12,OShMZSBECRYy9VNGpRij6UFmQi12,4.0,images/choice_trial_6.png,images/choice_trial_16.png,images/pattern_3.png,j,j,7000.0,6.0,16.0,2.0,1.0,26.0,0.0,0.0,6.0,140.0,,,,,,5a8a8de6000dab00018cc170,16:53:47,27/03/2024
html-keyboard-response,139,263948,0.0-59.0-1.0,,"<div style=""display: flex; flex-direction: column; align-items: center; margin-top: -40px;""><img src=""images/pattern_3.png"" style=""width: 234px; height: 230px; margin-top: -50px;""><div style=""display: flex; justify-content: space-between; margin-top: 33px;""><img src=""images/choice_trial_6.png"" style=""width: 408px; height: 417px; margin-right: 608px;""></div></div>",,delaylearn,learning,display_response,OShMZSBECRYy9VNGpRij6UFmQi12,OShMZSBECRYy9VNGpRij6UFmQi12,,,,,,,,,,,,,,,,,chosen stimuli: images/choice_trial_6.png,,,,,5a8a8de6000dab00018cc170,16:53:47,27/03/2024
html-keyboard-response,140,270957,0.0-59.0-2.0,,,,delaylearn,learning,feedback_duration_window,OShMZSBECRYy9VNGpRij6UFmQi12,OShMZSBECRYy9VNGpRij6UFmQi12,,,,,,,,,,,,,,,,,,7000.0,,,,5a8a8de6000dab00018cc170,16:53:47,27/03/2024
html-keyboard-response,141,272461,0.0-59.0-3.0,,<div style='margin:auto;width: auto; font-size: 150%'><span style='font-weight: bold; font-size: 100px; color: red;'>0 points!</span><br><br></div>,,delaylearn,learning,feedback_image_window,OShMZSBECRYy9VNGpRij6UFmQi12,OShMZSBECRYy9VNGpRij6UFmQi12,,,,,,,,,,,,,,,,,,,,,,5a8a8de6000dab00018cc170,16:53:47,27/03/2024
lmdlab-html-vas-response,142,277261,0.0-60.0-0.0,3283.0,*How <b><u>confident</u></b> are you feeling about your answers at this moment?*,0.15123456790123457,rewlearn,rate_confidence,,OShMZSBECRYy9VNGpRij6UFmQi12,OShMZSBECRYy9VNGpRij6UFmQi12,,,,,,,,,,,,,,,,,,,,"['No confidence', 'Complete confidence']",,5a8a8de6000dab00018cc170,16:53:47,27/03/2024
lmdlab-rest-trial-limit,143,284717,0.0-60.0-1.0,5941.400000095367,"<div style=""font-size:40px;""><b>Please take a break!</b><br><br><br><br><p>Great work: you earned 140 points.<br><br><br><p>You have completed part(s) 1 of 5.<br><br><br><br>When you are ready to continue<br><br><br>please click the button.</p><br><br>",0,delaylearn,learning,break,OShMZSBECRYy9VNGpRij6UFmQi12,OShMZSBECRYy9VNGpRij6UFmQi12,,,,,,,,,,,,,,,,,,,,,0.0,5a8a8de6000dab00018cc170,16:53:47,27/03/2024
html-keyboard-response,144,287725,0.0-60.0-2.0,,"<div style=""font-size:100px;"">+</div>",,delaylearn,learning,pre_fixation,OShMZSBECRYy9VNGpRij6UFmQi12,,,,,,,,,,,,,,,,,,,,,,,5a8a8de6000dab00018cc170,16:53:47,27/03/2024
lmdlab-html-vas-response,145,291683,0.0-60.0-3.0-0.0,2950.0,How happy are you right now?,0.3472222222222222,delaylearn,learning,mood_baseline,OShMZSBECRYy9VNGpRij6UFmQi12,OShMZSBECRYy9VNGpRij6UFmQi12,,,,,,,,,,,,,,,,,,,,"['Very unhappy', 'Very happy']",,5a8a8de6000dab00018cc170,16:53:47,27/03/2024
html-keyboard-response,146,293197,0.0-60.0-3.0-1.0,,,,,,mood_baseline_fixation,OShMZSBECRYy9VNGpRij6UFmQi12,,,,,,,,,,,,,,,,,,,,,,,5a8a8de6000dab00018cc170,16:53:47,27/03/2024
html-keyboard-response,147,295245,0.0-61.0,,"<div style=""font-size:100px;"">+</div>",,delaylearn,learning,ITI,OShMZSBECRYy9VNGpRij6UFmQi12,OShMZSBECRYy9VNGpRij6UFmQi12,,,,,,,,,,,,,,,,,,,2044.0,,,5a8a8de6000dab00018cc170,16:53:47,27/03/2024
html-keyboard-response,148,296114,0.0-62.0-0.0,868.1999998092651,"<div style=""display: flex; flex-direction: column; align-items: center; margin-top: -40px;""><img src=""images/pattern_7.png"" style=""width: 234px; height: 230px; margin-top: -50px;""><div style=""display: flex; justify-content: space-between; margin-top: 33px;""><img src=""images/choice_trial_4.png"" style=""width: 408px; height: 417px; margin-right: 200px;""><img src=""images/choice_trial_13.png"" style=""width: 408px; height: 417px;""></div></div>",f,delaylearn,learning,trial,OShMZSBECRYy9VNGpRij6UFmQi12,OShMZSBECRYy9VNGpRij6UFmQi12,4.0,images/choice_trial_4.png,images/choice_trial_13.png,images/pattern_7.png,j,j,750.0,4.0,13.0,6.0,1.0,27.0,0.0,0.0,4.0,140.0,,,,,,5a8a8de6000dab00018cc170,16:53:47,27/03/2024
html-keyboard-response,149,297117,0.0-62.0-1.0,,"<div style=""display: flex; flex-direction: column; align-items: center; margin-top: -40px;""><img src=""images/pattern_7.png"" style=""width: 234px; height: 230px; margin-top: -50px;""><div style=""display: flex; justify-content: space-between; margin-top: 33px;""><img src=""images/choice_trial_4.png"" style=""width: 408px; height: 417px; margin-right: 608px;""></div></div>",,delaylearn,learning,display_response,OShMZSBECRYy9VNGpRij6UFmQi12,OShMZSBECRYy9VNGpRij6UFmQi12,,,,,,,,,,,,,,,,,chosen stimuli: images/choice_trial_4.png,,,,,5a8a8de6000dab00018cc170,16:53:47,27/03/2024
html-keyboard-response,150,297869,0.0-62.0-2.0,,,,delaylearn,learning,feedback_duration_window,OShMZSBECRYy9VNGpRij6UFmQi12,OShMZSBECRYy9VNGpRij6UFmQi12,,,,,,,,,,,,,,,,,,750.0,,,,5a8a8de6000dab00018cc170,16:53:47,27/03/2024
html-keyboard-response,151,299373,0.0-62.0-3.0,,<div style='margin:auto;width: auto; font-size: 150%'><span style='font-weight: bold; font-size: 100px; color: red;'>0 points!</span><br><br></div>,,delaylearn,learning,feedback_image_window,OShMZSBECRYy9VNGpRij6UFmQi12,OShMZSBECRYy9VNGpRij6UFmQi12,,,,,,,,,,,,,,,,,,,,,,5a8a8de6000dab00018cc170,16:53:47,27/03/2024
html-keyboard-response,152,299885,0.0-63.0-0.0,,,,,,mood_trial_fixation,OShMZSBECRYy9VNGpRij6UFmQi12,,,,,,,,,,,,,,,,,,,,,,,5a8a8de6000dab00018cc170,16:53:47,27/03/2024
lmdlab-html-vas-response,153,303379,0.0-63.0-1.0,2486.0,How happy are you right now?,0.25,delaylearn,learning,mood_trial,OShMZSBECRYy9VNGpRij6UFmQi12,OShMZSBECRYy9VNGpRij6UFmQi12,,,,,,,,,,,,,,,,,,,,"['Very unhappy', 'Very happy']",,5a8a8de6000dab00018cc170,16:53:47,27/03/2024
html-keyboard-response,154,305853,0.0-64.0,,"<div style=""font-size:100px;"">+</div>",,delaylearn,learning,ITI,OShMZSBECRYy9VNGpRij6UFmQi12,OShMZSBECRYy9VNGpRij6UFmQi12,,,,,,,,,,,,,,,,,,,2473.0,,,5a8a8de6000dab00018cc170,16:53:47,27/03/2024
html-keyboard-response,155,308410,0.0-65.0-0.0,2555.800000190735,"<div style=""display: flex; flex-direction: column; align-items: center; margin-top: -40px;""><img src=""images/pattern_1.png"" style=""width: 234px; height: 230px; margin-top: -50px;""><div style=""display: flex; justify-content: space-between; margin-top: 33px;""><img src=""images/choice_trial_1.png"" style=""width: 408px; height: 417px; margin-right: 200px;""><img src=""images/choice_trial_9.png"" style=""width: 408px; height: 417px;""></div></div>",f,delaylearn,learning,trial,OShMZSBECRYy9VNGpRij6UFmQi12,OShMZSBECRYy9VNGpRij6UFmQi12,4.0,images/choice_trial_1.png,images/choice_trial_9.png,images/pattern_1.png,f,f,7000.0,1.0,9.0,1.0,0.0,28.0,1.0,1.0,1.0,150.0,,,,,,5a8a8de6000dab00018cc170,16:53:47,27/03/2024
html-keyboard-response,156,309421,0.0-65.0-1.0,,"<div style=""display: flex; flex-direction: column; align-items: center; margin-top: -40px;""><img src=""images/pattern_1.png"" style=""width: 234px; height: 230px; margin-top: -50px;""><div style=""display: flex; justify-content: space-between; margin-top: 33px;""><img src=""images/choice_trial_1.png"" style=""width: 408px; height: 417px; margin-right: 608px;""></div></div>",,delaylearn,learning,display_response,OShMZSBECRYy9VNGpRij6UFmQi12,OShMZSBECRYy9VNGpRij6UFmQi12,,,,,,,,,,,,,,,,,chosen stimuli: images/choice_trial_1.png,,,,,5a8a8de6000dab00018cc170,16:53:47,27/03/2024
html-keyboard-response,157,316428,0.0-65.0-2.0,,,,delaylearn,learning,feedback_duration_window,OShMZSBECRYy9VNGpRij6UFmQi12,OShMZSBECRYy9VNGpRij6UFmQi12,,,,,,,,,,,,,,,,,,7000.0,,,,5a8a8de6000dab00018cc170,16:53:47,27/03/2024
html-keyboard-response,158,317933,0.0-65.0-3.0,,<div style='margin:auto;width: auto; font-size: 150%'><span style='font-weight: bold; font-size: 100px; color: green;'>+10 points!</span><br><br></div>,,delaylearn,learning,feedback_image_window,OShMZSBECRYy9VNGpRij6UFmQi12,OShMZSBECRYy9VNGpRij6UFmQi12,,,,,,,,,,,,,,,,,,,,,,5a8a8de6000dab00018cc170,16:53:47,27/03/2024
html-keyboard-response,159,320333,0.0-66.0,,"<div style=""font-size:100px;"">+</div>",,delaylearn,learning,ITI,OShMZSBECRYy9VNGpRij6UFmQi12,OShMZSBECRYy9VNGpRij6UFmQi12,,,,,,,,,,,,,,,,,,,2393.0,,,5a8a8de6000dab00018cc170,16:53:47,27/03/2024
html-keyboard-response,160,321450,0.0-67.0-0.0,1116.0,"<div style=""display: flex; flex-direction: column; align-items: center; margin-top: -40px;""><img src=""images/pattern_5.png"" style=""width: 234px; height: 230px; margin-top: -50px;""><div style=""display: flex; justify-content: space-between; margin-top: 33px;""><img src=""images/choice_trial_5.png"" style=""width: 408px; height: 417px; margin-right: 200px;""><img src=""images/choice_trial_15.png"" style=""width: 408px; height: 417px;""></div></div>",j,delaylearn,learning,trial,OShMZSBECRYy9VNGpRij6UFmQi12,OShMZSBECRYy9VNGpRij6UFmQi12,4.0,images/choice_trial_5.png,images/choice_trial_15.png,images/pattern_5.png,f,f,750.0,5.0,15.0,4.0,0.0,29.0,0.0,0.0,15.0,150.0,,,,,,5a8a8de6000dab00018cc170,16:53:47,27/03/2024
html-keyboard-response,161,322461,0.0-67.0-1.0,,"<div style=""display: flex; flex-direction: column; align-items: center; margin-top: -40px;""><img src=""images/pattern_5.png"" style=""width: 234px; height: 230px; margin-top: -50px;""><div style=""display: flex; justify-content: space-between; margin-top: 33px;""><img src=""images/choice_trial_15.png"" style=""width: 408px; height: 417px; margin-left:608px;""></div></div>",,delaylearn,learning,display_response,OShMZSBECRYy9VNGpRij6UFmQi12,OShMZSBECRYy9VNGpRij6UFmQi12,,,,,,,,,,,,,,,,,chosen stimuli: images/choice_trial_15.png,,,,,5a8a8de6000dab00018cc170,16:53:47,27/03/2024
html-keyboard-response,162,323213,0.0-67.0-2.0,,,,delaylearn,learning,feedback_duration_window,OShMZSBECRYy9VNGpRij6UFmQi12,OShMZSBECRYy9VNGpRij6UFmQi12,,,,,,,,,,,,,,,,,,750.0,,,,5a8a8de6000dab00018cc170,16:53:47,27/03/2024
html-keyboard-response,163,324717,0.0-67.0-3.0,,<div style='margin:auto;width: auto; font-size: 150%'><span style='font-weight: bold; font-size: 100px; color: red;'>0 points!</span><br><br></div>,,delaylearn,learning,feedback_image_window,OShMZSBECRYy9VNGpRij6UFmQi12,OShMZSBECRYy9VNGpRij6UFmQi12,,,,,,,,,,,,,,,,,,,,,,5a8a8de6000dab00018cc170,16:53:47,27/03/2024
html-keyboard-response,164,326541,0.0-68.0,,"<div style=""font-size:100px;"">+</div>",,delaylearn,learning,ITI,OShMZSBECRYy9VNGpRij6UFmQi12,OShMZSBECRYy9VNGpRij6UFmQi12,,,,,,,,,,,,,,,,,,,1814.0,,,5a8a8de6000dab00018cc170,16:53:47,27/03/2024
html-keyboard-response,165,327450,0.0-69.0-0.0,907.9000000953674,"<div style=""display: flex; flex-direction: column; align-items: center; margin-top: -40px;""><img src=""images/pattern_6.png"" style=""width: 234px; height: 230px; margin-top: -50px;""><div style=""display: flex; justify-content: space-between; margin-top: 33px;""><img src=""images/choice_trial_3.png"" style=""width: 408px; height: 417px; margin-right: 200px;""><img src=""images/choice_trial_10.png"" style=""width: 408px; height: 417px;""></div></div>",j,delaylearn,learning,trial,OShMZSBECRYy9VNGpRij6UFmQi12,OShMZSBECRYy9VNGpRij6UFmQi12,4.0,images/choice_trial_3.png,images/choice_trial_10.png,images/pattern_6.png,j,j,750.0,3.0,10.0,5.0,1.0,30.0,1.0,1.0,10.0,160.0,,,,,,5a8a8de6000dab00018cc170,16:53:47,27/03/2024
html-keyboard-response,166,328461,0.0-69.0-1.0,,"<div style=""display: flex; flex-direction: column; align-items: center; margin-top: -40px;""><img src=""images/pattern_6.png"" style=""width: 234px; height: 230px; margin-top: -50px;""><div style=""display: flex; justify-content: space-between; margin-top: 33px;""><img src=""images/choice_trial_10.png"" style=""width: 408px; height: 417px; margin-left:608px;""></div></div>",,delaylearn,learning,display_response,OShMZSBECRYy9VNGpRij6UFmQi12,OShMZSBECRYy9VNGpRij6UFmQi12,,,,,,,,,,,,,,,,,chosen stimuli: images/choice_trial_10.png,,,,,5a8a8de6000dab00018cc170,16:53:47,27/03/2024
html-keyboard-response,167,329213,0.0-69.0-2.0,,,,delaylearn,learning,feedback_duration_window,OShMZSBECRYy9VNGpRij6UFmQi12,OShMZSBECRYy9VNGpRij6UFmQi12,,,,,,,,,,,,,,,,,,750.0,,,,5a8a8de6000dab00018cc170,16:53:47,27/03/2024
html-keyboard-response,168,330717,0.0-69.0-3.0,,<div style='margin:auto;width: auto; font-size: 150%'><span style='font-weight: bold; font-size: 100px; color: green;'>+10 points!</span><br><br></div>,,delaylearn,learning,feedback_image_window,OShMZSBECRYy9VNGpRij6UFmQi12,OShMZSBECRYy9VNGpRij6UFmQi12,,,,,,,,,,,,,,,,,,,,,,5a8a8de6000dab00018cc170,16:53:47,27/03/2024
html-keyboard-response,169,331229,0.0-70.0-0.0,,,,,,mood_trial_fixation,OShMZSBECRYy9VNGpRij6UFmQi12,,,,,,,,,,,,,,,,,,,,,,,5a8a8de6000dab00018cc170,16:53:47,27/03/2024
lmdlab-html-vas-response,170,335107,0.0-70.0-1.0,2870.0,How happy are you right now?,0.37808641975308643,delaylearn,learning,mood_trial,OShMZSBECRYy9VNGpRij6UFmQi12,OShMZSBECRYy9VNGpRij6UFmQi12,,,,,,,,,,,,,,,,,,,,"['Very unhappy', 'Very happy']",,5a8a8de6000dab00018cc170,16:53:47,27/03/2024
html-keyboard-response,171,337229,0.0-71.0,,"<div style=""font-size:100px;"">+</div>",,delaylearn,learning,ITI,OShMZSBECRYy9VNGpRij6UFmQi12,OShMZSBECRYy9VNGpRij6UFmQi12,,,,,,,,,,,,,,,,,,,2108.0,,,5a8a8de6000dab00018cc170,16:53:47,27/03/2024
html-keyboard-response,172,338305,0.0-72.0-0.0,1075.8000001907349,"<div style=""display: flex; flex-direction: column; align-items: center; margin-top: -40px;""><img src=""images/pattern_4.png"" style=""width: 234px; height: 230px; margin-top: -50px;""><div style=""display: flex; justify-content: space-between; margin-top: 33px;""><img src=""images/choice_trial_7.png"" style=""width: 408px; height: 417px; margin-right: 200px;""><img src=""images/choice_trial_8.png"" style=""width: 408px; height: 417px;""></div></div>",j,delaylearn,learning,trial,OShMZSBECRYy9VNGpRij6UFmQi12,OShMZSBECRYy9VNGpRij6UFmQi12,4.0,images/choice_trial_7.png,images/choice_trial_8.png,images/pattern_4.png,j,j,7000.0,7.0,8.0,3.0,1.0,31.0,1.0,1.0,8.0,170.0,,,,,,5a8a8de6000dab00018cc170,16:53:47,27/03/2024
html-keyboard-response,173,339309,0.0-72.0-1.0,,"<div style=""display: flex; flex-direction: column; align-items: center; margin-top: -40px;""><img src=""images/pattern_4.png"" style=""width: 234px; height: 230px; margin-top: -50px;""><div style=""display: flex; justify-content: space-between; margin-top: 33px;""><img src=""images/choice_trial_8.png"" style=""width: 408px; height: 417px; margin-left:608px;""></div></div>",,delaylearn,learning,display_response,OShMZSBECRYy9VNGpRij6UFmQi12,OShMZSBECRYy9VNGpRij6UFmQi12,,,,,,,,,,,,,,,,,chosen stimuli: images/choice_trial_8.png,,,,,5a8a8de6000dab00018cc170,16:53:47,27/03/2024
html-keyboard-response,174,346317,0.0-72.0-2.0,,,,delaylearn,learning,feedback_duration_window,OShMZSBECRYy9VNGpRij6UFmQi12,OShMZSBECRYy9VNGpRij6UFmQi12,,,,,,,,,,,,,,,,,,7000.0,,,,5a8a8de6000dab00018cc170,16:53:47,27/03/2024
html-keyboard-response,175,347821,0.0-72.0-3.0,,<div style='margin:auto;width: auto; font-size: 150%'><span style='font-weight: bold; font-size: 100px; color: green;'>+10 points!</span><br><br></div>,,delaylearn,learning,feedback_image_window,OShMZSBECRYy9VNGpRij6UFmQi12,OShMZSBECRYy9VNGpRij6UFmQi12,,,,,,,,,,,,,,,,,,,,,,5a8a8de6000dab00018cc170,16:53:47,27/03/2024
html-keyboard-response,176,349501,0.0-73.0,,"<div style=""font-size:100px;"">+</div>",,delaylearn,learning,ITI,OShMZSBECRYy9VNGpRij6UFmQi12,OShMZSBECRYy9VNGpRij6UFmQi12,,,,,,,,,,,,,,,,,,,1664.0,,,5a8a8de6000dab00018cc170,16:53:47,27/03/2024
html-keyboard-response,177,350762,0.0-74.0-0.0,1259.9000000953674,"<div style=""display: flex; flex-direction: column; align-items: center; margin-top: -40px;""><img src=""images/pattern_3.png"" style=""width: 234px; height: 230px; margin-top: -50px;""><div style=""display: flex; justify-content: space-between; margin-top: 33px;""><img src=""images/choice_trial_6.png"" style=""width: 408px; height: 417px; margin-right: 200px;""><img src=""images/choice_trial_16.png"" style=""width: 408px; height: 417px;""></div></div>",j,delaylearn,learning,trial,OShMZSBECRYy9VNGpRij6UFmQi12,OShMZSBECRYy9VNGpRij6UFmQi12,4.0,images/choice_trial_6.png,images/choice_trial_16.png,images/pattern_3.png,j,j,7000.0,6.0,16.0,2.0,1.0,32.0,1.0,1.0,16.0,180.0,,,,,,5a8a8de6000dab00018cc170,16:53:47,27/03/2024
html-keyboard-response,178,351773,0.0-74.0-1.0,,"<div style=""display: flex; flex-direction: column; align-items: center; margin-top: -40px;""><img src=""images/pattern_3.png"" style=""width: 234px; height: 230px; margin-top: -50px;""><div style=""display: flex; justify-content: space-between; margin-top: 33px;""><img src=""images/choice_trial_16.png"" style=""width: 408px; height: 417px; margin-left:608px;""></div></div>",,delaylearn,learning,display_response,OShMZSBECRYy9VNGpRij6UFmQi12,OShMZSBECRYy9VNGpRij6UFmQi12,,,,,,,,,,,,,,,,,chosen stimuli: images/choice_trial_16.png,,,,,5a8a8de6000dab00018cc170,16:53:47,27/03/2024
html-keyboard-response,179,358781,0.0-74.0-2.0,,,,delaylearn,learning,feedback_duration_window,OShMZSBECRYy9VNGpRij6UFmQi12,OShMZSBECRYy9VNGpRij6UFmQi12,,,,,,,,,,,,,,,,,,7000.0,,,,5a8a8de6000dab00018cc170,16:53:47,27/03/2024
html-keyboard-response,180,360285,0.0-74.0-3.0,,<div style='margin:auto;width: auto; font-size: 150%'><span style='font-weight: bold; font-size: 100px; color: green;'>+10 points!</span><br><br></div>,,delaylearn,learning,feedback_image_window,OShMZSBECRYy9VNGpRij6UFmQi12,OShMZSBECRYy9VNGpRij6UFmQi12,,,,,,,,,,,,,,,,,,,,,,5a8a8de6000dab00018cc170,16:53:47,27/03/2024
html-keyboard-response,181,361821,0.0-75.0,,"<div style=""font-size:100px;"">+</div>",,delaylearn,learning,ITI,OShMZSBECRYy9VNGpRij6UFmQi12,OShMZSBECRYy9VNGpRij6UFmQi12,,,,,,,,,,,,,,,,,,,1525.0,,,5a8a8de6000dab00018cc170,16:53:47,27/03/2024
html-keyboard-response,182,364050,0.0-76.0-0.0,2228.0,"<div style=""display: flex; flex-direction: column; align-items: center; margin-top: -40px;""><img src=""images/pattern_5.png"" style=""width: 234px; height: 230px; margin-top: -50px;""><div style=""display: flex; justify-content: space-between; margin-top: 33px;""><img src=""images/choice_trial_5.png"" style=""width: 408px; height: 417px; margin-right: 200px;""><img src=""images/choice_trial_15.png"" style=""width: 408px; height: 417px;""></div></div>",f,delaylearn,learning,trial,OShMZSBECRYy9VNGpRij6UFmQi12,OShMZSBECRYy9VNGpRij6UFmQi12,4.0,images/choice_trial_5.png,images/choice_trial_15.png,images/pattern_5.png,j,f,750.0,5.0,15.0,4.0,0.0,33.0,1.0,0.0,5.0,180.0,,,,,,5a8a8de6000dab00018cc170,16:53:47,27/03/2024
html-keyboard-response,183,365053,0.0-76.0-1.0,,"<div style=""display: flex; flex-direction: column; align-items: center; margin-top: -40px;""><img src=""images/pattern_5.png"" style=""width: 234px; height: 230px; margin-top: -50px;""><div style=""display: flex; justify-content: space-between; margin-top: 33px;""><img src=""images/choice_trial_5.png"" style=""width: 408px; height: 417px; margin-right: 608px;""></div></div>",,delaylearn,learning,display_response,OShMZSBECRYy9VNGpRij6UFmQi12,OShMZSBECRYy9VNGpRij6UFmQi12,,,,,,,,,,,,,,,,,chosen stimuli: images/choice_trial_5.png,,,,,5a8a8de6000dab00018cc170,16:53:47,27/03/2024
html-keyboard-response,184,365805,0.0-76.0-2.0,,,,delaylearn,learning,feedback_duration_window,OShMZSBECRYy9VNGpRij6UFmQi12,OShMZSBECRYy9VNGpRij6UFmQi12,,,,,,,,,,,,,,,,,,750.0,,,,5a8a8de6000dab00018cc170,16:53:47,27/03/2024
html-keyboard-response,185,367309,0.0-76.0-3.0,,<div style='margin:auto;width: auto; font-size: 150%'><span style='font-weight: bold; font-size: 100px; color: red;'>0 points!</span><br><br></div>,,delaylearn,learning,feedback_image_window,OShMZSBECRYy9VNGpRij6UFmQi12,OShMZSBECRYy9VNGpRij6UFmQi12,,,,,,,,,,,,,,,,,,,,,,5a8a8de6000dab00018cc170,16:53:47,27/03/2024
html-keyboard-response,186,369165,0.0-77.0,,"<div style=""font-size:100px;"">+</div>",,delaylearn,learning,ITI,OShMZSBECRYy9VNGpRij6UFmQi12,OShMZSBECRYy9VNGpRij6UFmQi12,,,,,,,,,,,,,,,,,,,1845.0,,,5a8a8de6000dab00018cc170,16:53:47,27/03/2024
html-keyboard-response,187,370241,0.0-78.0-0.0,1075.7999997138977,"<div style=""display: flex; flex-direction: column; align-items: center; margin-top: -40px;""><img src=""images/pattern_1.png"" style=""width: 234px; height: 230px; margin-top: -50px;""><div style=""display: flex; justify-content: space-between; margin-top: 33px;""><img src=""images/choice_trial_1.png"" style=""width: 408px; height: 417px; margin-right: 200px;""><img src=""images/choice_trial_9.png"" style=""width: 408px; height: 417px;""></div></div>",f,delaylearn,learning,trial,OShMZSBECRYy9VNGpRij6UFmQi12,OShMZSBECRYy9VNGpRij6UFmQi12,4.0,images/choice_trial_1.png,images/choice_trial_9.png,images/pattern_1.png,f,f,7000.0,1.0,9.0,1.0,0.0,34.0,1.0,1.0,1.0,190.0,,,,,,5a8a8de6000dab00018cc170,16:53:47,27/03/2024
html-keyboard-response,188,371245,0.0-78.0-1.0,,"<div style=""display: flex; flex-direction: column; align-items: center; margin-top: -40px;""><img src=""images/pattern_1.png"" style=""width: 234px; height: 230px; margin-top: -50px;""><div style=""display: flex; justify-content: space-between; margin-top: 33px;""><img src=""images/choice_trial_1.png"" style=""width: 408px; height: 417px; margin-right: 608px;""></div></div>",,delaylearn,learning,display_response,OShMZSBECRYy9VNGpRij6UFmQi12,OShMZSBECRYy9VNGpRij6UFmQi12,,,,,,,,,,,,,,,,,chosen stimuli: images/choice_trial_1.png,,,,,5a8a8de6000dab00018cc170,16:53:47,27/03/2024
html-keyboard-response,189,378252,0.0-78.0-2.0,,,,delaylearn,learning,feedback_duration_window,OShMZSBECRYy9VNGpRij6UFmQi12,OShMZSBECRYy9VNGpRij6UFmQi12,,,,,,,,,,,,,,,,,,7000.0,,,,5a8a8de6000dab00018cc170,16:53:47,27/03/2024
html-keyboard-response,190,379756,0.0-78.0-3.0,,<div style='margin:auto;width: auto; font-size: 150%'><span style='font-weight: bold; font-size: 100px; color: green;'>+10 points!</span><br><br></div>,,delaylearn,learning,feedback_image_window,OShMZSBECRYy9VNGpRij6UFmQi12,OShMZSBECRYy9VNGpRij6UFmQi12,,,,,,,,,,,,,,,,,,,,,,5a8a8de6000dab00018cc170,16:53:47,27/03/2024
html-keyboard-response,191,380269,0.0-79.0-0.0,,,,,,mood_trial_fixation,OShMZSBECRYy9VNGpRij6UFmQi12,,,,,,,,,,,,,,,,,,,,,,,5a8a8de6000dab00018cc170,16:53:47,27/03/2024
lmdlab-html-vas-response,192,384227,0.0-79.0-1.0,2950.0,How happy are you right now?,0.3256172839506173,delaylearn,learning,mood_trial,OShMZSBECRYy9VNGpRij6UFmQi12,OShMZSBECRYy9VNGpRij6UFmQi12,,,,,,,,,,,,,,,,,,,,"['Very unhappy', 'Very happy']",,5a8a8de6000dab00018cc170,16:53:47,27/03/2024
html-keyboard-response,193,385868,0.0-80.0,,"<div style=""font-size:100px;"">+</div>",,delaylearn,learning,ITI,OShMZSBECRYy9VNGpRij6UFmQi12,OShMZSBECRYy9VNGpRij6UFmQi12,,,,,,,,,,,,,,,,,,,1628.0,,,5a8a8de6000dab00018cc170,16:53:47,27/03/2024
html-keyboard-response,194,386970,0.0-81.0-0.0,1100.4000000953674,"<div style=""display: flex; flex-direction: column; align-items: center; margin-top: -40px;""><img src=""images/pattern_6.png"" style=""width: 234px; height: 230px; margin-top: -50px;""><div style=""display: flex; justify-content: space-between; margin-top: 33px;""><img src=""images/choice_trial_10.png"" style=""width: 408px; height: 417px; margin-right: 200px;""><img src=""images/choice_trial_3.png"" style=""width: 408px; height: 417px;""></div></div>",f,delaylearn,learning,trial,OShMZSBECRYy9VNGpRij6UFmQi12,OShMZSBECRYy9VNGpRij6UFmQi12,4.0,images/choice_trial_10.png,images/choice_trial_3.png,images/pattern_6.png,j,f,750.0,10.0,3.0,5.0,0.0,35.0,1.0,0.0,10.0,190.0,,,,,,5a8a8de6000dab00018cc170,16:53:47,27/03/2024
html-keyboard-response,195,387981,0.0-81.0-1.0,,"<div style=""display: flex; flex-direction: column; align-items: center; margin-top: -40px;""><img src=""images/pattern_6.png"" style=""width: 234px; height: 230px; margin-top: -50px;""><div style=""display: flex; justify-content: space-between; margin-top: 33px;""><img src=""images/choice_trial_10.png"" style=""width: 408px; height: 417px; margin-right: 608px;""></div></div>",,delaylearn,learning,display_response,OShMZSBECRYy9VNGpRij6UFmQi12,OShMZSBECRYy9VNGpRij6UFmQi12,,,,,,,,,,,,,,,,,chosen stimuli: images/choice_trial_10.png,,,,,5a8a8de6000dab00018cc170,16:53:47,27/03/2024
html-keyboard-response,196,388733,0.0-81.0-2.0,,,,delaylearn,learning,feedback_duration_window,OShMZSBECRYy9VNGpRij6UFmQi12,OShMZSBECRYy9VNGpRij6UFmQi12,,,,,,,,,,,,,,,,,,750.0,,,,5a8a8de6000dab00018cc170,16:53:47,27/03/2024
html-keyboard-response,197,390237,0.0-81.0-3.0,,<div style='margin:auto;width: auto; font-size: 150%'><span style='font-weight: bold; font-size: 100px; color: red;'>0 points!</span><br><br></div>,,delaylearn,learning,feedback_image_window,OShMZSBECRYy9VNGpRij6UFmQi12,OShMZSBECRYy9VNGpRij6UFmQi12,,,,,,,,,,,,,,,,,,,,,,5a8a8de6000dab00018cc170,16:53:47,27/03/2024
html-keyboard-response,198,392445,0.0-82.0,,"<div style=""font-size:100px;"">+</div>",,delaylearn,learning,ITI,OShMZSBECRYy9VNGpRij6UFmQi12,OShMZSBECRYy9VNGpRij6UFmQi12,,,,,,,,,,,,,,,,,,,2204.0,,,5a8a8de6000dab00018cc170,16:53:47,27/03/2024
html-keyboard-response,199,393170,0.0-83.0-0.0,723.6999998092651,"<div style=""display: flex; flex-direction: column; align-items: center; margin-top: -40px;""><img src=""images/pattern_3.png"" style=""width: 234px; height: 230px; margin-top: -50px;""><div style=""display: flex; justify-content: space-between; margin-top: 33px;""><img src=""images/choice_trial_6.png"" style=""width: 408px; height: 417px; margin-right: 200px;""><img src=""images/choice_trial_16.png"" style=""width: 408px; height: 417px;""></div></div>",j,delaylearn,learning,trial,OShMZSBECRYy9VNGpRij6UFmQi12,OShMZSBECRYy9VNGpRij6UFmQi12,4.0,images/choice_trial_6.png,images/choice_trial_16.png,images/pattern_3.png,j,j,7000.0,6.0,16.0,2.0,1.0,36.0,1.0,1.0,16.0,200.0,,,,,,5a8a8de6000dab00018cc170,16:53:47,27/03/2024
html-keyboard-response,200,394173,0.0-83.0-1.0,,"<div style=""display: flex; flex-direction: column; align-items: center; margin-top: -40px;""><img src=""images/pattern_3.png"" style=""width: 234px; height: 230px; margin-top: -50px;""><div style=""display: flex; justify-content: space-between; margin-top: 33px;""><img src=""images/choice_trial_16.png"" style=""width: 408px; height: 417px; margin-left:608px;""></div></div>",,delaylearn,learning,display_response,OShMZSBECRYy9VNGpRij6UFmQi12,OShMZSBECRYy9VNGpRij6UFmQi12,,,,,,,,,,,,,,,,,chosen stimuli: images/choice_trial_16.png,,,,,5a8a8de6000dab00018cc170,16:53:47,27/03/2024
html-keyboard-response,201,401181,0.0-83.0-2.0,,,,delaylearn,learning,feedback_duration_window,OShMZSBECRYy9VNGpRij6UFmQi12,OShMZSBECRYy9VNGpRij6UFmQi12,,,,,,,,,,,,,,,,,,7000.0,,,,5a8a8de6000dab00018cc170,16:53:47,27/03/2024
html-keyboard-response,202,402685,0.0-83.0-3.0,,<div style='margin:auto;width: auto; font-size: 150%'><span style='font-weight: bold; font-size: 100px; color: green;'>+10 points!</span><br><br></div>,,delaylearn,learning,feedback_image_window,OShMZSBECRYy9VNGpRij6UFmQi12,OShMZSBECRYy9VNGpRij6UFmQi12,,,,,,,,,,,,,,,,,,,,,,5a8a8de6000dab00018cc170,16:53:47,27/03/2024
html-keyboard-response,203,404205,0.0-84.0,,"<div style=""font-size:100px;"">+</div>",,delaylearn,learning,ITI,OShMZSBECRYy9VNGpRij6UFmQi12,OShMZSBECRYy9VNGpRij6UFmQi12,,,,,,,,,,,,,,,,,,,1512.0,,,5a8a8de6000dab00018cc170,16:53:47,27/03/2024
html-keyboard-response,204,405322,0.0-85.0-0.0,1115.9000000953674,"<div style=""display: flex; flex-direction: column; align-items: center; margin-top: -40px;""><img src=""images/pattern_4.png"" style=""width: 234px; height: 230px; margin-top: -50px;""><div style=""display: flex; justify-content: space-between; margin-top: 33px;""><img src=""images/choice_trial_7.png"" style=""width: 408px; height: 417px; margin-right: 200px;""><img src=""images/choice_trial_8.png"" style=""width: 408px; height: 417px;""></div></div>",j,delaylearn,learning,trial,OShMZSBECRYy9VNGpRij6UFmQi12,OShMZSBECRYy9VNGpRij6UFmQi12,4.0,images/choice_trial_7.png,images/choice_trial_8.png,images/pattern_4.png,f,j,7000.0,7.0,8.0,3.0,1.0,37.0,1.0,0.0,8.0,200.0,,,,,,5a8a8de6000dab00018cc170,16:53:47,27/03/2024
html-keyboard-response,205,406333,0.0-85.0-1.0,,"<div style=""display: flex; flex-direction: column; align-items: center; margin-top: -40px;""><img src=""images/pattern_4.png"" style=""width: 234px; height: 230px; margin-top: -50px;""><div style=""display: flex; justify-content: space-between; margin-top: 33px;""><img src=""images/choice_trial_8.png"" style=""width: 408px; height: 417px; margin-left:608px;""></div></div>",,delaylearn,learning,display_response,OShMZSBECRYy9VNGpRij6UFmQi12,OShMZSBECRYy9VNGpRij6UFmQi12,,,,,,,,,,,,,,,,,chosen stimuli: images/choice_trial_8.png,,,,,5a8a8de6000dab00018cc170,16:53:47,27/03/2024
html-keyboard-response,206,413341,0.0-85.0-2.0,,,,delaylearn,learning,feedback_duration_window,OShMZSBECRYy9VNGpRij6UFmQi12,OShMZSBECRYy9VNGpRij6UFmQi12,,,,,,,,,,,,,,,,,,7000.0,,,,5a8a8de6000dab00018cc170,16:53:47,27/03/2024
html-keyboard-response,207,414845,0.0-85.0-3.0,,<div style='margin:auto;width: auto; font-size: 150%'><span style='font-weight: bold; font-size: 100px; color: red;'>0 points!</span><br><br></div>,,delaylearn,learning,feedback_image_window,OShMZSBECRYy9VNGpRij6UFmQi12,OShMZSBECRYy9VNGpRij6UFmQi12,,,,,,,,,,,,,,,,,,,,,,5a8a8de6000dab00018cc170,16:53:47,27/03/2024
html-keyboard-response,208,416685,0.0-86.0,,"<div style=""font-size:100px;"">+</div>",,delaylearn,learning,ITI,OShMZSBECRYy9VNGpRij6UFmQi12,OShMZSBECRYy9VNGpRij6UFmQi12,,,,,,,,,,,,,,,,,,,1827.0,,,5a8a8de6000dab00018cc170,16:53:47,27/03/2024
html-keyboard-response,209,417810,0.0-87.0-0.0,1124.0,"<div style=""display: flex; flex-direction: column; align-items: center; margin-top: -40px;""><img src=""images/pattern_7.png"" style=""width: 234px; height: 230px; margin-top: -50px;""><div style=""display: flex; justify-content: space-between; margin-top: 33px;""><img src=""images/choice_trial_13.png"" style=""width: 408px; height: 417px; margin-right: 200px;""><img src=""images/choice_trial_4.png"" style=""width: 408px; height: 417px;""></div></div>",f,delaylearn,learning,trial,OShMZSBECRYy9VNGpRij6UFmQi12,OShMZSBECRYy9VNGpRij6UFmQi12,4.0,images/choice_trial_13.png,images/choice_trial_4.png,images/pattern_7.png,f,f,750.0,13.0,4.0,6.0,0.0,38.0,1.0,1.0,13.0,210.0,,,,,,5a8a8de6000dab00018cc170,16:53:47,27/03/2024
html-keyboard-response,210,418813,0.0-87.0-1.0,,"<div style=""display: flex; flex-direction: column; align-items: center; margin-top: -40px;""><img src=""images/pattern_7.png"" style=""width: 234px; height: 230px; margin-top: -50px;""><div style=""display: flex; justify-content: space-between; margin-top: 33px;""><img src=""images/choice_trial_13.png"" style=""width: 408px; height: 417px; margin-right: 608px;""></div></div>",,delaylearn,learning,display_response,OShMZSBECRYy9VNGpRij6UFmQi12,OShMZSBECRYy9VNGpRij6UFmQi12,,,,,,,,,,,,,,,,,chosen stimuli: images/choice_trial_13.png,,,,,5a8a8de6000dab00018cc170,16:53:47,27/03/2024
html-keyboard-response,211,419565,0.0-87.0-2.0,,,,delaylearn,learning,feedback_duration_window,OShMZSBECRYy9VNGpRij6UFmQi12,OShMZSBECRYy9VNGpRij6UFmQi12,,,,,,,,,,,,,,,,,,750.0,,,,5a8a8de6000dab00018cc170,16:53:47,27/03/2024
html-keyboard-response,212,421069,0.0-87.0-3.0,,<div style='margin:auto;width: auto; font-size: 150%'><span style='font-weight: bold; font-size: 100px; color: green;'>+10 points!</span><br><br></div>,,delaylearn,learning,feedback_image_window,OShMZSBECRYy9VNGpRij6UFmQi12,OShMZSBECRYy9VNGpRij6UFmQi12,,,,,,,,,,,,,,,,,,,,,,5a8a8de6000dab00018cc170,16:53:47,27/03/2024
html-keyboard-response,213,423245,0.0-88.0,,"<div style=""font-size:100px;"">+</div>",,delaylearn,learning,ITI,OShMZSBECRYy9VNGpRij6UFmQi12,OShMZSBECRYy9VNGpRij6UFmQi12,,,,,,,,,,,,,,,,,,,2165.0,,,5a8a8de6000dab00018cc170,16:53:47,27/03/2024
html-keyboard-response,214,424042,0.0-89.0-0.0,795.3999996185303,"<div style=""display: flex; flex-direction: column; align-items: center; margin-top: -40px;""><img src=""images/pattern_1.png"" style=""width: 234px; height: 230px; margin-top: -50px;""><div style=""display: flex; justify-content: space-between; margin-top: 33px;""><img src=""images/choice_trial_1.png"" style=""width: 408px; height: 417px; margin-right: 200px;""><img src=""images/choice_trial_9.png"" style=""width: 408px; height: 417px;""></div></div>",f,delaylearn,learning,trial,OShMZSBECRYy9VNGpRij6UFmQi12,OShMZSBECRYy9VNGpRij6UFmQi12,4.0,images/choice_trial_1.png,images/choice_trial_9.png,images/pattern_1.png,f,f,7000.0,1.0,9.0,1.0,0.0,39.0,1.0,1.0,1.0,220.0,,,,,,5a8a8de6000dab00018cc170,16:53:47,27/03/2024
html-keyboard-response,215,425053,0.0-89.0-1.0,,"<div style=""display: flex; flex-direction: column; align-items: center; margin-top: -40px;""><img src=""images/pattern_1.png"" style=""width: 234px; height: 230px; margin-top: -50px;""><div style=""display: flex; justify-content: space-between; margin-top: 33px;""><img src=""images/choice_trial_1.png"" style=""width: 408px; height: 417px; margin-right: 608px;""></div></div>",,delaylearn,learning,display_response,OShMZSBECRYy9VNGpRij6UFmQi12,OShMZSBECRYy9VNGpRij6UFmQi12,,,,,,,,,,,,,,,,,chosen stimuli: images/choice_trial_1.png,,,,,5a8a8de6000dab00018cc170,16:53:47,27/03/2024
html-keyboard-response,216,432061,0.0-89.0-2.0,,,,delaylearn,learning,feedback_duration_window,OShMZSBECRYy9VNGpRij6UFmQi12,OShMZSBECRYy9VNGpRij6UFmQi12,,,,,,,,,,,,,,,,,,7000.0,,,,5a8a8de6000dab00018cc170,16:53:47,27/03/2024
html-keyboard-response,217,433565,0.0-89.0-3.0,,<div style='margin:auto;width: auto; font-size: 150%'><span style='font-weight: bold; font-size: 100px; color: green;'>+10 points!</span><br><br></div>,,delaylearn,learning,feedback_image_window,OShMZSBECRYy9VNGpRij6UFmQi12,OShMZSBECRYy9VNGpRij6UFmQi12,,,,,,,,,,,,,,,,,,,,,,5a8a8de6000dab00018cc170,16:53:47,27/03/2024
html-keyboard-response,218,434077,0.0-90.0-0.0,,,,,,mood_trial_fixation,OShMZSBECRYy9VNGpRij6UFmQi12,,,,,,,,,,,,,,,,,,,,,,,5a8a8de6000dab00018cc170,16:53:47,27/03/2024
lmdlab-html-vas-response,219,437947,0.0-90.0-1.0,2861.0,How happy are you right now?,0.4182098765432099,delaylearn,learning,mood_trial,OShMZSBECRYy9VNGpRij6UFmQi12,OShMZSBECRYy9VNGpRij6UFmQi12,,,,,,,,,,,,,,,,,,,,"['Very unhappy', 'Very happy']",,5a8a8de6000dab00018cc170,16:53:47,27/03/2024
html-keyboard-response,220,439741,0.0-91.0,,"<div style=""font-size:100px;"">+</div>",,delaylearn,learning,ITI,OShMZSBECRYy9VNGpRij6UFmQi12,OShMZSBECRYy9VNGpRij6UFmQi12,,,,,,,,,,,,,,,,,,,1790.0,,,5a8a8de6000dab00018cc170,16:53:47,27/03/2024
html-keyboard-response,221,440458,0.0-92.0-0.0,715.8999996185303,"<div style=""display: flex; flex-direction: column; align-items: center; margin-top: -40px;""><img src=""images/pattern_3.png"" style=""width: 234px; height: 230px; margin-top: -50px;""><div style=""display: flex; justify-content: space-between; margin-top: 33px;""><img src=""images/choice_trial_16.png"" style=""width: 408px; height: 417px; margin-right: 200px;""><img src=""images/choice_trial_6.png"" style=""width: 408px; height: 417px;""></div></div>",f,delaylearn,learning,trial,OShMZSBECRYy9VNGpRij6UFmQi12,OShMZSBECRYy9VNGpRij6UFmQi12,4.0,images/choice_trial_16.png,images/choice_trial_6.png,images/pattern_3.png,j,f,7000.0,16.0,6.0,2.0,0.0,40.0,1.0,0.0,16.0,220.0,,,,,,5a8a8de6000dab00018cc170,16:53:47,27/03/2024
html-keyboard-response,222,441469,0.0-92.0-1.0,,"<div style=""display: flex; flex-direction: column; align-items: center; margin-top: -40px;""><img src=""images/pattern_3.png"" style=""width: 234px; height: 230px; margin-top: -50px;""><div style=""display: flex; justify-content: space-between; margin-top: 33px;""><img src=""images/choice_trial_16.png"" style=""width: 408px; height: 417px; margin-right: 608px;""></div></div>",,delaylearn,learning,display_response,OShMZSBECRYy9VNGpRij6UFmQi12,OShMZSBECRYy9VNGpRij6UFmQi12,,,,,,,,,,,,,,,,,chosen stimuli: images/choice_trial_16.png,,,,,5a8a8de6000dab00018cc170,16:53:47,27/03/2024
html-keyboard-response,223,448477,0.0-92.0-2.0,,,,delaylearn,learning,feedback_duration_window,OShMZSBECRYy9VNGpRij6UFmQi12,OShMZSBECRYy9VNGpRij6UFmQi12,,,,,,,,,,,,,,,,,,7000.0,,,,5a8a8de6000dab00018cc170,16:53:47,27/03/2024
html-keyboard-response,224,449981,0.0-92.0-3.0,,<div style='margin:auto;width: auto; font-size: 150%'><span style='font-weight: bold; font-size: 100px; color: red;'>0 points!</span><br><br></div>,,delaylearn,learning,feedback_image_window,OShMZSBECRYy9VNGpRij6UFmQi12,OShMZSBECRYy9VNGpRij6UFmQi12,,,,,,,,,,,,,,,,,,,,,,5a8a8de6000dab00018cc170,16:53:47,27/03/2024
html-keyboard-response,225,452077,0.0-93.0,,"<div style=""font-size:100px;"">+</div>",,delaylearn,learning,ITI,OShMZSBECRYy9VNGpRij6UFmQi12,OShMZSBECRYy9VNGpRij6UFmQi12,,,,,,,,,,,,,,,,,,,2087.0,,,5a8a8de6000dab00018cc170,16:53:47,27/03/2024
html-keyboard-response,226,452834,0.0-94.0-0.0,755.4000000953674,"<div style=""display: flex; flex-direction: column; align-items: center; margin-top: -40px;""><img src=""images/pattern_7.png"" style=""width: 234px; height: 230px; margin-top: -50px;""><div style=""display: flex; justify-content: space-between; margin-top: 33px;""><img src=""images/choice_trial_4.png"" style=""width: 408px; height: 417px; margin-right: 200px;""><img src=""images/choice_trial_13.png"" style=""width: 408px; height: 417px;""></div></div>",j,delaylearn,learning,trial,OShMZSBECRYy9VNGpRij6UFmQi12,OShMZSBECRYy9VNGpRij6UFmQi12,4.0,images/choice_trial_4.png,images/choice_trial_13.png,images/pattern_7.png,j,j,750.0,4.0,13.0,6.0,1.0,41.0,1.0,1.0,13.0,230.0,,,,,,5a8a8de6000dab00018cc170,16:53:47,27/03/2024
html-keyboard-response,227,453837,0.0-94.0-1.0,,"<div style=""display: flex; flex-direction: column; align-items: center; margin-top: -40px;""><img src=""images/pattern_7.png"" style=""width: 234px; height: 230px; margin-top: -50px;""><div style=""display: flex; justify-content: space-between; margin-top: 33px;""><img src=""images/choice_trial_13.png"" style=""width: 408px; height: 417px; margin-left:608px;""></div></div>",,delaylearn,learning,display_response,OShMZSBECRYy9VNGpRij6UFmQi12,OShMZSBECRYy9VNGpRij6UFmQi12,,,,,,,,,,,,,,,,,chosen stimuli: images/choice_trial_13.png,,,,,5a8a8de6000dab00018cc170,16:53:47,27/03/2024
html-keyboard-response,228,454589,0.0-94.0-2.0,,,,delaylearn,learning,feedback_duration_window,OShMZSBECRYy9VNGpRij6UFmQi12,OShMZSBECRYy9VNGpRij6UFmQi12,,,,,,,,,,,,,,,,,,750.0,,,,5a8a8de6000dab00018cc170,16:53:47,27/03/2024
html-keyboard-response,229,456093,0.0-94.0-3.0,,<div style='margin:auto;width: auto; font-size: 150%'><span style='font-weight: bold; font-size: 100px; color: green;'>+10 points!</span><br><br></div>,,delaylearn,learning,feedback_image_window,OShMZSBECRYy9VNGpRij6UFmQi12,OShMZSBECRYy9VNGpRij6UFmQi12,,,,,,,,,,,,,,,,,,,,,,5a8a8de6000dab00018cc170,16:53:47,27/03/2024
html-keyboard-response,230,457885,0.0-95.0,,"<div style=""font-size:100px;"">+</div>",,delaylearn,learning,ITI,OShMZSBECRYy9VNGpRij6UFmQi12,OShMZSBECRYy9VNGpRij6UFmQi12,,,,,,,,,,,,,,,,,,,1783.0,,,5a8a8de6000dab00018cc170,16:53:47,27/03/2024
