trial_type,trial_index,time_elapsed,internal_node_id,rt,stimulus,response,exp_name,exp_stage,test_part,subjectID,databaseID,counterbal,choice_stimuli_1,choice_stimuli_2,pattern_stimuli,rewarded_answer,correct_answer,feedback_duration_times,stim_left,stim_right,pair,leftright_counter,trial,response_correct,response_rewarded,chosen_stim,counter,displayed_choice,feedback_durations,ITI_duration,labels,rest_warning,prolificID,start_time,date
pavlovia,0,2290,0.0-0.0,,,,,,,Mrv7eUS5D1MIOjBtcniihbq7T9E2,,,,,,,,,,,,,,,,,,,,,,,657421f9661ce9a8cd7482d1,09:23:24,27/02/2024
html-keyboard-response,1,5309,0.0-1.0,,"<div style=""font-size:100px;"">+</div>",,delaylearn,learning,pre_fixation,Mrv7eUS5D1MIOjBtcniihbq7T9E2,,,,,,,,,,,,,,,,,,,,,,,657421f9661ce9a8cd7482d1,09:23:24,27/02/2024
html-keyboard-response,2,6525,0.0-2.0-0.0,1211.7000000029802,"<div style=""display: flex; flex-direction: column; align-items: center; margin-top: -40px;""><img src=""images/demo_images/pattern_1.png"" style=""width: 234px; height: 230px; margin-top: -50px;""><div style=""display: flex; justify-content: space-between; margin-top: 33px;""><img src=""images/demo_images/choice_trial_2.png"" style=""width: 408px; height: 417px; margin-right: 200px;""><img src=""images/demo_images/choice_trial_1.png"" style=""width: 408px; height: 417px;""></div></div>",f,delaylearn,learning,trial,Mrv7eUS5D1MIOjBtcniihbq7T9E2,Mrv7eUS5D1MIOjBtcniihbq7T9E2,5.0,images/demo_images/choice_trial_2.png,images/demo_images/choice_trial_1.png,images/demo_images/pattern_1.png,j,j,3000.0,2.0,1.0,20.0,1.0,1.0,0.0,0.0,2.0,0.0,,,,,,657421f9661ce9a8cd7482d1,09:23:24,27/02/2024
html-keyboard-response,3,7545,0.0-2.0-1.0,,"<div style=""display: flex; flex-direction: column; align-items: center; margin-top: -40px;""><img src=""images/demo_images/pattern_1.png"" style=""width: 234px; height: 230px; margin-top: -50px;""><div style=""display: flex; justify-content: space-between; margin-top: 33px;""><img src=""images/demo_images/choice_trial_2.png"" style=""width: 408px; height: 417px; margin-right: 608px;""></div></div>",,delaylearn,learning,display_response,Mrv7eUS5D1MIOjBtcniihbq7T9E2,Mrv7eUS5D1MIOjBtcniihbq7T9E2,,,,,,,,,,,,,,,,,chosen stimuli: images/demo_images/choice_trial_2.png,,,,,657421f9661ce9a8cd7482d1,09:23:24,27/02/2024
html-keyboard-response,4,10557,0.0-2.0-2.0,,,,delaylearn,learning,feedback_duration_window,Mrv7eUS5D1MIOjBtcniihbq7T9E2,Mrv7eUS5D1MIOjBtcniihbq7T9E2,,,,,,,,,,,,,,,,,,3000.0,,,,657421f9661ce9a8cd7482d1,09:23:24,27/02/2024
html-keyboard-response,5,12062,0.0-2.0-3.0,,<div style='margin:auto;width: auto; font-size: 150%'><span style='font-weight: bold; font-size: 100px; color: red;'>0 points!</span><br><br></div>,,delaylearn,learning,feedback_image_window,Mrv7eUS5D1MIOjBtcniihbq7T9E2,Mrv7eUS5D1MIOjBtcniihbq7T9E2,,,,,,,,,,,,,,,,,,,,,,657421f9661ce9a8cd7482d1,09:23:24,27/02/2024
html-keyboard-response,6,14390,0.0-3.0,,"<div style=""font-size:100px;"">+</div>",,delaylearn,learning,ITI,Mrv7eUS5D1MIOjBtcniihbq7T9E2,Mrv7eUS5D1MIOjBtcniihbq7T9E2,,,,,,,,,,,,,,,,,,,2312.0,,,657421f9661ce9a8cd7482d1,09:23:24,27/02/2024
html-keyboard-response,7,14918,0.0-4.0-0.0,522.7000000029802,"<div style=""display: flex; flex-direction: column; align-items: center; margin-top: -40px;""><img src=""images/demo_images/pattern_1.png"" style=""width: 234px; height: 230px; margin-top: -50px;""><div style=""display: flex; justify-content: space-between; margin-top: 33px;""><img src=""images/demo_images/choice_trial_2.png"" style=""width: 408px; height: 417px; margin-right: 200px;""><img src=""images/demo_images/choice_trial_1.png"" style=""width: 408px; height: 417px;""></div></div>",f,delaylearn,learning,trial,Mrv7eUS5D1MIOjBtcniihbq7T9E2,Mrv7eUS5D1MIOjBtcniihbq7T9E2,5.0,images/demo_images/choice_trial_2.png,images/demo_images/choice_trial_1.png,images/demo_images/pattern_1.png,j,j,3000.0,2.0,1.0,20.0,1.0,2.0,0.0,0.0,2.0,0.0,,,,,,657421f9661ce9a8cd7482d1,09:23:24,27/02/2024
html-keyboard-response,8,15933,0.0-4.0-1.0,,"<div style=""display: flex; flex-direction: column; align-items: center; margin-top: -40px;""><img src=""images/demo_images/pattern_1.png"" style=""width: 234px; height: 230px; margin-top: -50px;""><div style=""display: flex; justify-content: space-between; margin-top: 33px;""><img src=""images/demo_images/choice_trial_2.png"" style=""width: 408px; height: 417px; margin-right: 608px;""></div></div>",,delaylearn,learning,display_response,Mrv7eUS5D1MIOjBtcniihbq7T9E2,Mrv7eUS5D1MIOjBtcniihbq7T9E2,,,,,,,,,,,,,,,,,chosen stimuli: images/demo_images/choice_trial_2.png,,,,,657421f9661ce9a8cd7482d1,09:23:24,27/02/2024
html-keyboard-response,9,18951,0.0-4.0-2.0,,,,delaylearn,learning,feedback_duration_window,Mrv7eUS5D1MIOjBtcniihbq7T9E2,Mrv7eUS5D1MIOjBtcniihbq7T9E2,,,,,,,,,,,,,,,,,,3000.0,,,,657421f9661ce9a8cd7482d1,09:23:24,27/02/2024
html-keyboard-response,10,20468,0.0-4.0-3.0,,<div style='margin:auto;width: auto; font-size: 150%'><span style='font-weight: bold; font-size: 100px; color: red;'>0 points!</span><br><br></div>,,delaylearn,learning,feedback_image_window,Mrv7eUS5D1MIOjBtcniihbq7T9E2,Mrv7eUS5D1MIOjBtcniihbq7T9E2,,,,,,,,,,,,,,,,,,,,,,657421f9661ce9a8cd7482d1,09:23:24,27/02/2024
html-keyboard-response,11,22745,0.0-5.0,,"<div style=""font-size:100px;"">+</div>",,delaylearn,learning,ITI,Mrv7eUS5D1MIOjBtcniihbq7T9E2,Mrv7eUS5D1MIOjBtcniihbq7T9E2,,,,,,,,,,,,,,,,,,,2267.0,,,657421f9661ce9a8cd7482d1,09:23:24,27/02/2024
html-keyboard-response,12,23395,0.0-6.0-0.0,644.7999999970198,"<div style=""display: flex; flex-direction: column; align-items: center; margin-top: -40px;""><img src=""images/demo_images/pattern_1.png"" style=""width: 234px; height: 230px; margin-top: -50px;""><div style=""display: flex; justify-content: space-between; margin-top: 33px;""><img src=""images/demo_images/choice_trial_1.png"" style=""width: 408px; height: 417px; margin-right: 200px;""><img src=""images/demo_images/choice_trial_2.png"" style=""width: 408px; height: 417px;""></div></div>",j,delaylearn,learning,trial,Mrv7eUS5D1MIOjBtcniihbq7T9E2,Mrv7eUS5D1MIOjBtcniihbq7T9E2,5.0,images/demo_images/choice_trial_1.png,images/demo_images/choice_trial_2.png,images/demo_images/pattern_1.png,j,f,3000.0,1.0,2.0,20.0,0.0,3.0,0.0,1.0,2.0,10.0,,,,,,657421f9661ce9a8cd7482d1,09:23:24,27/02/2024
html-keyboard-response,13,24403,0.0-6.0-1.0,,"<div style=""display: flex; flex-direction: column; align-items: center; margin-top: -40px;""><img src=""images/demo_images/pattern_1.png"" style=""width: 234px; height: 230px; margin-top: -50px;""><div style=""display: flex; justify-content: space-between; margin-top: 33px;""><img src=""images/demo_images/choice_trial_2.png"" style=""width: 408px; height: 417px; margin-left:608px;""></div></div>",,delaylearn,learning,display_response,Mrv7eUS5D1MIOjBtcniihbq7T9E2,Mrv7eUS5D1MIOjBtcniihbq7T9E2,,,,,,,,,,,,,,,,,chosen stimuli: images/demo_images/choice_trial_2.png,,,,,657421f9661ce9a8cd7482d1,09:23:24,27/02/2024
html-keyboard-response,14,27421,0.0-6.0-2.0,,,,delaylearn,learning,feedback_duration_window,Mrv7eUS5D1MIOjBtcniihbq7T9E2,Mrv7eUS5D1MIOjBtcniihbq7T9E2,,,,,,,,,,,,,,,,,,3000.0,,,,657421f9661ce9a8cd7482d1,09:23:24,27/02/2024
html-keyboard-response,15,28928,0.0-6.0-3.0,,<div style='margin:auto;width: auto; font-size: 150%'><span style='font-weight: bold; font-size: 100px; color: green;'>+10 points!</span><br><br></div>,,delaylearn,learning,feedback_image_window,Mrv7eUS5D1MIOjBtcniihbq7T9E2,Mrv7eUS5D1MIOjBtcniihbq7T9E2,,,,,,,,,,,,,,,,,,,,,,657421f9661ce9a8cd7482d1,09:23:24,27/02/2024
html-keyboard-response,16,30957,0.0-7.0,,"<div style=""font-size:100px;"">+</div>",,delaylearn,learning,ITI,Mrv7eUS5D1MIOjBtcniihbq7T9E2,Mrv7eUS5D1MIOjBtcniihbq7T9E2,,,,,,,,,,,,,,,,,,,2022.0,,,657421f9661ce9a8cd7482d1,09:23:24,27/02/2024
html-keyboard-response,17,31371,0.0-8.0-0.0,411.20000000298023,"<div style=""display: flex; flex-direction: column; align-items: center; margin-top: -40px;""><img src=""images/demo_images/pattern_1.png"" style=""width: 234px; height: 230px; margin-top: -50px;""><div style=""display: flex; justify-content: space-between; margin-top: 33px;""><img src=""images/demo_images/choice_trial_1.png"" style=""width: 408px; height: 417px; margin-right: 200px;""><img src=""images/demo_images/choice_trial_2.png"" style=""width: 408px; height: 417px;""></div></div>",j,delaylearn,learning,trial,Mrv7eUS5D1MIOjBtcniihbq7T9E2,Mrv7eUS5D1MIOjBtcniihbq7T9E2,5.0,images/demo_images/choice_trial_1.png,images/demo_images/choice_trial_2.png,images/demo_images/pattern_1.png,f,f,3000.0,1.0,2.0,20.0,0.0,4.0,0.0,0.0,2.0,10.0,,,,,,657421f9661ce9a8cd7482d1,09:23:24,27/02/2024
html-keyboard-response,18,32380,0.0-8.0-1.0,,"<div style=""display: flex; flex-direction: column; align-items: center; margin-top: -40px;""><img src=""images/demo_images/pattern_1.png"" style=""width: 234px; height: 230px; margin-top: -50px;""><div style=""display: flex; justify-content: space-between; margin-top: 33px;""><img src=""images/demo_images/choice_trial_2.png"" style=""width: 408px; height: 417px; margin-left:608px;""></div></div>",,delaylearn,learning,display_response,Mrv7eUS5D1MIOjBtcniihbq7T9E2,Mrv7eUS5D1MIOjBtcniihbq7T9E2,,,,,,,,,,,,,,,,,chosen stimuli: images/demo_images/choice_trial_2.png,,,,,657421f9661ce9a8cd7482d1,09:23:24,27/02/2024
html-keyboard-response,19,35387,0.0-8.0-2.0,,,,delaylearn,learning,feedback_duration_window,Mrv7eUS5D1MIOjBtcniihbq7T9E2,Mrv7eUS5D1MIOjBtcniihbq7T9E2,,,,,,,,,,,,,,,,,,3000.0,,,,657421f9661ce9a8cd7482d1,09:23:24,27/02/2024
html-keyboard-response,20,36907,0.0-8.0-3.0,,<div style='margin:auto;width: auto; font-size: 150%'><span style='font-weight: bold; font-size: 100px; color: red;'>0 points!</span><br><br></div>,,delaylearn,learning,feedback_image_window,Mrv7eUS5D1MIOjBtcniihbq7T9E2,Mrv7eUS5D1MIOjBtcniihbq7T9E2,,,,,,,,,,,,,,,,,,,,,,657421f9661ce9a8cd7482d1,09:23:24,27/02/2024
html-keyboard-response,21,37419,0.0-9.0-0.0,,,,,,mood_trial_fixation,Mrv7eUS5D1MIOjBtcniihbq7T9E2,,,,,,,,,,,,,,,,,,,,,,,657421f9661ce9a8cd7482d1,09:23:24,27/02/2024
lmdlab-html-vas-response,22,44064,0.0-9.0-1.0,5611.0,How happy are you right now?,0.8776236818012275,delaylearn,learning,mood_trial,Mrv7eUS5D1MIOjBtcniihbq7T9E2,Mrv7eUS5D1MIOjBtcniihbq7T9E2,,,,,,,,,,,,,,,,,,,,"['Very unhappy', 'Very happy']",,657421f9661ce9a8cd7482d1,09:23:24,27/02/2024
html-keyboard-response,23,46071,0.0-10.0,,"<div style=""font-size:100px;"">+</div>",,delaylearn,learning,ITI,Mrv7eUS5D1MIOjBtcniihbq7T9E2,Mrv7eUS5D1MIOjBtcniihbq7T9E2,,,,,,,,,,,,,,,,,,,1990.0,,,657421f9661ce9a8cd7482d1,09:23:24,27/02/2024
html-keyboard-response,24,46809,0.0-11.0-0.0,734.5,"<div style=""display: flex; flex-direction: column; align-items: center; margin-top: -40px;""><img src=""images/demo_images/pattern_1.png"" style=""width: 234px; height: 230px; margin-top: -50px;""><div style=""display: flex; justify-content: space-between; margin-top: 33px;""><img src=""images/demo_images/choice_trial_2.png"" style=""width: 408px; height: 417px; margin-right: 200px;""><img src=""images/demo_images/choice_trial_1.png"" style=""width: 408px; height: 417px;""></div></div>",j,delaylearn,learning,trial,Mrv7eUS5D1MIOjBtcniihbq7T9E2,Mrv7eUS5D1MIOjBtcniihbq7T9E2,5.0,images/demo_images/choice_trial_2.png,images/demo_images/choice_trial_1.png,images/demo_images/pattern_1.png,j,j,3000.0,2.0,1.0,20.0,1.0,5.0,1.0,1.0,1.0,20.0,,,,,,657421f9661ce9a8cd7482d1,09:23:24,27/02/2024
html-keyboard-response,25,47824,0.0-11.0-1.0,,"<div style=""display: flex; flex-direction: column; align-items: center; margin-top: -40px;""><img src=""images/demo_images/pattern_1.png"" style=""width: 234px; height: 230px; margin-top: -50px;""><div style=""display: flex; justify-content: space-between; margin-top: 33px;""><img src=""images/demo_images/choice_trial_1.png"" style=""width: 408px; height: 417px; margin-left:608px;""></div></div>",,delaylearn,learning,display_response,Mrv7eUS5D1MIOjBtcniihbq7T9E2,Mrv7eUS5D1MIOjBtcniihbq7T9E2,,,,,,,,,,,,,,,,,chosen stimuli: images/demo_images/choice_trial_1.png,,,,,657421f9661ce9a8cd7482d1,09:23:24,27/02/2024
html-keyboard-response,26,50831,0.0-11.0-2.0,,,,delaylearn,learning,feedback_duration_window,Mrv7eUS5D1MIOjBtcniihbq7T9E2,Mrv7eUS5D1MIOjBtcniihbq7T9E2,,,,,,,,,,,,,,,,,,3000.0,,,,657421f9661ce9a8cd7482d1,09:23:24,27/02/2024
html-keyboard-response,27,52349,0.0-11.0-3.0,,<div style='margin:auto;width: auto; font-size: 150%'><span style='font-weight: bold; font-size: 100px; color: green;'>+10 points!</span><br><br></div>,,delaylearn,learning,feedback_image_window,Mrv7eUS5D1MIOjBtcniihbq7T9E2,Mrv7eUS5D1MIOjBtcniihbq7T9E2,,,,,,,,,,,,,,,,,,,,,,657421f9661ce9a8cd7482d1,09:23:24,27/02/2024
html-keyboard-response,28,54109,0.0-12.0,,"<div style=""font-size:100px;"">+</div>",,delaylearn,learning,ITI,Mrv7eUS5D1MIOjBtcniihbq7T9E2,Mrv7eUS5D1MIOjBtcniihbq7T9E2,,,,,,,,,,,,,,,,,,,1747.0,,,657421f9661ce9a8cd7482d1,09:23:24,27/02/2024
html-keyboard-response,29,54609,0.0-13.0-0.0,492.90000000596046,"<div style=""display: flex; flex-direction: column; align-items: center; margin-top: -40px;""><img src=""images/demo_images/pattern_1.png"" style=""width: 234px; height: 230px; margin-top: -50px;""><div style=""display: flex; justify-content: space-between; margin-top: 33px;""><img src=""images/demo_images/choice_trial_1.png"" style=""width: 408px; height: 417px; margin-right: 200px;""><img src=""images/demo_images/choice_trial_2.png"" style=""width: 408px; height: 417px;""></div></div>",j,delaylearn,learning,trial,Mrv7eUS5D1MIOjBtcniihbq7T9E2,Mrv7eUS5D1MIOjBtcniihbq7T9E2,5.0,images/demo_images/choice_trial_1.png,images/demo_images/choice_trial_2.png,images/demo_images/pattern_1.png,f,f,3000.0,1.0,2.0,20.0,0.0,6.0,0.0,0.0,2.0,20.0,,,,,,657421f9661ce9a8cd7482d1,09:23:24,27/02/2024
html-keyboard-response,30,55630,0.0-13.0-1.0,,"<div style=""display: flex; flex-direction: column; align-items: center; margin-top: -40px;""><img src=""images/demo_images/pattern_1.png"" style=""width: 234px; height: 230px; margin-top: -50px;""><div style=""display: flex; justify-content: space-between; margin-top: 33px;""><img src=""images/demo_images/choice_trial_2.png"" style=""width: 408px; height: 417px; margin-left:608px;""></div></div>",,delaylearn,learning,display_response,Mrv7eUS5D1MIOjBtcniihbq7T9E2,Mrv7eUS5D1MIOjBtcniihbq7T9E2,,,,,,,,,,,,,,,,,chosen stimuli: images/demo_images/choice_trial_2.png,,,,,657421f9661ce9a8cd7482d1,09:23:24,27/02/2024
html-keyboard-response,31,58636,0.0-13.0-2.0,,,,delaylearn,learning,feedback_duration_window,Mrv7eUS5D1MIOjBtcniihbq7T9E2,Mrv7eUS5D1MIOjBtcniihbq7T9E2,,,,,,,,,,,,,,,,,,3000.0,,,,657421f9661ce9a8cd7482d1,09:23:24,27/02/2024
html-keyboard-response,32,60143,0.0-13.0-3.0,,<div style='margin:auto;width: auto; font-size: 150%'><span style='font-weight: bold; font-size: 100px; color: red;'>0 points!</span><br><br></div>,,delaylearn,learning,feedback_image_window,Mrv7eUS5D1MIOjBtcniihbq7T9E2,Mrv7eUS5D1MIOjBtcniihbq7T9E2,,,,,,,,,,,,,,,,,,,,,,657421f9661ce9a8cd7482d1,09:23:24,27/02/2024
html-button-response,33,65915,0.0-14.0,5769.4000000059605,"
  <div style=""display: flex; align-items: center; justify-content: center; height: 80vh;"">
  <div>
          <img src=""images/inst_demo_finish.png"" style=""width: 80vw; height:auto;"">
          <br><br>
      </div>
      <br><br>
  </div>",0,,,,Mrv7eUS5D1MIOjBtcniihbq7T9E2,,,,,,,,,,,,,,,,,,,,,,,657421f9661ce9a8cd7482d1,09:23:24,27/02/2024
html-keyboard-response,34,80822,0.0-15.0,14905.70000000298,"
  <div style=""display: flex; align-items: center; justify-content: center; height: 80vh;"">
  <div>
          <img src=""images/inst_6.png"" style=""width: 80vw; height:auto;"">
          <br><br>
      </div>
      <br><br>
  </div>",j,,,,Mrv7eUS5D1MIOjBtcniihbq7T9E2,,,,,,,,,,,,,,,,,,,,,,,657421f9661ce9a8cd7482d1,09:23:24,27/02/2024
html-keyboard-response,35,83839,0.0-16.0,,"<div style=""font-size:100px;"">+</div>",,delaylearn,learning,pre_fixation,Mrv7eUS5D1MIOjBtcniihbq7T9E2,,,,,,,,,,,,,,,,,,,,,,,657421f9661ce9a8cd7482d1,09:23:24,27/02/2024
html-keyboard-response,36,86160,0.0-17.0,,"<div style=""font-size:100px;"">+</div>",,delaylearn,learning,ITI,Mrv7eUS5D1MIOjBtcniihbq7T9E2,Mrv7eUS5D1MIOjBtcniihbq7T9E2,,,,,,,,,,,,,,,,,,,2310.0,,,657421f9661ce9a8cd7482d1,09:23:24,27/02/2024
html-keyboard-response,37,87233,0.0-18.0-0.0,1068.0999999940395,"<div style=""display: flex; flex-direction: column; align-items: center; margin-top: -40px;""><img src=""images/pattern_3.png"" style=""width: 234px; height: 230px; margin-top: -50px;""><div style=""display: flex; justify-content: space-between; margin-top: 33px;""><img src=""images/choice_trial_16.png"" style=""width: 408px; height: 417px; margin-right: 200px;""><img src=""images/choice_trial_2.png"" style=""width: 408px; height: 417px;""></div></div>",j,delaylearn,learning,trial,Mrv7eUS5D1MIOjBtcniihbq7T9E2,Mrv7eUS5D1MIOjBtcniihbq7T9E2,5.0,images/choice_trial_16.png,images/choice_trial_2.png,images/pattern_3.png,f,f,7000.0,16.0,2.0,2.0,0.0,7.0,0.0,0.0,2.0,20.0,,,,,,657421f9661ce9a8cd7482d1,09:23:24,27/02/2024
html-keyboard-response,38,88249,0.0-18.0-1.0,,"<div style=""display: flex; flex-direction: column; align-items: center; margin-top: -40px;""><img src=""images/pattern_3.png"" style=""width: 234px; height: 230px; margin-top: -50px;""><div style=""display: flex; justify-content: space-between; margin-top: 33px;""><img src=""images/choice_trial_2.png"" style=""width: 408px; height: 417px; margin-left:608px;""></div></div>",,delaylearn,learning,display_response,Mrv7eUS5D1MIOjBtcniihbq7T9E2,Mrv7eUS5D1MIOjBtcniihbq7T9E2,,,,,,,,,,,,,,,,,chosen stimuli: images/choice_trial_2.png,,,,,657421f9661ce9a8cd7482d1,09:23:24,27/02/2024
html-keyboard-response,39,95257,0.0-18.0-2.0,,,,delaylearn,learning,feedback_duration_window,Mrv7eUS5D1MIOjBtcniihbq7T9E2,Mrv7eUS5D1MIOjBtcniihbq7T9E2,,,,,,,,,,,,,,,,,,7000.0,,,,657421f9661ce9a8cd7482d1,09:23:24,27/02/2024
html-keyboard-response,40,96763,0.0-18.0-3.0,,<div style='margin:auto;width: auto; font-size: 150%'><span style='font-weight: bold; font-size: 100px; color: red;'>0 points!</span><br><br></div>,,delaylearn,learning,feedback_image_window,Mrv7eUS5D1MIOjBtcniihbq7T9E2,Mrv7eUS5D1MIOjBtcniihbq7T9E2,,,,,,,,,,,,,,,,,,,,,,657421f9661ce9a8cd7482d1,09:23:24,27/02/2024
html-keyboard-response,41,98606,0.0-19.0,,"<div style=""font-size:100px;"">+</div>",,delaylearn,learning,ITI,Mrv7eUS5D1MIOjBtcniihbq7T9E2,Mrv7eUS5D1MIOjBtcniihbq7T9E2,,,,,,,,,,,,,,,,,,,1826.0,,,657421f9661ce9a8cd7482d1,09:23:24,27/02/2024
html-keyboard-response,42,99536,0.0-20.0-0.0,925.4000000059605,"<div style=""display: flex; flex-direction: column; align-items: center; margin-top: -40px;""><img src=""images/pattern_7.png"" style=""width: 234px; height: 230px; margin-top: -50px;""><div style=""display: flex; justify-content: space-between; margin-top: 33px;""><img src=""images/choice_trial_10.png"" style=""width: 408px; height: 417px; margin-right: 200px;""><img src=""images/choice_trial_8.png"" style=""width: 408px; height: 417px;""></div></div>",f,delaylearn,learning,trial,Mrv7eUS5D1MIOjBtcniihbq7T9E2,Mrv7eUS5D1MIOjBtcniihbq7T9E2,5.0,images/choice_trial_10.png,images/choice_trial_8.png,images/pattern_7.png,j,j,750.0,10.0,8.0,6.0,1.0,8.0,0.0,0.0,10.0,20.0,,,,,,657421f9661ce9a8cd7482d1,09:23:24,27/02/2024
html-keyboard-response,43,100546,0.0-20.0-1.0,,"<div style=""display: flex; flex-direction: column; align-items: center; margin-top: -40px;""><img src=""images/pattern_7.png"" style=""width: 234px; height: 230px; margin-top: -50px;""><div style=""display: flex; justify-content: space-between; margin-top: 33px;""><img src=""images/choice_trial_10.png"" style=""width: 408px; height: 417px; margin-right: 608px;""></div></div>",,delaylearn,learning,display_response,Mrv7eUS5D1MIOjBtcniihbq7T9E2,Mrv7eUS5D1MIOjBtcniihbq7T9E2,,,,,,,,,,,,,,,,,chosen stimuli: images/choice_trial_10.png,,,,,657421f9661ce9a8cd7482d1,09:23:24,27/02/2024
html-keyboard-response,44,101302,0.0-20.0-2.0,,,,delaylearn,learning,feedback_duration_window,Mrv7eUS5D1MIOjBtcniihbq7T9E2,Mrv7eUS5D1MIOjBtcniihbq7T9E2,,,,,,,,,,,,,,,,,,750.0,,,,657421f9661ce9a8cd7482d1,09:23:24,27/02/2024
html-keyboard-response,45,102807,0.0-20.0-3.0,,<div style='margin:auto;width: auto; font-size: 150%'><span style='font-weight: bold; font-size: 100px; color: red;'>0 points!</span><br><br></div>,,delaylearn,learning,feedback_image_window,Mrv7eUS5D1MIOjBtcniihbq7T9E2,Mrv7eUS5D1MIOjBtcniihbq7T9E2,,,,,,,,,,,,,,,,,,,,,,657421f9661ce9a8cd7482d1,09:23:24,27/02/2024
html-keyboard-response,46,105054,0.0-21.0,,"<div style=""font-size:100px;"">+</div>",,delaylearn,learning,ITI,Mrv7eUS5D1MIOjBtcniihbq7T9E2,Mrv7eUS5D1MIOjBtcniihbq7T9E2,,,,,,,,,,,,,,,,,,,2234.0,,,657421f9661ce9a8cd7482d1,09:23:24,27/02/2024
html-keyboard-response,47,106611,0.0-22.0-0.0,1553.2000000029802,"<div style=""display: flex; flex-direction: column; align-items: center; margin-top: -40px;""><img src=""images/pattern_4.png"" style=""width: 234px; height: 230px; margin-top: -50px;""><div style=""display: flex; justify-content: space-between; margin-top: 33px;""><img src=""images/choice_trial_11.png"" style=""width: 408px; height: 417px; margin-right: 200px;""><img src=""images/choice_trial_4.png"" style=""width: 408px; height: 417px;""></div></div>",j,delaylearn,learning,trial,Mrv7eUS5D1MIOjBtcniihbq7T9E2,Mrv7eUS5D1MIOjBtcniihbq7T9E2,5.0,images/choice_trial_11.png,images/choice_trial_4.png,images/pattern_4.png,f,f,7000.0,11.0,4.0,3.0,0.0,9.0,0.0,0.0,4.0,20.0,,,,,,657421f9661ce9a8cd7482d1,09:23:24,27/02/2024
html-keyboard-response,48,107626,0.0-22.0-1.0,,"<div style=""display: flex; flex-direction: column; align-items: center; margin-top: -40px;""><img src=""images/pattern_4.png"" style=""width: 234px; height: 230px; margin-top: -50px;""><div style=""display: flex; justify-content: space-between; margin-top: 33px;""><img src=""images/choice_trial_4.png"" style=""width: 408px; height: 417px; margin-left:608px;""></div></div>",,delaylearn,learning,display_response,Mrv7eUS5D1MIOjBtcniihbq7T9E2,Mrv7eUS5D1MIOjBtcniihbq7T9E2,,,,,,,,,,,,,,,,,chosen stimuli: images/choice_trial_4.png,,,,,657421f9661ce9a8cd7482d1,09:23:24,27/02/2024
html-keyboard-response,49,114631,0.0-22.0-2.0,,,,delaylearn,learning,feedback_duration_window,Mrv7eUS5D1MIOjBtcniihbq7T9E2,Mrv7eUS5D1MIOjBtcniihbq7T9E2,,,,,,,,,,,,,,,,,,7000.0,,,,657421f9661ce9a8cd7482d1,09:23:24,27/02/2024
html-keyboard-response,50,116145,0.0-22.0-3.0,,<div style='margin:auto;width: auto; font-size: 150%'><span style='font-weight: bold; font-size: 100px; color: red;'>0 points!</span><br><br></div>,,delaylearn,learning,feedback_image_window,Mrv7eUS5D1MIOjBtcniihbq7T9E2,Mrv7eUS5D1MIOjBtcniihbq7T9E2,,,,,,,,,,,,,,,,,,,,,,657421f9661ce9a8cd7482d1,09:23:24,27/02/2024
html-keyboard-response,51,118229,0.0-23.0,,"<div style=""font-size:100px;"">+</div>",,delaylearn,learning,ITI,Mrv7eUS5D1MIOjBtcniihbq7T9E2,Mrv7eUS5D1MIOjBtcniihbq7T9E2,,,,,,,,,,,,,,,,,,,2068.0,,,657421f9661ce9a8cd7482d1,09:23:24,27/02/2024
html-keyboard-response,52,120266,0.0-24.0-0.0,2032.5,"<div style=""display: flex; flex-direction: column; align-items: center; margin-top: -40px;""><img src=""images/pattern_5.png"" style=""width: 234px; height: 230px; margin-top: -50px;""><div style=""display: flex; justify-content: space-between; margin-top: 33px;""><img src=""images/choice_trial_13.png"" style=""width: 408px; height: 417px; margin-right: 200px;""><img src=""images/choice_trial_7.png"" style=""width: 408px; height: 417px;""></div></div>",f,delaylearn,learning,trial,Mrv7eUS5D1MIOjBtcniihbq7T9E2,Mrv7eUS5D1MIOjBtcniihbq7T9E2,5.0,images/choice_trial_13.png,images/choice_trial_7.png,images/pattern_5.png,j,j,750.0,13.0,7.0,4.0,1.0,10.0,0.0,0.0,13.0,20.0,,,,,,657421f9661ce9a8cd7482d1,09:23:24,27/02/2024
html-keyboard-response,53,121284,0.0-24.0-1.0,,"<div style=""display: flex; flex-direction: column; align-items: center; margin-top: -40px;""><img src=""images/pattern_5.png"" style=""width: 234px; height: 230px; margin-top: -50px;""><div style=""display: flex; justify-content: space-between; margin-top: 33px;""><img src=""images/choice_trial_13.png"" style=""width: 408px; height: 417px; margin-right: 608px;""></div></div>",,delaylearn,learning,display_response,Mrv7eUS5D1MIOjBtcniihbq7T9E2,Mrv7eUS5D1MIOjBtcniihbq7T9E2,,,,,,,,,,,,,,,,,chosen stimuli: images/choice_trial_13.png,,,,,657421f9661ce9a8cd7482d1,09:23:24,27/02/2024
html-keyboard-response,54,122043,0.0-24.0-2.0,,,,delaylearn,learning,feedback_duration_window,Mrv7eUS5D1MIOjBtcniihbq7T9E2,Mrv7eUS5D1MIOjBtcniihbq7T9E2,,,,,,,,,,,,,,,,,,750.0,,,,657421f9661ce9a8cd7482d1,09:23:24,27/02/2024
html-keyboard-response,55,123560,0.0-24.0-3.0,,<div style='margin:auto;width: auto; font-size: 150%'><span style='font-weight: bold; font-size: 100px; color: red;'>0 points!</span><br><br></div>,,delaylearn,learning,feedback_image_window,Mrv7eUS5D1MIOjBtcniihbq7T9E2,Mrv7eUS5D1MIOjBtcniihbq7T9E2,,,,,,,,,,,,,,,,,,,,,,657421f9661ce9a8cd7482d1,09:23:24,27/02/2024
html-keyboard-response,56,125065,0.0-25.0,,"<div style=""font-size:100px;"">+</div>",,delaylearn,learning,ITI,Mrv7eUS5D1MIOjBtcniihbq7T9E2,Mrv7eUS5D1MIOjBtcniihbq7T9E2,,,,,,,,,,,,,,,,,,,1500.0,,,657421f9661ce9a8cd7482d1,09:23:24,27/02/2024
html-keyboard-response,57,126608,0.0-26.0-0.0,1538.800000011921,"<div style=""display: flex; flex-direction: column; align-items: center; margin-top: -40px;""><img src=""images/pattern_6.png"" style=""width: 234px; height: 230px; margin-top: -50px;""><div style=""display: flex; justify-content: space-between; margin-top: 33px;""><img src=""images/choice_trial_14.png"" style=""width: 408px; height: 417px; margin-right: 200px;""><img src=""images/choice_trial_9.png"" style=""width: 408px; height: 417px;""></div></div>",j,delaylearn,learning,trial,Mrv7eUS5D1MIOjBtcniihbq7T9E2,Mrv7eUS5D1MIOjBtcniihbq7T9E2,5.0,images/choice_trial_14.png,images/choice_trial_9.png,images/pattern_6.png,j,f,750.0,14.0,9.0,5.0,0.0,11.0,0.0,1.0,9.0,30.0,,,,,,657421f9661ce9a8cd7482d1,09:23:24,27/02/2024
html-keyboard-response,58,127625,0.0-26.0-1.0,,"<div style=""display: flex; flex-direction: column; align-items: center; margin-top: -40px;""><img src=""images/pattern_6.png"" style=""width: 234px; height: 230px; margin-top: -50px;""><div style=""display: flex; justify-content: space-between; margin-top: 33px;""><img src=""images/choice_trial_9.png"" style=""width: 408px; height: 417px; margin-left:608px;""></div></div>",,delaylearn,learning,display_response,Mrv7eUS5D1MIOjBtcniihbq7T9E2,Mrv7eUS5D1MIOjBtcniihbq7T9E2,,,,,,,,,,,,,,,,,chosen stimuli: images/choice_trial_9.png,,,,,657421f9661ce9a8cd7482d1,09:23:24,27/02/2024
html-keyboard-response,59,128381,0.0-26.0-2.0,,,,delaylearn,learning,feedback_duration_window,Mrv7eUS5D1MIOjBtcniihbq7T9E2,Mrv7eUS5D1MIOjBtcniihbq7T9E2,,,,,,,,,,,,,,,,,,750.0,,,,657421f9661ce9a8cd7482d1,09:23:24,27/02/2024
html-keyboard-response,60,129896,0.0-26.0-3.0,,<div style='margin:auto;width: auto; font-size: 150%'><span style='font-weight: bold; font-size: 100px; color: green;'>+10 points!</span><br><br></div>,,delaylearn,learning,feedback_image_window,Mrv7eUS5D1MIOjBtcniihbq7T9E2,Mrv7eUS5D1MIOjBtcniihbq7T9E2,,,,,,,,,,,,,,,,,,,,,,657421f9661ce9a8cd7482d1,09:23:24,27/02/2024
html-keyboard-response,61,130405,0.0-27.0-0.0,,,,,,mood_trial_fixation,Mrv7eUS5D1MIOjBtcniihbq7T9E2,,,,,,,,,,,,,,,,,,,,,,,657421f9661ce9a8cd7482d1,09:23:24,27/02/2024
lmdlab-html-vas-response,62,144456,0.0-27.0-1.0,13044.0,How happy are you right now?,0.6975009324878777,delaylearn,learning,mood_trial,Mrv7eUS5D1MIOjBtcniihbq7T9E2,Mrv7eUS5D1MIOjBtcniihbq7T9E2,,,,,,,,,,,,,,,,,,,,"['Very unhappy', 'Very happy']",,657421f9661ce9a8cd7482d1,09:23:24,27/02/2024
html-keyboard-response,63,146376,0.0-28.0,,"<div style=""font-size:100px;"">+</div>",,delaylearn,learning,ITI,Mrv7eUS5D1MIOjBtcniihbq7T9E2,Mrv7eUS5D1MIOjBtcniihbq7T9E2,,,,,,,,,,,,,,,,,,,1912.0,,,657421f9661ce9a8cd7482d1,09:23:24,27/02/2024
html-keyboard-response,64,147834,0.0-29.0-0.0,1451.7000000029802,"<div style=""display: flex; flex-direction: column; align-items: center; margin-top: -40px;""><img src=""images/pattern_1.png"" style=""width: 234px; height: 230px; margin-top: -50px;""><div style=""display: flex; justify-content: space-between; margin-top: 33px;""><img src=""images/choice_trial_15.png"" style=""width: 408px; height: 417px; margin-right: 200px;""><img src=""images/choice_trial_6.png"" style=""width: 408px; height: 417px;""></div></div>",j,delaylearn,learning,trial,Mrv7eUS5D1MIOjBtcniihbq7T9E2,Mrv7eUS5D1MIOjBtcniihbq7T9E2,5.0,images/choice_trial_15.png,images/choice_trial_6.png,images/pattern_1.png,j,j,7000.0,15.0,6.0,1.0,1.0,12.0,1.0,1.0,6.0,40.0,,,,,,657421f9661ce9a8cd7482d1,09:23:24,27/02/2024
html-keyboard-response,65,148851,0.0-29.0-1.0,,"<div style=""display: flex; flex-direction: column; align-items: center; margin-top: -40px;""><img src=""images/pattern_1.png"" style=""width: 234px; height: 230px; margin-top: -50px;""><div style=""display: flex; justify-content: space-between; margin-top: 33px;""><img src=""images/choice_trial_6.png"" style=""width: 408px; height: 417px; margin-left:608px;""></div></div>",,delaylearn,learning,display_response,Mrv7eUS5D1MIOjBtcniihbq7T9E2,Mrv7eUS5D1MIOjBtcniihbq7T9E2,,,,,,,,,,,,,,,,,chosen stimuli: images/choice_trial_6.png,,,,,657421f9661ce9a8cd7482d1,09:23:24,27/02/2024
html-keyboard-response,66,155866,0.0-29.0-2.0,,,,delaylearn,learning,feedback_duration_window,Mrv7eUS5D1MIOjBtcniihbq7T9E2,Mrv7eUS5D1MIOjBtcniihbq7T9E2,,,,,,,,,,,,,,,,,,7000.0,,,,657421f9661ce9a8cd7482d1,09:23:24,27/02/2024
html-keyboard-response,67,157386,0.0-29.0-3.0,,<div style='margin:auto;width: auto; font-size: 150%'><span style='font-weight: bold; font-size: 100px; color: green;'>+10 points!</span><br><br></div>,,delaylearn,learning,feedback_image_window,Mrv7eUS5D1MIOjBtcniihbq7T9E2,Mrv7eUS5D1MIOjBtcniihbq7T9E2,,,,,,,,,,,,,,,,,,,,,,657421f9661ce9a8cd7482d1,09:23:24,27/02/2024
html-keyboard-response,68,159620,0.0-30.0,,"<div style=""font-size:100px;"">+</div>",,delaylearn,learning,ITI,Mrv7eUS5D1MIOjBtcniihbq7T9E2,Mrv7eUS5D1MIOjBtcniihbq7T9E2,,,,,,,,,,,,,,,,,,,2226.0,,,657421f9661ce9a8cd7482d1,09:23:24,27/02/2024
html-keyboard-response,69,161516,0.0-31.0-0.0,1891.0,"<div style=""display: flex; flex-direction: column; align-items: center; margin-top: -40px;""><img src=""images/pattern_3.png"" style=""width: 234px; height: 230px; margin-top: -50px;""><div style=""display: flex; justify-content: space-between; margin-top: 33px;""><img src=""images/choice_trial_2.png"" style=""width: 408px; height: 417px; margin-right: 200px;""><img src=""images/choice_trial_16.png"" style=""width: 408px; height: 417px;""></div></div>",f,delaylearn,learning,trial,Mrv7eUS5D1MIOjBtcniihbq7T9E2,Mrv7eUS5D1MIOjBtcniihbq7T9E2,5.0,images/choice_trial_2.png,images/choice_trial_16.png,images/pattern_3.png,f,j,7000.0,2.0,16.0,2.0,1.0,13.0,0.0,1.0,2.0,50.0,,,,,,657421f9661ce9a8cd7482d1,09:23:24,27/02/2024
html-keyboard-response,70,162535,0.0-31.0-1.0,,"<div style=""display: flex; flex-direction: column; align-items: center; margin-top: -40px;""><img src=""images/pattern_3.png"" style=""width: 234px; height: 230px; margin-top: -50px;""><div style=""display: flex; justify-content: space-between; margin-top: 33px;""><img src=""images/choice_trial_2.png"" style=""width: 408px; height: 417px; margin-right: 608px;""></div></div>",,delaylearn,learning,display_response,Mrv7eUS5D1MIOjBtcniihbq7T9E2,Mrv7eUS5D1MIOjBtcniihbq7T9E2,,,,,,,,,,,,,,,,,chosen stimuli: images/choice_trial_2.png,,,,,657421f9661ce9a8cd7482d1,09:23:24,27/02/2024
html-keyboard-response,71,169547,0.0-31.0-2.0,,,,delaylearn,learning,feedback_duration_window,Mrv7eUS5D1MIOjBtcniihbq7T9E2,Mrv7eUS5D1MIOjBtcniihbq7T9E2,,,,,,,,,,,,,,,,,,7000.0,,,,657421f9661ce9a8cd7482d1,09:23:24,27/02/2024
html-keyboard-response,72,171065,0.0-31.0-3.0,,<div style='margin:auto;width: auto; font-size: 150%'><span style='font-weight: bold; font-size: 100px; color: green;'>+10 points!</span><br><br></div>,,delaylearn,learning,feedback_image_window,Mrv7eUS5D1MIOjBtcniihbq7T9E2,Mrv7eUS5D1MIOjBtcniihbq7T9E2,,,,,,,,,,,,,,,,,,,,,,657421f9661ce9a8cd7482d1,09:23:24,27/02/2024
html-keyboard-response,73,172722,0.0-32.0,,"<div style=""font-size:100px;"">+</div>",,delaylearn,learning,ITI,Mrv7eUS5D1MIOjBtcniihbq7T9E2,Mrv7eUS5D1MIOjBtcniihbq7T9E2,,,,,,,,,,,,,,,,,,,1648.0,,,657421f9661ce9a8cd7482d1,09:23:24,27/02/2024
html-keyboard-response,74,175090,0.0-33.0-0.0,2362.8999999910593,"<div style=""display: flex; flex-direction: column; align-items: center; margin-top: -40px;""><img src=""images/pattern_5.png"" style=""width: 234px; height: 230px; margin-top: -50px;""><div style=""display: flex; justify-content: space-between; margin-top: 33px;""><img src=""images/choice_trial_7.png"" style=""width: 408px; height: 417px; margin-right: 200px;""><img src=""images/choice_trial_13.png"" style=""width: 408px; height: 417px;""></div></div>",f,delaylearn,learning,trial,Mrv7eUS5D1MIOjBtcniihbq7T9E2,Mrv7eUS5D1MIOjBtcniihbq7T9E2,5.0,images/choice_trial_7.png,images/choice_trial_13.png,images/pattern_5.png,f,f,750.0,7.0,13.0,4.0,0.0,14.0,1.0,1.0,7.0,60.0,,,,,,657421f9661ce9a8cd7482d1,09:23:24,27/02/2024
html-keyboard-response,75,176098,0.0-33.0-1.0,,"<div style=""display: flex; flex-direction: column; align-items: center; margin-top: -40px;""><img src=""images/pattern_5.png"" style=""width: 234px; height: 230px; margin-top: -50px;""><div style=""display: flex; justify-content: space-between; margin-top: 33px;""><img src=""images/choice_trial_7.png"" style=""width: 408px; height: 417px; margin-right: 608px;""></div></div>",,delaylearn,learning,display_response,Mrv7eUS5D1MIOjBtcniihbq7T9E2,Mrv7eUS5D1MIOjBtcniihbq7T9E2,,,,,,,,,,,,,,,,,chosen stimuli: images/choice_trial_7.png,,,,,657421f9661ce9a8cd7482d1,09:23:24,27/02/2024
html-keyboard-response,76,176858,0.0-33.0-2.0,,,,delaylearn,learning,feedback_duration_window,Mrv7eUS5D1MIOjBtcniihbq7T9E2,Mrv7eUS5D1MIOjBtcniihbq7T9E2,,,,,,,,,,,,,,,,,,750.0,,,,657421f9661ce9a8cd7482d1,09:23:24,27/02/2024
html-keyboard-response,77,178374,0.0-33.0-3.0,,<div style='margin:auto;width: auto; font-size: 150%'><span style='font-weight: bold; font-size: 100px; color: green;'>+10 points!</span><br><br></div>,,delaylearn,learning,feedback_image_window,Mrv7eUS5D1MIOjBtcniihbq7T9E2,Mrv7eUS5D1MIOjBtcniihbq7T9E2,,,,,,,,,,,,,,,,,,,,,,657421f9661ce9a8cd7482d1,09:23:24,27/02/2024
html-keyboard-response,78,178883,0.0-34.0-0.0,,,,,,mood_trial_fixation,Mrv7eUS5D1MIOjBtcniihbq7T9E2,,,,,,,,,,,,,,,,,,,,,,,657421f9661ce9a8cd7482d1,09:23:24,27/02/2024
lmdlab-html-vas-response,79,185740,0.0-34.0-1.0,5846.0,How happy are you right now?,0.9145162931063714,delaylearn,learning,mood_trial,Mrv7eUS5D1MIOjBtcniihbq7T9E2,Mrv7eUS5D1MIOjBtcniihbq7T9E2,,,,,,,,,,,,,,,,,,,,"['Very unhappy', 'Very happy']",,657421f9661ce9a8cd7482d1,09:23:24,27/02/2024
html-keyboard-response,80,187772,0.0-35.0,,"<div style=""font-size:100px;"">+</div>",,delaylearn,learning,ITI,Mrv7eUS5D1MIOjBtcniihbq7T9E2,Mrv7eUS5D1MIOjBtcniihbq7T9E2,,,,,,,,,,,,,,,,,,,2025.0,,,657421f9661ce9a8cd7482d1,09:23:24,27/02/2024
html-keyboard-response,81,189611,0.0-36.0-0.0,1834.699999988079,"<div style=""display: flex; flex-direction: column; align-items: center; margin-top: -40px;""><img src=""images/pattern_6.png"" style=""width: 234px; height: 230px; margin-top: -50px;""><div style=""display: flex; justify-content: space-between; margin-top: 33px;""><img src=""images/choice_trial_14.png"" style=""width: 408px; height: 417px; margin-right: 200px;""><img src=""images/choice_trial_9.png"" style=""width: 408px; height: 417px;""></div></div>",j,delaylearn,learning,trial,Mrv7eUS5D1MIOjBtcniihbq7T9E2,Mrv7eUS5D1MIOjBtcniihbq7T9E2,5.0,images/choice_trial_14.png,images/choice_trial_9.png,images/pattern_6.png,f,f,750.0,14.0,9.0,5.0,0.0,15.0,0.0,0.0,9.0,60.0,,,,,,657421f9661ce9a8cd7482d1,09:23:24,27/02/2024
html-keyboard-response,82,190631,0.0-36.0-1.0,,"<div style=""display: flex; flex-direction: column; align-items: center; margin-top: -40px;""><img src=""images/pattern_6.png"" style=""width: 234px; height: 230px; margin-top: -50px;""><div style=""display: flex; justify-content: space-between; margin-top: 33px;""><img src=""images/choice_trial_9.png"" style=""width: 408px; height: 417px; margin-left:608px;""></div></div>",,delaylearn,learning,display_response,Mrv7eUS5D1MIOjBtcniihbq7T9E2,Mrv7eUS5D1MIOjBtcniihbq7T9E2,,,,,,,,,,,,,,,,,chosen stimuli: images/choice_trial_9.png,,,,,657421f9661ce9a8cd7482d1,09:23:24,27/02/2024
html-keyboard-response,83,191386,0.0-36.0-2.0,,,,delaylearn,learning,feedback_duration_window,Mrv7eUS5D1MIOjBtcniihbq7T9E2,Mrv7eUS5D1MIOjBtcniihbq7T9E2,,,,,,,,,,,,,,,,,,750.0,,,,657421f9661ce9a8cd7482d1,09:23:24,27/02/2024
html-keyboard-response,84,192900,0.0-36.0-3.0,,<div style='margin:auto;width: auto; font-size: 150%'><span style='font-weight: bold; font-size: 100px; color: red;'>0 points!</span><br><br></div>,,delaylearn,learning,feedback_image_window,Mrv7eUS5D1MIOjBtcniihbq7T9E2,Mrv7eUS5D1MIOjBtcniihbq7T9E2,,,,,,,,,,,,,,,,,,,,,,657421f9661ce9a8cd7482d1,09:23:24,27/02/2024
html-keyboard-response,85,195142,0.0-37.0,,"<div style=""font-size:100px;"">+</div>",,delaylearn,learning,ITI,Mrv7eUS5D1MIOjBtcniihbq7T9E2,Mrv7eUS5D1MIOjBtcniihbq7T9E2,,,,,,,,,,,,,,,,,,,2228.0,,,657421f9661ce9a8cd7482d1,09:23:24,27/02/2024
html-keyboard-response,86,196766,0.0-38.0-0.0,1619.1000000089407,"<div style=""display: flex; flex-direction: column; align-items: center; margin-top: -40px;""><img src=""images/pattern_4.png"" style=""width: 234px; height: 230px; margin-top: -50px;""><div style=""display: flex; justify-content: space-between; margin-top: 33px;""><img src=""images/choice_trial_4.png"" style=""width: 408px; height: 417px; margin-right: 200px;""><img src=""images/choice_trial_11.png"" style=""width: 408px; height: 417px;""></div></div>",j,delaylearn,learning,trial,Mrv7eUS5D1MIOjBtcniihbq7T9E2,Mrv7eUS5D1MIOjBtcniihbq7T9E2,5.0,images/choice_trial_4.png,images/choice_trial_11.png,images/pattern_4.png,j,j,7000.0,4.0,11.0,3.0,1.0,16.0,1.0,1.0,11.0,70.0,,,,,,657421f9661ce9a8cd7482d1,09:23:24,27/02/2024
html-keyboard-response,87,197774,0.0-38.0-1.0,,"<div style=""display: flex; flex-direction: column; align-items: center; margin-top: -40px;""><img src=""images/pattern_4.png"" style=""width: 234px; height: 230px; margin-top: -50px;""><div style=""display: flex; justify-content: space-between; margin-top: 33px;""><img src=""images/choice_trial_11.png"" style=""width: 408px; height: 417px; margin-left:608px;""></div></div>",,delaylearn,learning,display_response,Mrv7eUS5D1MIOjBtcniihbq7T9E2,Mrv7eUS5D1MIOjBtcniihbq7T9E2,,,,,,,,,,,,,,,,,chosen stimuli: images/choice_trial_11.png,,,,,657421f9661ce9a8cd7482d1,09:23:24,27/02/2024
html-keyboard-response,88,204790,0.0-38.0-2.0,,,,delaylearn,learning,feedback_duration_window,Mrv7eUS5D1MIOjBtcniihbq7T9E2,Mrv7eUS5D1MIOjBtcniihbq7T9E2,,,,,,,,,,,,,,,,,,7000.0,,,,657421f9661ce9a8cd7482d1,09:23:24,27/02/2024
html-keyboard-response,89,206302,0.0-38.0-3.0,,<div style='margin:auto;width: auto; font-size: 150%'><span style='font-weight: bold; font-size: 100px; color: green;'>+10 points!</span><br><br></div>,,delaylearn,learning,feedback_image_window,Mrv7eUS5D1MIOjBtcniihbq7T9E2,Mrv7eUS5D1MIOjBtcniihbq7T9E2,,,,,,,,,,,,,,,,,,,,,,657421f9661ce9a8cd7482d1,09:23:24,27/02/2024
html-keyboard-response,90,208450,0.0-39.0,,"<div style=""font-size:100px;"">+</div>",,delaylearn,learning,ITI,Mrv7eUS5D1MIOjBtcniihbq7T9E2,Mrv7eUS5D1MIOjBtcniihbq7T9E2,,,,,,,,,,,,,,,,,,,2128.0,,,657421f9661ce9a8cd7482d1,09:23:24,27/02/2024
html-keyboard-response,91,209924,0.0-40.0-0.0,1467.5999999940395,"<div style=""display: flex; flex-direction: column; align-items: center; margin-top: -40px;""><img src=""images/pattern_7.png"" style=""width: 234px; height: 230px; margin-top: -50px;""><div style=""display: flex; justify-content: space-between; margin-top: 33px;""><img src=""images/choice_trial_8.png"" style=""width: 408px; height: 417px; margin-right: 200px;""><img src=""images/choice_trial_10.png"" style=""width: 408px; height: 417px;""></div></div>",f,delaylearn,learning,trial,Mrv7eUS5D1MIOjBtcniihbq7T9E2,Mrv7eUS5D1MIOjBtcniihbq7T9E2,5.0,images/choice_trial_8.png,images/choice_trial_10.png,images/pattern_7.png,j,f,750.0,8.0,10.0,6.0,0.0,17.0,1.0,0.0,8.0,70.0,,,,,,657421f9661ce9a8cd7482d1,09:23:24,27/02/2024
html-keyboard-response,92,210935,0.0-40.0-1.0,,"<div style=""display: flex; flex-direction: column; align-items: center; margin-top: -40px;""><img src=""images/pattern_7.png"" style=""width: 234px; height: 230px; margin-top: -50px;""><div style=""display: flex; justify-content: space-between; margin-top: 33px;""><img src=""images/choice_trial_8.png"" style=""width: 408px; height: 417px; margin-right: 608px;""></div></div>",,delaylearn,learning,display_response,Mrv7eUS5D1MIOjBtcniihbq7T9E2,Mrv7eUS5D1MIOjBtcniihbq7T9E2,,,,,,,,,,,,,,,,,chosen stimuli: images/choice_trial_8.png,,,,,657421f9661ce9a8cd7482d1,09:23:24,27/02/2024
html-keyboard-response,93,211690,0.0-40.0-2.0,,,,delaylearn,learning,feedback_duration_window,Mrv7eUS5D1MIOjBtcniihbq7T9E2,Mrv7eUS5D1MIOjBtcniihbq7T9E2,,,,,,,,,,,,,,,,,,750.0,,,,657421f9661ce9a8cd7482d1,09:23:24,27/02/2024
html-keyboard-response,94,213202,0.0-40.0-3.0,,<div style='margin:auto;width: auto; font-size: 150%'><span style='font-weight: bold; font-size: 100px; color: red;'>0 points!</span><br><br></div>,,delaylearn,learning,feedback_image_window,Mrv7eUS5D1MIOjBtcniihbq7T9E2,Mrv7eUS5D1MIOjBtcniihbq7T9E2,,,,,,,,,,,,,,,,,,,,,,657421f9661ce9a8cd7482d1,09:23:24,27/02/2024
html-keyboard-response,95,214850,0.0-41.0,,"<div style=""font-size:100px;"">+</div>",,delaylearn,learning,ITI,Mrv7eUS5D1MIOjBtcniihbq7T9E2,Mrv7eUS5D1MIOjBtcniihbq7T9E2,,,,,,,,,,,,,,,,,,,1637.0,,,657421f9661ce9a8cd7482d1,09:23:24,27/02/2024
html-keyboard-response,96,216769,0.0-42.0-0.0,1913.800000011921,"<div style=""display: flex; flex-direction: column; align-items: center; margin-top: -40px;""><img src=""images/pattern_1.png"" style=""width: 234px; height: 230px; margin-top: -50px;""><div style=""display: flex; justify-content: space-between; margin-top: 33px;""><img src=""images/choice_trial_6.png"" style=""width: 408px; height: 417px; margin-right: 200px;""><img src=""images/choice_trial_15.png"" style=""width: 408px; height: 417px;""></div></div>",f,delaylearn,learning,trial,Mrv7eUS5D1MIOjBtcniihbq7T9E2,Mrv7eUS5D1MIOjBtcniihbq7T9E2,5.0,images/choice_trial_6.png,images/choice_trial_15.png,images/pattern_1.png,f,f,7000.0,6.0,15.0,1.0,0.0,18.0,1.0,1.0,6.0,80.0,,,,,,657421f9661ce9a8cd7482d1,09:23:24,27/02/2024
html-keyboard-response,97,217789,0.0-42.0-1.0,,"<div style=""display: flex; flex-direction: column; align-items: center; margin-top: -40px;""><img src=""images/pattern_1.png"" style=""width: 234px; height: 230px; margin-top: -50px;""><div style=""display: flex; justify-content: space-between; margin-top: 33px;""><img src=""images/choice_trial_6.png"" style=""width: 408px; height: 417px; margin-right: 608px;""></div></div>",,delaylearn,learning,display_response,Mrv7eUS5D1MIOjBtcniihbq7T9E2,Mrv7eUS5D1MIOjBtcniihbq7T9E2,,,,,,,,,,,,,,,,,chosen stimuli: images/choice_trial_6.png,,,,,657421f9661ce9a8cd7482d1,09:23:24,27/02/2024
html-keyboard-response,98,224801,0.0-42.0-2.0,,,,delaylearn,learning,feedback_duration_window,Mrv7eUS5D1MIOjBtcniihbq7T9E2,Mrv7eUS5D1MIOjBtcniihbq7T9E2,,,,,,,,,,,,,,,,,,7000.0,,,,657421f9661ce9a8cd7482d1,09:23:24,27/02/2024
html-keyboard-response,99,226316,0.0-42.0-3.0,,<div style='margin:auto;width: auto; font-size: 150%'><span style='font-weight: bold; font-size: 100px; color: green;'>+10 points!</span><br><br></div>,,delaylearn,learning,feedback_image_window,Mrv7eUS5D1MIOjBtcniihbq7T9E2,Mrv7eUS5D1MIOjBtcniihbq7T9E2,,,,,,,,,,,,,,,,,,,,,,657421f9661ce9a8cd7482d1,09:23:24,27/02/2024
html-keyboard-response,100,228157,0.0-43.0,,"<div style=""font-size:100px;"">+</div>",,delaylearn,learning,ITI,Mrv7eUS5D1MIOjBtcniihbq7T9E2,Mrv7eUS5D1MIOjBtcniihbq7T9E2,,,,,,,,,,,,,,,,,,,1837.0,,,657421f9661ce9a8cd7482d1,09:23:24,27/02/2024
html-keyboard-response,101,229967,0.0-44.0-0.0,1804.8999999910593,"<div style=""display: flex; flex-direction: column; align-items: center; margin-top: -40px;""><img src=""images/pattern_6.png"" style=""width: 234px; height: 230px; margin-top: -50px;""><div style=""display: flex; justify-content: space-between; margin-top: 33px;""><img src=""images/choice_trial_9.png"" style=""width: 408px; height: 417px; margin-right: 200px;""><img src=""images/choice_trial_14.png"" style=""width: 408px; height: 417px;""></div></div>",f,delaylearn,learning,trial,Mrv7eUS5D1MIOjBtcniihbq7T9E2,Mrv7eUS5D1MIOjBtcniihbq7T9E2,5.0,images/choice_trial_9.png,images/choice_trial_14.png,images/pattern_6.png,j,j,750.0,9.0,14.0,5.0,1.0,19.0,0.0,0.0,9.0,80.0,,,,,,657421f9661ce9a8cd7482d1,09:23:24,27/02/2024
html-keyboard-response,102,230973,0.0-44.0-1.0,,"<div style=""display: flex; flex-direction: column; align-items: center; margin-top: -40px;""><img src=""images/pattern_6.png"" style=""width: 234px; height: 230px; margin-top: -50px;""><div style=""display: flex; justify-content: space-between; margin-top: 33px;""><img src=""images/choice_trial_9.png"" style=""width: 408px; height: 417px; margin-right: 608px;""></div></div>",,delaylearn,learning,display_response,Mrv7eUS5D1MIOjBtcniihbq7T9E2,Mrv7eUS5D1MIOjBtcniihbq7T9E2,,,,,,,,,,,,,,,,,chosen stimuli: images/choice_trial_9.png,,,,,657421f9661ce9a8cd7482d1,09:23:24,27/02/2024
html-keyboard-response,103,231731,0.0-44.0-2.0,,,,delaylearn,learning,feedback_duration_window,Mrv7eUS5D1MIOjBtcniihbq7T9E2,Mrv7eUS5D1MIOjBtcniihbq7T9E2,,,,,,,,,,,,,,,,,,750.0,,,,657421f9661ce9a8cd7482d1,09:23:24,27/02/2024
html-keyboard-response,104,233245,0.0-44.0-3.0,,<div style='margin:auto;width: auto; font-size: 150%'><span style='font-weight: bold; font-size: 100px; color: red;'>0 points!</span><br><br></div>,,delaylearn,learning,feedback_image_window,Mrv7eUS5D1MIOjBtcniihbq7T9E2,Mrv7eUS5D1MIOjBtcniihbq7T9E2,,,,,,,,,,,,,,,,,,,,,,657421f9661ce9a8cd7482d1,09:23:24,27/02/2024
html-keyboard-response,105,235129,0.0-45.0,,"<div style=""font-size:100px;"">+</div>",,delaylearn,learning,ITI,Mrv7eUS5D1MIOjBtcniihbq7T9E2,Mrv7eUS5D1MIOjBtcniihbq7T9E2,,,,,,,,,,,,,,,,,,,1879.0,,,657421f9661ce9a8cd7482d1,09:23:24,27/02/2024
html-keyboard-response,106,236236,0.0-46.0-0.0,1100.0999999940395,"<div style=""display: flex; flex-direction: column; align-items: center; margin-top: -40px;""><img src=""images/pattern_4.png"" style=""width: 234px; height: 230px; margin-top: -50px;""><div style=""display: flex; justify-content: space-between; margin-top: 33px;""><img src=""images/choice_trial_11.png"" style=""width: 408px; height: 417px; margin-right: 200px;""><img src=""images/choice_trial_4.png"" style=""width: 408px; height: 417px;""></div></div>",f,delaylearn,learning,trial,Mrv7eUS5D1MIOjBtcniihbq7T9E2,Mrv7eUS5D1MIOjBtcniihbq7T9E2,5.0,images/choice_trial_11.png,images/choice_trial_4.png,images/pattern_4.png,f,f,7000.0,11.0,4.0,3.0,0.0,20.0,1.0,1.0,11.0,90.0,,,,,,657421f9661ce9a8cd7482d1,09:23:24,27/02/2024
html-keyboard-response,107,237248,0.0-46.0-1.0,,"<div style=""display: flex; flex-direction: column; align-items: center; margin-top: -40px;""><img src=""images/pattern_4.png"" style=""width: 234px; height: 230px; margin-top: -50px;""><div style=""display: flex; justify-content: space-between; margin-top: 33px;""><img src=""images/choice_trial_11.png"" style=""width: 408px; height: 417px; margin-right: 608px;""></div></div>",,delaylearn,learning,display_response,Mrv7eUS5D1MIOjBtcniihbq7T9E2,Mrv7eUS5D1MIOjBtcniihbq7T9E2,,,,,,,,,,,,,,,,,chosen stimuli: images/choice_trial_11.png,,,,,657421f9661ce9a8cd7482d1,09:23:24,27/02/2024
html-keyboard-response,108,244252,0.0-46.0-2.0,,,,delaylearn,learning,feedback_duration_window,Mrv7eUS5D1MIOjBtcniihbq7T9E2,Mrv7eUS5D1MIOjBtcniihbq7T9E2,,,,,,,,,,,,,,,,,,7000.0,,,,657421f9661ce9a8cd7482d1,09:23:24,27/02/2024
html-keyboard-response,109,245764,0.0-46.0-3.0,,<div style='margin:auto;width: auto; font-size: 150%'><span style='font-weight: bold; font-size: 100px; color: green;'>+10 points!</span><br><br></div>,,delaylearn,learning,feedback_image_window,Mrv7eUS5D1MIOjBtcniihbq7T9E2,Mrv7eUS5D1MIOjBtcniihbq7T9E2,,,,,,,,,,,,,,,,,,,,,,657421f9661ce9a8cd7482d1,09:23:24,27/02/2024
html-keyboard-response,110,246275,0.0-47.0-0.0,,,,,,mood_trial_fixation,Mrv7eUS5D1MIOjBtcniihbq7T9E2,,,,,,,,,,,,,,,,,,,,,,,657421f9661ce9a8cd7482d1,09:23:24,27/02/2024
lmdlab-html-vas-response,111,254177,0.0-47.0-1.0,6880.0,How happy are you right now?,0.8385609168898986,delaylearn,learning,mood_trial,Mrv7eUS5D1MIOjBtcniihbq7T9E2,Mrv7eUS5D1MIOjBtcniihbq7T9E2,,,,,,,,,,,,,,,,,,,,"['Very unhappy', 'Very happy']",,657421f9661ce9a8cd7482d1,09:23:24,27/02/2024
html-keyboard-response,112,256220,0.0-48.0,,"<div style=""font-size:100px;"">+</div>",,delaylearn,learning,ITI,Mrv7eUS5D1MIOjBtcniihbq7T9E2,Mrv7eUS5D1MIOjBtcniihbq7T9E2,,,,,,,,,,,,,,,,,,,2028.0,,,657421f9661ce9a8cd7482d1,09:23:24,27/02/2024
html-keyboard-response,113,257830,0.0-49.0-0.0,1603.4000000059605,"<div style=""display: flex; flex-direction: column; align-items: center; margin-top: -40px;""><img src=""images/pattern_7.png"" style=""width: 234px; height: 230px; margin-top: -50px;""><div style=""display: flex; justify-content: space-between; margin-top: 33px;""><img src=""images/choice_trial_10.png"" style=""width: 408px; height: 417px; margin-right: 200px;""><img src=""images/choice_trial_8.png"" style=""width: 408px; height: 417px;""></div></div>",f,delaylearn,learning,trial,Mrv7eUS5D1MIOjBtcniihbq7T9E2,Mrv7eUS5D1MIOjBtcniihbq7T9E2,5.0,images/choice_trial_10.png,images/choice_trial_8.png,images/pattern_7.png,j,j,750.0,10.0,8.0,6.0,1.0,21.0,0.0,0.0,10.0,90.0,,,,,,657421f9661ce9a8cd7482d1,09:23:24,27/02/2024
html-keyboard-response,114,258841,0.0-49.0-1.0,,"<div style=""display: flex; flex-direction: column; align-items: center; margin-top: -40px;""><img src=""images/pattern_7.png"" style=""width: 234px; height: 230px; margin-top: -50px;""><div style=""display: flex; justify-content: space-between; margin-top: 33px;""><img src=""images/choice_trial_10.png"" style=""width: 408px; height: 417px; margin-right: 608px;""></div></div>",,delaylearn,learning,display_response,Mrv7eUS5D1MIOjBtcniihbq7T9E2,Mrv7eUS5D1MIOjBtcniihbq7T9E2,,,,,,,,,,,,,,,,,chosen stimuli: images/choice_trial_10.png,,,,,657421f9661ce9a8cd7482d1,09:23:24,27/02/2024
html-keyboard-response,115,259595,0.0-49.0-2.0,,,,delaylearn,learning,feedback_duration_window,Mrv7eUS5D1MIOjBtcniihbq7T9E2,Mrv7eUS5D1MIOjBtcniihbq7T9E2,,,,,,,,,,,,,,,,,,750.0,,,,657421f9661ce9a8cd7482d1,09:23:24,27/02/2024
html-keyboard-response,116,261104,0.0-49.0-3.0,,<div style='margin:auto;width: auto; font-size: 150%'><span style='font-weight: bold; font-size: 100px; color: red;'>0 points!</span><br><br></div>,,delaylearn,learning,feedback_image_window,Mrv7eUS5D1MIOjBtcniihbq7T9E2,Mrv7eUS5D1MIOjBtcniihbq7T9E2,,,,,,,,,,,,,,,,,,,,,,657421f9661ce9a8cd7482d1,09:23:24,27/02/2024
html-keyboard-response,117,263438,0.0-50.0,,"<div style=""font-size:100px;"">+</div>",,delaylearn,learning,ITI,Mrv7eUS5D1MIOjBtcniihbq7T9E2,Mrv7eUS5D1MIOjBtcniihbq7T9E2,,,,,,,,,,,,,,,,,,,2320.0,,,657421f9661ce9a8cd7482d1,09:23:24,27/02/2024
html-keyboard-response,118,265402,0.0-51.0-0.0,1958.300000011921,"<div style=""display: flex; flex-direction: column; align-items: center; margin-top: -40px;""><img src=""images/pattern_1.png"" style=""width: 234px; height: 230px; margin-top: -50px;""><div style=""display: flex; justify-content: space-between; margin-top: 33px;""><img src=""images/choice_trial_15.png"" style=""width: 408px; height: 417px; margin-right: 200px;""><img src=""images/choice_trial_6.png"" style=""width: 408px; height: 417px;""></div></div>",j,delaylearn,learning,trial,Mrv7eUS5D1MIOjBtcniihbq7T9E2,Mrv7eUS5D1MIOjBtcniihbq7T9E2,5.0,images/choice_trial_15.png,images/choice_trial_6.png,images/pattern_1.png,f,j,7000.0,15.0,6.0,1.0,1.0,22.0,1.0,0.0,6.0,90.0,,,,,,657421f9661ce9a8cd7482d1,09:23:24,27/02/2024
html-keyboard-response,119,266416,0.0-51.0-1.0,,"<div style=""display: flex; flex-direction: column; align-items: center; margin-top: -40px;""><img src=""images/pattern_1.png"" style=""width: 234px; height: 230px; margin-top: -50px;""><div style=""display: flex; justify-content: space-between; margin-top: 33px;""><img src=""images/choice_trial_6.png"" style=""width: 408px; height: 417px; margin-left:608px;""></div></div>",,delaylearn,learning,display_response,Mrv7eUS5D1MIOjBtcniihbq7T9E2,Mrv7eUS5D1MIOjBtcniihbq7T9E2,,,,,,,,,,,,,,,,,chosen stimuli: images/choice_trial_6.png,,,,,657421f9661ce9a8cd7482d1,09:23:24,27/02/2024
html-keyboard-response,120,273434,0.0-51.0-2.0,,,,delaylearn,learning,feedback_duration_window,Mrv7eUS5D1MIOjBtcniihbq7T9E2,Mrv7eUS5D1MIOjBtcniihbq7T9E2,,,,,,,,,,,,,,,,,,7000.0,,,,657421f9661ce9a8cd7482d1,09:23:24,27/02/2024
html-keyboard-response,121,274942,0.0-51.0-3.0,,<div style='margin:auto;width: auto; font-size: 150%'><span style='font-weight: bold; font-size: 100px; color: red;'>0 points!</span><br><br></div>,,delaylearn,learning,feedback_image_window,Mrv7eUS5D1MIOjBtcniihbq7T9E2,Mrv7eUS5D1MIOjBtcniihbq7T9E2,,,,,,,,,,,,,,,,,,,,,,657421f9661ce9a8cd7482d1,09:23:24,27/02/2024
html-keyboard-response,122,277377,0.0-52.0,,"<div style=""font-size:100px;"">+</div>",,delaylearn,learning,ITI,Mrv7eUS5D1MIOjBtcniihbq7T9E2,Mrv7eUS5D1MIOjBtcniihbq7T9E2,,,,,,,,,,,,,,,,,,,2419.0,,,657421f9661ce9a8cd7482d1,09:23:24,27/02/2024
html-keyboard-response,123,279263,0.0-53.0-0.0,1879.699999988079,"<div style=""display: flex; flex-direction: column; align-items: center; margin-top: -40px;""><img src=""images/pattern_5.png"" style=""width: 234px; height: 230px; margin-top: -50px;""><div style=""display: flex; justify-content: space-between; margin-top: 33px;""><img src=""images/choice_trial_13.png"" style=""width: 408px; height: 417px; margin-right: 200px;""><img src=""images/choice_trial_7.png"" style=""width: 408px; height: 417px;""></div></div>",j,delaylearn,learning,trial,Mrv7eUS5D1MIOjBtcniihbq7T9E2,Mrv7eUS5D1MIOjBtcniihbq7T9E2,5.0,images/choice_trial_13.png,images/choice_trial_7.png,images/pattern_5.png,j,j,750.0,13.0,7.0,4.0,1.0,23.0,1.0,1.0,7.0,100.0,,,,,,657421f9661ce9a8cd7482d1,09:23:24,27/02/2024
html-keyboard-response,124,280274,0.0-53.0-1.0,,"<div style=""display: flex; flex-direction: column; align-items: center; margin-top: -40px;""><img src=""images/pattern_5.png"" style=""width: 234px; height: 230px; margin-top: -50px;""><div style=""display: flex; justify-content: space-between; margin-top: 33px;""><img src=""images/choice_trial_7.png"" style=""width: 408px; height: 417px; margin-left:608px;""></div></div>",,delaylearn,learning,display_response,Mrv7eUS5D1MIOjBtcniihbq7T9E2,Mrv7eUS5D1MIOjBtcniihbq7T9E2,,,,,,,,,,,,,,,,,chosen stimuli: images/choice_trial_7.png,,,,,657421f9661ce9a8cd7482d1,09:23:24,27/02/2024
html-keyboard-response,125,281031,0.0-53.0-2.0,,,,delaylearn,learning,feedback_duration_window,Mrv7eUS5D1MIOjBtcniihbq7T9E2,Mrv7eUS5D1MIOjBtcniihbq7T9E2,,,,,,,,,,,,,,,,,,750.0,,,,657421f9661ce9a8cd7482d1,09:23:24,27/02/2024
html-keyboard-response,126,282535,0.0-53.0-3.0,,<div style='margin:auto;width: auto; font-size: 150%'><span style='font-weight: bold; font-size: 100px; color: green;'>+10 points!</span><br><br></div>,,delaylearn,learning,feedback_image_window,Mrv7eUS5D1MIOjBtcniihbq7T9E2,Mrv7eUS5D1MIOjBtcniihbq7T9E2,,,,,,,,,,,,,,,,,,,,,,657421f9661ce9a8cd7482d1,09:23:24,27/02/2024
html-keyboard-response,127,284431,0.0-54.0,,"<div style=""font-size:100px;"">+</div>",,delaylearn,learning,ITI,Mrv7eUS5D1MIOjBtcniihbq7T9E2,Mrv7eUS5D1MIOjBtcniihbq7T9E2,,,,,,,,,,,,,,,,,,,1886.0,,,657421f9661ce9a8cd7482d1,09:23:24,27/02/2024
html-keyboard-response,128,286197,0.0-55.0-0.0,1761.5,"<div style=""display: flex; flex-direction: column; align-items: center; margin-top: -40px;""><img src=""images/pattern_3.png"" style=""width: 234px; height: 230px; margin-top: -50px;""><div style=""display: flex; justify-content: space-between; margin-top: 33px;""><img src=""images/choice_trial_2.png"" style=""width: 408px; height: 417px; margin-right: 200px;""><img src=""images/choice_trial_16.png"" style=""width: 408px; height: 417px;""></div></div>",f,delaylearn,learning,trial,Mrv7eUS5D1MIOjBtcniihbq7T9E2,Mrv7eUS5D1MIOjBtcniihbq7T9E2,5.0,images/choice_trial_2.png,images/choice_trial_16.png,images/pattern_3.png,j,j,7000.0,2.0,16.0,2.0,1.0,24.0,0.0,0.0,2.0,100.0,,,,,,657421f9661ce9a8cd7482d1,09:23:24,27/02/2024
html-keyboard-response,129,287214,0.0-55.0-1.0,,"<div style=""display: flex; flex-direction: column; align-items: center; margin-top: -40px;""><img src=""images/pattern_3.png"" style=""width: 234px; height: 230px; margin-top: -50px;""><div style=""display: flex; justify-content: space-between; margin-top: 33px;""><img src=""images/choice_trial_2.png"" style=""width: 408px; height: 417px; margin-right: 608px;""></div></div>",,delaylearn,learning,display_response,Mrv7eUS5D1MIOjBtcniihbq7T9E2,Mrv7eUS5D1MIOjBtcniihbq7T9E2,,,,,,,,,,,,,,,,,chosen stimuli: images/choice_trial_2.png,,,,,657421f9661ce9a8cd7482d1,09:23:24,27/02/2024
html-keyboard-response,130,294233,0.0-55.0-2.0,,,,delaylearn,learning,feedback_duration_window,Mrv7eUS5D1MIOjBtcniihbq7T9E2,Mrv7eUS5D1MIOjBtcniihbq7T9E2,,,,,,,,,,,,,,,,,,7000.0,,,,657421f9661ce9a8cd7482d1,09:23:24,27/02/2024
html-keyboard-response,131,295746,0.0-55.0-3.0,,<div style='margin:auto;width: auto; font-size: 150%'><span style='font-weight: bold; font-size: 100px; color: red;'>0 points!</span><br><br></div>,,delaylearn,learning,feedback_image_window,Mrv7eUS5D1MIOjBtcniihbq7T9E2,Mrv7eUS5D1MIOjBtcniihbq7T9E2,,,,,,,,,,,,,,,,,,,,,,657421f9661ce9a8cd7482d1,09:23:24,27/02/2024
lmdlab-html-vas-response,132,303988,0.0-56.0-0.0,6705.0,*How <b><u>confident</u></b> are you feeling about your answers at this moment?*,0.7105218541249873,rewlearn,rate_confidence,,Mrv7eUS5D1MIOjBtcniihbq7T9E2,Mrv7eUS5D1MIOjBtcniihbq7T9E2,,,,,,,,,,,,,,,,,,,,"['No confidence', 'Complete confidence']",,657421f9661ce9a8cd7482d1,09:23:24,27/02/2024
lmdlab-rest-trial-limit,133,316879,0.0-56.0-1.0,11372.29999999702,"<div style=""font-size:40px;""><b>Please take a break!</b><br><br><br><br><p>Great work: you earned undefined points.<br><br><br><p>You have completed part(s) 1 of 6.<br><br><br><br>When you are ready to continue<br><br><br>please click the button.</p><br><br>",0,delaylearn,learning,break,Mrv7eUS5D1MIOjBtcniihbq7T9E2,Mrv7eUS5D1MIOjBtcniihbq7T9E2,,,,,,,,,,,,,,,,,,,,,0.0,657421f9661ce9a8cd7482d1,09:23:24,27/02/2024
html-keyboard-response,134,319896,0.0-56.0-2.0,,"<div style=""font-size:100px;"">+</div>",,delaylearn,learning,pre_fixation,Mrv7eUS5D1MIOjBtcniihbq7T9E2,,,,,,,,,,,,,,,,,,,,,,,657421f9661ce9a8cd7482d1,09:23:24,27/02/2024
lmdlab-html-vas-response,135,325242,0.0-56.0-3.0-0.0,4333.0,How happy are you right now?,0.929707368349666,delaylearn,learning,mood_baseline,Mrv7eUS5D1MIOjBtcniihbq7T9E2,Mrv7eUS5D1MIOjBtcniihbq7T9E2,,,,,,,,,,,,,,,,,,,,"['Very unhappy', 'Very happy']",,657421f9661ce9a8cd7482d1,09:23:24,27/02/2024
html-keyboard-response,136,326751,0.0-56.0-3.0-1.0,,,,,,mood_baseline_fixation,Mrv7eUS5D1MIOjBtcniihbq7T9E2,,,,,,,,,,,,,,,,,,,,,,,657421f9661ce9a8cd7482d1,09:23:24,27/02/2024
html-keyboard-response,137,328587,0.0-57.0,,"<div style=""font-size:100px;"">+</div>",,delaylearn,learning,ITI,Mrv7eUS5D1MIOjBtcniihbq7T9E2,Mrv7eUS5D1MIOjBtcniihbq7T9E2,,,,,,,,,,,,,,,,,,,1829.0,,,657421f9661ce9a8cd7482d1,09:23:24,27/02/2024
html-keyboard-response,138,329956,0.0-58.0-0.0,1364.2999999970198,"<div style=""display: flex; flex-direction: column; align-items: center; margin-top: -40px;""><img src=""images/pattern_7.png"" style=""width: 234px; height: 230px; margin-top: -50px;""><div style=""display: flex; justify-content: space-between; margin-top: 33px;""><img src=""images/choice_trial_10.png"" style=""width: 408px; height: 417px; margin-right: 200px;""><img src=""images/choice_trial_8.png"" style=""width: 408px; height: 417px;""></div></div>",j,delaylearn,learning,trial,Mrv7eUS5D1MIOjBtcniihbq7T9E2,Mrv7eUS5D1MIOjBtcniihbq7T9E2,5.0,images/choice_trial_10.png,images/choice_trial_8.png,images/pattern_7.png,j,j,750.0,10.0,8.0,6.0,1.0,25.0,1.0,1.0,8.0,110.0,,,,,,657421f9661ce9a8cd7482d1,09:23:24,27/02/2024
html-keyboard-response,139,330972,0.0-58.0-1.0,,"<div style=""display: flex; flex-direction: column; align-items: center; margin-top: -40px;""><img src=""images/pattern_7.png"" style=""width: 234px; height: 230px; margin-top: -50px;""><div style=""display: flex; justify-content: space-between; margin-top: 33px;""><img src=""images/choice_trial_8.png"" style=""width: 408px; height: 417px; margin-left:608px;""></div></div>",,delaylearn,learning,display_response,Mrv7eUS5D1MIOjBtcniihbq7T9E2,Mrv7eUS5D1MIOjBtcniihbq7T9E2,,,,,,,,,,,,,,,,,chosen stimuli: images/choice_trial_8.png,,,,,657421f9661ce9a8cd7482d1,09:23:24,27/02/2024
html-keyboard-response,140,331735,0.0-58.0-2.0,,,,delaylearn,learning,feedback_duration_window,Mrv7eUS5D1MIOjBtcniihbq7T9E2,Mrv7eUS5D1MIOjBtcniihbq7T9E2,,,,,,,,,,,,,,,,,,750.0,,,,657421f9661ce9a8cd7482d1,09:23:24,27/02/2024
html-keyboard-response,141,333242,0.0-58.0-3.0,,<div style='margin:auto;width: auto; font-size: 150%'><span style='font-weight: bold; font-size: 100px; color: green;'>+10 points!</span><br><br></div>,,delaylearn,learning,feedback_image_window,Mrv7eUS5D1MIOjBtcniihbq7T9E2,Mrv7eUS5D1MIOjBtcniihbq7T9E2,,,,,,,,,,,,,,,,,,,,,,657421f9661ce9a8cd7482d1,09:23:24,27/02/2024
html-keyboard-response,142,333754,0.0-59.0-0.0,,,,,,mood_trial_fixation,Mrv7eUS5D1MIOjBtcniihbq7T9E2,,,,,,,,,,,,,,,,,,,,,,,657421f9661ce9a8cd7482d1,09:23:24,27/02/2024
lmdlab-html-vas-response,143,344085,0.0-59.0-1.0,9318.0,How happy are you right now?,0.860262452951748,delaylearn,learning,mood_trial,Mrv7eUS5D1MIOjBtcniihbq7T9E2,Mrv7eUS5D1MIOjBtcniihbq7T9E2,,,,,,,,,,,,,,,,,,,,"['Very unhappy', 'Very happy']",,657421f9661ce9a8cd7482d1,09:23:24,27/02/2024
html-keyboard-response,144,346039,0.0-60.0,,"<div style=""font-size:100px;"">+</div>",,delaylearn,learning,ITI,Mrv7eUS5D1MIOjBtcniihbq7T9E2,Mrv7eUS5D1MIOjBtcniihbq7T9E2,,,,,,,,,,,,,,,,,,,1940.0,,,657421f9661ce9a8cd7482d1,09:23:24,27/02/2024
html-keyboard-response,145,347529,0.0-61.0-0.0,1485.4000000059605,"<div style=""display: flex; flex-direction: column; align-items: center; margin-top: -40px;""><img src=""images/pattern_1.png"" style=""width: 234px; height: 230px; margin-top: -50px;""><div style=""display: flex; justify-content: space-between; margin-top: 33px;""><img src=""images/choice_trial_6.png"" style=""width: 408px; height: 417px; margin-right: 200px;""><img src=""images/choice_trial_15.png"" style=""width: 408px; height: 417px;""></div></div>",j,delaylearn,learning,trial,Mrv7eUS5D1MIOjBtcniihbq7T9E2,Mrv7eUS5D1MIOjBtcniihbq7T9E2,5.0,images/choice_trial_6.png,images/choice_trial_15.png,images/pattern_1.png,f,f,7000.0,6.0,15.0,1.0,0.0,26.0,0.0,0.0,15.0,110.0,,,,,,657421f9661ce9a8cd7482d1,09:23:24,27/02/2024
html-keyboard-response,146,348549,0.0-61.0-1.0,,"<div style=""display: flex; flex-direction: column; align-items: center; margin-top: -40px;""><img src=""images/pattern_1.png"" style=""width: 234px; height: 230px; margin-top: -50px;""><div style=""display: flex; justify-content: space-between; margin-top: 33px;""><img src=""images/choice_trial_15.png"" style=""width: 408px; height: 417px; margin-left:608px;""></div></div>",,delaylearn,learning,display_response,Mrv7eUS5D1MIOjBtcniihbq7T9E2,Mrv7eUS5D1MIOjBtcniihbq7T9E2,,,,,,,,,,,,,,,,,chosen stimuli: images/choice_trial_15.png,,,,,657421f9661ce9a8cd7482d1,09:23:24,27/02/2024
html-keyboard-response,147,355556,0.0-61.0-2.0,,,,delaylearn,learning,feedback_duration_window,Mrv7eUS5D1MIOjBtcniihbq7T9E2,Mrv7eUS5D1MIOjBtcniihbq7T9E2,,,,,,,,,,,,,,,,,,7000.0,,,,657421f9661ce9a8cd7482d1,09:23:24,27/02/2024
html-keyboard-response,148,357061,0.0-61.0-3.0,,<div style='margin:auto;width: auto; font-size: 150%'><span style='font-weight: bold; font-size: 100px; color: red;'>0 points!</span><br><br></div>,,delaylearn,learning,feedback_image_window,Mrv7eUS5D1MIOjBtcniihbq7T9E2,Mrv7eUS5D1MIOjBtcniihbq7T9E2,,,,,,,,,,,,,,,,,,,,,,657421f9661ce9a8cd7482d1,09:23:24,27/02/2024
html-keyboard-response,149,358952,0.0-62.0,,"<div style=""font-size:100px;"">+</div>",,delaylearn,learning,ITI,Mrv7eUS5D1MIOjBtcniihbq7T9E2,Mrv7eUS5D1MIOjBtcniihbq7T9E2,,,,,,,,,,,,,,,,,,,1874.0,,,657421f9661ce9a8cd7482d1,09:23:24,27/02/2024
html-keyboard-response,150,360535,0.0-63.0-0.0,1578.2999999970198,"<div style=""display: flex; flex-direction: column; align-items: center; margin-top: -40px;""><img src=""images/pattern_5.png"" style=""width: 234px; height: 230px; margin-top: -50px;""><div style=""display: flex; justify-content: space-between; margin-top: 33px;""><img src=""images/choice_trial_7.png"" style=""width: 408px; height: 417px; margin-right: 200px;""><img src=""images/choice_trial_13.png"" style=""width: 408px; height: 417px;""></div></div>",f,delaylearn,learning,trial,Mrv7eUS5D1MIOjBtcniihbq7T9E2,Mrv7eUS5D1MIOjBtcniihbq7T9E2,5.0,images/choice_trial_7.png,images/choice_trial_13.png,images/pattern_5.png,f,f,750.0,7.0,13.0,4.0,0.0,27.0,1.0,1.0,7.0,120.0,,,,,,657421f9661ce9a8cd7482d1,09:23:24,27/02/2024
html-keyboard-response,151,361543,0.0-63.0-1.0,,"<div style=""display: flex; flex-direction: column; align-items: center; margin-top: -40px;""><img src=""images/pattern_5.png"" style=""width: 234px; height: 230px; margin-top: -50px;""><div style=""display: flex; justify-content: space-between; margin-top: 33px;""><img src=""images/choice_trial_7.png"" style=""width: 408px; height: 417px; margin-right: 608px;""></div></div>",,delaylearn,learning,display_response,Mrv7eUS5D1MIOjBtcniihbq7T9E2,Mrv7eUS5D1MIOjBtcniihbq7T9E2,,,,,,,,,,,,,,,,,chosen stimuli: images/choice_trial_7.png,,,,,657421f9661ce9a8cd7482d1,09:23:24,27/02/2024
html-keyboard-response,152,362302,0.0-63.0-2.0,,,,delaylearn,learning,feedback_duration_window,Mrv7eUS5D1MIOjBtcniihbq7T9E2,Mrv7eUS5D1MIOjBtcniihbq7T9E2,,,,,,,,,,,,,,,,,,750.0,,,,657421f9661ce9a8cd7482d1,09:23:24,27/02/2024
html-keyboard-response,153,363811,0.0-63.0-3.0,,<div style='margin:auto;width: auto; font-size: 150%'><span style='font-weight: bold; font-size: 100px; color: green;'>+10 points!</span><br><br></div>,,delaylearn,learning,feedback_image_window,Mrv7eUS5D1MIOjBtcniihbq7T9E2,Mrv7eUS5D1MIOjBtcniihbq7T9E2,,,,,,,,,,,,,,,,,,,,,,657421f9661ce9a8cd7482d1,09:23:24,27/02/2024
html-keyboard-response,154,365318,0.0-64.0,,"<div style=""font-size:100px;"">+</div>",,delaylearn,learning,ITI,Mrv7eUS5D1MIOjBtcniihbq7T9E2,Mrv7eUS5D1MIOjBtcniihbq7T9E2,,,,,,,,,,,,,,,,,,,1500.0,,,657421f9661ce9a8cd7482d1,09:23:24,27/02/2024
html-keyboard-response,155,367635,0.0-65.0-0.0,2310.800000011921,"<div style=""display: flex; flex-direction: column; align-items: center; margin-top: -40px;""><img src=""images/pattern_6.png"" style=""width: 234px; height: 230px; margin-top: -50px;""><div style=""display: flex; justify-content: space-between; margin-top: 33px;""><img src=""images/choice_trial_9.png"" style=""width: 408px; height: 417px; margin-right: 200px;""><img src=""images/choice_trial_14.png"" style=""width: 408px; height: 417px;""></div></div>",j,delaylearn,learning,trial,Mrv7eUS5D1MIOjBtcniihbq7T9E2,Mrv7eUS5D1MIOjBtcniihbq7T9E2,5.0,images/choice_trial_9.png,images/choice_trial_14.png,images/pattern_6.png,j,j,750.0,9.0,14.0,5.0,1.0,28.0,1.0,1.0,14.0,130.0,,,,,,657421f9661ce9a8cd7482d1,09:23:24,27/02/2024
html-keyboard-response,156,368652,0.0-65.0-1.0,,"<div style=""display: flex; flex-direction: column; align-items: center; margin-top: -40px;""><img src=""images/pattern_6.png"" style=""width: 234px; height: 230px; margin-top: -50px;""><div style=""display: flex; justify-content: space-between; margin-top: 33px;""><img src=""images/choice_trial_14.png"" style=""width: 408px; height: 417px; margin-left:608px;""></div></div>",,delaylearn,learning,display_response,Mrv7eUS5D1MIOjBtcniihbq7T9E2,Mrv7eUS5D1MIOjBtcniihbq7T9E2,,,,,,,,,,,,,,,,,chosen stimuli: images/choice_trial_14.png,,,,,657421f9661ce9a8cd7482d1,09:23:24,27/02/2024
html-keyboard-response,157,369413,0.0-65.0-2.0,,,,delaylearn,learning,feedback_duration_window,Mrv7eUS5D1MIOjBtcniihbq7T9E2,Mrv7eUS5D1MIOjBtcniihbq7T9E2,,,,,,,,,,,,,,,,,,750.0,,,,657421f9661ce9a8cd7482d1,09:23:24,27/02/2024
html-keyboard-response,158,370934,0.0-65.0-3.0,,<div style='margin:auto;width: auto; font-size: 150%'><span style='font-weight: bold; font-size: 100px; color: green;'>+10 points!</span><br><br></div>,,delaylearn,learning,feedback_image_window,Mrv7eUS5D1MIOjBtcniihbq7T9E2,Mrv7eUS5D1MIOjBtcniihbq7T9E2,,,,,,,,,,,,,,,,,,,,,,657421f9661ce9a8cd7482d1,09:23:24,27/02/2024
html-keyboard-response,159,371448,0.0-66.0-0.0,,,,,,mood_trial_fixation,Mrv7eUS5D1MIOjBtcniihbq7T9E2,,,,,,,,,,,,,,,,,,,,,,,657421f9661ce9a8cd7482d1,09:23:24,27/02/2024
lmdlab-html-vas-response,160,376251,0.0-66.0-1.0,3794.0,How happy are you right now?,0.8776236818012275,delaylearn,learning,mood_trial,Mrv7eUS5D1MIOjBtcniihbq7T9E2,Mrv7eUS5D1MIOjBtcniihbq7T9E2,,,,,,,,,,,,,,,,,,,,"['Very unhappy', 'Very happy']",,657421f9661ce9a8cd7482d1,09:23:24,27/02/2024
html-keyboard-response,161,378689,0.0-67.0,,"<div style=""font-size:100px;"">+</div>",,delaylearn,learning,ITI,Mrv7eUS5D1MIOjBtcniihbq7T9E2,Mrv7eUS5D1MIOjBtcniihbq7T9E2,,,,,,,,,,,,,,,,,,,2431.0,,,657421f9661ce9a8cd7482d1,09:23:24,27/02/2024
html-keyboard-response,162,380142,0.0-68.0-0.0,1445.0999999940395,"<div style=""display: flex; flex-direction: column; align-items: center; margin-top: -40px;""><img src=""images/pattern_4.png"" style=""width: 234px; height: 230px; margin-top: -50px;""><div style=""display: flex; justify-content: space-between; margin-top: 33px;""><img src=""images/choice_trial_4.png"" style=""width: 408px; height: 417px; margin-right: 200px;""><img src=""images/choice_trial_11.png"" style=""width: 408px; height: 417px;""></div></div>",j,delaylearn,learning,trial,Mrv7eUS5D1MIOjBtcniihbq7T9E2,Mrv7eUS5D1MIOjBtcniihbq7T9E2,5.0,images/choice_trial_4.png,images/choice_trial_11.png,images/pattern_4.png,j,j,7000.0,4.0,11.0,3.0,1.0,29.0,1.0,1.0,11.0,140.0,,,,,,657421f9661ce9a8cd7482d1,09:23:24,27/02/2024
html-keyboard-response,163,381157,0.0-68.0-1.0,,"<div style=""display: flex; flex-direction: column; align-items: center; margin-top: -40px;""><img src=""images/pattern_4.png"" style=""width: 234px; height: 230px; margin-top: -50px;""><div style=""display: flex; justify-content: space-between; margin-top: 33px;""><img src=""images/choice_trial_11.png"" style=""width: 408px; height: 417px; margin-left:608px;""></div></div>",,delaylearn,learning,display_response,Mrv7eUS5D1MIOjBtcniihbq7T9E2,Mrv7eUS5D1MIOjBtcniihbq7T9E2,,,,,,,,,,,,,,,,,chosen stimuli: images/choice_trial_11.png,,,,,657421f9661ce9a8cd7482d1,09:23:24,27/02/2024
html-keyboard-response,164,388172,0.0-68.0-2.0,,,,delaylearn,learning,feedback_duration_window,Mrv7eUS5D1MIOjBtcniihbq7T9E2,Mrv7eUS5D1MIOjBtcniihbq7T9E2,,,,,,,,,,,,,,,,,,7000.0,,,,657421f9661ce9a8cd7482d1,09:23:24,27/02/2024
html-keyboard-response,165,389678,0.0-68.0-3.0,,<div style='margin:auto;width: auto; font-size: 150%'><span style='font-weight: bold; font-size: 100px; color: green;'>+10 points!</span><br><br></div>,,delaylearn,learning,feedback_image_window,Mrv7eUS5D1MIOjBtcniihbq7T9E2,Mrv7eUS5D1MIOjBtcniihbq7T9E2,,,,,,,,,,,,,,,,,,,,,,657421f9661ce9a8cd7482d1,09:23:24,27/02/2024
html-keyboard-response,166,392175,0.0-69.0,,"<div style=""font-size:100px;"">+</div>",,delaylearn,learning,ITI,Mrv7eUS5D1MIOjBtcniihbq7T9E2,Mrv7eUS5D1MIOjBtcniihbq7T9E2,,,,,,,,,,,,,,,,,,,2488.0,,,657421f9661ce9a8cd7482d1,09:23:24,27/02/2024
html-keyboard-response,167,394500,0.0-70.0-0.0,2319.2999999970198,"<div style=""display: flex; flex-direction: column; align-items: center; margin-top: -40px;""><img src=""images/pattern_3.png"" style=""width: 234px; height: 230px; margin-top: -50px;""><div style=""display: flex; justify-content: space-between; margin-top: 33px;""><img src=""images/choice_trial_2.png"" style=""width: 408px; height: 417px; margin-right: 200px;""><img src=""images/choice_trial_16.png"" style=""width: 408px; height: 417px;""></div></div>",f,delaylearn,learning,trial,Mrv7eUS5D1MIOjBtcniihbq7T9E2,Mrv7eUS5D1MIOjBtcniihbq7T9E2,5.0,images/choice_trial_2.png,images/choice_trial_16.png,images/pattern_3.png,j,j,7000.0,2.0,16.0,2.0,1.0,30.0,0.0,0.0,2.0,140.0,,,,,,657421f9661ce9a8cd7482d1,09:23:24,27/02/2024
html-keyboard-response,168,395514,0.0-70.0-1.0,,"<div style=""display: flex; flex-direction: column; align-items: center; margin-top: -40px;""><img src=""images/pattern_3.png"" style=""width: 234px; height: 230px; margin-top: -50px;""><div style=""display: flex; justify-content: space-between; margin-top: 33px;""><img src=""images/choice_trial_2.png"" style=""width: 408px; height: 417px; margin-right: 608px;""></div></div>",,delaylearn,learning,display_response,Mrv7eUS5D1MIOjBtcniihbq7T9E2,Mrv7eUS5D1MIOjBtcniihbq7T9E2,,,,,,,,,,,,,,,,,chosen stimuli: images/choice_trial_2.png,,,,,657421f9661ce9a8cd7482d1,09:23:24,27/02/2024
html-keyboard-response,169,402521,0.0-70.0-2.0,,,,delaylearn,learning,feedback_duration_window,Mrv7eUS5D1MIOjBtcniihbq7T9E2,Mrv7eUS5D1MIOjBtcniihbq7T9E2,,,,,,,,,,,,,,,,,,7000.0,,,,657421f9661ce9a8cd7482d1,09:23:24,27/02/2024
html-keyboard-response,170,404027,0.0-70.0-3.0,,<div style='margin:auto;width: auto; font-size: 150%'><span style='font-weight: bold; font-size: 100px; color: red;'>0 points!</span><br><br></div>,,delaylearn,learning,feedback_image_window,Mrv7eUS5D1MIOjBtcniihbq7T9E2,Mrv7eUS5D1MIOjBtcniihbq7T9E2,,,,,,,,,,,,,,,,,,,,,,657421f9661ce9a8cd7482d1,09:23:24,27/02/2024
html-keyboard-response,171,406455,0.0-71.0,,"<div style=""font-size:100px;"">+</div>",,delaylearn,learning,ITI,Mrv7eUS5D1MIOjBtcniihbq7T9E2,Mrv7eUS5D1MIOjBtcniihbq7T9E2,,,,,,,,,,,,,,,,,,,2421.0,,,657421f9661ce9a8cd7482d1,09:23:24,27/02/2024
html-keyboard-response,172,407917,0.0-72.0-0.0,1449.5999999940395,"<div style=""display: flex; flex-direction: column; align-items: center; margin-top: -40px;""><img src=""images/pattern_5.png"" style=""width: 234px; height: 230px; margin-top: -50px;""><div style=""display: flex; justify-content: space-between; margin-top: 33px;""><img src=""images/choice_trial_7.png"" style=""width: 408px; height: 417px; margin-right: 200px;""><img src=""images/choice_trial_13.png"" style=""width: 408px; height: 417px;""></div></div>",f,delaylearn,learning,trial,Mrv7eUS5D1MIOjBtcniihbq7T9E2,Mrv7eUS5D1MIOjBtcniihbq7T9E2,5.0,images/choice_trial_7.png,images/choice_trial_13.png,images/pattern_5.png,j,f,750.0,7.0,13.0,4.0,0.0,31.0,1.0,0.0,7.0,140.0,,,,,,657421f9661ce9a8cd7482d1,09:23:24,27/02/2024
html-keyboard-response,173,408939,0.0-72.0-1.0,,"<div style=""display: flex; flex-direction: column; align-items: center; margin-top: -40px;""><img src=""images/pattern_5.png"" style=""width: 234px; height: 230px; margin-top: -50px;""><div style=""display: flex; justify-content: space-between; margin-top: 33px;""><img src=""images/choice_trial_7.png"" style=""width: 408px; height: 417px; margin-right: 608px;""></div></div>",,delaylearn,learning,display_response,Mrv7eUS5D1MIOjBtcniihbq7T9E2,Mrv7eUS5D1MIOjBtcniihbq7T9E2,,,,,,,,,,,,,,,,,chosen stimuli: images/choice_trial_7.png,,,,,657421f9661ce9a8cd7482d1,09:23:24,27/02/2024
html-keyboard-response,174,409699,0.0-72.0-2.0,,,,delaylearn,learning,feedback_duration_window,Mrv7eUS5D1MIOjBtcniihbq7T9E2,Mrv7eUS5D1MIOjBtcniihbq7T9E2,,,,,,,,,,,,,,,,,,750.0,,,,657421f9661ce9a8cd7482d1,09:23:24,27/02/2024
html-keyboard-response,175,411218,0.0-72.0-3.0,,<div style='margin:auto;width: auto; font-size: 150%'><span style='font-weight: bold; font-size: 100px; color: red;'>0 points!</span><br><br></div>,,delaylearn,learning,feedback_image_window,Mrv7eUS5D1MIOjBtcniihbq7T9E2,Mrv7eUS5D1MIOjBtcniihbq7T9E2,,,,,,,,,,,,,,,,,,,,,,657421f9661ce9a8cd7482d1,09:23:24,27/02/2024
html-keyboard-response,176,413189,0.0-73.0,,"<div style=""font-size:100px;"">+</div>",,delaylearn,learning,ITI,Mrv7eUS5D1MIOjBtcniihbq7T9E2,Mrv7eUS5D1MIOjBtcniihbq7T9E2,,,,,,,,,,,,,,,,,,,1958.0,,,657421f9661ce9a8cd7482d1,09:23:24,27/02/2024
html-keyboard-response,177,414842,0.0-74.0-0.0,1647.2999999970198,"<div style=""display: flex; flex-direction: column; align-items: center; margin-top: -40px;""><img src=""images/pattern_1.png"" style=""width: 234px; height: 230px; margin-top: -50px;""><div style=""display: flex; justify-content: space-between; margin-top: 33px;""><img src=""images/choice_trial_6.png"" style=""width: 408px; height: 417px; margin-right: 200px;""><img src=""images/choice_trial_15.png"" style=""width: 408px; height: 417px;""></div></div>",f,delaylearn,learning,trial,Mrv7eUS5D1MIOjBtcniihbq7T9E2,Mrv7eUS5D1MIOjBtcniihbq7T9E2,5.0,images/choice_trial_6.png,images/choice_trial_15.png,images/pattern_1.png,f,f,7000.0,6.0,15.0,1.0,0.0,32.0,1.0,1.0,6.0,150.0,,,,,,657421f9661ce9a8cd7482d1,09:23:24,27/02/2024
html-keyboard-response,178,415857,0.0-74.0-1.0,,"<div style=""display: flex; flex-direction: column; align-items: center; margin-top: -40px;""><img src=""images/pattern_1.png"" style=""width: 234px; height: 230px; margin-top: -50px;""><div style=""display: flex; justify-content: space-between; margin-top: 33px;""><img src=""images/choice_trial_6.png"" style=""width: 408px; height: 417px; margin-right: 608px;""></div></div>",,delaylearn,learning,display_response,Mrv7eUS5D1MIOjBtcniihbq7T9E2,Mrv7eUS5D1MIOjBtcniihbq7T9E2,,,,,,,,,,,,,,,,,chosen stimuli: images/choice_trial_6.png,,,,,657421f9661ce9a8cd7482d1,09:23:24,27/02/2024
html-keyboard-response,179,422873,0.0-74.0-2.0,,,,delaylearn,learning,feedback_duration_window,Mrv7eUS5D1MIOjBtcniihbq7T9E2,Mrv7eUS5D1MIOjBtcniihbq7T9E2,,,,,,,,,,,,,,,,,,7000.0,,,,657421f9661ce9a8cd7482d1,09:23:24,27/02/2024
html-keyboard-response,180,424393,0.0-74.0-3.0,,<div style='margin:auto;width: auto; font-size: 150%'><span style='font-weight: bold; font-size: 100px; color: green;'>+10 points!</span><br><br></div>,,delaylearn,learning,feedback_image_window,Mrv7eUS5D1MIOjBtcniihbq7T9E2,Mrv7eUS5D1MIOjBtcniihbq7T9E2,,,,,,,,,,,,,,,,,,,,,,657421f9661ce9a8cd7482d1,09:23:24,27/02/2024
html-keyboard-response,181,424904,0.0-75.0-0.0,,,,,,mood_trial_fixation,Mrv7eUS5D1MIOjBtcniihbq7T9E2,,,,,,,,,,,,,,,,,,,,,,,657421f9661ce9a8cd7482d1,09:23:24,27/02/2024
lmdlab-html-vas-response,182,429717,0.0-75.0-1.0,3804.0,How happy are you right now?,0.8559221457393781,delaylearn,learning,mood_trial,Mrv7eUS5D1MIOjBtcniihbq7T9E2,Mrv7eUS5D1MIOjBtcniihbq7T9E2,,,,,,,,,,,,,,,,,,,,"['Very unhappy', 'Very happy']",,657421f9661ce9a8cd7482d1,09:23:24,27/02/2024
html-keyboard-response,183,431823,0.0-76.0,,"<div style=""font-size:100px;"">+</div>",,delaylearn,learning,ITI,Mrv7eUS5D1MIOjBtcniihbq7T9E2,Mrv7eUS5D1MIOjBtcniihbq7T9E2,,,,,,,,,,,,,,,,,,,2103.0,,,657421f9661ce9a8cd7482d1,09:23:24,27/02/2024
html-keyboard-response,184,433964,0.0-77.0-0.0,2134.2000000029802,"<div style=""display: flex; flex-direction: column; align-items: center; margin-top: -40px;""><img src=""images/pattern_6.png"" style=""width: 234px; height: 230px; margin-top: -50px;""><div style=""display: flex; justify-content: space-between; margin-top: 33px;""><img src=""images/choice_trial_14.png"" style=""width: 408px; height: 417px; margin-right: 200px;""><img src=""images/choice_trial_9.png"" style=""width: 408px; height: 417px;""></div></div>",j,delaylearn,learning,trial,Mrv7eUS5D1MIOjBtcniihbq7T9E2,Mrv7eUS5D1MIOjBtcniihbq7T9E2,5.0,images/choice_trial_14.png,images/choice_trial_9.png,images/pattern_6.png,j,f,750.0,14.0,9.0,5.0,0.0,33.0,0.0,1.0,9.0,160.0,,,,,,657421f9661ce9a8cd7482d1,09:23:24,27/02/2024
html-keyboard-response,185,434983,0.0-77.0-1.0,,"<div style=""display: flex; flex-direction: column; align-items: center; margin-top: -40px;""><img src=""images/pattern_6.png"" style=""width: 234px; height: 230px; margin-top: -50px;""><div style=""display: flex; justify-content: space-between; margin-top: 33px;""><img src=""images/choice_trial_9.png"" style=""width: 408px; height: 417px; margin-left:608px;""></div></div>",,delaylearn,learning,display_response,Mrv7eUS5D1MIOjBtcniihbq7T9E2,Mrv7eUS5D1MIOjBtcniihbq7T9E2,,,,,,,,,,,,,,,,,chosen stimuli: images/choice_trial_9.png,,,,,657421f9661ce9a8cd7482d1,09:23:24,27/02/2024
html-keyboard-response,186,435742,0.0-77.0-2.0,,,,delaylearn,learning,feedback_duration_window,Mrv7eUS5D1MIOjBtcniihbq7T9E2,Mrv7eUS5D1MIOjBtcniihbq7T9E2,,,,,,,,,,,,,,,,,,750.0,,,,657421f9661ce9a8cd7482d1,09:23:24,27/02/2024
html-keyboard-response,187,437245,0.0-77.0-3.0,,<div style='margin:auto;width: auto; font-size: 150%'><span style='font-weight: bold; font-size: 100px; color: green;'>+10 points!</span><br><br></div>,,delaylearn,learning,feedback_image_window,Mrv7eUS5D1MIOjBtcniihbq7T9E2,Mrv7eUS5D1MIOjBtcniihbq7T9E2,,,,,,,,,,,,,,,,,,,,,,657421f9661ce9a8cd7482d1,09:23:24,27/02/2024
html-keyboard-response,188,439539,0.0-78.0,,"<div style=""font-size:100px;"">+</div>",,delaylearn,learning,ITI,Mrv7eUS5D1MIOjBtcniihbq7T9E2,Mrv7eUS5D1MIOjBtcniihbq7T9E2,,,,,,,,,,,,,,,,,,,2277.0,,,657421f9661ce9a8cd7482d1,09:23:24,27/02/2024
html-keyboard-response,189,441041,0.0-79.0-0.0,1497.5,"<div style=""display: flex; flex-direction: column; align-items: center; margin-top: -40px;""><img src=""images/pattern_3.png"" style=""width: 234px; height: 230px; margin-top: -50px;""><div style=""display: flex; justify-content: space-between; margin-top: 33px;""><img src=""images/choice_trial_2.png"" style=""width: 408px; height: 417px; margin-right: 200px;""><img src=""images/choice_trial_16.png"" style=""width: 408px; height: 417px;""></div></div>",j,delaylearn,learning,trial,Mrv7eUS5D1MIOjBtcniihbq7T9E2,Mrv7eUS5D1MIOjBtcniihbq7T9E2,5.0,images/choice_trial_2.png,images/choice_trial_16.png,images/pattern_3.png,j,j,7000.0,2.0,16.0,2.0,1.0,34.0,1.0,1.0,16.0,170.0,,,,,,657421f9661ce9a8cd7482d1,09:23:24,27/02/2024
html-keyboard-response,190,442059,0.0-79.0-1.0,,"<div style=""display: flex; flex-direction: column; align-items: center; margin-top: -40px;""><img src=""images/pattern_3.png"" style=""width: 234px; height: 230px; margin-top: -50px;""><div style=""display: flex; justify-content: space-between; margin-top: 33px;""><img src=""images/choice_trial_16.png"" style=""width: 408px; height: 417px; margin-left:608px;""></div></div>",,delaylearn,learning,display_response,Mrv7eUS5D1MIOjBtcniihbq7T9E2,Mrv7eUS5D1MIOjBtcniihbq7T9E2,,,,,,,,,,,,,,,,,chosen stimuli: images/choice_trial_16.png,,,,,657421f9661ce9a8cd7482d1,09:23:24,27/02/2024
html-keyboard-response,191,449076,0.0-79.0-2.0,,,,delaylearn,learning,feedback_duration_window,Mrv7eUS5D1MIOjBtcniihbq7T9E2,Mrv7eUS5D1MIOjBtcniihbq7T9E2,,,,,,,,,,,,,,,,,,7000.0,,,,657421f9661ce9a8cd7482d1,09:23:24,27/02/2024
html-keyboard-response,192,450582,0.0-79.0-3.0,,<div style='margin:auto;width: auto; font-size: 150%'><span style='font-weight: bold; font-size: 100px; color: green;'>+10 points!</span><br><br></div>,,delaylearn,learning,feedback_image_window,Mrv7eUS5D1MIOjBtcniihbq7T9E2,Mrv7eUS5D1MIOjBtcniihbq7T9E2,,,,,,,,,,,,,,,,,,,,,,657421f9661ce9a8cd7482d1,09:23:24,27/02/2024
html-keyboard-response,193,452998,0.0-80.0,,"<div style=""font-size:100px;"">+</div>",,delaylearn,learning,ITI,Mrv7eUS5D1MIOjBtcniihbq7T9E2,Mrv7eUS5D1MIOjBtcniihbq7T9E2,,,,,,,,,,,,,,,,,,,2403.0,,,657421f9661ce9a8cd7482d1,09:23:24,27/02/2024
html-keyboard-response,194,455038,0.0-81.0-0.0,2034.7000000029802,"<div style=""display: flex; flex-direction: column; align-items: center; margin-top: -40px;""><img src=""images/pattern_4.png"" style=""width: 234px; height: 230px; margin-top: -50px;""><div style=""display: flex; justify-content: space-between; margin-top: 33px;""><img src=""images/choice_trial_4.png"" style=""width: 408px; height: 417px; margin-right: 200px;""><img src=""images/choice_trial_11.png"" style=""width: 408px; height: 417px;""></div></div>",j,delaylearn,learning,trial,Mrv7eUS5D1MIOjBtcniihbq7T9E2,Mrv7eUS5D1MIOjBtcniihbq7T9E2,5.0,images/choice_trial_4.png,images/choice_trial_11.png,images/pattern_4.png,f,j,7000.0,4.0,11.0,3.0,1.0,35.0,1.0,0.0,11.0,170.0,,,,,,657421f9661ce9a8cd7482d1,09:23:24,27/02/2024
html-keyboard-response,195,456055,0.0-81.0-1.0,,"<div style=""display: flex; flex-direction: column; align-items: center; margin-top: -40px;""><img src=""images/pattern_4.png"" style=""width: 234px; height: 230px; margin-top: -50px;""><div style=""display: flex; justify-content: space-between; margin-top: 33px;""><img src=""images/choice_trial_11.png"" style=""width: 408px; height: 417px; margin-left:608px;""></div></div>",,delaylearn,learning,display_response,Mrv7eUS5D1MIOjBtcniihbq7T9E2,Mrv7eUS5D1MIOjBtcniihbq7T9E2,,,,,,,,,,,,,,,,,chosen stimuli: images/choice_trial_11.png,,,,,657421f9661ce9a8cd7482d1,09:23:24,27/02/2024
html-keyboard-response,196,463066,0.0-81.0-2.0,,,,delaylearn,learning,feedback_duration_window,Mrv7eUS5D1MIOjBtcniihbq7T9E2,Mrv7eUS5D1MIOjBtcniihbq7T9E2,,,,,,,,,,,,,,,,,,7000.0,,,,657421f9661ce9a8cd7482d1,09:23:24,27/02/2024
html-keyboard-response,197,464575,0.0-81.0-3.0,,<div style='margin:auto;width: auto; font-size: 150%'><span style='font-weight: bold; font-size: 100px; color: red;'>0 points!</span><br><br></div>,,delaylearn,learning,feedback_image_window,Mrv7eUS5D1MIOjBtcniihbq7T9E2,Mrv7eUS5D1MIOjBtcniihbq7T9E2,,,,,,,,,,,,,,,,,,,,,,657421f9661ce9a8cd7482d1,09:23:24,27/02/2024
html-keyboard-response,198,466343,0.0-82.0,,"<div style=""font-size:100px;"">+</div>",,delaylearn,learning,ITI,Mrv7eUS5D1MIOjBtcniihbq7T9E2,Mrv7eUS5D1MIOjBtcniihbq7T9E2,,,,,,,,,,,,,,,,,,,1766.0,,,657421f9661ce9a8cd7482d1,09:23:24,27/02/2024
html-keyboard-response,199,468839,0.0-83.0-0.0,2494.0999999940395,"<div style=""display: flex; flex-direction: column; align-items: center; margin-top: -40px;""><img src=""images/pattern_7.png"" style=""width: 234px; height: 230px; margin-top: -50px;""><div style=""display: flex; justify-content: space-between; margin-top: 33px;""><img src=""images/choice_trial_8.png"" style=""width: 408px; height: 417px; margin-right: 200px;""><img src=""images/choice_trial_10.png"" style=""width: 408px; height: 417px;""></div></div>",j,delaylearn,learning,trial,Mrv7eUS5D1MIOjBtcniihbq7T9E2,Mrv7eUS5D1MIOjBtcniihbq7T9E2,5.0,images/choice_trial_8.png,images/choice_trial_10.png,images/pattern_7.png,f,f,750.0,8.0,10.0,6.0,0.0,36.0,0.0,0.0,10.0,170.0,,,,,,657421f9661ce9a8cd7482d1,09:23:24,27/02/2024
html-keyboard-response,200,469842,0.0-83.0-1.0,,"<div style=""display: flex; flex-direction: column; align-items: center; margin-top: -40px;""><img src=""images/pattern_7.png"" style=""width: 234px; height: 230px; margin-top: -50px;""><div style=""display: flex; justify-content: space-between; margin-top: 33px;""><img src=""images/choice_trial_10.png"" style=""width: 408px; height: 417px; margin-left:608px;""></div></div>",,delaylearn,learning,display_response,Mrv7eUS5D1MIOjBtcniihbq7T9E2,Mrv7eUS5D1MIOjBtcniihbq7T9E2,,,,,,,,,,,,,,,,,chosen stimuli: images/choice_trial_10.png,,,,,657421f9661ce9a8cd7482d1,09:23:24,27/02/2024
html-keyboard-response,201,470596,0.0-83.0-2.0,,,,delaylearn,learning,feedback_duration_window,Mrv7eUS5D1MIOjBtcniihbq7T9E2,Mrv7eUS5D1MIOjBtcniihbq7T9E2,,,,,,,,,,,,,,,,,,750.0,,,,657421f9661ce9a8cd7482d1,09:23:24,27/02/2024
html-keyboard-response,202,472102,0.0-83.0-3.0,,<div style='margin:auto;width: auto; font-size: 150%'><span style='font-weight: bold; font-size: 100px; color: red;'>0 points!</span><br><br></div>,,delaylearn,learning,feedback_image_window,Mrv7eUS5D1MIOjBtcniihbq7T9E2,Mrv7eUS5D1MIOjBtcniihbq7T9E2,,,,,,,,,,,,,,,,,,,,,,657421f9661ce9a8cd7482d1,09:23:24,27/02/2024
html-keyboard-response,203,473659,0.0-84.0,,"<div style=""font-size:100px;"">+</div>",,delaylearn,learning,ITI,Mrv7eUS5D1MIOjBtcniihbq7T9E2,Mrv7eUS5D1MIOjBtcniihbq7T9E2,,,,,,,,,,,,,,,,,,,1542.0,,,657421f9661ce9a8cd7482d1,09:23:24,27/02/2024
html-keyboard-response,204,475821,0.0-85.0-0.0,2155.300000011921,"<div style=""display: flex; flex-direction: column; align-items: center; margin-top: -40px;""><img src=""images/pattern_1.png"" style=""width: 234px; height: 230px; margin-top: -50px;""><div style=""display: flex; justify-content: space-between; margin-top: 33px;""><img src=""images/choice_trial_6.png"" style=""width: 408px; height: 417px; margin-right: 200px;""><img src=""images/choice_trial_15.png"" style=""width: 408px; height: 417px;""></div></div>",f,delaylearn,learning,trial,Mrv7eUS5D1MIOjBtcniihbq7T9E2,Mrv7eUS5D1MIOjBtcniihbq7T9E2,5.0,images/choice_trial_6.png,images/choice_trial_15.png,images/pattern_1.png,f,f,7000.0,6.0,15.0,1.0,0.0,37.0,1.0,1.0,6.0,180.0,,,,,,657421f9661ce9a8cd7482d1,09:23:24,27/02/2024
html-keyboard-response,205,476841,0.0-85.0-1.0,,"<div style=""display: flex; flex-direction: column; align-items: center; margin-top: -40px;""><img src=""images/pattern_1.png"" style=""width: 234px; height: 230px; margin-top: -50px;""><div style=""display: flex; justify-content: space-between; margin-top: 33px;""><img src=""images/choice_trial_6.png"" style=""width: 408px; height: 417px; margin-right: 608px;""></div></div>",,delaylearn,learning,display_response,Mrv7eUS5D1MIOjBtcniihbq7T9E2,Mrv7eUS5D1MIOjBtcniihbq7T9E2,,,,,,,,,,,,,,,,,chosen stimuli: images/choice_trial_6.png,,,,,657421f9661ce9a8cd7482d1,09:23:24,27/02/2024
html-keyboard-response,206,483854,0.0-85.0-2.0,,,,delaylearn,learning,feedback_duration_window,Mrv7eUS5D1MIOjBtcniihbq7T9E2,Mrv7eUS5D1MIOjBtcniihbq7T9E2,,,,,,,,,,,,,,,,,,7000.0,,,,657421f9661ce9a8cd7482d1,09:23:24,27/02/2024
html-keyboard-response,207,485362,0.0-85.0-3.0,,<div style='margin:auto;width: auto; font-size: 150%'><span style='font-weight: bold; font-size: 100px; color: green;'>+10 points!</span><br><br></div>,,delaylearn,learning,feedback_image_window,Mrv7eUS5D1MIOjBtcniihbq7T9E2,Mrv7eUS5D1MIOjBtcniihbq7T9E2,,,,,,,,,,,,,,,,,,,,,,657421f9661ce9a8cd7482d1,09:23:24,27/02/2024
html-keyboard-response,208,485875,0.0-86.0-0.0,,,,,,mood_trial_fixation,Mrv7eUS5D1MIOjBtcniihbq7T9E2,,,,,,,,,,,,,,,,,,,,,,,657421f9661ce9a8cd7482d1,09:23:24,27/02/2024
lmdlab-html-vas-response,209,490996,0.0-86.0-1.0,4106.0,How happy are you right now?,0.8841341426197823,delaylearn,learning,mood_trial,Mrv7eUS5D1MIOjBtcniihbq7T9E2,Mrv7eUS5D1MIOjBtcniihbq7T9E2,,,,,,,,,,,,,,,,,,,,"['Very unhappy', 'Very happy']",,657421f9661ce9a8cd7482d1,09:23:24,27/02/2024
html-keyboard-response,210,492684,0.0-87.0,,"<div style=""font-size:100px;"">+</div>",,delaylearn,learning,ITI,Mrv7eUS5D1MIOjBtcniihbq7T9E2,Mrv7eUS5D1MIOjBtcniihbq7T9E2,,,,,,,,,,,,,,,,,,,1682.0,,,657421f9661ce9a8cd7482d1,09:23:24,27/02/2024
html-keyboard-response,211,494569,0.0-88.0-0.0,1879.8999999910593,"<div style=""display: flex; flex-direction: column; align-items: center; margin-top: -40px;""><img src=""images/pattern_3.png"" style=""width: 234px; height: 230px; margin-top: -50px;""><div style=""display: flex; justify-content: space-between; margin-top: 33px;""><img src=""images/choice_trial_16.png"" style=""width: 408px; height: 417px; margin-right: 200px;""><img src=""images/choice_trial_2.png"" style=""width: 408px; height: 417px;""></div></div>",f,delaylearn,learning,trial,Mrv7eUS5D1MIOjBtcniihbq7T9E2,Mrv7eUS5D1MIOjBtcniihbq7T9E2,5.0,images/choice_trial_16.png,images/choice_trial_2.png,images/pattern_3.png,j,f,7000.0,16.0,2.0,2.0,0.0,38.0,1.0,0.0,16.0,180.0,,,,,,657421f9661ce9a8cd7482d1,09:23:24,27/02/2024
html-keyboard-response,212,495589,0.0-88.0-1.0,,"<div style=""display: flex; flex-direction: column; align-items: center; margin-top: -40px;""><img src=""images/pattern_3.png"" style=""width: 234px; height: 230px; margin-top: -50px;""><div style=""display: flex; justify-content: space-between; margin-top: 33px;""><img src=""images/choice_trial_16.png"" style=""width: 408px; height: 417px; margin-right: 608px;""></div></div>",,delaylearn,learning,display_response,Mrv7eUS5D1MIOjBtcniihbq7T9E2,Mrv7eUS5D1MIOjBtcniihbq7T9E2,,,,,,,,,,,,,,,,,chosen stimuli: images/choice_trial_16.png,,,,,657421f9661ce9a8cd7482d1,09:23:24,27/02/2024
html-keyboard-response,213,502597,0.0-88.0-2.0,,,,delaylearn,learning,feedback_duration_window,Mrv7eUS5D1MIOjBtcniihbq7T9E2,Mrv7eUS5D1MIOjBtcniihbq7T9E2,,,,,,,,,,,,,,,,,,7000.0,,,,657421f9661ce9a8cd7482d1,09:23:24,27/02/2024
html-keyboard-response,214,504114,0.0-88.0-3.0,,<div style='margin:auto;width: auto; font-size: 150%'><span style='font-weight: bold; font-size: 100px; color: red;'>0 points!</span><br><br></div>,,delaylearn,learning,feedback_image_window,Mrv7eUS5D1MIOjBtcniihbq7T9E2,Mrv7eUS5D1MIOjBtcniihbq7T9E2,,,,,,,,,,,,,,,,,,,,,,657421f9661ce9a8cd7482d1,09:23:24,27/02/2024
html-keyboard-response,215,506065,0.0-89.0,,"<div style=""font-size:100px;"">+</div>",,delaylearn,learning,ITI,Mrv7eUS5D1MIOjBtcniihbq7T9E2,Mrv7eUS5D1MIOjBtcniihbq7T9E2,,,,,,,,,,,,,,,,,,,1940.0,,,657421f9661ce9a8cd7482d1,09:23:24,27/02/2024
html-keyboard-response,216,508729,0.0-90.0-0.0,2655.2999999970198,"<div style=""display: flex; flex-direction: column; align-items: center; margin-top: -40px;""><img src=""images/pattern_7.png"" style=""width: 234px; height: 230px; margin-top: -50px;""><div style=""display: flex; justify-content: space-between; margin-top: 33px;""><img src=""images/choice_trial_10.png"" style=""width: 408px; height: 417px; margin-right: 200px;""><img src=""images/choice_trial_8.png"" style=""width: 408px; height: 417px;""></div></div>",f,delaylearn,learning,trial,Mrv7eUS5D1MIOjBtcniihbq7T9E2,Mrv7eUS5D1MIOjBtcniihbq7T9E2,5.0,images/choice_trial_10.png,images/choice_trial_8.png,images/pattern_7.png,j,j,750.0,10.0,8.0,6.0,1.0,39.0,0.0,0.0,10.0,180.0,,,,,,657421f9661ce9a8cd7482d1,09:23:24,27/02/2024
html-keyboard-response,217,509739,0.0-90.0-1.0,,"<div style=""display: flex; flex-direction: column; align-items: center; margin-top: -40px;""><img src=""images/pattern_7.png"" style=""width: 234px; height: 230px; margin-top: -50px;""><div style=""display: flex; justify-content: space-between; margin-top: 33px;""><img src=""images/choice_trial_10.png"" style=""width: 408px; height: 417px; margin-right: 608px;""></div></div>",,delaylearn,learning,display_response,Mrv7eUS5D1MIOjBtcniihbq7T9E2,Mrv7eUS5D1MIOjBtcniihbq7T9E2,,,,,,,,,,,,,,,,,chosen stimuli: images/choice_trial_10.png,,,,,657421f9661ce9a8cd7482d1,09:23:24,27/02/2024
html-keyboard-response,218,510498,0.0-90.0-2.0,,,,delaylearn,learning,feedback_duration_window,Mrv7eUS5D1MIOjBtcniihbq7T9E2,Mrv7eUS5D1MIOjBtcniihbq7T9E2,,,,,,,,,,,,,,,,,,750.0,,,,657421f9661ce9a8cd7482d1,09:23:24,27/02/2024
html-keyboard-response,219,512001,0.0-90.0-3.0,,<div style='margin:auto;width: auto; font-size: 150%'><span style='font-weight: bold; font-size: 100px; color: red;'>0 points!</span><br><br></div>,,delaylearn,learning,feedback_image_window,Mrv7eUS5D1MIOjBtcniihbq7T9E2,Mrv7eUS5D1MIOjBtcniihbq7T9E2,,,,,,,,,,,,,,,,,,,,,,657421f9661ce9a8cd7482d1,09:23:24,27/02/2024
html-keyboard-response,220,514494,0.0-91.0,,"<div style=""font-size:100px;"">+</div>",,delaylearn,learning,ITI,Mrv7eUS5D1MIOjBtcniihbq7T9E2,Mrv7eUS5D1MIOjBtcniihbq7T9E2,,,,,,,,,,,,,,,,,,,2487.0,,,657421f9661ce9a8cd7482d1,09:23:24,27/02/2024
html-keyboard-response,221,516313,0.0-92.0-0.0,1812.0999999940395,"<div style=""display: flex; flex-direction: column; align-items: center; margin-top: -40px;""><img src=""images/pattern_5.png"" style=""width: 234px; height: 230px; margin-top: -50px;""><div style=""display: flex; justify-content: space-between; margin-top: 33px;""><img src=""images/choice_trial_13.png"" style=""width: 408px; height: 417px; margin-right: 200px;""><img src=""images/choice_trial_7.png"" style=""width: 408px; height: 417px;""></div></div>",j,delaylearn,learning,trial,Mrv7eUS5D1MIOjBtcniihbq7T9E2,Mrv7eUS5D1MIOjBtcniihbq7T9E2,5.0,images/choice_trial_13.png,images/choice_trial_7.png,images/pattern_5.png,j,j,750.0,13.0,7.0,4.0,1.0,40.0,1.0,1.0,7.0,190.0,,,,,,657421f9661ce9a8cd7482d1,09:23:24,27/02/2024
html-keyboard-response,222,517330,0.0-92.0-1.0,,"<div style=""display: flex; flex-direction: column; align-items: center; margin-top: -40px;""><img src=""images/pattern_5.png"" style=""width: 234px; height: 230px; margin-top: -50px;""><div style=""display: flex; justify-content: space-between; margin-top: 33px;""><img src=""images/choice_trial_7.png"" style=""width: 408px; height: 417px; margin-left:608px;""></div></div>",,delaylearn,learning,display_response,Mrv7eUS5D1MIOjBtcniihbq7T9E2,Mrv7eUS5D1MIOjBtcniihbq7T9E2,,,,,,,,,,,,,,,,,chosen stimuli: images/choice_trial_7.png,,,,,657421f9661ce9a8cd7482d1,09:23:24,27/02/2024
html-keyboard-response,223,518089,0.0-92.0-2.0,,,,delaylearn,learning,feedback_duration_window,Mrv7eUS5D1MIOjBtcniihbq7T9E2,Mrv7eUS5D1MIOjBtcniihbq7T9E2,,,,,,,,,,,,,,,,,,750.0,,,,657421f9661ce9a8cd7482d1,09:23:24,27/02/2024
html-keyboard-response,224,519605,0.0-92.0-3.0,,<div style='margin:auto;width: auto; font-size: 150%'><span style='font-weight: bold; font-size: 100px; color: green;'>+10 points!</span><br><br></div>,,delaylearn,learning,feedback_image_window,Mrv7eUS5D1MIOjBtcniihbq7T9E2,Mrv7eUS5D1MIOjBtcniihbq7T9E2,,,,,,,,,,,,,,,,,,,,,,657421f9661ce9a8cd7482d1,09:23:24,27/02/2024
html-keyboard-response,225,520110,0.0-93.0-0.0,,,,,,mood_trial_fixation,Mrv7eUS5D1MIOjBtcniihbq7T9E2,,,,,,,,,,,,,,,,,,,,,,,657421f9661ce9a8cd7482d1,09:23:24,27/02/2024
lmdlab-html-vas-response,226,526477,0.0-93.0-1.0,5358.0,How happy are you right now?,0.8168593808280492,delaylearn,learning,mood_trial,Mrv7eUS5D1MIOjBtcniihbq7T9E2,Mrv7eUS5D1MIOjBtcniihbq7T9E2,,,,,,,,,,,,,,,,,,,,"['Very unhappy', 'Very happy']",,657421f9661ce9a8cd7482d1,09:23:24,27/02/2024
html-keyboard-response,227,528183,0.0-94.0,,"<div style=""font-size:100px;"">+</div>",,delaylearn,learning,ITI,Mrv7eUS5D1MIOjBtcniihbq7T9E2,Mrv7eUS5D1MIOjBtcniihbq7T9E2,,,,,,,,,,,,,,,,,,,1691.0,,,657421f9661ce9a8cd7482d1,09:23:24,27/02/2024
html-keyboard-response,228,529329,0.0-95.0-0.0,1135.4000000059605,"<div style=""display: flex; flex-direction: column; align-items: center; margin-top: -40px;""><img src=""images/pattern_4.png"" style=""width: 234px; height: 230px; margin-top: -50px;""><div style=""display: flex; justify-content: space-between; margin-top: 33px;""><img src=""images/choice_trial_11.png"" style=""width: 408px; height: 417px; margin-right: 200px;""><img src=""images/choice_trial_4.png"" style=""width: 408px; height: 417px;""></div></div>",j,delaylearn,learning,trial,Mrv7eUS5D1MIOjBtcniihbq7T9E2,Mrv7eUS5D1MIOjBtcniihbq7T9E2,5.0,images/choice_trial_11.png,images/choice_trial_4.png,images/pattern_4.png,f,f,7000.0,11.0,4.0,3.0,0.0,41.0,0.0,0.0,4.0,190.0,,,,,,657421f9661ce9a8cd7482d1,09:23:24,27/02/2024
html-keyboard-response,229,530347,0.0-95.0-1.0,,"<div style=""display: flex; flex-direction: column; align-items: center; margin-top: -40px;""><img src=""images/pattern_4.png"" style=""width: 234px; height: 230px; margin-top: -50px;""><div style=""display: flex; justify-content: space-between; margin-top: 33px;""><img src=""images/choice_trial_4.png"" style=""width: 408px; height: 417px; margin-left:608px;""></div></div>",,delaylearn,learning,display_response,Mrv7eUS5D1MIOjBtcniihbq7T9E2,Mrv7eUS5D1MIOjBtcniihbq7T9E2,,,,,,,,,,,,,,,,,chosen stimuli: images/choice_trial_4.png,,,,,657421f9661ce9a8cd7482d1,09:23:24,27/02/2024
html-keyboard-response,230,537360,0.0-95.0-2.0,,,,delaylearn,learning,feedback_duration_window,Mrv7eUS5D1MIOjBtcniihbq7T9E2,Mrv7eUS5D1MIOjBtcniihbq7T9E2,,,,,,,,,,,,,,,,,,7000.0,,,,657421f9661ce9a8cd7482d1,09:23:24,27/02/2024
html-keyboard-response,231,538876,0.0-95.0-3.0,,<div style='margin:auto;width: auto; font-size: 150%'><span style='font-weight: bold; font-size: 100px; color: red;'>0 points!</span><br><br></div>,,delaylearn,learning,feedback_image_window,Mrv7eUS5D1MIOjBtcniihbq7T9E2,Mrv7eUS5D1MIOjBtcniihbq7T9E2,,,,,,,,,,,,,,,,,,,,,,657421f9661ce9a8cd7482d1,09:23:24,27/02/2024
