trial_type,trial_index,time_elapsed,internal_node_id,rt,stimulus,response,exp_name,exp_stage,test_part,subjectID,databaseID,counterbal,choice_stimuli_1,choice_stimuli_2,pattern_stimuli,rewarded_answer,correct_answer,feedback_duration_times,stim_left,stim_right,pair,leftright_counter,trial,response_correct,response_rewarded,chosen_stim,counter,displayed_choice,feedback_durations,ITI_duration,labels,rest_warning,prolificID,start_time,date
pavlovia,0,640,0.0-0.0,,,,,,,BVd8qHAW9gT33EAESUmFZ3KZH4p1,,,,,,,,,,,,,,,,,,,,,,,5e836f61445b1c0761ae6a76,14:19:08,26/02/2024
html-keyboard-response,1,3651,0.0-1.0,,"<div style=""font-size:100px;"">+</div>",,delaylearn,learning,pre_fixation,BVd8qHAW9gT33EAESUmFZ3KZH4p1,,,,,,,,,,,,,,,,,,,,,,,5e836f61445b1c0761ae6a76,14:19:08,26/02/2024
html-keyboard-response,2,4762,0.0-2.0-0.0,1110.1999999284744,"<div style=""display: flex; flex-direction: column; align-items: center; margin-top: -40px;""><img src=""images/demo_images/pattern_1.png"" style=""width: 234px; height: 230px; margin-top: -50px;""><div style=""display: flex; justify-content: space-between; margin-top: 33px;""><img src=""images/demo_images/choice_trial_2.png"" style=""width: 408px; height: 417px; margin-right: 200px;""><img src=""images/demo_images/choice_trial_1.png"" style=""width: 408px; height: 417px;""></div></div>",j,delaylearn,learning,trial,BVd8qHAW9gT33EAESUmFZ3KZH4p1,BVd8qHAW9gT33EAESUmFZ3KZH4p1,5.0,images/demo_images/choice_trial_2.png,images/demo_images/choice_trial_1.png,images/demo_images/pattern_1.png,j,j,3000.0,2.0,1.0,20.0,1.0,1.0,1.0,1.0,1.0,10.0,,,,,,5e836f61445b1c0761ae6a76,14:19:08,26/02/2024
html-keyboard-response,3,5770,0.0-2.0-1.0,,"<div style=""display: flex; flex-direction: column; align-items: center; margin-top: -40px;""><img src=""images/demo_images/pattern_1.png"" style=""width: 234px; height: 230px; margin-top: -50px;""><div style=""display: flex; justify-content: space-between; margin-top: 33px;""><img src=""images/demo_images/choice_trial_1.png"" style=""width: 408px; height: 417px; margin-left:608px;""></div></div>",,delaylearn,learning,display_response,BVd8qHAW9gT33EAESUmFZ3KZH4p1,BVd8qHAW9gT33EAESUmFZ3KZH4p1,,,,,,,,,,,,,,,,,chosen stimuli: images/demo_images/choice_trial_1.png,,,,,5e836f61445b1c0761ae6a76,14:19:08,26/02/2024
html-keyboard-response,4,8776,0.0-2.0-2.0,,,,delaylearn,learning,feedback_duration_window,BVd8qHAW9gT33EAESUmFZ3KZH4p1,BVd8qHAW9gT33EAESUmFZ3KZH4p1,,,,,,,,,,,,,,,,,,3000.0,,,,5e836f61445b1c0761ae6a76,14:19:08,26/02/2024
html-keyboard-response,5,10282,0.0-2.0-3.0,,<div style='margin:auto;width: auto; font-size: 150%'><span style='font-weight: bold; font-size: 100px; color: green;'>+10 points!</span><br><br></div>,,delaylearn,learning,feedback_image_window,BVd8qHAW9gT33EAESUmFZ3KZH4p1,BVd8qHAW9gT33EAESUmFZ3KZH4p1,,,,,,,,,,,,,,,,,,,,,,5e836f61445b1c0761ae6a76,14:19:08,26/02/2024
html-keyboard-response,6,12282,0.0-3.0,,"<div style=""font-size:100px;"">+</div>",,delaylearn,learning,ITI,BVd8qHAW9gT33EAESUmFZ3KZH4p1,BVd8qHAW9gT33EAESUmFZ3KZH4p1,,,,,,,,,,,,,,,,,,,1995.0,,,5e836f61445b1c0761ae6a76,14:19:08,26/02/2024
html-keyboard-response,7,13130,0.0-4.0-0.0,846.2000000476837,"<div style=""display: flex; flex-direction: column; align-items: center; margin-top: -40px;""><img src=""images/demo_images/pattern_1.png"" style=""width: 234px; height: 230px; margin-top: -50px;""><div style=""display: flex; justify-content: space-between; margin-top: 33px;""><img src=""images/demo_images/choice_trial_2.png"" style=""width: 408px; height: 417px; margin-right: 200px;""><img src=""images/demo_images/choice_trial_1.png"" style=""width: 408px; height: 417px;""></div></div>",j,delaylearn,learning,trial,BVd8qHAW9gT33EAESUmFZ3KZH4p1,BVd8qHAW9gT33EAESUmFZ3KZH4p1,5.0,images/demo_images/choice_trial_2.png,images/demo_images/choice_trial_1.png,images/demo_images/pattern_1.png,j,j,3000.0,2.0,1.0,20.0,1.0,2.0,1.0,1.0,1.0,20.0,,,,,,5e836f61445b1c0761ae6a76,14:19:08,26/02/2024
html-keyboard-response,8,14146,0.0-4.0-1.0,,"<div style=""display: flex; flex-direction: column; align-items: center; margin-top: -40px;""><img src=""images/demo_images/pattern_1.png"" style=""width: 234px; height: 230px; margin-top: -50px;""><div style=""display: flex; justify-content: space-between; margin-top: 33px;""><img src=""images/demo_images/choice_trial_1.png"" style=""width: 408px; height: 417px; margin-left:608px;""></div></div>",,delaylearn,learning,display_response,BVd8qHAW9gT33EAESUmFZ3KZH4p1,BVd8qHAW9gT33EAESUmFZ3KZH4p1,,,,,,,,,,,,,,,,,chosen stimuli: images/demo_images/choice_trial_1.png,,,,,5e836f61445b1c0761ae6a76,14:19:08,26/02/2024
html-keyboard-response,9,17151,0.0-4.0-2.0,,,,delaylearn,learning,feedback_duration_window,BVd8qHAW9gT33EAESUmFZ3KZH4p1,BVd8qHAW9gT33EAESUmFZ3KZH4p1,,,,,,,,,,,,,,,,,,3000.0,,,,5e836f61445b1c0761ae6a76,14:19:08,26/02/2024
html-keyboard-response,10,18658,0.0-4.0-3.0,,<div style='margin:auto;width: auto; font-size: 150%'><span style='font-weight: bold; font-size: 100px; color: green;'>+10 points!</span><br><br></div>,,delaylearn,learning,feedback_image_window,BVd8qHAW9gT33EAESUmFZ3KZH4p1,BVd8qHAW9gT33EAESUmFZ3KZH4p1,,,,,,,,,,,,,,,,,,,,,,5e836f61445b1c0761ae6a76,14:19:08,26/02/2024
html-keyboard-response,11,21151,0.0-5.0,,"<div style=""font-size:100px;"">+</div>",,delaylearn,learning,ITI,BVd8qHAW9gT33EAESUmFZ3KZH4p1,BVd8qHAW9gT33EAESUmFZ3KZH4p1,,,,,,,,,,,,,,,,,,,2488.0,,,5e836f61445b1c0761ae6a76,14:19:08,26/02/2024
html-keyboard-response,12,22050,0.0-6.0-0.0,898.0,"<div style=""display: flex; flex-direction: column; align-items: center; margin-top: -40px;""><img src=""images/demo_images/pattern_1.png"" style=""width: 234px; height: 230px; margin-top: -50px;""><div style=""display: flex; justify-content: space-between; margin-top: 33px;""><img src=""images/demo_images/choice_trial_1.png"" style=""width: 408px; height: 417px; margin-right: 200px;""><img src=""images/demo_images/choice_trial_2.png"" style=""width: 408px; height: 417px;""></div></div>",f,delaylearn,learning,trial,BVd8qHAW9gT33EAESUmFZ3KZH4p1,BVd8qHAW9gT33EAESUmFZ3KZH4p1,5.0,images/demo_images/choice_trial_1.png,images/demo_images/choice_trial_2.png,images/demo_images/pattern_1.png,j,f,3000.0,1.0,2.0,20.0,0.0,3.0,1.0,0.0,1.0,20.0,,,,,,5e836f61445b1c0761ae6a76,14:19:08,26/02/2024
html-keyboard-response,13,23060,0.0-6.0-1.0,,"<div style=""display: flex; flex-direction: column; align-items: center; margin-top: -40px;""><img src=""images/demo_images/pattern_1.png"" style=""width: 234px; height: 230px; margin-top: -50px;""><div style=""display: flex; justify-content: space-between; margin-top: 33px;""><img src=""images/demo_images/choice_trial_1.png"" style=""width: 408px; height: 417px; margin-right: 608px;""></div></div>",,delaylearn,learning,display_response,BVd8qHAW9gT33EAESUmFZ3KZH4p1,BVd8qHAW9gT33EAESUmFZ3KZH4p1,,,,,,,,,,,,,,,,,chosen stimuli: images/demo_images/choice_trial_1.png,,,,,5e836f61445b1c0761ae6a76,14:19:08,26/02/2024
html-keyboard-response,14,26067,0.0-6.0-2.0,,,,delaylearn,learning,feedback_duration_window,BVd8qHAW9gT33EAESUmFZ3KZH4p1,BVd8qHAW9gT33EAESUmFZ3KZH4p1,,,,,,,,,,,,,,,,,,3000.0,,,,5e836f61445b1c0761ae6a76,14:19:08,26/02/2024
html-keyboard-response,15,27574,0.0-6.0-3.0,,<div style='margin:auto;width: auto; font-size: 150%'><span style='font-weight: bold; font-size: 100px; color: red;'>0 points!</span><br><br></div>,,delaylearn,learning,feedback_image_window,BVd8qHAW9gT33EAESUmFZ3KZH4p1,BVd8qHAW9gT33EAESUmFZ3KZH4p1,,,,,,,,,,,,,,,,,,,,,,5e836f61445b1c0761ae6a76,14:19:08,26/02/2024
html-keyboard-response,16,29847,0.0-7.0,,"<div style=""font-size:100px;"">+</div>",,delaylearn,learning,ITI,BVd8qHAW9gT33EAESUmFZ3KZH4p1,BVd8qHAW9gT33EAESUmFZ3KZH4p1,,,,,,,,,,,,,,,,,,,2261.0,,,5e836f61445b1c0761ae6a76,14:19:08,26/02/2024
html-keyboard-response,17,31053,0.0-8.0-0.0,1205.2999999523163,"<div style=""display: flex; flex-direction: column; align-items: center; margin-top: -40px;""><img src=""images/demo_images/pattern_1.png"" style=""width: 234px; height: 230px; margin-top: -50px;""><div style=""display: flex; justify-content: space-between; margin-top: 33px;""><img src=""images/demo_images/choice_trial_1.png"" style=""width: 408px; height: 417px; margin-right: 200px;""><img src=""images/demo_images/choice_trial_2.png"" style=""width: 408px; height: 417px;""></div></div>",j,delaylearn,learning,trial,BVd8qHAW9gT33EAESUmFZ3KZH4p1,BVd8qHAW9gT33EAESUmFZ3KZH4p1,5.0,images/demo_images/choice_trial_1.png,images/demo_images/choice_trial_2.png,images/demo_images/pattern_1.png,f,f,3000.0,1.0,2.0,20.0,0.0,4.0,0.0,0.0,2.0,20.0,,,,,,5e836f61445b1c0761ae6a76,14:19:08,26/02/2024
html-keyboard-response,18,32062,0.0-8.0-1.0,,"<div style=""display: flex; flex-direction: column; align-items: center; margin-top: -40px;""><img src=""images/demo_images/pattern_1.png"" style=""width: 234px; height: 230px; margin-top: -50px;""><div style=""display: flex; justify-content: space-between; margin-top: 33px;""><img src=""images/demo_images/choice_trial_2.png"" style=""width: 408px; height: 417px; margin-left:608px;""></div></div>",,delaylearn,learning,display_response,BVd8qHAW9gT33EAESUmFZ3KZH4p1,BVd8qHAW9gT33EAESUmFZ3KZH4p1,,,,,,,,,,,,,,,,,chosen stimuli: images/demo_images/choice_trial_2.png,,,,,5e836f61445b1c0761ae6a76,14:19:08,26/02/2024
html-keyboard-response,19,35067,0.0-8.0-2.0,,,,delaylearn,learning,feedback_duration_window,BVd8qHAW9gT33EAESUmFZ3KZH4p1,BVd8qHAW9gT33EAESUmFZ3KZH4p1,,,,,,,,,,,,,,,,,,3000.0,,,,5e836f61445b1c0761ae6a76,14:19:08,26/02/2024
html-keyboard-response,20,36574,0.0-8.0-3.0,,<div style='margin:auto;width: auto; font-size: 150%'><span style='font-weight: bold; font-size: 100px; color: red;'>0 points!</span><br><br></div>,,delaylearn,learning,feedback_image_window,BVd8qHAW9gT33EAESUmFZ3KZH4p1,BVd8qHAW9gT33EAESUmFZ3KZH4p1,,,,,,,,,,,,,,,,,,,,,,5e836f61445b1c0761ae6a76,14:19:08,26/02/2024
html-keyboard-response,21,37081,0.0-9.0-0.0,,,,,,mood_trial_fixation,BVd8qHAW9gT33EAESUmFZ3KZH4p1,,,,,,,,,,,,,,,,,,,,,,,5e836f61445b1c0761ae6a76,14:19:08,26/02/2024
lmdlab-html-vas-response,22,41066,0.0-9.0-1.0,2966.0,How happy are you right now?,0.48302469135802467,delaylearn,learning,mood_trial,BVd8qHAW9gT33EAESUmFZ3KZH4p1,BVd8qHAW9gT33EAESUmFZ3KZH4p1,,,,,,,,,,,,,,,,,,,,"['Very unhappy', 'Very happy']",,5e836f61445b1c0761ae6a76,14:19:08,26/02/2024
html-keyboard-response,23,42978,0.0-10.0,,"<div style=""font-size:100px;"">+</div>",,delaylearn,learning,ITI,BVd8qHAW9gT33EAESUmFZ3KZH4p1,BVd8qHAW9gT33EAESUmFZ3KZH4p1,,,,,,,,,,,,,,,,,,,1900.0,,,5e836f61445b1c0761ae6a76,14:19:08,26/02/2024
html-keyboard-response,24,44962,0.0-11.0-0.0,1982.1000000238419,"<div style=""display: flex; flex-direction: column; align-items: center; margin-top: -40px;""><img src=""images/demo_images/pattern_1.png"" style=""width: 234px; height: 230px; margin-top: -50px;""><div style=""display: flex; justify-content: space-between; margin-top: 33px;""><img src=""images/demo_images/choice_trial_2.png"" style=""width: 408px; height: 417px; margin-right: 200px;""><img src=""images/demo_images/choice_trial_1.png"" style=""width: 408px; height: 417px;""></div></div>",j,delaylearn,learning,trial,BVd8qHAW9gT33EAESUmFZ3KZH4p1,BVd8qHAW9gT33EAESUmFZ3KZH4p1,5.0,images/demo_images/choice_trial_2.png,images/demo_images/choice_trial_1.png,images/demo_images/pattern_1.png,j,j,3000.0,2.0,1.0,20.0,1.0,5.0,1.0,1.0,1.0,30.0,,,,,,5e836f61445b1c0761ae6a76,14:19:08,26/02/2024
html-keyboard-response,25,45963,0.0-11.0-1.0,,"<div style=""display: flex; flex-direction: column; align-items: center; margin-top: -40px;""><img src=""images/demo_images/pattern_1.png"" style=""width: 234px; height: 230px; margin-top: -50px;""><div style=""display: flex; justify-content: space-between; margin-top: 33px;""><img src=""images/demo_images/choice_trial_1.png"" style=""width: 408px; height: 417px; margin-left:608px;""></div></div>",,delaylearn,learning,display_response,BVd8qHAW9gT33EAESUmFZ3KZH4p1,BVd8qHAW9gT33EAESUmFZ3KZH4p1,,,,,,,,,,,,,,,,,chosen stimuli: images/demo_images/choice_trial_1.png,,,,,5e836f61445b1c0761ae6a76,14:19:08,26/02/2024
html-keyboard-response,26,48970,0.0-11.0-2.0,,,,delaylearn,learning,feedback_duration_window,BVd8qHAW9gT33EAESUmFZ3KZH4p1,BVd8qHAW9gT33EAESUmFZ3KZH4p1,,,,,,,,,,,,,,,,,,3000.0,,,,5e836f61445b1c0761ae6a76,14:19:08,26/02/2024
html-keyboard-response,27,50477,0.0-11.0-3.0,,<div style='margin:auto;width: auto; font-size: 150%'><span style='font-weight: bold; font-size: 100px; color: green;'>+10 points!</span><br><br></div>,,delaylearn,learning,feedback_image_window,BVd8qHAW9gT33EAESUmFZ3KZH4p1,BVd8qHAW9gT33EAESUmFZ3KZH4p1,,,,,,,,,,,,,,,,,,,,,,5e836f61445b1c0761ae6a76,14:19:08,26/02/2024
html-keyboard-response,28,52456,0.0-12.0,,"<div style=""font-size:100px;"">+</div>",,delaylearn,learning,ITI,BVd8qHAW9gT33EAESUmFZ3KZH4p1,BVd8qHAW9gT33EAESUmFZ3KZH4p1,,,,,,,,,,,,,,,,,,,1973.0,,,5e836f61445b1c0761ae6a76,14:19:08,26/02/2024
html-keyboard-response,29,54842,0.0-13.0-0.0,2384.399999976158,"<div style=""display: flex; flex-direction: column; align-items: center; margin-top: -40px;""><img src=""images/demo_images/pattern_1.png"" style=""width: 234px; height: 230px; margin-top: -50px;""><div style=""display: flex; justify-content: space-between; margin-top: 33px;""><img src=""images/demo_images/choice_trial_1.png"" style=""width: 408px; height: 417px; margin-right: 200px;""><img src=""images/demo_images/choice_trial_2.png"" style=""width: 408px; height: 417px;""></div></div>",f,delaylearn,learning,trial,BVd8qHAW9gT33EAESUmFZ3KZH4p1,BVd8qHAW9gT33EAESUmFZ3KZH4p1,5.0,images/demo_images/choice_trial_1.png,images/demo_images/choice_trial_2.png,images/demo_images/pattern_1.png,f,f,3000.0,1.0,2.0,20.0,0.0,6.0,1.0,1.0,1.0,40.0,,,,,,5e836f61445b1c0761ae6a76,14:19:08,26/02/2024
html-keyboard-response,30,55852,0.0-13.0-1.0,,"<div style=""display: flex; flex-direction: column; align-items: center; margin-top: -40px;""><img src=""images/demo_images/pattern_1.png"" style=""width: 234px; height: 230px; margin-top: -50px;""><div style=""display: flex; justify-content: space-between; margin-top: 33px;""><img src=""images/demo_images/choice_trial_1.png"" style=""width: 408px; height: 417px; margin-right: 608px;""></div></div>",,delaylearn,learning,display_response,BVd8qHAW9gT33EAESUmFZ3KZH4p1,BVd8qHAW9gT33EAESUmFZ3KZH4p1,,,,,,,,,,,,,,,,,chosen stimuli: images/demo_images/choice_trial_1.png,,,,,5e836f61445b1c0761ae6a76,14:19:08,26/02/2024
html-keyboard-response,31,58866,0.0-13.0-2.0,,,,delaylearn,learning,feedback_duration_window,BVd8qHAW9gT33EAESUmFZ3KZH4p1,BVd8qHAW9gT33EAESUmFZ3KZH4p1,,,,,,,,,,,,,,,,,,3000.0,,,,5e836f61445b1c0761ae6a76,14:19:08,26/02/2024
html-keyboard-response,32,60380,0.0-13.0-3.0,,<div style='margin:auto;width: auto; font-size: 150%'><span style='font-weight: bold; font-size: 100px; color: green;'>+10 points!</span><br><br></div>,,delaylearn,learning,feedback_image_window,BVd8qHAW9gT33EAESUmFZ3KZH4p1,BVd8qHAW9gT33EAESUmFZ3KZH4p1,,,,,,,,,,,,,,,,,,,,,,5e836f61445b1c0761ae6a76,14:19:08,26/02/2024
html-button-response,33,62939,0.0-14.0,2558.100000023842,"
  <div style=""display: flex; align-items: center; justify-content: center; height: 80vh;"">
  <div>
          <img src=""images/inst_demo_finish.png"" style=""width: 80vw; height:auto;"">
          <br><br>
      </div>
      <br><br>
  </div>",0,,,,BVd8qHAW9gT33EAESUmFZ3KZH4p1,,,,,,,,,,,,,,,,,,,,,,,5e836f61445b1c0761ae6a76,14:19:08,26/02/2024
html-keyboard-response,34,65638,0.0-15.0,2698.5,"
  <div style=""display: flex; align-items: center; justify-content: center; height: 80vh;"">
  <div>
          <img src=""images/inst_6.png"" style=""width: 80vw; height:auto;"">
          <br><br>
      </div>
      <br><br>
  </div>",j,,,,BVd8qHAW9gT33EAESUmFZ3KZH4p1,,,,,,,,,,,,,,,,,,,,,,,5e836f61445b1c0761ae6a76,14:19:08,26/02/2024
html-keyboard-response,35,68644,0.0-16.0,,"<div style=""font-size:100px;"">+</div>",,delaylearn,learning,pre_fixation,BVd8qHAW9gT33EAESUmFZ3KZH4p1,,,,,,,,,,,,,,,,,,,,,,,5e836f61445b1c0761ae6a76,14:19:08,26/02/2024
html-keyboard-response,36,70623,0.0-17.0,,"<div style=""font-size:100px;"">+</div>",,delaylearn,learning,ITI,BVd8qHAW9gT33EAESUmFZ3KZH4p1,BVd8qHAW9gT33EAESUmFZ3KZH4p1,,,,,,,,,,,,,,,,,,,1976.0,,,5e836f61445b1c0761ae6a76,14:19:08,26/02/2024
html-keyboard-response,37,73117,0.0-18.0-0.0,2493.399999976158,"<div style=""display: flex; flex-direction: column; align-items: center; margin-top: -40px;""><img src=""images/pattern_3.png"" style=""width: 234px; height: 230px; margin-top: -50px;""><div style=""display: flex; justify-content: space-between; margin-top: 33px;""><img src=""images/choice_trial_16.png"" style=""width: 408px; height: 417px; margin-right: 200px;""><img src=""images/choice_trial_2.png"" style=""width: 408px; height: 417px;""></div></div>",f,delaylearn,learning,trial,BVd8qHAW9gT33EAESUmFZ3KZH4p1,BVd8qHAW9gT33EAESUmFZ3KZH4p1,5.0,images/choice_trial_16.png,images/choice_trial_2.png,images/pattern_3.png,f,f,7000.0,16.0,2.0,2.0,0.0,7.0,1.0,1.0,16.0,50.0,,,,,,5e836f61445b1c0761ae6a76,14:19:08,26/02/2024
html-keyboard-response,38,74134,0.0-18.0-1.0,,"<div style=""display: flex; flex-direction: column; align-items: center; margin-top: -40px;""><img src=""images/pattern_3.png"" style=""width: 234px; height: 230px; margin-top: -50px;""><div style=""display: flex; justify-content: space-between; margin-top: 33px;""><img src=""images/choice_trial_16.png"" style=""width: 408px; height: 417px; margin-right: 608px;""></div></div>",,delaylearn,learning,display_response,BVd8qHAW9gT33EAESUmFZ3KZH4p1,BVd8qHAW9gT33EAESUmFZ3KZH4p1,,,,,,,,,,,,,,,,,chosen stimuli: images/choice_trial_16.png,,,,,5e836f61445b1c0761ae6a76,14:19:08,26/02/2024
html-keyboard-response,39,81145,0.0-18.0-2.0,,,,delaylearn,learning,feedback_duration_window,BVd8qHAW9gT33EAESUmFZ3KZH4p1,BVd8qHAW9gT33EAESUmFZ3KZH4p1,,,,,,,,,,,,,,,,,,7000.0,,,,5e836f61445b1c0761ae6a76,14:19:08,26/02/2024
html-keyboard-response,40,82651,0.0-18.0-3.0,,<div style='margin:auto;width: auto; font-size: 150%'><span style='font-weight: bold; font-size: 100px; color: green;'>+10 points!</span><br><br></div>,,delaylearn,learning,feedback_image_window,BVd8qHAW9gT33EAESUmFZ3KZH4p1,BVd8qHAW9gT33EAESUmFZ3KZH4p1,,,,,,,,,,,,,,,,,,,,,,5e836f61445b1c0761ae6a76,14:19:08,26/02/2024
html-keyboard-response,41,84318,0.0-19.0,,"<div style=""font-size:100px;"">+</div>",,delaylearn,learning,ITI,BVd8qHAW9gT33EAESUmFZ3KZH4p1,BVd8qHAW9gT33EAESUmFZ3KZH4p1,,,,,,,,,,,,,,,,,,,1655.0,,,5e836f61445b1c0761ae6a76,14:19:08,26/02/2024
html-keyboard-response,42,87215,0.0-20.0-0.0,2896.600000023842,"<div style=""display: flex; flex-direction: column; align-items: center; margin-top: -40px;""><img src=""images/pattern_7.png"" style=""width: 234px; height: 230px; margin-top: -50px;""><div style=""display: flex; justify-content: space-between; margin-top: 33px;""><img src=""images/choice_trial_10.png"" style=""width: 408px; height: 417px; margin-right: 200px;""><img src=""images/choice_trial_8.png"" style=""width: 408px; height: 417px;""></div></div>",j,delaylearn,learning,trial,BVd8qHAW9gT33EAESUmFZ3KZH4p1,BVd8qHAW9gT33EAESUmFZ3KZH4p1,5.0,images/choice_trial_10.png,images/choice_trial_8.png,images/pattern_7.png,j,j,750.0,10.0,8.0,6.0,1.0,8.0,1.0,1.0,8.0,60.0,,,,,,5e836f61445b1c0761ae6a76,14:19:08,26/02/2024
html-keyboard-response,43,88220,0.0-20.0-1.0,,"<div style=""display: flex; flex-direction: column; align-items: center; margin-top: -40px;""><img src=""images/pattern_7.png"" style=""width: 234px; height: 230px; margin-top: -50px;""><div style=""display: flex; justify-content: space-between; margin-top: 33px;""><img src=""images/choice_trial_8.png"" style=""width: 408px; height: 417px; margin-left:608px;""></div></div>",,delaylearn,learning,display_response,BVd8qHAW9gT33EAESUmFZ3KZH4p1,BVd8qHAW9gT33EAESUmFZ3KZH4p1,,,,,,,,,,,,,,,,,chosen stimuli: images/choice_trial_8.png,,,,,5e836f61445b1c0761ae6a76,14:19:08,26/02/2024
html-keyboard-response,44,88984,0.0-20.0-2.0,,,,delaylearn,learning,feedback_duration_window,BVd8qHAW9gT33EAESUmFZ3KZH4p1,BVd8qHAW9gT33EAESUmFZ3KZH4p1,,,,,,,,,,,,,,,,,,750.0,,,,5e836f61445b1c0761ae6a76,14:19:08,26/02/2024
html-keyboard-response,45,90498,0.0-20.0-3.0,,<div style='margin:auto;width: auto; font-size: 150%'><span style='font-weight: bold; font-size: 100px; color: green;'>+10 points!</span><br><br></div>,,delaylearn,learning,feedback_image_window,BVd8qHAW9gT33EAESUmFZ3KZH4p1,BVd8qHAW9gT33EAESUmFZ3KZH4p1,,,,,,,,,,,,,,,,,,,,,,5e836f61445b1c0761ae6a76,14:19:08,26/02/2024
html-keyboard-response,46,92611,0.0-21.0,,"<div style=""font-size:100px;"">+</div>",,delaylearn,learning,ITI,BVd8qHAW9gT33EAESUmFZ3KZH4p1,BVd8qHAW9gT33EAESUmFZ3KZH4p1,,,,,,,,,,,,,,,,,,,2104.0,,,5e836f61445b1c0761ae6a76,14:19:08,26/02/2024
html-keyboard-response,47,94599,0.0-22.0-0.0,1986.8000000715256,"<div style=""display: flex; flex-direction: column; align-items: center; margin-top: -40px;""><img src=""images/pattern_4.png"" style=""width: 234px; height: 230px; margin-top: -50px;""><div style=""display: flex; justify-content: space-between; margin-top: 33px;""><img src=""images/choice_trial_11.png"" style=""width: 408px; height: 417px; margin-right: 200px;""><img src=""images/choice_trial_4.png"" style=""width: 408px; height: 417px;""></div></div>",f,delaylearn,learning,trial,BVd8qHAW9gT33EAESUmFZ3KZH4p1,BVd8qHAW9gT33EAESUmFZ3KZH4p1,5.0,images/choice_trial_11.png,images/choice_trial_4.png,images/pattern_4.png,f,f,7000.0,11.0,4.0,3.0,0.0,9.0,1.0,1.0,11.0,70.0,,,,,,5e836f61445b1c0761ae6a76,14:19:08,26/02/2024
html-keyboard-response,48,95604,0.0-22.0-1.0,,"<div style=""display: flex; flex-direction: column; align-items: center; margin-top: -40px;""><img src=""images/pattern_4.png"" style=""width: 234px; height: 230px; margin-top: -50px;""><div style=""display: flex; justify-content: space-between; margin-top: 33px;""><img src=""images/choice_trial_11.png"" style=""width: 408px; height: 417px; margin-right: 608px;""></div></div>",,delaylearn,learning,display_response,BVd8qHAW9gT33EAESUmFZ3KZH4p1,BVd8qHAW9gT33EAESUmFZ3KZH4p1,,,,,,,,,,,,,,,,,chosen stimuli: images/choice_trial_11.png,,,,,5e836f61445b1c0761ae6a76,14:19:08,26/02/2024
html-keyboard-response,49,102609,0.0-22.0-2.0,,,,delaylearn,learning,feedback_duration_window,BVd8qHAW9gT33EAESUmFZ3KZH4p1,BVd8qHAW9gT33EAESUmFZ3KZH4p1,,,,,,,,,,,,,,,,,,7000.0,,,,5e836f61445b1c0761ae6a76,14:19:08,26/02/2024
html-keyboard-response,50,104116,0.0-22.0-3.0,,<div style='margin:auto;width: auto; font-size: 150%'><span style='font-weight: bold; font-size: 100px; color: green;'>+10 points!</span><br><br></div>,,delaylearn,learning,feedback_image_window,BVd8qHAW9gT33EAESUmFZ3KZH4p1,BVd8qHAW9gT33EAESUmFZ3KZH4p1,,,,,,,,,,,,,,,,,,,,,,5e836f61445b1c0761ae6a76,14:19:08,26/02/2024
html-keyboard-response,51,105790,0.0-23.0,,"<div style=""font-size:100px;"">+</div>",,delaylearn,learning,ITI,BVd8qHAW9gT33EAESUmFZ3KZH4p1,BVd8qHAW9gT33EAESUmFZ3KZH4p1,,,,,,,,,,,,,,,,,,,1670.0,,,5e836f61445b1c0761ae6a76,14:19:08,26/02/2024
html-keyboard-response,52,108231,0.0-24.0-0.0,2440.2000000476837,"<div style=""display: flex; flex-direction: column; align-items: center; margin-top: -40px;""><img src=""images/pattern_5.png"" style=""width: 234px; height: 230px; margin-top: -50px;""><div style=""display: flex; justify-content: space-between; margin-top: 33px;""><img src=""images/choice_trial_13.png"" style=""width: 408px; height: 417px; margin-right: 200px;""><img src=""images/choice_trial_7.png"" style=""width: 408px; height: 417px;""></div></div>",j,delaylearn,learning,trial,BVd8qHAW9gT33EAESUmFZ3KZH4p1,BVd8qHAW9gT33EAESUmFZ3KZH4p1,5.0,images/choice_trial_13.png,images/choice_trial_7.png,images/pattern_5.png,j,j,750.0,13.0,7.0,4.0,1.0,10.0,1.0,1.0,7.0,80.0,,,,,,5e836f61445b1c0761ae6a76,14:19:08,26/02/2024
html-keyboard-response,53,109236,0.0-24.0-1.0,,"<div style=""display: flex; flex-direction: column; align-items: center; margin-top: -40px;""><img src=""images/pattern_5.png"" style=""width: 234px; height: 230px; margin-top: -50px;""><div style=""display: flex; justify-content: space-between; margin-top: 33px;""><img src=""images/choice_trial_7.png"" style=""width: 408px; height: 417px; margin-left:608px;""></div></div>",,delaylearn,learning,display_response,BVd8qHAW9gT33EAESUmFZ3KZH4p1,BVd8qHAW9gT33EAESUmFZ3KZH4p1,,,,,,,,,,,,,,,,,chosen stimuli: images/choice_trial_7.png,,,,,5e836f61445b1c0761ae6a76,14:19:08,26/02/2024
html-keyboard-response,54,109991,0.0-24.0-2.0,,,,delaylearn,learning,feedback_duration_window,BVd8qHAW9gT33EAESUmFZ3KZH4p1,BVd8qHAW9gT33EAESUmFZ3KZH4p1,,,,,,,,,,,,,,,,,,750.0,,,,5e836f61445b1c0761ae6a76,14:19:08,26/02/2024
html-keyboard-response,55,111507,0.0-24.0-3.0,,<div style='margin:auto;width: auto; font-size: 150%'><span style='font-weight: bold; font-size: 100px; color: green;'>+10 points!</span><br><br></div>,,delaylearn,learning,feedback_image_window,BVd8qHAW9gT33EAESUmFZ3KZH4p1,BVd8qHAW9gT33EAESUmFZ3KZH4p1,,,,,,,,,,,,,,,,,,,,,,5e836f61445b1c0761ae6a76,14:19:08,26/02/2024
html-keyboard-response,56,113915,0.0-25.0,,"<div style=""font-size:100px;"">+</div>",,delaylearn,learning,ITI,BVd8qHAW9gT33EAESUmFZ3KZH4p1,BVd8qHAW9gT33EAESUmFZ3KZH4p1,,,,,,,,,,,,,,,,,,,2403.0,,,5e836f61445b1c0761ae6a76,14:19:08,26/02/2024
html-keyboard-response,57,116202,0.0-26.0-0.0,2286.7999999523163,"<div style=""display: flex; flex-direction: column; align-items: center; margin-top: -40px;""><img src=""images/pattern_6.png"" style=""width: 234px; height: 230px; margin-top: -50px;""><div style=""display: flex; justify-content: space-between; margin-top: 33px;""><img src=""images/choice_trial_14.png"" style=""width: 408px; height: 417px; margin-right: 200px;""><img src=""images/choice_trial_9.png"" style=""width: 408px; height: 417px;""></div></div>",j,delaylearn,learning,trial,BVd8qHAW9gT33EAESUmFZ3KZH4p1,BVd8qHAW9gT33EAESUmFZ3KZH4p1,5.0,images/choice_trial_14.png,images/choice_trial_9.png,images/pattern_6.png,j,f,750.0,14.0,9.0,5.0,0.0,11.0,0.0,1.0,9.0,90.0,,,,,,5e836f61445b1c0761ae6a76,14:19:08,26/02/2024
html-keyboard-response,58,117207,0.0-26.0-1.0,,"<div style=""display: flex; flex-direction: column; align-items: center; margin-top: -40px;""><img src=""images/pattern_6.png"" style=""width: 234px; height: 230px; margin-top: -50px;""><div style=""display: flex; justify-content: space-between; margin-top: 33px;""><img src=""images/choice_trial_9.png"" style=""width: 408px; height: 417px; margin-left:608px;""></div></div>",,delaylearn,learning,display_response,BVd8qHAW9gT33EAESUmFZ3KZH4p1,BVd8qHAW9gT33EAESUmFZ3KZH4p1,,,,,,,,,,,,,,,,,chosen stimuli: images/choice_trial_9.png,,,,,5e836f61445b1c0761ae6a76,14:19:08,26/02/2024
html-keyboard-response,59,117963,0.0-26.0-2.0,,,,delaylearn,learning,feedback_duration_window,BVd8qHAW9gT33EAESUmFZ3KZH4p1,BVd8qHAW9gT33EAESUmFZ3KZH4p1,,,,,,,,,,,,,,,,,,750.0,,,,5e836f61445b1c0761ae6a76,14:19:08,26/02/2024
html-keyboard-response,60,119471,0.0-26.0-3.0,,<div style='margin:auto;width: auto; font-size: 150%'><span style='font-weight: bold; font-size: 100px; color: green;'>+10 points!</span><br><br></div>,,delaylearn,learning,feedback_image_window,BVd8qHAW9gT33EAESUmFZ3KZH4p1,BVd8qHAW9gT33EAESUmFZ3KZH4p1,,,,,,,,,,,,,,,,,,,,,,5e836f61445b1c0761ae6a76,14:19:08,26/02/2024
html-keyboard-response,61,119984,0.0-27.0-0.0,,,,,,mood_trial_fixation,BVd8qHAW9gT33EAESUmFZ3KZH4p1,,,,,,,,,,,,,,,,,,,,,,,5e836f61445b1c0761ae6a76,14:19:08,26/02/2024
lmdlab-html-vas-response,62,123995,0.0-27.0-1.0,3003.0,How happy are you right now?,0.9614197530864198,delaylearn,learning,mood_trial,BVd8qHAW9gT33EAESUmFZ3KZH4p1,BVd8qHAW9gT33EAESUmFZ3KZH4p1,,,,,,,,,,,,,,,,,,,,"['Very unhappy', 'Very happy']",,5e836f61445b1c0761ae6a76,14:19:08,26/02/2024
html-keyboard-response,63,125706,0.0-28.0,,"<div style=""font-size:100px;"">+</div>",,delaylearn,learning,ITI,BVd8qHAW9gT33EAESUmFZ3KZH4p1,BVd8qHAW9gT33EAESUmFZ3KZH4p1,,,,,,,,,,,,,,,,,,,1699.0,,,5e836f61445b1c0761ae6a76,14:19:08,26/02/2024
html-keyboard-response,64,127596,0.0-29.0-0.0,1889.0,"<div style=""display: flex; flex-direction: column; align-items: center; margin-top: -40px;""><img src=""images/pattern_1.png"" style=""width: 234px; height: 230px; margin-top: -50px;""><div style=""display: flex; justify-content: space-between; margin-top: 33px;""><img src=""images/choice_trial_15.png"" style=""width: 408px; height: 417px; margin-right: 200px;""><img src=""images/choice_trial_6.png"" style=""width: 408px; height: 417px;""></div></div>",f,delaylearn,learning,trial,BVd8qHAW9gT33EAESUmFZ3KZH4p1,BVd8qHAW9gT33EAESUmFZ3KZH4p1,5.0,images/choice_trial_15.png,images/choice_trial_6.png,images/pattern_1.png,j,j,7000.0,15.0,6.0,1.0,1.0,12.0,0.0,0.0,15.0,90.0,,,,,,5e836f61445b1c0761ae6a76,14:19:08,26/02/2024
html-keyboard-response,65,128602,0.0-29.0-1.0,,"<div style=""display: flex; flex-direction: column; align-items: center; margin-top: -40px;""><img src=""images/pattern_1.png"" style=""width: 234px; height: 230px; margin-top: -50px;""><div style=""display: flex; justify-content: space-between; margin-top: 33px;""><img src=""images/choice_trial_15.png"" style=""width: 408px; height: 417px; margin-right: 608px;""></div></div>",,delaylearn,learning,display_response,BVd8qHAW9gT33EAESUmFZ3KZH4p1,BVd8qHAW9gT33EAESUmFZ3KZH4p1,,,,,,,,,,,,,,,,,chosen stimuli: images/choice_trial_15.png,,,,,5e836f61445b1c0761ae6a76,14:19:08,26/02/2024
html-keyboard-response,66,135609,0.0-29.0-2.0,,,,delaylearn,learning,feedback_duration_window,BVd8qHAW9gT33EAESUmFZ3KZH4p1,BVd8qHAW9gT33EAESUmFZ3KZH4p1,,,,,,,,,,,,,,,,,,7000.0,,,,5e836f61445b1c0761ae6a76,14:19:08,26/02/2024
html-keyboard-response,67,137111,0.0-29.0-3.0,,<div style='margin:auto;width: auto; font-size: 150%'><span style='font-weight: bold; font-size: 100px; color: red;'>0 points!</span><br><br></div>,,delaylearn,learning,feedback_image_window,BVd8qHAW9gT33EAESUmFZ3KZH4p1,BVd8qHAW9gT33EAESUmFZ3KZH4p1,,,,,,,,,,,,,,,,,,,,,,5e836f61445b1c0761ae6a76,14:19:08,26/02/2024
html-keyboard-response,68,139033,0.0-30.0,,"<div style=""font-size:100px;"">+</div>",,delaylearn,learning,ITI,BVd8qHAW9gT33EAESUmFZ3KZH4p1,BVd8qHAW9gT33EAESUmFZ3KZH4p1,,,,,,,,,,,,,,,,,,,1921.0,,,5e836f61445b1c0761ae6a76,14:19:08,26/02/2024
html-keyboard-response,69,141465,0.0-31.0-0.0,2431.399999976158,"<div style=""display: flex; flex-direction: column; align-items: center; margin-top: -40px;""><img src=""images/pattern_3.png"" style=""width: 234px; height: 230px; margin-top: -50px;""><div style=""display: flex; justify-content: space-between; margin-top: 33px;""><img src=""images/choice_trial_2.png"" style=""width: 408px; height: 417px; margin-right: 200px;""><img src=""images/choice_trial_16.png"" style=""width: 408px; height: 417px;""></div></div>",j,delaylearn,learning,trial,BVd8qHAW9gT33EAESUmFZ3KZH4p1,BVd8qHAW9gT33EAESUmFZ3KZH4p1,5.0,images/choice_trial_2.png,images/choice_trial_16.png,images/pattern_3.png,f,j,7000.0,2.0,16.0,2.0,1.0,13.0,1.0,0.0,16.0,90.0,,,,,,5e836f61445b1c0761ae6a76,14:19:08,26/02/2024
html-keyboard-response,70,142479,0.0-31.0-1.0,,"<div style=""display: flex; flex-direction: column; align-items: center; margin-top: -40px;""><img src=""images/pattern_3.png"" style=""width: 234px; height: 230px; margin-top: -50px;""><div style=""display: flex; justify-content: space-between; margin-top: 33px;""><img src=""images/choice_trial_16.png"" style=""width: 408px; height: 417px; margin-left:608px;""></div></div>",,delaylearn,learning,display_response,BVd8qHAW9gT33EAESUmFZ3KZH4p1,BVd8qHAW9gT33EAESUmFZ3KZH4p1,,,,,,,,,,,,,,,,,chosen stimuli: images/choice_trial_16.png,,,,,5e836f61445b1c0761ae6a76,14:19:08,26/02/2024
html-keyboard-response,71,149484,0.0-31.0-2.0,,,,delaylearn,learning,feedback_duration_window,BVd8qHAW9gT33EAESUmFZ3KZH4p1,BVd8qHAW9gT33EAESUmFZ3KZH4p1,,,,,,,,,,,,,,,,,,7000.0,,,,5e836f61445b1c0761ae6a76,14:19:08,26/02/2024
html-keyboard-response,72,150991,0.0-31.0-3.0,,<div style='margin:auto;width: auto; font-size: 150%'><span style='font-weight: bold; font-size: 100px; color: red;'>0 points!</span><br><br></div>,,delaylearn,learning,feedback_image_window,BVd8qHAW9gT33EAESUmFZ3KZH4p1,BVd8qHAW9gT33EAESUmFZ3KZH4p1,,,,,,,,,,,,,,,,,,,,,,5e836f61445b1c0761ae6a76,14:19:08,26/02/2024
html-keyboard-response,73,152611,0.0-32.0,,"<div style=""font-size:100px;"">+</div>",,delaylearn,learning,ITI,BVd8qHAW9gT33EAESUmFZ3KZH4p1,BVd8qHAW9gT33EAESUmFZ3KZH4p1,,,,,,,,,,,,,,,,,,,1614.0,,,5e836f61445b1c0761ae6a76,14:19:08,26/02/2024
html-keyboard-response,74,154256,0.0-33.0-0.0,1644.8000000715256,"<div style=""display: flex; flex-direction: column; align-items: center; margin-top: -40px;""><img src=""images/pattern_5.png"" style=""width: 234px; height: 230px; margin-top: -50px;""><div style=""display: flex; justify-content: space-between; margin-top: 33px;""><img src=""images/choice_trial_7.png"" style=""width: 408px; height: 417px; margin-right: 200px;""><img src=""images/choice_trial_13.png"" style=""width: 408px; height: 417px;""></div></div>",f,delaylearn,learning,trial,BVd8qHAW9gT33EAESUmFZ3KZH4p1,BVd8qHAW9gT33EAESUmFZ3KZH4p1,5.0,images/choice_trial_7.png,images/choice_trial_13.png,images/pattern_5.png,f,f,750.0,7.0,13.0,4.0,0.0,14.0,1.0,1.0,7.0,100.0,,,,,,5e836f61445b1c0761ae6a76,14:19:08,26/02/2024
html-keyboard-response,75,155263,0.0-33.0-1.0,,"<div style=""display: flex; flex-direction: column; align-items: center; margin-top: -40px;""><img src=""images/pattern_5.png"" style=""width: 234px; height: 230px; margin-top: -50px;""><div style=""display: flex; justify-content: space-between; margin-top: 33px;""><img src=""images/choice_trial_7.png"" style=""width: 408px; height: 417px; margin-right: 608px;""></div></div>",,delaylearn,learning,display_response,BVd8qHAW9gT33EAESUmFZ3KZH4p1,BVd8qHAW9gT33EAESUmFZ3KZH4p1,,,,,,,,,,,,,,,,,chosen stimuli: images/choice_trial_7.png,,,,,5e836f61445b1c0761ae6a76,14:19:08,26/02/2024
html-keyboard-response,76,156019,0.0-33.0-2.0,,,,delaylearn,learning,feedback_duration_window,BVd8qHAW9gT33EAESUmFZ3KZH4p1,BVd8qHAW9gT33EAESUmFZ3KZH4p1,,,,,,,,,,,,,,,,,,750.0,,,,5e836f61445b1c0761ae6a76,14:19:08,26/02/2024
html-keyboard-response,77,157526,0.0-33.0-3.0,,<div style='margin:auto;width: auto; font-size: 150%'><span style='font-weight: bold; font-size: 100px; color: green;'>+10 points!</span><br><br></div>,,delaylearn,learning,feedback_image_window,BVd8qHAW9gT33EAESUmFZ3KZH4p1,BVd8qHAW9gT33EAESUmFZ3KZH4p1,,,,,,,,,,,,,,,,,,,,,,5e836f61445b1c0761ae6a76,14:19:08,26/02/2024
html-keyboard-response,78,158033,0.0-34.0-0.0,,,,,,mood_trial_fixation,BVd8qHAW9gT33EAESUmFZ3KZH4p1,,,,,,,,,,,,,,,,,,,,,,,5e836f61445b1c0761ae6a76,14:19:08,26/02/2024
lmdlab-html-vas-response,79,161804,0.0-34.0-1.0,2762.0,How happy are you right now?,0.7114197530864198,delaylearn,learning,mood_trial,BVd8qHAW9gT33EAESUmFZ3KZH4p1,BVd8qHAW9gT33EAESUmFZ3KZH4p1,,,,,,,,,,,,,,,,,,,,"['Very unhappy', 'Very happy']",,5e836f61445b1c0761ae6a76,14:19:08,26/02/2024
html-keyboard-response,80,164123,0.0-35.0,,"<div style=""font-size:100px;"">+</div>",,delaylearn,learning,ITI,BVd8qHAW9gT33EAESUmFZ3KZH4p1,BVd8qHAW9gT33EAESUmFZ3KZH4p1,,,,,,,,,,,,,,,,,,,2316.0,,,5e836f61445b1c0761ae6a76,14:19:08,26/02/2024
html-keyboard-response,81,167003,0.0-36.0-0.0,2879.2000000476837,"<div style=""display: flex; flex-direction: column; align-items: center; margin-top: -40px;""><img src=""images/pattern_6.png"" style=""width: 234px; height: 230px; margin-top: -50px;""><div style=""display: flex; justify-content: space-between; margin-top: 33px;""><img src=""images/choice_trial_14.png"" style=""width: 408px; height: 417px; margin-right: 200px;""><img src=""images/choice_trial_9.png"" style=""width: 408px; height: 417px;""></div></div>",j,delaylearn,learning,trial,BVd8qHAW9gT33EAESUmFZ3KZH4p1,BVd8qHAW9gT33EAESUmFZ3KZH4p1,5.0,images/choice_trial_14.png,images/choice_trial_9.png,images/pattern_6.png,f,f,750.0,14.0,9.0,5.0,0.0,15.0,0.0,0.0,9.0,100.0,,,,,,5e836f61445b1c0761ae6a76,14:19:08,26/02/2024
html-keyboard-response,82,168012,0.0-36.0-1.0,,"<div style=""display: flex; flex-direction: column; align-items: center; margin-top: -40px;""><img src=""images/pattern_6.png"" style=""width: 234px; height: 230px; margin-top: -50px;""><div style=""display: flex; justify-content: space-between; margin-top: 33px;""><img src=""images/choice_trial_9.png"" style=""width: 408px; height: 417px; margin-left:608px;""></div></div>",,delaylearn,learning,display_response,BVd8qHAW9gT33EAESUmFZ3KZH4p1,BVd8qHAW9gT33EAESUmFZ3KZH4p1,,,,,,,,,,,,,,,,,chosen stimuli: images/choice_trial_9.png,,,,,5e836f61445b1c0761ae6a76,14:19:08,26/02/2024
html-keyboard-response,83,168778,0.0-36.0-2.0,,,,delaylearn,learning,feedback_duration_window,BVd8qHAW9gT33EAESUmFZ3KZH4p1,BVd8qHAW9gT33EAESUmFZ3KZH4p1,,,,,,,,,,,,,,,,,,750.0,,,,5e836f61445b1c0761ae6a76,14:19:08,26/02/2024
html-keyboard-response,84,170284,0.0-36.0-3.0,,<div style='margin:auto;width: auto; font-size: 150%'><span style='font-weight: bold; font-size: 100px; color: red;'>0 points!</span><br><br></div>,,delaylearn,learning,feedback_image_window,BVd8qHAW9gT33EAESUmFZ3KZH4p1,BVd8qHAW9gT33EAESUmFZ3KZH4p1,,,,,,,,,,,,,,,,,,,,,,5e836f61445b1c0761ae6a76,14:19:08,26/02/2024
html-keyboard-response,85,172262,0.0-37.0,,"<div style=""font-size:100px;"">+</div>",,delaylearn,learning,ITI,BVd8qHAW9gT33EAESUmFZ3KZH4p1,BVd8qHAW9gT33EAESUmFZ3KZH4p1,,,,,,,,,,,,,,,,,,,1971.0,,,5e836f61445b1c0761ae6a76,14:19:08,26/02/2024
html-keyboard-response,86,173879,0.0-38.0-0.0,1616.6000000238419,"<div style=""display: flex; flex-direction: column; align-items: center; margin-top: -40px;""><img src=""images/pattern_4.png"" style=""width: 234px; height: 230px; margin-top: -50px;""><div style=""display: flex; justify-content: space-between; margin-top: 33px;""><img src=""images/choice_trial_4.png"" style=""width: 408px; height: 417px; margin-right: 200px;""><img src=""images/choice_trial_11.png"" style=""width: 408px; height: 417px;""></div></div>",j,delaylearn,learning,trial,BVd8qHAW9gT33EAESUmFZ3KZH4p1,BVd8qHAW9gT33EAESUmFZ3KZH4p1,5.0,images/choice_trial_4.png,images/choice_trial_11.png,images/pattern_4.png,j,j,7000.0,4.0,11.0,3.0,1.0,16.0,1.0,1.0,11.0,110.0,,,,,,5e836f61445b1c0761ae6a76,14:19:08,26/02/2024
html-keyboard-response,87,174896,0.0-38.0-1.0,,"<div style=""display: flex; flex-direction: column; align-items: center; margin-top: -40px;""><img src=""images/pattern_4.png"" style=""width: 234px; height: 230px; margin-top: -50px;""><div style=""display: flex; justify-content: space-between; margin-top: 33px;""><img src=""images/choice_trial_11.png"" style=""width: 408px; height: 417px; margin-left:608px;""></div></div>",,delaylearn,learning,display_response,BVd8qHAW9gT33EAESUmFZ3KZH4p1,BVd8qHAW9gT33EAESUmFZ3KZH4p1,,,,,,,,,,,,,,,,,chosen stimuli: images/choice_trial_11.png,,,,,5e836f61445b1c0761ae6a76,14:19:08,26/02/2024
html-keyboard-response,88,181912,0.0-38.0-2.0,,,,delaylearn,learning,feedback_duration_window,BVd8qHAW9gT33EAESUmFZ3KZH4p1,BVd8qHAW9gT33EAESUmFZ3KZH4p1,,,,,,,,,,,,,,,,,,7000.0,,,,5e836f61445b1c0761ae6a76,14:19:08,26/02/2024
html-keyboard-response,89,183415,0.0-38.0-3.0,,<div style='margin:auto;width: auto; font-size: 150%'><span style='font-weight: bold; font-size: 100px; color: green;'>+10 points!</span><br><br></div>,,delaylearn,learning,feedback_image_window,BVd8qHAW9gT33EAESUmFZ3KZH4p1,BVd8qHAW9gT33EAESUmFZ3KZH4p1,,,,,,,,,,,,,,,,,,,,,,5e836f61445b1c0761ae6a76,14:19:08,26/02/2024
html-keyboard-response,90,185762,0.0-39.0,,"<div style=""font-size:100px;"">+</div>",,delaylearn,learning,ITI,BVd8qHAW9gT33EAESUmFZ3KZH4p1,BVd8qHAW9gT33EAESUmFZ3KZH4p1,,,,,,,,,,,,,,,,,,,2344.0,,,5e836f61445b1c0761ae6a76,14:19:08,26/02/2024
html-keyboard-response,91,188769,0.0-40.0-0.0,,"<div style=""display: flex; flex-direction: column; align-items: center; margin-top: -40px;""><img src=""images/pattern_7.png"" style=""width: 234px; height: 230px; margin-top: -50px;""><div style=""display: flex; justify-content: space-between; margin-top: 33px;""><img src=""images/choice_trial_8.png"" style=""width: 408px; height: 417px; margin-right: 200px;""><img src=""images/choice_trial_10.png"" style=""width: 408px; height: 417px;""></div></div>",,delaylearn,learning,trial,BVd8qHAW9gT33EAESUmFZ3KZH4p1,BVd8qHAW9gT33EAESUmFZ3KZH4p1,5.0,images/choice_trial_8.png,images/choice_trial_10.png,images/pattern_7.png,j,f,750.0,8.0,10.0,6.0,0.0,17.0,0.0,0.0,0.0,110.0,,,,,,5e836f61445b1c0761ae6a76,14:19:08,26/02/2024
html-keyboard-response,92,189776,0.0-40.0-1.0,,<div style='font-weight: bold; font-size: 75px; color: red;'>Missed Trial <br><br><br><br> Please respond faster</div>,,delaylearn,learning,display_response,BVd8qHAW9gT33EAESUmFZ3KZH4p1,BVd8qHAW9gT33EAESUmFZ3KZH4p1,,,,,,,,,,,,,,,,,Missed trial,,,,,5e836f61445b1c0761ae6a76,14:19:08,26/02/2024
html-keyboard-response,93,189781,0.0-40.0-2.0,,,,delaylearn,learning,feedback_duration_window,BVd8qHAW9gT33EAESUmFZ3KZH4p1,BVd8qHAW9gT33EAESUmFZ3KZH4p1,,,,,,,,,,,,,,,,,,0.0,,,,5e836f61445b1c0761ae6a76,14:19:08,26/02/2024
html-keyboard-response,94,189786,0.0-40.0-3.0,,,,delaylearn,learning,feedback_image_window,BVd8qHAW9gT33EAESUmFZ3KZH4p1,BVd8qHAW9gT33EAESUmFZ3KZH4p1,,,,,,,,,,,,,,,,,,,,,,5e836f61445b1c0761ae6a76,14:19:08,26/02/2024
html-keyboard-response,95,191769,0.0-41.0,,"<div style=""font-size:100px;"">+</div>",,delaylearn,learning,ITI,BVd8qHAW9gT33EAESUmFZ3KZH4p1,BVd8qHAW9gT33EAESUmFZ3KZH4p1,,,,,,,,,,,,,,,,,,,1976.0,,,5e836f61445b1c0761ae6a76,14:19:08,26/02/2024
html-keyboard-response,96,193364,0.0-42.0-0.0,1594.5,"<div style=""display: flex; flex-direction: column; align-items: center; margin-top: -40px;""><img src=""images/pattern_1.png"" style=""width: 234px; height: 230px; margin-top: -50px;""><div style=""display: flex; justify-content: space-between; margin-top: 33px;""><img src=""images/choice_trial_6.png"" style=""width: 408px; height: 417px; margin-right: 200px;""><img src=""images/choice_trial_15.png"" style=""width: 408px; height: 417px;""></div></div>",j,delaylearn,learning,trial,BVd8qHAW9gT33EAESUmFZ3KZH4p1,BVd8qHAW9gT33EAESUmFZ3KZH4p1,5.0,images/choice_trial_6.png,images/choice_trial_15.png,images/pattern_1.png,f,f,7000.0,6.0,15.0,1.0,0.0,18.0,0.0,0.0,15.0,110.0,,,,,,5e836f61445b1c0761ae6a76,14:19:08,26/02/2024
html-keyboard-response,97,194368,0.0-42.0-1.0,,"<div style=""display: flex; flex-direction: column; align-items: center; margin-top: -40px;""><img src=""images/pattern_1.png"" style=""width: 234px; height: 230px; margin-top: -50px;""><div style=""display: flex; justify-content: space-between; margin-top: 33px;""><img src=""images/choice_trial_15.png"" style=""width: 408px; height: 417px; margin-left:608px;""></div></div>",,delaylearn,learning,display_response,BVd8qHAW9gT33EAESUmFZ3KZH4p1,BVd8qHAW9gT33EAESUmFZ3KZH4p1,,,,,,,,,,,,,,,,,chosen stimuli: images/choice_trial_15.png,,,,,5e836f61445b1c0761ae6a76,14:19:08,26/02/2024
html-keyboard-response,98,201373,0.0-42.0-2.0,,,,delaylearn,learning,feedback_duration_window,BVd8qHAW9gT33EAESUmFZ3KZH4p1,BVd8qHAW9gT33EAESUmFZ3KZH4p1,,,,,,,,,,,,,,,,,,7000.0,,,,5e836f61445b1c0761ae6a76,14:19:08,26/02/2024
html-keyboard-response,99,202880,0.0-42.0-3.0,,<div style='margin:auto;width: auto; font-size: 150%'><span style='font-weight: bold; font-size: 100px; color: red;'>0 points!</span><br><br></div>,,delaylearn,learning,feedback_image_window,BVd8qHAW9gT33EAESUmFZ3KZH4p1,BVd8qHAW9gT33EAESUmFZ3KZH4p1,,,,,,,,,,,,,,,,,,,,,,5e836f61445b1c0761ae6a76,14:19:08,26/02/2024
html-keyboard-response,100,204686,0.0-43.0,,"<div style=""font-size:100px;"">+</div>",,delaylearn,learning,ITI,BVd8qHAW9gT33EAESUmFZ3KZH4p1,BVd8qHAW9gT33EAESUmFZ3KZH4p1,,,,,,,,,,,,,,,,,,,1803.0,,,5e836f61445b1c0761ae6a76,14:19:08,26/02/2024
html-keyboard-response,101,207699,0.0-44.0-0.0,,"<div style=""display: flex; flex-direction: column; align-items: center; margin-top: -40px;""><img src=""images/pattern_6.png"" style=""width: 234px; height: 230px; margin-top: -50px;""><div style=""display: flex; justify-content: space-between; margin-top: 33px;""><img src=""images/choice_trial_9.png"" style=""width: 408px; height: 417px; margin-right: 200px;""><img src=""images/choice_trial_14.png"" style=""width: 408px; height: 417px;""></div></div>",,delaylearn,learning,trial,BVd8qHAW9gT33EAESUmFZ3KZH4p1,BVd8qHAW9gT33EAESUmFZ3KZH4p1,5.0,images/choice_trial_9.png,images/choice_trial_14.png,images/pattern_6.png,j,j,750.0,9.0,14.0,5.0,1.0,19.0,0.0,0.0,0.0,110.0,,,,,,5e836f61445b1c0761ae6a76,14:19:08,26/02/2024
html-keyboard-response,102,208706,0.0-44.0-1.0,,<div style='font-weight: bold; font-size: 75px; color: red;'>Missed Trial <br><br><br><br> Please respond faster</div>,,delaylearn,learning,display_response,BVd8qHAW9gT33EAESUmFZ3KZH4p1,BVd8qHAW9gT33EAESUmFZ3KZH4p1,,,,,,,,,,,,,,,,,Missed trial,,,,,5e836f61445b1c0761ae6a76,14:19:08,26/02/2024
html-keyboard-response,103,208712,0.0-44.0-2.0,,,,delaylearn,learning,feedback_duration_window,BVd8qHAW9gT33EAESUmFZ3KZH4p1,BVd8qHAW9gT33EAESUmFZ3KZH4p1,,,,,,,,,,,,,,,,,,0.0,,,,5e836f61445b1c0761ae6a76,14:19:08,26/02/2024
html-keyboard-response,104,208717,0.0-44.0-3.0,,,,delaylearn,learning,feedback_image_window,BVd8qHAW9gT33EAESUmFZ3KZH4p1,BVd8qHAW9gT33EAESUmFZ3KZH4p1,,,,,,,,,,,,,,,,,,,,,,5e836f61445b1c0761ae6a76,14:19:08,26/02/2024
html-keyboard-response,105,211179,0.0-45.0,,"<div style=""font-size:100px;"">+</div>",,delaylearn,learning,ITI,BVd8qHAW9gT33EAESUmFZ3KZH4p1,BVd8qHAW9gT33EAESUmFZ3KZH4p1,,,,,,,,,,,,,,,,,,,2455.0,,,5e836f61445b1c0761ae6a76,14:19:08,26/02/2024
html-keyboard-response,106,212264,0.0-46.0-0.0,1084.1000000238419,"<div style=""display: flex; flex-direction: column; align-items: center; margin-top: -40px;""><img src=""images/pattern_4.png"" style=""width: 234px; height: 230px; margin-top: -50px;""><div style=""display: flex; justify-content: space-between; margin-top: 33px;""><img src=""images/choice_trial_11.png"" style=""width: 408px; height: 417px; margin-right: 200px;""><img src=""images/choice_trial_4.png"" style=""width: 408px; height: 417px;""></div></div>",f,delaylearn,learning,trial,BVd8qHAW9gT33EAESUmFZ3KZH4p1,BVd8qHAW9gT33EAESUmFZ3KZH4p1,5.0,images/choice_trial_11.png,images/choice_trial_4.png,images/pattern_4.png,f,f,7000.0,11.0,4.0,3.0,0.0,20.0,1.0,1.0,11.0,120.0,,,,,,5e836f61445b1c0761ae6a76,14:19:08,26/02/2024
html-keyboard-response,107,213269,0.0-46.0-1.0,,"<div style=""display: flex; flex-direction: column; align-items: center; margin-top: -40px;""><img src=""images/pattern_4.png"" style=""width: 234px; height: 230px; margin-top: -50px;""><div style=""display: flex; justify-content: space-between; margin-top: 33px;""><img src=""images/choice_trial_11.png"" style=""width: 408px; height: 417px; margin-right: 608px;""></div></div>",,delaylearn,learning,display_response,BVd8qHAW9gT33EAESUmFZ3KZH4p1,BVd8qHAW9gT33EAESUmFZ3KZH4p1,,,,,,,,,,,,,,,,,chosen stimuli: images/choice_trial_11.png,,,,,5e836f61445b1c0761ae6a76,14:19:08,26/02/2024
html-keyboard-response,108,220276,0.0-46.0-2.0,,,,delaylearn,learning,feedback_duration_window,BVd8qHAW9gT33EAESUmFZ3KZH4p1,BVd8qHAW9gT33EAESUmFZ3KZH4p1,,,,,,,,,,,,,,,,,,7000.0,,,,5e836f61445b1c0761ae6a76,14:19:08,26/02/2024
html-keyboard-response,109,221783,0.0-46.0-3.0,,<div style='margin:auto;width: auto; font-size: 150%'><span style='font-weight: bold; font-size: 100px; color: green;'>+10 points!</span><br><br></div>,,delaylearn,learning,feedback_image_window,BVd8qHAW9gT33EAESUmFZ3KZH4p1,BVd8qHAW9gT33EAESUmFZ3KZH4p1,,,,,,,,,,,,,,,,,,,,,,5e836f61445b1c0761ae6a76,14:19:08,26/02/2024
html-keyboard-response,110,222290,0.0-47.0-0.0,,,,,,mood_trial_fixation,BVd8qHAW9gT33EAESUmFZ3KZH4p1,,,,,,,,,,,,,,,,,,,,,,,5e836f61445b1c0761ae6a76,14:19:08,26/02/2024
lmdlab-html-vas-response,111,225731,0.0-47.0-1.0,2433.0,How happy are you right now?,0.6527777777777778,delaylearn,learning,mood_trial,BVd8qHAW9gT33EAESUmFZ3KZH4p1,BVd8qHAW9gT33EAESUmFZ3KZH4p1,,,,,,,,,,,,,,,,,,,,"['Very unhappy', 'Very happy']",,5e836f61445b1c0761ae6a76,14:19:08,26/02/2024
html-keyboard-response,112,227297,0.0-48.0,,"<div style=""font-size:100px;"">+</div>",,delaylearn,learning,ITI,BVd8qHAW9gT33EAESUmFZ3KZH4p1,BVd8qHAW9gT33EAESUmFZ3KZH4p1,,,,,,,,,,,,,,,,,,,1561.0,,,5e836f61445b1c0761ae6a76,14:19:08,26/02/2024
html-keyboard-response,113,228882,0.0-49.0-0.0,1584.3000000715256,"<div style=""display: flex; flex-direction: column; align-items: center; margin-top: -40px;""><img src=""images/pattern_7.png"" style=""width: 234px; height: 230px; margin-top: -50px;""><div style=""display: flex; justify-content: space-between; margin-top: 33px;""><img src=""images/choice_trial_10.png"" style=""width: 408px; height: 417px; margin-right: 200px;""><img src=""images/choice_trial_8.png"" style=""width: 408px; height: 417px;""></div></div>",j,delaylearn,learning,trial,BVd8qHAW9gT33EAESUmFZ3KZH4p1,BVd8qHAW9gT33EAESUmFZ3KZH4p1,5.0,images/choice_trial_10.png,images/choice_trial_8.png,images/pattern_7.png,j,j,750.0,10.0,8.0,6.0,1.0,21.0,1.0,1.0,8.0,130.0,,,,,,5e836f61445b1c0761ae6a76,14:19:08,26/02/2024
html-keyboard-response,114,229895,0.0-49.0-1.0,,"<div style=""display: flex; flex-direction: column; align-items: center; margin-top: -40px;""><img src=""images/pattern_7.png"" style=""width: 234px; height: 230px; margin-top: -50px;""><div style=""display: flex; justify-content: space-between; margin-top: 33px;""><img src=""images/choice_trial_8.png"" style=""width: 408px; height: 417px; margin-left:608px;""></div></div>",,delaylearn,learning,display_response,BVd8qHAW9gT33EAESUmFZ3KZH4p1,BVd8qHAW9gT33EAESUmFZ3KZH4p1,,,,,,,,,,,,,,,,,chosen stimuli: images/choice_trial_8.png,,,,,5e836f61445b1c0761ae6a76,14:19:08,26/02/2024
html-keyboard-response,115,230651,0.0-49.0-2.0,,,,delaylearn,learning,feedback_duration_window,BVd8qHAW9gT33EAESUmFZ3KZH4p1,BVd8qHAW9gT33EAESUmFZ3KZH4p1,,,,,,,,,,,,,,,,,,750.0,,,,5e836f61445b1c0761ae6a76,14:19:08,26/02/2024
html-keyboard-response,116,232165,0.0-49.0-3.0,,<div style='margin:auto;width: auto; font-size: 150%'><span style='font-weight: bold; font-size: 100px; color: green;'>+10 points!</span><br><br></div>,,delaylearn,learning,feedback_image_window,BVd8qHAW9gT33EAESUmFZ3KZH4p1,BVd8qHAW9gT33EAESUmFZ3KZH4p1,,,,,,,,,,,,,,,,,,,,,,5e836f61445b1c0761ae6a76,14:19:08,26/02/2024
html-keyboard-response,117,234415,0.0-50.0,,"<div style=""font-size:100px;"">+</div>",,delaylearn,learning,ITI,BVd8qHAW9gT33EAESUmFZ3KZH4p1,BVd8qHAW9gT33EAESUmFZ3KZH4p1,,,,,,,,,,,,,,,,,,,2244.0,,,5e836f61445b1c0761ae6a76,14:19:08,26/02/2024
html-keyboard-response,118,235734,0.0-51.0-0.0,1317.3000000715256,"<div style=""display: flex; flex-direction: column; align-items: center; margin-top: -40px;""><img src=""images/pattern_1.png"" style=""width: 234px; height: 230px; margin-top: -50px;""><div style=""display: flex; justify-content: space-between; margin-top: 33px;""><img src=""images/choice_trial_15.png"" style=""width: 408px; height: 417px; margin-right: 200px;""><img src=""images/choice_trial_6.png"" style=""width: 408px; height: 417px;""></div></div>",f,delaylearn,learning,trial,BVd8qHAW9gT33EAESUmFZ3KZH4p1,BVd8qHAW9gT33EAESUmFZ3KZH4p1,5.0,images/choice_trial_15.png,images/choice_trial_6.png,images/pattern_1.png,f,j,7000.0,15.0,6.0,1.0,1.0,22.0,0.0,1.0,15.0,140.0,,,,,,5e836f61445b1c0761ae6a76,14:19:08,26/02/2024
html-keyboard-response,119,236742,0.0-51.0-1.0,,"<div style=""display: flex; flex-direction: column; align-items: center; margin-top: -40px;""><img src=""images/pattern_1.png"" style=""width: 234px; height: 230px; margin-top: -50px;""><div style=""display: flex; justify-content: space-between; margin-top: 33px;""><img src=""images/choice_trial_15.png"" style=""width: 408px; height: 417px; margin-right: 608px;""></div></div>",,delaylearn,learning,display_response,BVd8qHAW9gT33EAESUmFZ3KZH4p1,BVd8qHAW9gT33EAESUmFZ3KZH4p1,,,,,,,,,,,,,,,,,chosen stimuli: images/choice_trial_15.png,,,,,5e836f61445b1c0761ae6a76,14:19:08,26/02/2024
html-keyboard-response,120,243749,0.0-51.0-2.0,,,,delaylearn,learning,feedback_duration_window,BVd8qHAW9gT33EAESUmFZ3KZH4p1,BVd8qHAW9gT33EAESUmFZ3KZH4p1,,,,,,,,,,,,,,,,,,7000.0,,,,5e836f61445b1c0761ae6a76,14:19:08,26/02/2024
html-keyboard-response,121,245263,0.0-51.0-3.0,,<div style='margin:auto;width: auto; font-size: 150%'><span style='font-weight: bold; font-size: 100px; color: green;'>+10 points!</span><br><br></div>,,delaylearn,learning,feedback_image_window,BVd8qHAW9gT33EAESUmFZ3KZH4p1,BVd8qHAW9gT33EAESUmFZ3KZH4p1,,,,,,,,,,,,,,,,,,,,,,5e836f61445b1c0761ae6a76,14:19:08,26/02/2024
html-keyboard-response,122,247479,0.0-52.0,,"<div style=""font-size:100px;"">+</div>",,delaylearn,learning,ITI,BVd8qHAW9gT33EAESUmFZ3KZH4p1,BVd8qHAW9gT33EAESUmFZ3KZH4p1,,,,,,,,,,,,,,,,,,,2208.0,,,5e836f61445b1c0761ae6a76,14:19:08,26/02/2024
html-keyboard-response,123,248787,0.0-53.0-0.0,1306.2000000476837,"<div style=""display: flex; flex-direction: column; align-items: center; margin-top: -40px;""><img src=""images/pattern_5.png"" style=""width: 234px; height: 230px; margin-top: -50px;""><div style=""display: flex; justify-content: space-between; margin-top: 33px;""><img src=""images/choice_trial_13.png"" style=""width: 408px; height: 417px; margin-right: 200px;""><img src=""images/choice_trial_7.png"" style=""width: 408px; height: 417px;""></div></div>",j,delaylearn,learning,trial,BVd8qHAW9gT33EAESUmFZ3KZH4p1,BVd8qHAW9gT33EAESUmFZ3KZH4p1,5.0,images/choice_trial_13.png,images/choice_trial_7.png,images/pattern_5.png,j,j,750.0,13.0,7.0,4.0,1.0,23.0,1.0,1.0,7.0,150.0,,,,,,5e836f61445b1c0761ae6a76,14:19:08,26/02/2024
html-keyboard-response,124,249791,0.0-53.0-1.0,,"<div style=""display: flex; flex-direction: column; align-items: center; margin-top: -40px;""><img src=""images/pattern_5.png"" style=""width: 234px; height: 230px; margin-top: -50px;""><div style=""display: flex; justify-content: space-between; margin-top: 33px;""><img src=""images/choice_trial_7.png"" style=""width: 408px; height: 417px; margin-left:608px;""></div></div>",,delaylearn,learning,display_response,BVd8qHAW9gT33EAESUmFZ3KZH4p1,BVd8qHAW9gT33EAESUmFZ3KZH4p1,,,,,,,,,,,,,,,,,chosen stimuli: images/choice_trial_7.png,,,,,5e836f61445b1c0761ae6a76,14:19:08,26/02/2024
html-keyboard-response,125,250547,0.0-53.0-2.0,,,,delaylearn,learning,feedback_duration_window,BVd8qHAW9gT33EAESUmFZ3KZH4p1,BVd8qHAW9gT33EAESUmFZ3KZH4p1,,,,,,,,,,,,,,,,,,750.0,,,,5e836f61445b1c0761ae6a76,14:19:08,26/02/2024
html-keyboard-response,126,252054,0.0-53.0-3.0,,<div style='margin:auto;width: auto; font-size: 150%'><span style='font-weight: bold; font-size: 100px; color: green;'>+10 points!</span><br><br></div>,,delaylearn,learning,feedback_image_window,BVd8qHAW9gT33EAESUmFZ3KZH4p1,BVd8qHAW9gT33EAESUmFZ3KZH4p1,,,,,,,,,,,,,,,,,,,,,,5e836f61445b1c0761ae6a76,14:19:08,26/02/2024
html-keyboard-response,127,254186,0.0-54.0,,"<div style=""font-size:100px;"">+</div>",,delaylearn,learning,ITI,BVd8qHAW9gT33EAESUmFZ3KZH4p1,BVd8qHAW9gT33EAESUmFZ3KZH4p1,,,,,,,,,,,,,,,,,,,2129.0,,,5e836f61445b1c0761ae6a76,14:19:08,26/02/2024
html-keyboard-response,128,256193,0.0-55.0-0.0,2005.4000000953674,"<div style=""display: flex; flex-direction: column; align-items: center; margin-top: -40px;""><img src=""images/pattern_3.png"" style=""width: 234px; height: 230px; margin-top: -50px;""><div style=""display: flex; justify-content: space-between; margin-top: 33px;""><img src=""images/choice_trial_2.png"" style=""width: 408px; height: 417px; margin-right: 200px;""><img src=""images/choice_trial_16.png"" style=""width: 408px; height: 417px;""></div></div>",f,delaylearn,learning,trial,BVd8qHAW9gT33EAESUmFZ3KZH4p1,BVd8qHAW9gT33EAESUmFZ3KZH4p1,5.0,images/choice_trial_2.png,images/choice_trial_16.png,images/pattern_3.png,j,j,7000.0,2.0,16.0,2.0,1.0,24.0,0.0,0.0,2.0,150.0,,,,,,5e836f61445b1c0761ae6a76,14:19:08,26/02/2024
html-keyboard-response,129,257202,0.0-55.0-1.0,,"<div style=""display: flex; flex-direction: column; align-items: center; margin-top: -40px;""><img src=""images/pattern_3.png"" style=""width: 234px; height: 230px; margin-top: -50px;""><div style=""display: flex; justify-content: space-between; margin-top: 33px;""><img src=""images/choice_trial_2.png"" style=""width: 408px; height: 417px; margin-right: 608px;""></div></div>",,delaylearn,learning,display_response,BVd8qHAW9gT33EAESUmFZ3KZH4p1,BVd8qHAW9gT33EAESUmFZ3KZH4p1,,,,,,,,,,,,,,,,,chosen stimuli: images/choice_trial_2.png,,,,,5e836f61445b1c0761ae6a76,14:19:08,26/02/2024
html-keyboard-response,130,264207,0.0-55.0-2.0,,,,delaylearn,learning,feedback_duration_window,BVd8qHAW9gT33EAESUmFZ3KZH4p1,BVd8qHAW9gT33EAESUmFZ3KZH4p1,,,,,,,,,,,,,,,,,,7000.0,,,,5e836f61445b1c0761ae6a76,14:19:08,26/02/2024
html-keyboard-response,131,265714,0.0-55.0-3.0,,<div style='margin:auto;width: auto; font-size: 150%'><span style='font-weight: bold; font-size: 100px; color: red;'>0 points!</span><br><br></div>,,delaylearn,learning,feedback_image_window,BVd8qHAW9gT33EAESUmFZ3KZH4p1,BVd8qHAW9gT33EAESUmFZ3KZH4p1,,,,,,,,,,,,,,,,,,,,,,5e836f61445b1c0761ae6a76,14:19:08,26/02/2024
lmdlab-html-vas-response,132,271617,0.0-56.0-0.0,4386.0,*How <b><u>confident</u></b> are you feeling about your answers at this moment?*,0.7037037037037037,rewlearn,rate_confidence,,BVd8qHAW9gT33EAESUmFZ3KZH4p1,BVd8qHAW9gT33EAESUmFZ3KZH4p1,,,,,,,,,,,,,,,,,,,,"['No confidence', 'Complete confidence']",,5e836f61445b1c0761ae6a76,14:19:08,26/02/2024
lmdlab-rest-trial-limit,133,281888,0.0-56.0-1.0,8759.799999952316,"<div style=""font-size:40px;""><b>Please take a break!</b><br><br><br><br><p>Great work: you earned undefined points.<br><br><br><p>You have completed part(s) 1 of 6.<br><br><br><br>When you are ready to continue<br><br><br>please click the button.</p><br><br>",0,delaylearn,learning,break,BVd8qHAW9gT33EAESUmFZ3KZH4p1,BVd8qHAW9gT33EAESUmFZ3KZH4p1,,,,,,,,,,,,,,,,,,,,,0.0,5e836f61445b1c0761ae6a76,14:19:08,26/02/2024
html-keyboard-response,134,284902,0.0-56.0-2.0,,"<div style=""font-size:100px;"">+</div>",,delaylearn,learning,pre_fixation,BVd8qHAW9gT33EAESUmFZ3KZH4p1,,,,,,,,,,,,,,,,,,,,,,,5e836f61445b1c0761ae6a76,14:19:08,26/02/2024
lmdlab-html-vas-response,135,288010,0.0-56.0-3.0-0.0,2100.0,How happy are you right now?,0.6898148148148148,delaylearn,learning,mood_baseline,BVd8qHAW9gT33EAESUmFZ3KZH4p1,BVd8qHAW9gT33EAESUmFZ3KZH4p1,,,,,,,,,,,,,,,,,,,,"['Very unhappy', 'Very happy']",,5e836f61445b1c0761ae6a76,14:19:08,26/02/2024
html-keyboard-response,136,289513,0.0-56.0-3.0-1.0,,,,,,mood_baseline_fixation,BVd8qHAW9gT33EAESUmFZ3KZH4p1,,,,,,,,,,,,,,,,,,,,,,,5e836f61445b1c0761ae6a76,14:19:08,26/02/2024
html-keyboard-response,137,291548,0.0-57.0,,"<div style=""font-size:100px;"">+</div>",,delaylearn,learning,ITI,BVd8qHAW9gT33EAESUmFZ3KZH4p1,BVd8qHAW9gT33EAESUmFZ3KZH4p1,,,,,,,,,,,,,,,,,,,2032.0,,,5e836f61445b1c0761ae6a76,14:19:08,26/02/2024
html-keyboard-response,138,293048,0.0-58.0-0.0,1499.2999999523163,"<div style=""display: flex; flex-direction: column; align-items: center; margin-top: -40px;""><img src=""images/pattern_7.png"" style=""width: 234px; height: 230px; margin-top: -50px;""><div style=""display: flex; justify-content: space-between; margin-top: 33px;""><img src=""images/choice_trial_10.png"" style=""width: 408px; height: 417px; margin-right: 200px;""><img src=""images/choice_trial_8.png"" style=""width: 408px; height: 417px;""></div></div>",j,delaylearn,learning,trial,BVd8qHAW9gT33EAESUmFZ3KZH4p1,BVd8qHAW9gT33EAESUmFZ3KZH4p1,5.0,images/choice_trial_10.png,images/choice_trial_8.png,images/pattern_7.png,j,j,750.0,10.0,8.0,6.0,1.0,25.0,1.0,1.0,8.0,160.0,,,,,,5e836f61445b1c0761ae6a76,14:19:08,26/02/2024
html-keyboard-response,139,294055,0.0-58.0-1.0,,"<div style=""display: flex; flex-direction: column; align-items: center; margin-top: -40px;""><img src=""images/pattern_7.png"" style=""width: 234px; height: 230px; margin-top: -50px;""><div style=""display: flex; justify-content: space-between; margin-top: 33px;""><img src=""images/choice_trial_8.png"" style=""width: 408px; height: 417px; margin-left:608px;""></div></div>",,delaylearn,learning,display_response,BVd8qHAW9gT33EAESUmFZ3KZH4p1,BVd8qHAW9gT33EAESUmFZ3KZH4p1,,,,,,,,,,,,,,,,,chosen stimuli: images/choice_trial_8.png,,,,,5e836f61445b1c0761ae6a76,14:19:08,26/02/2024
html-keyboard-response,140,294819,0.0-58.0-2.0,,,,delaylearn,learning,feedback_duration_window,BVd8qHAW9gT33EAESUmFZ3KZH4p1,BVd8qHAW9gT33EAESUmFZ3KZH4p1,,,,,,,,,,,,,,,,,,750.0,,,,5e836f61445b1c0761ae6a76,14:19:08,26/02/2024
html-keyboard-response,141,296329,0.0-58.0-3.0,,<div style='margin:auto;width: auto; font-size: 150%'><span style='font-weight: bold; font-size: 100px; color: green;'>+10 points!</span><br><br></div>,,delaylearn,learning,feedback_image_window,BVd8qHAW9gT33EAESUmFZ3KZH4p1,BVd8qHAW9gT33EAESUmFZ3KZH4p1,,,,,,,,,,,,,,,,,,,,,,5e836f61445b1c0761ae6a76,14:19:08,26/02/2024
html-keyboard-response,142,296833,0.0-59.0-0.0,,,,,,mood_trial_fixation,BVd8qHAW9gT33EAESUmFZ3KZH4p1,,,,,,,,,,,,,,,,,,,,,,,5e836f61445b1c0761ae6a76,14:19:08,26/02/2024
lmdlab-html-vas-response,143,299902,0.0-59.0-1.0,2061.0,How happy are you right now?,0.9768518518518519,delaylearn,learning,mood_trial,BVd8qHAW9gT33EAESUmFZ3KZH4p1,BVd8qHAW9gT33EAESUmFZ3KZH4p1,,,,,,,,,,,,,,,,,,,,"['Very unhappy', 'Very happy']",,5e836f61445b1c0761ae6a76,14:19:08,26/02/2024
html-keyboard-response,144,301784,0.0-60.0,,"<div style=""font-size:100px;"">+</div>",,delaylearn,learning,ITI,BVd8qHAW9gT33EAESUmFZ3KZH4p1,BVd8qHAW9gT33EAESUmFZ3KZH4p1,,,,,,,,,,,,,,,,,,,1875.0,,,5e836f61445b1c0761ae6a76,14:19:08,26/02/2024
html-keyboard-response,145,302931,0.0-61.0-0.0,1146.0,"<div style=""display: flex; flex-direction: column; align-items: center; margin-top: -40px;""><img src=""images/pattern_1.png"" style=""width: 234px; height: 230px; margin-top: -50px;""><div style=""display: flex; justify-content: space-between; margin-top: 33px;""><img src=""images/choice_trial_6.png"" style=""width: 408px; height: 417px; margin-right: 200px;""><img src=""images/choice_trial_15.png"" style=""width: 408px; height: 417px;""></div></div>",j,delaylearn,learning,trial,BVd8qHAW9gT33EAESUmFZ3KZH4p1,BVd8qHAW9gT33EAESUmFZ3KZH4p1,5.0,images/choice_trial_6.png,images/choice_trial_15.png,images/pattern_1.png,f,f,7000.0,6.0,15.0,1.0,0.0,26.0,0.0,0.0,15.0,160.0,,,,,,5e836f61445b1c0761ae6a76,14:19:08,26/02/2024
html-keyboard-response,146,303937,0.0-61.0-1.0,,"<div style=""display: flex; flex-direction: column; align-items: center; margin-top: -40px;""><img src=""images/pattern_1.png"" style=""width: 234px; height: 230px; margin-top: -50px;""><div style=""display: flex; justify-content: space-between; margin-top: 33px;""><img src=""images/choice_trial_15.png"" style=""width: 408px; height: 417px; margin-left:608px;""></div></div>",,delaylearn,learning,display_response,BVd8qHAW9gT33EAESUmFZ3KZH4p1,BVd8qHAW9gT33EAESUmFZ3KZH4p1,,,,,,,,,,,,,,,,,chosen stimuli: images/choice_trial_15.png,,,,,5e836f61445b1c0761ae6a76,14:19:08,26/02/2024
html-keyboard-response,147,310944,0.0-61.0-2.0,,,,delaylearn,learning,feedback_duration_window,BVd8qHAW9gT33EAESUmFZ3KZH4p1,BVd8qHAW9gT33EAESUmFZ3KZH4p1,,,,,,,,,,,,,,,,,,7000.0,,,,5e836f61445b1c0761ae6a76,14:19:08,26/02/2024
html-keyboard-response,148,312451,0.0-61.0-3.0,,<div style='margin:auto;width: auto; font-size: 150%'><span style='font-weight: bold; font-size: 100px; color: red;'>0 points!</span><br><br></div>,,delaylearn,learning,feedback_image_window,BVd8qHAW9gT33EAESUmFZ3KZH4p1,BVd8qHAW9gT33EAESUmFZ3KZH4p1,,,,,,,,,,,,,,,,,,,,,,5e836f61445b1c0761ae6a76,14:19:08,26/02/2024
html-keyboard-response,149,314534,0.0-62.0,,"<div style=""font-size:100px;"">+</div>",,delaylearn,learning,ITI,BVd8qHAW9gT33EAESUmFZ3KZH4p1,BVd8qHAW9gT33EAESUmFZ3KZH4p1,,,,,,,,,,,,,,,,,,,2077.0,,,5e836f61445b1c0761ae6a76,14:19:08,26/02/2024
html-keyboard-response,150,315744,0.0-63.0-0.0,1209.2000000476837,"<div style=""display: flex; flex-direction: column; align-items: center; margin-top: -40px;""><img src=""images/pattern_5.png"" style=""width: 234px; height: 230px; margin-top: -50px;""><div style=""display: flex; justify-content: space-between; margin-top: 33px;""><img src=""images/choice_trial_7.png"" style=""width: 408px; height: 417px; margin-right: 200px;""><img src=""images/choice_trial_13.png"" style=""width: 408px; height: 417px;""></div></div>",f,delaylearn,learning,trial,BVd8qHAW9gT33EAESUmFZ3KZH4p1,BVd8qHAW9gT33EAESUmFZ3KZH4p1,5.0,images/choice_trial_7.png,images/choice_trial_13.png,images/pattern_5.png,f,f,750.0,7.0,13.0,4.0,0.0,27.0,1.0,1.0,7.0,170.0,,,,,,5e836f61445b1c0761ae6a76,14:19:08,26/02/2024
html-keyboard-response,151,316749,0.0-63.0-1.0,,"<div style=""display: flex; flex-direction: column; align-items: center; margin-top: -40px;""><img src=""images/pattern_5.png"" style=""width: 234px; height: 230px; margin-top: -50px;""><div style=""display: flex; justify-content: space-between; margin-top: 33px;""><img src=""images/choice_trial_7.png"" style=""width: 408px; height: 417px; margin-right: 608px;""></div></div>",,delaylearn,learning,display_response,BVd8qHAW9gT33EAESUmFZ3KZH4p1,BVd8qHAW9gT33EAESUmFZ3KZH4p1,,,,,,,,,,,,,,,,,chosen stimuli: images/choice_trial_7.png,,,,,5e836f61445b1c0761ae6a76,14:19:08,26/02/2024
html-keyboard-response,152,317506,0.0-63.0-2.0,,,,delaylearn,learning,feedback_duration_window,BVd8qHAW9gT33EAESUmFZ3KZH4p1,BVd8qHAW9gT33EAESUmFZ3KZH4p1,,,,,,,,,,,,,,,,,,750.0,,,,5e836f61445b1c0761ae6a76,14:19:08,26/02/2024
html-keyboard-response,153,319013,0.0-63.0-3.0,,<div style='margin:auto;width: auto; font-size: 150%'><span style='font-weight: bold; font-size: 100px; color: green;'>+10 points!</span><br><br></div>,,delaylearn,learning,feedback_image_window,BVd8qHAW9gT33EAESUmFZ3KZH4p1,BVd8qHAW9gT33EAESUmFZ3KZH4p1,,,,,,,,,,,,,,,,,,,,,,5e836f61445b1c0761ae6a76,14:19:08,26/02/2024
html-keyboard-response,154,321362,0.0-64.0,,"<div style=""font-size:100px;"">+</div>",,delaylearn,learning,ITI,BVd8qHAW9gT33EAESUmFZ3KZH4p1,BVd8qHAW9gT33EAESUmFZ3KZH4p1,,,,,,,,,,,,,,,,,,,2345.0,,,5e836f61445b1c0761ae6a76,14:19:08,26/02/2024
html-keyboard-response,155,322575,0.0-65.0-0.0,1211.8000000715256,"<div style=""display: flex; flex-direction: column; align-items: center; margin-top: -40px;""><img src=""images/pattern_6.png"" style=""width: 234px; height: 230px; margin-top: -50px;""><div style=""display: flex; justify-content: space-between; margin-top: 33px;""><img src=""images/choice_trial_9.png"" style=""width: 408px; height: 417px; margin-right: 200px;""><img src=""images/choice_trial_14.png"" style=""width: 408px; height: 417px;""></div></div>",f,delaylearn,learning,trial,BVd8qHAW9gT33EAESUmFZ3KZH4p1,BVd8qHAW9gT33EAESUmFZ3KZH4p1,5.0,images/choice_trial_9.png,images/choice_trial_14.png,images/pattern_6.png,j,j,750.0,9.0,14.0,5.0,1.0,28.0,0.0,0.0,9.0,170.0,,,,,,5e836f61445b1c0761ae6a76,14:19:08,26/02/2024
html-keyboard-response,156,323591,0.0-65.0-1.0,,"<div style=""display: flex; flex-direction: column; align-items: center; margin-top: -40px;""><img src=""images/pattern_6.png"" style=""width: 234px; height: 230px; margin-top: -50px;""><div style=""display: flex; justify-content: space-between; margin-top: 33px;""><img src=""images/choice_trial_9.png"" style=""width: 408px; height: 417px; margin-right: 608px;""></div></div>",,delaylearn,learning,display_response,BVd8qHAW9gT33EAESUmFZ3KZH4p1,BVd8qHAW9gT33EAESUmFZ3KZH4p1,,,,,,,,,,,,,,,,,chosen stimuli: images/choice_trial_9.png,,,,,5e836f61445b1c0761ae6a76,14:19:08,26/02/2024
html-keyboard-response,157,324346,0.0-65.0-2.0,,,,delaylearn,learning,feedback_duration_window,BVd8qHAW9gT33EAESUmFZ3KZH4p1,BVd8qHAW9gT33EAESUmFZ3KZH4p1,,,,,,,,,,,,,,,,,,750.0,,,,5e836f61445b1c0761ae6a76,14:19:08,26/02/2024
html-keyboard-response,158,325853,0.0-65.0-3.0,,<div style='margin:auto;width: auto; font-size: 150%'><span style='font-weight: bold; font-size: 100px; color: red;'>0 points!</span><br><br></div>,,delaylearn,learning,feedback_image_window,BVd8qHAW9gT33EAESUmFZ3KZH4p1,BVd8qHAW9gT33EAESUmFZ3KZH4p1,,,,,,,,,,,,,,,,,,,,,,5e836f61445b1c0761ae6a76,14:19:08,26/02/2024
html-keyboard-response,159,326363,0.0-66.0-0.0,,,,,,mood_trial_fixation,BVd8qHAW9gT33EAESUmFZ3KZH4p1,,,,,,,,,,,,,,,,,,,,,,,5e836f61445b1c0761ae6a76,14:19:08,26/02/2024
lmdlab-html-vas-response,160,329805,0.0-66.0-1.0,2437.0,How happy are you right now?,0.7376543209876543,delaylearn,learning,mood_trial,BVd8qHAW9gT33EAESUmFZ3KZH4p1,BVd8qHAW9gT33EAESUmFZ3KZH4p1,,,,,,,,,,,,,,,,,,,,"['Very unhappy', 'Very happy']",,5e836f61445b1c0761ae6a76,14:19:08,26/02/2024
html-keyboard-response,161,331528,0.0-67.0,,"<div style=""font-size:100px;"">+</div>",,delaylearn,learning,ITI,BVd8qHAW9gT33EAESUmFZ3KZH4p1,BVd8qHAW9gT33EAESUmFZ3KZH4p1,,,,,,,,,,,,,,,,,,,1716.0,,,5e836f61445b1c0761ae6a76,14:19:08,26/02/2024
html-keyboard-response,162,332671,0.0-68.0-0.0,1141.2000000476837,"<div style=""display: flex; flex-direction: column; align-items: center; margin-top: -40px;""><img src=""images/pattern_4.png"" style=""width: 234px; height: 230px; margin-top: -50px;""><div style=""display: flex; justify-content: space-between; margin-top: 33px;""><img src=""images/choice_trial_4.png"" style=""width: 408px; height: 417px; margin-right: 200px;""><img src=""images/choice_trial_11.png"" style=""width: 408px; height: 417px;""></div></div>",j,delaylearn,learning,trial,BVd8qHAW9gT33EAESUmFZ3KZH4p1,BVd8qHAW9gT33EAESUmFZ3KZH4p1,5.0,images/choice_trial_4.png,images/choice_trial_11.png,images/pattern_4.png,j,j,7000.0,4.0,11.0,3.0,1.0,29.0,1.0,1.0,11.0,180.0,,,,,,5e836f61445b1c0761ae6a76,14:19:08,26/02/2024
html-keyboard-response,163,333674,0.0-68.0-1.0,,"<div style=""display: flex; flex-direction: column; align-items: center; margin-top: -40px;""><img src=""images/pattern_4.png"" style=""width: 234px; height: 230px; margin-top: -50px;""><div style=""display: flex; justify-content: space-between; margin-top: 33px;""><img src=""images/choice_trial_11.png"" style=""width: 408px; height: 417px; margin-left:608px;""></div></div>",,delaylearn,learning,display_response,BVd8qHAW9gT33EAESUmFZ3KZH4p1,BVd8qHAW9gT33EAESUmFZ3KZH4p1,,,,,,,,,,,,,,,,,chosen stimuli: images/choice_trial_11.png,,,,,5e836f61445b1c0761ae6a76,14:19:08,26/02/2024
html-keyboard-response,164,340680,0.0-68.0-2.0,,,,delaylearn,learning,feedback_duration_window,BVd8qHAW9gT33EAESUmFZ3KZH4p1,BVd8qHAW9gT33EAESUmFZ3KZH4p1,,,,,,,,,,,,,,,,,,7000.0,,,,5e836f61445b1c0761ae6a76,14:19:08,26/02/2024
html-keyboard-response,165,342187,0.0-68.0-3.0,,<div style='margin:auto;width: auto; font-size: 150%'><span style='font-weight: bold; font-size: 100px; color: green;'>+10 points!</span><br><br></div>,,delaylearn,learning,feedback_image_window,BVd8qHAW9gT33EAESUmFZ3KZH4p1,BVd8qHAW9gT33EAESUmFZ3KZH4p1,,,,,,,,,,,,,,,,,,,,,,5e836f61445b1c0761ae6a76,14:19:08,26/02/2024
html-keyboard-response,166,344437,0.0-69.0,,"<div style=""font-size:100px;"">+</div>",,delaylearn,learning,ITI,BVd8qHAW9gT33EAESUmFZ3KZH4p1,BVd8qHAW9gT33EAESUmFZ3KZH4p1,,,,,,,,,,,,,,,,,,,2239.0,,,5e836f61445b1c0761ae6a76,14:19:08,26/02/2024
html-keyboard-response,167,346466,0.0-70.0-0.0,2028.0,"<div style=""display: flex; flex-direction: column; align-items: center; margin-top: -40px;""><img src=""images/pattern_3.png"" style=""width: 234px; height: 230px; margin-top: -50px;""><div style=""display: flex; justify-content: space-between; margin-top: 33px;""><img src=""images/choice_trial_2.png"" style=""width: 408px; height: 417px; margin-right: 200px;""><img src=""images/choice_trial_16.png"" style=""width: 408px; height: 417px;""></div></div>",j,delaylearn,learning,trial,BVd8qHAW9gT33EAESUmFZ3KZH4p1,BVd8qHAW9gT33EAESUmFZ3KZH4p1,5.0,images/choice_trial_2.png,images/choice_trial_16.png,images/pattern_3.png,j,j,7000.0,2.0,16.0,2.0,1.0,30.0,1.0,1.0,16.0,190.0,,,,,,5e836f61445b1c0761ae6a76,14:19:08,26/02/2024
html-keyboard-response,168,347471,0.0-70.0-1.0,,"<div style=""display: flex; flex-direction: column; align-items: center; margin-top: -40px;""><img src=""images/pattern_3.png"" style=""width: 234px; height: 230px; margin-top: -50px;""><div style=""display: flex; justify-content: space-between; margin-top: 33px;""><img src=""images/choice_trial_16.png"" style=""width: 408px; height: 417px; margin-left:608px;""></div></div>",,delaylearn,learning,display_response,BVd8qHAW9gT33EAESUmFZ3KZH4p1,BVd8qHAW9gT33EAESUmFZ3KZH4p1,,,,,,,,,,,,,,,,,chosen stimuli: images/choice_trial_16.png,,,,,5e836f61445b1c0761ae6a76,14:19:08,26/02/2024
html-keyboard-response,169,354480,0.0-70.0-2.0,,,,delaylearn,learning,feedback_duration_window,BVd8qHAW9gT33EAESUmFZ3KZH4p1,BVd8qHAW9gT33EAESUmFZ3KZH4p1,,,,,,,,,,,,,,,,,,7000.0,,,,5e836f61445b1c0761ae6a76,14:19:08,26/02/2024
html-keyboard-response,170,355985,0.0-70.0-3.0,,<div style='margin:auto;width: auto; font-size: 150%'><span style='font-weight: bold; font-size: 100px; color: green;'>+10 points!</span><br><br></div>,,delaylearn,learning,feedback_image_window,BVd8qHAW9gT33EAESUmFZ3KZH4p1,BVd8qHAW9gT33EAESUmFZ3KZH4p1,,,,,,,,,,,,,,,,,,,,,,5e836f61445b1c0761ae6a76,14:19:08,26/02/2024
html-keyboard-response,171,358437,0.0-71.0,,"<div style=""font-size:100px;"">+</div>",,delaylearn,learning,ITI,BVd8qHAW9gT33EAESUmFZ3KZH4p1,BVd8qHAW9gT33EAESUmFZ3KZH4p1,,,,,,,,,,,,,,,,,,,2447.0,,,5e836f61445b1c0761ae6a76,14:19:08,26/02/2024
html-keyboard-response,172,359813,0.0-72.0-0.0,1374.7000000476837,"<div style=""display: flex; flex-direction: column; align-items: center; margin-top: -40px;""><img src=""images/pattern_5.png"" style=""width: 234px; height: 230px; margin-top: -50px;""><div style=""display: flex; justify-content: space-between; margin-top: 33px;""><img src=""images/choice_trial_7.png"" style=""width: 408px; height: 417px; margin-right: 200px;""><img src=""images/choice_trial_13.png"" style=""width: 408px; height: 417px;""></div></div>",f,delaylearn,learning,trial,BVd8qHAW9gT33EAESUmFZ3KZH4p1,BVd8qHAW9gT33EAESUmFZ3KZH4p1,5.0,images/choice_trial_7.png,images/choice_trial_13.png,images/pattern_5.png,j,f,750.0,7.0,13.0,4.0,0.0,31.0,1.0,0.0,7.0,190.0,,,,,,5e836f61445b1c0761ae6a76,14:19:08,26/02/2024
html-keyboard-response,173,360828,0.0-72.0-1.0,,"<div style=""display: flex; flex-direction: column; align-items: center; margin-top: -40px;""><img src=""images/pattern_5.png"" style=""width: 234px; height: 230px; margin-top: -50px;""><div style=""display: flex; justify-content: space-between; margin-top: 33px;""><img src=""images/choice_trial_7.png"" style=""width: 408px; height: 417px; margin-right: 608px;""></div></div>",,delaylearn,learning,display_response,BVd8qHAW9gT33EAESUmFZ3KZH4p1,BVd8qHAW9gT33EAESUmFZ3KZH4p1,,,,,,,,,,,,,,,,,chosen stimuli: images/choice_trial_7.png,,,,,5e836f61445b1c0761ae6a76,14:19:08,26/02/2024
html-keyboard-response,174,361583,0.0-72.0-2.0,,,,delaylearn,learning,feedback_duration_window,BVd8qHAW9gT33EAESUmFZ3KZH4p1,BVd8qHAW9gT33EAESUmFZ3KZH4p1,,,,,,,,,,,,,,,,,,750.0,,,,5e836f61445b1c0761ae6a76,14:19:08,26/02/2024
html-keyboard-response,175,363097,0.0-72.0-3.0,,<div style='margin:auto;width: auto; font-size: 150%'><span style='font-weight: bold; font-size: 100px; color: red;'>0 points!</span><br><br></div>,,delaylearn,learning,feedback_image_window,BVd8qHAW9gT33EAESUmFZ3KZH4p1,BVd8qHAW9gT33EAESUmFZ3KZH4p1,,,,,,,,,,,,,,,,,,,,,,5e836f61445b1c0761ae6a76,14:19:08,26/02/2024
html-keyboard-response,176,364798,0.0-73.0,,"<div style=""font-size:100px;"">+</div>",,delaylearn,learning,ITI,BVd8qHAW9gT33EAESUmFZ3KZH4p1,BVd8qHAW9gT33EAESUmFZ3KZH4p1,,,,,,,,,,,,,,,,,,,1694.0,,,5e836f61445b1c0761ae6a76,14:19:08,26/02/2024
html-keyboard-response,177,366159,0.0-74.0-0.0,1360.1999999284744,"<div style=""display: flex; flex-direction: column; align-items: center; margin-top: -40px;""><img src=""images/pattern_1.png"" style=""width: 234px; height: 230px; margin-top: -50px;""><div style=""display: flex; justify-content: space-between; margin-top: 33px;""><img src=""images/choice_trial_6.png"" style=""width: 408px; height: 417px; margin-right: 200px;""><img src=""images/choice_trial_15.png"" style=""width: 408px; height: 417px;""></div></div>",j,delaylearn,learning,trial,BVd8qHAW9gT33EAESUmFZ3KZH4p1,BVd8qHAW9gT33EAESUmFZ3KZH4p1,5.0,images/choice_trial_6.png,images/choice_trial_15.png,images/pattern_1.png,f,f,7000.0,6.0,15.0,1.0,0.0,32.0,0.0,0.0,15.0,190.0,,,,,,5e836f61445b1c0761ae6a76,14:19:08,26/02/2024
html-keyboard-response,178,367166,0.0-74.0-1.0,,"<div style=""display: flex; flex-direction: column; align-items: center; margin-top: -40px;""><img src=""images/pattern_1.png"" style=""width: 234px; height: 230px; margin-top: -50px;""><div style=""display: flex; justify-content: space-between; margin-top: 33px;""><img src=""images/choice_trial_15.png"" style=""width: 408px; height: 417px; margin-left:608px;""></div></div>",,delaylearn,learning,display_response,BVd8qHAW9gT33EAESUmFZ3KZH4p1,BVd8qHAW9gT33EAESUmFZ3KZH4p1,,,,,,,,,,,,,,,,,chosen stimuli: images/choice_trial_15.png,,,,,5e836f61445b1c0761ae6a76,14:19:08,26/02/2024
html-keyboard-response,179,374173,0.0-74.0-2.0,,,,delaylearn,learning,feedback_duration_window,BVd8qHAW9gT33EAESUmFZ3KZH4p1,BVd8qHAW9gT33EAESUmFZ3KZH4p1,,,,,,,,,,,,,,,,,,7000.0,,,,5e836f61445b1c0761ae6a76,14:19:08,26/02/2024
html-keyboard-response,180,375680,0.0-74.0-3.0,,<div style='margin:auto;width: auto; font-size: 150%'><span style='font-weight: bold; font-size: 100px; color: red;'>0 points!</span><br><br></div>,,delaylearn,learning,feedback_image_window,BVd8qHAW9gT33EAESUmFZ3KZH4p1,BVd8qHAW9gT33EAESUmFZ3KZH4p1,,,,,,,,,,,,,,,,,,,,,,5e836f61445b1c0761ae6a76,14:19:08,26/02/2024
html-keyboard-response,181,376194,0.0-75.0-0.0,,,,,,mood_trial_fixation,BVd8qHAW9gT33EAESUmFZ3KZH4p1,,,,,,,,,,,,,,,,,,,,,,,5e836f61445b1c0761ae6a76,14:19:08,26/02/2024
lmdlab-html-vas-response,182,379420,0.0-75.0-1.0,2218.0,How happy are you right now?,0.7561728395061729,delaylearn,learning,mood_trial,BVd8qHAW9gT33EAESUmFZ3KZH4p1,BVd8qHAW9gT33EAESUmFZ3KZH4p1,,,,,,,,,,,,,,,,,,,,"['Very unhappy', 'Very happy']",,5e836f61445b1c0761ae6a76,14:19:08,26/02/2024
html-keyboard-response,183,381111,0.0-76.0,,"<div style=""font-size:100px;"">+</div>",,delaylearn,learning,ITI,BVd8qHAW9gT33EAESUmFZ3KZH4p1,BVd8qHAW9gT33EAESUmFZ3KZH4p1,,,,,,,,,,,,,,,,,,,1685.0,,,5e836f61445b1c0761ae6a76,14:19:08,26/02/2024
html-keyboard-response,184,382444,0.0-77.0-0.0,1332.6999999284744,"<div style=""display: flex; flex-direction: column; align-items: center; margin-top: -40px;""><img src=""images/pattern_6.png"" style=""width: 234px; height: 230px; margin-top: -50px;""><div style=""display: flex; justify-content: space-between; margin-top: 33px;""><img src=""images/choice_trial_14.png"" style=""width: 408px; height: 417px; margin-right: 200px;""><img src=""images/choice_trial_9.png"" style=""width: 408px; height: 417px;""></div></div>",j,delaylearn,learning,trial,BVd8qHAW9gT33EAESUmFZ3KZH4p1,BVd8qHAW9gT33EAESUmFZ3KZH4p1,5.0,images/choice_trial_14.png,images/choice_trial_9.png,images/pattern_6.png,j,f,750.0,14.0,9.0,5.0,0.0,33.0,0.0,1.0,9.0,200.0,,,,,,5e836f61445b1c0761ae6a76,14:19:08,26/02/2024
html-keyboard-response,185,383451,0.0-77.0-1.0,,"<div style=""display: flex; flex-direction: column; align-items: center; margin-top: -40px;""><img src=""images/pattern_6.png"" style=""width: 234px; height: 230px; margin-top: -50px;""><div style=""display: flex; justify-content: space-between; margin-top: 33px;""><img src=""images/choice_trial_9.png"" style=""width: 408px; height: 417px; margin-left:608px;""></div></div>",,delaylearn,learning,display_response,BVd8qHAW9gT33EAESUmFZ3KZH4p1,BVd8qHAW9gT33EAESUmFZ3KZH4p1,,,,,,,,,,,,,,,,,chosen stimuli: images/choice_trial_9.png,,,,,5e836f61445b1c0761ae6a76,14:19:08,26/02/2024
html-keyboard-response,186,384215,0.0-77.0-2.0,,,,delaylearn,learning,feedback_duration_window,BVd8qHAW9gT33EAESUmFZ3KZH4p1,BVd8qHAW9gT33EAESUmFZ3KZH4p1,,,,,,,,,,,,,,,,,,750.0,,,,5e836f61445b1c0761ae6a76,14:19:08,26/02/2024
html-keyboard-response,187,385722,0.0-77.0-3.0,,<div style='margin:auto;width: auto; font-size: 150%'><span style='font-weight: bold; font-size: 100px; color: green;'>+10 points!</span><br><br></div>,,delaylearn,learning,feedback_image_window,BVd8qHAW9gT33EAESUmFZ3KZH4p1,BVd8qHAW9gT33EAESUmFZ3KZH4p1,,,,,,,,,,,,,,,,,,,,,,5e836f61445b1c0761ae6a76,14:19:08,26/02/2024
html-keyboard-response,188,388048,0.0-78.0,,"<div style=""font-size:100px;"">+</div>",,delaylearn,learning,ITI,BVd8qHAW9gT33EAESUmFZ3KZH4p1,BVd8qHAW9gT33EAESUmFZ3KZH4p1,,,,,,,,,,,,,,,,,,,2325.0,,,5e836f61445b1c0761ae6a76,14:19:08,26/02/2024
html-keyboard-response,189,389321,0.0-79.0-0.0,1272.1000000238419,"<div style=""display: flex; flex-direction: column; align-items: center; margin-top: -40px;""><img src=""images/pattern_3.png"" style=""width: 234px; height: 230px; margin-top: -50px;""><div style=""display: flex; justify-content: space-between; margin-top: 33px;""><img src=""images/choice_trial_2.png"" style=""width: 408px; height: 417px; margin-right: 200px;""><img src=""images/choice_trial_16.png"" style=""width: 408px; height: 417px;""></div></div>",j,delaylearn,learning,trial,BVd8qHAW9gT33EAESUmFZ3KZH4p1,BVd8qHAW9gT33EAESUmFZ3KZH4p1,5.0,images/choice_trial_2.png,images/choice_trial_16.png,images/pattern_3.png,j,j,7000.0,2.0,16.0,2.0,1.0,34.0,1.0,1.0,16.0,210.0,,,,,,5e836f61445b1c0761ae6a76,14:19:08,26/02/2024
html-keyboard-response,190,390333,0.0-79.0-1.0,,"<div style=""display: flex; flex-direction: column; align-items: center; margin-top: -40px;""><img src=""images/pattern_3.png"" style=""width: 234px; height: 230px; margin-top: -50px;""><div style=""display: flex; justify-content: space-between; margin-top: 33px;""><img src=""images/choice_trial_16.png"" style=""width: 408px; height: 417px; margin-left:608px;""></div></div>",,delaylearn,learning,display_response,BVd8qHAW9gT33EAESUmFZ3KZH4p1,BVd8qHAW9gT33EAESUmFZ3KZH4p1,,,,,,,,,,,,,,,,,chosen stimuli: images/choice_trial_16.png,,,,,5e836f61445b1c0761ae6a76,14:19:08,26/02/2024
html-keyboard-response,191,397347,0.0-79.0-2.0,,,,delaylearn,learning,feedback_duration_window,BVd8qHAW9gT33EAESUmFZ3KZH4p1,BVd8qHAW9gT33EAESUmFZ3KZH4p1,,,,,,,,,,,,,,,,,,7000.0,,,,5e836f61445b1c0761ae6a76,14:19:08,26/02/2024
html-keyboard-response,192,398854,0.0-79.0-3.0,,<div style='margin:auto;width: auto; font-size: 150%'><span style='font-weight: bold; font-size: 100px; color: green;'>+10 points!</span><br><br></div>,,delaylearn,learning,feedback_image_window,BVd8qHAW9gT33EAESUmFZ3KZH4p1,BVd8qHAW9gT33EAESUmFZ3KZH4p1,,,,,,,,,,,,,,,,,,,,,,5e836f61445b1c0761ae6a76,14:19:08,26/02/2024
html-keyboard-response,193,400777,0.0-80.0,,"<div style=""font-size:100px;"">+</div>",,delaylearn,learning,ITI,BVd8qHAW9gT33EAESUmFZ3KZH4p1,BVd8qHAW9gT33EAESUmFZ3KZH4p1,,,,,,,,,,,,,,,,,,,1923.0,,,5e836f61445b1c0761ae6a76,14:19:08,26/02/2024
html-keyboard-response,194,401952,0.0-81.0-0.0,1173.7999999523163,"<div style=""display: flex; flex-direction: column; align-items: center; margin-top: -40px;""><img src=""images/pattern_4.png"" style=""width: 234px; height: 230px; margin-top: -50px;""><div style=""display: flex; justify-content: space-between; margin-top: 33px;""><img src=""images/choice_trial_4.png"" style=""width: 408px; height: 417px; margin-right: 200px;""><img src=""images/choice_trial_11.png"" style=""width: 408px; height: 417px;""></div></div>",j,delaylearn,learning,trial,BVd8qHAW9gT33EAESUmFZ3KZH4p1,BVd8qHAW9gT33EAESUmFZ3KZH4p1,5.0,images/choice_trial_4.png,images/choice_trial_11.png,images/pattern_4.png,f,j,7000.0,4.0,11.0,3.0,1.0,35.0,1.0,0.0,11.0,210.0,,,,,,5e836f61445b1c0761ae6a76,14:19:08,26/02/2024
html-keyboard-response,195,402966,0.0-81.0-1.0,,"<div style=""display: flex; flex-direction: column; align-items: center; margin-top: -40px;""><img src=""images/pattern_4.png"" style=""width: 234px; height: 230px; margin-top: -50px;""><div style=""display: flex; justify-content: space-between; margin-top: 33px;""><img src=""images/choice_trial_11.png"" style=""width: 408px; height: 417px; margin-left:608px;""></div></div>",,delaylearn,learning,display_response,BVd8qHAW9gT33EAESUmFZ3KZH4p1,BVd8qHAW9gT33EAESUmFZ3KZH4p1,,,,,,,,,,,,,,,,,chosen stimuli: images/choice_trial_11.png,,,,,5e836f61445b1c0761ae6a76,14:19:08,26/02/2024
html-keyboard-response,196,409972,0.0-81.0-2.0,,,,delaylearn,learning,feedback_duration_window,BVd8qHAW9gT33EAESUmFZ3KZH4p1,BVd8qHAW9gT33EAESUmFZ3KZH4p1,,,,,,,,,,,,,,,,,,7000.0,,,,5e836f61445b1c0761ae6a76,14:19:08,26/02/2024
html-keyboard-response,197,411480,0.0-81.0-3.0,,<div style='margin:auto;width: auto; font-size: 150%'><span style='font-weight: bold; font-size: 100px; color: red;'>0 points!</span><br><br></div>,,delaylearn,learning,feedback_image_window,BVd8qHAW9gT33EAESUmFZ3KZH4p1,BVd8qHAW9gT33EAESUmFZ3KZH4p1,,,,,,,,,,,,,,,,,,,,,,5e836f61445b1c0761ae6a76,14:19:08,26/02/2024
html-keyboard-response,198,413194,0.0-82.0,,"<div style=""font-size:100px;"">+</div>",,delaylearn,learning,ITI,BVd8qHAW9gT33EAESUmFZ3KZH4p1,BVd8qHAW9gT33EAESUmFZ3KZH4p1,,,,,,,,,,,,,,,,,,,1710.0,,,5e836f61445b1c0761ae6a76,14:19:08,26/02/2024
html-keyboard-response,199,414533,0.0-83.0-0.0,1337.6000000238419,"<div style=""display: flex; flex-direction: column; align-items: center; margin-top: -40px;""><img src=""images/pattern_7.png"" style=""width: 234px; height: 230px; margin-top: -50px;""><div style=""display: flex; justify-content: space-between; margin-top: 33px;""><img src=""images/choice_trial_8.png"" style=""width: 408px; height: 417px; margin-right: 200px;""><img src=""images/choice_trial_10.png"" style=""width: 408px; height: 417px;""></div></div>",f,delaylearn,learning,trial,BVd8qHAW9gT33EAESUmFZ3KZH4p1,BVd8qHAW9gT33EAESUmFZ3KZH4p1,5.0,images/choice_trial_8.png,images/choice_trial_10.png,images/pattern_7.png,f,f,750.0,8.0,10.0,6.0,0.0,36.0,1.0,1.0,8.0,220.0,,,,,,5e836f61445b1c0761ae6a76,14:19:08,26/02/2024
html-keyboard-response,200,415534,0.0-83.0-1.0,,"<div style=""display: flex; flex-direction: column; align-items: center; margin-top: -40px;""><img src=""images/pattern_7.png"" style=""width: 234px; height: 230px; margin-top: -50px;""><div style=""display: flex; justify-content: space-between; margin-top: 33px;""><img src=""images/choice_trial_8.png"" style=""width: 408px; height: 417px; margin-right: 608px;""></div></div>",,delaylearn,learning,display_response,BVd8qHAW9gT33EAESUmFZ3KZH4p1,BVd8qHAW9gT33EAESUmFZ3KZH4p1,,,,,,,,,,,,,,,,,chosen stimuli: images/choice_trial_8.png,,,,,5e836f61445b1c0761ae6a76,14:19:08,26/02/2024
html-keyboard-response,201,416300,0.0-83.0-2.0,,,,delaylearn,learning,feedback_duration_window,BVd8qHAW9gT33EAESUmFZ3KZH4p1,BVd8qHAW9gT33EAESUmFZ3KZH4p1,,,,,,,,,,,,,,,,,,750.0,,,,5e836f61445b1c0761ae6a76,14:19:08,26/02/2024
html-keyboard-response,202,417805,0.0-83.0-3.0,,<div style='margin:auto;width: auto; font-size: 150%'><span style='font-weight: bold; font-size: 100px; color: green;'>+10 points!</span><br><br></div>,,delaylearn,learning,feedback_image_window,BVd8qHAW9gT33EAESUmFZ3KZH4p1,BVd8qHAW9gT33EAESUmFZ3KZH4p1,,,,,,,,,,,,,,,,,,,,,,5e836f61445b1c0761ae6a76,14:19:08,26/02/2024
html-keyboard-response,203,419819,0.0-84.0,,"<div style=""font-size:100px;"">+</div>",,delaylearn,learning,ITI,BVd8qHAW9gT33EAESUmFZ3KZH4p1,BVd8qHAW9gT33EAESUmFZ3KZH4p1,,,,,,,,,,,,,,,,,,,2007.0,,,5e836f61445b1c0761ae6a76,14:19:08,26/02/2024
html-keyboard-response,204,421575,0.0-85.0-0.0,1754.6000000238419,"<div style=""display: flex; flex-direction: column; align-items: center; margin-top: -40px;""><img src=""images/pattern_1.png"" style=""width: 234px; height: 230px; margin-top: -50px;""><div style=""display: flex; justify-content: space-between; margin-top: 33px;""><img src=""images/choice_trial_6.png"" style=""width: 408px; height: 417px; margin-right: 200px;""><img src=""images/choice_trial_15.png"" style=""width: 408px; height: 417px;""></div></div>",f,delaylearn,learning,trial,BVd8qHAW9gT33EAESUmFZ3KZH4p1,BVd8qHAW9gT33EAESUmFZ3KZH4p1,5.0,images/choice_trial_6.png,images/choice_trial_15.png,images/pattern_1.png,f,f,7000.0,6.0,15.0,1.0,0.0,37.0,1.0,1.0,6.0,230.0,,,,,,5e836f61445b1c0761ae6a76,14:19:08,26/02/2024
html-keyboard-response,205,422583,0.0-85.0-1.0,,"<div style=""display: flex; flex-direction: column; align-items: center; margin-top: -40px;""><img src=""images/pattern_1.png"" style=""width: 234px; height: 230px; margin-top: -50px;""><div style=""display: flex; justify-content: space-between; margin-top: 33px;""><img src=""images/choice_trial_6.png"" style=""width: 408px; height: 417px; margin-right: 608px;""></div></div>",,delaylearn,learning,display_response,BVd8qHAW9gT33EAESUmFZ3KZH4p1,BVd8qHAW9gT33EAESUmFZ3KZH4p1,,,,,,,,,,,,,,,,,chosen stimuli: images/choice_trial_6.png,,,,,5e836f61445b1c0761ae6a76,14:19:08,26/02/2024
html-keyboard-response,206,429597,0.0-85.0-2.0,,,,delaylearn,learning,feedback_duration_window,BVd8qHAW9gT33EAESUmFZ3KZH4p1,BVd8qHAW9gT33EAESUmFZ3KZH4p1,,,,,,,,,,,,,,,,,,7000.0,,,,5e836f61445b1c0761ae6a76,14:19:08,26/02/2024
html-keyboard-response,207,431104,0.0-85.0-3.0,,<div style='margin:auto;width: auto; font-size: 150%'><span style='font-weight: bold; font-size: 100px; color: green;'>+10 points!</span><br><br></div>,,delaylearn,learning,feedback_image_window,BVd8qHAW9gT33EAESUmFZ3KZH4p1,BVd8qHAW9gT33EAESUmFZ3KZH4p1,,,,,,,,,,,,,,,,,,,,,,5e836f61445b1c0761ae6a76,14:19:08,26/02/2024
html-keyboard-response,208,431611,0.0-86.0-0.0,,,,,,mood_trial_fixation,BVd8qHAW9gT33EAESUmFZ3KZH4p1,,,,,,,,,,,,,,,,,,,,,,,5e836f61445b1c0761ae6a76,14:19:08,26/02/2024
lmdlab-html-vas-response,209,435435,0.0-86.0-1.0,2809.0,How happy are you right now?,0.9922839506172839,delaylearn,learning,mood_trial,BVd8qHAW9gT33EAESUmFZ3KZH4p1,BVd8qHAW9gT33EAESUmFZ3KZH4p1,,,,,,,,,,,,,,,,,,,,"['Very unhappy', 'Very happy']",,5e836f61445b1c0761ae6a76,14:19:08,26/02/2024
html-keyboard-response,210,437923,0.0-87.0,,"<div style=""font-size:100px;"">+</div>",,delaylearn,learning,ITI,BVd8qHAW9gT33EAESUmFZ3KZH4p1,BVd8qHAW9gT33EAESUmFZ3KZH4p1,,,,,,,,,,,,,,,,,,,2480.0,,,5e836f61445b1c0761ae6a76,14:19:08,26/02/2024
html-keyboard-response,211,439070,0.0-88.0-0.0,1146.1000000238419,"<div style=""display: flex; flex-direction: column; align-items: center; margin-top: -40px;""><img src=""images/pattern_3.png"" style=""width: 234px; height: 230px; margin-top: -50px;""><div style=""display: flex; justify-content: space-between; margin-top: 33px;""><img src=""images/choice_trial_16.png"" style=""width: 408px; height: 417px; margin-right: 200px;""><img src=""images/choice_trial_2.png"" style=""width: 408px; height: 417px;""></div></div>",f,delaylearn,learning,trial,BVd8qHAW9gT33EAESUmFZ3KZH4p1,BVd8qHAW9gT33EAESUmFZ3KZH4p1,5.0,images/choice_trial_16.png,images/choice_trial_2.png,images/pattern_3.png,j,f,7000.0,16.0,2.0,2.0,0.0,38.0,1.0,0.0,16.0,230.0,,,,,,5e836f61445b1c0761ae6a76,14:19:08,26/02/2024
html-keyboard-response,212,440087,0.0-88.0-1.0,,"<div style=""display: flex; flex-direction: column; align-items: center; margin-top: -40px;""><img src=""images/pattern_3.png"" style=""width: 234px; height: 230px; margin-top: -50px;""><div style=""display: flex; justify-content: space-between; margin-top: 33px;""><img src=""images/choice_trial_16.png"" style=""width: 408px; height: 417px; margin-right: 608px;""></div></div>",,delaylearn,learning,display_response,BVd8qHAW9gT33EAESUmFZ3KZH4p1,BVd8qHAW9gT33EAESUmFZ3KZH4p1,,,,,,,,,,,,,,,,,chosen stimuli: images/choice_trial_16.png,,,,,5e836f61445b1c0761ae6a76,14:19:08,26/02/2024
html-keyboard-response,213,447097,0.0-88.0-2.0,,,,delaylearn,learning,feedback_duration_window,BVd8qHAW9gT33EAESUmFZ3KZH4p1,BVd8qHAW9gT33EAESUmFZ3KZH4p1,,,,,,,,,,,,,,,,,,7000.0,,,,5e836f61445b1c0761ae6a76,14:19:08,26/02/2024
html-keyboard-response,214,448604,0.0-88.0-3.0,,<div style='margin:auto;width: auto; font-size: 150%'><span style='font-weight: bold; font-size: 100px; color: red;'>0 points!</span><br><br></div>,,delaylearn,learning,feedback_image_window,BVd8qHAW9gT33EAESUmFZ3KZH4p1,BVd8qHAW9gT33EAESUmFZ3KZH4p1,,,,,,,,,,,,,,,,,,,,,,5e836f61445b1c0761ae6a76,14:19:08,26/02/2024
html-keyboard-response,215,450529,0.0-89.0,,"<div style=""font-size:100px;"">+</div>",,delaylearn,learning,ITI,BVd8qHAW9gT33EAESUmFZ3KZH4p1,BVd8qHAW9gT33EAESUmFZ3KZH4p1,,,,,,,,,,,,,,,,,,,1911.0,,,5e836f61445b1c0761ae6a76,14:19:08,26/02/2024
html-keyboard-response,216,452092,0.0-90.0-0.0,1561.5999999046326,"<div style=""display: flex; flex-direction: column; align-items: center; margin-top: -40px;""><img src=""images/pattern_7.png"" style=""width: 234px; height: 230px; margin-top: -50px;""><div style=""display: flex; justify-content: space-between; margin-top: 33px;""><img src=""images/choice_trial_10.png"" style=""width: 408px; height: 417px; margin-right: 200px;""><img src=""images/choice_trial_8.png"" style=""width: 408px; height: 417px;""></div></div>",j,delaylearn,learning,trial,BVd8qHAW9gT33EAESUmFZ3KZH4p1,BVd8qHAW9gT33EAESUmFZ3KZH4p1,5.0,images/choice_trial_10.png,images/choice_trial_8.png,images/pattern_7.png,j,j,750.0,10.0,8.0,6.0,1.0,39.0,1.0,1.0,8.0,240.0,,,,,,5e836f61445b1c0761ae6a76,14:19:08,26/02/2024
html-keyboard-response,217,453097,0.0-90.0-1.0,,"<div style=""display: flex; flex-direction: column; align-items: center; margin-top: -40px;""><img src=""images/pattern_7.png"" style=""width: 234px; height: 230px; margin-top: -50px;""><div style=""display: flex; justify-content: space-between; margin-top: 33px;""><img src=""images/choice_trial_8.png"" style=""width: 408px; height: 417px; margin-left:608px;""></div></div>",,delaylearn,learning,display_response,BVd8qHAW9gT33EAESUmFZ3KZH4p1,BVd8qHAW9gT33EAESUmFZ3KZH4p1,,,,,,,,,,,,,,,,,chosen stimuli: images/choice_trial_8.png,,,,,5e836f61445b1c0761ae6a76,14:19:08,26/02/2024
html-keyboard-response,218,453848,0.0-90.0-2.0,,,,delaylearn,learning,feedback_duration_window,BVd8qHAW9gT33EAESUmFZ3KZH4p1,BVd8qHAW9gT33EAESUmFZ3KZH4p1,,,,,,,,,,,,,,,,,,750.0,,,,5e836f61445b1c0761ae6a76,14:19:08,26/02/2024
html-keyboard-response,219,455354,0.0-90.0-3.0,,<div style='margin:auto;width: auto; font-size: 150%'><span style='font-weight: bold; font-size: 100px; color: green;'>+10 points!</span><br><br></div>,,delaylearn,learning,feedback_image_window,BVd8qHAW9gT33EAESUmFZ3KZH4p1,BVd8qHAW9gT33EAESUmFZ3KZH4p1,,,,,,,,,,,,,,,,,,,,,,5e836f61445b1c0761ae6a76,14:19:08,26/02/2024
html-keyboard-response,220,457674,0.0-91.0,,"<div style=""font-size:100px;"">+</div>",,delaylearn,learning,ITI,BVd8qHAW9gT33EAESUmFZ3KZH4p1,BVd8qHAW9gT33EAESUmFZ3KZH4p1,,,,,,,,,,,,,,,,,,,2316.0,,,5e836f61445b1c0761ae6a76,14:19:08,26/02/2024
html-keyboard-response,221,459175,0.0-92.0-0.0,1500.0,"<div style=""display: flex; flex-direction: column; align-items: center; margin-top: -40px;""><img src=""images/pattern_5.png"" style=""width: 234px; height: 230px; margin-top: -50px;""><div style=""display: flex; justify-content: space-between; margin-top: 33px;""><img src=""images/choice_trial_13.png"" style=""width: 408px; height: 417px; margin-right: 200px;""><img src=""images/choice_trial_7.png"" style=""width: 408px; height: 417px;""></div></div>",j,delaylearn,learning,trial,BVd8qHAW9gT33EAESUmFZ3KZH4p1,BVd8qHAW9gT33EAESUmFZ3KZH4p1,5.0,images/choice_trial_13.png,images/choice_trial_7.png,images/pattern_5.png,j,j,750.0,13.0,7.0,4.0,1.0,40.0,1.0,1.0,7.0,250.0,,,,,,5e836f61445b1c0761ae6a76,14:19:08,26/02/2024
html-keyboard-response,222,460180,0.0-92.0-1.0,,"<div style=""display: flex; flex-direction: column; align-items: center; margin-top: -40px;""><img src=""images/pattern_5.png"" style=""width: 234px; height: 230px; margin-top: -50px;""><div style=""display: flex; justify-content: space-between; margin-top: 33px;""><img src=""images/choice_trial_7.png"" style=""width: 408px; height: 417px; margin-left:608px;""></div></div>",,delaylearn,learning,display_response,BVd8qHAW9gT33EAESUmFZ3KZH4p1,BVd8qHAW9gT33EAESUmFZ3KZH4p1,,,,,,,,,,,,,,,,,chosen stimuli: images/choice_trial_7.png,,,,,5e836f61445b1c0761ae6a76,14:19:08,26/02/2024
html-keyboard-response,223,460937,0.0-92.0-2.0,,,,delaylearn,learning,feedback_duration_window,BVd8qHAW9gT33EAESUmFZ3KZH4p1,BVd8qHAW9gT33EAESUmFZ3KZH4p1,,,,,,,,,,,,,,,,,,750.0,,,,5e836f61445b1c0761ae6a76,14:19:08,26/02/2024
html-keyboard-response,224,462446,0.0-92.0-3.0,,<div style='margin:auto;width: auto; font-size: 150%'><span style='font-weight: bold; font-size: 100px; color: green;'>+10 points!</span><br><br></div>,,delaylearn,learning,feedback_image_window,BVd8qHAW9gT33EAESUmFZ3KZH4p1,BVd8qHAW9gT33EAESUmFZ3KZH4p1,,,,,,,,,,,,,,,,,,,,,,5e836f61445b1c0761ae6a76,14:19:08,26/02/2024
html-keyboard-response,225,462951,0.0-93.0-0.0,,,,,,mood_trial_fixation,BVd8qHAW9gT33EAESUmFZ3KZH4p1,,,,,,,,,,,,,,,,,,,,,,,5e836f61445b1c0761ae6a76,14:19:08,26/02/2024
lmdlab-html-vas-response,226,466137,0.0-93.0-1.0,2170.0,How happy are you right now?,0.9891975308641975,delaylearn,learning,mood_trial,BVd8qHAW9gT33EAESUmFZ3KZH4p1,BVd8qHAW9gT33EAESUmFZ3KZH4p1,,,,,,,,,,,,,,,,,,,,"['Very unhappy', 'Very happy']",,5e836f61445b1c0761ae6a76,14:19:08,26/02/2024
html-keyboard-response,227,468292,0.0-94.0,,"<div style=""font-size:100px;"">+</div>",,delaylearn,learning,ITI,BVd8qHAW9gT33EAESUmFZ3KZH4p1,BVd8qHAW9gT33EAESUmFZ3KZH4p1,,,,,,,,,,,,,,,,,,,2147.0,,,5e836f61445b1c0761ae6a76,14:19:08,26/02/2024
html-keyboard-response,228,469473,0.0-95.0-0.0,1180.1000000238419,"<div style=""display: flex; flex-direction: column; align-items: center; margin-top: -40px;""><img src=""images/pattern_4.png"" style=""width: 234px; height: 230px; margin-top: -50px;""><div style=""display: flex; justify-content: space-between; margin-top: 33px;""><img src=""images/choice_trial_11.png"" style=""width: 408px; height: 417px; margin-right: 200px;""><img src=""images/choice_trial_4.png"" style=""width: 408px; height: 417px;""></div></div>",f,delaylearn,learning,trial,BVd8qHAW9gT33EAESUmFZ3KZH4p1,BVd8qHAW9gT33EAESUmFZ3KZH4p1,5.0,images/choice_trial_11.png,images/choice_trial_4.png,images/pattern_4.png,f,f,7000.0,11.0,4.0,3.0,0.0,41.0,1.0,1.0,11.0,260.0,,,,,,5e836f61445b1c0761ae6a76,14:19:08,26/02/2024
html-keyboard-response,229,470486,0.0-95.0-1.0,,"<div style=""display: flex; flex-direction: column; align-items: center; margin-top: -40px;""><img src=""images/pattern_4.png"" style=""width: 234px; height: 230px; margin-top: -50px;""><div style=""display: flex; justify-content: space-between; margin-top: 33px;""><img src=""images/choice_trial_11.png"" style=""width: 408px; height: 417px; margin-right: 608px;""></div></div>",,delaylearn,learning,display_response,BVd8qHAW9gT33EAESUmFZ3KZH4p1,BVd8qHAW9gT33EAESUmFZ3KZH4p1,,,,,,,,,,,,,,,,,chosen stimuli: images/choice_trial_11.png,,,,,5e836f61445b1c0761ae6a76,14:19:08,26/02/2024
html-keyboard-response,230,477493,0.0-95.0-2.0,,,,delaylearn,learning,feedback_duration_window,BVd8qHAW9gT33EAESUmFZ3KZH4p1,BVd8qHAW9gT33EAESUmFZ3KZH4p1,,,,,,,,,,,,,,,,,,7000.0,,,,5e836f61445b1c0761ae6a76,14:19:08,26/02/2024
html-keyboard-response,231,479000,0.0-95.0-3.0,,<div style='margin:auto;width: auto; font-size: 150%'><span style='font-weight: bold; font-size: 100px; color: green;'>+10 points!</span><br><br></div>,,delaylearn,learning,feedback_image_window,BVd8qHAW9gT33EAESUmFZ3KZH4p1,BVd8qHAW9gT33EAESUmFZ3KZH4p1,,,,,,,,,,,,,,,,,,,,,,5e836f61445b1c0761ae6a76,14:19:08,26/02/2024
html-keyboard-response,232,481397,0.0-96.0,,"<div style=""font-size:100px;"">+</div>",,delaylearn,learning,ITI,BVd8qHAW9gT33EAESUmFZ3KZH4p1,BVd8qHAW9gT33EAESUmFZ3KZH4p1,,,,,,,,,,,,,,,,,,,2393.0,,,5e836f61445b1c0761ae6a76,14:19:08,26/02/2024
html-keyboard-response,233,482665,0.0-97.0-0.0,1267.0,"<div style=""display: flex; flex-direction: column; align-items: center; margin-top: -40px;""><img src=""images/pattern_6.png"" style=""width: 234px; height: 230px; margin-top: -50px;""><div style=""display: flex; justify-content: space-between; margin-top: 33px;""><img src=""images/choice_trial_9.png"" style=""width: 408px; height: 417px; margin-right: 200px;""><img src=""images/choice_trial_14.png"" style=""width: 408px; height: 417px;""></div></div>",j,delaylearn,learning,trial,BVd8qHAW9gT33EAESUmFZ3KZH4p1,BVd8qHAW9gT33EAESUmFZ3KZH4p1,5.0,images/choice_trial_9.png,images/choice_trial_14.png,images/pattern_6.png,j,j,750.0,9.0,14.0,5.0,1.0,42.0,1.0,1.0,14.0,270.0,,,,,,5e836f61445b1c0761ae6a76,14:19:08,26/02/2024
