trial_type,trial_index,time_elapsed,internal_node_id,rt,stimulus,response,exp_name,exp_stage,test_part,subjectID,databaseID,counterbal,choice_stimuli_1,choice_stimuli_2,pattern_stimuli,rewarded_answer,correct_answer,feedback_duration_times,stim_left,stim_right,pair,leftright_counter,trial,response_correct,response_rewarded,chosen_stim,counter,displayed_choice,feedback_durations,ITI_duration,labels,rest_warning,prolificID,start_time,date
pavlovia,0,457,0.0-0.0,,,,,,,2t3g6vygeehR4NsGOqNy1hPakyg2,,,,,,,,,,,,,,,,,,,,,,,655faeaa22964920719a77b3,17:24:26,27/03/2024
html-keyboard-response,1,3460,0.0-1.0,,"<div style=""font-size:100px;"">+</div>",,delaylearn,learning,pre_fixation,2t3g6vygeehR4NsGOqNy1hPakyg2,,,,,,,,,,,,,,,,,,,,,,,655faeaa22964920719a77b3,17:24:26,27/03/2024
html-keyboard-response,2,4543,0.0-2.0-0.0,1079.1000000238419,"<div style=""display: flex; flex-direction: column; align-items: center; margin-top: -40px;""><img src=""images/demo_images/pattern_1.png"" style=""width: 234px; height: 230px; margin-top: -50px;""><div style=""display: flex; justify-content: space-between; margin-top: 33px;""><img src=""images/demo_images/choice_trial_2.png"" style=""width: 408px; height: 417px; margin-right: 200px;""><img src=""images/demo_images/choice_trial_1.png"" style=""width: 408px; height: 417px;""></div></div>",j,delaylearn,learning,trial,2t3g6vygeehR4NsGOqNy1hPakyg2,2t3g6vygeehR4NsGOqNy1hPakyg2,2.0,images/demo_images/choice_trial_2.png,images/demo_images/choice_trial_1.png,images/demo_images/pattern_1.png,j,j,3000.0,2.0,1.0,20.0,1.0,1.0,1.0,1.0,1.0,10.0,,,,,,655faeaa22964920719a77b3,17:24:26,27/03/2024
html-keyboard-response,3,5547,0.0-2.0-1.0,,"<div style=""display: flex; flex-direction: column; align-items: center; margin-top: -40px;""><img src=""images/demo_images/pattern_1.png"" style=""width: 234px; height: 230px; margin-top: -50px;""><div style=""display: flex; justify-content: space-between; margin-top: 33px;""><img src=""images/demo_images/choice_trial_1.png"" style=""width: 408px; height: 417px; margin-left:608px;""></div></div>",,delaylearn,learning,display_response,2t3g6vygeehR4NsGOqNy1hPakyg2,2t3g6vygeehR4NsGOqNy1hPakyg2,,,,,,,,,,,,,,,,,chosen stimuli: images/demo_images/choice_trial_1.png,,,,,655faeaa22964920719a77b3,17:24:26,27/03/2024
html-keyboard-response,4,8551,0.0-2.0-2.0,,,,delaylearn,learning,feedback_duration_window,2t3g6vygeehR4NsGOqNy1hPakyg2,2t3g6vygeehR4NsGOqNy1hPakyg2,,,,,,,,,,,,,,,,,,3000.0,,,,655faeaa22964920719a77b3,17:24:26,27/03/2024
html-keyboard-response,5,10055,0.0-2.0-3.0,,<div style='margin:auto;width: auto; font-size: 150%'><span style='font-weight: bold; font-size: 100px; color: green;'>+10 points!</span><br><br></div>,,delaylearn,learning,feedback_image_window,2t3g6vygeehR4NsGOqNy1hPakyg2,2t3g6vygeehR4NsGOqNy1hPakyg2,,,,,,,,,,,,,,,,,,,,,,655faeaa22964920719a77b3,17:24:26,27/03/2024
html-keyboard-response,6,12527,0.0-3.0,,"<div style=""font-size:100px;"">+</div>",,delaylearn,learning,ITI,2t3g6vygeehR4NsGOqNy1hPakyg2,2t3g6vygeehR4NsGOqNy1hPakyg2,,,,,,,,,,,,,,,,,,,2468.0,,,655faeaa22964920719a77b3,17:24:26,27/03/2024
html-keyboard-response,7,13092,0.0-4.0-0.0,561.6000000238419,"<div style=""display: flex; flex-direction: column; align-items: center; margin-top: -40px;""><img src=""images/demo_images/pattern_1.png"" style=""width: 234px; height: 230px; margin-top: -50px;""><div style=""display: flex; justify-content: space-between; margin-top: 33px;""><img src=""images/demo_images/choice_trial_2.png"" style=""width: 408px; height: 417px; margin-right: 200px;""><img src=""images/demo_images/choice_trial_1.png"" style=""width: 408px; height: 417px;""></div></div>",j,delaylearn,learning,trial,2t3g6vygeehR4NsGOqNy1hPakyg2,2t3g6vygeehR4NsGOqNy1hPakyg2,2.0,images/demo_images/choice_trial_2.png,images/demo_images/choice_trial_1.png,images/demo_images/pattern_1.png,j,j,3000.0,2.0,1.0,20.0,1.0,2.0,1.0,1.0,1.0,20.0,,,,,,655faeaa22964920719a77b3,17:24:26,27/03/2024
html-keyboard-response,8,14095,0.0-4.0-1.0,,"<div style=""display: flex; flex-direction: column; align-items: center; margin-top: -40px;""><img src=""images/demo_images/pattern_1.png"" style=""width: 234px; height: 230px; margin-top: -50px;""><div style=""display: flex; justify-content: space-between; margin-top: 33px;""><img src=""images/demo_images/choice_trial_1.png"" style=""width: 408px; height: 417px; margin-left:608px;""></div></div>",,delaylearn,learning,display_response,2t3g6vygeehR4NsGOqNy1hPakyg2,2t3g6vygeehR4NsGOqNy1hPakyg2,,,,,,,,,,,,,,,,,chosen stimuli: images/demo_images/choice_trial_1.png,,,,,655faeaa22964920719a77b3,17:24:26,27/03/2024
html-keyboard-response,9,17097,0.0-4.0-2.0,,,,delaylearn,learning,feedback_duration_window,2t3g6vygeehR4NsGOqNy1hPakyg2,2t3g6vygeehR4NsGOqNy1hPakyg2,,,,,,,,,,,,,,,,,,3000.0,,,,655faeaa22964920719a77b3,17:24:26,27/03/2024
html-keyboard-response,10,18600,0.0-4.0-3.0,,<div style='margin:auto;width: auto; font-size: 150%'><span style='font-weight: bold; font-size: 100px; color: green;'>+10 points!</span><br><br></div>,,delaylearn,learning,feedback_image_window,2t3g6vygeehR4NsGOqNy1hPakyg2,2t3g6vygeehR4NsGOqNy1hPakyg2,,,,,,,,,,,,,,,,,,,,,,655faeaa22964920719a77b3,17:24:26,27/03/2024
html-keyboard-response,11,20692,0.0-5.0,,"<div style=""font-size:100px;"">+</div>",,delaylearn,learning,ITI,2t3g6vygeehR4NsGOqNy1hPakyg2,2t3g6vygeehR4NsGOqNy1hPakyg2,,,,,,,,,,,,,,,,,,,2089.0,,,655faeaa22964920719a77b3,17:24:26,27/03/2024
html-keyboard-response,12,21157,0.0-6.0-0.0,461.5,"<div style=""display: flex; flex-direction: column; align-items: center; margin-top: -40px;""><img src=""images/demo_images/pattern_1.png"" style=""width: 234px; height: 230px; margin-top: -50px;""><div style=""display: flex; justify-content: space-between; margin-top: 33px;""><img src=""images/demo_images/choice_trial_1.png"" style=""width: 408px; height: 417px; margin-right: 200px;""><img src=""images/demo_images/choice_trial_2.png"" style=""width: 408px; height: 417px;""></div></div>",f,delaylearn,learning,trial,2t3g6vygeehR4NsGOqNy1hPakyg2,2t3g6vygeehR4NsGOqNy1hPakyg2,2.0,images/demo_images/choice_trial_1.png,images/demo_images/choice_trial_2.png,images/demo_images/pattern_1.png,j,f,3000.0,1.0,2.0,20.0,0.0,3.0,1.0,0.0,1.0,20.0,,,,,,655faeaa22964920719a77b3,17:24:26,27/03/2024
html-keyboard-response,13,22160,0.0-6.0-1.0,,"<div style=""display: flex; flex-direction: column; align-items: center; margin-top: -40px;""><img src=""images/demo_images/pattern_1.png"" style=""width: 234px; height: 230px; margin-top: -50px;""><div style=""display: flex; justify-content: space-between; margin-top: 33px;""><img src=""images/demo_images/choice_trial_1.png"" style=""width: 408px; height: 417px; margin-right: 608px;""></div></div>",,delaylearn,learning,display_response,2t3g6vygeehR4NsGOqNy1hPakyg2,2t3g6vygeehR4NsGOqNy1hPakyg2,,,,,,,,,,,,,,,,,chosen stimuli: images/demo_images/choice_trial_1.png,,,,,655faeaa22964920719a77b3,17:24:26,27/03/2024
html-keyboard-response,14,25164,0.0-6.0-2.0,,,,delaylearn,learning,feedback_duration_window,2t3g6vygeehR4NsGOqNy1hPakyg2,2t3g6vygeehR4NsGOqNy1hPakyg2,,,,,,,,,,,,,,,,,,3000.0,,,,655faeaa22964920719a77b3,17:24:26,27/03/2024
html-keyboard-response,15,26667,0.0-6.0-3.0,,<div style='margin:auto;width: auto; font-size: 150%'><span style='font-weight: bold; font-size: 100px; color: red;'>0 points!</span><br><br></div>,,delaylearn,learning,feedback_image_window,2t3g6vygeehR4NsGOqNy1hPakyg2,2t3g6vygeehR4NsGOqNy1hPakyg2,,,,,,,,,,,,,,,,,,,,,,655faeaa22964920719a77b3,17:24:26,27/03/2024
html-keyboard-response,16,28379,0.0-7.0,,"<div style=""font-size:100px;"">+</div>",,delaylearn,learning,ITI,2t3g6vygeehR4NsGOqNy1hPakyg2,2t3g6vygeehR4NsGOqNy1hPakyg2,,,,,,,,,,,,,,,,,,,1709.0,,,655faeaa22964920719a77b3,17:24:26,27/03/2024
html-keyboard-response,17,29105,0.0-8.0-0.0,722.6999999880791,"<div style=""display: flex; flex-direction: column; align-items: center; margin-top: -40px;""><img src=""images/demo_images/pattern_1.png"" style=""width: 234px; height: 230px; margin-top: -50px;""><div style=""display: flex; justify-content: space-between; margin-top: 33px;""><img src=""images/demo_images/choice_trial_1.png"" style=""width: 408px; height: 417px; margin-right: 200px;""><img src=""images/demo_images/choice_trial_2.png"" style=""width: 408px; height: 417px;""></div></div>",j,delaylearn,learning,trial,2t3g6vygeehR4NsGOqNy1hPakyg2,2t3g6vygeehR4NsGOqNy1hPakyg2,2.0,images/demo_images/choice_trial_1.png,images/demo_images/choice_trial_2.png,images/demo_images/pattern_1.png,f,f,3000.0,1.0,2.0,20.0,0.0,4.0,0.0,0.0,2.0,20.0,,,,,,655faeaa22964920719a77b3,17:24:26,27/03/2024
html-keyboard-response,18,30109,0.0-8.0-1.0,,"<div style=""display: flex; flex-direction: column; align-items: center; margin-top: -40px;""><img src=""images/demo_images/pattern_1.png"" style=""width: 234px; height: 230px; margin-top: -50px;""><div style=""display: flex; justify-content: space-between; margin-top: 33px;""><img src=""images/demo_images/choice_trial_2.png"" style=""width: 408px; height: 417px; margin-left:608px;""></div></div>",,delaylearn,learning,display_response,2t3g6vygeehR4NsGOqNy1hPakyg2,2t3g6vygeehR4NsGOqNy1hPakyg2,,,,,,,,,,,,,,,,,chosen stimuli: images/demo_images/choice_trial_2.png,,,,,655faeaa22964920719a77b3,17:24:26,27/03/2024
html-keyboard-response,19,33113,0.0-8.0-2.0,,,,delaylearn,learning,feedback_duration_window,2t3g6vygeehR4NsGOqNy1hPakyg2,2t3g6vygeehR4NsGOqNy1hPakyg2,,,,,,,,,,,,,,,,,,3000.0,,,,655faeaa22964920719a77b3,17:24:26,27/03/2024
html-keyboard-response,20,34616,0.0-8.0-3.0,,<div style='margin:auto;width: auto; font-size: 150%'><span style='font-weight: bold; font-size: 100px; color: red;'>0 points!</span><br><br></div>,,delaylearn,learning,feedback_image_window,2t3g6vygeehR4NsGOqNy1hPakyg2,2t3g6vygeehR4NsGOqNy1hPakyg2,,,,,,,,,,,,,,,,,,,,,,655faeaa22964920719a77b3,17:24:26,27/03/2024
html-keyboard-response,21,35120,0.0-9.0-0.0,,,,,,mood_trial_fixation,2t3g6vygeehR4NsGOqNy1hPakyg2,,,,,,,,,,,,,,,,,,,,,,,655faeaa22964920719a77b3,17:24:26,27/03/2024
lmdlab-html-vas-response,22,38956,0.0-9.0-1.0,2827.0,How happy are you right now?,0.5163043478260869,delaylearn,learning,mood_trial,2t3g6vygeehR4NsGOqNy1hPakyg2,2t3g6vygeehR4NsGOqNy1hPakyg2,,,,,,,,,,,,,,,,,,,,"['Very unhappy', 'Very happy']",,655faeaa22964920719a77b3,17:24:26,27/03/2024
html-keyboard-response,23,41364,0.0-10.0,,"<div style=""font-size:100px;"">+</div>",,delaylearn,learning,ITI,2t3g6vygeehR4NsGOqNy1hPakyg2,2t3g6vygeehR4NsGOqNy1hPakyg2,,,,,,,,,,,,,,,,,,,2405.0,,,655faeaa22964920719a77b3,17:24:26,27/03/2024
html-keyboard-response,24,41855,0.0-11.0-0.0,488.0,"<div style=""display: flex; flex-direction: column; align-items: center; margin-top: -40px;""><img src=""images/demo_images/pattern_1.png"" style=""width: 234px; height: 230px; margin-top: -50px;""><div style=""display: flex; justify-content: space-between; margin-top: 33px;""><img src=""images/demo_images/choice_trial_2.png"" style=""width: 408px; height: 417px; margin-right: 200px;""><img src=""images/demo_images/choice_trial_1.png"" style=""width: 408px; height: 417px;""></div></div>",j,delaylearn,learning,trial,2t3g6vygeehR4NsGOqNy1hPakyg2,2t3g6vygeehR4NsGOqNy1hPakyg2,2.0,images/demo_images/choice_trial_2.png,images/demo_images/choice_trial_1.png,images/demo_images/pattern_1.png,j,j,3000.0,2.0,1.0,20.0,1.0,5.0,1.0,1.0,1.0,30.0,,,,,,655faeaa22964920719a77b3,17:24:26,27/03/2024
html-keyboard-response,25,42860,0.0-11.0-1.0,,"<div style=""display: flex; flex-direction: column; align-items: center; margin-top: -40px;""><img src=""images/demo_images/pattern_1.png"" style=""width: 234px; height: 230px; margin-top: -50px;""><div style=""display: flex; justify-content: space-between; margin-top: 33px;""><img src=""images/demo_images/choice_trial_1.png"" style=""width: 408px; height: 417px; margin-left:608px;""></div></div>",,delaylearn,learning,display_response,2t3g6vygeehR4NsGOqNy1hPakyg2,2t3g6vygeehR4NsGOqNy1hPakyg2,,,,,,,,,,,,,,,,,chosen stimuli: images/demo_images/choice_trial_1.png,,,,,655faeaa22964920719a77b3,17:24:26,27/03/2024
html-keyboard-response,26,45859,0.0-11.0-2.0,,,,delaylearn,learning,feedback_duration_window,2t3g6vygeehR4NsGOqNy1hPakyg2,2t3g6vygeehR4NsGOqNy1hPakyg2,,,,,,,,,,,,,,,,,,3000.0,,,,655faeaa22964920719a77b3,17:24:26,27/03/2024
html-keyboard-response,27,47361,0.0-11.0-3.0,,<div style='margin:auto;width: auto; font-size: 150%'><span style='font-weight: bold; font-size: 100px; color: green;'>+10 points!</span><br><br></div>,,delaylearn,learning,feedback_image_window,2t3g6vygeehR4NsGOqNy1hPakyg2,2t3g6vygeehR4NsGOqNy1hPakyg2,,,,,,,,,,,,,,,,,,,,,,655faeaa22964920719a77b3,17:24:26,27/03/2024
html-keyboard-response,28,48914,0.0-12.0,,"<div style=""font-size:100px;"">+</div>",,delaylearn,learning,ITI,2t3g6vygeehR4NsGOqNy1hPakyg2,2t3g6vygeehR4NsGOqNy1hPakyg2,,,,,,,,,,,,,,,,,,,1552.0,,,655faeaa22964920719a77b3,17:24:26,27/03/2024
html-keyboard-response,29,49357,0.0-13.0-0.0,440.80000001192093,"<div style=""display: flex; flex-direction: column; align-items: center; margin-top: -40px;""><img src=""images/demo_images/pattern_1.png"" style=""width: 234px; height: 230px; margin-top: -50px;""><div style=""display: flex; justify-content: space-between; margin-top: 33px;""><img src=""images/demo_images/choice_trial_1.png"" style=""width: 408px; height: 417px; margin-right: 200px;""><img src=""images/demo_images/choice_trial_2.png"" style=""width: 408px; height: 417px;""></div></div>",f,delaylearn,learning,trial,2t3g6vygeehR4NsGOqNy1hPakyg2,2t3g6vygeehR4NsGOqNy1hPakyg2,2.0,images/demo_images/choice_trial_1.png,images/demo_images/choice_trial_2.png,images/demo_images/pattern_1.png,f,f,3000.0,1.0,2.0,20.0,0.0,6.0,1.0,1.0,1.0,40.0,,,,,,655faeaa22964920719a77b3,17:24:26,27/03/2024
html-keyboard-response,30,50359,0.0-13.0-1.0,,"<div style=""display: flex; flex-direction: column; align-items: center; margin-top: -40px;""><img src=""images/demo_images/pattern_1.png"" style=""width: 234px; height: 230px; margin-top: -50px;""><div style=""display: flex; justify-content: space-between; margin-top: 33px;""><img src=""images/demo_images/choice_trial_1.png"" style=""width: 408px; height: 417px; margin-right: 608px;""></div></div>",,delaylearn,learning,display_response,2t3g6vygeehR4NsGOqNy1hPakyg2,2t3g6vygeehR4NsGOqNy1hPakyg2,,,,,,,,,,,,,,,,,chosen stimuli: images/demo_images/choice_trial_1.png,,,,,655faeaa22964920719a77b3,17:24:26,27/03/2024
html-keyboard-response,31,53358,0.0-13.0-2.0,,,,delaylearn,learning,feedback_duration_window,2t3g6vygeehR4NsGOqNy1hPakyg2,2t3g6vygeehR4NsGOqNy1hPakyg2,,,,,,,,,,,,,,,,,,3000.0,,,,655faeaa22964920719a77b3,17:24:26,27/03/2024
html-keyboard-response,32,54860,0.0-13.0-3.0,,<div style='margin:auto;width: auto; font-size: 150%'><span style='font-weight: bold; font-size: 100px; color: green;'>+10 points!</span><br><br></div>,,delaylearn,learning,feedback_image_window,2t3g6vygeehR4NsGOqNy1hPakyg2,2t3g6vygeehR4NsGOqNy1hPakyg2,,,,,,,,,,,,,,,,,,,,,,655faeaa22964920719a77b3,17:24:26,27/03/2024
html-keyboard-response,33,56682,0.0-14.0,,"<div style=""font-size:100px;"">+</div>",,delaylearn,learning,ITI,2t3g6vygeehR4NsGOqNy1hPakyg2,2t3g6vygeehR4NsGOqNy1hPakyg2,,,,,,,,,,,,,,,,,,,1821.0,,,655faeaa22964920719a77b3,17:24:26,27/03/2024
html-keyboard-response,34,57145,0.0-15.0-0.0,460.30000001192093,"<div style=""display: flex; flex-direction: column; align-items: center; margin-top: -40px;""><img src=""images/demo_images/pattern_1.png"" style=""width: 234px; height: 230px; margin-top: -50px;""><div style=""display: flex; justify-content: space-between; margin-top: 33px;""><img src=""images/demo_images/choice_trial_2.png"" style=""width: 408px; height: 417px; margin-right: 200px;""><img src=""images/demo_images/choice_trial_1.png"" style=""width: 408px; height: 417px;""></div></div>",j,delaylearn,learning,trial,2t3g6vygeehR4NsGOqNy1hPakyg2,2t3g6vygeehR4NsGOqNy1hPakyg2,2.0,images/demo_images/choice_trial_2.png,images/demo_images/choice_trial_1.png,images/demo_images/pattern_1.png,j,j,3000.0,2.0,1.0,20.0,1.0,7.0,1.0,1.0,1.0,50.0,,,,,,655faeaa22964920719a77b3,17:24:26,27/03/2024
html-keyboard-response,35,58148,0.0-15.0-1.0,,"<div style=""display: flex; flex-direction: column; align-items: center; margin-top: -40px;""><img src=""images/demo_images/pattern_1.png"" style=""width: 234px; height: 230px; margin-top: -50px;""><div style=""display: flex; justify-content: space-between; margin-top: 33px;""><img src=""images/demo_images/choice_trial_1.png"" style=""width: 408px; height: 417px; margin-left:608px;""></div></div>",,delaylearn,learning,display_response,2t3g6vygeehR4NsGOqNy1hPakyg2,2t3g6vygeehR4NsGOqNy1hPakyg2,,,,,,,,,,,,,,,,,chosen stimuli: images/demo_images/choice_trial_1.png,,,,,655faeaa22964920719a77b3,17:24:26,27/03/2024
html-keyboard-response,36,61149,0.0-15.0-2.0,,,,delaylearn,learning,feedback_duration_window,2t3g6vygeehR4NsGOqNy1hPakyg2,2t3g6vygeehR4NsGOqNy1hPakyg2,,,,,,,,,,,,,,,,,,3000.0,,,,655faeaa22964920719a77b3,17:24:26,27/03/2024
html-keyboard-response,37,62652,0.0-15.0-3.0,,<div style='margin:auto;width: auto; font-size: 150%'><span style='font-weight: bold; font-size: 100px; color: green;'>+10 points!</span><br><br></div>,,delaylearn,learning,feedback_image_window,2t3g6vygeehR4NsGOqNy1hPakyg2,2t3g6vygeehR4NsGOqNy1hPakyg2,,,,,,,,,,,,,,,,,,,,,,655faeaa22964920719a77b3,17:24:26,27/03/2024
html-keyboard-response,38,64386,0.0-16.0,,"<div style=""font-size:100px;"">+</div>",,delaylearn,learning,ITI,2t3g6vygeehR4NsGOqNy1hPakyg2,2t3g6vygeehR4NsGOqNy1hPakyg2,,,,,,,,,,,,,,,,,,,1733.0,,,655faeaa22964920719a77b3,17:24:26,27/03/2024
html-keyboard-response,39,64810,0.0-17.0-0.0,420.5,"<div style=""display: flex; flex-direction: column; align-items: center; margin-top: -40px;""><img src=""images/demo_images/pattern_1.png"" style=""width: 234px; height: 230px; margin-top: -50px;""><div style=""display: flex; justify-content: space-between; margin-top: 33px;""><img src=""images/demo_images/choice_trial_1.png"" style=""width: 408px; height: 417px; margin-right: 200px;""><img src=""images/demo_images/choice_trial_2.png"" style=""width: 408px; height: 417px;""></div></div>",f,delaylearn,learning,trial,2t3g6vygeehR4NsGOqNy1hPakyg2,2t3g6vygeehR4NsGOqNy1hPakyg2,2.0,images/demo_images/choice_trial_1.png,images/demo_images/choice_trial_2.png,images/demo_images/pattern_1.png,f,f,3000.0,1.0,2.0,20.0,0.0,8.0,1.0,1.0,1.0,60.0,,,,,,655faeaa22964920719a77b3,17:24:26,27/03/2024
html-keyboard-response,40,65813,0.0-17.0-1.0,,"<div style=""display: flex; flex-direction: column; align-items: center; margin-top: -40px;""><img src=""images/demo_images/pattern_1.png"" style=""width: 234px; height: 230px; margin-top: -50px;""><div style=""display: flex; justify-content: space-between; margin-top: 33px;""><img src=""images/demo_images/choice_trial_1.png"" style=""width: 408px; height: 417px; margin-right: 608px;""></div></div>",,delaylearn,learning,display_response,2t3g6vygeehR4NsGOqNy1hPakyg2,2t3g6vygeehR4NsGOqNy1hPakyg2,,,,,,,,,,,,,,,,,chosen stimuli: images/demo_images/choice_trial_1.png,,,,,655faeaa22964920719a77b3,17:24:26,27/03/2024
html-keyboard-response,41,68814,0.0-17.0-2.0,,,,delaylearn,learning,feedback_duration_window,2t3g6vygeehR4NsGOqNy1hPakyg2,2t3g6vygeehR4NsGOqNy1hPakyg2,,,,,,,,,,,,,,,,,,3000.0,,,,655faeaa22964920719a77b3,17:24:26,27/03/2024
html-keyboard-response,42,70318,0.0-17.0-3.0,,<div style='margin:auto;width: auto; font-size: 150%'><span style='font-weight: bold; font-size: 100px; color: green;'>+10 points!</span><br><br></div>,,delaylearn,learning,feedback_image_window,2t3g6vygeehR4NsGOqNy1hPakyg2,2t3g6vygeehR4NsGOqNy1hPakyg2,,,,,,,,,,,,,,,,,,,,,,655faeaa22964920719a77b3,17:24:26,27/03/2024
html-button-response,43,72360,0.0-18.0,2040.5,"
  <div style=""display: flex; align-items: center; justify-content: center; height: 80vh;"">
  <div>
          <img src=""images/inst_demo_finish.png"" style=""width: 80vw; height:auto;"">
          <br><br>
      </div>
      <br><br>
  </div>",0,,,,2t3g6vygeehR4NsGOqNy1hPakyg2,,,,,,,,,,,,,,,,,,,,,,,655faeaa22964920719a77b3,17:24:26,27/03/2024
html-keyboard-response,44,74387,0.0-19.0,2025.699999988079,"
  <div style=""display: flex; align-items: center; justify-content: center; height: 80vh;"">
  <div>
          <img src=""images/inst_6.png"" style=""width: 80vw; height:auto;"">
          <br><br>
      </div>
      <br><br>
  </div>",j,,,,2t3g6vygeehR4NsGOqNy1hPakyg2,,,,,,,,,,,,,,,,,,,,,,,655faeaa22964920719a77b3,17:24:26,27/03/2024
html-keyboard-response,45,77389,0.0-20.0,,"<div style=""font-size:100px;"">+</div>",,delaylearn,learning,pre_fixation,2t3g6vygeehR4NsGOqNy1hPakyg2,,,,,,,,,,,,,,,,,,,,,,,655faeaa22964920719a77b3,17:24:26,27/03/2024
html-keyboard-response,46,78913,0.0-21.0,,"<div style=""font-size:100px;"">+</div>",,delaylearn,learning,ITI,2t3g6vygeehR4NsGOqNy1hPakyg2,2t3g6vygeehR4NsGOqNy1hPakyg2,,,,,,,,,,,,,,,,,,,1520.0,,,655faeaa22964920719a77b3,17:24:26,27/03/2024
html-keyboard-response,47,80382,0.0-22.0-0.0,1465.8999999761581,"<div style=""display: flex; flex-direction: column; align-items: center; margin-top: -40px;""><img src=""images/pattern_3.png"" style=""width: 234px; height: 230px; margin-top: -50px;""><div style=""display: flex; justify-content: space-between; margin-top: 33px;""><img src=""images/choice_trial_12.png"" style=""width: 408px; height: 417px; margin-right: 200px;""><img src=""images/choice_trial_14.png"" style=""width: 408px; height: 417px;""></div></div>",f,delaylearn,learning,trial,2t3g6vygeehR4NsGOqNy1hPakyg2,2t3g6vygeehR4NsGOqNy1hPakyg2,2.0,images/choice_trial_12.png,images/choice_trial_14.png,images/pattern_3.png,f,f,7000.0,12.0,14.0,2.0,0.0,9.0,1.0,1.0,12.0,70.0,,,,,,655faeaa22964920719a77b3,17:24:26,27/03/2024
html-keyboard-response,48,81385,0.0-22.0-1.0,,"<div style=""display: flex; flex-direction: column; align-items: center; margin-top: -40px;""><img src=""images/pattern_3.png"" style=""width: 234px; height: 230px; margin-top: -50px;""><div style=""display: flex; justify-content: space-between; margin-top: 33px;""><img src=""images/choice_trial_12.png"" style=""width: 408px; height: 417px; margin-right: 608px;""></div></div>",,delaylearn,learning,display_response,2t3g6vygeehR4NsGOqNy1hPakyg2,2t3g6vygeehR4NsGOqNy1hPakyg2,,,,,,,,,,,,,,,,,chosen stimuli: images/choice_trial_12.png,,,,,655faeaa22964920719a77b3,17:24:26,27/03/2024
html-keyboard-response,49,88386,0.0-22.0-2.0,,,,delaylearn,learning,feedback_duration_window,2t3g6vygeehR4NsGOqNy1hPakyg2,2t3g6vygeehR4NsGOqNy1hPakyg2,,,,,,,,,,,,,,,,,,7000.0,,,,655faeaa22964920719a77b3,17:24:26,27/03/2024
html-keyboard-response,50,89890,0.0-22.0-3.0,,<div style='margin:auto;width: auto; font-size: 150%'><span style='font-weight: bold; font-size: 100px; color: green;'>+10 points!</span><br><br></div>,,delaylearn,learning,feedback_image_window,2t3g6vygeehR4NsGOqNy1hPakyg2,2t3g6vygeehR4NsGOqNy1hPakyg2,,,,,,,,,,,,,,,,,,,,,,655faeaa22964920719a77b3,17:24:26,27/03/2024
html-keyboard-response,51,91754,0.0-23.0,,"<div style=""font-size:100px;"">+</div>",,delaylearn,learning,ITI,2t3g6vygeehR4NsGOqNy1hPakyg2,2t3g6vygeehR4NsGOqNy1hPakyg2,,,,,,,,,,,,,,,,,,,1861.0,,,655faeaa22964920719a77b3,17:24:26,27/03/2024
html-keyboard-response,52,92510,0.0-24.0-0.0,753.0,"<div style=""display: flex; flex-direction: column; align-items: center; margin-top: -40px;""><img src=""images/pattern_7.png"" style=""width: 234px; height: 230px; margin-top: -50px;""><div style=""display: flex; justify-content: space-between; margin-top: 33px;""><img src=""images/choice_trial_15.png"" style=""width: 408px; height: 417px; margin-right: 200px;""><img src=""images/choice_trial_8.png"" style=""width: 408px; height: 417px;""></div></div>",j,delaylearn,learning,trial,2t3g6vygeehR4NsGOqNy1hPakyg2,2t3g6vygeehR4NsGOqNy1hPakyg2,2.0,images/choice_trial_15.png,images/choice_trial_8.png,images/pattern_7.png,j,j,750.0,15.0,8.0,6.0,1.0,10.0,1.0,1.0,8.0,80.0,,,,,,655faeaa22964920719a77b3,17:24:26,27/03/2024
html-keyboard-response,53,93513,0.0-24.0-1.0,,"<div style=""display: flex; flex-direction: column; align-items: center; margin-top: -40px;""><img src=""images/pattern_7.png"" style=""width: 234px; height: 230px; margin-top: -50px;""><div style=""display: flex; justify-content: space-between; margin-top: 33px;""><img src=""images/choice_trial_8.png"" style=""width: 408px; height: 417px; margin-left:608px;""></div></div>",,delaylearn,learning,display_response,2t3g6vygeehR4NsGOqNy1hPakyg2,2t3g6vygeehR4NsGOqNy1hPakyg2,,,,,,,,,,,,,,,,,chosen stimuli: images/choice_trial_8.png,,,,,655faeaa22964920719a77b3,17:24:26,27/03/2024
html-keyboard-response,54,94267,0.0-24.0-2.0,,,,delaylearn,learning,feedback_duration_window,2t3g6vygeehR4NsGOqNy1hPakyg2,2t3g6vygeehR4NsGOqNy1hPakyg2,,,,,,,,,,,,,,,,,,750.0,,,,655faeaa22964920719a77b3,17:24:26,27/03/2024
html-keyboard-response,55,95771,0.0-24.0-3.0,,<div style='margin:auto;width: auto; font-size: 150%'><span style='font-weight: bold; font-size: 100px; color: green;'>+10 points!</span><br><br></div>,,delaylearn,learning,feedback_image_window,2t3g6vygeehR4NsGOqNy1hPakyg2,2t3g6vygeehR4NsGOqNy1hPakyg2,,,,,,,,,,,,,,,,,,,,,,655faeaa22964920719a77b3,17:24:26,27/03/2024
html-keyboard-response,56,97317,0.0-25.0,,"<div style=""font-size:100px;"">+</div>",,delaylearn,learning,ITI,2t3g6vygeehR4NsGOqNy1hPakyg2,2t3g6vygeehR4NsGOqNy1hPakyg2,,,,,,,,,,,,,,,,,,,1544.0,,,655faeaa22964920719a77b3,17:24:26,27/03/2024
html-keyboard-response,57,98945,0.0-26.0-0.0,1625.5,"<div style=""display: flex; flex-direction: column; align-items: center; margin-top: -40px;""><img src=""images/pattern_4.png"" style=""width: 234px; height: 230px; margin-top: -50px;""><div style=""display: flex; justify-content: space-between; margin-top: 33px;""><img src=""images/choice_trial_4.png"" style=""width: 408px; height: 417px; margin-right: 200px;""><img src=""images/choice_trial_16.png"" style=""width: 408px; height: 417px;""></div></div>",j,delaylearn,learning,trial,2t3g6vygeehR4NsGOqNy1hPakyg2,2t3g6vygeehR4NsGOqNy1hPakyg2,2.0,images/choice_trial_4.png,images/choice_trial_16.png,images/pattern_4.png,f,f,7000.0,4.0,16.0,3.0,0.0,11.0,0.0,0.0,16.0,80.0,,,,,,655faeaa22964920719a77b3,17:24:26,27/03/2024
html-keyboard-response,58,99948,0.0-26.0-1.0,,"<div style=""display: flex; flex-direction: column; align-items: center; margin-top: -40px;""><img src=""images/pattern_4.png"" style=""width: 234px; height: 230px; margin-top: -50px;""><div style=""display: flex; justify-content: space-between; margin-top: 33px;""><img src=""images/choice_trial_16.png"" style=""width: 408px; height: 417px; margin-left:608px;""></div></div>",,delaylearn,learning,display_response,2t3g6vygeehR4NsGOqNy1hPakyg2,2t3g6vygeehR4NsGOqNy1hPakyg2,,,,,,,,,,,,,,,,,chosen stimuli: images/choice_trial_16.png,,,,,655faeaa22964920719a77b3,17:24:26,27/03/2024
html-keyboard-response,59,106951,0.0-26.0-2.0,,,,delaylearn,learning,feedback_duration_window,2t3g6vygeehR4NsGOqNy1hPakyg2,2t3g6vygeehR4NsGOqNy1hPakyg2,,,,,,,,,,,,,,,,,,7000.0,,,,655faeaa22964920719a77b3,17:24:26,27/03/2024
html-keyboard-response,60,108455,0.0-26.0-3.0,,<div style='margin:auto;width: auto; font-size: 150%'><span style='font-weight: bold; font-size: 100px; color: red;'>0 points!</span><br><br></div>,,delaylearn,learning,feedback_image_window,2t3g6vygeehR4NsGOqNy1hPakyg2,2t3g6vygeehR4NsGOqNy1hPakyg2,,,,,,,,,,,,,,,,,,,,,,655faeaa22964920719a77b3,17:24:26,27/03/2024
html-keyboard-response,61,110363,0.0-27.0,,"<div style=""font-size:100px;"">+</div>",,delaylearn,learning,ITI,2t3g6vygeehR4NsGOqNy1hPakyg2,2t3g6vygeehR4NsGOqNy1hPakyg2,,,,,,,,,,,,,,,,,,,1904.0,,,655faeaa22964920719a77b3,17:24:26,27/03/2024
html-keyboard-response,62,111552,0.0-28.0-0.0,1186.2000000476837,"<div style=""display: flex; flex-direction: column; align-items: center; margin-top: -40px;""><img src=""images/pattern_5.png"" style=""width: 234px; height: 230px; margin-top: -50px;""><div style=""display: flex; justify-content: space-between; margin-top: 33px;""><img src=""images/choice_trial_9.png"" style=""width: 408px; height: 417px; margin-right: 200px;""><img src=""images/choice_trial_2.png"" style=""width: 408px; height: 417px;""></div></div>",f,delaylearn,learning,trial,2t3g6vygeehR4NsGOqNy1hPakyg2,2t3g6vygeehR4NsGOqNy1hPakyg2,2.0,images/choice_trial_9.png,images/choice_trial_2.png,images/pattern_5.png,j,j,750.0,9.0,2.0,4.0,1.0,12.0,0.0,0.0,9.0,80.0,,,,,,655faeaa22964920719a77b3,17:24:26,27/03/2024
html-keyboard-response,63,112556,0.0-28.0-1.0,,"<div style=""display: flex; flex-direction: column; align-items: center; margin-top: -40px;""><img src=""images/pattern_5.png"" style=""width: 234px; height: 230px; margin-top: -50px;""><div style=""display: flex; justify-content: space-between; margin-top: 33px;""><img src=""images/choice_trial_9.png"" style=""width: 408px; height: 417px; margin-right: 608px;""></div></div>",,delaylearn,learning,display_response,2t3g6vygeehR4NsGOqNy1hPakyg2,2t3g6vygeehR4NsGOqNy1hPakyg2,,,,,,,,,,,,,,,,,chosen stimuli: images/choice_trial_9.png,,,,,655faeaa22964920719a77b3,17:24:26,27/03/2024
html-keyboard-response,64,113309,0.0-28.0-2.0,,,,delaylearn,learning,feedback_duration_window,2t3g6vygeehR4NsGOqNy1hPakyg2,2t3g6vygeehR4NsGOqNy1hPakyg2,,,,,,,,,,,,,,,,,,750.0,,,,655faeaa22964920719a77b3,17:24:26,27/03/2024
html-keyboard-response,65,114813,0.0-28.0-3.0,,<div style='margin:auto;width: auto; font-size: 150%'><span style='font-weight: bold; font-size: 100px; color: red;'>0 points!</span><br><br></div>,,delaylearn,learning,feedback_image_window,2t3g6vygeehR4NsGOqNy1hPakyg2,2t3g6vygeehR4NsGOqNy1hPakyg2,,,,,,,,,,,,,,,,,,,,,,655faeaa22964920719a77b3,17:24:26,27/03/2024
html-keyboard-response,66,116400,0.0-29.0,,"<div style=""font-size:100px;"">+</div>",,delaylearn,learning,ITI,2t3g6vygeehR4NsGOqNy1hPakyg2,2t3g6vygeehR4NsGOqNy1hPakyg2,,,,,,,,,,,,,,,,,,,1584.0,,,655faeaa22964920719a77b3,17:24:26,27/03/2024
html-keyboard-response,67,117771,0.0-30.0-0.0,1368.1000000238419,"<div style=""display: flex; flex-direction: column; align-items: center; margin-top: -40px;""><img src=""images/pattern_6.png"" style=""width: 234px; height: 230px; margin-top: -50px;""><div style=""display: flex; justify-content: space-between; margin-top: 33px;""><img src=""images/choice_trial_11.png"" style=""width: 408px; height: 417px; margin-right: 200px;""><img src=""images/choice_trial_5.png"" style=""width: 408px; height: 417px;""></div></div>",f,delaylearn,learning,trial,2t3g6vygeehR4NsGOqNy1hPakyg2,2t3g6vygeehR4NsGOqNy1hPakyg2,2.0,images/choice_trial_11.png,images/choice_trial_5.png,images/pattern_6.png,j,f,750.0,11.0,5.0,5.0,0.0,13.0,1.0,0.0,11.0,80.0,,,,,,655faeaa22964920719a77b3,17:24:26,27/03/2024
html-keyboard-response,68,118776,0.0-30.0-1.0,,"<div style=""display: flex; flex-direction: column; align-items: center; margin-top: -40px;""><img src=""images/pattern_6.png"" style=""width: 234px; height: 230px; margin-top: -50px;""><div style=""display: flex; justify-content: space-between; margin-top: 33px;""><img src=""images/choice_trial_11.png"" style=""width: 408px; height: 417px; margin-right: 608px;""></div></div>",,delaylearn,learning,display_response,2t3g6vygeehR4NsGOqNy1hPakyg2,2t3g6vygeehR4NsGOqNy1hPakyg2,,,,,,,,,,,,,,,,,chosen stimuli: images/choice_trial_11.png,,,,,655faeaa22964920719a77b3,17:24:26,27/03/2024
html-keyboard-response,69,119529,0.0-30.0-2.0,,,,delaylearn,learning,feedback_duration_window,2t3g6vygeehR4NsGOqNy1hPakyg2,2t3g6vygeehR4NsGOqNy1hPakyg2,,,,,,,,,,,,,,,,,,750.0,,,,655faeaa22964920719a77b3,17:24:26,27/03/2024
html-keyboard-response,70,121033,0.0-30.0-3.0,,<div style='margin:auto;width: auto; font-size: 150%'><span style='font-weight: bold; font-size: 100px; color: red;'>0 points!</span><br><br></div>,,delaylearn,learning,feedback_image_window,2t3g6vygeehR4NsGOqNy1hPakyg2,2t3g6vygeehR4NsGOqNy1hPakyg2,,,,,,,,,,,,,,,,,,,,,,655faeaa22964920719a77b3,17:24:26,27/03/2024
html-keyboard-response,71,121536,0.0-31.0-0.0,,,,,,mood_trial_fixation,2t3g6vygeehR4NsGOqNy1hPakyg2,,,,,,,,,,,,,,,,,,,,,,,655faeaa22964920719a77b3,17:24:26,27/03/2024
lmdlab-html-vas-response,72,125540,0.0-31.0-1.0,3000.0,How happy are you right now?,0.46195652173913043,delaylearn,learning,mood_trial,2t3g6vygeehR4NsGOqNy1hPakyg2,2t3g6vygeehR4NsGOqNy1hPakyg2,,,,,,,,,,,,,,,,,,,,"['Very unhappy', 'Very happy']",,655faeaa22964920719a77b3,17:24:26,27/03/2024
html-keyboard-response,73,127924,0.0-32.0,,"<div style=""font-size:100px;"">+</div>",,delaylearn,learning,ITI,2t3g6vygeehR4NsGOqNy1hPakyg2,2t3g6vygeehR4NsGOqNy1hPakyg2,,,,,,,,,,,,,,,,,,,2382.0,,,655faeaa22964920719a77b3,17:24:26,27/03/2024
html-keyboard-response,74,129016,0.0-33.0-0.0,1088.4000000357628,"<div style=""display: flex; flex-direction: column; align-items: center; margin-top: -40px;""><img src=""images/pattern_1.png"" style=""width: 234px; height: 230px; margin-top: -50px;""><div style=""display: flex; justify-content: space-between; margin-top: 33px;""><img src=""images/choice_trial_10.png"" style=""width: 408px; height: 417px; margin-right: 200px;""><img src=""images/choice_trial_3.png"" style=""width: 408px; height: 417px;""></div></div>",j,delaylearn,learning,trial,2t3g6vygeehR4NsGOqNy1hPakyg2,2t3g6vygeehR4NsGOqNy1hPakyg2,2.0,images/choice_trial_10.png,images/choice_trial_3.png,images/pattern_1.png,j,j,7000.0,10.0,3.0,1.0,1.0,14.0,1.0,1.0,3.0,90.0,,,,,,655faeaa22964920719a77b3,17:24:26,27/03/2024
html-keyboard-response,75,130020,0.0-33.0-1.0,,"<div style=""display: flex; flex-direction: column; align-items: center; margin-top: -40px;""><img src=""images/pattern_1.png"" style=""width: 234px; height: 230px; margin-top: -50px;""><div style=""display: flex; justify-content: space-between; margin-top: 33px;""><img src=""images/choice_trial_3.png"" style=""width: 408px; height: 417px; margin-left:608px;""></div></div>",,delaylearn,learning,display_response,2t3g6vygeehR4NsGOqNy1hPakyg2,2t3g6vygeehR4NsGOqNy1hPakyg2,,,,,,,,,,,,,,,,,chosen stimuli: images/choice_trial_3.png,,,,,655faeaa22964920719a77b3,17:24:26,27/03/2024
html-keyboard-response,76,137023,0.0-33.0-2.0,,,,delaylearn,learning,feedback_duration_window,2t3g6vygeehR4NsGOqNy1hPakyg2,2t3g6vygeehR4NsGOqNy1hPakyg2,,,,,,,,,,,,,,,,,,7000.0,,,,655faeaa22964920719a77b3,17:24:26,27/03/2024
html-keyboard-response,77,138526,0.0-33.0-3.0,,<div style='margin:auto;width: auto; font-size: 150%'><span style='font-weight: bold; font-size: 100px; color: green;'>+10 points!</span><br><br></div>,,delaylearn,learning,feedback_image_window,2t3g6vygeehR4NsGOqNy1hPakyg2,2t3g6vygeehR4NsGOqNy1hPakyg2,,,,,,,,,,,,,,,,,,,,,,655faeaa22964920719a77b3,17:24:26,27/03/2024
html-keyboard-response,78,140319,0.0-34.0,,"<div style=""font-size:100px;"">+</div>",,delaylearn,learning,ITI,2t3g6vygeehR4NsGOqNy1hPakyg2,2t3g6vygeehR4NsGOqNy1hPakyg2,,,,,,,,,,,,,,,,,,,1790.0,,,655faeaa22964920719a77b3,17:24:26,27/03/2024
html-keyboard-response,79,141562,0.0-35.0-0.0,1238.8999999761581,"<div style=""display: flex; flex-direction: column; align-items: center; margin-top: -40px;""><img src=""images/pattern_3.png"" style=""width: 234px; height: 230px; margin-top: -50px;""><div style=""display: flex; justify-content: space-between; margin-top: 33px;""><img src=""images/choice_trial_14.png"" style=""width: 408px; height: 417px; margin-right: 200px;""><img src=""images/choice_trial_12.png"" style=""width: 408px; height: 417px;""></div></div>",j,delaylearn,learning,trial,2t3g6vygeehR4NsGOqNy1hPakyg2,2t3g6vygeehR4NsGOqNy1hPakyg2,2.0,images/choice_trial_14.png,images/choice_trial_12.png,images/pattern_3.png,f,j,7000.0,14.0,12.0,2.0,1.0,15.0,1.0,0.0,12.0,90.0,,,,,,655faeaa22964920719a77b3,17:24:26,27/03/2024
html-keyboard-response,80,142565,0.0-35.0-1.0,,"<div style=""display: flex; flex-direction: column; align-items: center; margin-top: -40px;""><img src=""images/pattern_3.png"" style=""width: 234px; height: 230px; margin-top: -50px;""><div style=""display: flex; justify-content: space-between; margin-top: 33px;""><img src=""images/choice_trial_12.png"" style=""width: 408px; height: 417px; margin-left:608px;""></div></div>",,delaylearn,learning,display_response,2t3g6vygeehR4NsGOqNy1hPakyg2,2t3g6vygeehR4NsGOqNy1hPakyg2,,,,,,,,,,,,,,,,,chosen stimuli: images/choice_trial_12.png,,,,,655faeaa22964920719a77b3,17:24:26,27/03/2024
html-keyboard-response,81,149568,0.0-35.0-2.0,,,,delaylearn,learning,feedback_duration_window,2t3g6vygeehR4NsGOqNy1hPakyg2,2t3g6vygeehR4NsGOqNy1hPakyg2,,,,,,,,,,,,,,,,,,7000.0,,,,655faeaa22964920719a77b3,17:24:26,27/03/2024
html-keyboard-response,82,151072,0.0-35.0-3.0,,<div style='margin:auto;width: auto; font-size: 150%'><span style='font-weight: bold; font-size: 100px; color: red;'>0 points!</span><br><br></div>,,delaylearn,learning,feedback_image_window,2t3g6vygeehR4NsGOqNy1hPakyg2,2t3g6vygeehR4NsGOqNy1hPakyg2,,,,,,,,,,,,,,,,,,,,,,655faeaa22964920719a77b3,17:24:26,27/03/2024
html-keyboard-response,83,153483,0.0-36.0,,"<div style=""font-size:100px;"">+</div>",,delaylearn,learning,ITI,2t3g6vygeehR4NsGOqNy1hPakyg2,2t3g6vygeehR4NsGOqNy1hPakyg2,,,,,,,,,,,,,,,,,,,2408.0,,,655faeaa22964920719a77b3,17:24:26,27/03/2024
html-keyboard-response,84,154472,0.0-37.0-0.0,987.5999999642372,"<div style=""display: flex; flex-direction: column; align-items: center; margin-top: -40px;""><img src=""images/pattern_5.png"" style=""width: 234px; height: 230px; margin-top: -50px;""><div style=""display: flex; justify-content: space-between; margin-top: 33px;""><img src=""images/choice_trial_2.png"" style=""width: 408px; height: 417px; margin-right: 200px;""><img src=""images/choice_trial_9.png"" style=""width: 408px; height: 417px;""></div></div>",f,delaylearn,learning,trial,2t3g6vygeehR4NsGOqNy1hPakyg2,2t3g6vygeehR4NsGOqNy1hPakyg2,2.0,images/choice_trial_2.png,images/choice_trial_9.png,images/pattern_5.png,f,f,750.0,2.0,9.0,4.0,0.0,16.0,1.0,1.0,2.0,100.0,,,,,,655faeaa22964920719a77b3,17:24:26,27/03/2024
html-keyboard-response,85,155476,0.0-37.0-1.0,,"<div style=""display: flex; flex-direction: column; align-items: center; margin-top: -40px;""><img src=""images/pattern_5.png"" style=""width: 234px; height: 230px; margin-top: -50px;""><div style=""display: flex; justify-content: space-between; margin-top: 33px;""><img src=""images/choice_trial_2.png"" style=""width: 408px; height: 417px; margin-right: 608px;""></div></div>",,delaylearn,learning,display_response,2t3g6vygeehR4NsGOqNy1hPakyg2,2t3g6vygeehR4NsGOqNy1hPakyg2,,,,,,,,,,,,,,,,,chosen stimuli: images/choice_trial_2.png,,,,,655faeaa22964920719a77b3,17:24:26,27/03/2024
html-keyboard-response,86,156229,0.0-37.0-2.0,,,,delaylearn,learning,feedback_duration_window,2t3g6vygeehR4NsGOqNy1hPakyg2,2t3g6vygeehR4NsGOqNy1hPakyg2,,,,,,,,,,,,,,,,,,750.0,,,,655faeaa22964920719a77b3,17:24:26,27/03/2024
html-keyboard-response,87,157733,0.0-37.0-3.0,,<div style='margin:auto;width: auto; font-size: 150%'><span style='font-weight: bold; font-size: 100px; color: green;'>+10 points!</span><br><br></div>,,delaylearn,learning,feedback_image_window,2t3g6vygeehR4NsGOqNy1hPakyg2,2t3g6vygeehR4NsGOqNy1hPakyg2,,,,,,,,,,,,,,,,,,,,,,655faeaa22964920719a77b3,17:24:26,27/03/2024
html-keyboard-response,88,158236,0.0-38.0-0.0,,,,,,mood_trial_fixation,2t3g6vygeehR4NsGOqNy1hPakyg2,,,,,,,,,,,,,,,,,,,,,,,655faeaa22964920719a77b3,17:24:26,27/03/2024
lmdlab-html-vas-response,89,162404,0.0-38.0-1.0,3163.0,How happy are you right now?,0.5253623188405797,delaylearn,learning,mood_trial,2t3g6vygeehR4NsGOqNy1hPakyg2,2t3g6vygeehR4NsGOqNy1hPakyg2,,,,,,,,,,,,,,,,,,,,"['Very unhappy', 'Very happy']",,655faeaa22964920719a77b3,17:24:26,27/03/2024
html-keyboard-response,90,164147,0.0-39.0,,"<div style=""font-size:100px;"">+</div>",,delaylearn,learning,ITI,2t3g6vygeehR4NsGOqNy1hPakyg2,2t3g6vygeehR4NsGOqNy1hPakyg2,,,,,,,,,,,,,,,,,,,1741.0,,,655faeaa22964920719a77b3,17:24:26,27/03/2024
html-keyboard-response,91,165176,0.0-40.0-0.0,1025.5,"<div style=""display: flex; flex-direction: column; align-items: center; margin-top: -40px;""><img src=""images/pattern_6.png"" style=""width: 234px; height: 230px; margin-top: -50px;""><div style=""display: flex; justify-content: space-between; margin-top: 33px;""><img src=""images/choice_trial_11.png"" style=""width: 408px; height: 417px; margin-right: 200px;""><img src=""images/choice_trial_5.png"" style=""width: 408px; height: 417px;""></div></div>",j,delaylearn,learning,trial,2t3g6vygeehR4NsGOqNy1hPakyg2,2t3g6vygeehR4NsGOqNy1hPakyg2,2.0,images/choice_trial_11.png,images/choice_trial_5.png,images/pattern_6.png,f,f,750.0,11.0,5.0,5.0,0.0,17.0,0.0,0.0,5.0,100.0,,,,,,655faeaa22964920719a77b3,17:24:26,27/03/2024
html-keyboard-response,92,166180,0.0-40.0-1.0,,"<div style=""display: flex; flex-direction: column; align-items: center; margin-top: -40px;""><img src=""images/pattern_6.png"" style=""width: 234px; height: 230px; margin-top: -50px;""><div style=""display: flex; justify-content: space-between; margin-top: 33px;""><img src=""images/choice_trial_5.png"" style=""width: 408px; height: 417px; margin-left:608px;""></div></div>",,delaylearn,learning,display_response,2t3g6vygeehR4NsGOqNy1hPakyg2,2t3g6vygeehR4NsGOqNy1hPakyg2,,,,,,,,,,,,,,,,,chosen stimuli: images/choice_trial_5.png,,,,,655faeaa22964920719a77b3,17:24:26,27/03/2024
html-keyboard-response,93,166934,0.0-40.0-2.0,,,,delaylearn,learning,feedback_duration_window,2t3g6vygeehR4NsGOqNy1hPakyg2,2t3g6vygeehR4NsGOqNy1hPakyg2,,,,,,,,,,,,,,,,,,750.0,,,,655faeaa22964920719a77b3,17:24:26,27/03/2024
html-keyboard-response,94,168438,0.0-40.0-3.0,,<div style='margin:auto;width: auto; font-size: 150%'><span style='font-weight: bold; font-size: 100px; color: red;'>0 points!</span><br><br></div>,,delaylearn,learning,feedback_image_window,2t3g6vygeehR4NsGOqNy1hPakyg2,2t3g6vygeehR4NsGOqNy1hPakyg2,,,,,,,,,,,,,,,,,,,,,,655faeaa22964920719a77b3,17:24:26,27/03/2024
html-keyboard-response,95,170634,0.0-41.0,,"<div style=""font-size:100px;"">+</div>",,delaylearn,learning,ITI,2t3g6vygeehR4NsGOqNy1hPakyg2,2t3g6vygeehR4NsGOqNy1hPakyg2,,,,,,,,,,,,,,,,,,,2193.0,,,655faeaa22964920719a77b3,17:24:26,27/03/2024
html-keyboard-response,96,171665,0.0-42.0-0.0,1028.800000011921,"<div style=""display: flex; flex-direction: column; align-items: center; margin-top: -40px;""><img src=""images/pattern_4.png"" style=""width: 234px; height: 230px; margin-top: -50px;""><div style=""display: flex; justify-content: space-between; margin-top: 33px;""><img src=""images/choice_trial_16.png"" style=""width: 408px; height: 417px; margin-right: 200px;""><img src=""images/choice_trial_4.png"" style=""width: 408px; height: 417px;""></div></div>",f,delaylearn,learning,trial,2t3g6vygeehR4NsGOqNy1hPakyg2,2t3g6vygeehR4NsGOqNy1hPakyg2,2.0,images/choice_trial_16.png,images/choice_trial_4.png,images/pattern_4.png,j,j,7000.0,16.0,4.0,3.0,1.0,18.0,0.0,0.0,16.0,100.0,,,,,,655faeaa22964920719a77b3,17:24:26,27/03/2024
html-keyboard-response,97,172669,0.0-42.0-1.0,,"<div style=""display: flex; flex-direction: column; align-items: center; margin-top: -40px;""><img src=""images/pattern_4.png"" style=""width: 234px; height: 230px; margin-top: -50px;""><div style=""display: flex; justify-content: space-between; margin-top: 33px;""><img src=""images/choice_trial_16.png"" style=""width: 408px; height: 417px; margin-right: 608px;""></div></div>",,delaylearn,learning,display_response,2t3g6vygeehR4NsGOqNy1hPakyg2,2t3g6vygeehR4NsGOqNy1hPakyg2,,,,,,,,,,,,,,,,,chosen stimuli: images/choice_trial_16.png,,,,,655faeaa22964920719a77b3,17:24:26,27/03/2024
html-keyboard-response,98,179672,0.0-42.0-2.0,,,,delaylearn,learning,feedback_duration_window,2t3g6vygeehR4NsGOqNy1hPakyg2,2t3g6vygeehR4NsGOqNy1hPakyg2,,,,,,,,,,,,,,,,,,7000.0,,,,655faeaa22964920719a77b3,17:24:26,27/03/2024
html-keyboard-response,99,181176,0.0-42.0-3.0,,<div style='margin:auto;width: auto; font-size: 150%'><span style='font-weight: bold; font-size: 100px; color: red;'>0 points!</span><br><br></div>,,delaylearn,learning,feedback_image_window,2t3g6vygeehR4NsGOqNy1hPakyg2,2t3g6vygeehR4NsGOqNy1hPakyg2,,,,,,,,,,,,,,,,,,,,,,655faeaa22964920719a77b3,17:24:26,27/03/2024
html-keyboard-response,100,182794,0.0-43.0,,"<div style=""font-size:100px;"">+</div>",,delaylearn,learning,ITI,2t3g6vygeehR4NsGOqNy1hPakyg2,2t3g6vygeehR4NsGOqNy1hPakyg2,,,,,,,,,,,,,,,,,,,1615.0,,,655faeaa22964920719a77b3,17:24:26,27/03/2024
html-keyboard-response,101,183937,0.0-44.0-0.0,1139.9000000357628,"<div style=""display: flex; flex-direction: column; align-items: center; margin-top: -40px;""><img src=""images/pattern_7.png"" style=""width: 234px; height: 230px; margin-top: -50px;""><div style=""display: flex; justify-content: space-between; margin-top: 33px;""><img src=""images/choice_trial_8.png"" style=""width: 408px; height: 417px; margin-right: 200px;""><img src=""images/choice_trial_15.png"" style=""width: 408px; height: 417px;""></div></div>",f,delaylearn,learning,trial,2t3g6vygeehR4NsGOqNy1hPakyg2,2t3g6vygeehR4NsGOqNy1hPakyg2,2.0,images/choice_trial_8.png,images/choice_trial_15.png,images/pattern_7.png,j,f,750.0,8.0,15.0,6.0,0.0,19.0,1.0,0.0,8.0,100.0,,,,,,655faeaa22964920719a77b3,17:24:26,27/03/2024
html-keyboard-response,102,184940,0.0-44.0-1.0,,"<div style=""display: flex; flex-direction: column; align-items: center; margin-top: -40px;""><img src=""images/pattern_7.png"" style=""width: 234px; height: 230px; margin-top: -50px;""><div style=""display: flex; justify-content: space-between; margin-top: 33px;""><img src=""images/choice_trial_8.png"" style=""width: 408px; height: 417px; margin-right: 608px;""></div></div>",,delaylearn,learning,display_response,2t3g6vygeehR4NsGOqNy1hPakyg2,2t3g6vygeehR4NsGOqNy1hPakyg2,,,,,,,,,,,,,,,,,chosen stimuli: images/choice_trial_8.png,,,,,655faeaa22964920719a77b3,17:24:26,27/03/2024
html-keyboard-response,103,185694,0.0-44.0-2.0,,,,delaylearn,learning,feedback_duration_window,2t3g6vygeehR4NsGOqNy1hPakyg2,2t3g6vygeehR4NsGOqNy1hPakyg2,,,,,,,,,,,,,,,,,,750.0,,,,655faeaa22964920719a77b3,17:24:26,27/03/2024
html-keyboard-response,104,187198,0.0-44.0-3.0,,<div style='margin:auto;width: auto; font-size: 150%'><span style='font-weight: bold; font-size: 100px; color: red;'>0 points!</span><br><br></div>,,delaylearn,learning,feedback_image_window,2t3g6vygeehR4NsGOqNy1hPakyg2,2t3g6vygeehR4NsGOqNy1hPakyg2,,,,,,,,,,,,,,,,,,,,,,655faeaa22964920719a77b3,17:24:26,27/03/2024
html-keyboard-response,105,189334,0.0-45.0,,"<div style=""font-size:100px;"">+</div>",,delaylearn,learning,ITI,2t3g6vygeehR4NsGOqNy1hPakyg2,2t3g6vygeehR4NsGOqNy1hPakyg2,,,,,,,,,,,,,,,,,,,2133.0,,,655faeaa22964920719a77b3,17:24:26,27/03/2024
html-keyboard-response,106,190485,0.0-46.0-0.0,1147.800000011921,"<div style=""display: flex; flex-direction: column; align-items: center; margin-top: -40px;""><img src=""images/pattern_1.png"" style=""width: 234px; height: 230px; margin-top: -50px;""><div style=""display: flex; justify-content: space-between; margin-top: 33px;""><img src=""images/choice_trial_3.png"" style=""width: 408px; height: 417px; margin-right: 200px;""><img src=""images/choice_trial_10.png"" style=""width: 408px; height: 417px;""></div></div>",f,delaylearn,learning,trial,2t3g6vygeehR4NsGOqNy1hPakyg2,2t3g6vygeehR4NsGOqNy1hPakyg2,2.0,images/choice_trial_3.png,images/choice_trial_10.png,images/pattern_1.png,f,f,7000.0,3.0,10.0,1.0,0.0,20.0,1.0,1.0,3.0,110.0,,,,,,655faeaa22964920719a77b3,17:24:26,27/03/2024
html-keyboard-response,107,191489,0.0-46.0-1.0,,"<div style=""display: flex; flex-direction: column; align-items: center; margin-top: -40px;""><img src=""images/pattern_1.png"" style=""width: 234px; height: 230px; margin-top: -50px;""><div style=""display: flex; justify-content: space-between; margin-top: 33px;""><img src=""images/choice_trial_3.png"" style=""width: 408px; height: 417px; margin-right: 608px;""></div></div>",,delaylearn,learning,display_response,2t3g6vygeehR4NsGOqNy1hPakyg2,2t3g6vygeehR4NsGOqNy1hPakyg2,,,,,,,,,,,,,,,,,chosen stimuli: images/choice_trial_3.png,,,,,655faeaa22964920719a77b3,17:24:26,27/03/2024
html-keyboard-response,108,198492,0.0-46.0-2.0,,,,delaylearn,learning,feedback_duration_window,2t3g6vygeehR4NsGOqNy1hPakyg2,2t3g6vygeehR4NsGOqNy1hPakyg2,,,,,,,,,,,,,,,,,,7000.0,,,,655faeaa22964920719a77b3,17:24:26,27/03/2024
html-keyboard-response,109,199996,0.0-46.0-3.0,,<div style='margin:auto;width: auto; font-size: 150%'><span style='font-weight: bold; font-size: 100px; color: green;'>+10 points!</span><br><br></div>,,delaylearn,learning,feedback_image_window,2t3g6vygeehR4NsGOqNy1hPakyg2,2t3g6vygeehR4NsGOqNy1hPakyg2,,,,,,,,,,,,,,,,,,,,,,655faeaa22964920719a77b3,17:24:26,27/03/2024
html-keyboard-response,110,201553,0.0-47.0,,"<div style=""font-size:100px;"">+</div>",,delaylearn,learning,ITI,2t3g6vygeehR4NsGOqNy1hPakyg2,2t3g6vygeehR4NsGOqNy1hPakyg2,,,,,,,,,,,,,,,,,,,1554.0,,,655faeaa22964920719a77b3,17:24:26,27/03/2024
html-keyboard-response,111,202988,0.0-48.0-0.0,1432.0,"<div style=""display: flex; flex-direction: column; align-items: center; margin-top: -40px;""><img src=""images/pattern_6.png"" style=""width: 234px; height: 230px; margin-top: -50px;""><div style=""display: flex; justify-content: space-between; margin-top: 33px;""><img src=""images/choice_trial_5.png"" style=""width: 408px; height: 417px; margin-right: 200px;""><img src=""images/choice_trial_11.png"" style=""width: 408px; height: 417px;""></div></div>",j,delaylearn,learning,trial,2t3g6vygeehR4NsGOqNy1hPakyg2,2t3g6vygeehR4NsGOqNy1hPakyg2,2.0,images/choice_trial_5.png,images/choice_trial_11.png,images/pattern_6.png,j,j,750.0,5.0,11.0,5.0,1.0,21.0,1.0,1.0,11.0,120.0,,,,,,655faeaa22964920719a77b3,17:24:26,27/03/2024
html-keyboard-response,112,203991,0.0-48.0-1.0,,"<div style=""display: flex; flex-direction: column; align-items: center; margin-top: -40px;""><img src=""images/pattern_6.png"" style=""width: 234px; height: 230px; margin-top: -50px;""><div style=""display: flex; justify-content: space-between; margin-top: 33px;""><img src=""images/choice_trial_11.png"" style=""width: 408px; height: 417px; margin-left:608px;""></div></div>",,delaylearn,learning,display_response,2t3g6vygeehR4NsGOqNy1hPakyg2,2t3g6vygeehR4NsGOqNy1hPakyg2,,,,,,,,,,,,,,,,,chosen stimuli: images/choice_trial_11.png,,,,,655faeaa22964920719a77b3,17:24:26,27/03/2024
html-keyboard-response,113,204743,0.0-48.0-2.0,,,,delaylearn,learning,feedback_duration_window,2t3g6vygeehR4NsGOqNy1hPakyg2,2t3g6vygeehR4NsGOqNy1hPakyg2,,,,,,,,,,,,,,,,,,750.0,,,,655faeaa22964920719a77b3,17:24:26,27/03/2024
html-keyboard-response,114,206247,0.0-48.0-3.0,,<div style='margin:auto;width: auto; font-size: 150%'><span style='font-weight: bold; font-size: 100px; color: green;'>+10 points!</span><br><br></div>,,delaylearn,learning,feedback_image_window,2t3g6vygeehR4NsGOqNy1hPakyg2,2t3g6vygeehR4NsGOqNy1hPakyg2,,,,,,,,,,,,,,,,,,,,,,655faeaa22964920719a77b3,17:24:26,27/03/2024
html-keyboard-response,115,208526,0.0-49.0,,"<div style=""font-size:100px;"">+</div>",,delaylearn,learning,ITI,2t3g6vygeehR4NsGOqNy1hPakyg2,2t3g6vygeehR4NsGOqNy1hPakyg2,,,,,,,,,,,,,,,,,,,2276.0,,,655faeaa22964920719a77b3,17:24:26,27/03/2024
html-keyboard-response,116,209213,0.0-50.0-0.0,683.6999999880791,"<div style=""display: flex; flex-direction: column; align-items: center; margin-top: -40px;""><img src=""images/pattern_4.png"" style=""width: 234px; height: 230px; margin-top: -50px;""><div style=""display: flex; justify-content: space-between; margin-top: 33px;""><img src=""images/choice_trial_4.png"" style=""width: 408px; height: 417px; margin-right: 200px;""><img src=""images/choice_trial_16.png"" style=""width: 408px; height: 417px;""></div></div>",f,delaylearn,learning,trial,2t3g6vygeehR4NsGOqNy1hPakyg2,2t3g6vygeehR4NsGOqNy1hPakyg2,2.0,images/choice_trial_4.png,images/choice_trial_16.png,images/pattern_4.png,f,f,7000.0,4.0,16.0,3.0,0.0,22.0,1.0,1.0,4.0,130.0,,,,,,655faeaa22964920719a77b3,17:24:26,27/03/2024
html-keyboard-response,117,210217,0.0-50.0-1.0,,"<div style=""display: flex; flex-direction: column; align-items: center; margin-top: -40px;""><img src=""images/pattern_4.png"" style=""width: 234px; height: 230px; margin-top: -50px;""><div style=""display: flex; justify-content: space-between; margin-top: 33px;""><img src=""images/choice_trial_4.png"" style=""width: 408px; height: 417px; margin-right: 608px;""></div></div>",,delaylearn,learning,display_response,2t3g6vygeehR4NsGOqNy1hPakyg2,2t3g6vygeehR4NsGOqNy1hPakyg2,,,,,,,,,,,,,,,,,chosen stimuli: images/choice_trial_4.png,,,,,655faeaa22964920719a77b3,17:24:26,27/03/2024
html-keyboard-response,118,217220,0.0-50.0-2.0,,,,delaylearn,learning,feedback_duration_window,2t3g6vygeehR4NsGOqNy1hPakyg2,2t3g6vygeehR4NsGOqNy1hPakyg2,,,,,,,,,,,,,,,,,,7000.0,,,,655faeaa22964920719a77b3,17:24:26,27/03/2024
html-keyboard-response,119,218724,0.0-50.0-3.0,,<div style='margin:auto;width: auto; font-size: 150%'><span style='font-weight: bold; font-size: 100px; color: green;'>+10 points!</span><br><br></div>,,delaylearn,learning,feedback_image_window,2t3g6vygeehR4NsGOqNy1hPakyg2,2t3g6vygeehR4NsGOqNy1hPakyg2,,,,,,,,,,,,,,,,,,,,,,655faeaa22964920719a77b3,17:24:26,27/03/2024
html-keyboard-response,120,219225,0.0-51.0-0.0,,,,,,mood_trial_fixation,2t3g6vygeehR4NsGOqNy1hPakyg2,,,,,,,,,,,,,,,,,,,,,,,655faeaa22964920719a77b3,17:24:26,27/03/2024
lmdlab-html-vas-response,121,222924,0.0-51.0-1.0,2693.0,How happy are you right now?,0.5163043478260869,delaylearn,learning,mood_trial,2t3g6vygeehR4NsGOqNy1hPakyg2,2t3g6vygeehR4NsGOqNy1hPakyg2,,,,,,,,,,,,,,,,,,,,"['Very unhappy', 'Very happy']",,655faeaa22964920719a77b3,17:24:26,27/03/2024
html-keyboard-response,122,224892,0.0-52.0,,"<div style=""font-size:100px;"">+</div>",,delaylearn,learning,ITI,2t3g6vygeehR4NsGOqNy1hPakyg2,2t3g6vygeehR4NsGOqNy1hPakyg2,,,,,,,,,,,,,,,,,,,1966.0,,,655faeaa22964920719a77b3,17:24:26,27/03/2024
html-keyboard-response,123,226526,0.0-53.0-0.0,1629.8999999761581,"<div style=""display: flex; flex-direction: column; align-items: center; margin-top: -40px;""><img src=""images/pattern_7.png"" style=""width: 234px; height: 230px; margin-top: -50px;""><div style=""display: flex; justify-content: space-between; margin-top: 33px;""><img src=""images/choice_trial_15.png"" style=""width: 408px; height: 417px; margin-right: 200px;""><img src=""images/choice_trial_8.png"" style=""width: 408px; height: 417px;""></div></div>",j,delaylearn,learning,trial,2t3g6vygeehR4NsGOqNy1hPakyg2,2t3g6vygeehR4NsGOqNy1hPakyg2,2.0,images/choice_trial_15.png,images/choice_trial_8.png,images/pattern_7.png,j,j,750.0,15.0,8.0,6.0,1.0,23.0,1.0,1.0,8.0,140.0,,,,,,655faeaa22964920719a77b3,17:24:26,27/03/2024
html-keyboard-response,124,227530,0.0-53.0-1.0,,"<div style=""display: flex; flex-direction: column; align-items: center; margin-top: -40px;""><img src=""images/pattern_7.png"" style=""width: 234px; height: 230px; margin-top: -50px;""><div style=""display: flex; justify-content: space-between; margin-top: 33px;""><img src=""images/choice_trial_8.png"" style=""width: 408px; height: 417px; margin-left:608px;""></div></div>",,delaylearn,learning,display_response,2t3g6vygeehR4NsGOqNy1hPakyg2,2t3g6vygeehR4NsGOqNy1hPakyg2,,,,,,,,,,,,,,,,,chosen stimuli: images/choice_trial_8.png,,,,,655faeaa22964920719a77b3,17:24:26,27/03/2024
html-keyboard-response,125,228283,0.0-53.0-2.0,,,,delaylearn,learning,feedback_duration_window,2t3g6vygeehR4NsGOqNy1hPakyg2,2t3g6vygeehR4NsGOqNy1hPakyg2,,,,,,,,,,,,,,,,,,750.0,,,,655faeaa22964920719a77b3,17:24:26,27/03/2024
html-keyboard-response,126,229787,0.0-53.0-3.0,,<div style='margin:auto;width: auto; font-size: 150%'><span style='font-weight: bold; font-size: 100px; color: green;'>+10 points!</span><br><br></div>,,delaylearn,learning,feedback_image_window,2t3g6vygeehR4NsGOqNy1hPakyg2,2t3g6vygeehR4NsGOqNy1hPakyg2,,,,,,,,,,,,,,,,,,,,,,655faeaa22964920719a77b3,17:24:26,27/03/2024
html-keyboard-response,127,232229,0.0-54.0,,"<div style=""font-size:100px;"">+</div>",,delaylearn,learning,ITI,2t3g6vygeehR4NsGOqNy1hPakyg2,2t3g6vygeehR4NsGOqNy1hPakyg2,,,,,,,,,,,,,,,,,,,2439.0,,,655faeaa22964920719a77b3,17:24:26,27/03/2024
html-keyboard-response,128,233265,0.0-55.0-0.0,1033.0,"<div style=""display: flex; flex-direction: column; align-items: center; margin-top: -40px;""><img src=""images/pattern_1.png"" style=""width: 234px; height: 230px; margin-top: -50px;""><div style=""display: flex; justify-content: space-between; margin-top: 33px;""><img src=""images/choice_trial_10.png"" style=""width: 408px; height: 417px; margin-right: 200px;""><img src=""images/choice_trial_3.png"" style=""width: 408px; height: 417px;""></div></div>",j,delaylearn,learning,trial,2t3g6vygeehR4NsGOqNy1hPakyg2,2t3g6vygeehR4NsGOqNy1hPakyg2,2.0,images/choice_trial_10.png,images/choice_trial_3.png,images/pattern_1.png,f,j,7000.0,10.0,3.0,1.0,1.0,24.0,1.0,0.0,3.0,140.0,,,,,,655faeaa22964920719a77b3,17:24:26,27/03/2024
html-keyboard-response,129,234269,0.0-55.0-1.0,,"<div style=""display: flex; flex-direction: column; align-items: center; margin-top: -40px;""><img src=""images/pattern_1.png"" style=""width: 234px; height: 230px; margin-top: -50px;""><div style=""display: flex; justify-content: space-between; margin-top: 33px;""><img src=""images/choice_trial_3.png"" style=""width: 408px; height: 417px; margin-left:608px;""></div></div>",,delaylearn,learning,display_response,2t3g6vygeehR4NsGOqNy1hPakyg2,2t3g6vygeehR4NsGOqNy1hPakyg2,,,,,,,,,,,,,,,,,chosen stimuli: images/choice_trial_3.png,,,,,655faeaa22964920719a77b3,17:24:26,27/03/2024
html-keyboard-response,130,241272,0.0-55.0-2.0,,,,delaylearn,learning,feedback_duration_window,2t3g6vygeehR4NsGOqNy1hPakyg2,2t3g6vygeehR4NsGOqNy1hPakyg2,,,,,,,,,,,,,,,,,,7000.0,,,,655faeaa22964920719a77b3,17:24:26,27/03/2024
html-keyboard-response,131,242776,0.0-55.0-3.0,,<div style='margin:auto;width: auto; font-size: 150%'><span style='font-weight: bold; font-size: 100px; color: red;'>0 points!</span><br><br></div>,,delaylearn,learning,feedback_image_window,2t3g6vygeehR4NsGOqNy1hPakyg2,2t3g6vygeehR4NsGOqNy1hPakyg2,,,,,,,,,,,,,,,,,,,,,,655faeaa22964920719a77b3,17:24:26,27/03/2024
html-keyboard-response,132,245253,0.0-56.0,,"<div style=""font-size:100px;"">+</div>",,delaylearn,learning,ITI,2t3g6vygeehR4NsGOqNy1hPakyg2,2t3g6vygeehR4NsGOqNy1hPakyg2,,,,,,,,,,,,,,,,,,,2473.0,,,655faeaa22964920719a77b3,17:24:26,27/03/2024
html-keyboard-response,133,246238,0.0-57.0-0.0,981.6000000238419,"<div style=""display: flex; flex-direction: column; align-items: center; margin-top: -40px;""><img src=""images/pattern_5.png"" style=""width: 234px; height: 230px; margin-top: -50px;""><div style=""display: flex; justify-content: space-between; margin-top: 33px;""><img src=""images/choice_trial_9.png"" style=""width: 408px; height: 417px; margin-right: 200px;""><img src=""images/choice_trial_2.png"" style=""width: 408px; height: 417px;""></div></div>",f,delaylearn,learning,trial,2t3g6vygeehR4NsGOqNy1hPakyg2,2t3g6vygeehR4NsGOqNy1hPakyg2,2.0,images/choice_trial_9.png,images/choice_trial_2.png,images/pattern_5.png,j,j,750.0,9.0,2.0,4.0,1.0,25.0,0.0,0.0,9.0,140.0,,,,,,655faeaa22964920719a77b3,17:24:26,27/03/2024
html-keyboard-response,134,247242,0.0-57.0-1.0,,"<div style=""display: flex; flex-direction: column; align-items: center; margin-top: -40px;""><img src=""images/pattern_5.png"" style=""width: 234px; height: 230px; margin-top: -50px;""><div style=""display: flex; justify-content: space-between; margin-top: 33px;""><img src=""images/choice_trial_9.png"" style=""width: 408px; height: 417px; margin-right: 608px;""></div></div>",,delaylearn,learning,display_response,2t3g6vygeehR4NsGOqNy1hPakyg2,2t3g6vygeehR4NsGOqNy1hPakyg2,,,,,,,,,,,,,,,,,chosen stimuli: images/choice_trial_9.png,,,,,655faeaa22964920719a77b3,17:24:26,27/03/2024
html-keyboard-response,135,247995,0.0-57.0-2.0,,,,delaylearn,learning,feedback_duration_window,2t3g6vygeehR4NsGOqNy1hPakyg2,2t3g6vygeehR4NsGOqNy1hPakyg2,,,,,,,,,,,,,,,,,,750.0,,,,655faeaa22964920719a77b3,17:24:26,27/03/2024
html-keyboard-response,136,249499,0.0-57.0-3.0,,<div style='margin:auto;width: auto; font-size: 150%'><span style='font-weight: bold; font-size: 100px; color: red;'>0 points!</span><br><br></div>,,delaylearn,learning,feedback_image_window,2t3g6vygeehR4NsGOqNy1hPakyg2,2t3g6vygeehR4NsGOqNy1hPakyg2,,,,,,,,,,,,,,,,,,,,,,655faeaa22964920719a77b3,17:24:26,27/03/2024
html-keyboard-response,137,251579,0.0-58.0,,"<div style=""font-size:100px;"">+</div>",,delaylearn,learning,ITI,2t3g6vygeehR4NsGOqNy1hPakyg2,2t3g6vygeehR4NsGOqNy1hPakyg2,,,,,,,,,,,,,,,,,,,2077.0,,,655faeaa22964920719a77b3,17:24:26,27/03/2024
html-keyboard-response,138,252778,0.0-59.0-0.0,1195.7000000476837,"<div style=""display: flex; flex-direction: column; align-items: center; margin-top: -40px;""><img src=""images/pattern_3.png"" style=""width: 234px; height: 230px; margin-top: -50px;""><div style=""display: flex; justify-content: space-between; margin-top: 33px;""><img src=""images/choice_trial_14.png"" style=""width: 408px; height: 417px; margin-right: 200px;""><img src=""images/choice_trial_12.png"" style=""width: 408px; height: 417px;""></div></div>",j,delaylearn,learning,trial,2t3g6vygeehR4NsGOqNy1hPakyg2,2t3g6vygeehR4NsGOqNy1hPakyg2,2.0,images/choice_trial_14.png,images/choice_trial_12.png,images/pattern_3.png,j,j,7000.0,14.0,12.0,2.0,1.0,26.0,1.0,1.0,12.0,150.0,,,,,,655faeaa22964920719a77b3,17:24:26,27/03/2024
html-keyboard-response,139,253781,0.0-59.0-1.0,,"<div style=""display: flex; flex-direction: column; align-items: center; margin-top: -40px;""><img src=""images/pattern_3.png"" style=""width: 234px; height: 230px; margin-top: -50px;""><div style=""display: flex; justify-content: space-between; margin-top: 33px;""><img src=""images/choice_trial_12.png"" style=""width: 408px; height: 417px; margin-left:608px;""></div></div>",,delaylearn,learning,display_response,2t3g6vygeehR4NsGOqNy1hPakyg2,2t3g6vygeehR4NsGOqNy1hPakyg2,,,,,,,,,,,,,,,,,chosen stimuli: images/choice_trial_12.png,,,,,655faeaa22964920719a77b3,17:24:26,27/03/2024
html-keyboard-response,140,260784,0.0-59.0-2.0,,,,delaylearn,learning,feedback_duration_window,2t3g6vygeehR4NsGOqNy1hPakyg2,2t3g6vygeehR4NsGOqNy1hPakyg2,,,,,,,,,,,,,,,,,,7000.0,,,,655faeaa22964920719a77b3,17:24:26,27/03/2024
html-keyboard-response,141,262287,0.0-59.0-3.0,,<div style='margin:auto;width: auto; font-size: 150%'><span style='font-weight: bold; font-size: 100px; color: green;'>+10 points!</span><br><br></div>,,delaylearn,learning,feedback_image_window,2t3g6vygeehR4NsGOqNy1hPakyg2,2t3g6vygeehR4NsGOqNy1hPakyg2,,,,,,,,,,,,,,,,,,,,,,655faeaa22964920719a77b3,17:24:26,27/03/2024
lmdlab-html-vas-response,142,268754,0.0-60.0-0.0,4956.0,*How <b><u>confident</u></b> are you feeling about your answers at this moment?*,0.29528985507246375,rewlearn,rate_confidence,,2t3g6vygeehR4NsGOqNy1hPakyg2,2t3g6vygeehR4NsGOqNy1hPakyg2,,,,,,,,,,,,,,,,,,,,"['No confidence', 'Complete confidence']",,655faeaa22964920719a77b3,17:24:26,27/03/2024
lmdlab-rest-trial-limit,143,274355,0.0-60.0-1.0,4097.300000011921,"<div style=""font-size:40px;""><b>Please take a break!</b><br><br><br><br><p>Great work: you earned 150 points.<br><br><br><p>You have completed part(s) 1 of 5.<br><br><br><br>When you are ready to continue<br><br><br>please click the button.</p><br><br>",0,delaylearn,learning,break,2t3g6vygeehR4NsGOqNy1hPakyg2,2t3g6vygeehR4NsGOqNy1hPakyg2,,,,,,,,,,,,,,,,,,,,,0.0,655faeaa22964920719a77b3,17:24:26,27/03/2024
html-keyboard-response,144,277358,0.0-60.0-2.0,,"<div style=""font-size:100px;"">+</div>",,delaylearn,learning,pre_fixation,2t3g6vygeehR4NsGOqNy1hPakyg2,,,,,,,,,,,,,,,,,,,,,,,655faeaa22964920719a77b3,17:24:26,27/03/2024
lmdlab-html-vas-response,145,281454,0.0-60.0-3.0-0.0,3090.0,How happy are you right now?,0.5489130434782609,delaylearn,learning,mood_baseline,2t3g6vygeehR4NsGOqNy1hPakyg2,2t3g6vygeehR4NsGOqNy1hPakyg2,,,,,,,,,,,,,,,,,,,,"['Very unhappy', 'Very happy']",,655faeaa22964920719a77b3,17:24:26,27/03/2024
html-keyboard-response,146,282957,0.0-60.0-3.0-1.0,,,,,,mood_baseline_fixation,2t3g6vygeehR4NsGOqNy1hPakyg2,,,,,,,,,,,,,,,,,,,,,,,655faeaa22964920719a77b3,17:24:26,27/03/2024
html-keyboard-response,147,285010,0.0-61.0,,"<div style=""font-size:100px;"">+</div>",,delaylearn,learning,ITI,2t3g6vygeehR4NsGOqNy1hPakyg2,2t3g6vygeehR4NsGOqNy1hPakyg2,,,,,,,,,,,,,,,,,,,2050.0,,,655faeaa22964920719a77b3,17:24:26,27/03/2024
html-keyboard-response,148,285806,0.0-62.0-0.0,791.5,"<div style=""display: flex; flex-direction: column; align-items: center; margin-top: -40px;""><img src=""images/pattern_7.png"" style=""width: 234px; height: 230px; margin-top: -50px;""><div style=""display: flex; justify-content: space-between; margin-top: 33px;""><img src=""images/choice_trial_15.png"" style=""width: 408px; height: 417px; margin-right: 200px;""><img src=""images/choice_trial_8.png"" style=""width: 408px; height: 417px;""></div></div>",j,delaylearn,learning,trial,2t3g6vygeehR4NsGOqNy1hPakyg2,2t3g6vygeehR4NsGOqNy1hPakyg2,2.0,images/choice_trial_15.png,images/choice_trial_8.png,images/pattern_7.png,j,j,750.0,15.0,8.0,6.0,1.0,27.0,1.0,1.0,8.0,160.0,,,,,,655faeaa22964920719a77b3,17:24:26,27/03/2024
html-keyboard-response,149,286810,0.0-62.0-1.0,,"<div style=""display: flex; flex-direction: column; align-items: center; margin-top: -40px;""><img src=""images/pattern_7.png"" style=""width: 234px; height: 230px; margin-top: -50px;""><div style=""display: flex; justify-content: space-between; margin-top: 33px;""><img src=""images/choice_trial_8.png"" style=""width: 408px; height: 417px; margin-left:608px;""></div></div>",,delaylearn,learning,display_response,2t3g6vygeehR4NsGOqNy1hPakyg2,2t3g6vygeehR4NsGOqNy1hPakyg2,,,,,,,,,,,,,,,,,chosen stimuli: images/choice_trial_8.png,,,,,655faeaa22964920719a77b3,17:24:26,27/03/2024
html-keyboard-response,150,287564,0.0-62.0-2.0,,,,delaylearn,learning,feedback_duration_window,2t3g6vygeehR4NsGOqNy1hPakyg2,2t3g6vygeehR4NsGOqNy1hPakyg2,,,,,,,,,,,,,,,,,,750.0,,,,655faeaa22964920719a77b3,17:24:26,27/03/2024
html-keyboard-response,151,289067,0.0-62.0-3.0,,<div style='margin:auto;width: auto; font-size: 150%'><span style='font-weight: bold; font-size: 100px; color: green;'>+10 points!</span><br><br></div>,,delaylearn,learning,feedback_image_window,2t3g6vygeehR4NsGOqNy1hPakyg2,2t3g6vygeehR4NsGOqNy1hPakyg2,,,,,,,,,,,,,,,,,,,,,,655faeaa22964920719a77b3,17:24:26,27/03/2024
html-keyboard-response,152,289570,0.0-63.0-0.0,,,,,,mood_trial_fixation,2t3g6vygeehR4NsGOqNy1hPakyg2,,,,,,,,,,,,,,,,,,,,,,,655faeaa22964920719a77b3,17:24:26,27/03/2024
lmdlab-html-vas-response,153,293255,0.0-63.0-1.0,2679.0,How happy are you right now?,0.605072463768116,delaylearn,learning,mood_trial,2t3g6vygeehR4NsGOqNy1hPakyg2,2t3g6vygeehR4NsGOqNy1hPakyg2,,,,,,,,,,,,,,,,,,,,"['Very unhappy', 'Very happy']",,655faeaa22964920719a77b3,17:24:26,27/03/2024
html-keyboard-response,154,295693,0.0-64.0,,"<div style=""font-size:100px;"">+</div>",,delaylearn,learning,ITI,2t3g6vygeehR4NsGOqNy1hPakyg2,2t3g6vygeehR4NsGOqNy1hPakyg2,,,,,,,,,,,,,,,,,,,2435.0,,,655faeaa22964920719a77b3,17:24:26,27/03/2024
html-keyboard-response,155,296590,0.0-65.0-0.0,893.3999999761581,"<div style=""display: flex; flex-direction: column; align-items: center; margin-top: -40px;""><img src=""images/pattern_1.png"" style=""width: 234px; height: 230px; margin-top: -50px;""><div style=""display: flex; justify-content: space-between; margin-top: 33px;""><img src=""images/choice_trial_3.png"" style=""width: 408px; height: 417px; margin-right: 200px;""><img src=""images/choice_trial_10.png"" style=""width: 408px; height: 417px;""></div></div>",j,delaylearn,learning,trial,2t3g6vygeehR4NsGOqNy1hPakyg2,2t3g6vygeehR4NsGOqNy1hPakyg2,2.0,images/choice_trial_3.png,images/choice_trial_10.png,images/pattern_1.png,f,f,7000.0,3.0,10.0,1.0,0.0,28.0,0.0,0.0,10.0,160.0,,,,,,655faeaa22964920719a77b3,17:24:26,27/03/2024
html-keyboard-response,156,297594,0.0-65.0-1.0,,"<div style=""display: flex; flex-direction: column; align-items: center; margin-top: -40px;""><img src=""images/pattern_1.png"" style=""width: 234px; height: 230px; margin-top: -50px;""><div style=""display: flex; justify-content: space-between; margin-top: 33px;""><img src=""images/choice_trial_10.png"" style=""width: 408px; height: 417px; margin-left:608px;""></div></div>",,delaylearn,learning,display_response,2t3g6vygeehR4NsGOqNy1hPakyg2,2t3g6vygeehR4NsGOqNy1hPakyg2,,,,,,,,,,,,,,,,,chosen stimuli: images/choice_trial_10.png,,,,,655faeaa22964920719a77b3,17:24:26,27/03/2024
html-keyboard-response,157,304597,0.0-65.0-2.0,,,,delaylearn,learning,feedback_duration_window,2t3g6vygeehR4NsGOqNy1hPakyg2,2t3g6vygeehR4NsGOqNy1hPakyg2,,,,,,,,,,,,,,,,,,7000.0,,,,655faeaa22964920719a77b3,17:24:26,27/03/2024
html-keyboard-response,158,306102,0.0-65.0-3.0,,<div style='margin:auto;width: auto; font-size: 150%'><span style='font-weight: bold; font-size: 100px; color: red;'>0 points!</span><br><br></div>,,delaylearn,learning,feedback_image_window,2t3g6vygeehR4NsGOqNy1hPakyg2,2t3g6vygeehR4NsGOqNy1hPakyg2,,,,,,,,,,,,,,,,,,,,,,655faeaa22964920719a77b3,17:24:26,27/03/2024
html-keyboard-response,159,308522,0.0-66.0,,"<div style=""font-size:100px;"">+</div>",,delaylearn,learning,ITI,2t3g6vygeehR4NsGOqNy1hPakyg2,2t3g6vygeehR4NsGOqNy1hPakyg2,,,,,,,,,,,,,,,,,,,2417.0,,,655faeaa22964920719a77b3,17:24:26,27/03/2024
html-keyboard-response,160,309484,0.0-67.0-0.0,958.5999999642372,"<div style=""display: flex; flex-direction: column; align-items: center; margin-top: -40px;""><img src=""images/pattern_5.png"" style=""width: 234px; height: 230px; margin-top: -50px;""><div style=""display: flex; justify-content: space-between; margin-top: 33px;""><img src=""images/choice_trial_2.png"" style=""width: 408px; height: 417px; margin-right: 200px;""><img src=""images/choice_trial_9.png"" style=""width: 408px; height: 417px;""></div></div>",f,delaylearn,learning,trial,2t3g6vygeehR4NsGOqNy1hPakyg2,2t3g6vygeehR4NsGOqNy1hPakyg2,2.0,images/choice_trial_2.png,images/choice_trial_9.png,images/pattern_5.png,f,f,750.0,2.0,9.0,4.0,0.0,29.0,1.0,1.0,2.0,170.0,,,,,,655faeaa22964920719a77b3,17:24:26,27/03/2024
html-keyboard-response,161,310487,0.0-67.0-1.0,,"<div style=""display: flex; flex-direction: column; align-items: center; margin-top: -40px;""><img src=""images/pattern_5.png"" style=""width: 234px; height: 230px; margin-top: -50px;""><div style=""display: flex; justify-content: space-between; margin-top: 33px;""><img src=""images/choice_trial_2.png"" style=""width: 408px; height: 417px; margin-right: 608px;""></div></div>",,delaylearn,learning,display_response,2t3g6vygeehR4NsGOqNy1hPakyg2,2t3g6vygeehR4NsGOqNy1hPakyg2,,,,,,,,,,,,,,,,,chosen stimuli: images/choice_trial_2.png,,,,,655faeaa22964920719a77b3,17:24:26,27/03/2024
html-keyboard-response,162,311240,0.0-67.0-2.0,,,,delaylearn,learning,feedback_duration_window,2t3g6vygeehR4NsGOqNy1hPakyg2,2t3g6vygeehR4NsGOqNy1hPakyg2,,,,,,,,,,,,,,,,,,750.0,,,,655faeaa22964920719a77b3,17:24:26,27/03/2024
html-keyboard-response,163,312744,0.0-67.0-3.0,,<div style='margin:auto;width: auto; font-size: 150%'><span style='font-weight: bold; font-size: 100px; color: green;'>+10 points!</span><br><br></div>,,delaylearn,learning,feedback_image_window,2t3g6vygeehR4NsGOqNy1hPakyg2,2t3g6vygeehR4NsGOqNy1hPakyg2,,,,,,,,,,,,,,,,,,,,,,655faeaa22964920719a77b3,17:24:26,27/03/2024
html-keyboard-response,164,315166,0.0-68.0,,"<div style=""font-size:100px;"">+</div>",,delaylearn,learning,ITI,2t3g6vygeehR4NsGOqNy1hPakyg2,2t3g6vygeehR4NsGOqNy1hPakyg2,,,,,,,,,,,,,,,,,,,2419.0,,,655faeaa22964920719a77b3,17:24:26,27/03/2024
html-keyboard-response,165,316157,0.0-69.0-0.0,988.0,"<div style=""display: flex; flex-direction: column; align-items: center; margin-top: -40px;""><img src=""images/pattern_6.png"" style=""width: 234px; height: 230px; margin-top: -50px;""><div style=""display: flex; justify-content: space-between; margin-top: 33px;""><img src=""images/choice_trial_5.png"" style=""width: 408px; height: 417px; margin-right: 200px;""><img src=""images/choice_trial_11.png"" style=""width: 408px; height: 417px;""></div></div>",f,delaylearn,learning,trial,2t3g6vygeehR4NsGOqNy1hPakyg2,2t3g6vygeehR4NsGOqNy1hPakyg2,2.0,images/choice_trial_5.png,images/choice_trial_11.png,images/pattern_6.png,j,j,750.0,5.0,11.0,5.0,1.0,30.0,0.0,0.0,5.0,170.0,,,,,,655faeaa22964920719a77b3,17:24:26,27/03/2024
html-keyboard-response,166,317161,0.0-69.0-1.0,,"<div style=""display: flex; flex-direction: column; align-items: center; margin-top: -40px;""><img src=""images/pattern_6.png"" style=""width: 234px; height: 230px; margin-top: -50px;""><div style=""display: flex; justify-content: space-between; margin-top: 33px;""><img src=""images/choice_trial_5.png"" style=""width: 408px; height: 417px; margin-right: 608px;""></div></div>",,delaylearn,learning,display_response,2t3g6vygeehR4NsGOqNy1hPakyg2,2t3g6vygeehR4NsGOqNy1hPakyg2,,,,,,,,,,,,,,,,,chosen stimuli: images/choice_trial_5.png,,,,,655faeaa22964920719a77b3,17:24:26,27/03/2024
html-keyboard-response,167,317914,0.0-69.0-2.0,,,,delaylearn,learning,feedback_duration_window,2t3g6vygeehR4NsGOqNy1hPakyg2,2t3g6vygeehR4NsGOqNy1hPakyg2,,,,,,,,,,,,,,,,,,750.0,,,,655faeaa22964920719a77b3,17:24:26,27/03/2024
html-keyboard-response,168,319418,0.0-69.0-3.0,,<div style='margin:auto;width: auto; font-size: 150%'><span style='font-weight: bold; font-size: 100px; color: red;'>0 points!</span><br><br></div>,,delaylearn,learning,feedback_image_window,2t3g6vygeehR4NsGOqNy1hPakyg2,2t3g6vygeehR4NsGOqNy1hPakyg2,,,,,,,,,,,,,,,,,,,,,,655faeaa22964920719a77b3,17:24:26,27/03/2024
html-keyboard-response,169,319921,0.0-70.0-0.0,,,,,,mood_trial_fixation,2t3g6vygeehR4NsGOqNy1hPakyg2,,,,,,,,,,,,,,,,,,,,,,,655faeaa22964920719a77b3,17:24:26,27/03/2024
lmdlab-html-vas-response,170,323235,0.0-70.0-1.0,2309.0,How happy are you right now?,0.4492753623188406,delaylearn,learning,mood_trial,2t3g6vygeehR4NsGOqNy1hPakyg2,2t3g6vygeehR4NsGOqNy1hPakyg2,,,,,,,,,,,,,,,,,,,,"['Very unhappy', 'Very happy']",,655faeaa22964920719a77b3,17:24:26,27/03/2024
html-keyboard-response,171,325331,0.0-71.0,,"<div style=""font-size:100px;"">+</div>",,delaylearn,learning,ITI,2t3g6vygeehR4NsGOqNy1hPakyg2,2t3g6vygeehR4NsGOqNy1hPakyg2,,,,,,,,,,,,,,,,,,,2094.0,,,655faeaa22964920719a77b3,17:24:26,27/03/2024
html-keyboard-response,172,326595,0.0-72.0-0.0,1259.8999999761581,"<div style=""display: flex; flex-direction: column; align-items: center; margin-top: -40px;""><img src=""images/pattern_4.png"" style=""width: 234px; height: 230px; margin-top: -50px;""><div style=""display: flex; justify-content: space-between; margin-top: 33px;""><img src=""images/choice_trial_16.png"" style=""width: 408px; height: 417px; margin-right: 200px;""><img src=""images/choice_trial_4.png"" style=""width: 408px; height: 417px;""></div></div>",j,delaylearn,learning,trial,2t3g6vygeehR4NsGOqNy1hPakyg2,2t3g6vygeehR4NsGOqNy1hPakyg2,2.0,images/choice_trial_16.png,images/choice_trial_4.png,images/pattern_4.png,j,j,7000.0,16.0,4.0,3.0,1.0,31.0,1.0,1.0,4.0,180.0,,,,,,655faeaa22964920719a77b3,17:24:26,27/03/2024
html-keyboard-response,173,327600,0.0-72.0-1.0,,"<div style=""display: flex; flex-direction: column; align-items: center; margin-top: -40px;""><img src=""images/pattern_4.png"" style=""width: 234px; height: 230px; margin-top: -50px;""><div style=""display: flex; justify-content: space-between; margin-top: 33px;""><img src=""images/choice_trial_4.png"" style=""width: 408px; height: 417px; margin-left:608px;""></div></div>",,delaylearn,learning,display_response,2t3g6vygeehR4NsGOqNy1hPakyg2,2t3g6vygeehR4NsGOqNy1hPakyg2,,,,,,,,,,,,,,,,,chosen stimuli: images/choice_trial_4.png,,,,,655faeaa22964920719a77b3,17:24:26,27/03/2024
html-keyboard-response,174,334603,0.0-72.0-2.0,,,,delaylearn,learning,feedback_duration_window,2t3g6vygeehR4NsGOqNy1hPakyg2,2t3g6vygeehR4NsGOqNy1hPakyg2,,,,,,,,,,,,,,,,,,7000.0,,,,655faeaa22964920719a77b3,17:24:26,27/03/2024
html-keyboard-response,175,336107,0.0-72.0-3.0,,<div style='margin:auto;width: auto; font-size: 150%'><span style='font-weight: bold; font-size: 100px; color: green;'>+10 points!</span><br><br></div>,,delaylearn,learning,feedback_image_window,2t3g6vygeehR4NsGOqNy1hPakyg2,2t3g6vygeehR4NsGOqNy1hPakyg2,,,,,,,,,,,,,,,,,,,,,,655faeaa22964920719a77b3,17:24:26,27/03/2024
html-keyboard-response,176,337927,0.0-73.0,,"<div style=""font-size:100px;"">+</div>",,delaylearn,learning,ITI,2t3g6vygeehR4NsGOqNy1hPakyg2,2t3g6vygeehR4NsGOqNy1hPakyg2,,,,,,,,,,,,,,,,,,,1817.0,,,655faeaa22964920719a77b3,17:24:26,27/03/2024
html-keyboard-response,177,338751,0.0-74.0-0.0,819.8000000119209,"<div style=""display: flex; flex-direction: column; align-items: center; margin-top: -40px;""><img src=""images/pattern_3.png"" style=""width: 234px; height: 230px; margin-top: -50px;""><div style=""display: flex; justify-content: space-between; margin-top: 33px;""><img src=""images/choice_trial_14.png"" style=""width: 408px; height: 417px; margin-right: 200px;""><img src=""images/choice_trial_12.png"" style=""width: 408px; height: 417px;""></div></div>",j,delaylearn,learning,trial,2t3g6vygeehR4NsGOqNy1hPakyg2,2t3g6vygeehR4NsGOqNy1hPakyg2,2.0,images/choice_trial_14.png,images/choice_trial_12.png,images/pattern_3.png,j,j,7000.0,14.0,12.0,2.0,1.0,32.0,1.0,1.0,12.0,190.0,,,,,,655faeaa22964920719a77b3,17:24:26,27/03/2024
html-keyboard-response,178,339755,0.0-74.0-1.0,,"<div style=""display: flex; flex-direction: column; align-items: center; margin-top: -40px;""><img src=""images/pattern_3.png"" style=""width: 234px; height: 230px; margin-top: -50px;""><div style=""display: flex; justify-content: space-between; margin-top: 33px;""><img src=""images/choice_trial_12.png"" style=""width: 408px; height: 417px; margin-left:608px;""></div></div>",,delaylearn,learning,display_response,2t3g6vygeehR4NsGOqNy1hPakyg2,2t3g6vygeehR4NsGOqNy1hPakyg2,,,,,,,,,,,,,,,,,chosen stimuli: images/choice_trial_12.png,,,,,655faeaa22964920719a77b3,17:24:26,27/03/2024
html-keyboard-response,179,346757,0.0-74.0-2.0,,,,delaylearn,learning,feedback_duration_window,2t3g6vygeehR4NsGOqNy1hPakyg2,2t3g6vygeehR4NsGOqNy1hPakyg2,,,,,,,,,,,,,,,,,,7000.0,,,,655faeaa22964920719a77b3,17:24:26,27/03/2024
html-keyboard-response,180,348261,0.0-74.0-3.0,,<div style='margin:auto;width: auto; font-size: 150%'><span style='font-weight: bold; font-size: 100px; color: green;'>+10 points!</span><br><br></div>,,delaylearn,learning,feedback_image_window,2t3g6vygeehR4NsGOqNy1hPakyg2,2t3g6vygeehR4NsGOqNy1hPakyg2,,,,,,,,,,,,,,,,,,,,,,655faeaa22964920719a77b3,17:24:26,27/03/2024
html-keyboard-response,181,350064,0.0-75.0,,"<div style=""font-size:100px;"">+</div>",,delaylearn,learning,ITI,2t3g6vygeehR4NsGOqNy1hPakyg2,2t3g6vygeehR4NsGOqNy1hPakyg2,,,,,,,,,,,,,,,,,,,1801.0,,,655faeaa22964920719a77b3,17:24:26,27/03/2024
html-keyboard-response,182,351228,0.0-76.0-0.0,1161.1000000238419,"<div style=""display: flex; flex-direction: column; align-items: center; margin-top: -40px;""><img src=""images/pattern_5.png"" style=""width: 234px; height: 230px; margin-top: -50px;""><div style=""display: flex; justify-content: space-between; margin-top: 33px;""><img src=""images/choice_trial_2.png"" style=""width: 408px; height: 417px; margin-right: 200px;""><img src=""images/choice_trial_9.png"" style=""width: 408px; height: 417px;""></div></div>",f,delaylearn,learning,trial,2t3g6vygeehR4NsGOqNy1hPakyg2,2t3g6vygeehR4NsGOqNy1hPakyg2,2.0,images/choice_trial_2.png,images/choice_trial_9.png,images/pattern_5.png,j,f,750.0,2.0,9.0,4.0,0.0,33.0,1.0,0.0,2.0,190.0,,,,,,655faeaa22964920719a77b3,17:24:26,27/03/2024
html-keyboard-response,183,352232,0.0-76.0-1.0,,"<div style=""display: flex; flex-direction: column; align-items: center; margin-top: -40px;""><img src=""images/pattern_5.png"" style=""width: 234px; height: 230px; margin-top: -50px;""><div style=""display: flex; justify-content: space-between; margin-top: 33px;""><img src=""images/choice_trial_2.png"" style=""width: 408px; height: 417px; margin-right: 608px;""></div></div>",,delaylearn,learning,display_response,2t3g6vygeehR4NsGOqNy1hPakyg2,2t3g6vygeehR4NsGOqNy1hPakyg2,,,,,,,,,,,,,,,,,chosen stimuli: images/choice_trial_2.png,,,,,655faeaa22964920719a77b3,17:24:26,27/03/2024
html-keyboard-response,184,352985,0.0-76.0-2.0,,,,delaylearn,learning,feedback_duration_window,2t3g6vygeehR4NsGOqNy1hPakyg2,2t3g6vygeehR4NsGOqNy1hPakyg2,,,,,,,,,,,,,,,,,,750.0,,,,655faeaa22964920719a77b3,17:24:26,27/03/2024
html-keyboard-response,185,354489,0.0-76.0-3.0,,<div style='margin:auto;width: auto; font-size: 150%'><span style='font-weight: bold; font-size: 100px; color: red;'>0 points!</span><br><br></div>,,delaylearn,learning,feedback_image_window,2t3g6vygeehR4NsGOqNy1hPakyg2,2t3g6vygeehR4NsGOqNy1hPakyg2,,,,,,,,,,,,,,,,,,,,,,655faeaa22964920719a77b3,17:24:26,27/03/2024
html-keyboard-response,186,356168,0.0-77.0,,"<div style=""font-size:100px;"">+</div>",,delaylearn,learning,ITI,2t3g6vygeehR4NsGOqNy1hPakyg2,2t3g6vygeehR4NsGOqNy1hPakyg2,,,,,,,,,,,,,,,,,,,1675.0,,,655faeaa22964920719a77b3,17:24:26,27/03/2024
html-keyboard-response,187,357170,0.0-78.0-0.0,999.0,"<div style=""display: flex; flex-direction: column; align-items: center; margin-top: -40px;""><img src=""images/pattern_1.png"" style=""width: 234px; height: 230px; margin-top: -50px;""><div style=""display: flex; justify-content: space-between; margin-top: 33px;""><img src=""images/choice_trial_3.png"" style=""width: 408px; height: 417px; margin-right: 200px;""><img src=""images/choice_trial_10.png"" style=""width: 408px; height: 417px;""></div></div>",f,delaylearn,learning,trial,2t3g6vygeehR4NsGOqNy1hPakyg2,2t3g6vygeehR4NsGOqNy1hPakyg2,2.0,images/choice_trial_3.png,images/choice_trial_10.png,images/pattern_1.png,f,f,7000.0,3.0,10.0,1.0,0.0,34.0,1.0,1.0,3.0,200.0,,,,,,655faeaa22964920719a77b3,17:24:26,27/03/2024
html-keyboard-response,188,358174,0.0-78.0-1.0,,"<div style=""display: flex; flex-direction: column; align-items: center; margin-top: -40px;""><img src=""images/pattern_1.png"" style=""width: 234px; height: 230px; margin-top: -50px;""><div style=""display: flex; justify-content: space-between; margin-top: 33px;""><img src=""images/choice_trial_3.png"" style=""width: 408px; height: 417px; margin-right: 608px;""></div></div>",,delaylearn,learning,display_response,2t3g6vygeehR4NsGOqNy1hPakyg2,2t3g6vygeehR4NsGOqNy1hPakyg2,,,,,,,,,,,,,,,,,chosen stimuli: images/choice_trial_3.png,,,,,655faeaa22964920719a77b3,17:24:26,27/03/2024
html-keyboard-response,189,365176,0.0-78.0-2.0,,,,delaylearn,learning,feedback_duration_window,2t3g6vygeehR4NsGOqNy1hPakyg2,2t3g6vygeehR4NsGOqNy1hPakyg2,,,,,,,,,,,,,,,,,,7000.0,,,,655faeaa22964920719a77b3,17:24:26,27/03/2024
html-keyboard-response,190,366680,0.0-78.0-3.0,,<div style='margin:auto;width: auto; font-size: 150%'><span style='font-weight: bold; font-size: 100px; color: green;'>+10 points!</span><br><br></div>,,delaylearn,learning,feedback_image_window,2t3g6vygeehR4NsGOqNy1hPakyg2,2t3g6vygeehR4NsGOqNy1hPakyg2,,,,,,,,,,,,,,,,,,,,,,655faeaa22964920719a77b3,17:24:26,27/03/2024
html-keyboard-response,191,367184,0.0-79.0-0.0,,,,,,mood_trial_fixation,2t3g6vygeehR4NsGOqNy1hPakyg2,,,,,,,,,,,,,,,,,,,,,,,655faeaa22964920719a77b3,17:24:26,27/03/2024
lmdlab-html-vas-response,192,371172,0.0-79.0-1.0,2983.0,How happy are you right now?,0.532608695652174,delaylearn,learning,mood_trial,2t3g6vygeehR4NsGOqNy1hPakyg2,2t3g6vygeehR4NsGOqNy1hPakyg2,,,,,,,,,,,,,,,,,,,,"['Very unhappy', 'Very happy']",,655faeaa22964920719a77b3,17:24:26,27/03/2024
html-keyboard-response,193,373637,0.0-80.0,,"<div style=""font-size:100px;"">+</div>",,delaylearn,learning,ITI,2t3g6vygeehR4NsGOqNy1hPakyg2,2t3g6vygeehR4NsGOqNy1hPakyg2,,,,,,,,,,,,,,,,,,,2461.0,,,655faeaa22964920719a77b3,17:24:26,27/03/2024
html-keyboard-response,194,374569,0.0-81.0-0.0,928.3999999761581,"<div style=""display: flex; flex-direction: column; align-items: center; margin-top: -40px;""><img src=""images/pattern_6.png"" style=""width: 234px; height: 230px; margin-top: -50px;""><div style=""display: flex; justify-content: space-between; margin-top: 33px;""><img src=""images/choice_trial_11.png"" style=""width: 408px; height: 417px; margin-right: 200px;""><img src=""images/choice_trial_5.png"" style=""width: 408px; height: 417px;""></div></div>",j,delaylearn,learning,trial,2t3g6vygeehR4NsGOqNy1hPakyg2,2t3g6vygeehR4NsGOqNy1hPakyg2,2.0,images/choice_trial_11.png,images/choice_trial_5.png,images/pattern_6.png,j,f,750.0,11.0,5.0,5.0,0.0,35.0,0.0,1.0,5.0,210.0,,,,,,655faeaa22964920719a77b3,17:24:26,27/03/2024
html-keyboard-response,195,375573,0.0-81.0-1.0,,"<div style=""display: flex; flex-direction: column; align-items: center; margin-top: -40px;""><img src=""images/pattern_6.png"" style=""width: 234px; height: 230px; margin-top: -50px;""><div style=""display: flex; justify-content: space-between; margin-top: 33px;""><img src=""images/choice_trial_5.png"" style=""width: 408px; height: 417px; margin-left:608px;""></div></div>",,delaylearn,learning,display_response,2t3g6vygeehR4NsGOqNy1hPakyg2,2t3g6vygeehR4NsGOqNy1hPakyg2,,,,,,,,,,,,,,,,,chosen stimuli: images/choice_trial_5.png,,,,,655faeaa22964920719a77b3,17:24:26,27/03/2024
html-keyboard-response,196,376327,0.0-81.0-2.0,,,,delaylearn,learning,feedback_duration_window,2t3g6vygeehR4NsGOqNy1hPakyg2,2t3g6vygeehR4NsGOqNy1hPakyg2,,,,,,,,,,,,,,,,,,750.0,,,,655faeaa22964920719a77b3,17:24:26,27/03/2024
html-keyboard-response,197,377831,0.0-81.0-3.0,,<div style='margin:auto;width: auto; font-size: 150%'><span style='font-weight: bold; font-size: 100px; color: green;'>+10 points!</span><br><br></div>,,delaylearn,learning,feedback_image_window,2t3g6vygeehR4NsGOqNy1hPakyg2,2t3g6vygeehR4NsGOqNy1hPakyg2,,,,,,,,,,,,,,,,,,,,,,655faeaa22964920719a77b3,17:24:26,27/03/2024
html-keyboard-response,198,379436,0.0-82.0,,"<div style=""font-size:100px;"">+</div>",,delaylearn,learning,ITI,2t3g6vygeehR4NsGOqNy1hPakyg2,2t3g6vygeehR4NsGOqNy1hPakyg2,,,,,,,,,,,,,,,,,,,1602.0,,,655faeaa22964920719a77b3,17:24:26,27/03/2024
html-keyboard-response,199,380254,0.0-83.0-0.0,813.5,"<div style=""display: flex; flex-direction: column; align-items: center; margin-top: -40px;""><img src=""images/pattern_3.png"" style=""width: 234px; height: 230px; margin-top: -50px;""><div style=""display: flex; justify-content: space-between; margin-top: 33px;""><img src=""images/choice_trial_14.png"" style=""width: 408px; height: 417px; margin-right: 200px;""><img src=""images/choice_trial_12.png"" style=""width: 408px; height: 417px;""></div></div>",j,delaylearn,learning,trial,2t3g6vygeehR4NsGOqNy1hPakyg2,2t3g6vygeehR4NsGOqNy1hPakyg2,2.0,images/choice_trial_14.png,images/choice_trial_12.png,images/pattern_3.png,j,j,7000.0,14.0,12.0,2.0,1.0,36.0,1.0,1.0,12.0,220.0,,,,,,655faeaa22964920719a77b3,17:24:26,27/03/2024
html-keyboard-response,200,381258,0.0-83.0-1.0,,"<div style=""display: flex; flex-direction: column; align-items: center; margin-top: -40px;""><img src=""images/pattern_3.png"" style=""width: 234px; height: 230px; margin-top: -50px;""><div style=""display: flex; justify-content: space-between; margin-top: 33px;""><img src=""images/choice_trial_12.png"" style=""width: 408px; height: 417px; margin-left:608px;""></div></div>",,delaylearn,learning,display_response,2t3g6vygeehR4NsGOqNy1hPakyg2,2t3g6vygeehR4NsGOqNy1hPakyg2,,,,,,,,,,,,,,,,,chosen stimuli: images/choice_trial_12.png,,,,,655faeaa22964920719a77b3,17:24:26,27/03/2024
html-keyboard-response,201,388261,0.0-83.0-2.0,,,,delaylearn,learning,feedback_duration_window,2t3g6vygeehR4NsGOqNy1hPakyg2,2t3g6vygeehR4NsGOqNy1hPakyg2,,,,,,,,,,,,,,,,,,7000.0,,,,655faeaa22964920719a77b3,17:24:26,27/03/2024
html-keyboard-response,202,389765,0.0-83.0-3.0,,<div style='margin:auto;width: auto; font-size: 150%'><span style='font-weight: bold; font-size: 100px; color: green;'>+10 points!</span><br><br></div>,,delaylearn,learning,feedback_image_window,2t3g6vygeehR4NsGOqNy1hPakyg2,2t3g6vygeehR4NsGOqNy1hPakyg2,,,,,,,,,,,,,,,,,,,,,,655faeaa22964920719a77b3,17:24:26,27/03/2024
html-keyboard-response,203,391661,0.0-84.0,,"<div style=""font-size:100px;"">+</div>",,delaylearn,learning,ITI,2t3g6vygeehR4NsGOqNy1hPakyg2,2t3g6vygeehR4NsGOqNy1hPakyg2,,,,,,,,,,,,,,,,,,,1893.0,,,655faeaa22964920719a77b3,17:24:26,27/03/2024
html-keyboard-response,204,392565,0.0-85.0-0.0,899.8000000119209,"<div style=""display: flex; flex-direction: column; align-items: center; margin-top: -40px;""><img src=""images/pattern_4.png"" style=""width: 234px; height: 230px; margin-top: -50px;""><div style=""display: flex; justify-content: space-between; margin-top: 33px;""><img src=""images/choice_trial_16.png"" style=""width: 408px; height: 417px; margin-right: 200px;""><img src=""images/choice_trial_4.png"" style=""width: 408px; height: 417px;""></div></div>",j,delaylearn,learning,trial,2t3g6vygeehR4NsGOqNy1hPakyg2,2t3g6vygeehR4NsGOqNy1hPakyg2,2.0,images/choice_trial_16.png,images/choice_trial_4.png,images/pattern_4.png,f,j,7000.0,16.0,4.0,3.0,1.0,37.0,1.0,0.0,4.0,220.0,,,,,,655faeaa22964920719a77b3,17:24:26,27/03/2024
html-keyboard-response,205,393569,0.0-85.0-1.0,,"<div style=""display: flex; flex-direction: column; align-items: center; margin-top: -40px;""><img src=""images/pattern_4.png"" style=""width: 234px; height: 230px; margin-top: -50px;""><div style=""display: flex; justify-content: space-between; margin-top: 33px;""><img src=""images/choice_trial_4.png"" style=""width: 408px; height: 417px; margin-left:608px;""></div></div>",,delaylearn,learning,display_response,2t3g6vygeehR4NsGOqNy1hPakyg2,2t3g6vygeehR4NsGOqNy1hPakyg2,,,,,,,,,,,,,,,,,chosen stimuli: images/choice_trial_4.png,,,,,655faeaa22964920719a77b3,17:24:26,27/03/2024
html-keyboard-response,206,400572,0.0-85.0-2.0,,,,delaylearn,learning,feedback_duration_window,2t3g6vygeehR4NsGOqNy1hPakyg2,2t3g6vygeehR4NsGOqNy1hPakyg2,,,,,,,,,,,,,,,,,,7000.0,,,,655faeaa22964920719a77b3,17:24:26,27/03/2024
html-keyboard-response,207,402076,0.0-85.0-3.0,,<div style='margin:auto;width: auto; font-size: 150%'><span style='font-weight: bold; font-size: 100px; color: red;'>0 points!</span><br><br></div>,,delaylearn,learning,feedback_image_window,2t3g6vygeehR4NsGOqNy1hPakyg2,2t3g6vygeehR4NsGOqNy1hPakyg2,,,,,,,,,,,,,,,,,,,,,,655faeaa22964920719a77b3,17:24:26,27/03/2024
html-keyboard-response,208,404310,0.0-86.0,,"<div style=""font-size:100px;"">+</div>",,delaylearn,learning,ITI,2t3g6vygeehR4NsGOqNy1hPakyg2,2t3g6vygeehR4NsGOqNy1hPakyg2,,,,,,,,,,,,,,,,,,,2232.0,,,655faeaa22964920719a77b3,17:24:26,27/03/2024
html-keyboard-response,209,405270,0.0-87.0-0.0,955.7999999523163,"<div style=""display: flex; flex-direction: column; align-items: center; margin-top: -40px;""><img src=""images/pattern_7.png"" style=""width: 234px; height: 230px; margin-top: -50px;""><div style=""display: flex; justify-content: space-between; margin-top: 33px;""><img src=""images/choice_trial_8.png"" style=""width: 408px; height: 417px; margin-right: 200px;""><img src=""images/choice_trial_15.png"" style=""width: 408px; height: 417px;""></div></div>",f,delaylearn,learning,trial,2t3g6vygeehR4NsGOqNy1hPakyg2,2t3g6vygeehR4NsGOqNy1hPakyg2,2.0,images/choice_trial_8.png,images/choice_trial_15.png,images/pattern_7.png,f,f,750.0,8.0,15.0,6.0,0.0,38.0,1.0,1.0,8.0,230.0,,,,,,655faeaa22964920719a77b3,17:24:26,27/03/2024
html-keyboard-response,210,406273,0.0-87.0-1.0,,"<div style=""display: flex; flex-direction: column; align-items: center; margin-top: -40px;""><img src=""images/pattern_7.png"" style=""width: 234px; height: 230px; margin-top: -50px;""><div style=""display: flex; justify-content: space-between; margin-top: 33px;""><img src=""images/choice_trial_8.png"" style=""width: 408px; height: 417px; margin-right: 608px;""></div></div>",,delaylearn,learning,display_response,2t3g6vygeehR4NsGOqNy1hPakyg2,2t3g6vygeehR4NsGOqNy1hPakyg2,,,,,,,,,,,,,,,,,chosen stimuli: images/choice_trial_8.png,,,,,655faeaa22964920719a77b3,17:24:26,27/03/2024
html-keyboard-response,211,407026,0.0-87.0-2.0,,,,delaylearn,learning,feedback_duration_window,2t3g6vygeehR4NsGOqNy1hPakyg2,2t3g6vygeehR4NsGOqNy1hPakyg2,,,,,,,,,,,,,,,,,,750.0,,,,655faeaa22964920719a77b3,17:24:26,27/03/2024
html-keyboard-response,212,408530,0.0-87.0-3.0,,<div style='margin:auto;width: auto; font-size: 150%'><span style='font-weight: bold; font-size: 100px; color: green;'>+10 points!</span><br><br></div>,,delaylearn,learning,feedback_image_window,2t3g6vygeehR4NsGOqNy1hPakyg2,2t3g6vygeehR4NsGOqNy1hPakyg2,,,,,,,,,,,,,,,,,,,,,,655faeaa22964920719a77b3,17:24:26,27/03/2024
html-keyboard-response,213,410309,0.0-88.0,,"<div style=""font-size:100px;"">+</div>",,delaylearn,learning,ITI,2t3g6vygeehR4NsGOqNy1hPakyg2,2t3g6vygeehR4NsGOqNy1hPakyg2,,,,,,,,,,,,,,,,,,,1777.0,,,655faeaa22964920719a77b3,17:24:26,27/03/2024
html-keyboard-response,214,411263,0.0-89.0-0.0,952.0,"<div style=""display: flex; flex-direction: column; align-items: center; margin-top: -40px;""><img src=""images/pattern_1.png"" style=""width: 234px; height: 230px; margin-top: -50px;""><div style=""display: flex; justify-content: space-between; margin-top: 33px;""><img src=""images/choice_trial_3.png"" style=""width: 408px; height: 417px; margin-right: 200px;""><img src=""images/choice_trial_10.png"" style=""width: 408px; height: 417px;""></div></div>",f,delaylearn,learning,trial,2t3g6vygeehR4NsGOqNy1hPakyg2,2t3g6vygeehR4NsGOqNy1hPakyg2,2.0,images/choice_trial_3.png,images/choice_trial_10.png,images/pattern_1.png,f,f,7000.0,3.0,10.0,1.0,0.0,39.0,1.0,1.0,3.0,240.0,,,,,,655faeaa22964920719a77b3,17:24:26,27/03/2024
html-keyboard-response,215,412267,0.0-89.0-1.0,,"<div style=""display: flex; flex-direction: column; align-items: center; margin-top: -40px;""><img src=""images/pattern_1.png"" style=""width: 234px; height: 230px; margin-top: -50px;""><div style=""display: flex; justify-content: space-between; margin-top: 33px;""><img src=""images/choice_trial_3.png"" style=""width: 408px; height: 417px; margin-right: 608px;""></div></div>",,delaylearn,learning,display_response,2t3g6vygeehR4NsGOqNy1hPakyg2,2t3g6vygeehR4NsGOqNy1hPakyg2,,,,,,,,,,,,,,,,,chosen stimuli: images/choice_trial_3.png,,,,,655faeaa22964920719a77b3,17:24:26,27/03/2024
html-keyboard-response,216,419270,0.0-89.0-2.0,,,,delaylearn,learning,feedback_duration_window,2t3g6vygeehR4NsGOqNy1hPakyg2,2t3g6vygeehR4NsGOqNy1hPakyg2,,,,,,,,,,,,,,,,,,7000.0,,,,655faeaa22964920719a77b3,17:24:26,27/03/2024
html-keyboard-response,217,420774,0.0-89.0-3.0,,<div style='margin:auto;width: auto; font-size: 150%'><span style='font-weight: bold; font-size: 100px; color: green;'>+10 points!</span><br><br></div>,,delaylearn,learning,feedback_image_window,2t3g6vygeehR4NsGOqNy1hPakyg2,2t3g6vygeehR4NsGOqNy1hPakyg2,,,,,,,,,,,,,,,,,,,,,,655faeaa22964920719a77b3,17:24:26,27/03/2024
html-keyboard-response,218,421276,0.0-90.0-0.0,,,,,,mood_trial_fixation,2t3g6vygeehR4NsGOqNy1hPakyg2,,,,,,,,,,,,,,,,,,,,,,,655faeaa22964920719a77b3,17:24:26,27/03/2024
lmdlab-html-vas-response,219,425069,0.0-90.0-1.0,2787.0,How happy are you right now?,0.5489130434782609,delaylearn,learning,mood_trial,2t3g6vygeehR4NsGOqNy1hPakyg2,2t3g6vygeehR4NsGOqNy1hPakyg2,,,,,,,,,,,,,,,,,,,,"['Very unhappy', 'Very happy']",,655faeaa22964920719a77b3,17:24:26,27/03/2024
html-keyboard-response,220,427279,0.0-91.0,,"<div style=""font-size:100px;"">+</div>",,delaylearn,learning,ITI,2t3g6vygeehR4NsGOqNy1hPakyg2,2t3g6vygeehR4NsGOqNy1hPakyg2,,,,,,,,,,,,,,,,,,,2208.0,,,655faeaa22964920719a77b3,17:24:26,27/03/2024
html-keyboard-response,221,428369,0.0-92.0-0.0,1085.2000000476837,"<div style=""display: flex; flex-direction: column; align-items: center; margin-top: -40px;""><img src=""images/pattern_3.png"" style=""width: 234px; height: 230px; margin-top: -50px;""><div style=""display: flex; justify-content: space-between; margin-top: 33px;""><img src=""images/choice_trial_12.png"" style=""width: 408px; height: 417px; margin-right: 200px;""><img src=""images/choice_trial_14.png"" style=""width: 408px; height: 417px;""></div></div>",f,delaylearn,learning,trial,2t3g6vygeehR4NsGOqNy1hPakyg2,2t3g6vygeehR4NsGOqNy1hPakyg2,2.0,images/choice_trial_12.png,images/choice_trial_14.png,images/pattern_3.png,j,f,7000.0,12.0,14.0,2.0,0.0,40.0,1.0,0.0,12.0,240.0,,,,,,655faeaa22964920719a77b3,17:24:26,27/03/2024
html-keyboard-response,222,429374,0.0-92.0-1.0,,"<div style=""display: flex; flex-direction: column; align-items: center; margin-top: -40px;""><img src=""images/pattern_3.png"" style=""width: 234px; height: 230px; margin-top: -50px;""><div style=""display: flex; justify-content: space-between; margin-top: 33px;""><img src=""images/choice_trial_12.png"" style=""width: 408px; height: 417px; margin-right: 608px;""></div></div>",,delaylearn,learning,display_response,2t3g6vygeehR4NsGOqNy1hPakyg2,2t3g6vygeehR4NsGOqNy1hPakyg2,,,,,,,,,,,,,,,,,chosen stimuli: images/choice_trial_12.png,,,,,655faeaa22964920719a77b3,17:24:26,27/03/2024
html-keyboard-response,223,436376,0.0-92.0-2.0,,,,delaylearn,learning,feedback_duration_window,2t3g6vygeehR4NsGOqNy1hPakyg2,2t3g6vygeehR4NsGOqNy1hPakyg2,,,,,,,,,,,,,,,,,,7000.0,,,,655faeaa22964920719a77b3,17:24:26,27/03/2024
html-keyboard-response,224,437880,0.0-92.0-3.0,,<div style='margin:auto;width: auto; font-size: 150%'><span style='font-weight: bold; font-size: 100px; color: red;'>0 points!</span><br><br></div>,,delaylearn,learning,feedback_image_window,2t3g6vygeehR4NsGOqNy1hPakyg2,2t3g6vygeehR4NsGOqNy1hPakyg2,,,,,,,,,,,,,,,,,,,,,,655faeaa22964920719a77b3,17:24:26,27/03/2024
html-keyboard-response,225,439744,0.0-93.0,,"<div style=""font-size:100px;"">+</div>",,delaylearn,learning,ITI,2t3g6vygeehR4NsGOqNy1hPakyg2,2t3g6vygeehR4NsGOqNy1hPakyg2,,,,,,,,,,,,,,,,,,,1860.0,,,655faeaa22964920719a77b3,17:24:26,27/03/2024
html-keyboard-response,226,440391,0.0-94.0-0.0,642.5,"<div style=""display: flex; flex-direction: column; align-items: center; margin-top: -40px;""><img src=""images/pattern_7.png"" style=""width: 234px; height: 230px; margin-top: -50px;""><div style=""display: flex; justify-content: space-between; margin-top: 33px;""><img src=""images/choice_trial_15.png"" style=""width: 408px; height: 417px; margin-right: 200px;""><img src=""images/choice_trial_8.png"" style=""width: 408px; height: 417px;""></div></div>",j,delaylearn,learning,trial,2t3g6vygeehR4NsGOqNy1hPakyg2,2t3g6vygeehR4NsGOqNy1hPakyg2,2.0,images/choice_trial_15.png,images/choice_trial_8.png,images/pattern_7.png,j,j,750.0,15.0,8.0,6.0,1.0,41.0,1.0,1.0,8.0,250.0,,,,,,655faeaa22964920719a77b3,17:24:26,27/03/2024
html-keyboard-response,227,441395,0.0-94.0-1.0,,"<div style=""display: flex; flex-direction: column; align-items: center; margin-top: -40px;""><img src=""images/pattern_7.png"" style=""width: 234px; height: 230px; margin-top: -50px;""><div style=""display: flex; justify-content: space-between; margin-top: 33px;""><img src=""images/choice_trial_8.png"" style=""width: 408px; height: 417px; margin-left:608px;""></div></div>",,delaylearn,learning,display_response,2t3g6vygeehR4NsGOqNy1hPakyg2,2t3g6vygeehR4NsGOqNy1hPakyg2,,,,,,,,,,,,,,,,,chosen stimuli: images/choice_trial_8.png,,,,,655faeaa22964920719a77b3,17:24:26,27/03/2024
html-keyboard-response,228,442148,0.0-94.0-2.0,,,,delaylearn,learning,feedback_duration_window,2t3g6vygeehR4NsGOqNy1hPakyg2,2t3g6vygeehR4NsGOqNy1hPakyg2,,,,,,,,,,,,,,,,,,750.0,,,,655faeaa22964920719a77b3,17:24:26,27/03/2024
html-keyboard-response,229,443652,0.0-94.0-3.0,,<div style='margin:auto;width: auto; font-size: 150%'><span style='font-weight: bold; font-size: 100px; color: green;'>+10 points!</span><br><br></div>,,delaylearn,learning,feedback_image_window,2t3g6vygeehR4NsGOqNy1hPakyg2,2t3g6vygeehR4NsGOqNy1hPakyg2,,,,,,,,,,,,,,,,,,,,,,655faeaa22964920719a77b3,17:24:26,27/03/2024
html-keyboard-response,230,446102,0.0-95.0,,"<div style=""font-size:100px;"">+</div>",,delaylearn,learning,ITI,2t3g6vygeehR4NsGOqNy1hPakyg2,2t3g6vygeehR4NsGOqNy1hPakyg2,,,,,,,,,,,,,,,,,,,2447.0,,,655faeaa22964920719a77b3,17:24:26,27/03/2024
