trial_type,trial_index,time_elapsed,internal_node_id,rt,stimulus,response,exp_name,exp_stage,test_part,subjectID,databaseID,counterbal,choice_stimuli_1,choice_stimuli_2,pattern_stimuli,rewarded_answer,correct_answer,feedback_duration_times,stim_left,stim_right,pair,leftright_counter,trial,response_correct,response_rewarded,chosen_stim,counter,displayed_choice,feedback_durations,ITI_duration,labels,rest_warning,prolificID,start_time,date
pavlovia,0,539,0.0-0.0,,,,,,,063W0lAHsGYvwngz6yld2CvNIwI2,,,,,,,,,,,,,,,,,,,,,,,5cf66ed8912f0b0017c50b52,09:07:15,27/02/2024
html-keyboard-response,1,3543,0.0-1.0,,"<div style=""font-size:100px;"">+</div>",,delaylearn,learning,pre_fixation,063W0lAHsGYvwngz6yld2CvNIwI2,,,,,,,,,,,,,,,,,,,,,,,5cf66ed8912f0b0017c50b52,09:07:15,27/02/2024
html-keyboard-response,2,4389,0.0-2.0-0.0,843.0,"<div style=""display: flex; flex-direction: column; align-items: center; margin-top: -40px;""><img src=""images/demo_images/pattern_1.png"" style=""width: 234px; height: 230px; margin-top: -50px;""><div style=""display: flex; justify-content: space-between; margin-top: 33px;""><img src=""images/demo_images/choice_trial_2.png"" style=""width: 408px; height: 417px; margin-right: 200px;""><img src=""images/demo_images/choice_trial_1.png"" style=""width: 408px; height: 417px;""></div></div>",f,delaylearn,learning,trial,063W0lAHsGYvwngz6yld2CvNIwI2,063W0lAHsGYvwngz6yld2CvNIwI2,1.0,images/demo_images/choice_trial_2.png,images/demo_images/choice_trial_1.png,images/demo_images/pattern_1.png,j,j,3000.0,2.0,1.0,20.0,1.0,1.0,0.0,0.0,2.0,0.0,,,,,,5cf66ed8912f0b0017c50b52,09:07:15,27/02/2024
html-keyboard-response,3,5393,0.0-2.0-1.0,,"<div style=""display: flex; flex-direction: column; align-items: center; margin-top: -40px;""><img src=""images/demo_images/pattern_1.png"" style=""width: 234px; height: 230px; margin-top: -50px;""><div style=""display: flex; justify-content: space-between; margin-top: 33px;""><img src=""images/demo_images/choice_trial_2.png"" style=""width: 408px; height: 417px; margin-right: 608px;""></div></div>",,delaylearn,learning,display_response,063W0lAHsGYvwngz6yld2CvNIwI2,063W0lAHsGYvwngz6yld2CvNIwI2,,,,,,,,,,,,,,,,,chosen stimuli: images/demo_images/choice_trial_2.png,,,,,5cf66ed8912f0b0017c50b52,09:07:15,27/02/2024
html-keyboard-response,4,8397,0.0-2.0-2.0,,,,delaylearn,learning,feedback_duration_window,063W0lAHsGYvwngz6yld2CvNIwI2,063W0lAHsGYvwngz6yld2CvNIwI2,,,,,,,,,,,,,,,,,,3000.0,,,,5cf66ed8912f0b0017c50b52,09:07:15,27/02/2024
html-keyboard-response,5,9900,0.0-2.0-3.0,,<div style='margin:auto;width: auto; font-size: 150%'><span style='font-weight: bold; font-size: 100px; color: red;'>0 points!</span><br><br></div>,,delaylearn,learning,feedback_image_window,063W0lAHsGYvwngz6yld2CvNIwI2,063W0lAHsGYvwngz6yld2CvNIwI2,,,,,,,,,,,,,,,,,,,,,,5cf66ed8912f0b0017c50b52,09:07:15,27/02/2024
html-keyboard-response,6,12207,0.0-3.0,,"<div style=""font-size:100px;"">+</div>",,delaylearn,learning,ITI,063W0lAHsGYvwngz6yld2CvNIwI2,063W0lAHsGYvwngz6yld2CvNIwI2,,,,,,,,,,,,,,,,,,,2304.0,,,5cf66ed8912f0b0017c50b52,09:07:15,27/02/2024
html-keyboard-response,7,13320,0.0-4.0-0.0,1111.0,"<div style=""display: flex; flex-direction: column; align-items: center; margin-top: -40px;""><img src=""images/demo_images/pattern_1.png"" style=""width: 234px; height: 230px; margin-top: -50px;""><div style=""display: flex; justify-content: space-between; margin-top: 33px;""><img src=""images/demo_images/choice_trial_2.png"" style=""width: 408px; height: 417px; margin-right: 200px;""><img src=""images/demo_images/choice_trial_1.png"" style=""width: 408px; height: 417px;""></div></div>",j,delaylearn,learning,trial,063W0lAHsGYvwngz6yld2CvNIwI2,063W0lAHsGYvwngz6yld2CvNIwI2,1.0,images/demo_images/choice_trial_2.png,images/demo_images/choice_trial_1.png,images/demo_images/pattern_1.png,j,j,3000.0,2.0,1.0,20.0,1.0,2.0,1.0,1.0,1.0,10.0,,,,,,5cf66ed8912f0b0017c50b52,09:07:15,27/02/2024
html-keyboard-response,8,14323,0.0-4.0-1.0,,"<div style=""display: flex; flex-direction: column; align-items: center; margin-top: -40px;""><img src=""images/demo_images/pattern_1.png"" style=""width: 234px; height: 230px; margin-top: -50px;""><div style=""display: flex; justify-content: space-between; margin-top: 33px;""><img src=""images/demo_images/choice_trial_1.png"" style=""width: 408px; height: 417px; margin-left:608px;""></div></div>",,delaylearn,learning,display_response,063W0lAHsGYvwngz6yld2CvNIwI2,063W0lAHsGYvwngz6yld2CvNIwI2,,,,,,,,,,,,,,,,,chosen stimuli: images/demo_images/choice_trial_1.png,,,,,5cf66ed8912f0b0017c50b52,09:07:15,27/02/2024
html-keyboard-response,9,17326,0.0-4.0-2.0,,,,delaylearn,learning,feedback_duration_window,063W0lAHsGYvwngz6yld2CvNIwI2,063W0lAHsGYvwngz6yld2CvNIwI2,,,,,,,,,,,,,,,,,,3000.0,,,,5cf66ed8912f0b0017c50b52,09:07:15,27/02/2024
html-keyboard-response,10,18828,0.0-4.0-3.0,,<div style='margin:auto;width: auto; font-size: 150%'><span style='font-weight: bold; font-size: 100px; color: green;'>+10 points!</span><br><br></div>,,delaylearn,learning,feedback_image_window,063W0lAHsGYvwngz6yld2CvNIwI2,063W0lAHsGYvwngz6yld2CvNIwI2,,,,,,,,,,,,,,,,,,,,,,5cf66ed8912f0b0017c50b52,09:07:15,27/02/2024
html-keyboard-response,11,20980,0.0-5.0,,"<div style=""font-size:100px;"">+</div>",,delaylearn,learning,ITI,063W0lAHsGYvwngz6yld2CvNIwI2,063W0lAHsGYvwngz6yld2CvNIwI2,,,,,,,,,,,,,,,,,,,2148.0,,,5cf66ed8912f0b0017c50b52,09:07:15,27/02/2024
html-keyboard-response,12,21907,0.0-6.0-0.0,925.0,"<div style=""display: flex; flex-direction: column; align-items: center; margin-top: -40px;""><img src=""images/demo_images/pattern_1.png"" style=""width: 234px; height: 230px; margin-top: -50px;""><div style=""display: flex; justify-content: space-between; margin-top: 33px;""><img src=""images/demo_images/choice_trial_1.png"" style=""width: 408px; height: 417px; margin-right: 200px;""><img src=""images/demo_images/choice_trial_2.png"" style=""width: 408px; height: 417px;""></div></div>",f,delaylearn,learning,trial,063W0lAHsGYvwngz6yld2CvNIwI2,063W0lAHsGYvwngz6yld2CvNIwI2,1.0,images/demo_images/choice_trial_1.png,images/demo_images/choice_trial_2.png,images/demo_images/pattern_1.png,j,f,3000.0,1.0,2.0,20.0,0.0,3.0,1.0,0.0,1.0,10.0,,,,,,5cf66ed8912f0b0017c50b52,09:07:15,27/02/2024
html-keyboard-response,13,22911,0.0-6.0-1.0,,"<div style=""display: flex; flex-direction: column; align-items: center; margin-top: -40px;""><img src=""images/demo_images/pattern_1.png"" style=""width: 234px; height: 230px; margin-top: -50px;""><div style=""display: flex; justify-content: space-between; margin-top: 33px;""><img src=""images/demo_images/choice_trial_1.png"" style=""width: 408px; height: 417px; margin-right: 608px;""></div></div>",,delaylearn,learning,display_response,063W0lAHsGYvwngz6yld2CvNIwI2,063W0lAHsGYvwngz6yld2CvNIwI2,,,,,,,,,,,,,,,,,chosen stimuli: images/demo_images/choice_trial_1.png,,,,,5cf66ed8912f0b0017c50b52,09:07:15,27/02/2024
html-keyboard-response,14,25913,0.0-6.0-2.0,,,,delaylearn,learning,feedback_duration_window,063W0lAHsGYvwngz6yld2CvNIwI2,063W0lAHsGYvwngz6yld2CvNIwI2,,,,,,,,,,,,,,,,,,3000.0,,,,5cf66ed8912f0b0017c50b52,09:07:15,27/02/2024
html-keyboard-response,15,27416,0.0-6.0-3.0,,<div style='margin:auto;width: auto; font-size: 150%'><span style='font-weight: bold; font-size: 100px; color: red;'>0 points!</span><br><br></div>,,delaylearn,learning,feedback_image_window,063W0lAHsGYvwngz6yld2CvNIwI2,063W0lAHsGYvwngz6yld2CvNIwI2,,,,,,,,,,,,,,,,,,,,,,5cf66ed8912f0b0017c50b52,09:07:15,27/02/2024
html-keyboard-response,16,29444,0.0-7.0,,"<div style=""font-size:100px;"">+</div>",,delaylearn,learning,ITI,063W0lAHsGYvwngz6yld2CvNIwI2,063W0lAHsGYvwngz6yld2CvNIwI2,,,,,,,,,,,,,,,,,,,2025.0,,,5cf66ed8912f0b0017c50b52,09:07:15,27/02/2024
html-keyboard-response,17,30186,0.0-8.0-0.0,736.9999999999418,"<div style=""display: flex; flex-direction: column; align-items: center; margin-top: -40px;""><img src=""images/demo_images/pattern_1.png"" style=""width: 234px; height: 230px; margin-top: -50px;""><div style=""display: flex; justify-content: space-between; margin-top: 33px;""><img src=""images/demo_images/choice_trial_1.png"" style=""width: 408px; height: 417px; margin-right: 200px;""><img src=""images/demo_images/choice_trial_2.png"" style=""width: 408px; height: 417px;""></div></div>",j,delaylearn,learning,trial,063W0lAHsGYvwngz6yld2CvNIwI2,063W0lAHsGYvwngz6yld2CvNIwI2,1.0,images/demo_images/choice_trial_1.png,images/demo_images/choice_trial_2.png,images/demo_images/pattern_1.png,f,f,3000.0,1.0,2.0,20.0,0.0,4.0,0.0,0.0,2.0,10.0,,,,,,5cf66ed8912f0b0017c50b52,09:07:15,27/02/2024
html-keyboard-response,18,31190,0.0-8.0-1.0,,"<div style=""display: flex; flex-direction: column; align-items: center; margin-top: -40px;""><img src=""images/demo_images/pattern_1.png"" style=""width: 234px; height: 230px; margin-top: -50px;""><div style=""display: flex; justify-content: space-between; margin-top: 33px;""><img src=""images/demo_images/choice_trial_2.png"" style=""width: 408px; height: 417px; margin-left:608px;""></div></div>",,delaylearn,learning,display_response,063W0lAHsGYvwngz6yld2CvNIwI2,063W0lAHsGYvwngz6yld2CvNIwI2,,,,,,,,,,,,,,,,,chosen stimuli: images/demo_images/choice_trial_2.png,,,,,5cf66ed8912f0b0017c50b52,09:07:15,27/02/2024
html-keyboard-response,19,34194,0.0-8.0-2.0,,,,delaylearn,learning,feedback_duration_window,063W0lAHsGYvwngz6yld2CvNIwI2,063W0lAHsGYvwngz6yld2CvNIwI2,,,,,,,,,,,,,,,,,,3000.0,,,,5cf66ed8912f0b0017c50b52,09:07:15,27/02/2024
html-keyboard-response,20,35698,0.0-8.0-3.0,,<div style='margin:auto;width: auto; font-size: 150%'><span style='font-weight: bold; font-size: 100px; color: red;'>0 points!</span><br><br></div>,,delaylearn,learning,feedback_image_window,063W0lAHsGYvwngz6yld2CvNIwI2,063W0lAHsGYvwngz6yld2CvNIwI2,,,,,,,,,,,,,,,,,,,,,,5cf66ed8912f0b0017c50b52,09:07:15,27/02/2024
html-keyboard-response,21,36201,0.0-9.0-0.0,,,,,,mood_trial_fixation,063W0lAHsGYvwngz6yld2CvNIwI2,,,,,,,,,,,,,,,,,,,,,,,5cf66ed8912f0b0017c50b52,09:07:15,27/02/2024
lmdlab-html-vas-response,22,42077,0.0-9.0-1.0,4866.0,How happy are you right now?,0.3425925925925926,delaylearn,learning,mood_trial,063W0lAHsGYvwngz6yld2CvNIwI2,063W0lAHsGYvwngz6yld2CvNIwI2,,,,,,,,,,,,,,,,,,,,"['Very unhappy', 'Very happy']",,5cf66ed8912f0b0017c50b52,09:07:15,27/02/2024
html-keyboard-response,23,44237,0.0-10.0,,"<div style=""font-size:100px;"">+</div>",,delaylearn,learning,ITI,063W0lAHsGYvwngz6yld2CvNIwI2,063W0lAHsGYvwngz6yld2CvNIwI2,,,,,,,,,,,,,,,,,,,2158.0,,,5cf66ed8912f0b0017c50b52,09:07:15,27/02/2024
html-keyboard-response,24,45161,0.0-11.0-0.0,920.0,"<div style=""display: flex; flex-direction: column; align-items: center; margin-top: -40px;""><img src=""images/demo_images/pattern_1.png"" style=""width: 234px; height: 230px; margin-top: -50px;""><div style=""display: flex; justify-content: space-between; margin-top: 33px;""><img src=""images/demo_images/choice_trial_2.png"" style=""width: 408px; height: 417px; margin-right: 200px;""><img src=""images/demo_images/choice_trial_1.png"" style=""width: 408px; height: 417px;""></div></div>",j,delaylearn,learning,trial,063W0lAHsGYvwngz6yld2CvNIwI2,063W0lAHsGYvwngz6yld2CvNIwI2,1.0,images/demo_images/choice_trial_2.png,images/demo_images/choice_trial_1.png,images/demo_images/pattern_1.png,j,j,3000.0,2.0,1.0,20.0,1.0,5.0,1.0,1.0,1.0,20.0,,,,,,5cf66ed8912f0b0017c50b52,09:07:15,27/02/2024
html-keyboard-response,25,46164,0.0-11.0-1.0,,"<div style=""display: flex; flex-direction: column; align-items: center; margin-top: -40px;""><img src=""images/demo_images/pattern_1.png"" style=""width: 234px; height: 230px; margin-top: -50px;""><div style=""display: flex; justify-content: space-between; margin-top: 33px;""><img src=""images/demo_images/choice_trial_1.png"" style=""width: 408px; height: 417px; margin-left:608px;""></div></div>",,delaylearn,learning,display_response,063W0lAHsGYvwngz6yld2CvNIwI2,063W0lAHsGYvwngz6yld2CvNIwI2,,,,,,,,,,,,,,,,,chosen stimuli: images/demo_images/choice_trial_1.png,,,,,5cf66ed8912f0b0017c50b52,09:07:15,27/02/2024
html-keyboard-response,26,49165,0.0-11.0-2.0,,,,delaylearn,learning,feedback_duration_window,063W0lAHsGYvwngz6yld2CvNIwI2,063W0lAHsGYvwngz6yld2CvNIwI2,,,,,,,,,,,,,,,,,,3000.0,,,,5cf66ed8912f0b0017c50b52,09:07:15,27/02/2024
html-keyboard-response,27,50668,0.0-11.0-3.0,,<div style='margin:auto;width: auto; font-size: 150%'><span style='font-weight: bold; font-size: 100px; color: green;'>+10 points!</span><br><br></div>,,delaylearn,learning,feedback_image_window,063W0lAHsGYvwngz6yld2CvNIwI2,063W0lAHsGYvwngz6yld2CvNIwI2,,,,,,,,,,,,,,,,,,,,,,5cf66ed8912f0b0017c50b52,09:07:15,27/02/2024
html-keyboard-response,28,52647,0.0-12.0,,"<div style=""font-size:100px;"">+</div>",,delaylearn,learning,ITI,063W0lAHsGYvwngz6yld2CvNIwI2,063W0lAHsGYvwngz6yld2CvNIwI2,,,,,,,,,,,,,,,,,,,1976.0,,,5cf66ed8912f0b0017c50b52,09:07:15,27/02/2024
html-keyboard-response,29,53619,0.0-13.0-0.0,970.0,"<div style=""display: flex; flex-direction: column; align-items: center; margin-top: -40px;""><img src=""images/demo_images/pattern_1.png"" style=""width: 234px; height: 230px; margin-top: -50px;""><div style=""display: flex; justify-content: space-between; margin-top: 33px;""><img src=""images/demo_images/choice_trial_1.png"" style=""width: 408px; height: 417px; margin-right: 200px;""><img src=""images/demo_images/choice_trial_2.png"" style=""width: 408px; height: 417px;""></div></div>",f,delaylearn,learning,trial,063W0lAHsGYvwngz6yld2CvNIwI2,063W0lAHsGYvwngz6yld2CvNIwI2,1.0,images/demo_images/choice_trial_1.png,images/demo_images/choice_trial_2.png,images/demo_images/pattern_1.png,f,f,3000.0,1.0,2.0,20.0,0.0,6.0,1.0,1.0,1.0,30.0,,,,,,5cf66ed8912f0b0017c50b52,09:07:15,27/02/2024
html-keyboard-response,30,54623,0.0-13.0-1.0,,"<div style=""display: flex; flex-direction: column; align-items: center; margin-top: -40px;""><img src=""images/demo_images/pattern_1.png"" style=""width: 234px; height: 230px; margin-top: -50px;""><div style=""display: flex; justify-content: space-between; margin-top: 33px;""><img src=""images/demo_images/choice_trial_1.png"" style=""width: 408px; height: 417px; margin-right: 608px;""></div></div>",,delaylearn,learning,display_response,063W0lAHsGYvwngz6yld2CvNIwI2,063W0lAHsGYvwngz6yld2CvNIwI2,,,,,,,,,,,,,,,,,chosen stimuli: images/demo_images/choice_trial_1.png,,,,,5cf66ed8912f0b0017c50b52,09:07:15,27/02/2024
html-keyboard-response,31,57625,0.0-13.0-2.0,,,,delaylearn,learning,feedback_duration_window,063W0lAHsGYvwngz6yld2CvNIwI2,063W0lAHsGYvwngz6yld2CvNIwI2,,,,,,,,,,,,,,,,,,3000.0,,,,5cf66ed8912f0b0017c50b52,09:07:15,27/02/2024
html-keyboard-response,32,59128,0.0-13.0-3.0,,<div style='margin:auto;width: auto; font-size: 150%'><span style='font-weight: bold; font-size: 100px; color: green;'>+10 points!</span><br><br></div>,,delaylearn,learning,feedback_image_window,063W0lAHsGYvwngz6yld2CvNIwI2,063W0lAHsGYvwngz6yld2CvNIwI2,,,,,,,,,,,,,,,,,,,,,,5cf66ed8912f0b0017c50b52,09:07:15,27/02/2024
html-button-response,33,61478,0.0-14.0,2346.0,"
  <div style=""display: flex; align-items: center; justify-content: center; height: 80vh;"">
  <div>
          <img src=""images/inst_demo_finish.png"" style=""width: 80vw; height:auto;"">
          <br><br>
      </div>
      <br><br>
  </div>",0,,,,063W0lAHsGYvwngz6yld2CvNIwI2,,,,,,,,,,,,,,,,,,,,,,,5cf66ed8912f0b0017c50b52,09:07:15,27/02/2024
html-keyboard-response,34,64630,0.0-15.0,3151.0,"
  <div style=""display: flex; align-items: center; justify-content: center; height: 80vh;"">
  <div>
          <img src=""images/inst_6.png"" style=""width: 80vw; height:auto;"">
          <br><br>
      </div>
      <br><br>
  </div>",f,,,,063W0lAHsGYvwngz6yld2CvNIwI2,,,,,,,,,,,,,,,,,,,,,,,5cf66ed8912f0b0017c50b52,09:07:15,27/02/2024
html-keyboard-response,35,67633,0.0-16.0,,"<div style=""font-size:100px;"">+</div>",,delaylearn,learning,pre_fixation,063W0lAHsGYvwngz6yld2CvNIwI2,,,,,,,,,,,,,,,,,,,,,,,5cf66ed8912f0b0017c50b52,09:07:15,27/02/2024
html-keyboard-response,36,70014,0.0-17.0,,"<div style=""font-size:100px;"">+</div>",,delaylearn,learning,ITI,063W0lAHsGYvwngz6yld2CvNIwI2,063W0lAHsGYvwngz6yld2CvNIwI2,,,,,,,,,,,,,,,,,,,2377.0,,,5cf66ed8912f0b0017c50b52,09:07:15,27/02/2024
html-keyboard-response,37,70984,0.0-18.0-0.0,968.0,"<div style=""display: flex; flex-direction: column; align-items: center; margin-top: -40px;""><img src=""images/pattern_3.png"" style=""width: 234px; height: 230px; margin-top: -50px;""><div style=""display: flex; justify-content: space-between; margin-top: 33px;""><img src=""images/choice_trial_5.png"" style=""width: 408px; height: 417px; margin-right: 200px;""><img src=""images/choice_trial_6.png"" style=""width: 408px; height: 417px;""></div></div>",j,delaylearn,learning,trial,063W0lAHsGYvwngz6yld2CvNIwI2,063W0lAHsGYvwngz6yld2CvNIwI2,1.0,images/choice_trial_5.png,images/choice_trial_6.png,images/pattern_3.png,f,f,7000.0,5.0,6.0,2.0,0.0,7.0,0.0,0.0,6.0,30.0,,,,,,5cf66ed8912f0b0017c50b52,09:07:15,27/02/2024
html-keyboard-response,38,71987,0.0-18.0-1.0,,"<div style=""display: flex; flex-direction: column; align-items: center; margin-top: -40px;""><img src=""images/pattern_3.png"" style=""width: 234px; height: 230px; margin-top: -50px;""><div style=""display: flex; justify-content: space-between; margin-top: 33px;""><img src=""images/choice_trial_6.png"" style=""width: 408px; height: 417px; margin-left:608px;""></div></div>",,delaylearn,learning,display_response,063W0lAHsGYvwngz6yld2CvNIwI2,063W0lAHsGYvwngz6yld2CvNIwI2,,,,,,,,,,,,,,,,,chosen stimuli: images/choice_trial_6.png,,,,,5cf66ed8912f0b0017c50b52,09:07:15,27/02/2024
html-keyboard-response,39,78990,0.0-18.0-2.0,,,,delaylearn,learning,feedback_duration_window,063W0lAHsGYvwngz6yld2CvNIwI2,063W0lAHsGYvwngz6yld2CvNIwI2,,,,,,,,,,,,,,,,,,7000.0,,,,5cf66ed8912f0b0017c50b52,09:07:15,27/02/2024
html-keyboard-response,40,80492,0.0-18.0-3.0,,<div style='margin:auto;width: auto; font-size: 150%'><span style='font-weight: bold; font-size: 100px; color: red;'>0 points!</span><br><br></div>,,delaylearn,learning,feedback_image_window,063W0lAHsGYvwngz6yld2CvNIwI2,063W0lAHsGYvwngz6yld2CvNIwI2,,,,,,,,,,,,,,,,,,,,,,5cf66ed8912f0b0017c50b52,09:07:15,27/02/2024
html-keyboard-response,41,82631,0.0-19.0,,"<div style=""font-size:100px;"">+</div>",,delaylearn,learning,ITI,063W0lAHsGYvwngz6yld2CvNIwI2,063W0lAHsGYvwngz6yld2CvNIwI2,,,,,,,,,,,,,,,,,,,2137.0,,,5cf66ed8912f0b0017c50b52,09:07:15,27/02/2024
html-keyboard-response,42,84034,0.0-20.0-0.0,1400.0,"<div style=""display: flex; flex-direction: column; align-items: center; margin-top: -40px;""><img src=""images/pattern_7.png"" style=""width: 234px; height: 230px; margin-top: -50px;""><div style=""display: flex; justify-content: space-between; margin-top: 33px;""><img src=""images/choice_trial_14.png"" style=""width: 408px; height: 417px; margin-right: 200px;""><img src=""images/choice_trial_13.png"" style=""width: 408px; height: 417px;""></div></div>",f,delaylearn,learning,trial,063W0lAHsGYvwngz6yld2CvNIwI2,063W0lAHsGYvwngz6yld2CvNIwI2,1.0,images/choice_trial_14.png,images/choice_trial_13.png,images/pattern_7.png,j,j,750.0,14.0,13.0,6.0,1.0,8.0,0.0,0.0,14.0,30.0,,,,,,5cf66ed8912f0b0017c50b52,09:07:15,27/02/2024
html-keyboard-response,43,85038,0.0-20.0-1.0,,"<div style=""display: flex; flex-direction: column; align-items: center; margin-top: -40px;""><img src=""images/pattern_7.png"" style=""width: 234px; height: 230px; margin-top: -50px;""><div style=""display: flex; justify-content: space-between; margin-top: 33px;""><img src=""images/choice_trial_14.png"" style=""width: 408px; height: 417px; margin-right: 608px;""></div></div>",,delaylearn,learning,display_response,063W0lAHsGYvwngz6yld2CvNIwI2,063W0lAHsGYvwngz6yld2CvNIwI2,,,,,,,,,,,,,,,,,chosen stimuli: images/choice_trial_14.png,,,,,5cf66ed8912f0b0017c50b52,09:07:15,27/02/2024
html-keyboard-response,44,85792,0.0-20.0-2.0,,,,delaylearn,learning,feedback_duration_window,063W0lAHsGYvwngz6yld2CvNIwI2,063W0lAHsGYvwngz6yld2CvNIwI2,,,,,,,,,,,,,,,,,,750.0,,,,5cf66ed8912f0b0017c50b52,09:07:15,27/02/2024
html-keyboard-response,45,87296,0.0-20.0-3.0,,<div style='margin:auto;width: auto; font-size: 150%'><span style='font-weight: bold; font-size: 100px; color: red;'>0 points!</span><br><br></div>,,delaylearn,learning,feedback_image_window,063W0lAHsGYvwngz6yld2CvNIwI2,063W0lAHsGYvwngz6yld2CvNIwI2,,,,,,,,,,,,,,,,,,,,,,5cf66ed8912f0b0017c50b52,09:07:15,27/02/2024
html-keyboard-response,46,88884,0.0-21.0,,"<div style=""font-size:100px;"">+</div>",,delaylearn,learning,ITI,063W0lAHsGYvwngz6yld2CvNIwI2,063W0lAHsGYvwngz6yld2CvNIwI2,,,,,,,,,,,,,,,,,,,1584.0,,,5cf66ed8912f0b0017c50b52,09:07:15,27/02/2024
html-keyboard-response,47,89958,0.0-22.0-0.0,1069.0,"<div style=""display: flex; flex-direction: column; align-items: center; margin-top: -40px;""><img src=""images/pattern_4.png"" style=""width: 234px; height: 230px; margin-top: -50px;""><div style=""display: flex; justify-content: space-between; margin-top: 33px;""><img src=""images/choice_trial_7.png"" style=""width: 408px; height: 417px; margin-right: 200px;""><img src=""images/choice_trial_8.png"" style=""width: 408px; height: 417px;""></div></div>",j,delaylearn,learning,trial,063W0lAHsGYvwngz6yld2CvNIwI2,063W0lAHsGYvwngz6yld2CvNIwI2,1.0,images/choice_trial_7.png,images/choice_trial_8.png,images/pattern_4.png,f,f,7000.0,7.0,8.0,3.0,0.0,9.0,0.0,0.0,8.0,30.0,,,,,,5cf66ed8912f0b0017c50b52,09:07:15,27/02/2024
html-keyboard-response,48,90960,0.0-22.0-1.0,,"<div style=""display: flex; flex-direction: column; align-items: center; margin-top: -40px;""><img src=""images/pattern_4.png"" style=""width: 234px; height: 230px; margin-top: -50px;""><div style=""display: flex; justify-content: space-between; margin-top: 33px;""><img src=""images/choice_trial_8.png"" style=""width: 408px; height: 417px; margin-left:608px;""></div></div>",,delaylearn,learning,display_response,063W0lAHsGYvwngz6yld2CvNIwI2,063W0lAHsGYvwngz6yld2CvNIwI2,,,,,,,,,,,,,,,,,chosen stimuli: images/choice_trial_8.png,,,,,5cf66ed8912f0b0017c50b52,09:07:15,27/02/2024
html-keyboard-response,49,97963,0.0-22.0-2.0,,,,delaylearn,learning,feedback_duration_window,063W0lAHsGYvwngz6yld2CvNIwI2,063W0lAHsGYvwngz6yld2CvNIwI2,,,,,,,,,,,,,,,,,,7000.0,,,,5cf66ed8912f0b0017c50b52,09:07:15,27/02/2024
html-keyboard-response,50,99466,0.0-22.0-3.0,,<div style='margin:auto;width: auto; font-size: 150%'><span style='font-weight: bold; font-size: 100px; color: red;'>0 points!</span><br><br></div>,,delaylearn,learning,feedback_image_window,063W0lAHsGYvwngz6yld2CvNIwI2,063W0lAHsGYvwngz6yld2CvNIwI2,,,,,,,,,,,,,,,,,,,,,,5cf66ed8912f0b0017c50b52,09:07:15,27/02/2024
html-keyboard-response,51,101817,0.0-23.0,,"<div style=""font-size:100px;"">+</div>",,delaylearn,learning,ITI,063W0lAHsGYvwngz6yld2CvNIwI2,063W0lAHsGYvwngz6yld2CvNIwI2,,,,,,,,,,,,,,,,,,,2349.0,,,5cf66ed8912f0b0017c50b52,09:07:15,27/02/2024
html-keyboard-response,52,102981,0.0-24.0-0.0,1161.0,"<div style=""display: flex; flex-direction: column; align-items: center; margin-top: -40px;""><img src=""images/pattern_5.png"" style=""width: 234px; height: 230px; margin-top: -50px;""><div style=""display: flex; justify-content: space-between; margin-top: 33px;""><img src=""images/choice_trial_10.png"" style=""width: 408px; height: 417px; margin-right: 200px;""><img src=""images/choice_trial_9.png"" style=""width: 408px; height: 417px;""></div></div>",j,delaylearn,learning,trial,063W0lAHsGYvwngz6yld2CvNIwI2,063W0lAHsGYvwngz6yld2CvNIwI2,1.0,images/choice_trial_10.png,images/choice_trial_9.png,images/pattern_5.png,j,j,750.0,10.0,9.0,4.0,1.0,10.0,1.0,1.0,9.0,40.0,,,,,,5cf66ed8912f0b0017c50b52,09:07:15,27/02/2024
html-keyboard-response,53,103984,0.0-24.0-1.0,,"<div style=""display: flex; flex-direction: column; align-items: center; margin-top: -40px;""><img src=""images/pattern_5.png"" style=""width: 234px; height: 230px; margin-top: -50px;""><div style=""display: flex; justify-content: space-between; margin-top: 33px;""><img src=""images/choice_trial_9.png"" style=""width: 408px; height: 417px; margin-left:608px;""></div></div>",,delaylearn,learning,display_response,063W0lAHsGYvwngz6yld2CvNIwI2,063W0lAHsGYvwngz6yld2CvNIwI2,,,,,,,,,,,,,,,,,chosen stimuli: images/choice_trial_9.png,,,,,5cf66ed8912f0b0017c50b52,09:07:15,27/02/2024
html-keyboard-response,54,104737,0.0-24.0-2.0,,,,delaylearn,learning,feedback_duration_window,063W0lAHsGYvwngz6yld2CvNIwI2,063W0lAHsGYvwngz6yld2CvNIwI2,,,,,,,,,,,,,,,,,,750.0,,,,5cf66ed8912f0b0017c50b52,09:07:15,27/02/2024
html-keyboard-response,55,106239,0.0-24.0-3.0,,<div style='margin:auto;width: auto; font-size: 150%'><span style='font-weight: bold; font-size: 100px; color: green;'>+10 points!</span><br><br></div>,,delaylearn,learning,feedback_image_window,063W0lAHsGYvwngz6yld2CvNIwI2,063W0lAHsGYvwngz6yld2CvNIwI2,,,,,,,,,,,,,,,,,,,,,,5cf66ed8912f0b0017c50b52,09:07:15,27/02/2024
html-keyboard-response,56,107984,0.0-25.0,,"<div style=""font-size:100px;"">+</div>",,delaylearn,learning,ITI,063W0lAHsGYvwngz6yld2CvNIwI2,063W0lAHsGYvwngz6yld2CvNIwI2,,,,,,,,,,,,,,,,,,,1742.0,,,5cf66ed8912f0b0017c50b52,09:07:15,27/02/2024
html-keyboard-response,57,109291,0.0-26.0-0.0,1303.0,"<div style=""display: flex; flex-direction: column; align-items: center; margin-top: -40px;""><img src=""images/pattern_6.png"" style=""width: 234px; height: 230px; margin-top: -50px;""><div style=""display: flex; justify-content: space-between; margin-top: 33px;""><img src=""images/choice_trial_11.png"" style=""width: 408px; height: 417px; margin-right: 200px;""><img src=""images/choice_trial_12.png"" style=""width: 408px; height: 417px;""></div></div>",f,delaylearn,learning,trial,063W0lAHsGYvwngz6yld2CvNIwI2,063W0lAHsGYvwngz6yld2CvNIwI2,1.0,images/choice_trial_11.png,images/choice_trial_12.png,images/pattern_6.png,j,f,750.0,11.0,12.0,5.0,0.0,11.0,1.0,0.0,11.0,40.0,,,,,,5cf66ed8912f0b0017c50b52,09:07:15,27/02/2024
html-keyboard-response,58,110294,0.0-26.0-1.0,,"<div style=""display: flex; flex-direction: column; align-items: center; margin-top: -40px;""><img src=""images/pattern_6.png"" style=""width: 234px; height: 230px; margin-top: -50px;""><div style=""display: flex; justify-content: space-between; margin-top: 33px;""><img src=""images/choice_trial_11.png"" style=""width: 408px; height: 417px; margin-right: 608px;""></div></div>",,delaylearn,learning,display_response,063W0lAHsGYvwngz6yld2CvNIwI2,063W0lAHsGYvwngz6yld2CvNIwI2,,,,,,,,,,,,,,,,,chosen stimuli: images/choice_trial_11.png,,,,,5cf66ed8912f0b0017c50b52,09:07:15,27/02/2024
html-keyboard-response,59,111045,0.0-26.0-2.0,,,,delaylearn,learning,feedback_duration_window,063W0lAHsGYvwngz6yld2CvNIwI2,063W0lAHsGYvwngz6yld2CvNIwI2,,,,,,,,,,,,,,,,,,750.0,,,,5cf66ed8912f0b0017c50b52,09:07:15,27/02/2024
html-keyboard-response,60,112547,0.0-26.0-3.0,,<div style='margin:auto;width: auto; font-size: 150%'><span style='font-weight: bold; font-size: 100px; color: red;'>0 points!</span><br><br></div>,,delaylearn,learning,feedback_image_window,063W0lAHsGYvwngz6yld2CvNIwI2,063W0lAHsGYvwngz6yld2CvNIwI2,,,,,,,,,,,,,,,,,,,,,,5cf66ed8912f0b0017c50b52,09:07:15,27/02/2024
html-keyboard-response,61,113050,0.0-27.0-0.0,,,,,,mood_trial_fixation,063W0lAHsGYvwngz6yld2CvNIwI2,,,,,,,,,,,,,,,,,,,,,,,5cf66ed8912f0b0017c50b52,09:07:15,27/02/2024
lmdlab-html-vas-response,62,117294,0.0-27.0-1.0,3238.0,How happy are you right now?,0.31851851851851853,delaylearn,learning,mood_trial,063W0lAHsGYvwngz6yld2CvNIwI2,063W0lAHsGYvwngz6yld2CvNIwI2,,,,,,,,,,,,,,,,,,,,"['Very unhappy', 'Very happy']",,5cf66ed8912f0b0017c50b52,09:07:15,27/02/2024
html-keyboard-response,63,119766,0.0-28.0,,"<div style=""font-size:100px;"">+</div>",,delaylearn,learning,ITI,063W0lAHsGYvwngz6yld2CvNIwI2,063W0lAHsGYvwngz6yld2CvNIwI2,,,,,,,,,,,,,,,,,,,2470.0,,,5cf66ed8912f0b0017c50b52,09:07:15,27/02/2024
html-keyboard-response,64,120750,0.0-29.0-0.0,981.0,"<div style=""display: flex; flex-direction: column; align-items: center; margin-top: -40px;""><img src=""images/pattern_1.png"" style=""width: 234px; height: 230px; margin-top: -50px;""><div style=""display: flex; justify-content: space-between; margin-top: 33px;""><img src=""images/choice_trial_2.png"" style=""width: 408px; height: 417px; margin-right: 200px;""><img src=""images/choice_trial_1.png"" style=""width: 408px; height: 417px;""></div></div>",f,delaylearn,learning,trial,063W0lAHsGYvwngz6yld2CvNIwI2,063W0lAHsGYvwngz6yld2CvNIwI2,1.0,images/choice_trial_2.png,images/choice_trial_1.png,images/pattern_1.png,j,j,7000.0,2.0,1.0,1.0,1.0,12.0,0.0,0.0,2.0,40.0,,,,,,5cf66ed8912f0b0017c50b52,09:07:15,27/02/2024
html-keyboard-response,65,121754,0.0-29.0-1.0,,"<div style=""display: flex; flex-direction: column; align-items: center; margin-top: -40px;""><img src=""images/pattern_1.png"" style=""width: 234px; height: 230px; margin-top: -50px;""><div style=""display: flex; justify-content: space-between; margin-top: 33px;""><img src=""images/choice_trial_2.png"" style=""width: 408px; height: 417px; margin-right: 608px;""></div></div>",,delaylearn,learning,display_response,063W0lAHsGYvwngz6yld2CvNIwI2,063W0lAHsGYvwngz6yld2CvNIwI2,,,,,,,,,,,,,,,,,chosen stimuli: images/choice_trial_2.png,,,,,5cf66ed8912f0b0017c50b52,09:07:15,27/02/2024
html-keyboard-response,66,128756,0.0-29.0-2.0,,,,delaylearn,learning,feedback_duration_window,063W0lAHsGYvwngz6yld2CvNIwI2,063W0lAHsGYvwngz6yld2CvNIwI2,,,,,,,,,,,,,,,,,,7000.0,,,,5cf66ed8912f0b0017c50b52,09:07:15,27/02/2024
html-keyboard-response,67,130258,0.0-29.0-3.0,,<div style='margin:auto;width: auto; font-size: 150%'><span style='font-weight: bold; font-size: 100px; color: red;'>0 points!</span><br><br></div>,,delaylearn,learning,feedback_image_window,063W0lAHsGYvwngz6yld2CvNIwI2,063W0lAHsGYvwngz6yld2CvNIwI2,,,,,,,,,,,,,,,,,,,,,,5cf66ed8912f0b0017c50b52,09:07:15,27/02/2024
html-keyboard-response,68,131919,0.0-30.0,,"<div style=""font-size:100px;"">+</div>",,delaylearn,learning,ITI,063W0lAHsGYvwngz6yld2CvNIwI2,063W0lAHsGYvwngz6yld2CvNIwI2,,,,,,,,,,,,,,,,,,,1659.0,,,5cf66ed8912f0b0017c50b52,09:07:15,27/02/2024
html-keyboard-response,69,132937,0.0-31.0-0.0,1013.0,"<div style=""display: flex; flex-direction: column; align-items: center; margin-top: -40px;""><img src=""images/pattern_3.png"" style=""width: 234px; height: 230px; margin-top: -50px;""><div style=""display: flex; justify-content: space-between; margin-top: 33px;""><img src=""images/choice_trial_6.png"" style=""width: 408px; height: 417px; margin-right: 200px;""><img src=""images/choice_trial_5.png"" style=""width: 408px; height: 417px;""></div></div>",j,delaylearn,learning,trial,063W0lAHsGYvwngz6yld2CvNIwI2,063W0lAHsGYvwngz6yld2CvNIwI2,1.0,images/choice_trial_6.png,images/choice_trial_5.png,images/pattern_3.png,f,j,7000.0,6.0,5.0,2.0,1.0,13.0,1.0,0.0,5.0,40.0,,,,,,5cf66ed8912f0b0017c50b52,09:07:15,27/02/2024
html-keyboard-response,70,133944,0.0-31.0-1.0,,"<div style=""display: flex; flex-direction: column; align-items: center; margin-top: -40px;""><img src=""images/pattern_3.png"" style=""width: 234px; height: 230px; margin-top: -50px;""><div style=""display: flex; justify-content: space-between; margin-top: 33px;""><img src=""images/choice_trial_5.png"" style=""width: 408px; height: 417px; margin-left:608px;""></div></div>",,delaylearn,learning,display_response,063W0lAHsGYvwngz6yld2CvNIwI2,063W0lAHsGYvwngz6yld2CvNIwI2,,,,,,,,,,,,,,,,,chosen stimuli: images/choice_trial_5.png,,,,,5cf66ed8912f0b0017c50b52,09:07:15,27/02/2024
html-keyboard-response,71,140948,0.0-31.0-2.0,,,,delaylearn,learning,feedback_duration_window,063W0lAHsGYvwngz6yld2CvNIwI2,063W0lAHsGYvwngz6yld2CvNIwI2,,,,,,,,,,,,,,,,,,7000.0,,,,5cf66ed8912f0b0017c50b52,09:07:15,27/02/2024
html-keyboard-response,72,142452,0.0-31.0-3.0,,<div style='margin:auto;width: auto; font-size: 150%'><span style='font-weight: bold; font-size: 100px; color: red;'>0 points!</span><br><br></div>,,delaylearn,learning,feedback_image_window,063W0lAHsGYvwngz6yld2CvNIwI2,063W0lAHsGYvwngz6yld2CvNIwI2,,,,,,,,,,,,,,,,,,,,,,5cf66ed8912f0b0017c50b52,09:07:15,27/02/2024
html-keyboard-response,73,144693,0.0-32.0,,"<div style=""font-size:100px;"">+</div>",,delaylearn,learning,ITI,063W0lAHsGYvwngz6yld2CvNIwI2,063W0lAHsGYvwngz6yld2CvNIwI2,,,,,,,,,,,,,,,,,,,2237.0,,,5cf66ed8912f0b0017c50b52,09:07:15,27/02/2024
html-keyboard-response,74,145952,0.0-33.0-0.0,1253.0,"<div style=""display: flex; flex-direction: column; align-items: center; margin-top: -40px;""><img src=""images/pattern_5.png"" style=""width: 234px; height: 230px; margin-top: -50px;""><div style=""display: flex; justify-content: space-between; margin-top: 33px;""><img src=""images/choice_trial_9.png"" style=""width: 408px; height: 417px; margin-right: 200px;""><img src=""images/choice_trial_10.png"" style=""width: 408px; height: 417px;""></div></div>",f,delaylearn,learning,trial,063W0lAHsGYvwngz6yld2CvNIwI2,063W0lAHsGYvwngz6yld2CvNIwI2,1.0,images/choice_trial_9.png,images/choice_trial_10.png,images/pattern_5.png,f,f,750.0,9.0,10.0,4.0,0.0,14.0,1.0,1.0,9.0,50.0,,,,,,5cf66ed8912f0b0017c50b52,09:07:15,27/02/2024
html-keyboard-response,75,146954,0.0-33.0-1.0,,"<div style=""display: flex; flex-direction: column; align-items: center; margin-top: -40px;""><img src=""images/pattern_5.png"" style=""width: 234px; height: 230px; margin-top: -50px;""><div style=""display: flex; justify-content: space-between; margin-top: 33px;""><img src=""images/choice_trial_9.png"" style=""width: 408px; height: 417px; margin-right: 608px;""></div></div>",,delaylearn,learning,display_response,063W0lAHsGYvwngz6yld2CvNIwI2,063W0lAHsGYvwngz6yld2CvNIwI2,,,,,,,,,,,,,,,,,chosen stimuli: images/choice_trial_9.png,,,,,5cf66ed8912f0b0017c50b52,09:07:15,27/02/2024
html-keyboard-response,76,147707,0.0-33.0-2.0,,,,delaylearn,learning,feedback_duration_window,063W0lAHsGYvwngz6yld2CvNIwI2,063W0lAHsGYvwngz6yld2CvNIwI2,,,,,,,,,,,,,,,,,,750.0,,,,5cf66ed8912f0b0017c50b52,09:07:15,27/02/2024
html-keyboard-response,77,149211,0.0-33.0-3.0,,<div style='margin:auto;width: auto; font-size: 150%'><span style='font-weight: bold; font-size: 100px; color: green;'>+10 points!</span><br><br></div>,,delaylearn,learning,feedback_image_window,063W0lAHsGYvwngz6yld2CvNIwI2,063W0lAHsGYvwngz6yld2CvNIwI2,,,,,,,,,,,,,,,,,,,,,,5cf66ed8912f0b0017c50b52,09:07:15,27/02/2024
html-keyboard-response,78,149713,0.0-34.0-0.0,,,,,,mood_trial_fixation,063W0lAHsGYvwngz6yld2CvNIwI2,,,,,,,,,,,,,,,,,,,,,,,5cf66ed8912f0b0017c50b52,09:07:15,27/02/2024
lmdlab-html-vas-response,79,153810,0.0-34.0-1.0,3091.0,How happy are you right now?,0.30185185185185187,delaylearn,learning,mood_trial,063W0lAHsGYvwngz6yld2CvNIwI2,063W0lAHsGYvwngz6yld2CvNIwI2,,,,,,,,,,,,,,,,,,,,"['Very unhappy', 'Very happy']",,5cf66ed8912f0b0017c50b52,09:07:15,27/02/2024
html-keyboard-response,80,155652,0.0-35.0,,"<div style=""font-size:100px;"">+</div>",,delaylearn,learning,ITI,063W0lAHsGYvwngz6yld2CvNIwI2,063W0lAHsGYvwngz6yld2CvNIwI2,,,,,,,,,,,,,,,,,,,1840.0,,,5cf66ed8912f0b0017c50b52,09:07:15,27/02/2024
html-keyboard-response,81,156950,0.0-36.0-0.0,1294.9999999999418,"<div style=""display: flex; flex-direction: column; align-items: center; margin-top: -40px;""><img src=""images/pattern_6.png"" style=""width: 234px; height: 230px; margin-top: -50px;""><div style=""display: flex; justify-content: space-between; margin-top: 33px;""><img src=""images/choice_trial_11.png"" style=""width: 408px; height: 417px; margin-right: 200px;""><img src=""images/choice_trial_12.png"" style=""width: 408px; height: 417px;""></div></div>",f,delaylearn,learning,trial,063W0lAHsGYvwngz6yld2CvNIwI2,063W0lAHsGYvwngz6yld2CvNIwI2,1.0,images/choice_trial_11.png,images/choice_trial_12.png,images/pattern_6.png,f,f,750.0,11.0,12.0,5.0,0.0,15.0,1.0,1.0,11.0,60.0,,,,,,5cf66ed8912f0b0017c50b52,09:07:15,27/02/2024
html-keyboard-response,82,157953,0.0-36.0-1.0,,"<div style=""display: flex; flex-direction: column; align-items: center; margin-top: -40px;""><img src=""images/pattern_6.png"" style=""width: 234px; height: 230px; margin-top: -50px;""><div style=""display: flex; justify-content: space-between; margin-top: 33px;""><img src=""images/choice_trial_11.png"" style=""width: 408px; height: 417px; margin-right: 608px;""></div></div>",,delaylearn,learning,display_response,063W0lAHsGYvwngz6yld2CvNIwI2,063W0lAHsGYvwngz6yld2CvNIwI2,,,,,,,,,,,,,,,,,chosen stimuli: images/choice_trial_11.png,,,,,5cf66ed8912f0b0017c50b52,09:07:15,27/02/2024
html-keyboard-response,83,158706,0.0-36.0-2.0,,,,delaylearn,learning,feedback_duration_window,063W0lAHsGYvwngz6yld2CvNIwI2,063W0lAHsGYvwngz6yld2CvNIwI2,,,,,,,,,,,,,,,,,,750.0,,,,5cf66ed8912f0b0017c50b52,09:07:15,27/02/2024
html-keyboard-response,84,160209,0.0-36.0-3.0,,<div style='margin:auto;width: auto; font-size: 150%'><span style='font-weight: bold; font-size: 100px; color: green;'>+10 points!</span><br><br></div>,,delaylearn,learning,feedback_image_window,063W0lAHsGYvwngz6yld2CvNIwI2,063W0lAHsGYvwngz6yld2CvNIwI2,,,,,,,,,,,,,,,,,,,,,,5cf66ed8912f0b0017c50b52,09:07:15,27/02/2024
html-keyboard-response,85,162109,0.0-37.0,,"<div style=""font-size:100px;"">+</div>",,delaylearn,learning,ITI,063W0lAHsGYvwngz6yld2CvNIwI2,063W0lAHsGYvwngz6yld2CvNIwI2,,,,,,,,,,,,,,,,,,,1897.0,,,5cf66ed8912f0b0017c50b52,09:07:15,27/02/2024
html-keyboard-response,86,163628,0.0-38.0-0.0,1516.0,"<div style=""display: flex; flex-direction: column; align-items: center; margin-top: -40px;""><img src=""images/pattern_4.png"" style=""width: 234px; height: 230px; margin-top: -50px;""><div style=""display: flex; justify-content: space-between; margin-top: 33px;""><img src=""images/choice_trial_8.png"" style=""width: 408px; height: 417px; margin-right: 200px;""><img src=""images/choice_trial_7.png"" style=""width: 408px; height: 417px;""></div></div>",f,delaylearn,learning,trial,063W0lAHsGYvwngz6yld2CvNIwI2,063W0lAHsGYvwngz6yld2CvNIwI2,1.0,images/choice_trial_8.png,images/choice_trial_7.png,images/pattern_4.png,j,j,7000.0,8.0,7.0,3.0,1.0,16.0,0.0,0.0,8.0,60.0,,,,,,5cf66ed8912f0b0017c50b52,09:07:15,27/02/2024
html-keyboard-response,87,164632,0.0-38.0-1.0,,"<div style=""display: flex; flex-direction: column; align-items: center; margin-top: -40px;""><img src=""images/pattern_4.png"" style=""width: 234px; height: 230px; margin-top: -50px;""><div style=""display: flex; justify-content: space-between; margin-top: 33px;""><img src=""images/choice_trial_8.png"" style=""width: 408px; height: 417px; margin-right: 608px;""></div></div>",,delaylearn,learning,display_response,063W0lAHsGYvwngz6yld2CvNIwI2,063W0lAHsGYvwngz6yld2CvNIwI2,,,,,,,,,,,,,,,,,chosen stimuli: images/choice_trial_8.png,,,,,5cf66ed8912f0b0017c50b52,09:07:15,27/02/2024
html-keyboard-response,88,171633,0.0-38.0-2.0,,,,delaylearn,learning,feedback_duration_window,063W0lAHsGYvwngz6yld2CvNIwI2,063W0lAHsGYvwngz6yld2CvNIwI2,,,,,,,,,,,,,,,,,,7000.0,,,,5cf66ed8912f0b0017c50b52,09:07:15,27/02/2024
html-keyboard-response,89,173136,0.0-38.0-3.0,,<div style='margin:auto;width: auto; font-size: 150%'><span style='font-weight: bold; font-size: 100px; color: red;'>0 points!</span><br><br></div>,,delaylearn,learning,feedback_image_window,063W0lAHsGYvwngz6yld2CvNIwI2,063W0lAHsGYvwngz6yld2CvNIwI2,,,,,,,,,,,,,,,,,,,,,,5cf66ed8912f0b0017c50b52,09:07:15,27/02/2024
html-keyboard-response,90,175419,0.0-39.0,,"<div style=""font-size:100px;"">+</div>",,delaylearn,learning,ITI,063W0lAHsGYvwngz6yld2CvNIwI2,063W0lAHsGYvwngz6yld2CvNIwI2,,,,,,,,,,,,,,,,,,,2281.0,,,5cf66ed8912f0b0017c50b52,09:07:15,27/02/2024
html-keyboard-response,91,176983,0.0-40.0-0.0,1561.0,"<div style=""display: flex; flex-direction: column; align-items: center; margin-top: -40px;""><img src=""images/pattern_7.png"" style=""width: 234px; height: 230px; margin-top: -50px;""><div style=""display: flex; justify-content: space-between; margin-top: 33px;""><img src=""images/choice_trial_13.png"" style=""width: 408px; height: 417px; margin-right: 200px;""><img src=""images/choice_trial_14.png"" style=""width: 408px; height: 417px;""></div></div>",j,delaylearn,learning,trial,063W0lAHsGYvwngz6yld2CvNIwI2,063W0lAHsGYvwngz6yld2CvNIwI2,1.0,images/choice_trial_13.png,images/choice_trial_14.png,images/pattern_7.png,j,f,750.0,13.0,14.0,6.0,0.0,17.0,0.0,1.0,14.0,70.0,,,,,,5cf66ed8912f0b0017c50b52,09:07:15,27/02/2024
html-keyboard-response,92,177987,0.0-40.0-1.0,,"<div style=""display: flex; flex-direction: column; align-items: center; margin-top: -40px;""><img src=""images/pattern_7.png"" style=""width: 234px; height: 230px; margin-top: -50px;""><div style=""display: flex; justify-content: space-between; margin-top: 33px;""><img src=""images/choice_trial_14.png"" style=""width: 408px; height: 417px; margin-left:608px;""></div></div>",,delaylearn,learning,display_response,063W0lAHsGYvwngz6yld2CvNIwI2,063W0lAHsGYvwngz6yld2CvNIwI2,,,,,,,,,,,,,,,,,chosen stimuli: images/choice_trial_14.png,,,,,5cf66ed8912f0b0017c50b52,09:07:15,27/02/2024
html-keyboard-response,93,178739,0.0-40.0-2.0,,,,delaylearn,learning,feedback_duration_window,063W0lAHsGYvwngz6yld2CvNIwI2,063W0lAHsGYvwngz6yld2CvNIwI2,,,,,,,,,,,,,,,,,,750.0,,,,5cf66ed8912f0b0017c50b52,09:07:15,27/02/2024
html-keyboard-response,94,180241,0.0-40.0-3.0,,<div style='margin:auto;width: auto; font-size: 150%'><span style='font-weight: bold; font-size: 100px; color: green;'>+10 points!</span><br><br></div>,,delaylearn,learning,feedback_image_window,063W0lAHsGYvwngz6yld2CvNIwI2,063W0lAHsGYvwngz6yld2CvNIwI2,,,,,,,,,,,,,,,,,,,,,,5cf66ed8912f0b0017c50b52,09:07:15,27/02/2024
html-keyboard-response,95,182461,0.0-41.0,,"<div style=""font-size:100px;"">+</div>",,delaylearn,learning,ITI,063W0lAHsGYvwngz6yld2CvNIwI2,063W0lAHsGYvwngz6yld2CvNIwI2,,,,,,,,,,,,,,,,,,,2217.0,,,5cf66ed8912f0b0017c50b52,09:07:15,27/02/2024
html-keyboard-response,96,183659,0.0-42.0-0.0,1193.0,"<div style=""display: flex; flex-direction: column; align-items: center; margin-top: -40px;""><img src=""images/pattern_1.png"" style=""width: 234px; height: 230px; margin-top: -50px;""><div style=""display: flex; justify-content: space-between; margin-top: 33px;""><img src=""images/choice_trial_1.png"" style=""width: 408px; height: 417px; margin-right: 200px;""><img src=""images/choice_trial_2.png"" style=""width: 408px; height: 417px;""></div></div>",j,delaylearn,learning,trial,063W0lAHsGYvwngz6yld2CvNIwI2,063W0lAHsGYvwngz6yld2CvNIwI2,1.0,images/choice_trial_1.png,images/choice_trial_2.png,images/pattern_1.png,f,f,7000.0,1.0,2.0,1.0,0.0,18.0,0.0,0.0,2.0,70.0,,,,,,5cf66ed8912f0b0017c50b52,09:07:15,27/02/2024
html-keyboard-response,97,184663,0.0-42.0-1.0,,"<div style=""display: flex; flex-direction: column; align-items: center; margin-top: -40px;""><img src=""images/pattern_1.png"" style=""width: 234px; height: 230px; margin-top: -50px;""><div style=""display: flex; justify-content: space-between; margin-top: 33px;""><img src=""images/choice_trial_2.png"" style=""width: 408px; height: 417px; margin-left:608px;""></div></div>",,delaylearn,learning,display_response,063W0lAHsGYvwngz6yld2CvNIwI2,063W0lAHsGYvwngz6yld2CvNIwI2,,,,,,,,,,,,,,,,,chosen stimuli: images/choice_trial_2.png,,,,,5cf66ed8912f0b0017c50b52,09:07:15,27/02/2024
html-keyboard-response,98,191667,0.0-42.0-2.0,,,,delaylearn,learning,feedback_duration_window,063W0lAHsGYvwngz6yld2CvNIwI2,063W0lAHsGYvwngz6yld2CvNIwI2,,,,,,,,,,,,,,,,,,7000.0,,,,5cf66ed8912f0b0017c50b52,09:07:15,27/02/2024
html-keyboard-response,99,193170,0.0-42.0-3.0,,<div style='margin:auto;width: auto; font-size: 150%'><span style='font-weight: bold; font-size: 100px; color: red;'>0 points!</span><br><br></div>,,delaylearn,learning,feedback_image_window,063W0lAHsGYvwngz6yld2CvNIwI2,063W0lAHsGYvwngz6yld2CvNIwI2,,,,,,,,,,,,,,,,,,,,,,5cf66ed8912f0b0017c50b52,09:07:15,27/02/2024
html-keyboard-response,100,194743,0.0-43.0,,"<div style=""font-size:100px;"">+</div>",,delaylearn,learning,ITI,063W0lAHsGYvwngz6yld2CvNIwI2,063W0lAHsGYvwngz6yld2CvNIwI2,,,,,,,,,,,,,,,,,,,1570.0,,,5cf66ed8912f0b0017c50b52,09:07:15,27/02/2024
html-keyboard-response,101,195781,0.0-44.0-0.0,1034.0,"<div style=""display: flex; flex-direction: column; align-items: center; margin-top: -40px;""><img src=""images/pattern_6.png"" style=""width: 234px; height: 230px; margin-top: -50px;""><div style=""display: flex; justify-content: space-between; margin-top: 33px;""><img src=""images/choice_trial_12.png"" style=""width: 408px; height: 417px; margin-right: 200px;""><img src=""images/choice_trial_11.png"" style=""width: 408px; height: 417px;""></div></div>",j,delaylearn,learning,trial,063W0lAHsGYvwngz6yld2CvNIwI2,063W0lAHsGYvwngz6yld2CvNIwI2,1.0,images/choice_trial_12.png,images/choice_trial_11.png,images/pattern_6.png,j,j,750.0,12.0,11.0,5.0,1.0,19.0,1.0,1.0,11.0,80.0,,,,,,5cf66ed8912f0b0017c50b52,09:07:15,27/02/2024
html-keyboard-response,102,196784,0.0-44.0-1.0,,"<div style=""display: flex; flex-direction: column; align-items: center; margin-top: -40px;""><img src=""images/pattern_6.png"" style=""width: 234px; height: 230px; margin-top: -50px;""><div style=""display: flex; justify-content: space-between; margin-top: 33px;""><img src=""images/choice_trial_11.png"" style=""width: 408px; height: 417px; margin-left:608px;""></div></div>",,delaylearn,learning,display_response,063W0lAHsGYvwngz6yld2CvNIwI2,063W0lAHsGYvwngz6yld2CvNIwI2,,,,,,,,,,,,,,,,,chosen stimuli: images/choice_trial_11.png,,,,,5cf66ed8912f0b0017c50b52,09:07:15,27/02/2024
html-keyboard-response,103,197537,0.0-44.0-2.0,,,,delaylearn,learning,feedback_duration_window,063W0lAHsGYvwngz6yld2CvNIwI2,063W0lAHsGYvwngz6yld2CvNIwI2,,,,,,,,,,,,,,,,,,750.0,,,,5cf66ed8912f0b0017c50b52,09:07:15,27/02/2024
html-keyboard-response,104,199040,0.0-44.0-3.0,,<div style='margin:auto;width: auto; font-size: 150%'><span style='font-weight: bold; font-size: 100px; color: green;'>+10 points!</span><br><br></div>,,delaylearn,learning,feedback_image_window,063W0lAHsGYvwngz6yld2CvNIwI2,063W0lAHsGYvwngz6yld2CvNIwI2,,,,,,,,,,,,,,,,,,,,,,5cf66ed8912f0b0017c50b52,09:07:15,27/02/2024
html-keyboard-response,105,200879,0.0-45.0,,"<div style=""font-size:100px;"">+</div>",,delaylearn,learning,ITI,063W0lAHsGYvwngz6yld2CvNIwI2,063W0lAHsGYvwngz6yld2CvNIwI2,,,,,,,,,,,,,,,,,,,1837.0,,,5cf66ed8912f0b0017c50b52,09:07:15,27/02/2024
html-keyboard-response,106,201999,0.0-46.0-0.0,1117.0000000000582,"<div style=""display: flex; flex-direction: column; align-items: center; margin-top: -40px;""><img src=""images/pattern_4.png"" style=""width: 234px; height: 230px; margin-top: -50px;""><div style=""display: flex; justify-content: space-between; margin-top: 33px;""><img src=""images/choice_trial_7.png"" style=""width: 408px; height: 417px; margin-right: 200px;""><img src=""images/choice_trial_8.png"" style=""width: 408px; height: 417px;""></div></div>",j,delaylearn,learning,trial,063W0lAHsGYvwngz6yld2CvNIwI2,063W0lAHsGYvwngz6yld2CvNIwI2,1.0,images/choice_trial_7.png,images/choice_trial_8.png,images/pattern_4.png,f,f,7000.0,7.0,8.0,3.0,0.0,20.0,0.0,0.0,8.0,80.0,,,,,,5cf66ed8912f0b0017c50b52,09:07:15,27/02/2024
html-keyboard-response,107,203003,0.0-46.0-1.0,,"<div style=""display: flex; flex-direction: column; align-items: center; margin-top: -40px;""><img src=""images/pattern_4.png"" style=""width: 234px; height: 230px; margin-top: -50px;""><div style=""display: flex; justify-content: space-between; margin-top: 33px;""><img src=""images/choice_trial_8.png"" style=""width: 408px; height: 417px; margin-left:608px;""></div></div>",,delaylearn,learning,display_response,063W0lAHsGYvwngz6yld2CvNIwI2,063W0lAHsGYvwngz6yld2CvNIwI2,,,,,,,,,,,,,,,,,chosen stimuli: images/choice_trial_8.png,,,,,5cf66ed8912f0b0017c50b52,09:07:15,27/02/2024
html-keyboard-response,108,210006,0.0-46.0-2.0,,,,delaylearn,learning,feedback_duration_window,063W0lAHsGYvwngz6yld2CvNIwI2,063W0lAHsGYvwngz6yld2CvNIwI2,,,,,,,,,,,,,,,,,,7000.0,,,,5cf66ed8912f0b0017c50b52,09:07:15,27/02/2024
html-keyboard-response,109,211509,0.0-46.0-3.0,,<div style='margin:auto;width: auto; font-size: 150%'><span style='font-weight: bold; font-size: 100px; color: red;'>0 points!</span><br><br></div>,,delaylearn,learning,feedback_image_window,063W0lAHsGYvwngz6yld2CvNIwI2,063W0lAHsGYvwngz6yld2CvNIwI2,,,,,,,,,,,,,,,,,,,,,,5cf66ed8912f0b0017c50b52,09:07:15,27/02/2024
html-keyboard-response,110,212012,0.0-47.0-0.0,,,,,,mood_trial_fixation,063W0lAHsGYvwngz6yld2CvNIwI2,,,,,,,,,,,,,,,,,,,,,,,5cf66ed8912f0b0017c50b52,09:07:15,27/02/2024
lmdlab-html-vas-response,111,218228,0.0-47.0-1.0,5209.0,How happy are you right now?,0.32407407407407407,delaylearn,learning,mood_trial,063W0lAHsGYvwngz6yld2CvNIwI2,063W0lAHsGYvwngz6yld2CvNIwI2,,,,,,,,,,,,,,,,,,,,"['Very unhappy', 'Very happy']",,5cf66ed8912f0b0017c50b52,09:07:15,27/02/2024
html-keyboard-response,112,220060,0.0-48.0,,"<div style=""font-size:100px;"">+</div>",,delaylearn,learning,ITI,063W0lAHsGYvwngz6yld2CvNIwI2,063W0lAHsGYvwngz6yld2CvNIwI2,,,,,,,,,,,,,,,,,,,1830.0,,,5cf66ed8912f0b0017c50b52,09:07:15,27/02/2024
html-keyboard-response,113,221276,0.0-49.0-0.0,1211.9999999999418,"<div style=""display: flex; flex-direction: column; align-items: center; margin-top: -40px;""><img src=""images/pattern_7.png"" style=""width: 234px; height: 230px; margin-top: -50px;""><div style=""display: flex; justify-content: space-between; margin-top: 33px;""><img src=""images/choice_trial_14.png"" style=""width: 408px; height: 417px; margin-right: 200px;""><img src=""images/choice_trial_13.png"" style=""width: 408px; height: 417px;""></div></div>",j,delaylearn,learning,trial,063W0lAHsGYvwngz6yld2CvNIwI2,063W0lAHsGYvwngz6yld2CvNIwI2,1.0,images/choice_trial_14.png,images/choice_trial_13.png,images/pattern_7.png,j,j,750.0,14.0,13.0,6.0,1.0,21.0,1.0,1.0,13.0,90.0,,,,,,5cf66ed8912f0b0017c50b52,09:07:15,27/02/2024
html-keyboard-response,114,222279,0.0-49.0-1.0,,"<div style=""display: flex; flex-direction: column; align-items: center; margin-top: -40px;""><img src=""images/pattern_7.png"" style=""width: 234px; height: 230px; margin-top: -50px;""><div style=""display: flex; justify-content: space-between; margin-top: 33px;""><img src=""images/choice_trial_13.png"" style=""width: 408px; height: 417px; margin-left:608px;""></div></div>",,delaylearn,learning,display_response,063W0lAHsGYvwngz6yld2CvNIwI2,063W0lAHsGYvwngz6yld2CvNIwI2,,,,,,,,,,,,,,,,,chosen stimuli: images/choice_trial_13.png,,,,,5cf66ed8912f0b0017c50b52,09:07:15,27/02/2024
html-keyboard-response,115,223032,0.0-49.0-2.0,,,,delaylearn,learning,feedback_duration_window,063W0lAHsGYvwngz6yld2CvNIwI2,063W0lAHsGYvwngz6yld2CvNIwI2,,,,,,,,,,,,,,,,,,750.0,,,,5cf66ed8912f0b0017c50b52,09:07:15,27/02/2024
html-keyboard-response,116,224535,0.0-49.0-3.0,,<div style='margin:auto;width: auto; font-size: 150%'><span style='font-weight: bold; font-size: 100px; color: green;'>+10 points!</span><br><br></div>,,delaylearn,learning,feedback_image_window,063W0lAHsGYvwngz6yld2CvNIwI2,063W0lAHsGYvwngz6yld2CvNIwI2,,,,,,,,,,,,,,,,,,,,,,5cf66ed8912f0b0017c50b52,09:07:15,27/02/2024
html-keyboard-response,117,226703,0.0-50.0,,"<div style=""font-size:100px;"">+</div>",,delaylearn,learning,ITI,063W0lAHsGYvwngz6yld2CvNIwI2,063W0lAHsGYvwngz6yld2CvNIwI2,,,,,,,,,,,,,,,,,,,2166.0,,,5cf66ed8912f0b0017c50b52,09:07:15,27/02/2024
html-keyboard-response,118,227899,0.0-51.0-0.0,1192.9999999999418,"<div style=""display: flex; flex-direction: column; align-items: center; margin-top: -40px;""><img src=""images/pattern_1.png"" style=""width: 234px; height: 230px; margin-top: -50px;""><div style=""display: flex; justify-content: space-between; margin-top: 33px;""><img src=""images/choice_trial_2.png"" style=""width: 408px; height: 417px; margin-right: 200px;""><img src=""images/choice_trial_1.png"" style=""width: 408px; height: 417px;""></div></div>",j,delaylearn,learning,trial,063W0lAHsGYvwngz6yld2CvNIwI2,063W0lAHsGYvwngz6yld2CvNIwI2,1.0,images/choice_trial_2.png,images/choice_trial_1.png,images/pattern_1.png,f,j,7000.0,2.0,1.0,1.0,1.0,22.0,1.0,0.0,1.0,90.0,,,,,,5cf66ed8912f0b0017c50b52,09:07:15,27/02/2024
html-keyboard-response,119,228901,0.0-51.0-1.0,,"<div style=""display: flex; flex-direction: column; align-items: center; margin-top: -40px;""><img src=""images/pattern_1.png"" style=""width: 234px; height: 230px; margin-top: -50px;""><div style=""display: flex; justify-content: space-between; margin-top: 33px;""><img src=""images/choice_trial_1.png"" style=""width: 408px; height: 417px; margin-left:608px;""></div></div>",,delaylearn,learning,display_response,063W0lAHsGYvwngz6yld2CvNIwI2,063W0lAHsGYvwngz6yld2CvNIwI2,,,,,,,,,,,,,,,,,chosen stimuli: images/choice_trial_1.png,,,,,5cf66ed8912f0b0017c50b52,09:07:15,27/02/2024
html-keyboard-response,120,235903,0.0-51.0-2.0,,,,delaylearn,learning,feedback_duration_window,063W0lAHsGYvwngz6yld2CvNIwI2,063W0lAHsGYvwngz6yld2CvNIwI2,,,,,,,,,,,,,,,,,,7000.0,,,,5cf66ed8912f0b0017c50b52,09:07:15,27/02/2024
html-keyboard-response,121,237405,0.0-51.0-3.0,,<div style='margin:auto;width: auto; font-size: 150%'><span style='font-weight: bold; font-size: 100px; color: red;'>0 points!</span><br><br></div>,,delaylearn,learning,feedback_image_window,063W0lAHsGYvwngz6yld2CvNIwI2,063W0lAHsGYvwngz6yld2CvNIwI2,,,,,,,,,,,,,,,,,,,,,,5cf66ed8912f0b0017c50b52,09:07:15,27/02/2024
html-keyboard-response,122,239775,0.0-52.0,,"<div style=""font-size:100px;"">+</div>",,delaylearn,learning,ITI,063W0lAHsGYvwngz6yld2CvNIwI2,063W0lAHsGYvwngz6yld2CvNIwI2,,,,,,,,,,,,,,,,,,,2367.0,,,5cf66ed8912f0b0017c50b52,09:07:15,27/02/2024
html-keyboard-response,123,240946,0.0-53.0-0.0,1164.0,"<div style=""display: flex; flex-direction: column; align-items: center; margin-top: -40px;""><img src=""images/pattern_5.png"" style=""width: 234px; height: 230px; margin-top: -50px;""><div style=""display: flex; justify-content: space-between; margin-top: 33px;""><img src=""images/choice_trial_10.png"" style=""width: 408px; height: 417px; margin-right: 200px;""><img src=""images/choice_trial_9.png"" style=""width: 408px; height: 417px;""></div></div>",f,delaylearn,learning,trial,063W0lAHsGYvwngz6yld2CvNIwI2,063W0lAHsGYvwngz6yld2CvNIwI2,1.0,images/choice_trial_10.png,images/choice_trial_9.png,images/pattern_5.png,j,j,750.0,10.0,9.0,4.0,1.0,23.0,0.0,0.0,10.0,90.0,,,,,,5cf66ed8912f0b0017c50b52,09:07:15,27/02/2024
html-keyboard-response,124,241950,0.0-53.0-1.0,,"<div style=""display: flex; flex-direction: column; align-items: center; margin-top: -40px;""><img src=""images/pattern_5.png"" style=""width: 234px; height: 230px; margin-top: -50px;""><div style=""display: flex; justify-content: space-between; margin-top: 33px;""><img src=""images/choice_trial_10.png"" style=""width: 408px; height: 417px; margin-right: 608px;""></div></div>",,delaylearn,learning,display_response,063W0lAHsGYvwngz6yld2CvNIwI2,063W0lAHsGYvwngz6yld2CvNIwI2,,,,,,,,,,,,,,,,,chosen stimuli: images/choice_trial_10.png,,,,,5cf66ed8912f0b0017c50b52,09:07:15,27/02/2024
html-keyboard-response,125,242703,0.0-53.0-2.0,,,,delaylearn,learning,feedback_duration_window,063W0lAHsGYvwngz6yld2CvNIwI2,063W0lAHsGYvwngz6yld2CvNIwI2,,,,,,,,,,,,,,,,,,750.0,,,,5cf66ed8912f0b0017c50b52,09:07:15,27/02/2024
html-keyboard-response,126,244207,0.0-53.0-3.0,,<div style='margin:auto;width: auto; font-size: 150%'><span style='font-weight: bold; font-size: 100px; color: red;'>0 points!</span><br><br></div>,,delaylearn,learning,feedback_image_window,063W0lAHsGYvwngz6yld2CvNIwI2,063W0lAHsGYvwngz6yld2CvNIwI2,,,,,,,,,,,,,,,,,,,,,,5cf66ed8912f0b0017c50b52,09:07:15,27/02/2024
html-keyboard-response,127,246219,0.0-54.0,,"<div style=""font-size:100px;"">+</div>",,delaylearn,learning,ITI,063W0lAHsGYvwngz6yld2CvNIwI2,063W0lAHsGYvwngz6yld2CvNIwI2,,,,,,,,,,,,,,,,,,,2009.0,,,5cf66ed8912f0b0017c50b52,09:07:15,27/02/2024
html-keyboard-response,128,247325,0.0-55.0-0.0,1099.9999999999418,"<div style=""display: flex; flex-direction: column; align-items: center; margin-top: -40px;""><img src=""images/pattern_3.png"" style=""width: 234px; height: 230px; margin-top: -50px;""><div style=""display: flex; justify-content: space-between; margin-top: 33px;""><img src=""images/choice_trial_6.png"" style=""width: 408px; height: 417px; margin-right: 200px;""><img src=""images/choice_trial_5.png"" style=""width: 408px; height: 417px;""></div></div>",j,delaylearn,learning,trial,063W0lAHsGYvwngz6yld2CvNIwI2,063W0lAHsGYvwngz6yld2CvNIwI2,1.0,images/choice_trial_6.png,images/choice_trial_5.png,images/pattern_3.png,j,j,7000.0,6.0,5.0,2.0,1.0,24.0,1.0,1.0,5.0,100.0,,,,,,5cf66ed8912f0b0017c50b52,09:07:15,27/02/2024
html-keyboard-response,129,248328,0.0-55.0-1.0,,"<div style=""display: flex; flex-direction: column; align-items: center; margin-top: -40px;""><img src=""images/pattern_3.png"" style=""width: 234px; height: 230px; margin-top: -50px;""><div style=""display: flex; justify-content: space-between; margin-top: 33px;""><img src=""images/choice_trial_5.png"" style=""width: 408px; height: 417px; margin-left:608px;""></div></div>",,delaylearn,learning,display_response,063W0lAHsGYvwngz6yld2CvNIwI2,063W0lAHsGYvwngz6yld2CvNIwI2,,,,,,,,,,,,,,,,,chosen stimuli: images/choice_trial_5.png,,,,,5cf66ed8912f0b0017c50b52,09:07:15,27/02/2024
html-keyboard-response,130,255331,0.0-55.0-2.0,,,,delaylearn,learning,feedback_duration_window,063W0lAHsGYvwngz6yld2CvNIwI2,063W0lAHsGYvwngz6yld2CvNIwI2,,,,,,,,,,,,,,,,,,7000.0,,,,5cf66ed8912f0b0017c50b52,09:07:15,27/02/2024
html-keyboard-response,131,256834,0.0-55.0-3.0,,<div style='margin:auto;width: auto; font-size: 150%'><span style='font-weight: bold; font-size: 100px; color: green;'>+10 points!</span><br><br></div>,,delaylearn,learning,feedback_image_window,063W0lAHsGYvwngz6yld2CvNIwI2,063W0lAHsGYvwngz6yld2CvNIwI2,,,,,,,,,,,,,,,,,,,,,,5cf66ed8912f0b0017c50b52,09:07:15,27/02/2024
lmdlab-html-vas-response,132,262212,0.0-56.0-0.0,3872.0,*How <b><u>confident</u></b> are you feeling about your answers at this moment?*,0.19444444444444445,rewlearn,rate_confidence,,063W0lAHsGYvwngz6yld2CvNIwI2,063W0lAHsGYvwngz6yld2CvNIwI2,,,,,,,,,,,,,,,,,,,,"['No confidence', 'Complete confidence']",,5cf66ed8912f0b0017c50b52,09:07:15,27/02/2024
lmdlab-rest-trial-limit,133,269981,0.0-56.0-1.0,6264.000000000058,"<div style=""font-size:40px;""><b>Please take a break!</b><br><br><br><br><p>Great work: you earned undefined points.<br><br><br><p>You have completed part(s) 1 of 6.<br><br><br><br>When you are ready to continue<br><br><br>please click the button.</p><br><br>",0,delaylearn,learning,break,063W0lAHsGYvwngz6yld2CvNIwI2,063W0lAHsGYvwngz6yld2CvNIwI2,,,,,,,,,,,,,,,,,,,,,0.0,5cf66ed8912f0b0017c50b52,09:07:15,27/02/2024
html-keyboard-response,134,272983,0.0-56.0-2.0,,"<div style=""font-size:100px;"">+</div>",,delaylearn,learning,pre_fixation,063W0lAHsGYvwngz6yld2CvNIwI2,,,,,,,,,,,,,,,,,,,,,,,5cf66ed8912f0b0017c50b52,09:07:15,27/02/2024
lmdlab-html-vas-response,135,277494,0.0-56.0-3.0-0.0,3504.0,How happy are you right now?,0.25925925925925924,delaylearn,learning,mood_baseline,063W0lAHsGYvwngz6yld2CvNIwI2,063W0lAHsGYvwngz6yld2CvNIwI2,,,,,,,,,,,,,,,,,,,,"['Very unhappy', 'Very happy']",,5cf66ed8912f0b0017c50b52,09:07:15,27/02/2024
html-keyboard-response,136,278996,0.0-56.0-3.0-1.0,,,,,,mood_baseline_fixation,063W0lAHsGYvwngz6yld2CvNIwI2,,,,,,,,,,,,,,,,,,,,,,,5cf66ed8912f0b0017c50b52,09:07:15,27/02/2024
html-keyboard-response,137,281104,0.0-57.0,,"<div style=""font-size:100px;"">+</div>",,delaylearn,learning,ITI,063W0lAHsGYvwngz6yld2CvNIwI2,063W0lAHsGYvwngz6yld2CvNIwI2,,,,,,,,,,,,,,,,,,,2106.0,,,5cf66ed8912f0b0017c50b52,09:07:15,27/02/2024
html-keyboard-response,138,282876,0.0-58.0-0.0,1769.0,"<div style=""display: flex; flex-direction: column; align-items: center; margin-top: -40px;""><img src=""images/pattern_7.png"" style=""width: 234px; height: 230px; margin-top: -50px;""><div style=""display: flex; justify-content: space-between; margin-top: 33px;""><img src=""images/choice_trial_14.png"" style=""width: 408px; height: 417px; margin-right: 200px;""><img src=""images/choice_trial_13.png"" style=""width: 408px; height: 417px;""></div></div>",j,delaylearn,learning,trial,063W0lAHsGYvwngz6yld2CvNIwI2,063W0lAHsGYvwngz6yld2CvNIwI2,1.0,images/choice_trial_14.png,images/choice_trial_13.png,images/pattern_7.png,j,j,750.0,14.0,13.0,6.0,1.0,25.0,1.0,1.0,13.0,110.0,,,,,,5cf66ed8912f0b0017c50b52,09:07:15,27/02/2024
html-keyboard-response,139,283880,0.0-58.0-1.0,,"<div style=""display: flex; flex-direction: column; align-items: center; margin-top: -40px;""><img src=""images/pattern_7.png"" style=""width: 234px; height: 230px; margin-top: -50px;""><div style=""display: flex; justify-content: space-between; margin-top: 33px;""><img src=""images/choice_trial_13.png"" style=""width: 408px; height: 417px; margin-left:608px;""></div></div>",,delaylearn,learning,display_response,063W0lAHsGYvwngz6yld2CvNIwI2,063W0lAHsGYvwngz6yld2CvNIwI2,,,,,,,,,,,,,,,,,chosen stimuli: images/choice_trial_13.png,,,,,5cf66ed8912f0b0017c50b52,09:07:15,27/02/2024
html-keyboard-response,140,284632,0.0-58.0-2.0,,,,delaylearn,learning,feedback_duration_window,063W0lAHsGYvwngz6yld2CvNIwI2,063W0lAHsGYvwngz6yld2CvNIwI2,,,,,,,,,,,,,,,,,,750.0,,,,5cf66ed8912f0b0017c50b52,09:07:15,27/02/2024
html-keyboard-response,141,286135,0.0-58.0-3.0,,<div style='margin:auto;width: auto; font-size: 150%'><span style='font-weight: bold; font-size: 100px; color: green;'>+10 points!</span><br><br></div>,,delaylearn,learning,feedback_image_window,063W0lAHsGYvwngz6yld2CvNIwI2,063W0lAHsGYvwngz6yld2CvNIwI2,,,,,,,,,,,,,,,,,,,,,,5cf66ed8912f0b0017c50b52,09:07:15,27/02/2024
html-keyboard-response,142,286637,0.0-59.0-0.0,,,,,,mood_trial_fixation,063W0lAHsGYvwngz6yld2CvNIwI2,,,,,,,,,,,,,,,,,,,,,,,5cf66ed8912f0b0017c50b52,09:07:15,27/02/2024
lmdlab-html-vas-response,143,290046,0.0-59.0-1.0,2402.0,How happy are you right now?,0.42407407407407405,delaylearn,learning,mood_trial,063W0lAHsGYvwngz6yld2CvNIwI2,063W0lAHsGYvwngz6yld2CvNIwI2,,,,,,,,,,,,,,,,,,,,"['Very unhappy', 'Very happy']",,5cf66ed8912f0b0017c50b52,09:07:15,27/02/2024
html-keyboard-response,144,292132,0.0-60.0,,"<div style=""font-size:100px;"">+</div>",,delaylearn,learning,ITI,063W0lAHsGYvwngz6yld2CvNIwI2,063W0lAHsGYvwngz6yld2CvNIwI2,,,,,,,,,,,,,,,,,,,2085.0,,,5cf66ed8912f0b0017c50b52,09:07:15,27/02/2024
html-keyboard-response,145,293537,0.0-61.0-0.0,1401.0,"<div style=""display: flex; flex-direction: column; align-items: center; margin-top: -40px;""><img src=""images/pattern_1.png"" style=""width: 234px; height: 230px; margin-top: -50px;""><div style=""display: flex; justify-content: space-between; margin-top: 33px;""><img src=""images/choice_trial_1.png"" style=""width: 408px; height: 417px; margin-right: 200px;""><img src=""images/choice_trial_2.png"" style=""width: 408px; height: 417px;""></div></div>",j,delaylearn,learning,trial,063W0lAHsGYvwngz6yld2CvNIwI2,063W0lAHsGYvwngz6yld2CvNIwI2,1.0,images/choice_trial_1.png,images/choice_trial_2.png,images/pattern_1.png,f,f,7000.0,1.0,2.0,1.0,0.0,26.0,0.0,0.0,2.0,110.0,,,,,,5cf66ed8912f0b0017c50b52,09:07:15,27/02/2024
html-keyboard-response,146,294540,0.0-61.0-1.0,,"<div style=""display: flex; flex-direction: column; align-items: center; margin-top: -40px;""><img src=""images/pattern_1.png"" style=""width: 234px; height: 230px; margin-top: -50px;""><div style=""display: flex; justify-content: space-between; margin-top: 33px;""><img src=""images/choice_trial_2.png"" style=""width: 408px; height: 417px; margin-left:608px;""></div></div>",,delaylearn,learning,display_response,063W0lAHsGYvwngz6yld2CvNIwI2,063W0lAHsGYvwngz6yld2CvNIwI2,,,,,,,,,,,,,,,,,chosen stimuli: images/choice_trial_2.png,,,,,5cf66ed8912f0b0017c50b52,09:07:15,27/02/2024
html-keyboard-response,147,301542,0.0-61.0-2.0,,,,delaylearn,learning,feedback_duration_window,063W0lAHsGYvwngz6yld2CvNIwI2,063W0lAHsGYvwngz6yld2CvNIwI2,,,,,,,,,,,,,,,,,,7000.0,,,,5cf66ed8912f0b0017c50b52,09:07:15,27/02/2024
html-keyboard-response,148,303045,0.0-61.0-3.0,,<div style='margin:auto;width: auto; font-size: 150%'><span style='font-weight: bold; font-size: 100px; color: red;'>0 points!</span><br><br></div>,,delaylearn,learning,feedback_image_window,063W0lAHsGYvwngz6yld2CvNIwI2,063W0lAHsGYvwngz6yld2CvNIwI2,,,,,,,,,,,,,,,,,,,,,,5cf66ed8912f0b0017c50b52,09:07:15,27/02/2024
html-keyboard-response,149,305315,0.0-62.0,,"<div style=""font-size:100px;"">+</div>",,delaylearn,learning,ITI,063W0lAHsGYvwngz6yld2CvNIwI2,063W0lAHsGYvwngz6yld2CvNIwI2,,,,,,,,,,,,,,,,,,,2268.0,,,5cf66ed8912f0b0017c50b52,09:07:15,27/02/2024
html-keyboard-response,150,306708,0.0-63.0-0.0,1389.0,"<div style=""display: flex; flex-direction: column; align-items: center; margin-top: -40px;""><img src=""images/pattern_5.png"" style=""width: 234px; height: 230px; margin-top: -50px;""><div style=""display: flex; justify-content: space-between; margin-top: 33px;""><img src=""images/choice_trial_9.png"" style=""width: 408px; height: 417px; margin-right: 200px;""><img src=""images/choice_trial_10.png"" style=""width: 408px; height: 417px;""></div></div>",f,delaylearn,learning,trial,063W0lAHsGYvwngz6yld2CvNIwI2,063W0lAHsGYvwngz6yld2CvNIwI2,1.0,images/choice_trial_9.png,images/choice_trial_10.png,images/pattern_5.png,f,f,750.0,9.0,10.0,4.0,0.0,27.0,1.0,1.0,9.0,120.0,,,,,,5cf66ed8912f0b0017c50b52,09:07:15,27/02/2024
html-keyboard-response,151,307711,0.0-63.0-1.0,,"<div style=""display: flex; flex-direction: column; align-items: center; margin-top: -40px;""><img src=""images/pattern_5.png"" style=""width: 234px; height: 230px; margin-top: -50px;""><div style=""display: flex; justify-content: space-between; margin-top: 33px;""><img src=""images/choice_trial_9.png"" style=""width: 408px; height: 417px; margin-right: 608px;""></div></div>",,delaylearn,learning,display_response,063W0lAHsGYvwngz6yld2CvNIwI2,063W0lAHsGYvwngz6yld2CvNIwI2,,,,,,,,,,,,,,,,,chosen stimuli: images/choice_trial_9.png,,,,,5cf66ed8912f0b0017c50b52,09:07:15,27/02/2024
html-keyboard-response,152,308464,0.0-63.0-2.0,,,,delaylearn,learning,feedback_duration_window,063W0lAHsGYvwngz6yld2CvNIwI2,063W0lAHsGYvwngz6yld2CvNIwI2,,,,,,,,,,,,,,,,,,750.0,,,,5cf66ed8912f0b0017c50b52,09:07:15,27/02/2024
html-keyboard-response,153,309966,0.0-63.0-3.0,,<div style='margin:auto;width: auto; font-size: 150%'><span style='font-weight: bold; font-size: 100px; color: green;'>+10 points!</span><br><br></div>,,delaylearn,learning,feedback_image_window,063W0lAHsGYvwngz6yld2CvNIwI2,063W0lAHsGYvwngz6yld2CvNIwI2,,,,,,,,,,,,,,,,,,,,,,5cf66ed8912f0b0017c50b52,09:07:15,27/02/2024
html-keyboard-response,154,312199,0.0-64.0,,"<div style=""font-size:100px;"">+</div>",,delaylearn,learning,ITI,063W0lAHsGYvwngz6yld2CvNIwI2,063W0lAHsGYvwngz6yld2CvNIwI2,,,,,,,,,,,,,,,,,,,2230.0,,,5cf66ed8912f0b0017c50b52,09:07:15,27/02/2024
html-keyboard-response,155,313608,0.0-65.0-0.0,1405.0,"<div style=""display: flex; flex-direction: column; align-items: center; margin-top: -40px;""><img src=""images/pattern_6.png"" style=""width: 234px; height: 230px; margin-top: -50px;""><div style=""display: flex; justify-content: space-between; margin-top: 33px;""><img src=""images/choice_trial_12.png"" style=""width: 408px; height: 417px; margin-right: 200px;""><img src=""images/choice_trial_11.png"" style=""width: 408px; height: 417px;""></div></div>",f,delaylearn,learning,trial,063W0lAHsGYvwngz6yld2CvNIwI2,063W0lAHsGYvwngz6yld2CvNIwI2,1.0,images/choice_trial_12.png,images/choice_trial_11.png,images/pattern_6.png,j,j,750.0,12.0,11.0,5.0,1.0,28.0,0.0,0.0,12.0,120.0,,,,,,5cf66ed8912f0b0017c50b52,09:07:15,27/02/2024
html-keyboard-response,156,314613,0.0-65.0-1.0,,"<div style=""display: flex; flex-direction: column; align-items: center; margin-top: -40px;""><img src=""images/pattern_6.png"" style=""width: 234px; height: 230px; margin-top: -50px;""><div style=""display: flex; justify-content: space-between; margin-top: 33px;""><img src=""images/choice_trial_12.png"" style=""width: 408px; height: 417px; margin-right: 608px;""></div></div>",,delaylearn,learning,display_response,063W0lAHsGYvwngz6yld2CvNIwI2,063W0lAHsGYvwngz6yld2CvNIwI2,,,,,,,,,,,,,,,,,chosen stimuli: images/choice_trial_12.png,,,,,5cf66ed8912f0b0017c50b52,09:07:15,27/02/2024
html-keyboard-response,157,315367,0.0-65.0-2.0,,,,delaylearn,learning,feedback_duration_window,063W0lAHsGYvwngz6yld2CvNIwI2,063W0lAHsGYvwngz6yld2CvNIwI2,,,,,,,,,,,,,,,,,,750.0,,,,5cf66ed8912f0b0017c50b52,09:07:15,27/02/2024
html-keyboard-response,158,316871,0.0-65.0-3.0,,<div style='margin:auto;width: auto; font-size: 150%'><span style='font-weight: bold; font-size: 100px; color: red;'>0 points!</span><br><br></div>,,delaylearn,learning,feedback_image_window,063W0lAHsGYvwngz6yld2CvNIwI2,063W0lAHsGYvwngz6yld2CvNIwI2,,,,,,,,,,,,,,,,,,,,,,5cf66ed8912f0b0017c50b52,09:07:15,27/02/2024
html-keyboard-response,159,317374,0.0-66.0-0.0,,,,,,mood_trial_fixation,063W0lAHsGYvwngz6yld2CvNIwI2,,,,,,,,,,,,,,,,,,,,,,,5cf66ed8912f0b0017c50b52,09:07:15,27/02/2024
lmdlab-html-vas-response,160,322277,0.0-66.0-1.0,3896.0,How happy are you right now?,0.26666666666666666,delaylearn,learning,mood_trial,063W0lAHsGYvwngz6yld2CvNIwI2,063W0lAHsGYvwngz6yld2CvNIwI2,,,,,,,,,,,,,,,,,,,,"['Very unhappy', 'Very happy']",,5cf66ed8912f0b0017c50b52,09:07:15,27/02/2024
html-keyboard-response,161,324411,0.0-67.0,,"<div style=""font-size:100px;"">+</div>",,delaylearn,learning,ITI,063W0lAHsGYvwngz6yld2CvNIwI2,063W0lAHsGYvwngz6yld2CvNIwI2,,,,,,,,,,,,,,,,,,,2132.0,,,5cf66ed8912f0b0017c50b52,09:07:15,27/02/2024
html-keyboard-response,162,325729,0.0-68.0-0.0,1313.0,"<div style=""display: flex; flex-direction: column; align-items: center; margin-top: -40px;""><img src=""images/pattern_4.png"" style=""width: 234px; height: 230px; margin-top: -50px;""><div style=""display: flex; justify-content: space-between; margin-top: 33px;""><img src=""images/choice_trial_8.png"" style=""width: 408px; height: 417px; margin-right: 200px;""><img src=""images/choice_trial_7.png"" style=""width: 408px; height: 417px;""></div></div>",f,delaylearn,learning,trial,063W0lAHsGYvwngz6yld2CvNIwI2,063W0lAHsGYvwngz6yld2CvNIwI2,1.0,images/choice_trial_8.png,images/choice_trial_7.png,images/pattern_4.png,j,j,7000.0,8.0,7.0,3.0,1.0,29.0,0.0,0.0,8.0,120.0,,,,,,5cf66ed8912f0b0017c50b52,09:07:15,27/02/2024
html-keyboard-response,163,326733,0.0-68.0-1.0,,"<div style=""display: flex; flex-direction: column; align-items: center; margin-top: -40px;""><img src=""images/pattern_4.png"" style=""width: 234px; height: 230px; margin-top: -50px;""><div style=""display: flex; justify-content: space-between; margin-top: 33px;""><img src=""images/choice_trial_8.png"" style=""width: 408px; height: 417px; margin-right: 608px;""></div></div>",,delaylearn,learning,display_response,063W0lAHsGYvwngz6yld2CvNIwI2,063W0lAHsGYvwngz6yld2CvNIwI2,,,,,,,,,,,,,,,,,chosen stimuli: images/choice_trial_8.png,,,,,5cf66ed8912f0b0017c50b52,09:07:15,27/02/2024
html-keyboard-response,164,333736,0.0-68.0-2.0,,,,delaylearn,learning,feedback_duration_window,063W0lAHsGYvwngz6yld2CvNIwI2,063W0lAHsGYvwngz6yld2CvNIwI2,,,,,,,,,,,,,,,,,,7000.0,,,,5cf66ed8912f0b0017c50b52,09:07:15,27/02/2024
html-keyboard-response,165,335239,0.0-68.0-3.0,,<div style='margin:auto;width: auto; font-size: 150%'><span style='font-weight: bold; font-size: 100px; color: red;'>0 points!</span><br><br></div>,,delaylearn,learning,feedback_image_window,063W0lAHsGYvwngz6yld2CvNIwI2,063W0lAHsGYvwngz6yld2CvNIwI2,,,,,,,,,,,,,,,,,,,,,,5cf66ed8912f0b0017c50b52,09:07:15,27/02/2024
html-keyboard-response,166,337438,0.0-69.0,,"<div style=""font-size:100px;"">+</div>",,delaylearn,learning,ITI,063W0lAHsGYvwngz6yld2CvNIwI2,063W0lAHsGYvwngz6yld2CvNIwI2,,,,,,,,,,,,,,,,,,,2196.0,,,5cf66ed8912f0b0017c50b52,09:07:15,27/02/2024
html-keyboard-response,167,339200,0.0-70.0-0.0,1760.0,"<div style=""display: flex; flex-direction: column; align-items: center; margin-top: -40px;""><img src=""images/pattern_3.png"" style=""width: 234px; height: 230px; margin-top: -50px;""><div style=""display: flex; justify-content: space-between; margin-top: 33px;""><img src=""images/choice_trial_6.png"" style=""width: 408px; height: 417px; margin-right: 200px;""><img src=""images/choice_trial_5.png"" style=""width: 408px; height: 417px;""></div></div>",j,delaylearn,learning,trial,063W0lAHsGYvwngz6yld2CvNIwI2,063W0lAHsGYvwngz6yld2CvNIwI2,1.0,images/choice_trial_6.png,images/choice_trial_5.png,images/pattern_3.png,j,j,7000.0,6.0,5.0,2.0,1.0,30.0,1.0,1.0,5.0,130.0,,,,,,5cf66ed8912f0b0017c50b52,09:07:15,27/02/2024
html-keyboard-response,168,340203,0.0-70.0-1.0,,"<div style=""display: flex; flex-direction: column; align-items: center; margin-top: -40px;""><img src=""images/pattern_3.png"" style=""width: 234px; height: 230px; margin-top: -50px;""><div style=""display: flex; justify-content: space-between; margin-top: 33px;""><img src=""images/choice_trial_5.png"" style=""width: 408px; height: 417px; margin-left:608px;""></div></div>",,delaylearn,learning,display_response,063W0lAHsGYvwngz6yld2CvNIwI2,063W0lAHsGYvwngz6yld2CvNIwI2,,,,,,,,,,,,,,,,,chosen stimuli: images/choice_trial_5.png,,,,,5cf66ed8912f0b0017c50b52,09:07:15,27/02/2024
html-keyboard-response,169,347206,0.0-70.0-2.0,,,,delaylearn,learning,feedback_duration_window,063W0lAHsGYvwngz6yld2CvNIwI2,063W0lAHsGYvwngz6yld2CvNIwI2,,,,,,,,,,,,,,,,,,7000.0,,,,5cf66ed8912f0b0017c50b52,09:07:15,27/02/2024
html-keyboard-response,170,348709,0.0-70.0-3.0,,<div style='margin:auto;width: auto; font-size: 150%'><span style='font-weight: bold; font-size: 100px; color: green;'>+10 points!</span><br><br></div>,,delaylearn,learning,feedback_image_window,063W0lAHsGYvwngz6yld2CvNIwI2,063W0lAHsGYvwngz6yld2CvNIwI2,,,,,,,,,,,,,,,,,,,,,,5cf66ed8912f0b0017c50b52,09:07:15,27/02/2024
html-keyboard-response,171,351098,0.0-71.0,,"<div style=""font-size:100px;"">+</div>",,delaylearn,learning,ITI,063W0lAHsGYvwngz6yld2CvNIwI2,063W0lAHsGYvwngz6yld2CvNIwI2,,,,,,,,,,,,,,,,,,,2386.0,,,5cf66ed8912f0b0017c50b52,09:07:15,27/02/2024
html-keyboard-response,172,352694,0.0-72.0-0.0,1592.0,"<div style=""display: flex; flex-direction: column; align-items: center; margin-top: -40px;""><img src=""images/pattern_5.png"" style=""width: 234px; height: 230px; margin-top: -50px;""><div style=""display: flex; justify-content: space-between; margin-top: 33px;""><img src=""images/choice_trial_9.png"" style=""width: 408px; height: 417px; margin-right: 200px;""><img src=""images/choice_trial_10.png"" style=""width: 408px; height: 417px;""></div></div>",f,delaylearn,learning,trial,063W0lAHsGYvwngz6yld2CvNIwI2,063W0lAHsGYvwngz6yld2CvNIwI2,1.0,images/choice_trial_9.png,images/choice_trial_10.png,images/pattern_5.png,j,f,750.0,9.0,10.0,4.0,0.0,31.0,1.0,0.0,9.0,130.0,,,,,,5cf66ed8912f0b0017c50b52,09:07:15,27/02/2024
html-keyboard-response,173,353697,0.0-72.0-1.0,,"<div style=""display: flex; flex-direction: column; align-items: center; margin-top: -40px;""><img src=""images/pattern_5.png"" style=""width: 234px; height: 230px; margin-top: -50px;""><div style=""display: flex; justify-content: space-between; margin-top: 33px;""><img src=""images/choice_trial_9.png"" style=""width: 408px; height: 417px; margin-right: 608px;""></div></div>",,delaylearn,learning,display_response,063W0lAHsGYvwngz6yld2CvNIwI2,063W0lAHsGYvwngz6yld2CvNIwI2,,,,,,,,,,,,,,,,,chosen stimuli: images/choice_trial_9.png,,,,,5cf66ed8912f0b0017c50b52,09:07:15,27/02/2024
html-keyboard-response,174,354449,0.0-72.0-2.0,,,,delaylearn,learning,feedback_duration_window,063W0lAHsGYvwngz6yld2CvNIwI2,063W0lAHsGYvwngz6yld2CvNIwI2,,,,,,,,,,,,,,,,,,750.0,,,,5cf66ed8912f0b0017c50b52,09:07:15,27/02/2024
html-keyboard-response,175,355953,0.0-72.0-3.0,,<div style='margin:auto;width: auto; font-size: 150%'><span style='font-weight: bold; font-size: 100px; color: red;'>0 points!</span><br><br></div>,,delaylearn,learning,feedback_image_window,063W0lAHsGYvwngz6yld2CvNIwI2,063W0lAHsGYvwngz6yld2CvNIwI2,,,,,,,,,,,,,,,,,,,,,,5cf66ed8912f0b0017c50b52,09:07:15,27/02/2024
html-keyboard-response,176,357919,0.0-73.0,,"<div style=""font-size:100px;"">+</div>",,delaylearn,learning,ITI,063W0lAHsGYvwngz6yld2CvNIwI2,063W0lAHsGYvwngz6yld2CvNIwI2,,,,,,,,,,,,,,,,,,,1964.0,,,5cf66ed8912f0b0017c50b52,09:07:15,27/02/2024
html-keyboard-response,177,359361,0.0-74.0-0.0,1439.0,"<div style=""display: flex; flex-direction: column; align-items: center; margin-top: -40px;""><img src=""images/pattern_1.png"" style=""width: 234px; height: 230px; margin-top: -50px;""><div style=""display: flex; justify-content: space-between; margin-top: 33px;""><img src=""images/choice_trial_1.png"" style=""width: 408px; height: 417px; margin-right: 200px;""><img src=""images/choice_trial_2.png"" style=""width: 408px; height: 417px;""></div></div>",j,delaylearn,learning,trial,063W0lAHsGYvwngz6yld2CvNIwI2,063W0lAHsGYvwngz6yld2CvNIwI2,1.0,images/choice_trial_1.png,images/choice_trial_2.png,images/pattern_1.png,f,f,7000.0,1.0,2.0,1.0,0.0,32.0,0.0,0.0,2.0,130.0,,,,,,5cf66ed8912f0b0017c50b52,09:07:15,27/02/2024
html-keyboard-response,178,360364,0.0-74.0-1.0,,"<div style=""display: flex; flex-direction: column; align-items: center; margin-top: -40px;""><img src=""images/pattern_1.png"" style=""width: 234px; height: 230px; margin-top: -50px;""><div style=""display: flex; justify-content: space-between; margin-top: 33px;""><img src=""images/choice_trial_2.png"" style=""width: 408px; height: 417px; margin-left:608px;""></div></div>",,delaylearn,learning,display_response,063W0lAHsGYvwngz6yld2CvNIwI2,063W0lAHsGYvwngz6yld2CvNIwI2,,,,,,,,,,,,,,,,,chosen stimuli: images/choice_trial_2.png,,,,,5cf66ed8912f0b0017c50b52,09:07:15,27/02/2024
html-keyboard-response,179,367367,0.0-74.0-2.0,,,,delaylearn,learning,feedback_duration_window,063W0lAHsGYvwngz6yld2CvNIwI2,063W0lAHsGYvwngz6yld2CvNIwI2,,,,,,,,,,,,,,,,,,7000.0,,,,5cf66ed8912f0b0017c50b52,09:07:15,27/02/2024
html-keyboard-response,180,368871,0.0-74.0-3.0,,<div style='margin:auto;width: auto; font-size: 150%'><span style='font-weight: bold; font-size: 100px; color: red;'>0 points!</span><br><br></div>,,delaylearn,learning,feedback_image_window,063W0lAHsGYvwngz6yld2CvNIwI2,063W0lAHsGYvwngz6yld2CvNIwI2,,,,,,,,,,,,,,,,,,,,,,5cf66ed8912f0b0017c50b52,09:07:15,27/02/2024
html-keyboard-response,181,369373,0.0-75.0-0.0,,,,,,mood_trial_fixation,063W0lAHsGYvwngz6yld2CvNIwI2,,,,,,,,,,,,,,,,,,,,,,,5cf66ed8912f0b0017c50b52,09:07:15,27/02/2024
lmdlab-html-vas-response,182,373279,0.0-75.0-1.0,2899.0,How happy are you right now?,0.18518518518518517,delaylearn,learning,mood_trial,063W0lAHsGYvwngz6yld2CvNIwI2,063W0lAHsGYvwngz6yld2CvNIwI2,,,,,,,,,,,,,,,,,,,,"['Very unhappy', 'Very happy']",,5cf66ed8912f0b0017c50b52,09:07:15,27/02/2024
html-keyboard-response,183,375673,0.0-76.0,,"<div style=""font-size:100px;"">+</div>",,delaylearn,learning,ITI,063W0lAHsGYvwngz6yld2CvNIwI2,063W0lAHsGYvwngz6yld2CvNIwI2,,,,,,,,,,,,,,,,,,,2392.0,,,5cf66ed8912f0b0017c50b52,09:07:15,27/02/2024
html-keyboard-response,184,377313,0.0-77.0-0.0,1633.9999999998836,"<div style=""display: flex; flex-direction: column; align-items: center; margin-top: -40px;""><img src=""images/pattern_6.png"" style=""width: 234px; height: 230px; margin-top: -50px;""><div style=""display: flex; justify-content: space-between; margin-top: 33px;""><img src=""images/choice_trial_11.png"" style=""width: 408px; height: 417px; margin-right: 200px;""><img src=""images/choice_trial_12.png"" style=""width: 408px; height: 417px;""></div></div>",f,delaylearn,learning,trial,063W0lAHsGYvwngz6yld2CvNIwI2,063W0lAHsGYvwngz6yld2CvNIwI2,1.0,images/choice_trial_11.png,images/choice_trial_12.png,images/pattern_6.png,j,f,750.0,11.0,12.0,5.0,0.0,33.0,1.0,0.0,11.0,130.0,,,,,,5cf66ed8912f0b0017c50b52,09:07:15,27/02/2024
html-keyboard-response,185,378316,0.0-77.0-1.0,,"<div style=""display: flex; flex-direction: column; align-items: center; margin-top: -40px;""><img src=""images/pattern_6.png"" style=""width: 234px; height: 230px; margin-top: -50px;""><div style=""display: flex; justify-content: space-between; margin-top: 33px;""><img src=""images/choice_trial_11.png"" style=""width: 408px; height: 417px; margin-right: 608px;""></div></div>",,delaylearn,learning,display_response,063W0lAHsGYvwngz6yld2CvNIwI2,063W0lAHsGYvwngz6yld2CvNIwI2,,,,,,,,,,,,,,,,,chosen stimuli: images/choice_trial_11.png,,,,,5cf66ed8912f0b0017c50b52,09:07:15,27/02/2024
html-keyboard-response,186,379068,0.0-77.0-2.0,,,,delaylearn,learning,feedback_duration_window,063W0lAHsGYvwngz6yld2CvNIwI2,063W0lAHsGYvwngz6yld2CvNIwI2,,,,,,,,,,,,,,,,,,750.0,,,,5cf66ed8912f0b0017c50b52,09:07:15,27/02/2024
html-keyboard-response,187,380571,0.0-77.0-3.0,,<div style='margin:auto;width: auto; font-size: 150%'><span style='font-weight: bold; font-size: 100px; color: red;'>0 points!</span><br><br></div>,,delaylearn,learning,feedback_image_window,063W0lAHsGYvwngz6yld2CvNIwI2,063W0lAHsGYvwngz6yld2CvNIwI2,,,,,,,,,,,,,,,,,,,,,,5cf66ed8912f0b0017c50b52,09:07:15,27/02/2024
html-keyboard-response,188,383043,0.0-78.0,,"<div style=""font-size:100px;"">+</div>",,delaylearn,learning,ITI,063W0lAHsGYvwngz6yld2CvNIwI2,063W0lAHsGYvwngz6yld2CvNIwI2,,,,,,,,,,,,,,,,,,,2469.0,,,5cf66ed8912f0b0017c50b52,09:07:15,27/02/2024
html-keyboard-response,189,384891,0.0-79.0-0.0,1844.0,"<div style=""display: flex; flex-direction: column; align-items: center; margin-top: -40px;""><img src=""images/pattern_3.png"" style=""width: 234px; height: 230px; margin-top: -50px;""><div style=""display: flex; justify-content: space-between; margin-top: 33px;""><img src=""images/choice_trial_6.png"" style=""width: 408px; height: 417px; margin-right: 200px;""><img src=""images/choice_trial_5.png"" style=""width: 408px; height: 417px;""></div></div>",j,delaylearn,learning,trial,063W0lAHsGYvwngz6yld2CvNIwI2,063W0lAHsGYvwngz6yld2CvNIwI2,1.0,images/choice_trial_6.png,images/choice_trial_5.png,images/pattern_3.png,j,j,7000.0,6.0,5.0,2.0,1.0,34.0,1.0,1.0,5.0,140.0,,,,,,5cf66ed8912f0b0017c50b52,09:07:15,27/02/2024
html-keyboard-response,190,385894,0.0-79.0-1.0,,"<div style=""display: flex; flex-direction: column; align-items: center; margin-top: -40px;""><img src=""images/pattern_3.png"" style=""width: 234px; height: 230px; margin-top: -50px;""><div style=""display: flex; justify-content: space-between; margin-top: 33px;""><img src=""images/choice_trial_5.png"" style=""width: 408px; height: 417px; margin-left:608px;""></div></div>",,delaylearn,learning,display_response,063W0lAHsGYvwngz6yld2CvNIwI2,063W0lAHsGYvwngz6yld2CvNIwI2,,,,,,,,,,,,,,,,,chosen stimuli: images/choice_trial_5.png,,,,,5cf66ed8912f0b0017c50b52,09:07:15,27/02/2024
html-keyboard-response,191,392897,0.0-79.0-2.0,,,,delaylearn,learning,feedback_duration_window,063W0lAHsGYvwngz6yld2CvNIwI2,063W0lAHsGYvwngz6yld2CvNIwI2,,,,,,,,,,,,,,,,,,7000.0,,,,5cf66ed8912f0b0017c50b52,09:07:15,27/02/2024
html-keyboard-response,192,394399,0.0-79.0-3.0,,<div style='margin:auto;width: auto; font-size: 150%'><span style='font-weight: bold; font-size: 100px; color: green;'>+10 points!</span><br><br></div>,,delaylearn,learning,feedback_image_window,063W0lAHsGYvwngz6yld2CvNIwI2,063W0lAHsGYvwngz6yld2CvNIwI2,,,,,,,,,,,,,,,,,,,,,,5cf66ed8912f0b0017c50b52,09:07:15,27/02/2024
html-keyboard-response,193,396175,0.0-80.0,,"<div style=""font-size:100px;"">+</div>",,delaylearn,learning,ITI,063W0lAHsGYvwngz6yld2CvNIwI2,063W0lAHsGYvwngz6yld2CvNIwI2,,,,,,,,,,,,,,,,,,,1772.0,,,5cf66ed8912f0b0017c50b52,09:07:15,27/02/2024
html-keyboard-response,194,397643,0.0-81.0-0.0,1463.0,"<div style=""display: flex; flex-direction: column; align-items: center; margin-top: -40px;""><img src=""images/pattern_4.png"" style=""width: 234px; height: 230px; margin-top: -50px;""><div style=""display: flex; justify-content: space-between; margin-top: 33px;""><img src=""images/choice_trial_8.png"" style=""width: 408px; height: 417px; margin-right: 200px;""><img src=""images/choice_trial_7.png"" style=""width: 408px; height: 417px;""></div></div>",j,delaylearn,learning,trial,063W0lAHsGYvwngz6yld2CvNIwI2,063W0lAHsGYvwngz6yld2CvNIwI2,1.0,images/choice_trial_8.png,images/choice_trial_7.png,images/pattern_4.png,f,j,7000.0,8.0,7.0,3.0,1.0,35.0,1.0,0.0,7.0,140.0,,,,,,5cf66ed8912f0b0017c50b52,09:07:15,27/02/2024
html-keyboard-response,195,398647,0.0-81.0-1.0,,"<div style=""display: flex; flex-direction: column; align-items: center; margin-top: -40px;""><img src=""images/pattern_4.png"" style=""width: 234px; height: 230px; margin-top: -50px;""><div style=""display: flex; justify-content: space-between; margin-top: 33px;""><img src=""images/choice_trial_7.png"" style=""width: 408px; height: 417px; margin-left:608px;""></div></div>",,delaylearn,learning,display_response,063W0lAHsGYvwngz6yld2CvNIwI2,063W0lAHsGYvwngz6yld2CvNIwI2,,,,,,,,,,,,,,,,,chosen stimuli: images/choice_trial_7.png,,,,,5cf66ed8912f0b0017c50b52,09:07:15,27/02/2024
html-keyboard-response,196,405650,0.0-81.0-2.0,,,,delaylearn,learning,feedback_duration_window,063W0lAHsGYvwngz6yld2CvNIwI2,063W0lAHsGYvwngz6yld2CvNIwI2,,,,,,,,,,,,,,,,,,7000.0,,,,5cf66ed8912f0b0017c50b52,09:07:15,27/02/2024
html-keyboard-response,197,407153,0.0-81.0-3.0,,<div style='margin:auto;width: auto; font-size: 150%'><span style='font-weight: bold; font-size: 100px; color: red;'>0 points!</span><br><br></div>,,delaylearn,learning,feedback_image_window,063W0lAHsGYvwngz6yld2CvNIwI2,063W0lAHsGYvwngz6yld2CvNIwI2,,,,,,,,,,,,,,,,,,,,,,5cf66ed8912f0b0017c50b52,09:07:15,27/02/2024
html-keyboard-response,198,409331,0.0-82.0,,"<div style=""font-size:100px;"">+</div>",,delaylearn,learning,ITI,063W0lAHsGYvwngz6yld2CvNIwI2,063W0lAHsGYvwngz6yld2CvNIwI2,,,,,,,,,,,,,,,,,,,2175.0,,,5cf66ed8912f0b0017c50b52,09:07:15,27/02/2024
html-keyboard-response,199,411220,0.0-83.0-0.0,1884.0,"<div style=""display: flex; flex-direction: column; align-items: center; margin-top: -40px;""><img src=""images/pattern_7.png"" style=""width: 234px; height: 230px; margin-top: -50px;""><div style=""display: flex; justify-content: space-between; margin-top: 33px;""><img src=""images/choice_trial_13.png"" style=""width: 408px; height: 417px; margin-right: 200px;""><img src=""images/choice_trial_14.png"" style=""width: 408px; height: 417px;""></div></div>",j,delaylearn,learning,trial,063W0lAHsGYvwngz6yld2CvNIwI2,063W0lAHsGYvwngz6yld2CvNIwI2,1.0,images/choice_trial_13.png,images/choice_trial_14.png,images/pattern_7.png,f,f,750.0,13.0,14.0,6.0,0.0,36.0,0.0,0.0,14.0,140.0,,,,,,5cf66ed8912f0b0017c50b52,09:07:15,27/02/2024
html-keyboard-response,200,412224,0.0-83.0-1.0,,"<div style=""display: flex; flex-direction: column; align-items: center; margin-top: -40px;""><img src=""images/pattern_7.png"" style=""width: 234px; height: 230px; margin-top: -50px;""><div style=""display: flex; justify-content: space-between; margin-top: 33px;""><img src=""images/choice_trial_14.png"" style=""width: 408px; height: 417px; margin-left:608px;""></div></div>",,delaylearn,learning,display_response,063W0lAHsGYvwngz6yld2CvNIwI2,063W0lAHsGYvwngz6yld2CvNIwI2,,,,,,,,,,,,,,,,,chosen stimuli: images/choice_trial_14.png,,,,,5cf66ed8912f0b0017c50b52,09:07:15,27/02/2024
html-keyboard-response,201,412977,0.0-83.0-2.0,,,,delaylearn,learning,feedback_duration_window,063W0lAHsGYvwngz6yld2CvNIwI2,063W0lAHsGYvwngz6yld2CvNIwI2,,,,,,,,,,,,,,,,,,750.0,,,,5cf66ed8912f0b0017c50b52,09:07:15,27/02/2024
html-keyboard-response,202,414480,0.0-83.0-3.0,,<div style='margin:auto;width: auto; font-size: 150%'><span style='font-weight: bold; font-size: 100px; color: red;'>0 points!</span><br><br></div>,,delaylearn,learning,feedback_image_window,063W0lAHsGYvwngz6yld2CvNIwI2,063W0lAHsGYvwngz6yld2CvNIwI2,,,,,,,,,,,,,,,,,,,,,,5cf66ed8912f0b0017c50b52,09:07:15,27/02/2024
html-keyboard-response,203,416728,0.0-84.0,,"<div style=""font-size:100px;"">+</div>",,delaylearn,learning,ITI,063W0lAHsGYvwngz6yld2CvNIwI2,063W0lAHsGYvwngz6yld2CvNIwI2,,,,,,,,,,,,,,,,,,,2245.0,,,5cf66ed8912f0b0017c50b52,09:07:15,27/02/2024
html-keyboard-response,204,418408,0.0-85.0-0.0,1677.0,"<div style=""display: flex; flex-direction: column; align-items: center; margin-top: -40px;""><img src=""images/pattern_1.png"" style=""width: 234px; height: 230px; margin-top: -50px;""><div style=""display: flex; justify-content: space-between; margin-top: 33px;""><img src=""images/choice_trial_1.png"" style=""width: 408px; height: 417px; margin-right: 200px;""><img src=""images/choice_trial_2.png"" style=""width: 408px; height: 417px;""></div></div>",j,delaylearn,learning,trial,063W0lAHsGYvwngz6yld2CvNIwI2,063W0lAHsGYvwngz6yld2CvNIwI2,1.0,images/choice_trial_1.png,images/choice_trial_2.png,images/pattern_1.png,f,f,7000.0,1.0,2.0,1.0,0.0,37.0,0.0,0.0,2.0,140.0,,,,,,5cf66ed8912f0b0017c50b52,09:07:15,27/02/2024
html-keyboard-response,205,419412,0.0-85.0-1.0,,"<div style=""display: flex; flex-direction: column; align-items: center; margin-top: -40px;""><img src=""images/pattern_1.png"" style=""width: 234px; height: 230px; margin-top: -50px;""><div style=""display: flex; justify-content: space-between; margin-top: 33px;""><img src=""images/choice_trial_2.png"" style=""width: 408px; height: 417px; margin-left:608px;""></div></div>",,delaylearn,learning,display_response,063W0lAHsGYvwngz6yld2CvNIwI2,063W0lAHsGYvwngz6yld2CvNIwI2,,,,,,,,,,,,,,,,,chosen stimuli: images/choice_trial_2.png,,,,,5cf66ed8912f0b0017c50b52,09:07:15,27/02/2024
html-keyboard-response,206,426415,0.0-85.0-2.0,,,,delaylearn,learning,feedback_duration_window,063W0lAHsGYvwngz6yld2CvNIwI2,063W0lAHsGYvwngz6yld2CvNIwI2,,,,,,,,,,,,,,,,,,7000.0,,,,5cf66ed8912f0b0017c50b52,09:07:15,27/02/2024
html-keyboard-response,207,427918,0.0-85.0-3.0,,<div style='margin:auto;width: auto; font-size: 150%'><span style='font-weight: bold; font-size: 100px; color: red;'>0 points!</span><br><br></div>,,delaylearn,learning,feedback_image_window,063W0lAHsGYvwngz6yld2CvNIwI2,063W0lAHsGYvwngz6yld2CvNIwI2,,,,,,,,,,,,,,,,,,,,,,5cf66ed8912f0b0017c50b52,09:07:15,27/02/2024
html-keyboard-response,208,428421,0.0-86.0-0.0,,,,,,mood_trial_fixation,063W0lAHsGYvwngz6yld2CvNIwI2,,,,,,,,,,,,,,,,,,,,,,,5cf66ed8912f0b0017c50b52,09:07:15,27/02/2024
lmdlab-html-vas-response,209,432378,0.0-86.0-1.0,2951.0,How happy are you right now?,0.2537037037037037,delaylearn,learning,mood_trial,063W0lAHsGYvwngz6yld2CvNIwI2,063W0lAHsGYvwngz6yld2CvNIwI2,,,,,,,,,,,,,,,,,,,,"['Very unhappy', 'Very happy']",,5cf66ed8912f0b0017c50b52,09:07:15,27/02/2024
html-keyboard-response,210,434801,0.0-87.0,,"<div style=""font-size:100px;"">+</div>",,delaylearn,learning,ITI,063W0lAHsGYvwngz6yld2CvNIwI2,063W0lAHsGYvwngz6yld2CvNIwI2,,,,,,,,,,,,,,,,,,,2421.0,,,5cf66ed8912f0b0017c50b52,09:07:15,27/02/2024
html-keyboard-response,211,436659,0.0-88.0-0.0,1852.0,"<div style=""display: flex; flex-direction: column; align-items: center; margin-top: -40px;""><img src=""images/pattern_3.png"" style=""width: 234px; height: 230px; margin-top: -50px;""><div style=""display: flex; justify-content: space-between; margin-top: 33px;""><img src=""images/choice_trial_5.png"" style=""width: 408px; height: 417px; margin-right: 200px;""><img src=""images/choice_trial_6.png"" style=""width: 408px; height: 417px;""></div></div>",j,delaylearn,learning,trial,063W0lAHsGYvwngz6yld2CvNIwI2,063W0lAHsGYvwngz6yld2CvNIwI2,1.0,images/choice_trial_5.png,images/choice_trial_6.png,images/pattern_3.png,j,f,7000.0,5.0,6.0,2.0,0.0,38.0,0.0,1.0,6.0,150.0,,,,,,5cf66ed8912f0b0017c50b52,09:07:15,27/02/2024
html-keyboard-response,212,437663,0.0-88.0-1.0,,"<div style=""display: flex; flex-direction: column; align-items: center; margin-top: -40px;""><img src=""images/pattern_3.png"" style=""width: 234px; height: 230px; margin-top: -50px;""><div style=""display: flex; justify-content: space-between; margin-top: 33px;""><img src=""images/choice_trial_6.png"" style=""width: 408px; height: 417px; margin-left:608px;""></div></div>",,delaylearn,learning,display_response,063W0lAHsGYvwngz6yld2CvNIwI2,063W0lAHsGYvwngz6yld2CvNIwI2,,,,,,,,,,,,,,,,,chosen stimuli: images/choice_trial_6.png,,,,,5cf66ed8912f0b0017c50b52,09:07:15,27/02/2024
html-keyboard-response,213,444665,0.0-88.0-2.0,,,,delaylearn,learning,feedback_duration_window,063W0lAHsGYvwngz6yld2CvNIwI2,063W0lAHsGYvwngz6yld2CvNIwI2,,,,,,,,,,,,,,,,,,7000.0,,,,5cf66ed8912f0b0017c50b52,09:07:15,27/02/2024
html-keyboard-response,214,446168,0.0-88.0-3.0,,<div style='margin:auto;width: auto; font-size: 150%'><span style='font-weight: bold; font-size: 100px; color: green;'>+10 points!</span><br><br></div>,,delaylearn,learning,feedback_image_window,063W0lAHsGYvwngz6yld2CvNIwI2,063W0lAHsGYvwngz6yld2CvNIwI2,,,,,,,,,,,,,,,,,,,,,,5cf66ed8912f0b0017c50b52,09:07:15,27/02/2024
html-keyboard-response,215,448641,0.0-89.0,,"<div style=""font-size:100px;"">+</div>",,delaylearn,learning,ITI,063W0lAHsGYvwngz6yld2CvNIwI2,063W0lAHsGYvwngz6yld2CvNIwI2,,,,,,,,,,,,,,,,,,,2471.0,,,5cf66ed8912f0b0017c50b52,09:07:15,27/02/2024
html-keyboard-response,216,450524,0.0-90.0-0.0,1879.0,"<div style=""display: flex; flex-direction: column; align-items: center; margin-top: -40px;""><img src=""images/pattern_7.png"" style=""width: 234px; height: 230px; margin-top: -50px;""><div style=""display: flex; justify-content: space-between; margin-top: 33px;""><img src=""images/choice_trial_14.png"" style=""width: 408px; height: 417px; margin-right: 200px;""><img src=""images/choice_trial_13.png"" style=""width: 408px; height: 417px;""></div></div>",j,delaylearn,learning,trial,063W0lAHsGYvwngz6yld2CvNIwI2,063W0lAHsGYvwngz6yld2CvNIwI2,1.0,images/choice_trial_14.png,images/choice_trial_13.png,images/pattern_7.png,j,j,750.0,14.0,13.0,6.0,1.0,39.0,1.0,1.0,13.0,160.0,,,,,,5cf66ed8912f0b0017c50b52,09:07:15,27/02/2024
html-keyboard-response,217,451528,0.0-90.0-1.0,,"<div style=""display: flex; flex-direction: column; align-items: center; margin-top: -40px;""><img src=""images/pattern_7.png"" style=""width: 234px; height: 230px; margin-top: -50px;""><div style=""display: flex; justify-content: space-between; margin-top: 33px;""><img src=""images/choice_trial_13.png"" style=""width: 408px; height: 417px; margin-left:608px;""></div></div>",,delaylearn,learning,display_response,063W0lAHsGYvwngz6yld2CvNIwI2,063W0lAHsGYvwngz6yld2CvNIwI2,,,,,,,,,,,,,,,,,chosen stimuli: images/choice_trial_13.png,,,,,5cf66ed8912f0b0017c50b52,09:07:15,27/02/2024
html-keyboard-response,218,452282,0.0-90.0-2.0,,,,delaylearn,learning,feedback_duration_window,063W0lAHsGYvwngz6yld2CvNIwI2,063W0lAHsGYvwngz6yld2CvNIwI2,,,,,,,,,,,,,,,,,,750.0,,,,5cf66ed8912f0b0017c50b52,09:07:15,27/02/2024
html-keyboard-response,219,453785,0.0-90.0-3.0,,<div style='margin:auto;width: auto; font-size: 150%'><span style='font-weight: bold; font-size: 100px; color: green;'>+10 points!</span><br><br></div>,,delaylearn,learning,feedback_image_window,063W0lAHsGYvwngz6yld2CvNIwI2,063W0lAHsGYvwngz6yld2CvNIwI2,,,,,,,,,,,,,,,,,,,,,,5cf66ed8912f0b0017c50b52,09:07:15,27/02/2024
html-keyboard-response,220,455769,0.0-91.0,,"<div style=""font-size:100px;"">+</div>",,delaylearn,learning,ITI,063W0lAHsGYvwngz6yld2CvNIwI2,063W0lAHsGYvwngz6yld2CvNIwI2,,,,,,,,,,,,,,,,,,,1981.0,,,5cf66ed8912f0b0017c50b52,09:07:15,27/02/2024
html-keyboard-response,221,458775,0.0-92.0-0.0,,"<div style=""display: flex; flex-direction: column; align-items: center; margin-top: -40px;""><img src=""images/pattern_5.png"" style=""width: 234px; height: 230px; margin-top: -50px;""><div style=""display: flex; justify-content: space-between; margin-top: 33px;""><img src=""images/choice_trial_10.png"" style=""width: 408px; height: 417px; margin-right: 200px;""><img src=""images/choice_trial_9.png"" style=""width: 408px; height: 417px;""></div></div>",,delaylearn,learning,trial,063W0lAHsGYvwngz6yld2CvNIwI2,063W0lAHsGYvwngz6yld2CvNIwI2,1.0,images/choice_trial_10.png,images/choice_trial_9.png,images/pattern_5.png,j,j,750.0,10.0,9.0,4.0,1.0,40.0,0.0,0.0,0.0,160.0,,,,,,5cf66ed8912f0b0017c50b52,09:07:15,27/02/2024
html-keyboard-response,222,459778,0.0-92.0-1.0,,<div style='font-weight: bold; font-size: 75px; color: red;'>Missed Trial <br><br><br><br> Please respond faster</div>,,delaylearn,learning,display_response,063W0lAHsGYvwngz6yld2CvNIwI2,063W0lAHsGYvwngz6yld2CvNIwI2,,,,,,,,,,,,,,,,,Missed trial,,,,,5cf66ed8912f0b0017c50b52,09:07:15,27/02/2024
html-keyboard-response,223,459780,0.0-92.0-2.0,,,,delaylearn,learning,feedback_duration_window,063W0lAHsGYvwngz6yld2CvNIwI2,063W0lAHsGYvwngz6yld2CvNIwI2,,,,,,,,,,,,,,,,,,0.0,,,,5cf66ed8912f0b0017c50b52,09:07:15,27/02/2024
html-keyboard-response,224,459781,0.0-92.0-3.0,,,,delaylearn,learning,feedback_image_window,063W0lAHsGYvwngz6yld2CvNIwI2,063W0lAHsGYvwngz6yld2CvNIwI2,,,,,,,,,,,,,,,,,,,,,,5cf66ed8912f0b0017c50b52,09:07:15,27/02/2024
html-keyboard-response,225,460282,0.0-93.0-0.0,,,,,,mood_trial_fixation,063W0lAHsGYvwngz6yld2CvNIwI2,,,,,,,,,,,,,,,,,,,,,,,5cf66ed8912f0b0017c50b52,09:07:15,27/02/2024
lmdlab-html-vas-response,226,465464,0.0-93.0-1.0,4176.0,How happy are you right now?,0.29814814814814816,delaylearn,learning,mood_trial,063W0lAHsGYvwngz6yld2CvNIwI2,063W0lAHsGYvwngz6yld2CvNIwI2,,,,,,,,,,,,,,,,,,,,"['Very unhappy', 'Very happy']",,5cf66ed8912f0b0017c50b52,09:07:15,27/02/2024
html-keyboard-response,227,467175,0.0-94.0,,"<div style=""font-size:100px;"">+</div>",,delaylearn,learning,ITI,063W0lAHsGYvwngz6yld2CvNIwI2,063W0lAHsGYvwngz6yld2CvNIwI2,,,,,,,,,,,,,,,,,,,1709.0,,,5cf66ed8912f0b0017c50b52,09:07:15,27/02/2024
html-keyboard-response,228,468995,0.0-95.0-0.0,1816.0,"<div style=""display: flex; flex-direction: column; align-items: center; margin-top: -40px;""><img src=""images/pattern_4.png"" style=""width: 234px; height: 230px; margin-top: -50px;""><div style=""display: flex; justify-content: space-between; margin-top: 33px;""><img src=""images/choice_trial_7.png"" style=""width: 408px; height: 417px; margin-right: 200px;""><img src=""images/choice_trial_8.png"" style=""width: 408px; height: 417px;""></div></div>",f,delaylearn,learning,trial,063W0lAHsGYvwngz6yld2CvNIwI2,063W0lAHsGYvwngz6yld2CvNIwI2,1.0,images/choice_trial_7.png,images/choice_trial_8.png,images/pattern_4.png,f,f,7000.0,7.0,8.0,3.0,0.0,41.0,1.0,1.0,7.0,170.0,,,,,,5cf66ed8912f0b0017c50b52,09:07:15,27/02/2024
html-keyboard-response,229,469999,0.0-95.0-1.0,,"<div style=""display: flex; flex-direction: column; align-items: center; margin-top: -40px;""><img src=""images/pattern_4.png"" style=""width: 234px; height: 230px; margin-top: -50px;""><div style=""display: flex; justify-content: space-between; margin-top: 33px;""><img src=""images/choice_trial_7.png"" style=""width: 408px; height: 417px; margin-right: 608px;""></div></div>",,delaylearn,learning,display_response,063W0lAHsGYvwngz6yld2CvNIwI2,063W0lAHsGYvwngz6yld2CvNIwI2,,,,,,,,,,,,,,,,,chosen stimuli: images/choice_trial_7.png,,,,,5cf66ed8912f0b0017c50b52,09:07:15,27/02/2024
html-keyboard-response,230,477001,0.0-95.0-2.0,,,,delaylearn,learning,feedback_duration_window,063W0lAHsGYvwngz6yld2CvNIwI2,063W0lAHsGYvwngz6yld2CvNIwI2,,,,,,,,,,,,,,,,,,7000.0,,,,5cf66ed8912f0b0017c50b52,09:07:15,27/02/2024
html-keyboard-response,231,478504,0.0-95.0-3.0,,<div style='margin:auto;width: auto; font-size: 150%'><span style='font-weight: bold; font-size: 100px; color: green;'>+10 points!</span><br><br></div>,,delaylearn,learning,feedback_image_window,063W0lAHsGYvwngz6yld2CvNIwI2,063W0lAHsGYvwngz6yld2CvNIwI2,,,,,,,,,,,,,,,,,,,,,,5cf66ed8912f0b0017c50b52,09:07:15,27/02/2024
html-keyboard-response,232,480555,0.0-96.0,,"<div style=""font-size:100px;"">+</div>",,delaylearn,learning,ITI,063W0lAHsGYvwngz6yld2CvNIwI2,063W0lAHsGYvwngz6yld2CvNIwI2,,,,,,,,,,,,,,,,,,,2048.0,,,5cf66ed8912f0b0017c50b52,09:07:15,27/02/2024
