trial_type,trial_index,time_elapsed,internal_node_id,rt,stimulus,response,exp_name,exp_stage,test_part,subjectID,databaseID,counterbal,choice_stimuli_1,choice_stimuli_2,pattern_stimuli,rewarded_answer,correct_answer,feedback_duration_times,stim_left,stim_right,pair,leftright_counter,trial,response_correct,response_rewarded,chosen_stim,counter,displayed_choice,feedback_durations,ITI_duration,labels,rest_warning,prolificID,start_time,date
pavlovia,0,429,0.0-0.0,,,,,,,Xjd324SwQ1UGjVwMLhelIWhkDCu2,,,,,,,,,,,,,,,,,,,,,,,5f71bba655ed56021e62625b,16:37:21,27/03/2024
html-keyboard-response,1,3441,0.0-1.0,,"<div style=""font-size:100px;"">+</div>",,delaylearn,learning,pre_fixation,Xjd324SwQ1UGjVwMLhelIWhkDCu2,,,,,,,,,,,,,,,,,,,,,,,5f71bba655ed56021e62625b,16:37:21,27/03/2024
html-keyboard-response,2,4699,0.0-2.0-0.0,1255.5,"<div style=""display: flex; flex-direction: column; align-items: center; margin-top: -40px;""><img src=""images/demo_images/pattern_1.png"" style=""width: 234px; height: 230px; margin-top: -50px;""><div style=""display: flex; justify-content: space-between; margin-top: 33px;""><img src=""images/demo_images/choice_trial_2.png"" style=""width: 408px; height: 417px; margin-right: 200px;""><img src=""images/demo_images/choice_trial_1.png"" style=""width: 408px; height: 417px;""></div></div>",j,delaylearn,learning,trial,Xjd324SwQ1UGjVwMLhelIWhkDCu2,Xjd324SwQ1UGjVwMLhelIWhkDCu2,4.0,images/demo_images/choice_trial_2.png,images/demo_images/choice_trial_1.png,images/demo_images/pattern_1.png,j,j,3000.0,2.0,1.0,20.0,1.0,1.0,1.0,1.0,1.0,10.0,,,,,,5f71bba655ed56021e62625b,16:37:21,27/03/2024
html-keyboard-response,3,5723,0.0-2.0-1.0,,"<div style=""display: flex; flex-direction: column; align-items: center; margin-top: -40px;""><img src=""images/demo_images/pattern_1.png"" style=""width: 234px; height: 230px; margin-top: -50px;""><div style=""display: flex; justify-content: space-between; margin-top: 33px;""><img src=""images/demo_images/choice_trial_1.png"" style=""width: 408px; height: 417px; margin-left:608px;""></div></div>",,delaylearn,learning,display_response,Xjd324SwQ1UGjVwMLhelIWhkDCu2,Xjd324SwQ1UGjVwMLhelIWhkDCu2,,,,,,,,,,,,,,,,,chosen stimuli: images/demo_images/choice_trial_1.png,,,,,5f71bba655ed56021e62625b,16:37:21,27/03/2024
html-keyboard-response,4,8732,0.0-2.0-2.0,,,,delaylearn,learning,feedback_duration_window,Xjd324SwQ1UGjVwMLhelIWhkDCu2,Xjd324SwQ1UGjVwMLhelIWhkDCu2,,,,,,,,,,,,,,,,,,3000.0,,,,5f71bba655ed56021e62625b,16:37:21,27/03/2024
html-keyboard-response,5,10250,0.0-2.0-3.0,,<div style='margin:auto;width: auto; font-size: 150%'><span style='font-weight: bold; font-size: 100px; color: green;'>+10 points!</span><br><br></div>,,delaylearn,learning,feedback_image_window,Xjd324SwQ1UGjVwMLhelIWhkDCu2,Xjd324SwQ1UGjVwMLhelIWhkDCu2,,,,,,,,,,,,,,,,,,,,,,5f71bba655ed56021e62625b,16:37:21,27/03/2024
html-keyboard-response,6,12050,0.0-3.0,,"<div style=""font-size:100px;"">+</div>",,delaylearn,learning,ITI,Xjd324SwQ1UGjVwMLhelIWhkDCu2,Xjd324SwQ1UGjVwMLhelIWhkDCu2,,,,,,,,,,,,,,,,,,,1786.0,,,5f71bba655ed56021e62625b,16:37:21,27/03/2024
html-keyboard-response,7,13861,0.0-4.0-0.0,1806.0,"<div style=""display: flex; flex-direction: column; align-items: center; margin-top: -40px;""><img src=""images/demo_images/pattern_1.png"" style=""width: 234px; height: 230px; margin-top: -50px;""><div style=""display: flex; justify-content: space-between; margin-top: 33px;""><img src=""images/demo_images/choice_trial_2.png"" style=""width: 408px; height: 417px; margin-right: 200px;""><img src=""images/demo_images/choice_trial_1.png"" style=""width: 408px; height: 417px;""></div></div>",j,delaylearn,learning,trial,Xjd324SwQ1UGjVwMLhelIWhkDCu2,Xjd324SwQ1UGjVwMLhelIWhkDCu2,4.0,images/demo_images/choice_trial_2.png,images/demo_images/choice_trial_1.png,images/demo_images/pattern_1.png,j,j,3000.0,2.0,1.0,20.0,1.0,2.0,1.0,1.0,1.0,20.0,,,,,,5f71bba655ed56021e62625b,16:37:21,27/03/2024
html-keyboard-response,8,14872,0.0-4.0-1.0,,"<div style=""display: flex; flex-direction: column; align-items: center; margin-top: -40px;""><img src=""images/demo_images/pattern_1.png"" style=""width: 234px; height: 230px; margin-top: -50px;""><div style=""display: flex; justify-content: space-between; margin-top: 33px;""><img src=""images/demo_images/choice_trial_1.png"" style=""width: 408px; height: 417px; margin-left:608px;""></div></div>",,delaylearn,learning,display_response,Xjd324SwQ1UGjVwMLhelIWhkDCu2,Xjd324SwQ1UGjVwMLhelIWhkDCu2,,,,,,,,,,,,,,,,,chosen stimuli: images/demo_images/choice_trial_1.png,,,,,5f71bba655ed56021e62625b,16:37:21,27/03/2024
html-keyboard-response,9,17879,0.0-4.0-2.0,,,,delaylearn,learning,feedback_duration_window,Xjd324SwQ1UGjVwMLhelIWhkDCu2,Xjd324SwQ1UGjVwMLhelIWhkDCu2,,,,,,,,,,,,,,,,,,3000.0,,,,5f71bba655ed56021e62625b,16:37:21,27/03/2024
html-keyboard-response,10,19397,0.0-4.0-3.0,,<div style='margin:auto;width: auto; font-size: 150%'><span style='font-weight: bold; font-size: 100px; color: green;'>+10 points!</span><br><br></div>,,delaylearn,learning,feedback_image_window,Xjd324SwQ1UGjVwMLhelIWhkDCu2,Xjd324SwQ1UGjVwMLhelIWhkDCu2,,,,,,,,,,,,,,,,,,,,,,5f71bba655ed56021e62625b,16:37:21,27/03/2024
html-keyboard-response,11,21415,0.0-5.0,,"<div style=""font-size:100px;"">+</div>",,delaylearn,learning,ITI,Xjd324SwQ1UGjVwMLhelIWhkDCu2,Xjd324SwQ1UGjVwMLhelIWhkDCu2,,,,,,,,,,,,,,,,,,,2014.0,,,5f71bba655ed56021e62625b,16:37:21,27/03/2024
html-keyboard-response,12,22585,0.0-6.0-0.0,1167.3000001907349,"<div style=""display: flex; flex-direction: column; align-items: center; margin-top: -40px;""><img src=""images/demo_images/pattern_1.png"" style=""width: 234px; height: 230px; margin-top: -50px;""><div style=""display: flex; justify-content: space-between; margin-top: 33px;""><img src=""images/demo_images/choice_trial_1.png"" style=""width: 408px; height: 417px; margin-right: 200px;""><img src=""images/demo_images/choice_trial_2.png"" style=""width: 408px; height: 417px;""></div></div>",f,delaylearn,learning,trial,Xjd324SwQ1UGjVwMLhelIWhkDCu2,Xjd324SwQ1UGjVwMLhelIWhkDCu2,4.0,images/demo_images/choice_trial_1.png,images/demo_images/choice_trial_2.png,images/demo_images/pattern_1.png,j,f,3000.0,1.0,2.0,20.0,0.0,3.0,1.0,0.0,1.0,20.0,,,,,,5f71bba655ed56021e62625b,16:37:21,27/03/2024
html-keyboard-response,13,23594,0.0-6.0-1.0,,"<div style=""display: flex; flex-direction: column; align-items: center; margin-top: -40px;""><img src=""images/demo_images/pattern_1.png"" style=""width: 234px; height: 230px; margin-top: -50px;""><div style=""display: flex; justify-content: space-between; margin-top: 33px;""><img src=""images/demo_images/choice_trial_1.png"" style=""width: 408px; height: 417px; margin-right: 608px;""></div></div>",,delaylearn,learning,display_response,Xjd324SwQ1UGjVwMLhelIWhkDCu2,Xjd324SwQ1UGjVwMLhelIWhkDCu2,,,,,,,,,,,,,,,,,chosen stimuli: images/demo_images/choice_trial_1.png,,,,,5f71bba655ed56021e62625b,16:37:21,27/03/2024
html-keyboard-response,14,26612,0.0-6.0-2.0,,,,delaylearn,learning,feedback_duration_window,Xjd324SwQ1UGjVwMLhelIWhkDCu2,Xjd324SwQ1UGjVwMLhelIWhkDCu2,,,,,,,,,,,,,,,,,,3000.0,,,,5f71bba655ed56021e62625b,16:37:21,27/03/2024
html-keyboard-response,15,28130,0.0-6.0-3.0,,<div style='margin:auto;width: auto; font-size: 150%'><span style='font-weight: bold; font-size: 100px; color: red;'>0 points!</span><br><br></div>,,delaylearn,learning,feedback_image_window,Xjd324SwQ1UGjVwMLhelIWhkDCu2,Xjd324SwQ1UGjVwMLhelIWhkDCu2,,,,,,,,,,,,,,,,,,,,,,5f71bba655ed56021e62625b,16:37:21,27/03/2024
html-keyboard-response,16,30348,0.0-7.0,,"<div style=""font-size:100px;"">+</div>",,delaylearn,learning,ITI,Xjd324SwQ1UGjVwMLhelIWhkDCu2,Xjd324SwQ1UGjVwMLhelIWhkDCu2,,,,,,,,,,,,,,,,,,,2200.0,,,5f71bba655ed56021e62625b,16:37:21,27/03/2024
html-keyboard-response,17,31533,0.0-8.0-0.0,1181.9000000953674,"<div style=""display: flex; flex-direction: column; align-items: center; margin-top: -40px;""><img src=""images/demo_images/pattern_1.png"" style=""width: 234px; height: 230px; margin-top: -50px;""><div style=""display: flex; justify-content: space-between; margin-top: 33px;""><img src=""images/demo_images/choice_trial_1.png"" style=""width: 408px; height: 417px; margin-right: 200px;""><img src=""images/demo_images/choice_trial_2.png"" style=""width: 408px; height: 417px;""></div></div>",j,delaylearn,learning,trial,Xjd324SwQ1UGjVwMLhelIWhkDCu2,Xjd324SwQ1UGjVwMLhelIWhkDCu2,4.0,images/demo_images/choice_trial_1.png,images/demo_images/choice_trial_2.png,images/demo_images/pattern_1.png,f,f,3000.0,1.0,2.0,20.0,0.0,4.0,0.0,0.0,2.0,20.0,,,,,,5f71bba655ed56021e62625b,16:37:21,27/03/2024
html-keyboard-response,18,32542,0.0-8.0-1.0,,"<div style=""display: flex; flex-direction: column; align-items: center; margin-top: -40px;""><img src=""images/demo_images/pattern_1.png"" style=""width: 234px; height: 230px; margin-top: -50px;""><div style=""display: flex; justify-content: space-between; margin-top: 33px;""><img src=""images/demo_images/choice_trial_2.png"" style=""width: 408px; height: 417px; margin-left:608px;""></div></div>",,delaylearn,learning,display_response,Xjd324SwQ1UGjVwMLhelIWhkDCu2,Xjd324SwQ1UGjVwMLhelIWhkDCu2,,,,,,,,,,,,,,,,,chosen stimuli: images/demo_images/choice_trial_2.png,,,,,5f71bba655ed56021e62625b,16:37:21,27/03/2024
html-keyboard-response,19,35560,0.0-8.0-2.0,,,,delaylearn,learning,feedback_duration_window,Xjd324SwQ1UGjVwMLhelIWhkDCu2,Xjd324SwQ1UGjVwMLhelIWhkDCu2,,,,,,,,,,,,,,,,,,3000.0,,,,5f71bba655ed56021e62625b,16:37:21,27/03/2024
html-keyboard-response,20,37078,0.0-8.0-3.0,,<div style='margin:auto;width: auto; font-size: 150%'><span style='font-weight: bold; font-size: 100px; color: red;'>0 points!</span><br><br></div>,,delaylearn,learning,feedback_image_window,Xjd324SwQ1UGjVwMLhelIWhkDCu2,Xjd324SwQ1UGjVwMLhelIWhkDCu2,,,,,,,,,,,,,,,,,,,,,,5f71bba655ed56021e62625b,16:37:21,27/03/2024
html-keyboard-response,21,37588,0.0-9.0-0.0,,,,,,mood_trial_fixation,Xjd324SwQ1UGjVwMLhelIWhkDCu2,,,,,,,,,,,,,,,,,,,,,,,5f71bba655ed56021e62625b,16:37:21,27/03/2024
lmdlab-html-vas-response,22,41951,0.0-9.0-1.0,3348.0,How happy are you right now?,0.5339506172839507,delaylearn,learning,mood_trial,Xjd324SwQ1UGjVwMLhelIWhkDCu2,Xjd324SwQ1UGjVwMLhelIWhkDCu2,,,,,,,,,,,,,,,,,,,,"['Very unhappy', 'Very happy']",,5f71bba655ed56021e62625b,16:37:21,27/03/2024
html-keyboard-response,23,43913,0.0-10.0,,"<div style=""font-size:100px;"">+</div>",,delaylearn,learning,ITI,Xjd324SwQ1UGjVwMLhelIWhkDCu2,Xjd324SwQ1UGjVwMLhelIWhkDCu2,,,,,,,,,,,,,,,,,,,1946.0,,,5f71bba655ed56021e62625b,16:37:21,27/03/2024
html-keyboard-response,24,45106,0.0-11.0-0.0,1191.4000000953674,"<div style=""display: flex; flex-direction: column; align-items: center; margin-top: -40px;""><img src=""images/demo_images/pattern_1.png"" style=""width: 234px; height: 230px; margin-top: -50px;""><div style=""display: flex; justify-content: space-between; margin-top: 33px;""><img src=""images/demo_images/choice_trial_2.png"" style=""width: 408px; height: 417px; margin-right: 200px;""><img src=""images/demo_images/choice_trial_1.png"" style=""width: 408px; height: 417px;""></div></div>",j,delaylearn,learning,trial,Xjd324SwQ1UGjVwMLhelIWhkDCu2,Xjd324SwQ1UGjVwMLhelIWhkDCu2,4.0,images/demo_images/choice_trial_2.png,images/demo_images/choice_trial_1.png,images/demo_images/pattern_1.png,j,j,3000.0,2.0,1.0,20.0,1.0,5.0,1.0,1.0,1.0,30.0,,,,,,5f71bba655ed56021e62625b,16:37:21,27/03/2024
html-keyboard-response,25,46122,0.0-11.0-1.0,,"<div style=""display: flex; flex-direction: column; align-items: center; margin-top: -40px;""><img src=""images/demo_images/pattern_1.png"" style=""width: 234px; height: 230px; margin-top: -50px;""><div style=""display: flex; justify-content: space-between; margin-top: 33px;""><img src=""images/demo_images/choice_trial_1.png"" style=""width: 408px; height: 417px; margin-left:608px;""></div></div>",,delaylearn,learning,display_response,Xjd324SwQ1UGjVwMLhelIWhkDCu2,Xjd324SwQ1UGjVwMLhelIWhkDCu2,,,,,,,,,,,,,,,,,chosen stimuli: images/demo_images/choice_trial_1.png,,,,,5f71bba655ed56021e62625b,16:37:21,27/03/2024
html-keyboard-response,26,49135,0.0-11.0-2.0,,,,delaylearn,learning,feedback_duration_window,Xjd324SwQ1UGjVwMLhelIWhkDCu2,Xjd324SwQ1UGjVwMLhelIWhkDCu2,,,,,,,,,,,,,,,,,,3000.0,,,,5f71bba655ed56021e62625b,16:37:21,27/03/2024
html-keyboard-response,27,50653,0.0-11.0-3.0,,<div style='margin:auto;width: auto; font-size: 150%'><span style='font-weight: bold; font-size: 100px; color: green;'>+10 points!</span><br><br></div>,,delaylearn,learning,feedback_image_window,Xjd324SwQ1UGjVwMLhelIWhkDCu2,Xjd324SwQ1UGjVwMLhelIWhkDCu2,,,,,,,,,,,,,,,,,,,,,,5f71bba655ed56021e62625b,16:37:21,27/03/2024
html-keyboard-response,28,52930,0.0-12.0,,"<div style=""font-size:100px;"">+</div>",,delaylearn,learning,ITI,Xjd324SwQ1UGjVwMLhelIWhkDCu2,Xjd324SwQ1UGjVwMLhelIWhkDCu2,,,,,,,,,,,,,,,,,,,2265.0,,,5f71bba655ed56021e62625b,16:37:21,27/03/2024
html-keyboard-response,29,54572,0.0-13.0-0.0,1638.7999997138977,"<div style=""display: flex; flex-direction: column; align-items: center; margin-top: -40px;""><img src=""images/demo_images/pattern_1.png"" style=""width: 234px; height: 230px; margin-top: -50px;""><div style=""display: flex; justify-content: space-between; margin-top: 33px;""><img src=""images/demo_images/choice_trial_1.png"" style=""width: 408px; height: 417px; margin-right: 200px;""><img src=""images/demo_images/choice_trial_2.png"" style=""width: 408px; height: 417px;""></div></div>",f,delaylearn,learning,trial,Xjd324SwQ1UGjVwMLhelIWhkDCu2,Xjd324SwQ1UGjVwMLhelIWhkDCu2,4.0,images/demo_images/choice_trial_1.png,images/demo_images/choice_trial_2.png,images/demo_images/pattern_1.png,f,f,3000.0,1.0,2.0,20.0,0.0,6.0,1.0,1.0,1.0,40.0,,,,,,5f71bba655ed56021e62625b,16:37:21,27/03/2024
html-keyboard-response,30,55590,0.0-13.0-1.0,,"<div style=""display: flex; flex-direction: column; align-items: center; margin-top: -40px;""><img src=""images/demo_images/pattern_1.png"" style=""width: 234px; height: 230px; margin-top: -50px;""><div style=""display: flex; justify-content: space-between; margin-top: 33px;""><img src=""images/demo_images/choice_trial_1.png"" style=""width: 408px; height: 417px; margin-right: 608px;""></div></div>",,delaylearn,learning,display_response,Xjd324SwQ1UGjVwMLhelIWhkDCu2,Xjd324SwQ1UGjVwMLhelIWhkDCu2,,,,,,,,,,,,,,,,,chosen stimuli: images/demo_images/choice_trial_1.png,,,,,5f71bba655ed56021e62625b,16:37:21,27/03/2024
html-keyboard-response,31,58599,0.0-13.0-2.0,,,,delaylearn,learning,feedback_duration_window,Xjd324SwQ1UGjVwMLhelIWhkDCu2,Xjd324SwQ1UGjVwMLhelIWhkDCu2,,,,,,,,,,,,,,,,,,3000.0,,,,5f71bba655ed56021e62625b,16:37:21,27/03/2024
html-keyboard-response,32,60117,0.0-13.0-3.0,,<div style='margin:auto;width: auto; font-size: 150%'><span style='font-weight: bold; font-size: 100px; color: green;'>+10 points!</span><br><br></div>,,delaylearn,learning,feedback_image_window,Xjd324SwQ1UGjVwMLhelIWhkDCu2,Xjd324SwQ1UGjVwMLhelIWhkDCu2,,,,,,,,,,,,,,,,,,,,,,5f71bba655ed56021e62625b,16:37:21,27/03/2024
html-keyboard-response,33,62144,0.0-14.0,,"<div style=""font-size:100px;"">+</div>",,delaylearn,learning,ITI,Xjd324SwQ1UGjVwMLhelIWhkDCu2,Xjd324SwQ1UGjVwMLhelIWhkDCu2,,,,,,,,,,,,,,,,,,,2020.0,,,5f71bba655ed56021e62625b,16:37:21,27/03/2024
html-keyboard-response,34,63040,0.0-15.0-0.0,892.4000000953674,"<div style=""display: flex; flex-direction: column; align-items: center; margin-top: -40px;""><img src=""images/demo_images/pattern_1.png"" style=""width: 234px; height: 230px; margin-top: -50px;""><div style=""display: flex; justify-content: space-between; margin-top: 33px;""><img src=""images/demo_images/choice_trial_2.png"" style=""width: 408px; height: 417px; margin-right: 200px;""><img src=""images/demo_images/choice_trial_1.png"" style=""width: 408px; height: 417px;""></div></div>",j,delaylearn,learning,trial,Xjd324SwQ1UGjVwMLhelIWhkDCu2,Xjd324SwQ1UGjVwMLhelIWhkDCu2,4.0,images/demo_images/choice_trial_2.png,images/demo_images/choice_trial_1.png,images/demo_images/pattern_1.png,j,j,3000.0,2.0,1.0,20.0,1.0,7.0,1.0,1.0,1.0,50.0,,,,,,5f71bba655ed56021e62625b,16:37:21,27/03/2024
html-keyboard-response,35,64051,0.0-15.0-1.0,,"<div style=""display: flex; flex-direction: column; align-items: center; margin-top: -40px;""><img src=""images/demo_images/pattern_1.png"" style=""width: 234px; height: 230px; margin-top: -50px;""><div style=""display: flex; justify-content: space-between; margin-top: 33px;""><img src=""images/demo_images/choice_trial_1.png"" style=""width: 408px; height: 417px; margin-left:608px;""></div></div>",,delaylearn,learning,display_response,Xjd324SwQ1UGjVwMLhelIWhkDCu2,Xjd324SwQ1UGjVwMLhelIWhkDCu2,,,,,,,,,,,,,,,,,chosen stimuli: images/demo_images/choice_trial_1.png,,,,,5f71bba655ed56021e62625b,16:37:21,27/03/2024
html-keyboard-response,36,67068,0.0-15.0-2.0,,,,delaylearn,learning,feedback_duration_window,Xjd324SwQ1UGjVwMLhelIWhkDCu2,Xjd324SwQ1UGjVwMLhelIWhkDCu2,,,,,,,,,,,,,,,,,,3000.0,,,,5f71bba655ed56021e62625b,16:37:21,27/03/2024
html-keyboard-response,37,68578,0.0-15.0-3.0,,<div style='margin:auto;width: auto; font-size: 150%'><span style='font-weight: bold; font-size: 100px; color: green;'>+10 points!</span><br><br></div>,,delaylearn,learning,feedback_image_window,Xjd324SwQ1UGjVwMLhelIWhkDCu2,Xjd324SwQ1UGjVwMLhelIWhkDCu2,,,,,,,,,,,,,,,,,,,,,,5f71bba655ed56021e62625b,16:37:21,27/03/2024
html-keyboard-response,38,71003,0.0-16.0,,"<div style=""font-size:100px;"">+</div>",,delaylearn,learning,ITI,Xjd324SwQ1UGjVwMLhelIWhkDCu2,Xjd324SwQ1UGjVwMLhelIWhkDCu2,,,,,,,,,,,,,,,,,,,2406.0,,,5f71bba655ed56021e62625b,16:37:21,27/03/2024
html-keyboard-response,39,71515,0.0-17.0-0.0,508.6000003814697,"<div style=""display: flex; flex-direction: column; align-items: center; margin-top: -40px;""><img src=""images/demo_images/pattern_1.png"" style=""width: 234px; height: 230px; margin-top: -50px;""><div style=""display: flex; justify-content: space-between; margin-top: 33px;""><img src=""images/demo_images/choice_trial_1.png"" style=""width: 408px; height: 417px; margin-right: 200px;""><img src=""images/demo_images/choice_trial_2.png"" style=""width: 408px; height: 417px;""></div></div>",f,delaylearn,learning,trial,Xjd324SwQ1UGjVwMLhelIWhkDCu2,Xjd324SwQ1UGjVwMLhelIWhkDCu2,4.0,images/demo_images/choice_trial_1.png,images/demo_images/choice_trial_2.png,images/demo_images/pattern_1.png,f,f,3000.0,1.0,2.0,20.0,0.0,8.0,1.0,1.0,1.0,60.0,,,,,,5f71bba655ed56021e62625b,16:37:21,27/03/2024
html-keyboard-response,40,72532,0.0-17.0-1.0,,"<div style=""display: flex; flex-direction: column; align-items: center; margin-top: -40px;""><img src=""images/demo_images/pattern_1.png"" style=""width: 234px; height: 230px; margin-top: -50px;""><div style=""display: flex; justify-content: space-between; margin-top: 33px;""><img src=""images/demo_images/choice_trial_1.png"" style=""width: 408px; height: 417px; margin-right: 608px;""></div></div>",,delaylearn,learning,display_response,Xjd324SwQ1UGjVwMLhelIWhkDCu2,Xjd324SwQ1UGjVwMLhelIWhkDCu2,,,,,,,,,,,,,,,,,chosen stimuli: images/demo_images/choice_trial_1.png,,,,,5f71bba655ed56021e62625b,16:37:21,27/03/2024
html-keyboard-response,41,75549,0.0-17.0-2.0,,,,delaylearn,learning,feedback_duration_window,Xjd324SwQ1UGjVwMLhelIWhkDCu2,Xjd324SwQ1UGjVwMLhelIWhkDCu2,,,,,,,,,,,,,,,,,,3000.0,,,,5f71bba655ed56021e62625b,16:37:21,27/03/2024
html-keyboard-response,42,77067,0.0-17.0-3.0,,<div style='margin:auto;width: auto; font-size: 150%'><span style='font-weight: bold; font-size: 100px; color: green;'>+10 points!</span><br><br></div>,,delaylearn,learning,feedback_image_window,Xjd324SwQ1UGjVwMLhelIWhkDCu2,Xjd324SwQ1UGjVwMLhelIWhkDCu2,,,,,,,,,,,,,,,,,,,,,,5f71bba655ed56021e62625b,16:37:21,27/03/2024
html-button-response,43,79718,0.0-18.0,2649.4000000953674,"
  <div style=""display: flex; align-items: center; justify-content: center; height: 80vh;"">
  <div>
          <img src=""images/inst_demo_finish.png"" style=""width: 80vw; height:auto;"">
          <br><br>
      </div>
      <br><br>
  </div>",0,,,,Xjd324SwQ1UGjVwMLhelIWhkDCu2,,,,,,,,,,,,,,,,,,,,,,,5f71bba655ed56021e62625b,16:37:21,27/03/2024
html-keyboard-response,44,82075,0.0-19.0,2355.7999997138977,"
  <div style=""display: flex; align-items: center; justify-content: center; height: 80vh;"">
  <div>
          <img src=""images/inst_6.png"" style=""width: 80vw; height:auto;"">
          <br><br>
      </div>
      <br><br>
  </div>",j,,,,Xjd324SwQ1UGjVwMLhelIWhkDCu2,,,,,,,,,,,,,,,,,,,,,,,5f71bba655ed56021e62625b,16:37:21,27/03/2024
html-keyboard-response,45,85085,0.0-20.0,,"<div style=""font-size:100px;"">+</div>",,delaylearn,learning,pre_fixation,Xjd324SwQ1UGjVwMLhelIWhkDCu2,,,,,,,,,,,,,,,,,,,,,,,5f71bba655ed56021e62625b,16:37:21,27/03/2024
html-keyboard-response,46,87062,0.0-21.0,,"<div style=""font-size:100px;"">+</div>",,delaylearn,learning,ITI,Xjd324SwQ1UGjVwMLhelIWhkDCu2,Xjd324SwQ1UGjVwMLhelIWhkDCu2,,,,,,,,,,,,,,,,,,,1961.0,,,5f71bba655ed56021e62625b,16:37:21,27/03/2024
html-keyboard-response,47,87996,0.0-22.0-0.0,929.5,"<div style=""display: flex; flex-direction: column; align-items: center; margin-top: -40px;""><img src=""images/pattern_3.png"" style=""width: 234px; height: 230px; margin-top: -50px;""><div style=""display: flex; justify-content: space-between; margin-top: 33px;""><img src=""images/choice_trial_16.png"" style=""width: 408px; height: 417px; margin-right: 200px;""><img src=""images/choice_trial_6.png"" style=""width: 408px; height: 417px;""></div></div>",f,delaylearn,learning,trial,Xjd324SwQ1UGjVwMLhelIWhkDCu2,Xjd324SwQ1UGjVwMLhelIWhkDCu2,4.0,images/choice_trial_16.png,images/choice_trial_6.png,images/pattern_3.png,f,f,7000.0,16.0,6.0,2.0,0.0,9.0,1.0,1.0,16.0,70.0,,,,,,5f71bba655ed56021e62625b,16:37:21,27/03/2024
html-keyboard-response,48,89014,0.0-22.0-1.0,,"<div style=""display: flex; flex-direction: column; align-items: center; margin-top: -40px;""><img src=""images/pattern_3.png"" style=""width: 234px; height: 230px; margin-top: -50px;""><div style=""display: flex; justify-content: space-between; margin-top: 33px;""><img src=""images/choice_trial_16.png"" style=""width: 408px; height: 417px; margin-right: 608px;""></div></div>",,delaylearn,learning,display_response,Xjd324SwQ1UGjVwMLhelIWhkDCu2,Xjd324SwQ1UGjVwMLhelIWhkDCu2,,,,,,,,,,,,,,,,,chosen stimuli: images/choice_trial_16.png,,,,,5f71bba655ed56021e62625b,16:37:21,27/03/2024
html-keyboard-response,49,96029,0.0-22.0-2.0,,,,delaylearn,learning,feedback_duration_window,Xjd324SwQ1UGjVwMLhelIWhkDCu2,Xjd324SwQ1UGjVwMLhelIWhkDCu2,,,,,,,,,,,,,,,,,,7000.0,,,,5f71bba655ed56021e62625b,16:37:21,27/03/2024
html-keyboard-response,50,97539,0.0-22.0-3.0,,<div style='margin:auto;width: auto; font-size: 150%'><span style='font-weight: bold; font-size: 100px; color: green;'>+10 points!</span><br><br></div>,,delaylearn,learning,feedback_image_window,Xjd324SwQ1UGjVwMLhelIWhkDCu2,Xjd324SwQ1UGjVwMLhelIWhkDCu2,,,,,,,,,,,,,,,,,,,,,,5f71bba655ed56021e62625b,16:37:21,27/03/2024
html-keyboard-response,51,99244,0.0-23.0,,"<div style=""font-size:100px;"">+</div>",,delaylearn,learning,ITI,Xjd324SwQ1UGjVwMLhelIWhkDCu2,Xjd324SwQ1UGjVwMLhelIWhkDCu2,,,,,,,,,,,,,,,,,,,1694.0,,,5f71bba655ed56021e62625b,16:37:21,27/03/2024
html-keyboard-response,52,100689,0.0-24.0-0.0,1443.0,"<div style=""display: flex; flex-direction: column; align-items: center; margin-top: -40px;""><img src=""images/pattern_7.png"" style=""width: 234px; height: 230px; margin-top: -50px;""><div style=""display: flex; justify-content: space-between; margin-top: 33px;""><img src=""images/choice_trial_4.png"" style=""width: 408px; height: 417px; margin-right: 200px;""><img src=""images/choice_trial_13.png"" style=""width: 408px; height: 417px;""></div></div>",j,delaylearn,learning,trial,Xjd324SwQ1UGjVwMLhelIWhkDCu2,Xjd324SwQ1UGjVwMLhelIWhkDCu2,4.0,images/choice_trial_4.png,images/choice_trial_13.png,images/pattern_7.png,j,j,750.0,4.0,13.0,6.0,1.0,10.0,1.0,1.0,13.0,80.0,,,,,,5f71bba655ed56021e62625b,16:37:21,27/03/2024
html-keyboard-response,53,101703,0.0-24.0-1.0,,"<div style=""display: flex; flex-direction: column; align-items: center; margin-top: -40px;""><img src=""images/pattern_7.png"" style=""width: 234px; height: 230px; margin-top: -50px;""><div style=""display: flex; justify-content: space-between; margin-top: 33px;""><img src=""images/choice_trial_13.png"" style=""width: 408px; height: 417px; margin-left:608px;""></div></div>",,delaylearn,learning,display_response,Xjd324SwQ1UGjVwMLhelIWhkDCu2,Xjd324SwQ1UGjVwMLhelIWhkDCu2,,,,,,,,,,,,,,,,,chosen stimuli: images/choice_trial_13.png,,,,,5f71bba655ed56021e62625b,16:37:21,27/03/2024
html-keyboard-response,54,102470,0.0-24.0-2.0,,,,delaylearn,learning,feedback_duration_window,Xjd324SwQ1UGjVwMLhelIWhkDCu2,Xjd324SwQ1UGjVwMLhelIWhkDCu2,,,,,,,,,,,,,,,,,,750.0,,,,5f71bba655ed56021e62625b,16:37:21,27/03/2024
html-keyboard-response,55,103989,0.0-24.0-3.0,,<div style='margin:auto;width: auto; font-size: 150%'><span style='font-weight: bold; font-size: 100px; color: green;'>+10 points!</span><br><br></div>,,delaylearn,learning,feedback_image_window,Xjd324SwQ1UGjVwMLhelIWhkDCu2,Xjd324SwQ1UGjVwMLhelIWhkDCu2,,,,,,,,,,,,,,,,,,,,,,5f71bba655ed56021e62625b,16:37:21,27/03/2024
html-keyboard-response,56,105902,0.0-25.0,,"<div style=""font-size:100px;"">+</div>",,delaylearn,learning,ITI,Xjd324SwQ1UGjVwMLhelIWhkDCu2,Xjd324SwQ1UGjVwMLhelIWhkDCu2,,,,,,,,,,,,,,,,,,,1903.0,,,5f71bba655ed56021e62625b,16:37:21,27/03/2024
html-keyboard-response,57,108093,0.0-26.0-0.0,2187.9000000953674,"<div style=""display: flex; flex-direction: column; align-items: center; margin-top: -40px;""><img src=""images/pattern_4.png"" style=""width: 234px; height: 230px; margin-top: -50px;""><div style=""display: flex; justify-content: space-between; margin-top: 33px;""><img src=""images/choice_trial_8.png"" style=""width: 408px; height: 417px; margin-right: 200px;""><img src=""images/choice_trial_7.png"" style=""width: 408px; height: 417px;""></div></div>",j,delaylearn,learning,trial,Xjd324SwQ1UGjVwMLhelIWhkDCu2,Xjd324SwQ1UGjVwMLhelIWhkDCu2,4.0,images/choice_trial_8.png,images/choice_trial_7.png,images/pattern_4.png,f,f,7000.0,8.0,7.0,3.0,0.0,11.0,0.0,0.0,7.0,80.0,,,,,,5f71bba655ed56021e62625b,16:37:21,27/03/2024
html-keyboard-response,58,109104,0.0-26.0-1.0,,"<div style=""display: flex; flex-direction: column; align-items: center; margin-top: -40px;""><img src=""images/pattern_4.png"" style=""width: 234px; height: 230px; margin-top: -50px;""><div style=""display: flex; justify-content: space-between; margin-top: 33px;""><img src=""images/choice_trial_7.png"" style=""width: 408px; height: 417px; margin-left:608px;""></div></div>",,delaylearn,learning,display_response,Xjd324SwQ1UGjVwMLhelIWhkDCu2,Xjd324SwQ1UGjVwMLhelIWhkDCu2,,,,,,,,,,,,,,,,,chosen stimuli: images/choice_trial_7.png,,,,,5f71bba655ed56021e62625b,16:37:21,27/03/2024
html-keyboard-response,59,116123,0.0-26.0-2.0,,,,delaylearn,learning,feedback_duration_window,Xjd324SwQ1UGjVwMLhelIWhkDCu2,Xjd324SwQ1UGjVwMLhelIWhkDCu2,,,,,,,,,,,,,,,,,,7000.0,,,,5f71bba655ed56021e62625b,16:37:21,27/03/2024
html-keyboard-response,60,117643,0.0-26.0-3.0,,<div style='margin:auto;width: auto; font-size: 150%'><span style='font-weight: bold; font-size: 100px; color: red;'>0 points!</span><br><br></div>,,delaylearn,learning,feedback_image_window,Xjd324SwQ1UGjVwMLhelIWhkDCu2,Xjd324SwQ1UGjVwMLhelIWhkDCu2,,,,,,,,,,,,,,,,,,,,,,5f71bba655ed56021e62625b,16:37:21,27/03/2024
html-keyboard-response,61,119512,0.0-27.0,,"<div style=""font-size:100px;"">+</div>",,delaylearn,learning,ITI,Xjd324SwQ1UGjVwMLhelIWhkDCu2,Xjd324SwQ1UGjVwMLhelIWhkDCu2,,,,,,,,,,,,,,,,,,,1850.0,,,5f71bba655ed56021e62625b,16:37:21,27/03/2024
html-keyboard-response,62,122531,0.0-28.0-0.0,,"<div style=""display: flex; flex-direction: column; align-items: center; margin-top: -40px;""><img src=""images/pattern_5.png"" style=""width: 234px; height: 230px; margin-top: -50px;""><div style=""display: flex; justify-content: space-between; margin-top: 33px;""><img src=""images/choice_trial_15.png"" style=""width: 408px; height: 417px; margin-right: 200px;""><img src=""images/choice_trial_5.png"" style=""width: 408px; height: 417px;""></div></div>",,delaylearn,learning,trial,Xjd324SwQ1UGjVwMLhelIWhkDCu2,Xjd324SwQ1UGjVwMLhelIWhkDCu2,4.0,images/choice_trial_15.png,images/choice_trial_5.png,images/pattern_5.png,j,j,750.0,15.0,5.0,4.0,1.0,12.0,0.0,0.0,0.0,80.0,,,,,,5f71bba655ed56021e62625b,16:37:21,27/03/2024
html-keyboard-response,63,123543,0.0-28.0-1.0,,<div style='font-weight: bold; font-size: 75px; color: red;'>Missed Trial <br><br><br><br> Please respond faster</div>,,delaylearn,learning,display_response,Xjd324SwQ1UGjVwMLhelIWhkDCu2,Xjd324SwQ1UGjVwMLhelIWhkDCu2,,,,,,,,,,,,,,,,,Missed trial,,,,,5f71bba655ed56021e62625b,16:37:21,27/03/2024
html-keyboard-response,64,123551,0.0-28.0-2.0,,,,delaylearn,learning,feedback_duration_window,Xjd324SwQ1UGjVwMLhelIWhkDCu2,Xjd324SwQ1UGjVwMLhelIWhkDCu2,,,,,,,,,,,,,,,,,,0.0,,,,5f71bba655ed56021e62625b,16:37:21,27/03/2024
html-keyboard-response,65,123559,0.0-28.0-3.0,,,,delaylearn,learning,feedback_image_window,Xjd324SwQ1UGjVwMLhelIWhkDCu2,Xjd324SwQ1UGjVwMLhelIWhkDCu2,,,,,,,,,,,,,,,,,,,,,,5f71bba655ed56021e62625b,16:37:21,27/03/2024
html-keyboard-response,66,125647,0.0-29.0,,"<div style=""font-size:100px;"">+</div>",,delaylearn,learning,ITI,Xjd324SwQ1UGjVwMLhelIWhkDCu2,Xjd324SwQ1UGjVwMLhelIWhkDCu2,,,,,,,,,,,,,,,,,,,2079.0,,,5f71bba655ed56021e62625b,16:37:21,27/03/2024
html-keyboard-response,67,126515,0.0-30.0-0.0,864.1999998092651,"<div style=""display: flex; flex-direction: column; align-items: center; margin-top: -40px;""><img src=""images/pattern_6.png"" style=""width: 234px; height: 230px; margin-top: -50px;""><div style=""display: flex; justify-content: space-between; margin-top: 33px;""><img src=""images/choice_trial_10.png"" style=""width: 408px; height: 417px; margin-right: 200px;""><img src=""images/choice_trial_3.png"" style=""width: 408px; height: 417px;""></div></div>",j,delaylearn,learning,trial,Xjd324SwQ1UGjVwMLhelIWhkDCu2,Xjd324SwQ1UGjVwMLhelIWhkDCu2,4.0,images/choice_trial_10.png,images/choice_trial_3.png,images/pattern_6.png,j,f,750.0,10.0,3.0,5.0,0.0,13.0,0.0,1.0,3.0,90.0,,,,,,5f71bba655ed56021e62625b,16:37:21,27/03/2024
html-keyboard-response,68,127525,0.0-30.0-1.0,,"<div style=""display: flex; flex-direction: column; align-items: center; margin-top: -40px;""><img src=""images/pattern_6.png"" style=""width: 234px; height: 230px; margin-top: -50px;""><div style=""display: flex; justify-content: space-between; margin-top: 33px;""><img src=""images/choice_trial_3.png"" style=""width: 408px; height: 417px; margin-left:608px;""></div></div>",,delaylearn,learning,display_response,Xjd324SwQ1UGjVwMLhelIWhkDCu2,Xjd324SwQ1UGjVwMLhelIWhkDCu2,,,,,,,,,,,,,,,,,chosen stimuli: images/choice_trial_3.png,,,,,5f71bba655ed56021e62625b,16:37:21,27/03/2024
html-keyboard-response,69,128293,0.0-30.0-2.0,,,,delaylearn,learning,feedback_duration_window,Xjd324SwQ1UGjVwMLhelIWhkDCu2,Xjd324SwQ1UGjVwMLhelIWhkDCu2,,,,,,,,,,,,,,,,,,750.0,,,,5f71bba655ed56021e62625b,16:37:21,27/03/2024
html-keyboard-response,70,129811,0.0-30.0-3.0,,<div style='margin:auto;width: auto; font-size: 150%'><span style='font-weight: bold; font-size: 100px; color: green;'>+10 points!</span><br><br></div>,,delaylearn,learning,feedback_image_window,Xjd324SwQ1UGjVwMLhelIWhkDCu2,Xjd324SwQ1UGjVwMLhelIWhkDCu2,,,,,,,,,,,,,,,,,,,,,,5f71bba655ed56021e62625b,16:37:21,27/03/2024
html-keyboard-response,71,130329,0.0-31.0-0.0,,,,,,mood_trial_fixation,Xjd324SwQ1UGjVwMLhelIWhkDCu2,,,,,,,,,,,,,,,,,,,,,,,5f71bba655ed56021e62625b,16:37:21,27/03/2024
lmdlab-html-vas-response,72,134796,0.0-31.0-1.0,3448.0,How happy are you right now?,0.6898148148148148,delaylearn,learning,mood_trial,Xjd324SwQ1UGjVwMLhelIWhkDCu2,Xjd324SwQ1UGjVwMLhelIWhkDCu2,,,,,,,,,,,,,,,,,,,,"['Very unhappy', 'Very happy']",,5f71bba655ed56021e62625b,16:37:21,27/03/2024
html-keyboard-response,73,137051,0.0-32.0,,"<div style=""font-size:100px;"">+</div>",,delaylearn,learning,ITI,Xjd324SwQ1UGjVwMLhelIWhkDCu2,Xjd324SwQ1UGjVwMLhelIWhkDCu2,,,,,,,,,,,,,,,,,,,2235.0,,,5f71bba655ed56021e62625b,16:37:21,27/03/2024
html-keyboard-response,74,138230,0.0-33.0-0.0,1175.5999999046326,"<div style=""display: flex; flex-direction: column; align-items: center; margin-top: -40px;""><img src=""images/pattern_1.png"" style=""width: 234px; height: 230px; margin-top: -50px;""><div style=""display: flex; justify-content: space-between; margin-top: 33px;""><img src=""images/choice_trial_9.png"" style=""width: 408px; height: 417px; margin-right: 200px;""><img src=""images/choice_trial_1.png"" style=""width: 408px; height: 417px;""></div></div>",j,delaylearn,learning,trial,Xjd324SwQ1UGjVwMLhelIWhkDCu2,Xjd324SwQ1UGjVwMLhelIWhkDCu2,4.0,images/choice_trial_9.png,images/choice_trial_1.png,images/pattern_1.png,j,j,7000.0,9.0,1.0,1.0,1.0,14.0,1.0,1.0,1.0,100.0,,,,,,5f71bba655ed56021e62625b,16:37:21,27/03/2024
html-keyboard-response,75,139240,0.0-33.0-1.0,,"<div style=""display: flex; flex-direction: column; align-items: center; margin-top: -40px;""><img src=""images/pattern_1.png"" style=""width: 234px; height: 230px; margin-top: -50px;""><div style=""display: flex; justify-content: space-between; margin-top: 33px;""><img src=""images/choice_trial_1.png"" style=""width: 408px; height: 417px; margin-left:608px;""></div></div>",,delaylearn,learning,display_response,Xjd324SwQ1UGjVwMLhelIWhkDCu2,Xjd324SwQ1UGjVwMLhelIWhkDCu2,,,,,,,,,,,,,,,,,chosen stimuli: images/choice_trial_1.png,,,,,5f71bba655ed56021e62625b,16:37:21,27/03/2024
html-keyboard-response,76,146251,0.0-33.0-2.0,,,,delaylearn,learning,feedback_duration_window,Xjd324SwQ1UGjVwMLhelIWhkDCu2,Xjd324SwQ1UGjVwMLhelIWhkDCu2,,,,,,,,,,,,,,,,,,7000.0,,,,5f71bba655ed56021e62625b,16:37:21,27/03/2024
html-keyboard-response,77,147768,0.0-33.0-3.0,,<div style='margin:auto;width: auto; font-size: 150%'><span style='font-weight: bold; font-size: 100px; color: green;'>+10 points!</span><br><br></div>,,delaylearn,learning,feedback_image_window,Xjd324SwQ1UGjVwMLhelIWhkDCu2,Xjd324SwQ1UGjVwMLhelIWhkDCu2,,,,,,,,,,,,,,,,,,,,,,5f71bba655ed56021e62625b,16:37:21,27/03/2024
html-keyboard-response,78,149974,0.0-34.0,,"<div style=""font-size:100px;"">+</div>",,delaylearn,learning,ITI,Xjd324SwQ1UGjVwMLhelIWhkDCu2,Xjd324SwQ1UGjVwMLhelIWhkDCu2,,,,,,,,,,,,,,,,,,,2191.0,,,5f71bba655ed56021e62625b,16:37:21,27/03/2024
html-keyboard-response,79,150535,0.0-35.0-0.0,557.2000002861023,"<div style=""display: flex; flex-direction: column; align-items: center; margin-top: -40px;""><img src=""images/pattern_3.png"" style=""width: 234px; height: 230px; margin-top: -50px;""><div style=""display: flex; justify-content: space-between; margin-top: 33px;""><img src=""images/choice_trial_6.png"" style=""width: 408px; height: 417px; margin-right: 200px;""><img src=""images/choice_trial_16.png"" style=""width: 408px; height: 417px;""></div></div>",f,delaylearn,learning,trial,Xjd324SwQ1UGjVwMLhelIWhkDCu2,Xjd324SwQ1UGjVwMLhelIWhkDCu2,4.0,images/choice_trial_6.png,images/choice_trial_16.png,images/pattern_3.png,f,j,7000.0,6.0,16.0,2.0,1.0,15.0,0.0,1.0,6.0,110.0,,,,,,5f71bba655ed56021e62625b,16:37:21,27/03/2024
html-keyboard-response,80,151555,0.0-35.0-1.0,,"<div style=""display: flex; flex-direction: column; align-items: center; margin-top: -40px;""><img src=""images/pattern_3.png"" style=""width: 234px; height: 230px; margin-top: -50px;""><div style=""display: flex; justify-content: space-between; margin-top: 33px;""><img src=""images/choice_trial_6.png"" style=""width: 408px; height: 417px; margin-right: 608px;""></div></div>",,delaylearn,learning,display_response,Xjd324SwQ1UGjVwMLhelIWhkDCu2,Xjd324SwQ1UGjVwMLhelIWhkDCu2,,,,,,,,,,,,,,,,,chosen stimuli: images/choice_trial_6.png,,,,,5f71bba655ed56021e62625b,16:37:21,27/03/2024
html-keyboard-response,81,158566,0.0-35.0-2.0,,,,delaylearn,learning,feedback_duration_window,Xjd324SwQ1UGjVwMLhelIWhkDCu2,Xjd324SwQ1UGjVwMLhelIWhkDCu2,,,,,,,,,,,,,,,,,,7000.0,,,,5f71bba655ed56021e62625b,16:37:21,27/03/2024
html-keyboard-response,82,160078,0.0-35.0-3.0,,<div style='margin:auto;width: auto; font-size: 150%'><span style='font-weight: bold; font-size: 100px; color: green;'>+10 points!</span><br><br></div>,,delaylearn,learning,feedback_image_window,Xjd324SwQ1UGjVwMLhelIWhkDCu2,Xjd324SwQ1UGjVwMLhelIWhkDCu2,,,,,,,,,,,,,,,,,,,,,,5f71bba655ed56021e62625b,16:37:21,27/03/2024
html-keyboard-response,83,161651,0.0-36.0,,"<div style=""font-size:100px;"">+</div>",,delaylearn,learning,ITI,Xjd324SwQ1UGjVwMLhelIWhkDCu2,Xjd324SwQ1UGjVwMLhelIWhkDCu2,,,,,,,,,,,,,,,,,,,1556.0,,,5f71bba655ed56021e62625b,16:37:21,27/03/2024
html-keyboard-response,84,162289,0.0-37.0-0.0,635.7000002861023,"<div style=""display: flex; flex-direction: column; align-items: center; margin-top: -40px;""><img src=""images/pattern_5.png"" style=""width: 234px; height: 230px; margin-top: -50px;""><div style=""display: flex; justify-content: space-between; margin-top: 33px;""><img src=""images/choice_trial_5.png"" style=""width: 408px; height: 417px; margin-right: 200px;""><img src=""images/choice_trial_15.png"" style=""width: 408px; height: 417px;""></div></div>",j,delaylearn,learning,trial,Xjd324SwQ1UGjVwMLhelIWhkDCu2,Xjd324SwQ1UGjVwMLhelIWhkDCu2,4.0,images/choice_trial_5.png,images/choice_trial_15.png,images/pattern_5.png,f,f,750.0,5.0,15.0,4.0,0.0,16.0,0.0,0.0,15.0,110.0,,,,,,5f71bba655ed56021e62625b,16:37:21,27/03/2024
html-keyboard-response,85,163299,0.0-37.0-1.0,,"<div style=""display: flex; flex-direction: column; align-items: center; margin-top: -40px;""><img src=""images/pattern_5.png"" style=""width: 234px; height: 230px; margin-top: -50px;""><div style=""display: flex; justify-content: space-between; margin-top: 33px;""><img src=""images/choice_trial_15.png"" style=""width: 408px; height: 417px; margin-left:608px;""></div></div>",,delaylearn,learning,display_response,Xjd324SwQ1UGjVwMLhelIWhkDCu2,Xjd324SwQ1UGjVwMLhelIWhkDCu2,,,,,,,,,,,,,,,,,chosen stimuli: images/choice_trial_15.png,,,,,5f71bba655ed56021e62625b,16:37:21,27/03/2024
html-keyboard-response,86,164067,0.0-37.0-2.0,,,,delaylearn,learning,feedback_duration_window,Xjd324SwQ1UGjVwMLhelIWhkDCu2,Xjd324SwQ1UGjVwMLhelIWhkDCu2,,,,,,,,,,,,,,,,,,750.0,,,,5f71bba655ed56021e62625b,16:37:21,27/03/2024
html-keyboard-response,87,165586,0.0-37.0-3.0,,<div style='margin:auto;width: auto; font-size: 150%'><span style='font-weight: bold; font-size: 100px; color: red;'>0 points!</span><br><br></div>,,delaylearn,learning,feedback_image_window,Xjd324SwQ1UGjVwMLhelIWhkDCu2,Xjd324SwQ1UGjVwMLhelIWhkDCu2,,,,,,,,,,,,,,,,,,,,,,5f71bba655ed56021e62625b,16:37:21,27/03/2024
html-keyboard-response,88,166093,0.0-38.0-0.0,,,,,,mood_trial_fixation,Xjd324SwQ1UGjVwMLhelIWhkDCu2,,,,,,,,,,,,,,,,,,,,,,,5f71bba655ed56021e62625b,16:37:21,27/03/2024
lmdlab-html-vas-response,89,169824,0.0-38.0-1.0,2710.0,How happy are you right now?,0.5555555555555556,delaylearn,learning,mood_trial,Xjd324SwQ1UGjVwMLhelIWhkDCu2,Xjd324SwQ1UGjVwMLhelIWhkDCu2,,,,,,,,,,,,,,,,,,,,"['Very unhappy', 'Very happy']",,5f71bba655ed56021e62625b,16:37:21,27/03/2024
html-keyboard-response,90,171896,0.0-39.0,,"<div style=""font-size:100px;"">+</div>",,delaylearn,learning,ITI,Xjd324SwQ1UGjVwMLhelIWhkDCu2,Xjd324SwQ1UGjVwMLhelIWhkDCu2,,,,,,,,,,,,,,,,,,,2056.0,,,5f71bba655ed56021e62625b,16:37:21,27/03/2024
html-keyboard-response,91,173015,0.0-40.0-0.0,1116.5,"<div style=""display: flex; flex-direction: column; align-items: center; margin-top: -40px;""><img src=""images/pattern_6.png"" style=""width: 234px; height: 230px; margin-top: -50px;""><div style=""display: flex; justify-content: space-between; margin-top: 33px;""><img src=""images/choice_trial_10.png"" style=""width: 408px; height: 417px; margin-right: 200px;""><img src=""images/choice_trial_3.png"" style=""width: 408px; height: 417px;""></div></div>",j,delaylearn,learning,trial,Xjd324SwQ1UGjVwMLhelIWhkDCu2,Xjd324SwQ1UGjVwMLhelIWhkDCu2,4.0,images/choice_trial_10.png,images/choice_trial_3.png,images/pattern_6.png,f,f,750.0,10.0,3.0,5.0,0.0,17.0,0.0,0.0,3.0,110.0,,,,,,5f71bba655ed56021e62625b,16:37:21,27/03/2024
html-keyboard-response,92,174024,0.0-40.0-1.0,,"<div style=""display: flex; flex-direction: column; align-items: center; margin-top: -40px;""><img src=""images/pattern_6.png"" style=""width: 234px; height: 230px; margin-top: -50px;""><div style=""display: flex; justify-content: space-between; margin-top: 33px;""><img src=""images/choice_trial_3.png"" style=""width: 408px; height: 417px; margin-left:608px;""></div></div>",,delaylearn,learning,display_response,Xjd324SwQ1UGjVwMLhelIWhkDCu2,Xjd324SwQ1UGjVwMLhelIWhkDCu2,,,,,,,,,,,,,,,,,chosen stimuli: images/choice_trial_3.png,,,,,5f71bba655ed56021e62625b,16:37:21,27/03/2024
html-keyboard-response,93,174793,0.0-40.0-2.0,,,,delaylearn,learning,feedback_duration_window,Xjd324SwQ1UGjVwMLhelIWhkDCu2,Xjd324SwQ1UGjVwMLhelIWhkDCu2,,,,,,,,,,,,,,,,,,750.0,,,,5f71bba655ed56021e62625b,16:37:21,27/03/2024
html-keyboard-response,94,176311,0.0-40.0-3.0,,<div style='margin:auto;width: auto; font-size: 150%'><span style='font-weight: bold; font-size: 100px; color: red;'>0 points!</span><br><br></div>,,delaylearn,learning,feedback_image_window,Xjd324SwQ1UGjVwMLhelIWhkDCu2,Xjd324SwQ1UGjVwMLhelIWhkDCu2,,,,,,,,,,,,,,,,,,,,,,5f71bba655ed56021e62625b,16:37:21,27/03/2024
html-keyboard-response,95,177892,0.0-41.0,,"<div style=""font-size:100px;"">+</div>",,delaylearn,learning,ITI,Xjd324SwQ1UGjVwMLhelIWhkDCu2,Xjd324SwQ1UGjVwMLhelIWhkDCu2,,,,,,,,,,,,,,,,,,,1559.0,,,5f71bba655ed56021e62625b,16:37:21,27/03/2024
html-keyboard-response,96,179390,0.0-42.0-0.0,1495.6999998092651,"<div style=""display: flex; flex-direction: column; align-items: center; margin-top: -40px;""><img src=""images/pattern_4.png"" style=""width: 234px; height: 230px; margin-top: -50px;""><div style=""display: flex; justify-content: space-between; margin-top: 33px;""><img src=""images/choice_trial_7.png"" style=""width: 408px; height: 417px; margin-right: 200px;""><img src=""images/choice_trial_8.png"" style=""width: 408px; height: 417px;""></div></div>",j,delaylearn,learning,trial,Xjd324SwQ1UGjVwMLhelIWhkDCu2,Xjd324SwQ1UGjVwMLhelIWhkDCu2,4.0,images/choice_trial_7.png,images/choice_trial_8.png,images/pattern_4.png,j,j,7000.0,7.0,8.0,3.0,1.0,18.0,1.0,1.0,8.0,120.0,,,,,,5f71bba655ed56021e62625b,16:37:21,27/03/2024
html-keyboard-response,97,180408,0.0-42.0-1.0,,"<div style=""display: flex; flex-direction: column; align-items: center; margin-top: -40px;""><img src=""images/pattern_4.png"" style=""width: 234px; height: 230px; margin-top: -50px;""><div style=""display: flex; justify-content: space-between; margin-top: 33px;""><img src=""images/choice_trial_8.png"" style=""width: 408px; height: 417px; margin-left:608px;""></div></div>",,delaylearn,learning,display_response,Xjd324SwQ1UGjVwMLhelIWhkDCu2,Xjd324SwQ1UGjVwMLhelIWhkDCu2,,,,,,,,,,,,,,,,,chosen stimuli: images/choice_trial_8.png,,,,,5f71bba655ed56021e62625b,16:37:21,27/03/2024
html-keyboard-response,98,187427,0.0-42.0-2.0,,,,delaylearn,learning,feedback_duration_window,Xjd324SwQ1UGjVwMLhelIWhkDCu2,Xjd324SwQ1UGjVwMLhelIWhkDCu2,,,,,,,,,,,,,,,,,,7000.0,,,,5f71bba655ed56021e62625b,16:37:21,27/03/2024
html-keyboard-response,99,188939,0.0-42.0-3.0,,<div style='margin:auto;width: auto; font-size: 150%'><span style='font-weight: bold; font-size: 100px; color: green;'>+10 points!</span><br><br></div>,,delaylearn,learning,feedback_image_window,Xjd324SwQ1UGjVwMLhelIWhkDCu2,Xjd324SwQ1UGjVwMLhelIWhkDCu2,,,,,,,,,,,,,,,,,,,,,,5f71bba655ed56021e62625b,16:37:21,27/03/2024
html-keyboard-response,100,191122,0.0-43.0,,"<div style=""font-size:100px;"">+</div>",,delaylearn,learning,ITI,Xjd324SwQ1UGjVwMLhelIWhkDCu2,Xjd324SwQ1UGjVwMLhelIWhkDCu2,,,,,,,,,,,,,,,,,,,2162.0,,,5f71bba655ed56021e62625b,16:37:21,27/03/2024
html-keyboard-response,101,192557,0.0-44.0-0.0,1433.2999997138977,"<div style=""display: flex; flex-direction: column; align-items: center; margin-top: -40px;""><img src=""images/pattern_7.png"" style=""width: 234px; height: 230px; margin-top: -50px;""><div style=""display: flex; justify-content: space-between; margin-top: 33px;""><img src=""images/choice_trial_13.png"" style=""width: 408px; height: 417px; margin-right: 200px;""><img src=""images/choice_trial_4.png"" style=""width: 408px; height: 417px;""></div></div>",f,delaylearn,learning,trial,Xjd324SwQ1UGjVwMLhelIWhkDCu2,Xjd324SwQ1UGjVwMLhelIWhkDCu2,4.0,images/choice_trial_13.png,images/choice_trial_4.png,images/pattern_7.png,j,f,750.0,13.0,4.0,6.0,0.0,19.0,1.0,0.0,13.0,120.0,,,,,,5f71bba655ed56021e62625b,16:37:21,27/03/2024
html-keyboard-response,102,193575,0.0-44.0-1.0,,"<div style=""display: flex; flex-direction: column; align-items: center; margin-top: -40px;""><img src=""images/pattern_7.png"" style=""width: 234px; height: 230px; margin-top: -50px;""><div style=""display: flex; justify-content: space-between; margin-top: 33px;""><img src=""images/choice_trial_13.png"" style=""width: 408px; height: 417px; margin-right: 608px;""></div></div>",,delaylearn,learning,display_response,Xjd324SwQ1UGjVwMLhelIWhkDCu2,Xjd324SwQ1UGjVwMLhelIWhkDCu2,,,,,,,,,,,,,,,,,chosen stimuli: images/choice_trial_13.png,,,,,5f71bba655ed56021e62625b,16:37:21,27/03/2024
html-keyboard-response,103,194334,0.0-44.0-2.0,,,,delaylearn,learning,feedback_duration_window,Xjd324SwQ1UGjVwMLhelIWhkDCu2,Xjd324SwQ1UGjVwMLhelIWhkDCu2,,,,,,,,,,,,,,,,,,750.0,,,,5f71bba655ed56021e62625b,16:37:21,27/03/2024
html-keyboard-response,104,195847,0.0-44.0-3.0,,<div style='margin:auto;width: auto; font-size: 150%'><span style='font-weight: bold; font-size: 100px; color: red;'>0 points!</span><br><br></div>,,delaylearn,learning,feedback_image_window,Xjd324SwQ1UGjVwMLhelIWhkDCu2,Xjd324SwQ1UGjVwMLhelIWhkDCu2,,,,,,,,,,,,,,,,,,,,,,5f71bba655ed56021e62625b,16:37:21,27/03/2024
html-keyboard-response,105,198294,0.0-45.0,,"<div style=""font-size:100px;"">+</div>",,delaylearn,learning,ITI,Xjd324SwQ1UGjVwMLhelIWhkDCu2,Xjd324SwQ1UGjVwMLhelIWhkDCu2,,,,,,,,,,,,,,,,,,,2439.0,,,5f71bba655ed56021e62625b,16:37:21,27/03/2024
html-keyboard-response,106,199556,0.0-46.0-0.0,1259.1999998092651,"<div style=""display: flex; flex-direction: column; align-items: center; margin-top: -40px;""><img src=""images/pattern_1.png"" style=""width: 234px; height: 230px; margin-top: -50px;""><div style=""display: flex; justify-content: space-between; margin-top: 33px;""><img src=""images/choice_trial_1.png"" style=""width: 408px; height: 417px; margin-right: 200px;""><img src=""images/choice_trial_9.png"" style=""width: 408px; height: 417px;""></div></div>",j,delaylearn,learning,trial,Xjd324SwQ1UGjVwMLhelIWhkDCu2,Xjd324SwQ1UGjVwMLhelIWhkDCu2,4.0,images/choice_trial_1.png,images/choice_trial_9.png,images/pattern_1.png,f,f,7000.0,1.0,9.0,1.0,0.0,20.0,0.0,0.0,9.0,120.0,,,,,,5f71bba655ed56021e62625b,16:37:21,27/03/2024
html-keyboard-response,107,200565,0.0-46.0-1.0,,"<div style=""display: flex; flex-direction: column; align-items: center; margin-top: -40px;""><img src=""images/pattern_1.png"" style=""width: 234px; height: 230px; margin-top: -50px;""><div style=""display: flex; justify-content: space-between; margin-top: 33px;""><img src=""images/choice_trial_9.png"" style=""width: 408px; height: 417px; margin-left:608px;""></div></div>",,delaylearn,learning,display_response,Xjd324SwQ1UGjVwMLhelIWhkDCu2,Xjd324SwQ1UGjVwMLhelIWhkDCu2,,,,,,,,,,,,,,,,,chosen stimuli: images/choice_trial_9.png,,,,,5f71bba655ed56021e62625b,16:37:21,27/03/2024
html-keyboard-response,108,207583,0.0-46.0-2.0,,,,delaylearn,learning,feedback_duration_window,Xjd324SwQ1UGjVwMLhelIWhkDCu2,Xjd324SwQ1UGjVwMLhelIWhkDCu2,,,,,,,,,,,,,,,,,,7000.0,,,,5f71bba655ed56021e62625b,16:37:21,27/03/2024
html-keyboard-response,109,209094,0.0-46.0-3.0,,<div style='margin:auto;width: auto; font-size: 150%'><span style='font-weight: bold; font-size: 100px; color: red;'>0 points!</span><br><br></div>,,delaylearn,learning,feedback_image_window,Xjd324SwQ1UGjVwMLhelIWhkDCu2,Xjd324SwQ1UGjVwMLhelIWhkDCu2,,,,,,,,,,,,,,,,,,,,,,5f71bba655ed56021e62625b,16:37:21,27/03/2024
html-keyboard-response,110,210902,0.0-47.0,,"<div style=""font-size:100px;"">+</div>",,delaylearn,learning,ITI,Xjd324SwQ1UGjVwMLhelIWhkDCu2,Xjd324SwQ1UGjVwMLhelIWhkDCu2,,,,,,,,,,,,,,,,,,,1798.0,,,5f71bba655ed56021e62625b,16:37:21,27/03/2024
html-keyboard-response,111,211865,0.0-48.0-0.0,959.1000003814697,"<div style=""display: flex; flex-direction: column; align-items: center; margin-top: -40px;""><img src=""images/pattern_6.png"" style=""width: 234px; height: 230px; margin-top: -50px;""><div style=""display: flex; justify-content: space-between; margin-top: 33px;""><img src=""images/choice_trial_3.png"" style=""width: 408px; height: 417px; margin-right: 200px;""><img src=""images/choice_trial_10.png"" style=""width: 408px; height: 417px;""></div></div>",f,delaylearn,learning,trial,Xjd324SwQ1UGjVwMLhelIWhkDCu2,Xjd324SwQ1UGjVwMLhelIWhkDCu2,4.0,images/choice_trial_3.png,images/choice_trial_10.png,images/pattern_6.png,j,j,750.0,3.0,10.0,5.0,1.0,21.0,0.0,0.0,3.0,120.0,,,,,,5f71bba655ed56021e62625b,16:37:21,27/03/2024
html-keyboard-response,112,212882,0.0-48.0-1.0,,"<div style=""display: flex; flex-direction: column; align-items: center; margin-top: -40px;""><img src=""images/pattern_6.png"" style=""width: 234px; height: 230px; margin-top: -50px;""><div style=""display: flex; justify-content: space-between; margin-top: 33px;""><img src=""images/choice_trial_3.png"" style=""width: 408px; height: 417px; margin-right: 608px;""></div></div>",,delaylearn,learning,display_response,Xjd324SwQ1UGjVwMLhelIWhkDCu2,Xjd324SwQ1UGjVwMLhelIWhkDCu2,,,,,,,,,,,,,,,,,chosen stimuli: images/choice_trial_3.png,,,,,5f71bba655ed56021e62625b,16:37:21,27/03/2024
html-keyboard-response,113,213650,0.0-48.0-2.0,,,,delaylearn,learning,feedback_duration_window,Xjd324SwQ1UGjVwMLhelIWhkDCu2,Xjd324SwQ1UGjVwMLhelIWhkDCu2,,,,,,,,,,,,,,,,,,750.0,,,,5f71bba655ed56021e62625b,16:37:21,27/03/2024
html-keyboard-response,114,215167,0.0-48.0-3.0,,<div style='margin:auto;width: auto; font-size: 150%'><span style='font-weight: bold; font-size: 100px; color: red;'>0 points!</span><br><br></div>,,delaylearn,learning,feedback_image_window,Xjd324SwQ1UGjVwMLhelIWhkDCu2,Xjd324SwQ1UGjVwMLhelIWhkDCu2,,,,,,,,,,,,,,,,,,,,,,5f71bba655ed56021e62625b,16:37:21,27/03/2024
html-keyboard-response,115,217287,0.0-49.0,,"<div style=""font-size:100px;"">+</div>",,delaylearn,learning,ITI,Xjd324SwQ1UGjVwMLhelIWhkDCu2,Xjd324SwQ1UGjVwMLhelIWhkDCu2,,,,,,,,,,,,,,,,,,,2117.0,,,5f71bba655ed56021e62625b,16:37:21,27/03/2024
html-keyboard-response,116,218470,0.0-50.0-0.0,1178.3000001907349,"<div style=""display: flex; flex-direction: column; align-items: center; margin-top: -40px;""><img src=""images/pattern_4.png"" style=""width: 234px; height: 230px; margin-top: -50px;""><div style=""display: flex; justify-content: space-between; margin-top: 33px;""><img src=""images/choice_trial_8.png"" style=""width: 408px; height: 417px; margin-right: 200px;""><img src=""images/choice_trial_7.png"" style=""width: 408px; height: 417px;""></div></div>",f,delaylearn,learning,trial,Xjd324SwQ1UGjVwMLhelIWhkDCu2,Xjd324SwQ1UGjVwMLhelIWhkDCu2,4.0,images/choice_trial_8.png,images/choice_trial_7.png,images/pattern_4.png,f,f,7000.0,8.0,7.0,3.0,0.0,22.0,1.0,1.0,8.0,130.0,,,,,,5f71bba655ed56021e62625b,16:37:21,27/03/2024
html-keyboard-response,117,219481,0.0-50.0-1.0,,"<div style=""display: flex; flex-direction: column; align-items: center; margin-top: -40px;""><img src=""images/pattern_4.png"" style=""width: 234px; height: 230px; margin-top: -50px;""><div style=""display: flex; justify-content: space-between; margin-top: 33px;""><img src=""images/choice_trial_8.png"" style=""width: 408px; height: 417px; margin-right: 608px;""></div></div>",,delaylearn,learning,display_response,Xjd324SwQ1UGjVwMLhelIWhkDCu2,Xjd324SwQ1UGjVwMLhelIWhkDCu2,,,,,,,,,,,,,,,,,chosen stimuli: images/choice_trial_8.png,,,,,5f71bba655ed56021e62625b,16:37:21,27/03/2024
html-keyboard-response,118,226500,0.0-50.0-2.0,,,,delaylearn,learning,feedback_duration_window,Xjd324SwQ1UGjVwMLhelIWhkDCu2,Xjd324SwQ1UGjVwMLhelIWhkDCu2,,,,,,,,,,,,,,,,,,7000.0,,,,5f71bba655ed56021e62625b,16:37:21,27/03/2024
html-keyboard-response,119,228010,0.0-50.0-3.0,,<div style='margin:auto;width: auto; font-size: 150%'><span style='font-weight: bold; font-size: 100px; color: green;'>+10 points!</span><br><br></div>,,delaylearn,learning,feedback_image_window,Xjd324SwQ1UGjVwMLhelIWhkDCu2,Xjd324SwQ1UGjVwMLhelIWhkDCu2,,,,,,,,,,,,,,,,,,,,,,5f71bba655ed56021e62625b,16:37:21,27/03/2024
html-keyboard-response,120,228527,0.0-51.0-0.0,,,,,,mood_trial_fixation,Xjd324SwQ1UGjVwMLhelIWhkDCu2,,,,,,,,,,,,,,,,,,,,,,,5f71bba655ed56021e62625b,16:37:21,27/03/2024
lmdlab-html-vas-response,121,232804,0.0-51.0-1.0,3256.0,How happy are you right now?,0.5108024691358025,delaylearn,learning,mood_trial,Xjd324SwQ1UGjVwMLhelIWhkDCu2,Xjd324SwQ1UGjVwMLhelIWhkDCu2,,,,,,,,,,,,,,,,,,,,"['Very unhappy', 'Very happy']",,5f71bba655ed56021e62625b,16:37:21,27/03/2024
html-keyboard-response,122,234798,0.0-52.0,,"<div style=""font-size:100px;"">+</div>",,delaylearn,learning,ITI,Xjd324SwQ1UGjVwMLhelIWhkDCu2,Xjd324SwQ1UGjVwMLhelIWhkDCu2,,,,,,,,,,,,,,,,,,,1976.0,,,5f71bba655ed56021e62625b,16:37:21,27/03/2024
html-keyboard-response,123,235893,0.0-53.0-0.0,1090.6999998092651,"<div style=""display: flex; flex-direction: column; align-items: center; margin-top: -40px;""><img src=""images/pattern_7.png"" style=""width: 234px; height: 230px; margin-top: -50px;""><div style=""display: flex; justify-content: space-between; margin-top: 33px;""><img src=""images/choice_trial_4.png"" style=""width: 408px; height: 417px; margin-right: 200px;""><img src=""images/choice_trial_13.png"" style=""width: 408px; height: 417px;""></div></div>",j,delaylearn,learning,trial,Xjd324SwQ1UGjVwMLhelIWhkDCu2,Xjd324SwQ1UGjVwMLhelIWhkDCu2,4.0,images/choice_trial_4.png,images/choice_trial_13.png,images/pattern_7.png,j,j,750.0,4.0,13.0,6.0,1.0,23.0,1.0,1.0,13.0,140.0,,,,,,5f71bba655ed56021e62625b,16:37:21,27/03/2024
html-keyboard-response,124,236910,0.0-53.0-1.0,,"<div style=""display: flex; flex-direction: column; align-items: center; margin-top: -40px;""><img src=""images/pattern_7.png"" style=""width: 234px; height: 230px; margin-top: -50px;""><div style=""display: flex; justify-content: space-between; margin-top: 33px;""><img src=""images/choice_trial_13.png"" style=""width: 408px; height: 417px; margin-left:608px;""></div></div>",,delaylearn,learning,display_response,Xjd324SwQ1UGjVwMLhelIWhkDCu2,Xjd324SwQ1UGjVwMLhelIWhkDCu2,,,,,,,,,,,,,,,,,chosen stimuli: images/choice_trial_13.png,,,,,5f71bba655ed56021e62625b,16:37:21,27/03/2024
html-keyboard-response,125,237670,0.0-53.0-2.0,,,,delaylearn,learning,feedback_duration_window,Xjd324SwQ1UGjVwMLhelIWhkDCu2,Xjd324SwQ1UGjVwMLhelIWhkDCu2,,,,,,,,,,,,,,,,,,750.0,,,,5f71bba655ed56021e62625b,16:37:21,27/03/2024
html-keyboard-response,126,239188,0.0-53.0-3.0,,<div style='margin:auto;width: auto; font-size: 150%'><span style='font-weight: bold; font-size: 100px; color: green;'>+10 points!</span><br><br></div>,,delaylearn,learning,feedback_image_window,Xjd324SwQ1UGjVwMLhelIWhkDCu2,Xjd324SwQ1UGjVwMLhelIWhkDCu2,,,,,,,,,,,,,,,,,,,,,,5f71bba655ed56021e62625b,16:37:21,27/03/2024
html-keyboard-response,127,241360,0.0-54.0,,"<div style=""font-size:100px;"">+</div>",,delaylearn,learning,ITI,Xjd324SwQ1UGjVwMLhelIWhkDCu2,Xjd324SwQ1UGjVwMLhelIWhkDCu2,,,,,,,,,,,,,,,,,,,2153.0,,,5f71bba655ed56021e62625b,16:37:21,27/03/2024
html-keyboard-response,128,242170,0.0-55.0-0.0,808.9000000953674,"<div style=""display: flex; flex-direction: column; align-items: center; margin-top: -40px;""><img src=""images/pattern_1.png"" style=""width: 234px; height: 230px; margin-top: -50px;""><div style=""display: flex; justify-content: space-between; margin-top: 33px;""><img src=""images/choice_trial_9.png"" style=""width: 408px; height: 417px; margin-right: 200px;""><img src=""images/choice_trial_1.png"" style=""width: 408px; height: 417px;""></div></div>",f,delaylearn,learning,trial,Xjd324SwQ1UGjVwMLhelIWhkDCu2,Xjd324SwQ1UGjVwMLhelIWhkDCu2,4.0,images/choice_trial_9.png,images/choice_trial_1.png,images/pattern_1.png,f,j,7000.0,9.0,1.0,1.0,1.0,24.0,0.0,1.0,9.0,150.0,,,,,,5f71bba655ed56021e62625b,16:37:21,27/03/2024
html-keyboard-response,129,243188,0.0-55.0-1.0,,"<div style=""display: flex; flex-direction: column; align-items: center; margin-top: -40px;""><img src=""images/pattern_1.png"" style=""width: 234px; height: 230px; margin-top: -50px;""><div style=""display: flex; justify-content: space-between; margin-top: 33px;""><img src=""images/choice_trial_9.png"" style=""width: 408px; height: 417px; margin-right: 608px;""></div></div>",,delaylearn,learning,display_response,Xjd324SwQ1UGjVwMLhelIWhkDCu2,Xjd324SwQ1UGjVwMLhelIWhkDCu2,,,,,,,,,,,,,,,,,chosen stimuli: images/choice_trial_9.png,,,,,5f71bba655ed56021e62625b,16:37:21,27/03/2024
html-keyboard-response,130,250205,0.0-55.0-2.0,,,,delaylearn,learning,feedback_duration_window,Xjd324SwQ1UGjVwMLhelIWhkDCu2,Xjd324SwQ1UGjVwMLhelIWhkDCu2,,,,,,,,,,,,,,,,,,7000.0,,,,5f71bba655ed56021e62625b,16:37:21,27/03/2024
html-keyboard-response,131,251722,0.0-55.0-3.0,,<div style='margin:auto;width: auto; font-size: 150%'><span style='font-weight: bold; font-size: 100px; color: green;'>+10 points!</span><br><br></div>,,delaylearn,learning,feedback_image_window,Xjd324SwQ1UGjVwMLhelIWhkDCu2,Xjd324SwQ1UGjVwMLhelIWhkDCu2,,,,,,,,,,,,,,,,,,,,,,5f71bba655ed56021e62625b,16:37:21,27/03/2024
html-keyboard-response,132,253921,0.0-56.0,,"<div style=""font-size:100px;"">+</div>",,delaylearn,learning,ITI,Xjd324SwQ1UGjVwMLhelIWhkDCu2,Xjd324SwQ1UGjVwMLhelIWhkDCu2,,,,,,,,,,,,,,,,,,,2185.0,,,5f71bba655ed56021e62625b,16:37:21,27/03/2024
html-keyboard-response,133,255304,0.0-57.0-0.0,1378.3000001907349,"<div style=""display: flex; flex-direction: column; align-items: center; margin-top: -40px;""><img src=""images/pattern_5.png"" style=""width: 234px; height: 230px; margin-top: -50px;""><div style=""display: flex; justify-content: space-between; margin-top: 33px;""><img src=""images/choice_trial_15.png"" style=""width: 408px; height: 417px; margin-right: 200px;""><img src=""images/choice_trial_5.png"" style=""width: 408px; height: 417px;""></div></div>",f,delaylearn,learning,trial,Xjd324SwQ1UGjVwMLhelIWhkDCu2,Xjd324SwQ1UGjVwMLhelIWhkDCu2,4.0,images/choice_trial_15.png,images/choice_trial_5.png,images/pattern_5.png,j,j,750.0,15.0,5.0,4.0,1.0,25.0,0.0,0.0,15.0,150.0,,,,,,5f71bba655ed56021e62625b,16:37:21,27/03/2024
html-keyboard-response,134,256314,0.0-57.0-1.0,,"<div style=""display: flex; flex-direction: column; align-items: center; margin-top: -40px;""><img src=""images/pattern_5.png"" style=""width: 234px; height: 230px; margin-top: -50px;""><div style=""display: flex; justify-content: space-between; margin-top: 33px;""><img src=""images/choice_trial_15.png"" style=""width: 408px; height: 417px; margin-right: 608px;""></div></div>",,delaylearn,learning,display_response,Xjd324SwQ1UGjVwMLhelIWhkDCu2,Xjd324SwQ1UGjVwMLhelIWhkDCu2,,,,,,,,,,,,,,,,,chosen stimuli: images/choice_trial_15.png,,,,,5f71bba655ed56021e62625b,16:37:21,27/03/2024
html-keyboard-response,135,257082,0.0-57.0-2.0,,,,delaylearn,learning,feedback_duration_window,Xjd324SwQ1UGjVwMLhelIWhkDCu2,Xjd324SwQ1UGjVwMLhelIWhkDCu2,,,,,,,,,,,,,,,,,,750.0,,,,5f71bba655ed56021e62625b,16:37:21,27/03/2024
html-keyboard-response,136,258594,0.0-57.0-3.0,,<div style='margin:auto;width: auto; font-size: 150%'><span style='font-weight: bold; font-size: 100px; color: red;'>0 points!</span><br><br></div>,,delaylearn,learning,feedback_image_window,Xjd324SwQ1UGjVwMLhelIWhkDCu2,Xjd324SwQ1UGjVwMLhelIWhkDCu2,,,,,,,,,,,,,,,,,,,,,,5f71bba655ed56021e62625b,16:37:21,27/03/2024
html-keyboard-response,137,260877,0.0-58.0,,"<div style=""font-size:100px;"">+</div>",,delaylearn,learning,ITI,Xjd324SwQ1UGjVwMLhelIWhkDCu2,Xjd324SwQ1UGjVwMLhelIWhkDCu2,,,,,,,,,,,,,,,,,,,2264.0,,,5f71bba655ed56021e62625b,16:37:21,27/03/2024
html-keyboard-response,138,262125,0.0-59.0-0.0,1245.0,"<div style=""display: flex; flex-direction: column; align-items: center; margin-top: -40px;""><img src=""images/pattern_3.png"" style=""width: 234px; height: 230px; margin-top: -50px;""><div style=""display: flex; justify-content: space-between; margin-top: 33px;""><img src=""images/choice_trial_6.png"" style=""width: 408px; height: 417px; margin-right: 200px;""><img src=""images/choice_trial_16.png"" style=""width: 408px; height: 417px;""></div></div>",f,delaylearn,learning,trial,Xjd324SwQ1UGjVwMLhelIWhkDCu2,Xjd324SwQ1UGjVwMLhelIWhkDCu2,4.0,images/choice_trial_6.png,images/choice_trial_16.png,images/pattern_3.png,j,j,7000.0,6.0,16.0,2.0,1.0,26.0,0.0,0.0,6.0,150.0,,,,,,5f71bba655ed56021e62625b,16:37:21,27/03/2024
html-keyboard-response,139,263134,0.0-59.0-1.0,,"<div style=""display: flex; flex-direction: column; align-items: center; margin-top: -40px;""><img src=""images/pattern_3.png"" style=""width: 234px; height: 230px; margin-top: -50px;""><div style=""display: flex; justify-content: space-between; margin-top: 33px;""><img src=""images/choice_trial_6.png"" style=""width: 408px; height: 417px; margin-right: 608px;""></div></div>",,delaylearn,learning,display_response,Xjd324SwQ1UGjVwMLhelIWhkDCu2,Xjd324SwQ1UGjVwMLhelIWhkDCu2,,,,,,,,,,,,,,,,,chosen stimuli: images/choice_trial_6.png,,,,,5f71bba655ed56021e62625b,16:37:21,27/03/2024
html-keyboard-response,140,270144,0.0-59.0-2.0,,,,delaylearn,learning,feedback_duration_window,Xjd324SwQ1UGjVwMLhelIWhkDCu2,Xjd324SwQ1UGjVwMLhelIWhkDCu2,,,,,,,,,,,,,,,,,,7000.0,,,,5f71bba655ed56021e62625b,16:37:21,27/03/2024
html-keyboard-response,141,271664,0.0-59.0-3.0,,<div style='margin:auto;width: auto; font-size: 150%'><span style='font-weight: bold; font-size: 100px; color: red;'>0 points!</span><br><br></div>,,delaylearn,learning,feedback_image_window,Xjd324SwQ1UGjVwMLhelIWhkDCu2,Xjd324SwQ1UGjVwMLhelIWhkDCu2,,,,,,,,,,,,,,,,,,,,,,5f71bba655ed56021e62625b,16:37:21,27/03/2024
lmdlab-html-vas-response,142,276527,0.0-60.0-0.0,3340.0,*How <b><u>confident</u></b> are you feeling about your answers at this moment?*,0.3595679012345679,rewlearn,rate_confidence,,Xjd324SwQ1UGjVwMLhelIWhkDCu2,Xjd324SwQ1UGjVwMLhelIWhkDCu2,,,,,,,,,,,,,,,,,,,,"['No confidence', 'Complete confidence']",,5f71bba655ed56021e62625b,16:37:21,27/03/2024
lmdlab-rest-trial-limit,143,325356,0.0-60.0-1.0,47315.199999809265,"<div style=""font-size:40px;""><b>Please take a break!</b><br><br><br><br><p>Great work: you earned 150 points.<br><br><br><p>You have completed part(s) 1 of 5.<br><br><br><br>When you are ready to continue<br><br><br>please click the button.</p><br><br>",0,delaylearn,learning,break,Xjd324SwQ1UGjVwMLhelIWhkDCu2,Xjd324SwQ1UGjVwMLhelIWhkDCu2,,,,,,,,,,,,,,,,,,,,,0.0,5f71bba655ed56021e62625b,16:37:21,27/03/2024
html-keyboard-response,144,328369,0.0-60.0-2.0,,"<div style=""font-size:100px;"">+</div>",,delaylearn,learning,pre_fixation,Xjd324SwQ1UGjVwMLhelIWhkDCu2,,,,,,,,,,,,,,,,,,,,,,,5f71bba655ed56021e62625b,16:37:21,27/03/2024
lmdlab-html-vas-response,145,332467,0.0-60.0-3.0-0.0,3084.0,How happy are you right now?,0.31635802469135804,delaylearn,learning,mood_baseline,Xjd324SwQ1UGjVwMLhelIWhkDCu2,Xjd324SwQ1UGjVwMLhelIWhkDCu2,,,,,,,,,,,,,,,,,,,,"['Very unhappy', 'Very happy']",,5f71bba655ed56021e62625b,16:37:21,27/03/2024
html-keyboard-response,146,333976,0.0-60.0-3.0-1.0,,,,,,mood_baseline_fixation,Xjd324SwQ1UGjVwMLhelIWhkDCu2,,,,,,,,,,,,,,,,,,,,,,,5f71bba655ed56021e62625b,16:37:21,27/03/2024
html-keyboard-response,147,336189,0.0-61.0,,"<div style=""font-size:100px;"">+</div>",,delaylearn,learning,ITI,Xjd324SwQ1UGjVwMLhelIWhkDCu2,Xjd324SwQ1UGjVwMLhelIWhkDCu2,,,,,,,,,,,,,,,,,,,2202.0,,,5f71bba655ed56021e62625b,16:37:21,27/03/2024
html-keyboard-response,148,337585,0.0-62.0-0.0,1393.7000002861023,"<div style=""display: flex; flex-direction: column; align-items: center; margin-top: -40px;""><img src=""images/pattern_7.png"" style=""width: 234px; height: 230px; margin-top: -50px;""><div style=""display: flex; justify-content: space-between; margin-top: 33px;""><img src=""images/choice_trial_4.png"" style=""width: 408px; height: 417px; margin-right: 200px;""><img src=""images/choice_trial_13.png"" style=""width: 408px; height: 417px;""></div></div>",j,delaylearn,learning,trial,Xjd324SwQ1UGjVwMLhelIWhkDCu2,Xjd324SwQ1UGjVwMLhelIWhkDCu2,4.0,images/choice_trial_4.png,images/choice_trial_13.png,images/pattern_7.png,j,j,750.0,4.0,13.0,6.0,1.0,27.0,1.0,1.0,13.0,160.0,,,,,,5f71bba655ed56021e62625b,16:37:21,27/03/2024
html-keyboard-response,149,338603,0.0-62.0-1.0,,"<div style=""display: flex; flex-direction: column; align-items: center; margin-top: -40px;""><img src=""images/pattern_7.png"" style=""width: 234px; height: 230px; margin-top: -50px;""><div style=""display: flex; justify-content: space-between; margin-top: 33px;""><img src=""images/choice_trial_13.png"" style=""width: 408px; height: 417px; margin-left:608px;""></div></div>",,delaylearn,learning,display_response,Xjd324SwQ1UGjVwMLhelIWhkDCu2,Xjd324SwQ1UGjVwMLhelIWhkDCu2,,,,,,,,,,,,,,,,,chosen stimuli: images/choice_trial_13.png,,,,,5f71bba655ed56021e62625b,16:37:21,27/03/2024
html-keyboard-response,150,339371,0.0-62.0-2.0,,,,delaylearn,learning,feedback_duration_window,Xjd324SwQ1UGjVwMLhelIWhkDCu2,Xjd324SwQ1UGjVwMLhelIWhkDCu2,,,,,,,,,,,,,,,,,,750.0,,,,5f71bba655ed56021e62625b,16:37:21,27/03/2024
html-keyboard-response,151,340889,0.0-62.0-3.0,,<div style='margin:auto;width: auto; font-size: 150%'><span style='font-weight: bold; font-size: 100px; color: green;'>+10 points!</span><br><br></div>,,delaylearn,learning,feedback_image_window,Xjd324SwQ1UGjVwMLhelIWhkDCu2,Xjd324SwQ1UGjVwMLhelIWhkDCu2,,,,,,,,,,,,,,,,,,,,,,5f71bba655ed56021e62625b,16:37:21,27/03/2024
html-keyboard-response,152,341391,0.0-63.0-0.0,,,,,,mood_trial_fixation,Xjd324SwQ1UGjVwMLhelIWhkDCu2,,,,,,,,,,,,,,,,,,,,,,,5f71bba655ed56021e62625b,16:37:21,27/03/2024
lmdlab-html-vas-response,153,345165,0.0-63.0-1.0,2761.0,How happy are you right now?,0.5046296296296297,delaylearn,learning,mood_trial,Xjd324SwQ1UGjVwMLhelIWhkDCu2,Xjd324SwQ1UGjVwMLhelIWhkDCu2,,,,,,,,,,,,,,,,,,,,"['Very unhappy', 'Very happy']",,5f71bba655ed56021e62625b,16:37:21,27/03/2024
html-keyboard-response,154,346836,0.0-64.0,,"<div style=""font-size:100px;"">+</div>",,delaylearn,learning,ITI,Xjd324SwQ1UGjVwMLhelIWhkDCu2,Xjd324SwQ1UGjVwMLhelIWhkDCu2,,,,,,,,,,,,,,,,,,,1663.0,,,5f71bba655ed56021e62625b,16:37:21,27/03/2024
html-keyboard-response,155,348152,0.0-65.0-0.0,1312.2999997138977,"<div style=""display: flex; flex-direction: column; align-items: center; margin-top: -40px;""><img src=""images/pattern_1.png"" style=""width: 234px; height: 230px; margin-top: -50px;""><div style=""display: flex; justify-content: space-between; margin-top: 33px;""><img src=""images/choice_trial_1.png"" style=""width: 408px; height: 417px; margin-right: 200px;""><img src=""images/choice_trial_9.png"" style=""width: 408px; height: 417px;""></div></div>",f,delaylearn,learning,trial,Xjd324SwQ1UGjVwMLhelIWhkDCu2,Xjd324SwQ1UGjVwMLhelIWhkDCu2,4.0,images/choice_trial_1.png,images/choice_trial_9.png,images/pattern_1.png,f,f,7000.0,1.0,9.0,1.0,0.0,28.0,1.0,1.0,1.0,170.0,,,,,,5f71bba655ed56021e62625b,16:37:21,27/03/2024
html-keyboard-response,156,349169,0.0-65.0-1.0,,"<div style=""display: flex; flex-direction: column; align-items: center; margin-top: -40px;""><img src=""images/pattern_1.png"" style=""width: 234px; height: 230px; margin-top: -50px;""><div style=""display: flex; justify-content: space-between; margin-top: 33px;""><img src=""images/choice_trial_1.png"" style=""width: 408px; height: 417px; margin-right: 608px;""></div></div>",,delaylearn,learning,display_response,Xjd324SwQ1UGjVwMLhelIWhkDCu2,Xjd324SwQ1UGjVwMLhelIWhkDCu2,,,,,,,,,,,,,,,,,chosen stimuli: images/choice_trial_1.png,,,,,5f71bba655ed56021e62625b,16:37:21,27/03/2024
html-keyboard-response,157,356186,0.0-65.0-2.0,,,,delaylearn,learning,feedback_duration_window,Xjd324SwQ1UGjVwMLhelIWhkDCu2,Xjd324SwQ1UGjVwMLhelIWhkDCu2,,,,,,,,,,,,,,,,,,7000.0,,,,5f71bba655ed56021e62625b,16:37:21,27/03/2024
html-keyboard-response,158,357696,0.0-65.0-3.0,,<div style='margin:auto;width: auto; font-size: 150%'><span style='font-weight: bold; font-size: 100px; color: green;'>+10 points!</span><br><br></div>,,delaylearn,learning,feedback_image_window,Xjd324SwQ1UGjVwMLhelIWhkDCu2,Xjd324SwQ1UGjVwMLhelIWhkDCu2,,,,,,,,,,,,,,,,,,,,,,5f71bba655ed56021e62625b,16:37:21,27/03/2024
html-keyboard-response,159,360042,0.0-66.0,,"<div style=""font-size:100px;"">+</div>",,delaylearn,learning,ITI,Xjd324SwQ1UGjVwMLhelIWhkDCu2,Xjd324SwQ1UGjVwMLhelIWhkDCu2,,,,,,,,,,,,,,,,,,,2335.0,,,5f71bba655ed56021e62625b,16:37:21,27/03/2024
html-keyboard-response,160,360941,0.0-67.0-0.0,895.2000002861023,"<div style=""display: flex; flex-direction: column; align-items: center; margin-top: -40px;""><img src=""images/pattern_5.png"" style=""width: 234px; height: 230px; margin-top: -50px;""><div style=""display: flex; justify-content: space-between; margin-top: 33px;""><img src=""images/choice_trial_5.png"" style=""width: 408px; height: 417px; margin-right: 200px;""><img src=""images/choice_trial_15.png"" style=""width: 408px; height: 417px;""></div></div>",j,delaylearn,learning,trial,Xjd324SwQ1UGjVwMLhelIWhkDCu2,Xjd324SwQ1UGjVwMLhelIWhkDCu2,4.0,images/choice_trial_5.png,images/choice_trial_15.png,images/pattern_5.png,f,f,750.0,5.0,15.0,4.0,0.0,29.0,0.0,0.0,15.0,170.0,,,,,,5f71bba655ed56021e62625b,16:37:21,27/03/2024
html-keyboard-response,161,361954,0.0-67.0-1.0,,"<div style=""display: flex; flex-direction: column; align-items: center; margin-top: -40px;""><img src=""images/pattern_5.png"" style=""width: 234px; height: 230px; margin-top: -50px;""><div style=""display: flex; justify-content: space-between; margin-top: 33px;""><img src=""images/choice_trial_15.png"" style=""width: 408px; height: 417px; margin-left:608px;""></div></div>",,delaylearn,learning,display_response,Xjd324SwQ1UGjVwMLhelIWhkDCu2,Xjd324SwQ1UGjVwMLhelIWhkDCu2,,,,,,,,,,,,,,,,,chosen stimuli: images/choice_trial_15.png,,,,,5f71bba655ed56021e62625b,16:37:21,27/03/2024
html-keyboard-response,162,362713,0.0-67.0-2.0,,,,delaylearn,learning,feedback_duration_window,Xjd324SwQ1UGjVwMLhelIWhkDCu2,Xjd324SwQ1UGjVwMLhelIWhkDCu2,,,,,,,,,,,,,,,,,,750.0,,,,5f71bba655ed56021e62625b,16:37:21,27/03/2024
html-keyboard-response,163,364225,0.0-67.0-3.0,,<div style='margin:auto;width: auto; font-size: 150%'><span style='font-weight: bold; font-size: 100px; color: red;'>0 points!</span><br><br></div>,,delaylearn,learning,feedback_image_window,Xjd324SwQ1UGjVwMLhelIWhkDCu2,Xjd324SwQ1UGjVwMLhelIWhkDCu2,,,,,,,,,,,,,,,,,,,,,,5f71bba655ed56021e62625b,16:37:21,27/03/2024
html-keyboard-response,164,366064,0.0-68.0,,"<div style=""font-size:100px;"">+</div>",,delaylearn,learning,ITI,Xjd324SwQ1UGjVwMLhelIWhkDCu2,Xjd324SwQ1UGjVwMLhelIWhkDCu2,,,,,,,,,,,,,,,,,,,1831.0,,,5f71bba655ed56021e62625b,16:37:21,27/03/2024
html-keyboard-response,165,367178,0.0-69.0-0.0,1113.2000002861023,"<div style=""display: flex; flex-direction: column; align-items: center; margin-top: -40px;""><img src=""images/pattern_6.png"" style=""width: 234px; height: 230px; margin-top: -50px;""><div style=""display: flex; justify-content: space-between; margin-top: 33px;""><img src=""images/choice_trial_3.png"" style=""width: 408px; height: 417px; margin-right: 200px;""><img src=""images/choice_trial_10.png"" style=""width: 408px; height: 417px;""></div></div>",f,delaylearn,learning,trial,Xjd324SwQ1UGjVwMLhelIWhkDCu2,Xjd324SwQ1UGjVwMLhelIWhkDCu2,4.0,images/choice_trial_3.png,images/choice_trial_10.png,images/pattern_6.png,j,j,750.0,3.0,10.0,5.0,1.0,30.0,0.0,0.0,3.0,170.0,,,,,,5f71bba655ed56021e62625b,16:37:21,27/03/2024
html-keyboard-response,166,368196,0.0-69.0-1.0,,"<div style=""display: flex; flex-direction: column; align-items: center; margin-top: -40px;""><img src=""images/pattern_6.png"" style=""width: 234px; height: 230px; margin-top: -50px;""><div style=""display: flex; justify-content: space-between; margin-top: 33px;""><img src=""images/choice_trial_3.png"" style=""width: 408px; height: 417px; margin-right: 608px;""></div></div>",,delaylearn,learning,display_response,Xjd324SwQ1UGjVwMLhelIWhkDCu2,Xjd324SwQ1UGjVwMLhelIWhkDCu2,,,,,,,,,,,,,,,,,chosen stimuli: images/choice_trial_3.png,,,,,5f71bba655ed56021e62625b,16:37:21,27/03/2024
html-keyboard-response,167,368963,0.0-69.0-2.0,,,,delaylearn,learning,feedback_duration_window,Xjd324SwQ1UGjVwMLhelIWhkDCu2,Xjd324SwQ1UGjVwMLhelIWhkDCu2,,,,,,,,,,,,,,,,,,750.0,,,,5f71bba655ed56021e62625b,16:37:21,27/03/2024
html-keyboard-response,168,370480,0.0-69.0-3.0,,<div style='margin:auto;width: auto; font-size: 150%'><span style='font-weight: bold; font-size: 100px; color: red;'>0 points!</span><br><br></div>,,delaylearn,learning,feedback_image_window,Xjd324SwQ1UGjVwMLhelIWhkDCu2,Xjd324SwQ1UGjVwMLhelIWhkDCu2,,,,,,,,,,,,,,,,,,,,,,5f71bba655ed56021e62625b,16:37:21,27/03/2024
html-keyboard-response,169,370997,0.0-70.0-0.0,,,,,,mood_trial_fixation,Xjd324SwQ1UGjVwMLhelIWhkDCu2,,,,,,,,,,,,,,,,,,,,,,,5f71bba655ed56021e62625b,16:37:21,27/03/2024
lmdlab-html-vas-response,170,374557,0.0-70.0-1.0,2549.0,How happy are you right now?,0.38117283950617287,delaylearn,learning,mood_trial,Xjd324SwQ1UGjVwMLhelIWhkDCu2,Xjd324SwQ1UGjVwMLhelIWhkDCu2,,,,,,,,,,,,,,,,,,,,"['Very unhappy', 'Very happy']",,5f71bba655ed56021e62625b,16:37:21,27/03/2024
html-keyboard-response,171,376411,0.0-71.0,,"<div style=""font-size:100px;"">+</div>",,delaylearn,learning,ITI,Xjd324SwQ1UGjVwMLhelIWhkDCu2,Xjd324SwQ1UGjVwMLhelIWhkDCu2,,,,,,,,,,,,,,,,,,,1846.0,,,5f71bba655ed56021e62625b,16:37:21,27/03/2024
html-keyboard-response,172,377511,0.0-72.0-0.0,1095.2999997138977,"<div style=""display: flex; flex-direction: column; align-items: center; margin-top: -40px;""><img src=""images/pattern_4.png"" style=""width: 234px; height: 230px; margin-top: -50px;""><div style=""display: flex; justify-content: space-between; margin-top: 33px;""><img src=""images/choice_trial_7.png"" style=""width: 408px; height: 417px; margin-right: 200px;""><img src=""images/choice_trial_8.png"" style=""width: 408px; height: 417px;""></div></div>",j,delaylearn,learning,trial,Xjd324SwQ1UGjVwMLhelIWhkDCu2,Xjd324SwQ1UGjVwMLhelIWhkDCu2,4.0,images/choice_trial_7.png,images/choice_trial_8.png,images/pattern_4.png,j,j,7000.0,7.0,8.0,3.0,1.0,31.0,1.0,1.0,8.0,180.0,,,,,,5f71bba655ed56021e62625b,16:37:21,27/03/2024
html-keyboard-response,173,378528,0.0-72.0-1.0,,"<div style=""display: flex; flex-direction: column; align-items: center; margin-top: -40px;""><img src=""images/pattern_4.png"" style=""width: 234px; height: 230px; margin-top: -50px;""><div style=""display: flex; justify-content: space-between; margin-top: 33px;""><img src=""images/choice_trial_8.png"" style=""width: 408px; height: 417px; margin-left:608px;""></div></div>",,delaylearn,learning,display_response,Xjd324SwQ1UGjVwMLhelIWhkDCu2,Xjd324SwQ1UGjVwMLhelIWhkDCu2,,,,,,,,,,,,,,,,,chosen stimuli: images/choice_trial_8.png,,,,,5f71bba655ed56021e62625b,16:37:21,27/03/2024
html-keyboard-response,174,385546,0.0-72.0-2.0,,,,delaylearn,learning,feedback_duration_window,Xjd324SwQ1UGjVwMLhelIWhkDCu2,Xjd324SwQ1UGjVwMLhelIWhkDCu2,,,,,,,,,,,,,,,,,,7000.0,,,,5f71bba655ed56021e62625b,16:37:21,27/03/2024
html-keyboard-response,175,387056,0.0-72.0-3.0,,<div style='margin:auto;width: auto; font-size: 150%'><span style='font-weight: bold; font-size: 100px; color: green;'>+10 points!</span><br><br></div>,,delaylearn,learning,feedback_image_window,Xjd324SwQ1UGjVwMLhelIWhkDCu2,Xjd324SwQ1UGjVwMLhelIWhkDCu2,,,,,,,,,,,,,,,,,,,,,,5f71bba655ed56021e62625b,16:37:21,27/03/2024
html-keyboard-response,176,389386,0.0-73.0,,"<div style=""font-size:100px;"">+</div>",,delaylearn,learning,ITI,Xjd324SwQ1UGjVwMLhelIWhkDCu2,Xjd324SwQ1UGjVwMLhelIWhkDCu2,,,,,,,,,,,,,,,,,,,2323.0,,,5f71bba655ed56021e62625b,16:37:21,27/03/2024
html-keyboard-response,177,390557,0.0-74.0-0.0,1165.6999998092651,"<div style=""display: flex; flex-direction: column; align-items: center; margin-top: -40px;""><img src=""images/pattern_3.png"" style=""width: 234px; height: 230px; margin-top: -50px;""><div style=""display: flex; justify-content: space-between; margin-top: 33px;""><img src=""images/choice_trial_6.png"" style=""width: 408px; height: 417px; margin-right: 200px;""><img src=""images/choice_trial_16.png"" style=""width: 408px; height: 417px;""></div></div>",j,delaylearn,learning,trial,Xjd324SwQ1UGjVwMLhelIWhkDCu2,Xjd324SwQ1UGjVwMLhelIWhkDCu2,4.0,images/choice_trial_6.png,images/choice_trial_16.png,images/pattern_3.png,j,j,7000.0,6.0,16.0,2.0,1.0,32.0,1.0,1.0,16.0,190.0,,,,,,5f71bba655ed56021e62625b,16:37:21,27/03/2024
html-keyboard-response,178,391577,0.0-74.0-1.0,,"<div style=""display: flex; flex-direction: column; align-items: center; margin-top: -40px;""><img src=""images/pattern_3.png"" style=""width: 234px; height: 230px; margin-top: -50px;""><div style=""display: flex; justify-content: space-between; margin-top: 33px;""><img src=""images/choice_trial_16.png"" style=""width: 408px; height: 417px; margin-left:608px;""></div></div>",,delaylearn,learning,display_response,Xjd324SwQ1UGjVwMLhelIWhkDCu2,Xjd324SwQ1UGjVwMLhelIWhkDCu2,,,,,,,,,,,,,,,,,chosen stimuli: images/choice_trial_16.png,,,,,5f71bba655ed56021e62625b,16:37:21,27/03/2024
html-keyboard-response,179,398596,0.0-74.0-2.0,,,,delaylearn,learning,feedback_duration_window,Xjd324SwQ1UGjVwMLhelIWhkDCu2,Xjd324SwQ1UGjVwMLhelIWhkDCu2,,,,,,,,,,,,,,,,,,7000.0,,,,5f71bba655ed56021e62625b,16:37:21,27/03/2024
html-keyboard-response,180,400115,0.0-74.0-3.0,,<div style='margin:auto;width: auto; font-size: 150%'><span style='font-weight: bold; font-size: 100px; color: green;'>+10 points!</span><br><br></div>,,delaylearn,learning,feedback_image_window,Xjd324SwQ1UGjVwMLhelIWhkDCu2,Xjd324SwQ1UGjVwMLhelIWhkDCu2,,,,,,,,,,,,,,,,,,,,,,5f71bba655ed56021e62625b,16:37:21,27/03/2024
html-keyboard-response,181,401915,0.0-75.0,,"<div style=""font-size:100px;"">+</div>",,delaylearn,learning,ITI,Xjd324SwQ1UGjVwMLhelIWhkDCu2,Xjd324SwQ1UGjVwMLhelIWhkDCu2,,,,,,,,,,,,,,,,,,,1792.0,,,5f71bba655ed56021e62625b,16:37:21,27/03/2024
html-keyboard-response,182,402928,0.0-76.0-0.0,1007.9000000953674,"<div style=""display: flex; flex-direction: column; align-items: center; margin-top: -40px;""><img src=""images/pattern_5.png"" style=""width: 234px; height: 230px; margin-top: -50px;""><div style=""display: flex; justify-content: space-between; margin-top: 33px;""><img src=""images/choice_trial_5.png"" style=""width: 408px; height: 417px; margin-right: 200px;""><img src=""images/choice_trial_15.png"" style=""width: 408px; height: 417px;""></div></div>",f,delaylearn,learning,trial,Xjd324SwQ1UGjVwMLhelIWhkDCu2,Xjd324SwQ1UGjVwMLhelIWhkDCu2,4.0,images/choice_trial_5.png,images/choice_trial_15.png,images/pattern_5.png,j,f,750.0,5.0,15.0,4.0,0.0,33.0,1.0,0.0,5.0,190.0,,,,,,5f71bba655ed56021e62625b,16:37:21,27/03/2024
html-keyboard-response,183,403945,0.0-76.0-1.0,,"<div style=""display: flex; flex-direction: column; align-items: center; margin-top: -40px;""><img src=""images/pattern_5.png"" style=""width: 234px; height: 230px; margin-top: -50px;""><div style=""display: flex; justify-content: space-between; margin-top: 33px;""><img src=""images/choice_trial_5.png"" style=""width: 408px; height: 417px; margin-right: 608px;""></div></div>",,delaylearn,learning,display_response,Xjd324SwQ1UGjVwMLhelIWhkDCu2,Xjd324SwQ1UGjVwMLhelIWhkDCu2,,,,,,,,,,,,,,,,,chosen stimuli: images/choice_trial_5.png,,,,,5f71bba655ed56021e62625b,16:37:21,27/03/2024
html-keyboard-response,184,404713,0.0-76.0-2.0,,,,delaylearn,learning,feedback_duration_window,Xjd324SwQ1UGjVwMLhelIWhkDCu2,Xjd324SwQ1UGjVwMLhelIWhkDCu2,,,,,,,,,,,,,,,,,,750.0,,,,5f71bba655ed56021e62625b,16:37:21,27/03/2024
html-keyboard-response,185,406224,0.0-76.0-3.0,,<div style='margin:auto;width: auto; font-size: 150%'><span style='font-weight: bold; font-size: 100px; color: red;'>0 points!</span><br><br></div>,,delaylearn,learning,feedback_image_window,Xjd324SwQ1UGjVwMLhelIWhkDCu2,Xjd324SwQ1UGjVwMLhelIWhkDCu2,,,,,,,,,,,,,,,,,,,,,,5f71bba655ed56021e62625b,16:37:21,27/03/2024
html-keyboard-response,186,408297,0.0-77.0,,"<div style=""font-size:100px;"">+</div>",,delaylearn,learning,ITI,Xjd324SwQ1UGjVwMLhelIWhkDCu2,Xjd324SwQ1UGjVwMLhelIWhkDCu2,,,,,,,,,,,,,,,,,,,2068.0,,,5f71bba655ed56021e62625b,16:37:21,27/03/2024
html-keyboard-response,187,408951,0.0-78.0-0.0,649.4000000953674,"<div style=""display: flex; flex-direction: column; align-items: center; margin-top: -40px;""><img src=""images/pattern_1.png"" style=""width: 234px; height: 230px; margin-top: -50px;""><div style=""display: flex; justify-content: space-between; margin-top: 33px;""><img src=""images/choice_trial_1.png"" style=""width: 408px; height: 417px; margin-right: 200px;""><img src=""images/choice_trial_9.png"" style=""width: 408px; height: 417px;""></div></div>",j,delaylearn,learning,trial,Xjd324SwQ1UGjVwMLhelIWhkDCu2,Xjd324SwQ1UGjVwMLhelIWhkDCu2,4.0,images/choice_trial_1.png,images/choice_trial_9.png,images/pattern_1.png,f,f,7000.0,1.0,9.0,1.0,0.0,34.0,0.0,0.0,9.0,190.0,,,,,,5f71bba655ed56021e62625b,16:37:21,27/03/2024
html-keyboard-response,188,409969,0.0-78.0-1.0,,"<div style=""display: flex; flex-direction: column; align-items: center; margin-top: -40px;""><img src=""images/pattern_1.png"" style=""width: 234px; height: 230px; margin-top: -50px;""><div style=""display: flex; justify-content: space-between; margin-top: 33px;""><img src=""images/choice_trial_9.png"" style=""width: 408px; height: 417px; margin-left:608px;""></div></div>",,delaylearn,learning,display_response,Xjd324SwQ1UGjVwMLhelIWhkDCu2,Xjd324SwQ1UGjVwMLhelIWhkDCu2,,,,,,,,,,,,,,,,,chosen stimuli: images/choice_trial_9.png,,,,,5f71bba655ed56021e62625b,16:37:21,27/03/2024
html-keyboard-response,189,416979,0.0-78.0-2.0,,,,delaylearn,learning,feedback_duration_window,Xjd324SwQ1UGjVwMLhelIWhkDCu2,Xjd324SwQ1UGjVwMLhelIWhkDCu2,,,,,,,,,,,,,,,,,,7000.0,,,,5f71bba655ed56021e62625b,16:37:21,27/03/2024
html-keyboard-response,190,418491,0.0-78.0-3.0,,<div style='margin:auto;width: auto; font-size: 150%'><span style='font-weight: bold; font-size: 100px; color: red;'>0 points!</span><br><br></div>,,delaylearn,learning,feedback_image_window,Xjd324SwQ1UGjVwMLhelIWhkDCu2,Xjd324SwQ1UGjVwMLhelIWhkDCu2,,,,,,,,,,,,,,,,,,,,,,5f71bba655ed56021e62625b,16:37:21,27/03/2024
html-keyboard-response,191,419009,0.0-79.0-0.0,,,,,,mood_trial_fixation,Xjd324SwQ1UGjVwMLhelIWhkDCu2,,,,,,,,,,,,,,,,,,,,,,,5f71bba655ed56021e62625b,16:37:21,27/03/2024
lmdlab-html-vas-response,192,423015,0.0-79.0-1.0,2986.0,How happy are you right now?,0.3888888888888889,delaylearn,learning,mood_trial,Xjd324SwQ1UGjVwMLhelIWhkDCu2,Xjd324SwQ1UGjVwMLhelIWhkDCu2,,,,,,,,,,,,,,,,,,,,"['Very unhappy', 'Very happy']",,5f71bba655ed56021e62625b,16:37:21,27/03/2024
html-keyboard-response,193,425212,0.0-80.0,,"<div style=""font-size:100px;"">+</div>",,delaylearn,learning,ITI,Xjd324SwQ1UGjVwMLhelIWhkDCu2,Xjd324SwQ1UGjVwMLhelIWhkDCu2,,,,,,,,,,,,,,,,,,,2183.0,,,5f71bba655ed56021e62625b,16:37:21,27/03/2024
html-keyboard-response,194,426699,0.0-81.0-0.0,1482.7999997138977,"<div style=""display: flex; flex-direction: column; align-items: center; margin-top: -40px;""><img src=""images/pattern_6.png"" style=""width: 234px; height: 230px; margin-top: -50px;""><div style=""display: flex; justify-content: space-between; margin-top: 33px;""><img src=""images/choice_trial_10.png"" style=""width: 408px; height: 417px; margin-right: 200px;""><img src=""images/choice_trial_3.png"" style=""width: 408px; height: 417px;""></div></div>",f,delaylearn,learning,trial,Xjd324SwQ1UGjVwMLhelIWhkDCu2,Xjd324SwQ1UGjVwMLhelIWhkDCu2,4.0,images/choice_trial_10.png,images/choice_trial_3.png,images/pattern_6.png,j,f,750.0,10.0,3.0,5.0,0.0,35.0,1.0,0.0,10.0,190.0,,,,,,5f71bba655ed56021e62625b,16:37:21,27/03/2024
html-keyboard-response,195,427709,0.0-81.0-1.0,,"<div style=""display: flex; flex-direction: column; align-items: center; margin-top: -40px;""><img src=""images/pattern_6.png"" style=""width: 234px; height: 230px; margin-top: -50px;""><div style=""display: flex; justify-content: space-between; margin-top: 33px;""><img src=""images/choice_trial_10.png"" style=""width: 408px; height: 417px; margin-right: 608px;""></div></div>",,delaylearn,learning,display_response,Xjd324SwQ1UGjVwMLhelIWhkDCu2,Xjd324SwQ1UGjVwMLhelIWhkDCu2,,,,,,,,,,,,,,,,,chosen stimuli: images/choice_trial_10.png,,,,,5f71bba655ed56021e62625b,16:37:21,27/03/2024
html-keyboard-response,196,428476,0.0-81.0-2.0,,,,delaylearn,learning,feedback_duration_window,Xjd324SwQ1UGjVwMLhelIWhkDCu2,Xjd324SwQ1UGjVwMLhelIWhkDCu2,,,,,,,,,,,,,,,,,,750.0,,,,5f71bba655ed56021e62625b,16:37:21,27/03/2024
html-keyboard-response,197,429987,0.0-81.0-3.0,,<div style='margin:auto;width: auto; font-size: 150%'><span style='font-weight: bold; font-size: 100px; color: red;'>0 points!</span><br><br></div>,,delaylearn,learning,feedback_image_window,Xjd324SwQ1UGjVwMLhelIWhkDCu2,Xjd324SwQ1UGjVwMLhelIWhkDCu2,,,,,,,,,,,,,,,,,,,,,,5f71bba655ed56021e62625b,16:37:21,27/03/2024
html-keyboard-response,198,432226,0.0-82.0,,"<div style=""font-size:100px;"">+</div>",,delaylearn,learning,ITI,Xjd324SwQ1UGjVwMLhelIWhkDCu2,Xjd324SwQ1UGjVwMLhelIWhkDCu2,,,,,,,,,,,,,,,,,,,2223.0,,,5f71bba655ed56021e62625b,16:37:21,27/03/2024
html-keyboard-response,199,433334,0.0-83.0-0.0,1104.6999998092651,"<div style=""display: flex; flex-direction: column; align-items: center; margin-top: -40px;""><img src=""images/pattern_3.png"" style=""width: 234px; height: 230px; margin-top: -50px;""><div style=""display: flex; justify-content: space-between; margin-top: 33px;""><img src=""images/choice_trial_6.png"" style=""width: 408px; height: 417px; margin-right: 200px;""><img src=""images/choice_trial_16.png"" style=""width: 408px; height: 417px;""></div></div>",j,delaylearn,learning,trial,Xjd324SwQ1UGjVwMLhelIWhkDCu2,Xjd324SwQ1UGjVwMLhelIWhkDCu2,4.0,images/choice_trial_6.png,images/choice_trial_16.png,images/pattern_3.png,j,j,7000.0,6.0,16.0,2.0,1.0,36.0,1.0,1.0,16.0,200.0,,,,,,5f71bba655ed56021e62625b,16:37:21,27/03/2024
html-keyboard-response,200,434337,0.0-83.0-1.0,,"<div style=""display: flex; flex-direction: column; align-items: center; margin-top: -40px;""><img src=""images/pattern_3.png"" style=""width: 234px; height: 230px; margin-top: -50px;""><div style=""display: flex; justify-content: space-between; margin-top: 33px;""><img src=""images/choice_trial_16.png"" style=""width: 408px; height: 417px; margin-left:608px;""></div></div>",,delaylearn,learning,display_response,Xjd324SwQ1UGjVwMLhelIWhkDCu2,Xjd324SwQ1UGjVwMLhelIWhkDCu2,,,,,,,,,,,,,,,,,chosen stimuli: images/choice_trial_16.png,,,,,5f71bba655ed56021e62625b,16:37:21,27/03/2024
html-keyboard-response,201,441348,0.0-83.0-2.0,,,,delaylearn,learning,feedback_duration_window,Xjd324SwQ1UGjVwMLhelIWhkDCu2,Xjd324SwQ1UGjVwMLhelIWhkDCu2,,,,,,,,,,,,,,,,,,7000.0,,,,5f71bba655ed56021e62625b,16:37:21,27/03/2024
html-keyboard-response,202,442858,0.0-83.0-3.0,,<div style='margin:auto;width: auto; font-size: 150%'><span style='font-weight: bold; font-size: 100px; color: green;'>+10 points!</span><br><br></div>,,delaylearn,learning,feedback_image_window,Xjd324SwQ1UGjVwMLhelIWhkDCu2,Xjd324SwQ1UGjVwMLhelIWhkDCu2,,,,,,,,,,,,,,,,,,,,,,5f71bba655ed56021e62625b,16:37:21,27/03/2024
html-keyboard-response,203,444774,0.0-84.0,,"<div style=""font-size:100px;"">+</div>",,delaylearn,learning,ITI,Xjd324SwQ1UGjVwMLhelIWhkDCu2,Xjd324SwQ1UGjVwMLhelIWhkDCu2,,,,,,,,,,,,,,,,,,,1901.0,,,5f71bba655ed56021e62625b,16:37:21,27/03/2024
html-keyboard-response,204,446108,0.0-85.0-0.0,1327.6999998092651,"<div style=""display: flex; flex-direction: column; align-items: center; margin-top: -40px;""><img src=""images/pattern_4.png"" style=""width: 234px; height: 230px; margin-top: -50px;""><div style=""display: flex; justify-content: space-between; margin-top: 33px;""><img src=""images/choice_trial_7.png"" style=""width: 408px; height: 417px; margin-right: 200px;""><img src=""images/choice_trial_8.png"" style=""width: 408px; height: 417px;""></div></div>",f,delaylearn,learning,trial,Xjd324SwQ1UGjVwMLhelIWhkDCu2,Xjd324SwQ1UGjVwMLhelIWhkDCu2,4.0,images/choice_trial_7.png,images/choice_trial_8.png,images/pattern_4.png,f,j,7000.0,7.0,8.0,3.0,1.0,37.0,0.0,1.0,7.0,210.0,,,,,,5f71bba655ed56021e62625b,16:37:21,27/03/2024
html-keyboard-response,205,447118,0.0-85.0-1.0,,"<div style=""display: flex; flex-direction: column; align-items: center; margin-top: -40px;""><img src=""images/pattern_4.png"" style=""width: 234px; height: 230px; margin-top: -50px;""><div style=""display: flex; justify-content: space-between; margin-top: 33px;""><img src=""images/choice_trial_7.png"" style=""width: 408px; height: 417px; margin-right: 608px;""></div></div>",,delaylearn,learning,display_response,Xjd324SwQ1UGjVwMLhelIWhkDCu2,Xjd324SwQ1UGjVwMLhelIWhkDCu2,,,,,,,,,,,,,,,,,chosen stimuli: images/choice_trial_7.png,,,,,5f71bba655ed56021e62625b,16:37:21,27/03/2024
html-keyboard-response,206,454138,0.0-85.0-2.0,,,,delaylearn,learning,feedback_duration_window,Xjd324SwQ1UGjVwMLhelIWhkDCu2,Xjd324SwQ1UGjVwMLhelIWhkDCu2,,,,,,,,,,,,,,,,,,7000.0,,,,5f71bba655ed56021e62625b,16:37:21,27/03/2024
html-keyboard-response,207,455655,0.0-85.0-3.0,,<div style='margin:auto;width: auto; font-size: 150%'><span style='font-weight: bold; font-size: 100px; color: green;'>+10 points!</span><br><br></div>,,delaylearn,learning,feedback_image_window,Xjd324SwQ1UGjVwMLhelIWhkDCu2,Xjd324SwQ1UGjVwMLhelIWhkDCu2,,,,,,,,,,,,,,,,,,,,,,5f71bba655ed56021e62625b,16:37:21,27/03/2024
html-keyboard-response,208,457400,0.0-86.0,,"<div style=""font-size:100px;"">+</div>",,delaylearn,learning,ITI,Xjd324SwQ1UGjVwMLhelIWhkDCu2,Xjd324SwQ1UGjVwMLhelIWhkDCu2,,,,,,,,,,,,,,,,,,,1736.0,,,5f71bba655ed56021e62625b,16:37:21,27/03/2024
html-keyboard-response,209,458199,0.0-87.0-0.0,794.8000001907349,"<div style=""display: flex; flex-direction: column; align-items: center; margin-top: -40px;""><img src=""images/pattern_7.png"" style=""width: 234px; height: 230px; margin-top: -50px;""><div style=""display: flex; justify-content: space-between; margin-top: 33px;""><img src=""images/choice_trial_13.png"" style=""width: 408px; height: 417px; margin-right: 200px;""><img src=""images/choice_trial_4.png"" style=""width: 408px; height: 417px;""></div></div>",j,delaylearn,learning,trial,Xjd324SwQ1UGjVwMLhelIWhkDCu2,Xjd324SwQ1UGjVwMLhelIWhkDCu2,4.0,images/choice_trial_13.png,images/choice_trial_4.png,images/pattern_7.png,f,f,750.0,13.0,4.0,6.0,0.0,38.0,0.0,0.0,4.0,210.0,,,,,,5f71bba655ed56021e62625b,16:37:21,27/03/2024
html-keyboard-response,210,459216,0.0-87.0-1.0,,"<div style=""display: flex; flex-direction: column; align-items: center; margin-top: -40px;""><img src=""images/pattern_7.png"" style=""width: 234px; height: 230px; margin-top: -50px;""><div style=""display: flex; justify-content: space-between; margin-top: 33px;""><img src=""images/choice_trial_4.png"" style=""width: 408px; height: 417px; margin-left:608px;""></div></div>",,delaylearn,learning,display_response,Xjd324SwQ1UGjVwMLhelIWhkDCu2,Xjd324SwQ1UGjVwMLhelIWhkDCu2,,,,,,,,,,,,,,,,,chosen stimuli: images/choice_trial_4.png,,,,,5f71bba655ed56021e62625b,16:37:21,27/03/2024
html-keyboard-response,211,459984,0.0-87.0-2.0,,,,delaylearn,learning,feedback_duration_window,Xjd324SwQ1UGjVwMLhelIWhkDCu2,Xjd324SwQ1UGjVwMLhelIWhkDCu2,,,,,,,,,,,,,,,,,,750.0,,,,5f71bba655ed56021e62625b,16:37:21,27/03/2024
html-keyboard-response,212,461486,0.0-87.0-3.0,,<div style='margin:auto;width: auto; font-size: 150%'><span style='font-weight: bold; font-size: 100px; color: red;'>0 points!</span><br><br></div>,,delaylearn,learning,feedback_image_window,Xjd324SwQ1UGjVwMLhelIWhkDCu2,Xjd324SwQ1UGjVwMLhelIWhkDCu2,,,,,,,,,,,,,,,,,,,,,,5f71bba655ed56021e62625b,16:37:21,27/03/2024
html-keyboard-response,213,463927,0.0-88.0,,"<div style=""font-size:100px;"">+</div>",,delaylearn,learning,ITI,Xjd324SwQ1UGjVwMLhelIWhkDCu2,Xjd324SwQ1UGjVwMLhelIWhkDCu2,,,,,,,,,,,,,,,,,,,2428.0,,,5f71bba655ed56021e62625b,16:37:21,27/03/2024
html-keyboard-response,214,464893,0.0-89.0-0.0,962.9000000953674,"<div style=""display: flex; flex-direction: column; align-items: center; margin-top: -40px;""><img src=""images/pattern_1.png"" style=""width: 234px; height: 230px; margin-top: -50px;""><div style=""display: flex; justify-content: space-between; margin-top: 33px;""><img src=""images/choice_trial_1.png"" style=""width: 408px; height: 417px; margin-right: 200px;""><img src=""images/choice_trial_9.png"" style=""width: 408px; height: 417px;""></div></div>",f,delaylearn,learning,trial,Xjd324SwQ1UGjVwMLhelIWhkDCu2,Xjd324SwQ1UGjVwMLhelIWhkDCu2,4.0,images/choice_trial_1.png,images/choice_trial_9.png,images/pattern_1.png,f,f,7000.0,1.0,9.0,1.0,0.0,39.0,1.0,1.0,1.0,220.0,,,,,,5f71bba655ed56021e62625b,16:37:21,27/03/2024
html-keyboard-response,215,465903,0.0-89.0-1.0,,"<div style=""display: flex; flex-direction: column; align-items: center; margin-top: -40px;""><img src=""images/pattern_1.png"" style=""width: 234px; height: 230px; margin-top: -50px;""><div style=""display: flex; justify-content: space-between; margin-top: 33px;""><img src=""images/choice_trial_1.png"" style=""width: 408px; height: 417px; margin-right: 608px;""></div></div>",,delaylearn,learning,display_response,Xjd324SwQ1UGjVwMLhelIWhkDCu2,Xjd324SwQ1UGjVwMLhelIWhkDCu2,,,,,,,,,,,,,,,,,chosen stimuli: images/choice_trial_1.png,,,,,5f71bba655ed56021e62625b,16:37:21,27/03/2024
html-keyboard-response,216,472914,0.0-89.0-2.0,,,,delaylearn,learning,feedback_duration_window,Xjd324SwQ1UGjVwMLhelIWhkDCu2,Xjd324SwQ1UGjVwMLhelIWhkDCu2,,,,,,,,,,,,,,,,,,7000.0,,,,5f71bba655ed56021e62625b,16:37:21,27/03/2024
html-keyboard-response,217,474432,0.0-89.0-3.0,,<div style='margin:auto;width: auto; font-size: 150%'><span style='font-weight: bold; font-size: 100px; color: green;'>+10 points!</span><br><br></div>,,delaylearn,learning,feedback_image_window,Xjd324SwQ1UGjVwMLhelIWhkDCu2,Xjd324SwQ1UGjVwMLhelIWhkDCu2,,,,,,,,,,,,,,,,,,,,,,5f71bba655ed56021e62625b,16:37:21,27/03/2024
html-keyboard-response,218,474942,0.0-90.0-0.0,,,,,,mood_trial_fixation,Xjd324SwQ1UGjVwMLhelIWhkDCu2,,,,,,,,,,,,,,,,,,,,,,,5f71bba655ed56021e62625b,16:37:21,27/03/2024
lmdlab-html-vas-response,219,479099,0.0-90.0-1.0,3137.0,How happy are you right now?,0.5385802469135802,delaylearn,learning,mood_trial,Xjd324SwQ1UGjVwMLhelIWhkDCu2,Xjd324SwQ1UGjVwMLhelIWhkDCu2,,,,,,,,,,,,,,,,,,,,"['Very unhappy', 'Very happy']",,5f71bba655ed56021e62625b,16:37:21,27/03/2024
html-keyboard-response,220,480934,0.0-91.0,,"<div style=""font-size:100px;"">+</div>",,delaylearn,learning,ITI,Xjd324SwQ1UGjVwMLhelIWhkDCu2,Xjd324SwQ1UGjVwMLhelIWhkDCu2,,,,,,,,,,,,,,,,,,,1814.0,,,5f71bba655ed56021e62625b,16:37:21,27/03/2024
html-keyboard-response,221,482364,0.0-92.0-0.0,1428.6999998092651,"<div style=""display: flex; flex-direction: column; align-items: center; margin-top: -40px;""><img src=""images/pattern_3.png"" style=""width: 234px; height: 230px; margin-top: -50px;""><div style=""display: flex; justify-content: space-between; margin-top: 33px;""><img src=""images/choice_trial_16.png"" style=""width: 408px; height: 417px; margin-right: 200px;""><img src=""images/choice_trial_6.png"" style=""width: 408px; height: 417px;""></div></div>",j,delaylearn,learning,trial,Xjd324SwQ1UGjVwMLhelIWhkDCu2,Xjd324SwQ1UGjVwMLhelIWhkDCu2,4.0,images/choice_trial_16.png,images/choice_trial_6.png,images/pattern_3.png,j,f,7000.0,16.0,6.0,2.0,0.0,40.0,0.0,1.0,6.0,230.0,,,,,,5f71bba655ed56021e62625b,16:37:21,27/03/2024
html-keyboard-response,222,483375,0.0-92.0-1.0,,"<div style=""display: flex; flex-direction: column; align-items: center; margin-top: -40px;""><img src=""images/pattern_3.png"" style=""width: 234px; height: 230px; margin-top: -50px;""><div style=""display: flex; justify-content: space-between; margin-top: 33px;""><img src=""images/choice_trial_6.png"" style=""width: 408px; height: 417px; margin-left:608px;""></div></div>",,delaylearn,learning,display_response,Xjd324SwQ1UGjVwMLhelIWhkDCu2,Xjd324SwQ1UGjVwMLhelIWhkDCu2,,,,,,,,,,,,,,,,,chosen stimuli: images/choice_trial_6.png,,,,,5f71bba655ed56021e62625b,16:37:21,27/03/2024
html-keyboard-response,223,490392,0.0-92.0-2.0,,,,delaylearn,learning,feedback_duration_window,Xjd324SwQ1UGjVwMLhelIWhkDCu2,Xjd324SwQ1UGjVwMLhelIWhkDCu2,,,,,,,,,,,,,,,,,,7000.0,,,,5f71bba655ed56021e62625b,16:37:21,27/03/2024
html-keyboard-response,224,491910,0.0-92.0-3.0,,<div style='margin:auto;width: auto; font-size: 150%'><span style='font-weight: bold; font-size: 100px; color: green;'>+10 points!</span><br><br></div>,,delaylearn,learning,feedback_image_window,Xjd324SwQ1UGjVwMLhelIWhkDCu2,Xjd324SwQ1UGjVwMLhelIWhkDCu2,,,,,,,,,,,,,,,,,,,,,,5f71bba655ed56021e62625b,16:37:21,27/03/2024
html-keyboard-response,225,493686,0.0-93.0,,"<div style=""font-size:100px;"">+</div>",,delaylearn,learning,ITI,Xjd324SwQ1UGjVwMLhelIWhkDCu2,Xjd324SwQ1UGjVwMLhelIWhkDCu2,,,,,,,,,,,,,,,,,,,1754.0,,,5f71bba655ed56021e62625b,16:37:21,27/03/2024
html-keyboard-response,226,494200,0.0-94.0-0.0,509.30000019073486,"<div style=""display: flex; flex-direction: column; align-items: center; margin-top: -40px;""><img src=""images/pattern_7.png"" style=""width: 234px; height: 230px; margin-top: -50px;""><div style=""display: flex; justify-content: space-between; margin-top: 33px;""><img src=""images/choice_trial_4.png"" style=""width: 408px; height: 417px; margin-right: 200px;""><img src=""images/choice_trial_13.png"" style=""width: 408px; height: 417px;""></div></div>",f,delaylearn,learning,trial,Xjd324SwQ1UGjVwMLhelIWhkDCu2,Xjd324SwQ1UGjVwMLhelIWhkDCu2,4.0,images/choice_trial_4.png,images/choice_trial_13.png,images/pattern_7.png,j,j,750.0,4.0,13.0,6.0,1.0,41.0,0.0,0.0,4.0,230.0,,,,,,5f71bba655ed56021e62625b,16:37:21,27/03/2024
html-keyboard-response,227,495217,0.0-94.0-1.0,,"<div style=""display: flex; flex-direction: column; align-items: center; margin-top: -40px;""><img src=""images/pattern_7.png"" style=""width: 234px; height: 230px; margin-top: -50px;""><div style=""display: flex; justify-content: space-between; margin-top: 33px;""><img src=""images/choice_trial_4.png"" style=""width: 408px; height: 417px; margin-right: 608px;""></div></div>",,delaylearn,learning,display_response,Xjd324SwQ1UGjVwMLhelIWhkDCu2,Xjd324SwQ1UGjVwMLhelIWhkDCu2,,,,,,,,,,,,,,,,,chosen stimuli: images/choice_trial_4.png,,,,,5f71bba655ed56021e62625b,16:37:21,27/03/2024
html-keyboard-response,228,495972,0.0-94.0-2.0,,,,delaylearn,learning,feedback_duration_window,Xjd324SwQ1UGjVwMLhelIWhkDCu2,Xjd324SwQ1UGjVwMLhelIWhkDCu2,,,,,,,,,,,,,,,,,,750.0,,,,5f71bba655ed56021e62625b,16:37:21,27/03/2024
html-keyboard-response,229,497482,0.0-94.0-3.0,,<div style='margin:auto;width: auto; font-size: 150%'><span style='font-weight: bold; font-size: 100px; color: red;'>0 points!</span><br><br></div>,,delaylearn,learning,feedback_image_window,Xjd324SwQ1UGjVwMLhelIWhkDCu2,Xjd324SwQ1UGjVwMLhelIWhkDCu2,,,,,,,,,,,,,,,,,,,,,,5f71bba655ed56021e62625b,16:37:21,27/03/2024
html-keyboard-response,230,499282,0.0-95.0,,"<div style=""font-size:100px;"">+</div>",,delaylearn,learning,ITI,Xjd324SwQ1UGjVwMLhelIWhkDCu2,Xjd324SwQ1UGjVwMLhelIWhkDCu2,,,,,,,,,,,,,,,,,,,1791.0,,,5f71bba655ed56021e62625b,16:37:21,27/03/2024
