trial_type,trial_index,time_elapsed,internal_node_id,rt,stimulus,response,exp_name,exp_stage,test_part,subjectID,databaseID,counterbal,choice_stimuli_1,choice_stimuli_2,pattern_stimuli,rewarded_answer,correct_answer,feedback_duration_times,stim_left,stim_right,pair,leftright_counter,trial,response_correct,response_rewarded,chosen_stim,counter,displayed_choice,feedback_durations,ITI_duration,labels,rest_warning,prolificID,start_time,date
pavlovia,0,441,0.0-0.0,,,,,,,R9m8VsBPDeU45hyCY4fehgRWCEu1,,,,,,,,,,,,,,,,,,,,,,,65e6238e5774c7e869f5defd,16:52:06,27/03/2024
html-keyboard-response,1,3456,0.0-1.0,,"<div style=""font-size:100px;"">+</div>",,delaylearn,learning,pre_fixation,R9m8VsBPDeU45hyCY4fehgRWCEu1,,,,,,,,,,,,,,,,,,,,,,,65e6238e5774c7e869f5defd,16:52:06,27/03/2024
html-keyboard-response,2,5381,0.0-2.0-0.0,1923.0,"<div style=""display: flex; flex-direction: column; align-items: center; margin-top: -40px;""><img src=""images/demo_images/pattern_1.png"" style=""width: 234px; height: 230px; margin-top: -50px;""><div style=""display: flex; justify-content: space-between; margin-top: 33px;""><img src=""images/demo_images/choice_trial_2.png"" style=""width: 408px; height: 417px; margin-right: 200px;""><img src=""images/demo_images/choice_trial_1.png"" style=""width: 408px; height: 417px;""></div></div>",j,delaylearn,learning,trial,R9m8VsBPDeU45hyCY4fehgRWCEu1,R9m8VsBPDeU45hyCY4fehgRWCEu1,1.0,images/demo_images/choice_trial_2.png,images/demo_images/choice_trial_1.png,images/demo_images/pattern_1.png,j,j,3000.0,2.0,1.0,20.0,1.0,1.0,1.0,1.0,1.0,10.0,,,,,,65e6238e5774c7e869f5defd,16:52:06,27/03/2024
html-keyboard-response,3,6393,0.0-2.0-1.0,,"<div style=""display: flex; flex-direction: column; align-items: center; margin-top: -40px;""><img src=""images/demo_images/pattern_1.png"" style=""width: 234px; height: 230px; margin-top: -50px;""><div style=""display: flex; justify-content: space-between; margin-top: 33px;""><img src=""images/demo_images/choice_trial_1.png"" style=""width: 408px; height: 417px; margin-left:608px;""></div></div>",,delaylearn,learning,display_response,R9m8VsBPDeU45hyCY4fehgRWCEu1,R9m8VsBPDeU45hyCY4fehgRWCEu1,,,,,,,,,,,,,,,,,chosen stimuli: images/demo_images/choice_trial_1.png,,,,,65e6238e5774c7e869f5defd,16:52:06,27/03/2024
html-keyboard-response,4,9394,0.0-2.0-2.0,,,,delaylearn,learning,feedback_duration_window,R9m8VsBPDeU45hyCY4fehgRWCEu1,R9m8VsBPDeU45hyCY4fehgRWCEu1,,,,,,,,,,,,,,,,,,3000.0,,,,65e6238e5774c7e869f5defd,16:52:06,27/03/2024
html-keyboard-response,5,10910,0.0-2.0-3.0,,<div style='margin:auto;width: auto; font-size: 150%'><span style='font-weight: bold; font-size: 100px; color: green;'>+10 points!</span><br><br></div>,,delaylearn,learning,feedback_image_window,R9m8VsBPDeU45hyCY4fehgRWCEu1,R9m8VsBPDeU45hyCY4fehgRWCEu1,,,,,,,,,,,,,,,,,,,,,,65e6238e5774c7e869f5defd,16:52:06,27/03/2024
html-keyboard-response,6,13100,0.0-3.0,,"<div style=""font-size:100px;"">+</div>",,delaylearn,learning,ITI,R9m8VsBPDeU45hyCY4fehgRWCEu1,R9m8VsBPDeU45hyCY4fehgRWCEu1,,,,,,,,,,,,,,,,,,,2175.0,,,65e6238e5774c7e869f5defd,16:52:06,27/03/2024
html-keyboard-response,7,15781,0.0-4.0-0.0,2679.699999988079,"<div style=""display: flex; flex-direction: column; align-items: center; margin-top: -40px;""><img src=""images/demo_images/pattern_1.png"" style=""width: 234px; height: 230px; margin-top: -50px;""><div style=""display: flex; justify-content: space-between; margin-top: 33px;""><img src=""images/demo_images/choice_trial_2.png"" style=""width: 408px; height: 417px; margin-right: 200px;""><img src=""images/demo_images/choice_trial_1.png"" style=""width: 408px; height: 417px;""></div></div>",f,delaylearn,learning,trial,R9m8VsBPDeU45hyCY4fehgRWCEu1,R9m8VsBPDeU45hyCY4fehgRWCEu1,1.0,images/demo_images/choice_trial_2.png,images/demo_images/choice_trial_1.png,images/demo_images/pattern_1.png,j,j,3000.0,2.0,1.0,20.0,1.0,2.0,0.0,0.0,2.0,10.0,,,,,,65e6238e5774c7e869f5defd,16:52:06,27/03/2024
html-keyboard-response,8,16791,0.0-4.0-1.0,,"<div style=""display: flex; flex-direction: column; align-items: center; margin-top: -40px;""><img src=""images/demo_images/pattern_1.png"" style=""width: 234px; height: 230px; margin-top: -50px;""><div style=""display: flex; justify-content: space-between; margin-top: 33px;""><img src=""images/demo_images/choice_trial_2.png"" style=""width: 408px; height: 417px; margin-right: 608px;""></div></div>",,delaylearn,learning,display_response,R9m8VsBPDeU45hyCY4fehgRWCEu1,R9m8VsBPDeU45hyCY4fehgRWCEu1,,,,,,,,,,,,,,,,,chosen stimuli: images/demo_images/choice_trial_2.png,,,,,65e6238e5774c7e869f5defd,16:52:06,27/03/2024
html-keyboard-response,9,19793,0.0-4.0-2.0,,,,delaylearn,learning,feedback_duration_window,R9m8VsBPDeU45hyCY4fehgRWCEu1,R9m8VsBPDeU45hyCY4fehgRWCEu1,,,,,,,,,,,,,,,,,,3000.0,,,,65e6238e5774c7e869f5defd,16:52:06,27/03/2024
html-keyboard-response,10,21309,0.0-4.0-3.0,,<div style='margin:auto;width: auto; font-size: 150%'><span style='font-weight: bold; font-size: 100px; color: red;'>0 points!</span><br><br></div>,,delaylearn,learning,feedback_image_window,R9m8VsBPDeU45hyCY4fehgRWCEu1,R9m8VsBPDeU45hyCY4fehgRWCEu1,,,,,,,,,,,,,,,,,,,,,,65e6238e5774c7e869f5defd,16:52:06,27/03/2024
html-keyboard-response,11,23436,0.0-5.0,,"<div style=""font-size:100px;"">+</div>",,delaylearn,learning,ITI,R9m8VsBPDeU45hyCY4fehgRWCEu1,R9m8VsBPDeU45hyCY4fehgRWCEu1,,,,,,,,,,,,,,,,,,,2114.0,,,65e6238e5774c7e869f5defd,16:52:06,27/03/2024
html-keyboard-response,12,26445,0.0-6.0-0.0,,"<div style=""display: flex; flex-direction: column; align-items: center; margin-top: -40px;""><img src=""images/demo_images/pattern_1.png"" style=""width: 234px; height: 230px; margin-top: -50px;""><div style=""display: flex; justify-content: space-between; margin-top: 33px;""><img src=""images/demo_images/choice_trial_1.png"" style=""width: 408px; height: 417px; margin-right: 200px;""><img src=""images/demo_images/choice_trial_2.png"" style=""width: 408px; height: 417px;""></div></div>",,delaylearn,learning,trial,R9m8VsBPDeU45hyCY4fehgRWCEu1,R9m8VsBPDeU45hyCY4fehgRWCEu1,1.0,images/demo_images/choice_trial_1.png,images/demo_images/choice_trial_2.png,images/demo_images/pattern_1.png,j,f,3000.0,1.0,2.0,20.0,0.0,3.0,0.0,0.0,0.0,10.0,,,,,,65e6238e5774c7e869f5defd,16:52:06,27/03/2024
html-keyboard-response,13,27460,0.0-6.0-1.0,,<div style='font-weight: bold; font-size: 75px; color: red;'>Missed Trial <br><br><br><br> Please respond faster</div>,,delaylearn,learning,display_response,R9m8VsBPDeU45hyCY4fehgRWCEu1,R9m8VsBPDeU45hyCY4fehgRWCEu1,,,,,,,,,,,,,,,,,Missed trial,,,,,65e6238e5774c7e869f5defd,16:52:06,27/03/2024
html-keyboard-response,14,27466,0.0-6.0-2.0,,,,delaylearn,learning,feedback_duration_window,R9m8VsBPDeU45hyCY4fehgRWCEu1,R9m8VsBPDeU45hyCY4fehgRWCEu1,,,,,,,,,,,,,,,,,,0.0,,,,65e6238e5774c7e869f5defd,16:52:06,27/03/2024
html-keyboard-response,15,27471,0.0-6.0-3.0,,,,delaylearn,learning,feedback_image_window,R9m8VsBPDeU45hyCY4fehgRWCEu1,R9m8VsBPDeU45hyCY4fehgRWCEu1,,,,,,,,,,,,,,,,,,,,,,65e6238e5774c7e869f5defd,16:52:06,27/03/2024
html-keyboard-response,16,29367,0.0-7.0,,"<div style=""font-size:100px;"">+</div>",,delaylearn,learning,ITI,R9m8VsBPDeU45hyCY4fehgRWCEu1,R9m8VsBPDeU45hyCY4fehgRWCEu1,,,,,,,,,,,,,,,,,,,1890.0,,,65e6238e5774c7e869f5defd,16:52:06,27/03/2024
html-keyboard-response,17,30712,0.0-8.0-0.0,1343.1000000238419,"<div style=""display: flex; flex-direction: column; align-items: center; margin-top: -40px;""><img src=""images/demo_images/pattern_1.png"" style=""width: 234px; height: 230px; margin-top: -50px;""><div style=""display: flex; justify-content: space-between; margin-top: 33px;""><img src=""images/demo_images/choice_trial_1.png"" style=""width: 408px; height: 417px; margin-right: 200px;""><img src=""images/demo_images/choice_trial_2.png"" style=""width: 408px; height: 417px;""></div></div>",f,delaylearn,learning,trial,R9m8VsBPDeU45hyCY4fehgRWCEu1,R9m8VsBPDeU45hyCY4fehgRWCEu1,1.0,images/demo_images/choice_trial_1.png,images/demo_images/choice_trial_2.png,images/demo_images/pattern_1.png,f,f,3000.0,1.0,2.0,20.0,0.0,4.0,1.0,1.0,1.0,20.0,,,,,,65e6238e5774c7e869f5defd,16:52:06,27/03/2024
html-keyboard-response,18,31726,0.0-8.0-1.0,,"<div style=""display: flex; flex-direction: column; align-items: center; margin-top: -40px;""><img src=""images/demo_images/pattern_1.png"" style=""width: 234px; height: 230px; margin-top: -50px;""><div style=""display: flex; justify-content: space-between; margin-top: 33px;""><img src=""images/demo_images/choice_trial_1.png"" style=""width: 408px; height: 417px; margin-right: 608px;""></div></div>",,delaylearn,learning,display_response,R9m8VsBPDeU45hyCY4fehgRWCEu1,R9m8VsBPDeU45hyCY4fehgRWCEu1,,,,,,,,,,,,,,,,,chosen stimuli: images/demo_images/choice_trial_1.png,,,,,65e6238e5774c7e869f5defd,16:52:06,27/03/2024
html-keyboard-response,19,34728,0.0-8.0-2.0,,,,delaylearn,learning,feedback_duration_window,R9m8VsBPDeU45hyCY4fehgRWCEu1,R9m8VsBPDeU45hyCY4fehgRWCEu1,,,,,,,,,,,,,,,,,,3000.0,,,,65e6238e5774c7e869f5defd,16:52:06,27/03/2024
html-keyboard-response,20,36243,0.0-8.0-3.0,,<div style='margin:auto;width: auto; font-size: 150%'><span style='font-weight: bold; font-size: 100px; color: green;'>+10 points!</span><br><br></div>,,delaylearn,learning,feedback_image_window,R9m8VsBPDeU45hyCY4fehgRWCEu1,R9m8VsBPDeU45hyCY4fehgRWCEu1,,,,,,,,,,,,,,,,,,,,,,65e6238e5774c7e869f5defd,16:52:06,27/03/2024
html-keyboard-response,21,36759,0.0-9.0-0.0,,,,,,mood_trial_fixation,R9m8VsBPDeU45hyCY4fehgRWCEu1,,,,,,,,,,,,,,,,,,,,,,,65e6238e5774c7e869f5defd,16:52:06,27/03/2024
lmdlab-html-vas-response,22,41103,0.0-9.0-1.0,3315.0,How happy are you right now?,0.7546536949697568,delaylearn,learning,mood_trial,R9m8VsBPDeU45hyCY4fehgRWCEu1,R9m8VsBPDeU45hyCY4fehgRWCEu1,,,,,,,,,,,,,,,,,,,,"['Very unhappy', 'Very happy']",,65e6238e5774c7e869f5defd,16:52:06,27/03/2024
html-keyboard-response,23,43482,0.0-10.0,,"<div style=""font-size:100px;"">+</div>",,delaylearn,learning,ITI,R9m8VsBPDeU45hyCY4fehgRWCEu1,R9m8VsBPDeU45hyCY4fehgRWCEu1,,,,,,,,,,,,,,,,,,,2377.0,,,65e6238e5774c7e869f5defd,16:52:06,27/03/2024
html-keyboard-response,24,44093,0.0-11.0-0.0,608.9000000357628,"<div style=""display: flex; flex-direction: column; align-items: center; margin-top: -40px;""><img src=""images/demo_images/pattern_1.png"" style=""width: 234px; height: 230px; margin-top: -50px;""><div style=""display: flex; justify-content: space-between; margin-top: 33px;""><img src=""images/demo_images/choice_trial_2.png"" style=""width: 408px; height: 417px; margin-right: 200px;""><img src=""images/demo_images/choice_trial_1.png"" style=""width: 408px; height: 417px;""></div></div>",j,delaylearn,learning,trial,R9m8VsBPDeU45hyCY4fehgRWCEu1,R9m8VsBPDeU45hyCY4fehgRWCEu1,1.0,images/demo_images/choice_trial_2.png,images/demo_images/choice_trial_1.png,images/demo_images/pattern_1.png,j,j,3000.0,2.0,1.0,20.0,1.0,5.0,1.0,1.0,1.0,30.0,,,,,,65e6238e5774c7e869f5defd,16:52:06,27/03/2024
html-keyboard-response,25,45095,0.0-11.0-1.0,,"<div style=""display: flex; flex-direction: column; align-items: center; margin-top: -40px;""><img src=""images/demo_images/pattern_1.png"" style=""width: 234px; height: 230px; margin-top: -50px;""><div style=""display: flex; justify-content: space-between; margin-top: 33px;""><img src=""images/demo_images/choice_trial_1.png"" style=""width: 408px; height: 417px; margin-left:608px;""></div></div>",,delaylearn,learning,display_response,R9m8VsBPDeU45hyCY4fehgRWCEu1,R9m8VsBPDeU45hyCY4fehgRWCEu1,,,,,,,,,,,,,,,,,chosen stimuli: images/demo_images/choice_trial_1.png,,,,,65e6238e5774c7e869f5defd,16:52:06,27/03/2024
html-keyboard-response,26,48110,0.0-11.0-2.0,,,,delaylearn,learning,feedback_duration_window,R9m8VsBPDeU45hyCY4fehgRWCEu1,R9m8VsBPDeU45hyCY4fehgRWCEu1,,,,,,,,,,,,,,,,,,3000.0,,,,65e6238e5774c7e869f5defd,16:52:06,27/03/2024
html-keyboard-response,27,49612,0.0-11.0-3.0,,<div style='margin:auto;width: auto; font-size: 150%'><span style='font-weight: bold; font-size: 100px; color: green;'>+10 points!</span><br><br></div>,,delaylearn,learning,feedback_image_window,R9m8VsBPDeU45hyCY4fehgRWCEu1,R9m8VsBPDeU45hyCY4fehgRWCEu1,,,,,,,,,,,,,,,,,,,,,,65e6238e5774c7e869f5defd,16:52:06,27/03/2024
html-keyboard-response,28,52111,0.0-12.0,,"<div style=""font-size:100px;"">+</div>",,delaylearn,learning,ITI,R9m8VsBPDeU45hyCY4fehgRWCEu1,R9m8VsBPDeU45hyCY4fehgRWCEu1,,,,,,,,,,,,,,,,,,,2486.0,,,65e6238e5774c7e869f5defd,16:52:06,27/03/2024
html-keyboard-response,29,52657,0.0-13.0-0.0,544.8000000119209,"<div style=""display: flex; flex-direction: column; align-items: center; margin-top: -40px;""><img src=""images/demo_images/pattern_1.png"" style=""width: 234px; height: 230px; margin-top: -50px;""><div style=""display: flex; justify-content: space-between; margin-top: 33px;""><img src=""images/demo_images/choice_trial_1.png"" style=""width: 408px; height: 417px; margin-right: 200px;""><img src=""images/demo_images/choice_trial_2.png"" style=""width: 408px; height: 417px;""></div></div>",j,delaylearn,learning,trial,R9m8VsBPDeU45hyCY4fehgRWCEu1,R9m8VsBPDeU45hyCY4fehgRWCEu1,1.0,images/demo_images/choice_trial_1.png,images/demo_images/choice_trial_2.png,images/demo_images/pattern_1.png,f,f,3000.0,1.0,2.0,20.0,0.0,6.0,0.0,0.0,2.0,30.0,,,,,,65e6238e5774c7e869f5defd,16:52:06,27/03/2024
html-keyboard-response,30,53662,0.0-13.0-1.0,,"<div style=""display: flex; flex-direction: column; align-items: center; margin-top: -40px;""><img src=""images/demo_images/pattern_1.png"" style=""width: 234px; height: 230px; margin-top: -50px;""><div style=""display: flex; justify-content: space-between; margin-top: 33px;""><img src=""images/demo_images/choice_trial_2.png"" style=""width: 408px; height: 417px; margin-left:608px;""></div></div>",,delaylearn,learning,display_response,R9m8VsBPDeU45hyCY4fehgRWCEu1,R9m8VsBPDeU45hyCY4fehgRWCEu1,,,,,,,,,,,,,,,,,chosen stimuli: images/demo_images/choice_trial_2.png,,,,,65e6238e5774c7e869f5defd,16:52:06,27/03/2024
html-keyboard-response,31,56678,0.0-13.0-2.0,,,,delaylearn,learning,feedback_duration_window,R9m8VsBPDeU45hyCY4fehgRWCEu1,R9m8VsBPDeU45hyCY4fehgRWCEu1,,,,,,,,,,,,,,,,,,3000.0,,,,65e6238e5774c7e869f5defd,16:52:06,27/03/2024
html-keyboard-response,32,58179,0.0-13.0-3.0,,<div style='margin:auto;width: auto; font-size: 150%'><span style='font-weight: bold; font-size: 100px; color: red;'>0 points!</span><br><br></div>,,delaylearn,learning,feedback_image_window,R9m8VsBPDeU45hyCY4fehgRWCEu1,R9m8VsBPDeU45hyCY4fehgRWCEu1,,,,,,,,,,,,,,,,,,,,,,65e6238e5774c7e869f5defd,16:52:06,27/03/2024
html-keyboard-response,33,59975,0.0-14.0,,"<div style=""font-size:100px;"">+</div>",,delaylearn,learning,ITI,R9m8VsBPDeU45hyCY4fehgRWCEu1,R9m8VsBPDeU45hyCY4fehgRWCEu1,,,,,,,,,,,,,,,,,,,1784.0,,,65e6238e5774c7e869f5defd,16:52:06,27/03/2024
html-keyboard-response,34,60339,0.0-15.0-0.0,362.0999999642372,"<div style=""display: flex; flex-direction: column; align-items: center; margin-top: -40px;""><img src=""images/demo_images/pattern_1.png"" style=""width: 234px; height: 230px; margin-top: -50px;""><div style=""display: flex; justify-content: space-between; margin-top: 33px;""><img src=""images/demo_images/choice_trial_2.png"" style=""width: 408px; height: 417px; margin-right: 200px;""><img src=""images/demo_images/choice_trial_1.png"" style=""width: 408px; height: 417px;""></div></div>",f,delaylearn,learning,trial,R9m8VsBPDeU45hyCY4fehgRWCEu1,R9m8VsBPDeU45hyCY4fehgRWCEu1,1.0,images/demo_images/choice_trial_2.png,images/demo_images/choice_trial_1.png,images/demo_images/pattern_1.png,j,j,3000.0,2.0,1.0,20.0,1.0,7.0,0.0,0.0,2.0,30.0,,,,,,65e6238e5774c7e869f5defd,16:52:06,27/03/2024
html-keyboard-response,35,61347,0.0-15.0-1.0,,"<div style=""display: flex; flex-direction: column; align-items: center; margin-top: -40px;""><img src=""images/demo_images/pattern_1.png"" style=""width: 234px; height: 230px; margin-top: -50px;""><div style=""display: flex; justify-content: space-between; margin-top: 33px;""><img src=""images/demo_images/choice_trial_2.png"" style=""width: 408px; height: 417px; margin-right: 608px;""></div></div>",,delaylearn,learning,display_response,R9m8VsBPDeU45hyCY4fehgRWCEu1,R9m8VsBPDeU45hyCY4fehgRWCEu1,,,,,,,,,,,,,,,,,chosen stimuli: images/demo_images/choice_trial_2.png,,,,,65e6238e5774c7e869f5defd,16:52:06,27/03/2024
html-keyboard-response,36,64362,0.0-15.0-2.0,,,,delaylearn,learning,feedback_duration_window,R9m8VsBPDeU45hyCY4fehgRWCEu1,R9m8VsBPDeU45hyCY4fehgRWCEu1,,,,,,,,,,,,,,,,,,3000.0,,,,65e6238e5774c7e869f5defd,16:52:06,27/03/2024
html-keyboard-response,37,65878,0.0-15.0-3.0,,<div style='margin:auto;width: auto; font-size: 150%'><span style='font-weight: bold; font-size: 100px; color: red;'>0 points!</span><br><br></div>,,delaylearn,learning,feedback_image_window,R9m8VsBPDeU45hyCY4fehgRWCEu1,R9m8VsBPDeU45hyCY4fehgRWCEu1,,,,,,,,,,,,,,,,,,,,,,65e6238e5774c7e869f5defd,16:52:06,27/03/2024
html-keyboard-response,38,67926,0.0-16.0,,"<div style=""font-size:100px;"">+</div>",,delaylearn,learning,ITI,R9m8VsBPDeU45hyCY4fehgRWCEu1,R9m8VsBPDeU45hyCY4fehgRWCEu1,,,,,,,,,,,,,,,,,,,2037.0,,,65e6238e5774c7e869f5defd,16:52:06,27/03/2024
html-keyboard-response,39,68374,0.0-17.0-0.0,445.30000001192093,"<div style=""display: flex; flex-direction: column; align-items: center; margin-top: -40px;""><img src=""images/demo_images/pattern_1.png"" style=""width: 234px; height: 230px; margin-top: -50px;""><div style=""display: flex; justify-content: space-between; margin-top: 33px;""><img src=""images/demo_images/choice_trial_1.png"" style=""width: 408px; height: 417px; margin-right: 200px;""><img src=""images/demo_images/choice_trial_2.png"" style=""width: 408px; height: 417px;""></div></div>",f,delaylearn,learning,trial,R9m8VsBPDeU45hyCY4fehgRWCEu1,R9m8VsBPDeU45hyCY4fehgRWCEu1,1.0,images/demo_images/choice_trial_1.png,images/demo_images/choice_trial_2.png,images/demo_images/pattern_1.png,f,f,3000.0,1.0,2.0,20.0,0.0,8.0,1.0,1.0,1.0,40.0,,,,,,65e6238e5774c7e869f5defd,16:52:06,27/03/2024
html-keyboard-response,40,69380,0.0-17.0-1.0,,"<div style=""display: flex; flex-direction: column; align-items: center; margin-top: -40px;""><img src=""images/demo_images/pattern_1.png"" style=""width: 234px; height: 230px; margin-top: -50px;""><div style=""display: flex; justify-content: space-between; margin-top: 33px;""><img src=""images/demo_images/choice_trial_1.png"" style=""width: 408px; height: 417px; margin-right: 608px;""></div></div>",,delaylearn,learning,display_response,R9m8VsBPDeU45hyCY4fehgRWCEu1,R9m8VsBPDeU45hyCY4fehgRWCEu1,,,,,,,,,,,,,,,,,chosen stimuli: images/demo_images/choice_trial_1.png,,,,,65e6238e5774c7e869f5defd,16:52:06,27/03/2024
html-keyboard-response,41,72381,0.0-17.0-2.0,,,,delaylearn,learning,feedback_duration_window,R9m8VsBPDeU45hyCY4fehgRWCEu1,R9m8VsBPDeU45hyCY4fehgRWCEu1,,,,,,,,,,,,,,,,,,3000.0,,,,65e6238e5774c7e869f5defd,16:52:06,27/03/2024
html-keyboard-response,42,73895,0.0-17.0-3.0,,<div style='margin:auto;width: auto; font-size: 150%'><span style='font-weight: bold; font-size: 100px; color: green;'>+10 points!</span><br><br></div>,,delaylearn,learning,feedback_image_window,R9m8VsBPDeU45hyCY4fehgRWCEu1,R9m8VsBPDeU45hyCY4fehgRWCEu1,,,,,,,,,,,,,,,,,,,,,,65e6238e5774c7e869f5defd,16:52:06,27/03/2024
html-button-response,43,76327,0.0-18.0,2429.399999976158,"
  <div style=""display: flex; align-items: center; justify-content: center; height: 80vh;"">
  <div>
          <img src=""images/inst_demo_finish.png"" style=""width: 80vw; height:auto;"">
          <br><br>
      </div>
      <br><br>
  </div>",0,,,,R9m8VsBPDeU45hyCY4fehgRWCEu1,,,,,,,,,,,,,,,,,,,,,,,65e6238e5774c7e869f5defd,16:52:06,27/03/2024
html-keyboard-response,44,79245,0.0-19.0,2916.800000011921,"
  <div style=""display: flex; align-items: center; justify-content: center; height: 80vh;"">
  <div>
          <img src=""images/inst_6.png"" style=""width: 80vw; height:auto;"">
          <br><br>
      </div>
      <br><br>
  </div>",j,,,,R9m8VsBPDeU45hyCY4fehgRWCEu1,,,,,,,,,,,,,,,,,,,,,,,65e6238e5774c7e869f5defd,16:52:06,27/03/2024
html-keyboard-response,45,82258,0.0-20.0,,"<div style=""font-size:100px;"">+</div>",,delaylearn,learning,pre_fixation,R9m8VsBPDeU45hyCY4fehgRWCEu1,,,,,,,,,,,,,,,,,,,,,,,65e6238e5774c7e869f5defd,16:52:06,27/03/2024
html-keyboard-response,46,83952,0.0-21.0,,"<div style=""font-size:100px;"">+</div>",,delaylearn,learning,ITI,R9m8VsBPDeU45hyCY4fehgRWCEu1,R9m8VsBPDeU45hyCY4fehgRWCEu1,,,,,,,,,,,,,,,,,,,1692.0,,,65e6238e5774c7e869f5defd,16:52:06,27/03/2024
html-keyboard-response,47,85315,0.0-22.0-0.0,1361.1000000238419,"<div style=""display: flex; flex-direction: column; align-items: center; margin-top: -40px;""><img src=""images/pattern_3.png"" style=""width: 234px; height: 230px; margin-top: -50px;""><div style=""display: flex; justify-content: space-between; margin-top: 33px;""><img src=""images/choice_trial_5.png"" style=""width: 408px; height: 417px; margin-right: 200px;""><img src=""images/choice_trial_6.png"" style=""width: 408px; height: 417px;""></div></div>",f,delaylearn,learning,trial,R9m8VsBPDeU45hyCY4fehgRWCEu1,R9m8VsBPDeU45hyCY4fehgRWCEu1,1.0,images/choice_trial_5.png,images/choice_trial_6.png,images/pattern_3.png,f,f,7000.0,5.0,6.0,2.0,0.0,9.0,1.0,1.0,5.0,50.0,,,,,,65e6238e5774c7e869f5defd,16:52:06,27/03/2024
html-keyboard-response,48,86330,0.0-22.0-1.0,,"<div style=""display: flex; flex-direction: column; align-items: center; margin-top: -40px;""><img src=""images/pattern_3.png"" style=""width: 234px; height: 230px; margin-top: -50px;""><div style=""display: flex; justify-content: space-between; margin-top: 33px;""><img src=""images/choice_trial_5.png"" style=""width: 408px; height: 417px; margin-right: 608px;""></div></div>",,delaylearn,learning,display_response,R9m8VsBPDeU45hyCY4fehgRWCEu1,R9m8VsBPDeU45hyCY4fehgRWCEu1,,,,,,,,,,,,,,,,,chosen stimuli: images/choice_trial_5.png,,,,,65e6238e5774c7e869f5defd,16:52:06,27/03/2024
html-keyboard-response,49,93333,0.0-22.0-2.0,,,,delaylearn,learning,feedback_duration_window,R9m8VsBPDeU45hyCY4fehgRWCEu1,R9m8VsBPDeU45hyCY4fehgRWCEu1,,,,,,,,,,,,,,,,,,7000.0,,,,65e6238e5774c7e869f5defd,16:52:06,27/03/2024
html-keyboard-response,50,94848,0.0-22.0-3.0,,<div style='margin:auto;width: auto; font-size: 150%'><span style='font-weight: bold; font-size: 100px; color: green;'>+10 points!</span><br><br></div>,,delaylearn,learning,feedback_image_window,R9m8VsBPDeU45hyCY4fehgRWCEu1,R9m8VsBPDeU45hyCY4fehgRWCEu1,,,,,,,,,,,,,,,,,,,,,,65e6238e5774c7e869f5defd,16:52:06,27/03/2024
html-keyboard-response,51,96849,0.0-23.0,,"<div style=""font-size:100px;"">+</div>",,delaylearn,learning,ITI,R9m8VsBPDeU45hyCY4fehgRWCEu1,R9m8VsBPDeU45hyCY4fehgRWCEu1,,,,,,,,,,,,,,,,,,,1988.0,,,65e6238e5774c7e869f5defd,16:52:06,27/03/2024
html-keyboard-response,52,98568,0.0-24.0-0.0,1717.9000000357628,"<div style=""display: flex; flex-direction: column; align-items: center; margin-top: -40px;""><img src=""images/pattern_7.png"" style=""width: 234px; height: 230px; margin-top: -50px;""><div style=""display: flex; justify-content: space-between; margin-top: 33px;""><img src=""images/choice_trial_14.png"" style=""width: 408px; height: 417px; margin-right: 200px;""><img src=""images/choice_trial_13.png"" style=""width: 408px; height: 417px;""></div></div>",f,delaylearn,learning,trial,R9m8VsBPDeU45hyCY4fehgRWCEu1,R9m8VsBPDeU45hyCY4fehgRWCEu1,1.0,images/choice_trial_14.png,images/choice_trial_13.png,images/pattern_7.png,j,j,750.0,14.0,13.0,6.0,1.0,10.0,0.0,0.0,14.0,50.0,,,,,,65e6238e5774c7e869f5defd,16:52:06,27/03/2024
html-keyboard-response,53,99582,0.0-24.0-1.0,,"<div style=""display: flex; flex-direction: column; align-items: center; margin-top: -40px;""><img src=""images/pattern_7.png"" style=""width: 234px; height: 230px; margin-top: -50px;""><div style=""display: flex; justify-content: space-between; margin-top: 33px;""><img src=""images/choice_trial_14.png"" style=""width: 408px; height: 417px; margin-right: 608px;""></div></div>",,delaylearn,learning,display_response,R9m8VsBPDeU45hyCY4fehgRWCEu1,R9m8VsBPDeU45hyCY4fehgRWCEu1,,,,,,,,,,,,,,,,,chosen stimuli: images/choice_trial_14.png,,,,,65e6238e5774c7e869f5defd,16:52:06,27/03/2024
html-keyboard-response,54,100348,0.0-24.0-2.0,,,,delaylearn,learning,feedback_duration_window,R9m8VsBPDeU45hyCY4fehgRWCEu1,R9m8VsBPDeU45hyCY4fehgRWCEu1,,,,,,,,,,,,,,,,,,750.0,,,,65e6238e5774c7e869f5defd,16:52:06,27/03/2024
html-keyboard-response,55,101850,0.0-24.0-3.0,,<div style='margin:auto;width: auto; font-size: 150%'><span style='font-weight: bold; font-size: 100px; color: red;'>0 points!</span><br><br></div>,,delaylearn,learning,feedback_image_window,R9m8VsBPDeU45hyCY4fehgRWCEu1,R9m8VsBPDeU45hyCY4fehgRWCEu1,,,,,,,,,,,,,,,,,,,,,,65e6238e5774c7e869f5defd,16:52:06,27/03/2024
html-keyboard-response,56,103412,0.0-25.0,,"<div style=""font-size:100px;"">+</div>",,delaylearn,learning,ITI,R9m8VsBPDeU45hyCY4fehgRWCEu1,R9m8VsBPDeU45hyCY4fehgRWCEu1,,,,,,,,,,,,,,,,,,,1552.0,,,65e6238e5774c7e869f5defd,16:52:06,27/03/2024
html-keyboard-response,57,104389,0.0-26.0-0.0,975.3000000119209,"<div style=""display: flex; flex-direction: column; align-items: center; margin-top: -40px;""><img src=""images/pattern_4.png"" style=""width: 234px; height: 230px; margin-top: -50px;""><div style=""display: flex; justify-content: space-between; margin-top: 33px;""><img src=""images/choice_trial_7.png"" style=""width: 408px; height: 417px; margin-right: 200px;""><img src=""images/choice_trial_8.png"" style=""width: 408px; height: 417px;""></div></div>",f,delaylearn,learning,trial,R9m8VsBPDeU45hyCY4fehgRWCEu1,R9m8VsBPDeU45hyCY4fehgRWCEu1,1.0,images/choice_trial_7.png,images/choice_trial_8.png,images/pattern_4.png,f,f,7000.0,7.0,8.0,3.0,0.0,11.0,1.0,1.0,7.0,60.0,,,,,,65e6238e5774c7e869f5defd,16:52:06,27/03/2024
html-keyboard-response,58,105397,0.0-26.0-1.0,,"<div style=""display: flex; flex-direction: column; align-items: center; margin-top: -40px;""><img src=""images/pattern_4.png"" style=""width: 234px; height: 230px; margin-top: -50px;""><div style=""display: flex; justify-content: space-between; margin-top: 33px;""><img src=""images/choice_trial_7.png"" style=""width: 408px; height: 417px; margin-right: 608px;""></div></div>",,delaylearn,learning,display_response,R9m8VsBPDeU45hyCY4fehgRWCEu1,R9m8VsBPDeU45hyCY4fehgRWCEu1,,,,,,,,,,,,,,,,,chosen stimuli: images/choice_trial_7.png,,,,,65e6238e5774c7e869f5defd,16:52:06,27/03/2024
html-keyboard-response,59,112401,0.0-26.0-2.0,,,,delaylearn,learning,feedback_duration_window,R9m8VsBPDeU45hyCY4fehgRWCEu1,R9m8VsBPDeU45hyCY4fehgRWCEu1,,,,,,,,,,,,,,,,,,7000.0,,,,65e6238e5774c7e869f5defd,16:52:06,27/03/2024
html-keyboard-response,60,113914,0.0-26.0-3.0,,<div style='margin:auto;width: auto; font-size: 150%'><span style='font-weight: bold; font-size: 100px; color: green;'>+10 points!</span><br><br></div>,,delaylearn,learning,feedback_image_window,R9m8VsBPDeU45hyCY4fehgRWCEu1,R9m8VsBPDeU45hyCY4fehgRWCEu1,,,,,,,,,,,,,,,,,,,,,,65e6238e5774c7e869f5defd,16:52:06,27/03/2024
html-keyboard-response,61,115979,0.0-27.0,,"<div style=""font-size:100px;"">+</div>",,delaylearn,learning,ITI,R9m8VsBPDeU45hyCY4fehgRWCEu1,R9m8VsBPDeU45hyCY4fehgRWCEu1,,,,,,,,,,,,,,,,,,,2060.0,,,65e6238e5774c7e869f5defd,16:52:06,27/03/2024
html-keyboard-response,62,117021,0.0-28.0-0.0,1039.5999999642372,"<div style=""display: flex; flex-direction: column; align-items: center; margin-top: -40px;""><img src=""images/pattern_5.png"" style=""width: 234px; height: 230px; margin-top: -50px;""><div style=""display: flex; justify-content: space-between; margin-top: 33px;""><img src=""images/choice_trial_10.png"" style=""width: 408px; height: 417px; margin-right: 200px;""><img src=""images/choice_trial_9.png"" style=""width: 408px; height: 417px;""></div></div>",j,delaylearn,learning,trial,R9m8VsBPDeU45hyCY4fehgRWCEu1,R9m8VsBPDeU45hyCY4fehgRWCEu1,1.0,images/choice_trial_10.png,images/choice_trial_9.png,images/pattern_5.png,j,j,750.0,10.0,9.0,4.0,1.0,12.0,1.0,1.0,9.0,70.0,,,,,,65e6238e5774c7e869f5defd,16:52:06,27/03/2024
html-keyboard-response,63,118031,0.0-28.0-1.0,,"<div style=""display: flex; flex-direction: column; align-items: center; margin-top: -40px;""><img src=""images/pattern_5.png"" style=""width: 234px; height: 230px; margin-top: -50px;""><div style=""display: flex; justify-content: space-between; margin-top: 33px;""><img src=""images/choice_trial_9.png"" style=""width: 408px; height: 417px; margin-left:608px;""></div></div>",,delaylearn,learning,display_response,R9m8VsBPDeU45hyCY4fehgRWCEu1,R9m8VsBPDeU45hyCY4fehgRWCEu1,,,,,,,,,,,,,,,,,chosen stimuli: images/choice_trial_9.png,,,,,65e6238e5774c7e869f5defd,16:52:06,27/03/2024
html-keyboard-response,64,118784,0.0-28.0-2.0,,,,delaylearn,learning,feedback_duration_window,R9m8VsBPDeU45hyCY4fehgRWCEu1,R9m8VsBPDeU45hyCY4fehgRWCEu1,,,,,,,,,,,,,,,,,,750.0,,,,65e6238e5774c7e869f5defd,16:52:06,27/03/2024
html-keyboard-response,65,120299,0.0-28.0-3.0,,<div style='margin:auto;width: auto; font-size: 150%'><span style='font-weight: bold; font-size: 100px; color: green;'>+10 points!</span><br><br></div>,,delaylearn,learning,feedback_image_window,R9m8VsBPDeU45hyCY4fehgRWCEu1,R9m8VsBPDeU45hyCY4fehgRWCEu1,,,,,,,,,,,,,,,,,,,,,,65e6238e5774c7e869f5defd,16:52:06,27/03/2024
html-keyboard-response,66,122191,0.0-29.0,,"<div style=""font-size:100px;"">+</div>",,delaylearn,learning,ITI,R9m8VsBPDeU45hyCY4fehgRWCEu1,R9m8VsBPDeU45hyCY4fehgRWCEu1,,,,,,,,,,,,,,,,,,,1886.0,,,65e6238e5774c7e869f5defd,16:52:06,27/03/2024
html-keyboard-response,67,123639,0.0-30.0-0.0,1446.1000000238419,"<div style=""display: flex; flex-direction: column; align-items: center; margin-top: -40px;""><img src=""images/pattern_6.png"" style=""width: 234px; height: 230px; margin-top: -50px;""><div style=""display: flex; justify-content: space-between; margin-top: 33px;""><img src=""images/choice_trial_11.png"" style=""width: 408px; height: 417px; margin-right: 200px;""><img src=""images/choice_trial_12.png"" style=""width: 408px; height: 417px;""></div></div>",j,delaylearn,learning,trial,R9m8VsBPDeU45hyCY4fehgRWCEu1,R9m8VsBPDeU45hyCY4fehgRWCEu1,1.0,images/choice_trial_11.png,images/choice_trial_12.png,images/pattern_6.png,j,f,750.0,11.0,12.0,5.0,0.0,13.0,0.0,1.0,12.0,80.0,,,,,,65e6238e5774c7e869f5defd,16:52:06,27/03/2024
html-keyboard-response,68,124649,0.0-30.0-1.0,,"<div style=""display: flex; flex-direction: column; align-items: center; margin-top: -40px;""><img src=""images/pattern_6.png"" style=""width: 234px; height: 230px; margin-top: -50px;""><div style=""display: flex; justify-content: space-between; margin-top: 33px;""><img src=""images/choice_trial_12.png"" style=""width: 408px; height: 417px; margin-left:608px;""></div></div>",,delaylearn,learning,display_response,R9m8VsBPDeU45hyCY4fehgRWCEu1,R9m8VsBPDeU45hyCY4fehgRWCEu1,,,,,,,,,,,,,,,,,chosen stimuli: images/choice_trial_12.png,,,,,65e6238e5774c7e869f5defd,16:52:06,27/03/2024
html-keyboard-response,69,125400,0.0-30.0-2.0,,,,delaylearn,learning,feedback_duration_window,R9m8VsBPDeU45hyCY4fehgRWCEu1,R9m8VsBPDeU45hyCY4fehgRWCEu1,,,,,,,,,,,,,,,,,,750.0,,,,65e6238e5774c7e869f5defd,16:52:06,27/03/2024
html-keyboard-response,70,126916,0.0-30.0-3.0,,<div style='margin:auto;width: auto; font-size: 150%'><span style='font-weight: bold; font-size: 100px; color: green;'>+10 points!</span><br><br></div>,,delaylearn,learning,feedback_image_window,R9m8VsBPDeU45hyCY4fehgRWCEu1,R9m8VsBPDeU45hyCY4fehgRWCEu1,,,,,,,,,,,,,,,,,,,,,,65e6238e5774c7e869f5defd,16:52:06,27/03/2024
html-keyboard-response,71,127417,0.0-31.0-0.0,,,,,,mood_trial_fixation,R9m8VsBPDeU45hyCY4fehgRWCEu1,,,,,,,,,,,,,,,,,,,,,,,65e6238e5774c7e869f5defd,16:52:06,27/03/2024
lmdlab-html-vas-response,72,130814,0.0-31.0-1.0,2374.0,How happy are you right now?,0.9996382513334368,delaylearn,learning,mood_trial,R9m8VsBPDeU45hyCY4fehgRWCEu1,R9m8VsBPDeU45hyCY4fehgRWCEu1,,,,,,,,,,,,,,,,,,,,"['Very unhappy', 'Very happy']",,65e6238e5774c7e869f5defd,16:52:06,27/03/2024
html-keyboard-response,73,132742,0.0-32.0,,"<div style=""font-size:100px;"">+</div>",,delaylearn,learning,ITI,R9m8VsBPDeU45hyCY4fehgRWCEu1,R9m8VsBPDeU45hyCY4fehgRWCEu1,,,,,,,,,,,,,,,,,,,1924.0,,,65e6238e5774c7e869f5defd,16:52:06,27/03/2024
html-keyboard-response,74,133762,0.0-33.0-0.0,1017.5,"<div style=""display: flex; flex-direction: column; align-items: center; margin-top: -40px;""><img src=""images/pattern_1.png"" style=""width: 234px; height: 230px; margin-top: -50px;""><div style=""display: flex; justify-content: space-between; margin-top: 33px;""><img src=""images/choice_trial_2.png"" style=""width: 408px; height: 417px; margin-right: 200px;""><img src=""images/choice_trial_1.png"" style=""width: 408px; height: 417px;""></div></div>",f,delaylearn,learning,trial,R9m8VsBPDeU45hyCY4fehgRWCEu1,R9m8VsBPDeU45hyCY4fehgRWCEu1,1.0,images/choice_trial_2.png,images/choice_trial_1.png,images/pattern_1.png,j,j,7000.0,2.0,1.0,1.0,1.0,14.0,0.0,0.0,2.0,80.0,,,,,,65e6238e5774c7e869f5defd,16:52:06,27/03/2024
html-keyboard-response,75,134768,0.0-33.0-1.0,,"<div style=""display: flex; flex-direction: column; align-items: center; margin-top: -40px;""><img src=""images/pattern_1.png"" style=""width: 234px; height: 230px; margin-top: -50px;""><div style=""display: flex; justify-content: space-between; margin-top: 33px;""><img src=""images/choice_trial_2.png"" style=""width: 408px; height: 417px; margin-right: 608px;""></div></div>",,delaylearn,learning,display_response,R9m8VsBPDeU45hyCY4fehgRWCEu1,R9m8VsBPDeU45hyCY4fehgRWCEu1,,,,,,,,,,,,,,,,,chosen stimuli: images/choice_trial_2.png,,,,,65e6238e5774c7e869f5defd,16:52:06,27/03/2024
html-keyboard-response,76,141784,0.0-33.0-2.0,,,,delaylearn,learning,feedback_duration_window,R9m8VsBPDeU45hyCY4fehgRWCEu1,R9m8VsBPDeU45hyCY4fehgRWCEu1,,,,,,,,,,,,,,,,,,7000.0,,,,65e6238e5774c7e869f5defd,16:52:06,27/03/2024
html-keyboard-response,77,143285,0.0-33.0-3.0,,<div style='margin:auto;width: auto; font-size: 150%'><span style='font-weight: bold; font-size: 100px; color: red;'>0 points!</span><br><br></div>,,delaylearn,learning,feedback_image_window,R9m8VsBPDeU45hyCY4fehgRWCEu1,R9m8VsBPDeU45hyCY4fehgRWCEu1,,,,,,,,,,,,,,,,,,,,,,65e6238e5774c7e869f5defd,16:52:06,27/03/2024
html-keyboard-response,78,145330,0.0-34.0,,"<div style=""font-size:100px;"">+</div>",,delaylearn,learning,ITI,R9m8VsBPDeU45hyCY4fehgRWCEu1,R9m8VsBPDeU45hyCY4fehgRWCEu1,,,,,,,,,,,,,,,,,,,2043.0,,,65e6238e5774c7e869f5defd,16:52:06,27/03/2024
html-keyboard-response,79,146965,0.0-35.0-0.0,1632.199999988079,"<div style=""display: flex; flex-direction: column; align-items: center; margin-top: -40px;""><img src=""images/pattern_3.png"" style=""width: 234px; height: 230px; margin-top: -50px;""><div style=""display: flex; justify-content: space-between; margin-top: 33px;""><img src=""images/choice_trial_6.png"" style=""width: 408px; height: 417px; margin-right: 200px;""><img src=""images/choice_trial_5.png"" style=""width: 408px; height: 417px;""></div></div>",j,delaylearn,learning,trial,R9m8VsBPDeU45hyCY4fehgRWCEu1,R9m8VsBPDeU45hyCY4fehgRWCEu1,1.0,images/choice_trial_6.png,images/choice_trial_5.png,images/pattern_3.png,f,j,7000.0,6.0,5.0,2.0,1.0,15.0,1.0,0.0,5.0,80.0,,,,,,65e6238e5774c7e869f5defd,16:52:06,27/03/2024
html-keyboard-response,80,147968,0.0-35.0-1.0,,"<div style=""display: flex; flex-direction: column; align-items: center; margin-top: -40px;""><img src=""images/pattern_3.png"" style=""width: 234px; height: 230px; margin-top: -50px;""><div style=""display: flex; justify-content: space-between; margin-top: 33px;""><img src=""images/choice_trial_5.png"" style=""width: 408px; height: 417px; margin-left:608px;""></div></div>",,delaylearn,learning,display_response,R9m8VsBPDeU45hyCY4fehgRWCEu1,R9m8VsBPDeU45hyCY4fehgRWCEu1,,,,,,,,,,,,,,,,,chosen stimuli: images/choice_trial_5.png,,,,,65e6238e5774c7e869f5defd,16:52:06,27/03/2024
html-keyboard-response,81,154969,0.0-35.0-2.0,,,,delaylearn,learning,feedback_duration_window,R9m8VsBPDeU45hyCY4fehgRWCEu1,R9m8VsBPDeU45hyCY4fehgRWCEu1,,,,,,,,,,,,,,,,,,7000.0,,,,65e6238e5774c7e869f5defd,16:52:06,27/03/2024
html-keyboard-response,82,156484,0.0-35.0-3.0,,<div style='margin:auto;width: auto; font-size: 150%'><span style='font-weight: bold; font-size: 100px; color: red;'>0 points!</span><br><br></div>,,delaylearn,learning,feedback_image_window,R9m8VsBPDeU45hyCY4fehgRWCEu1,R9m8VsBPDeU45hyCY4fehgRWCEu1,,,,,,,,,,,,,,,,,,,,,,65e6238e5774c7e869f5defd,16:52:06,27/03/2024
html-keyboard-response,83,158141,0.0-36.0,,"<div style=""font-size:100px;"">+</div>",,delaylearn,learning,ITI,R9m8VsBPDeU45hyCY4fehgRWCEu1,R9m8VsBPDeU45hyCY4fehgRWCEu1,,,,,,,,,,,,,,,,,,,1652.0,,,65e6238e5774c7e869f5defd,16:52:06,27/03/2024
html-keyboard-response,84,160039,0.0-37.0-0.0,1895.800000011921,"<div style=""display: flex; flex-direction: column; align-items: center; margin-top: -40px;""><img src=""images/pattern_5.png"" style=""width: 234px; height: 230px; margin-top: -50px;""><div style=""display: flex; justify-content: space-between; margin-top: 33px;""><img src=""images/choice_trial_9.png"" style=""width: 408px; height: 417px; margin-right: 200px;""><img src=""images/choice_trial_10.png"" style=""width: 408px; height: 417px;""></div></div>",j,delaylearn,learning,trial,R9m8VsBPDeU45hyCY4fehgRWCEu1,R9m8VsBPDeU45hyCY4fehgRWCEu1,1.0,images/choice_trial_9.png,images/choice_trial_10.png,images/pattern_5.png,f,f,750.0,9.0,10.0,4.0,0.0,16.0,0.0,0.0,10.0,80.0,,,,,,65e6238e5774c7e869f5defd,16:52:06,27/03/2024
html-keyboard-response,85,161050,0.0-37.0-1.0,,"<div style=""display: flex; flex-direction: column; align-items: center; margin-top: -40px;""><img src=""images/pattern_5.png"" style=""width: 234px; height: 230px; margin-top: -50px;""><div style=""display: flex; justify-content: space-between; margin-top: 33px;""><img src=""images/choice_trial_10.png"" style=""width: 408px; height: 417px; margin-left:608px;""></div></div>",,delaylearn,learning,display_response,R9m8VsBPDeU45hyCY4fehgRWCEu1,R9m8VsBPDeU45hyCY4fehgRWCEu1,,,,,,,,,,,,,,,,,chosen stimuli: images/choice_trial_10.png,,,,,65e6238e5774c7e869f5defd,16:52:06,27/03/2024
html-keyboard-response,86,161802,0.0-37.0-2.0,,,,delaylearn,learning,feedback_duration_window,R9m8VsBPDeU45hyCY4fehgRWCEu1,R9m8VsBPDeU45hyCY4fehgRWCEu1,,,,,,,,,,,,,,,,,,750.0,,,,65e6238e5774c7e869f5defd,16:52:06,27/03/2024
html-keyboard-response,87,163318,0.0-37.0-3.0,,<div style='margin:auto;width: auto; font-size: 150%'><span style='font-weight: bold; font-size: 100px; color: red;'>0 points!</span><br><br></div>,,delaylearn,learning,feedback_image_window,R9m8VsBPDeU45hyCY4fehgRWCEu1,R9m8VsBPDeU45hyCY4fehgRWCEu1,,,,,,,,,,,,,,,,,,,,,,65e6238e5774c7e869f5defd,16:52:06,27/03/2024
html-keyboard-response,88,163819,0.0-38.0-0.0,,,,,,mood_trial_fixation,R9m8VsBPDeU45hyCY4fehgRWCEu1,,,,,,,,,,,,,,,,,,,,,,,65e6238e5774c7e869f5defd,16:52:06,27/03/2024
lmdlab-html-vas-response,89,167254,0.0-38.0-1.0,2414.0,How happy are you right now?,0.4884500038029233,delaylearn,learning,mood_trial,R9m8VsBPDeU45hyCY4fehgRWCEu1,R9m8VsBPDeU45hyCY4fehgRWCEu1,,,,,,,,,,,,,,,,,,,,"['Very unhappy', 'Very happy']",,65e6238e5774c7e869f5defd,16:52:06,27/03/2024
html-keyboard-response,90,169729,0.0-39.0,,"<div style=""font-size:100px;"">+</div>",,delaylearn,learning,ITI,R9m8VsBPDeU45hyCY4fehgRWCEu1,R9m8VsBPDeU45hyCY4fehgRWCEu1,,,,,,,,,,,,,,,,,,,2471.0,,,65e6238e5774c7e869f5defd,16:52:06,27/03/2024
html-keyboard-response,91,170924,0.0-40.0-0.0,1193.9000000357628,"<div style=""display: flex; flex-direction: column; align-items: center; margin-top: -40px;""><img src=""images/pattern_6.png"" style=""width: 234px; height: 230px; margin-top: -50px;""><div style=""display: flex; justify-content: space-between; margin-top: 33px;""><img src=""images/choice_trial_11.png"" style=""width: 408px; height: 417px; margin-right: 200px;""><img src=""images/choice_trial_12.png"" style=""width: 408px; height: 417px;""></div></div>",j,delaylearn,learning,trial,R9m8VsBPDeU45hyCY4fehgRWCEu1,R9m8VsBPDeU45hyCY4fehgRWCEu1,1.0,images/choice_trial_11.png,images/choice_trial_12.png,images/pattern_6.png,f,f,750.0,11.0,12.0,5.0,0.0,17.0,0.0,0.0,12.0,80.0,,,,,,65e6238e5774c7e869f5defd,16:52:06,27/03/2024
html-keyboard-response,92,171934,0.0-40.0-1.0,,"<div style=""display: flex; flex-direction: column; align-items: center; margin-top: -40px;""><img src=""images/pattern_6.png"" style=""width: 234px; height: 230px; margin-top: -50px;""><div style=""display: flex; justify-content: space-between; margin-top: 33px;""><img src=""images/choice_trial_12.png"" style=""width: 408px; height: 417px; margin-left:608px;""></div></div>",,delaylearn,learning,display_response,R9m8VsBPDeU45hyCY4fehgRWCEu1,R9m8VsBPDeU45hyCY4fehgRWCEu1,,,,,,,,,,,,,,,,,chosen stimuli: images/choice_trial_12.png,,,,,65e6238e5774c7e869f5defd,16:52:06,27/03/2024
html-keyboard-response,93,172688,0.0-40.0-2.0,,,,delaylearn,learning,feedback_duration_window,R9m8VsBPDeU45hyCY4fehgRWCEu1,R9m8VsBPDeU45hyCY4fehgRWCEu1,,,,,,,,,,,,,,,,,,750.0,,,,65e6238e5774c7e869f5defd,16:52:06,27/03/2024
html-keyboard-response,94,174203,0.0-40.0-3.0,,<div style='margin:auto;width: auto; font-size: 150%'><span style='font-weight: bold; font-size: 100px; color: red;'>0 points!</span><br><br></div>,,delaylearn,learning,feedback_image_window,R9m8VsBPDeU45hyCY4fehgRWCEu1,R9m8VsBPDeU45hyCY4fehgRWCEu1,,,,,,,,,,,,,,,,,,,,,,65e6238e5774c7e869f5defd,16:52:06,27/03/2024
html-keyboard-response,95,176266,0.0-41.0,,"<div style=""font-size:100px;"">+</div>",,delaylearn,learning,ITI,R9m8VsBPDeU45hyCY4fehgRWCEu1,R9m8VsBPDeU45hyCY4fehgRWCEu1,,,,,,,,,,,,,,,,,,,2062.0,,,65e6238e5774c7e869f5defd,16:52:06,27/03/2024
html-keyboard-response,96,177976,0.0-42.0-0.0,1708.4000000357628,"<div style=""display: flex; flex-direction: column; align-items: center; margin-top: -40px;""><img src=""images/pattern_4.png"" style=""width: 234px; height: 230px; margin-top: -50px;""><div style=""display: flex; justify-content: space-between; margin-top: 33px;""><img src=""images/choice_trial_8.png"" style=""width: 408px; height: 417px; margin-right: 200px;""><img src=""images/choice_trial_7.png"" style=""width: 408px; height: 417px;""></div></div>",j,delaylearn,learning,trial,R9m8VsBPDeU45hyCY4fehgRWCEu1,R9m8VsBPDeU45hyCY4fehgRWCEu1,1.0,images/choice_trial_8.png,images/choice_trial_7.png,images/pattern_4.png,j,j,7000.0,8.0,7.0,3.0,1.0,18.0,1.0,1.0,7.0,90.0,,,,,,65e6238e5774c7e869f5defd,16:52:06,27/03/2024
html-keyboard-response,97,178989,0.0-42.0-1.0,,"<div style=""display: flex; flex-direction: column; align-items: center; margin-top: -40px;""><img src=""images/pattern_4.png"" style=""width: 234px; height: 230px; margin-top: -50px;""><div style=""display: flex; justify-content: space-between; margin-top: 33px;""><img src=""images/choice_trial_7.png"" style=""width: 408px; height: 417px; margin-left:608px;""></div></div>",,delaylearn,learning,display_response,R9m8VsBPDeU45hyCY4fehgRWCEu1,R9m8VsBPDeU45hyCY4fehgRWCEu1,,,,,,,,,,,,,,,,,chosen stimuli: images/choice_trial_7.png,,,,,65e6238e5774c7e869f5defd,16:52:06,27/03/2024
html-keyboard-response,98,186002,0.0-42.0-2.0,,,,delaylearn,learning,feedback_duration_window,R9m8VsBPDeU45hyCY4fehgRWCEu1,R9m8VsBPDeU45hyCY4fehgRWCEu1,,,,,,,,,,,,,,,,,,7000.0,,,,65e6238e5774c7e869f5defd,16:52:06,27/03/2024
html-keyboard-response,99,187504,0.0-42.0-3.0,,<div style='margin:auto;width: auto; font-size: 150%'><span style='font-weight: bold; font-size: 100px; color: green;'>+10 points!</span><br><br></div>,,delaylearn,learning,feedback_image_window,R9m8VsBPDeU45hyCY4fehgRWCEu1,R9m8VsBPDeU45hyCY4fehgRWCEu1,,,,,,,,,,,,,,,,,,,,,,65e6238e5774c7e869f5defd,16:52:06,27/03/2024
html-keyboard-response,100,189191,0.0-43.0,,"<div style=""font-size:100px;"">+</div>",,delaylearn,learning,ITI,R9m8VsBPDeU45hyCY4fehgRWCEu1,R9m8VsBPDeU45hyCY4fehgRWCEu1,,,,,,,,,,,,,,,,,,,1675.0,,,65e6238e5774c7e869f5defd,16:52:06,27/03/2024
html-keyboard-response,101,190696,0.0-44.0-0.0,1503.0,"<div style=""display: flex; flex-direction: column; align-items: center; margin-top: -40px;""><img src=""images/pattern_7.png"" style=""width: 234px; height: 230px; margin-top: -50px;""><div style=""display: flex; justify-content: space-between; margin-top: 33px;""><img src=""images/choice_trial_13.png"" style=""width: 408px; height: 417px; margin-right: 200px;""><img src=""images/choice_trial_14.png"" style=""width: 408px; height: 417px;""></div></div>",f,delaylearn,learning,trial,R9m8VsBPDeU45hyCY4fehgRWCEu1,R9m8VsBPDeU45hyCY4fehgRWCEu1,1.0,images/choice_trial_13.png,images/choice_trial_14.png,images/pattern_7.png,j,f,750.0,13.0,14.0,6.0,0.0,19.0,1.0,0.0,13.0,90.0,,,,,,65e6238e5774c7e869f5defd,16:52:06,27/03/2024
html-keyboard-response,102,191704,0.0-44.0-1.0,,"<div style=""display: flex; flex-direction: column; align-items: center; margin-top: -40px;""><img src=""images/pattern_7.png"" style=""width: 234px; height: 230px; margin-top: -50px;""><div style=""display: flex; justify-content: space-between; margin-top: 33px;""><img src=""images/choice_trial_13.png"" style=""width: 408px; height: 417px; margin-right: 608px;""></div></div>",,delaylearn,learning,display_response,R9m8VsBPDeU45hyCY4fehgRWCEu1,R9m8VsBPDeU45hyCY4fehgRWCEu1,,,,,,,,,,,,,,,,,chosen stimuli: images/choice_trial_13.png,,,,,65e6238e5774c7e869f5defd,16:52:06,27/03/2024
html-keyboard-response,103,192470,0.0-44.0-2.0,,,,delaylearn,learning,feedback_duration_window,R9m8VsBPDeU45hyCY4fehgRWCEu1,R9m8VsBPDeU45hyCY4fehgRWCEu1,,,,,,,,,,,,,,,,,,750.0,,,,65e6238e5774c7e869f5defd,16:52:06,27/03/2024
html-keyboard-response,104,193987,0.0-44.0-3.0,,<div style='margin:auto;width: auto; font-size: 150%'><span style='font-weight: bold; font-size: 100px; color: red;'>0 points!</span><br><br></div>,,delaylearn,learning,feedback_image_window,R9m8VsBPDeU45hyCY4fehgRWCEu1,R9m8VsBPDeU45hyCY4fehgRWCEu1,,,,,,,,,,,,,,,,,,,,,,65e6238e5774c7e869f5defd,16:52:06,27/03/2024
html-keyboard-response,105,196301,0.0-45.0,,"<div style=""font-size:100px;"">+</div>",,delaylearn,learning,ITI,R9m8VsBPDeU45hyCY4fehgRWCEu1,R9m8VsBPDeU45hyCY4fehgRWCEu1,,,,,,,,,,,,,,,,,,,2307.0,,,65e6238e5774c7e869f5defd,16:52:06,27/03/2024
html-keyboard-response,106,197369,0.0-46.0-0.0,1065.800000011921,"<div style=""display: flex; flex-direction: column; align-items: center; margin-top: -40px;""><img src=""images/pattern_1.png"" style=""width: 234px; height: 230px; margin-top: -50px;""><div style=""display: flex; justify-content: space-between; margin-top: 33px;""><img src=""images/choice_trial_1.png"" style=""width: 408px; height: 417px; margin-right: 200px;""><img src=""images/choice_trial_2.png"" style=""width: 408px; height: 417px;""></div></div>",f,delaylearn,learning,trial,R9m8VsBPDeU45hyCY4fehgRWCEu1,R9m8VsBPDeU45hyCY4fehgRWCEu1,1.0,images/choice_trial_1.png,images/choice_trial_2.png,images/pattern_1.png,f,f,7000.0,1.0,2.0,1.0,0.0,20.0,1.0,1.0,1.0,100.0,,,,,,65e6238e5774c7e869f5defd,16:52:06,27/03/2024
html-keyboard-response,107,198372,0.0-46.0-1.0,,"<div style=""display: flex; flex-direction: column; align-items: center; margin-top: -40px;""><img src=""images/pattern_1.png"" style=""width: 234px; height: 230px; margin-top: -50px;""><div style=""display: flex; justify-content: space-between; margin-top: 33px;""><img src=""images/choice_trial_1.png"" style=""width: 408px; height: 417px; margin-right: 608px;""></div></div>",,delaylearn,learning,display_response,R9m8VsBPDeU45hyCY4fehgRWCEu1,R9m8VsBPDeU45hyCY4fehgRWCEu1,,,,,,,,,,,,,,,,,chosen stimuli: images/choice_trial_1.png,,,,,65e6238e5774c7e869f5defd,16:52:06,27/03/2024
html-keyboard-response,108,205373,0.0-46.0-2.0,,,,delaylearn,learning,feedback_duration_window,R9m8VsBPDeU45hyCY4fehgRWCEu1,R9m8VsBPDeU45hyCY4fehgRWCEu1,,,,,,,,,,,,,,,,,,7000.0,,,,65e6238e5774c7e869f5defd,16:52:06,27/03/2024
html-keyboard-response,109,206887,0.0-46.0-3.0,,<div style='margin:auto;width: auto; font-size: 150%'><span style='font-weight: bold; font-size: 100px; color: green;'>+10 points!</span><br><br></div>,,delaylearn,learning,feedback_image_window,R9m8VsBPDeU45hyCY4fehgRWCEu1,R9m8VsBPDeU45hyCY4fehgRWCEu1,,,,,,,,,,,,,,,,,,,,,,65e6238e5774c7e869f5defd,16:52:06,27/03/2024
html-keyboard-response,110,208482,0.0-47.0,,"<div style=""font-size:100px;"">+</div>",,delaylearn,learning,ITI,R9m8VsBPDeU45hyCY4fehgRWCEu1,R9m8VsBPDeU45hyCY4fehgRWCEu1,,,,,,,,,,,,,,,,,,,1578.0,,,65e6238e5774c7e869f5defd,16:52:06,27/03/2024
html-keyboard-response,111,209784,0.0-48.0-0.0,1300.199999988079,"<div style=""display: flex; flex-direction: column; align-items: center; margin-top: -40px;""><img src=""images/pattern_6.png"" style=""width: 234px; height: 230px; margin-top: -50px;""><div style=""display: flex; justify-content: space-between; margin-top: 33px;""><img src=""images/choice_trial_12.png"" style=""width: 408px; height: 417px; margin-right: 200px;""><img src=""images/choice_trial_11.png"" style=""width: 408px; height: 417px;""></div></div>",j,delaylearn,learning,trial,R9m8VsBPDeU45hyCY4fehgRWCEu1,R9m8VsBPDeU45hyCY4fehgRWCEu1,1.0,images/choice_trial_12.png,images/choice_trial_11.png,images/pattern_6.png,j,j,750.0,12.0,11.0,5.0,1.0,21.0,1.0,1.0,11.0,110.0,,,,,,65e6238e5774c7e869f5defd,16:52:06,27/03/2024
html-keyboard-response,112,210789,0.0-48.0-1.0,,"<div style=""display: flex; flex-direction: column; align-items: center; margin-top: -40px;""><img src=""images/pattern_6.png"" style=""width: 234px; height: 230px; margin-top: -50px;""><div style=""display: flex; justify-content: space-between; margin-top: 33px;""><img src=""images/choice_trial_11.png"" style=""width: 408px; height: 417px; margin-left:608px;""></div></div>",,delaylearn,learning,display_response,R9m8VsBPDeU45hyCY4fehgRWCEu1,R9m8VsBPDeU45hyCY4fehgRWCEu1,,,,,,,,,,,,,,,,,chosen stimuli: images/choice_trial_11.png,,,,,65e6238e5774c7e869f5defd,16:52:06,27/03/2024
html-keyboard-response,113,211554,0.0-48.0-2.0,,,,delaylearn,learning,feedback_duration_window,R9m8VsBPDeU45hyCY4fehgRWCEu1,R9m8VsBPDeU45hyCY4fehgRWCEu1,,,,,,,,,,,,,,,,,,750.0,,,,65e6238e5774c7e869f5defd,16:52:06,27/03/2024
html-keyboard-response,114,213070,0.0-48.0-3.0,,<div style='margin:auto;width: auto; font-size: 150%'><span style='font-weight: bold; font-size: 100px; color: green;'>+10 points!</span><br><br></div>,,delaylearn,learning,feedback_image_window,R9m8VsBPDeU45hyCY4fehgRWCEu1,R9m8VsBPDeU45hyCY4fehgRWCEu1,,,,,,,,,,,,,,,,,,,,,,65e6238e5774c7e869f5defd,16:52:06,27/03/2024
html-keyboard-response,115,215559,0.0-49.0,,"<div style=""font-size:100px;"">+</div>",,delaylearn,learning,ITI,R9m8VsBPDeU45hyCY4fehgRWCEu1,R9m8VsBPDeU45hyCY4fehgRWCEu1,,,,,,,,,,,,,,,,,,,2479.0,,,65e6238e5774c7e869f5defd,16:52:06,27/03/2024
html-keyboard-response,116,216803,0.0-50.0-0.0,1241.199999988079,"<div style=""display: flex; flex-direction: column; align-items: center; margin-top: -40px;""><img src=""images/pattern_4.png"" style=""width: 234px; height: 230px; margin-top: -50px;""><div style=""display: flex; justify-content: space-between; margin-top: 33px;""><img src=""images/choice_trial_7.png"" style=""width: 408px; height: 417px; margin-right: 200px;""><img src=""images/choice_trial_8.png"" style=""width: 408px; height: 417px;""></div></div>",f,delaylearn,learning,trial,R9m8VsBPDeU45hyCY4fehgRWCEu1,R9m8VsBPDeU45hyCY4fehgRWCEu1,1.0,images/choice_trial_7.png,images/choice_trial_8.png,images/pattern_4.png,f,f,7000.0,7.0,8.0,3.0,0.0,22.0,1.0,1.0,7.0,120.0,,,,,,65e6238e5774c7e869f5defd,16:52:06,27/03/2024
html-keyboard-response,117,217820,0.0-50.0-1.0,,"<div style=""display: flex; flex-direction: column; align-items: center; margin-top: -40px;""><img src=""images/pattern_4.png"" style=""width: 234px; height: 230px; margin-top: -50px;""><div style=""display: flex; justify-content: space-between; margin-top: 33px;""><img src=""images/choice_trial_7.png"" style=""width: 408px; height: 417px; margin-right: 608px;""></div></div>",,delaylearn,learning,display_response,R9m8VsBPDeU45hyCY4fehgRWCEu1,R9m8VsBPDeU45hyCY4fehgRWCEu1,,,,,,,,,,,,,,,,,chosen stimuli: images/choice_trial_7.png,,,,,65e6238e5774c7e869f5defd,16:52:06,27/03/2024
html-keyboard-response,118,224825,0.0-50.0-2.0,,,,delaylearn,learning,feedback_duration_window,R9m8VsBPDeU45hyCY4fehgRWCEu1,R9m8VsBPDeU45hyCY4fehgRWCEu1,,,,,,,,,,,,,,,,,,7000.0,,,,65e6238e5774c7e869f5defd,16:52:06,27/03/2024
html-keyboard-response,119,226338,0.0-50.0-3.0,,<div style='margin:auto;width: auto; font-size: 150%'><span style='font-weight: bold; font-size: 100px; color: green;'>+10 points!</span><br><br></div>,,delaylearn,learning,feedback_image_window,R9m8VsBPDeU45hyCY4fehgRWCEu1,R9m8VsBPDeU45hyCY4fehgRWCEu1,,,,,,,,,,,,,,,,,,,,,,65e6238e5774c7e869f5defd,16:52:06,27/03/2024
html-keyboard-response,120,226841,0.0-51.0-0.0,,,,,,mood_trial_fixation,R9m8VsBPDeU45hyCY4fehgRWCEu1,,,,,,,,,,,,,,,,,,,,,,,65e6238e5774c7e869f5defd,16:52:06,27/03/2024
lmdlab-html-vas-response,121,229984,0.0-51.0-1.0,2125.0,How happy are you right now?,0.7469376459504282,delaylearn,learning,mood_trial,R9m8VsBPDeU45hyCY4fehgRWCEu1,R9m8VsBPDeU45hyCY4fehgRWCEu1,,,,,,,,,,,,,,,,,,,,"['Very unhappy', 'Very happy']",,65e6238e5774c7e869f5defd,16:52:06,27/03/2024
html-keyboard-response,122,231811,0.0-52.0,,"<div style=""font-size:100px;"">+</div>",,delaylearn,learning,ITI,R9m8VsBPDeU45hyCY4fehgRWCEu1,R9m8VsBPDeU45hyCY4fehgRWCEu1,,,,,,,,,,,,,,,,,,,1822.0,,,65e6238e5774c7e869f5defd,16:52:06,27/03/2024
html-keyboard-response,123,233114,0.0-53.0-0.0,1300.8999999761581,"<div style=""display: flex; flex-direction: column; align-items: center; margin-top: -40px;""><img src=""images/pattern_7.png"" style=""width: 234px; height: 230px; margin-top: -50px;""><div style=""display: flex; justify-content: space-between; margin-top: 33px;""><img src=""images/choice_trial_14.png"" style=""width: 408px; height: 417px; margin-right: 200px;""><img src=""images/choice_trial_13.png"" style=""width: 408px; height: 417px;""></div></div>",f,delaylearn,learning,trial,R9m8VsBPDeU45hyCY4fehgRWCEu1,R9m8VsBPDeU45hyCY4fehgRWCEu1,1.0,images/choice_trial_14.png,images/choice_trial_13.png,images/pattern_7.png,j,j,750.0,14.0,13.0,6.0,1.0,23.0,0.0,0.0,14.0,120.0,,,,,,65e6238e5774c7e869f5defd,16:52:06,27/03/2024
html-keyboard-response,124,234123,0.0-53.0-1.0,,"<div style=""display: flex; flex-direction: column; align-items: center; margin-top: -40px;""><img src=""images/pattern_7.png"" style=""width: 234px; height: 230px; margin-top: -50px;""><div style=""display: flex; justify-content: space-between; margin-top: 33px;""><img src=""images/choice_trial_14.png"" style=""width: 408px; height: 417px; margin-right: 608px;""></div></div>",,delaylearn,learning,display_response,R9m8VsBPDeU45hyCY4fehgRWCEu1,R9m8VsBPDeU45hyCY4fehgRWCEu1,,,,,,,,,,,,,,,,,chosen stimuli: images/choice_trial_14.png,,,,,65e6238e5774c7e869f5defd,16:52:06,27/03/2024
html-keyboard-response,125,234889,0.0-53.0-2.0,,,,delaylearn,learning,feedback_duration_window,R9m8VsBPDeU45hyCY4fehgRWCEu1,R9m8VsBPDeU45hyCY4fehgRWCEu1,,,,,,,,,,,,,,,,,,750.0,,,,65e6238e5774c7e869f5defd,16:52:06,27/03/2024
html-keyboard-response,126,236405,0.0-53.0-3.0,,<div style='margin:auto;width: auto; font-size: 150%'><span style='font-weight: bold; font-size: 100px; color: red;'>0 points!</span><br><br></div>,,delaylearn,learning,feedback_image_window,R9m8VsBPDeU45hyCY4fehgRWCEu1,R9m8VsBPDeU45hyCY4fehgRWCEu1,,,,,,,,,,,,,,,,,,,,,,65e6238e5774c7e869f5defd,16:52:06,27/03/2024
html-keyboard-response,127,238111,0.0-54.0,,"<div style=""font-size:100px;"">+</div>",,delaylearn,learning,ITI,R9m8VsBPDeU45hyCY4fehgRWCEu1,R9m8VsBPDeU45hyCY4fehgRWCEu1,,,,,,,,,,,,,,,,,,,1696.0,,,65e6238e5774c7e869f5defd,16:52:06,27/03/2024
html-keyboard-response,128,239646,0.0-55.0-0.0,1533.2000000476837,"<div style=""display: flex; flex-direction: column; align-items: center; margin-top: -40px;""><img src=""images/pattern_1.png"" style=""width: 234px; height: 230px; margin-top: -50px;""><div style=""display: flex; justify-content: space-between; margin-top: 33px;""><img src=""images/choice_trial_2.png"" style=""width: 408px; height: 417px; margin-right: 200px;""><img src=""images/choice_trial_1.png"" style=""width: 408px; height: 417px;""></div></div>",j,delaylearn,learning,trial,R9m8VsBPDeU45hyCY4fehgRWCEu1,R9m8VsBPDeU45hyCY4fehgRWCEu1,1.0,images/choice_trial_2.png,images/choice_trial_1.png,images/pattern_1.png,f,j,7000.0,2.0,1.0,1.0,1.0,24.0,1.0,0.0,1.0,120.0,,,,,,65e6238e5774c7e869f5defd,16:52:06,27/03/2024
html-keyboard-response,129,240655,0.0-55.0-1.0,,"<div style=""display: flex; flex-direction: column; align-items: center; margin-top: -40px;""><img src=""images/pattern_1.png"" style=""width: 234px; height: 230px; margin-top: -50px;""><div style=""display: flex; justify-content: space-between; margin-top: 33px;""><img src=""images/choice_trial_1.png"" style=""width: 408px; height: 417px; margin-left:608px;""></div></div>",,delaylearn,learning,display_response,R9m8VsBPDeU45hyCY4fehgRWCEu1,R9m8VsBPDeU45hyCY4fehgRWCEu1,,,,,,,,,,,,,,,,,chosen stimuli: images/choice_trial_1.png,,,,,65e6238e5774c7e869f5defd,16:52:06,27/03/2024
html-keyboard-response,130,247659,0.0-55.0-2.0,,,,delaylearn,learning,feedback_duration_window,R9m8VsBPDeU45hyCY4fehgRWCEu1,R9m8VsBPDeU45hyCY4fehgRWCEu1,,,,,,,,,,,,,,,,,,7000.0,,,,65e6238e5774c7e869f5defd,16:52:06,27/03/2024
html-keyboard-response,131,249173,0.0-55.0-3.0,,<div style='margin:auto;width: auto; font-size: 150%'><span style='font-weight: bold; font-size: 100px; color: red;'>0 points!</span><br><br></div>,,delaylearn,learning,feedback_image_window,R9m8VsBPDeU45hyCY4fehgRWCEu1,R9m8VsBPDeU45hyCY4fehgRWCEu1,,,,,,,,,,,,,,,,,,,,,,65e6238e5774c7e869f5defd,16:52:06,27/03/2024
html-keyboard-response,132,251407,0.0-56.0,,"<div style=""font-size:100px;"">+</div>",,delaylearn,learning,ITI,R9m8VsBPDeU45hyCY4fehgRWCEu1,R9m8VsBPDeU45hyCY4fehgRWCEu1,,,,,,,,,,,,,,,,,,,2221.0,,,65e6238e5774c7e869f5defd,16:52:06,27/03/2024
html-keyboard-response,133,253039,0.0-57.0-0.0,1629.3999999761581,"<div style=""display: flex; flex-direction: column; align-items: center; margin-top: -40px;""><img src=""images/pattern_5.png"" style=""width: 234px; height: 230px; margin-top: -50px;""><div style=""display: flex; justify-content: space-between; margin-top: 33px;""><img src=""images/choice_trial_10.png"" style=""width: 408px; height: 417px; margin-right: 200px;""><img src=""images/choice_trial_9.png"" style=""width: 408px; height: 417px;""></div></div>",f,delaylearn,learning,trial,R9m8VsBPDeU45hyCY4fehgRWCEu1,R9m8VsBPDeU45hyCY4fehgRWCEu1,1.0,images/choice_trial_10.png,images/choice_trial_9.png,images/pattern_5.png,j,j,750.0,10.0,9.0,4.0,1.0,25.0,0.0,0.0,10.0,120.0,,,,,,65e6238e5774c7e869f5defd,16:52:06,27/03/2024
html-keyboard-response,134,254056,0.0-57.0-1.0,,"<div style=""display: flex; flex-direction: column; align-items: center; margin-top: -40px;""><img src=""images/pattern_5.png"" style=""width: 234px; height: 230px; margin-top: -50px;""><div style=""display: flex; justify-content: space-between; margin-top: 33px;""><img src=""images/choice_trial_10.png"" style=""width: 408px; height: 417px; margin-right: 608px;""></div></div>",,delaylearn,learning,display_response,R9m8VsBPDeU45hyCY4fehgRWCEu1,R9m8VsBPDeU45hyCY4fehgRWCEu1,,,,,,,,,,,,,,,,,chosen stimuli: images/choice_trial_10.png,,,,,65e6238e5774c7e869f5defd,16:52:06,27/03/2024
html-keyboard-response,135,254809,0.0-57.0-2.0,,,,delaylearn,learning,feedback_duration_window,R9m8VsBPDeU45hyCY4fehgRWCEu1,R9m8VsBPDeU45hyCY4fehgRWCEu1,,,,,,,,,,,,,,,,,,750.0,,,,65e6238e5774c7e869f5defd,16:52:06,27/03/2024
html-keyboard-response,136,256324,0.0-57.0-3.0,,<div style='margin:auto;width: auto; font-size: 150%'><span style='font-weight: bold; font-size: 100px; color: red;'>0 points!</span><br><br></div>,,delaylearn,learning,feedback_image_window,R9m8VsBPDeU45hyCY4fehgRWCEu1,R9m8VsBPDeU45hyCY4fehgRWCEu1,,,,,,,,,,,,,,,,,,,,,,65e6238e5774c7e869f5defd,16:52:06,27/03/2024
html-keyboard-response,137,257996,0.0-58.0,,"<div style=""font-size:100px;"">+</div>",,delaylearn,learning,ITI,R9m8VsBPDeU45hyCY4fehgRWCEu1,R9m8VsBPDeU45hyCY4fehgRWCEu1,,,,,,,,,,,,,,,,,,,1660.0,,,65e6238e5774c7e869f5defd,16:52:06,27/03/2024
html-keyboard-response,138,259911,0.0-59.0-0.0,1912.7999999523163,"<div style=""display: flex; flex-direction: column; align-items: center; margin-top: -40px;""><img src=""images/pattern_3.png"" style=""width: 234px; height: 230px; margin-top: -50px;""><div style=""display: flex; justify-content: space-between; margin-top: 33px;""><img src=""images/choice_trial_6.png"" style=""width: 408px; height: 417px; margin-right: 200px;""><img src=""images/choice_trial_5.png"" style=""width: 408px; height: 417px;""></div></div>",f,delaylearn,learning,trial,R9m8VsBPDeU45hyCY4fehgRWCEu1,R9m8VsBPDeU45hyCY4fehgRWCEu1,1.0,images/choice_trial_6.png,images/choice_trial_5.png,images/pattern_3.png,j,j,7000.0,6.0,5.0,2.0,1.0,26.0,0.0,0.0,6.0,120.0,,,,,,65e6238e5774c7e869f5defd,16:52:06,27/03/2024
html-keyboard-response,139,260924,0.0-59.0-1.0,,"<div style=""display: flex; flex-direction: column; align-items: center; margin-top: -40px;""><img src=""images/pattern_3.png"" style=""width: 234px; height: 230px; margin-top: -50px;""><div style=""display: flex; justify-content: space-between; margin-top: 33px;""><img src=""images/choice_trial_6.png"" style=""width: 408px; height: 417px; margin-right: 608px;""></div></div>",,delaylearn,learning,display_response,R9m8VsBPDeU45hyCY4fehgRWCEu1,R9m8VsBPDeU45hyCY4fehgRWCEu1,,,,,,,,,,,,,,,,,chosen stimuli: images/choice_trial_6.png,,,,,65e6238e5774c7e869f5defd,16:52:06,27/03/2024
html-keyboard-response,140,267925,0.0-59.0-2.0,,,,delaylearn,learning,feedback_duration_window,R9m8VsBPDeU45hyCY4fehgRWCEu1,R9m8VsBPDeU45hyCY4fehgRWCEu1,,,,,,,,,,,,,,,,,,7000.0,,,,65e6238e5774c7e869f5defd,16:52:06,27/03/2024
html-keyboard-response,141,269440,0.0-59.0-3.0,,<div style='margin:auto;width: auto; font-size: 150%'><span style='font-weight: bold; font-size: 100px; color: red;'>0 points!</span><br><br></div>,,delaylearn,learning,feedback_image_window,R9m8VsBPDeU45hyCY4fehgRWCEu1,R9m8VsBPDeU45hyCY4fehgRWCEu1,,,,,,,,,,,,,,,,,,,,,,65e6238e5774c7e869f5defd,16:52:06,27/03/2024
lmdlab-html-vas-response,142,276532,0.0-60.0-0.0,5579.0,*How <b><u>confident</u></b> are you feeling about your answers at this moment?*,0.006172803894193489,rewlearn,rate_confidence,,R9m8VsBPDeU45hyCY4fehgRWCEu1,R9m8VsBPDeU45hyCY4fehgRWCEu1,,,,,,,,,,,,,,,,,,,,"['No confidence', 'Complete confidence']",,65e6238e5774c7e869f5defd,16:52:06,27/03/2024
lmdlab-rest-trial-limit,143,282701,0.0-60.0-1.0,4652.5,"<div style=""font-size:40px;""><b>Please take a break!</b><br><br><br><br><p>Great work: you earned 120 points.<br><br><br><p>You have completed part(s) 1 of 5.<br><br><br><br>When you are ready to continue<br><br><br>please click the button.</p><br><br>",0,delaylearn,learning,break,R9m8VsBPDeU45hyCY4fehgRWCEu1,R9m8VsBPDeU45hyCY4fehgRWCEu1,,,,,,,,,,,,,,,,,,,,,0.0,65e6238e5774c7e869f5defd,16:52:06,27/03/2024
html-keyboard-response,144,285710,0.0-60.0-2.0,,"<div style=""font-size:100px;"">+</div>",,delaylearn,learning,pre_fixation,R9m8VsBPDeU45hyCY4fehgRWCEu1,,,,,,,,,,,,,,,,,,,,,,,65e6238e5774c7e869f5defd,16:52:06,27/03/2024
lmdlab-html-vas-response,145,289162,0.0-60.0-3.0-0.0,2432.0,How happy are you right now?,0.5656104939962083,delaylearn,learning,mood_baseline,R9m8VsBPDeU45hyCY4fehgRWCEu1,R9m8VsBPDeU45hyCY4fehgRWCEu1,,,,,,,,,,,,,,,,,,,,"['Very unhappy', 'Very happy']",,65e6238e5774c7e869f5defd,16:52:06,27/03/2024
html-keyboard-response,146,290679,0.0-60.0-3.0-1.0,,,,,,mood_baseline_fixation,R9m8VsBPDeU45hyCY4fehgRWCEu1,,,,,,,,,,,,,,,,,,,,,,,65e6238e5774c7e869f5defd,16:52:06,27/03/2024
html-keyboard-response,147,292192,0.0-61.0,,"<div style=""font-size:100px;"">+</div>",,delaylearn,learning,ITI,R9m8VsBPDeU45hyCY4fehgRWCEu1,R9m8VsBPDeU45hyCY4fehgRWCEu1,,,,,,,,,,,,,,,,,,,1502.0,,,65e6238e5774c7e869f5defd,16:52:06,27/03/2024
html-keyboard-response,148,293589,0.0-62.0-0.0,1393.7000000476837,"<div style=""display: flex; flex-direction: column; align-items: center; margin-top: -40px;""><img src=""images/pattern_7.png"" style=""width: 234px; height: 230px; margin-top: -50px;""><div style=""display: flex; justify-content: space-between; margin-top: 33px;""><img src=""images/choice_trial_14.png"" style=""width: 408px; height: 417px; margin-right: 200px;""><img src=""images/choice_trial_13.png"" style=""width: 408px; height: 417px;""></div></div>",f,delaylearn,learning,trial,R9m8VsBPDeU45hyCY4fehgRWCEu1,R9m8VsBPDeU45hyCY4fehgRWCEu1,1.0,images/choice_trial_14.png,images/choice_trial_13.png,images/pattern_7.png,j,j,750.0,14.0,13.0,6.0,1.0,27.0,0.0,0.0,14.0,120.0,,,,,,65e6238e5774c7e869f5defd,16:52:06,27/03/2024
html-keyboard-response,149,294593,0.0-62.0-1.0,,"<div style=""display: flex; flex-direction: column; align-items: center; margin-top: -40px;""><img src=""images/pattern_7.png"" style=""width: 234px; height: 230px; margin-top: -50px;""><div style=""display: flex; justify-content: space-between; margin-top: 33px;""><img src=""images/choice_trial_14.png"" style=""width: 408px; height: 417px; margin-right: 608px;""></div></div>",,delaylearn,learning,display_response,R9m8VsBPDeU45hyCY4fehgRWCEu1,R9m8VsBPDeU45hyCY4fehgRWCEu1,,,,,,,,,,,,,,,,,chosen stimuli: images/choice_trial_14.png,,,,,65e6238e5774c7e869f5defd,16:52:06,27/03/2024
html-keyboard-response,150,295345,0.0-62.0-2.0,,,,delaylearn,learning,feedback_duration_window,R9m8VsBPDeU45hyCY4fehgRWCEu1,R9m8VsBPDeU45hyCY4fehgRWCEu1,,,,,,,,,,,,,,,,,,750.0,,,,65e6238e5774c7e869f5defd,16:52:06,27/03/2024
html-keyboard-response,151,296858,0.0-62.0-3.0,,<div style='margin:auto;width: auto; font-size: 150%'><span style='font-weight: bold; font-size: 100px; color: red;'>0 points!</span><br><br></div>,,delaylearn,learning,feedback_image_window,R9m8VsBPDeU45hyCY4fehgRWCEu1,R9m8VsBPDeU45hyCY4fehgRWCEu1,,,,,,,,,,,,,,,,,,,,,,65e6238e5774c7e869f5defd,16:52:06,27/03/2024
html-keyboard-response,152,297360,0.0-63.0-0.0,,,,,,mood_trial_fixation,R9m8VsBPDeU45hyCY4fehgRWCEu1,,,,,,,,,,,,,,,,,,,,,,,65e6238e5774c7e869f5defd,16:52:06,27/03/2024
lmdlab-html-vas-response,153,303538,0.0-63.0-1.0,5157.0,How happy are you right now?,0.407431489099974,delaylearn,learning,mood_trial,R9m8VsBPDeU45hyCY4fehgRWCEu1,R9m8VsBPDeU45hyCY4fehgRWCEu1,,,,,,,,,,,,,,,,,,,,"['Very unhappy', 'Very happy']",,65e6238e5774c7e869f5defd,16:52:06,27/03/2024
html-keyboard-response,154,306013,0.0-64.0,,"<div style=""font-size:100px;"">+</div>",,delaylearn,learning,ITI,R9m8VsBPDeU45hyCY4fehgRWCEu1,R9m8VsBPDeU45hyCY4fehgRWCEu1,,,,,,,,,,,,,,,,,,,2465.0,,,65e6238e5774c7e869f5defd,16:52:06,27/03/2024
html-keyboard-response,155,307128,0.0-65.0-0.0,1112.699999988079,"<div style=""display: flex; flex-direction: column; align-items: center; margin-top: -40px;""><img src=""images/pattern_1.png"" style=""width: 234px; height: 230px; margin-top: -50px;""><div style=""display: flex; justify-content: space-between; margin-top: 33px;""><img src=""images/choice_trial_1.png"" style=""width: 408px; height: 417px; margin-right: 200px;""><img src=""images/choice_trial_2.png"" style=""width: 408px; height: 417px;""></div></div>",f,delaylearn,learning,trial,R9m8VsBPDeU45hyCY4fehgRWCEu1,R9m8VsBPDeU45hyCY4fehgRWCEu1,1.0,images/choice_trial_1.png,images/choice_trial_2.png,images/pattern_1.png,f,f,7000.0,1.0,2.0,1.0,0.0,28.0,1.0,1.0,1.0,130.0,,,,,,65e6238e5774c7e869f5defd,16:52:06,27/03/2024
html-keyboard-response,156,308144,0.0-65.0-1.0,,"<div style=""display: flex; flex-direction: column; align-items: center; margin-top: -40px;""><img src=""images/pattern_1.png"" style=""width: 234px; height: 230px; margin-top: -50px;""><div style=""display: flex; justify-content: space-between; margin-top: 33px;""><img src=""images/choice_trial_1.png"" style=""width: 408px; height: 417px; margin-right: 608px;""></div></div>",,delaylearn,learning,display_response,R9m8VsBPDeU45hyCY4fehgRWCEu1,R9m8VsBPDeU45hyCY4fehgRWCEu1,,,,,,,,,,,,,,,,,chosen stimuli: images/choice_trial_1.png,,,,,65e6238e5774c7e869f5defd,16:52:06,27/03/2024
html-keyboard-response,157,315145,0.0-65.0-2.0,,,,delaylearn,learning,feedback_duration_window,R9m8VsBPDeU45hyCY4fehgRWCEu1,R9m8VsBPDeU45hyCY4fehgRWCEu1,,,,,,,,,,,,,,,,,,7000.0,,,,65e6238e5774c7e869f5defd,16:52:06,27/03/2024
html-keyboard-response,158,316660,0.0-65.0-3.0,,<div style='margin:auto;width: auto; font-size: 150%'><span style='font-weight: bold; font-size: 100px; color: green;'>+10 points!</span><br><br></div>,,delaylearn,learning,feedback_image_window,R9m8VsBPDeU45hyCY4fehgRWCEu1,R9m8VsBPDeU45hyCY4fehgRWCEu1,,,,,,,,,,,,,,,,,,,,,,65e6238e5774c7e869f5defd,16:52:06,27/03/2024
html-keyboard-response,159,319147,0.0-66.0,,"<div style=""font-size:100px;"">+</div>",,delaylearn,learning,ITI,R9m8VsBPDeU45hyCY4fehgRWCEu1,R9m8VsBPDeU45hyCY4fehgRWCEu1,,,,,,,,,,,,,,,,,,,2485.0,,,65e6238e5774c7e869f5defd,16:52:06,27/03/2024
html-keyboard-response,160,320761,0.0-67.0-0.0,1611.5,"<div style=""display: flex; flex-direction: column; align-items: center; margin-top: -40px;""><img src=""images/pattern_5.png"" style=""width: 234px; height: 230px; margin-top: -50px;""><div style=""display: flex; justify-content: space-between; margin-top: 33px;""><img src=""images/choice_trial_9.png"" style=""width: 408px; height: 417px; margin-right: 200px;""><img src=""images/choice_trial_10.png"" style=""width: 408px; height: 417px;""></div></div>",f,delaylearn,learning,trial,R9m8VsBPDeU45hyCY4fehgRWCEu1,R9m8VsBPDeU45hyCY4fehgRWCEu1,1.0,images/choice_trial_9.png,images/choice_trial_10.png,images/pattern_5.png,f,f,750.0,9.0,10.0,4.0,0.0,29.0,1.0,1.0,9.0,140.0,,,,,,65e6238e5774c7e869f5defd,16:52:06,27/03/2024
html-keyboard-response,161,321777,0.0-67.0-1.0,,"<div style=""display: flex; flex-direction: column; align-items: center; margin-top: -40px;""><img src=""images/pattern_5.png"" style=""width: 234px; height: 230px; margin-top: -50px;""><div style=""display: flex; justify-content: space-between; margin-top: 33px;""><img src=""images/choice_trial_9.png"" style=""width: 408px; height: 417px; margin-right: 608px;""></div></div>",,delaylearn,learning,display_response,R9m8VsBPDeU45hyCY4fehgRWCEu1,R9m8VsBPDeU45hyCY4fehgRWCEu1,,,,,,,,,,,,,,,,,chosen stimuli: images/choice_trial_9.png,,,,,65e6238e5774c7e869f5defd,16:52:06,27/03/2024
html-keyboard-response,162,322543,0.0-67.0-2.0,,,,delaylearn,learning,feedback_duration_window,R9m8VsBPDeU45hyCY4fehgRWCEu1,R9m8VsBPDeU45hyCY4fehgRWCEu1,,,,,,,,,,,,,,,,,,750.0,,,,65e6238e5774c7e869f5defd,16:52:06,27/03/2024
html-keyboard-response,163,324045,0.0-67.0-3.0,,<div style='margin:auto;width: auto; font-size: 150%'><span style='font-weight: bold; font-size: 100px; color: green;'>+10 points!</span><br><br></div>,,delaylearn,learning,feedback_image_window,R9m8VsBPDeU45hyCY4fehgRWCEu1,R9m8VsBPDeU45hyCY4fehgRWCEu1,,,,,,,,,,,,,,,,,,,,,,65e6238e5774c7e869f5defd,16:52:06,27/03/2024
html-keyboard-response,164,325654,0.0-68.0,,"<div style=""font-size:100px;"">+</div>",,delaylearn,learning,ITI,R9m8VsBPDeU45hyCY4fehgRWCEu1,R9m8VsBPDeU45hyCY4fehgRWCEu1,,,,,,,,,,,,,,,,,,,1595.0,,,65e6238e5774c7e869f5defd,16:52:06,27/03/2024
html-keyboard-response,165,326826,0.0-69.0-0.0,1169.5,"<div style=""display: flex; flex-direction: column; align-items: center; margin-top: -40px;""><img src=""images/pattern_6.png"" style=""width: 234px; height: 230px; margin-top: -50px;""><div style=""display: flex; justify-content: space-between; margin-top: 33px;""><img src=""images/choice_trial_12.png"" style=""width: 408px; height: 417px; margin-right: 200px;""><img src=""images/choice_trial_11.png"" style=""width: 408px; height: 417px;""></div></div>",f,delaylearn,learning,trial,R9m8VsBPDeU45hyCY4fehgRWCEu1,R9m8VsBPDeU45hyCY4fehgRWCEu1,1.0,images/choice_trial_12.png,images/choice_trial_11.png,images/pattern_6.png,j,j,750.0,12.0,11.0,5.0,1.0,30.0,0.0,0.0,12.0,140.0,,,,,,65e6238e5774c7e869f5defd,16:52:06,27/03/2024
html-keyboard-response,166,327829,0.0-69.0-1.0,,"<div style=""display: flex; flex-direction: column; align-items: center; margin-top: -40px;""><img src=""images/pattern_6.png"" style=""width: 234px; height: 230px; margin-top: -50px;""><div style=""display: flex; justify-content: space-between; margin-top: 33px;""><img src=""images/choice_trial_12.png"" style=""width: 408px; height: 417px; margin-right: 608px;""></div></div>",,delaylearn,learning,display_response,R9m8VsBPDeU45hyCY4fehgRWCEu1,R9m8VsBPDeU45hyCY4fehgRWCEu1,,,,,,,,,,,,,,,,,chosen stimuli: images/choice_trial_12.png,,,,,65e6238e5774c7e869f5defd,16:52:06,27/03/2024
html-keyboard-response,167,328593,0.0-69.0-2.0,,,,delaylearn,learning,feedback_duration_window,R9m8VsBPDeU45hyCY4fehgRWCEu1,R9m8VsBPDeU45hyCY4fehgRWCEu1,,,,,,,,,,,,,,,,,,750.0,,,,65e6238e5774c7e869f5defd,16:52:06,27/03/2024
html-keyboard-response,168,330096,0.0-69.0-3.0,,<div style='margin:auto;width: auto; font-size: 150%'><span style='font-weight: bold; font-size: 100px; color: red;'>0 points!</span><br><br></div>,,delaylearn,learning,feedback_image_window,R9m8VsBPDeU45hyCY4fehgRWCEu1,R9m8VsBPDeU45hyCY4fehgRWCEu1,,,,,,,,,,,,,,,,,,,,,,65e6238e5774c7e869f5defd,16:52:06,27/03/2024
html-keyboard-response,169,330611,0.0-70.0-0.0,,,,,,mood_trial_fixation,R9m8VsBPDeU45hyCY4fehgRWCEu1,,,,,,,,,,,,,,,,,,,,,,,65e6238e5774c7e869f5defd,16:52:06,27/03/2024
lmdlab-html-vas-response,170,334352,0.0-70.0-1.0,2734.0,How happy are you right now?,0.5347462979188944,delaylearn,learning,mood_trial,R9m8VsBPDeU45hyCY4fehgRWCEu1,R9m8VsBPDeU45hyCY4fehgRWCEu1,,,,,,,,,,,,,,,,,,,,"['Very unhappy', 'Very happy']",,65e6238e5774c7e869f5defd,16:52:06,27/03/2024
html-keyboard-response,171,336784,0.0-71.0,,"<div style=""font-size:100px;"">+</div>",,delaylearn,learning,ITI,R9m8VsBPDeU45hyCY4fehgRWCEu1,R9m8VsBPDeU45hyCY4fehgRWCEu1,,,,,,,,,,,,,,,,,,,2425.0,,,65e6238e5774c7e869f5defd,16:52:06,27/03/2024
html-keyboard-response,172,338996,0.0-72.0-0.0,2209.399999976158,"<div style=""display: flex; flex-direction: column; align-items: center; margin-top: -40px;""><img src=""images/pattern_4.png"" style=""width: 234px; height: 230px; margin-top: -50px;""><div style=""display: flex; justify-content: space-between; margin-top: 33px;""><img src=""images/choice_trial_8.png"" style=""width: 408px; height: 417px; margin-right: 200px;""><img src=""images/choice_trial_7.png"" style=""width: 408px; height: 417px;""></div></div>",f,delaylearn,learning,trial,R9m8VsBPDeU45hyCY4fehgRWCEu1,R9m8VsBPDeU45hyCY4fehgRWCEu1,1.0,images/choice_trial_8.png,images/choice_trial_7.png,images/pattern_4.png,j,j,7000.0,8.0,7.0,3.0,1.0,31.0,0.0,0.0,8.0,140.0,,,,,,65e6238e5774c7e869f5defd,16:52:06,27/03/2024
html-keyboard-response,173,340012,0.0-72.0-1.0,,"<div style=""display: flex; flex-direction: column; align-items: center; margin-top: -40px;""><img src=""images/pattern_4.png"" style=""width: 234px; height: 230px; margin-top: -50px;""><div style=""display: flex; justify-content: space-between; margin-top: 33px;""><img src=""images/choice_trial_8.png"" style=""width: 408px; height: 417px; margin-right: 608px;""></div></div>",,delaylearn,learning,display_response,R9m8VsBPDeU45hyCY4fehgRWCEu1,R9m8VsBPDeU45hyCY4fehgRWCEu1,,,,,,,,,,,,,,,,,chosen stimuli: images/choice_trial_8.png,,,,,65e6238e5774c7e869f5defd,16:52:06,27/03/2024
html-keyboard-response,174,347028,0.0-72.0-2.0,,,,delaylearn,learning,feedback_duration_window,R9m8VsBPDeU45hyCY4fehgRWCEu1,R9m8VsBPDeU45hyCY4fehgRWCEu1,,,,,,,,,,,,,,,,,,7000.0,,,,65e6238e5774c7e869f5defd,16:52:06,27/03/2024
html-keyboard-response,175,348545,0.0-72.0-3.0,,<div style='margin:auto;width: auto; font-size: 150%'><span style='font-weight: bold; font-size: 100px; color: red;'>0 points!</span><br><br></div>,,delaylearn,learning,feedback_image_window,R9m8VsBPDeU45hyCY4fehgRWCEu1,R9m8VsBPDeU45hyCY4fehgRWCEu1,,,,,,,,,,,,,,,,,,,,,,65e6238e5774c7e869f5defd,16:52:06,27/03/2024
html-keyboard-response,176,350827,0.0-73.0,,"<div style=""font-size:100px;"">+</div>",,delaylearn,learning,ITI,R9m8VsBPDeU45hyCY4fehgRWCEu1,R9m8VsBPDeU45hyCY4fehgRWCEu1,,,,,,,,,,,,,,,,,,,2278.0,,,65e6238e5774c7e869f5defd,16:52:06,27/03/2024
html-keyboard-response,177,351969,0.0-74.0-0.0,1138.9000000357628,"<div style=""display: flex; flex-direction: column; align-items: center; margin-top: -40px;""><img src=""images/pattern_3.png"" style=""width: 234px; height: 230px; margin-top: -50px;""><div style=""display: flex; justify-content: space-between; margin-top: 33px;""><img src=""images/choice_trial_6.png"" style=""width: 408px; height: 417px; margin-right: 200px;""><img src=""images/choice_trial_5.png"" style=""width: 408px; height: 417px;""></div></div>",j,delaylearn,learning,trial,R9m8VsBPDeU45hyCY4fehgRWCEu1,R9m8VsBPDeU45hyCY4fehgRWCEu1,1.0,images/choice_trial_6.png,images/choice_trial_5.png,images/pattern_3.png,j,j,7000.0,6.0,5.0,2.0,1.0,32.0,1.0,1.0,5.0,150.0,,,,,,65e6238e5774c7e869f5defd,16:52:06,27/03/2024
html-keyboard-response,178,352979,0.0-74.0-1.0,,"<div style=""display: flex; flex-direction: column; align-items: center; margin-top: -40px;""><img src=""images/pattern_3.png"" style=""width: 234px; height: 230px; margin-top: -50px;""><div style=""display: flex; justify-content: space-between; margin-top: 33px;""><img src=""images/choice_trial_5.png"" style=""width: 408px; height: 417px; margin-left:608px;""></div></div>",,delaylearn,learning,display_response,R9m8VsBPDeU45hyCY4fehgRWCEu1,R9m8VsBPDeU45hyCY4fehgRWCEu1,,,,,,,,,,,,,,,,,chosen stimuli: images/choice_trial_5.png,,,,,65e6238e5774c7e869f5defd,16:52:06,27/03/2024
html-keyboard-response,179,359982,0.0-74.0-2.0,,,,delaylearn,learning,feedback_duration_window,R9m8VsBPDeU45hyCY4fehgRWCEu1,R9m8VsBPDeU45hyCY4fehgRWCEu1,,,,,,,,,,,,,,,,,,7000.0,,,,65e6238e5774c7e869f5defd,16:52:06,27/03/2024
html-keyboard-response,180,361496,0.0-74.0-3.0,,<div style='margin:auto;width: auto; font-size: 150%'><span style='font-weight: bold; font-size: 100px; color: green;'>+10 points!</span><br><br></div>,,delaylearn,learning,feedback_image_window,R9m8VsBPDeU45hyCY4fehgRWCEu1,R9m8VsBPDeU45hyCY4fehgRWCEu1,,,,,,,,,,,,,,,,,,,,,,65e6238e5774c7e869f5defd,16:52:06,27/03/2024
html-keyboard-response,181,363466,0.0-75.0,,"<div style=""font-size:100px;"">+</div>",,delaylearn,learning,ITI,R9m8VsBPDeU45hyCY4fehgRWCEu1,R9m8VsBPDeU45hyCY4fehgRWCEu1,,,,,,,,,,,,,,,,,,,1962.0,,,65e6238e5774c7e869f5defd,16:52:06,27/03/2024
html-keyboard-response,182,364500,0.0-76.0-0.0,1032.0,"<div style=""display: flex; flex-direction: column; align-items: center; margin-top: -40px;""><img src=""images/pattern_5.png"" style=""width: 234px; height: 230px; margin-top: -50px;""><div style=""display: flex; justify-content: space-between; margin-top: 33px;""><img src=""images/choice_trial_9.png"" style=""width: 408px; height: 417px; margin-right: 200px;""><img src=""images/choice_trial_10.png"" style=""width: 408px; height: 417px;""></div></div>",f,delaylearn,learning,trial,R9m8VsBPDeU45hyCY4fehgRWCEu1,R9m8VsBPDeU45hyCY4fehgRWCEu1,1.0,images/choice_trial_9.png,images/choice_trial_10.png,images/pattern_5.png,j,f,750.0,9.0,10.0,4.0,0.0,33.0,1.0,0.0,9.0,150.0,,,,,,65e6238e5774c7e869f5defd,16:52:06,27/03/2024
html-keyboard-response,183,365512,0.0-76.0-1.0,,"<div style=""display: flex; flex-direction: column; align-items: center; margin-top: -40px;""><img src=""images/pattern_5.png"" style=""width: 234px; height: 230px; margin-top: -50px;""><div style=""display: flex; justify-content: space-between; margin-top: 33px;""><img src=""images/choice_trial_9.png"" style=""width: 408px; height: 417px; margin-right: 608px;""></div></div>",,delaylearn,learning,display_response,R9m8VsBPDeU45hyCY4fehgRWCEu1,R9m8VsBPDeU45hyCY4fehgRWCEu1,,,,,,,,,,,,,,,,,chosen stimuli: images/choice_trial_9.png,,,,,65e6238e5774c7e869f5defd,16:52:06,27/03/2024
html-keyboard-response,184,366279,0.0-76.0-2.0,,,,delaylearn,learning,feedback_duration_window,R9m8VsBPDeU45hyCY4fehgRWCEu1,R9m8VsBPDeU45hyCY4fehgRWCEu1,,,,,,,,,,,,,,,,,,750.0,,,,65e6238e5774c7e869f5defd,16:52:06,27/03/2024
html-keyboard-response,185,367796,0.0-76.0-3.0,,<div style='margin:auto;width: auto; font-size: 150%'><span style='font-weight: bold; font-size: 100px; color: red;'>0 points!</span><br><br></div>,,delaylearn,learning,feedback_image_window,R9m8VsBPDeU45hyCY4fehgRWCEu1,R9m8VsBPDeU45hyCY4fehgRWCEu1,,,,,,,,,,,,,,,,,,,,,,65e6238e5774c7e869f5defd,16:52:06,27/03/2024
html-keyboard-response,186,369594,0.0-77.0,,"<div style=""font-size:100px;"">+</div>",,delaylearn,learning,ITI,R9m8VsBPDeU45hyCY4fehgRWCEu1,R9m8VsBPDeU45hyCY4fehgRWCEu1,,,,,,,,,,,,,,,,,,,1795.0,,,65e6238e5774c7e869f5defd,16:52:06,27/03/2024
html-keyboard-response,187,370129,0.0-78.0-0.0,533.3000000119209,"<div style=""display: flex; flex-direction: column; align-items: center; margin-top: -40px;""><img src=""images/pattern_1.png"" style=""width: 234px; height: 230px; margin-top: -50px;""><div style=""display: flex; justify-content: space-between; margin-top: 33px;""><img src=""images/choice_trial_1.png"" style=""width: 408px; height: 417px; margin-right: 200px;""><img src=""images/choice_trial_2.png"" style=""width: 408px; height: 417px;""></div></div>",f,delaylearn,learning,trial,R9m8VsBPDeU45hyCY4fehgRWCEu1,R9m8VsBPDeU45hyCY4fehgRWCEu1,1.0,images/choice_trial_1.png,images/choice_trial_2.png,images/pattern_1.png,f,f,7000.0,1.0,2.0,1.0,0.0,34.0,1.0,1.0,1.0,160.0,,,,,,65e6238e5774c7e869f5defd,16:52:06,27/03/2024
html-keyboard-response,188,371131,0.0-78.0-1.0,,"<div style=""display: flex; flex-direction: column; align-items: center; margin-top: -40px;""><img src=""images/pattern_1.png"" style=""width: 234px; height: 230px; margin-top: -50px;""><div style=""display: flex; justify-content: space-between; margin-top: 33px;""><img src=""images/choice_trial_1.png"" style=""width: 408px; height: 417px; margin-right: 608px;""></div></div>",,delaylearn,learning,display_response,R9m8VsBPDeU45hyCY4fehgRWCEu1,R9m8VsBPDeU45hyCY4fehgRWCEu1,,,,,,,,,,,,,,,,,chosen stimuli: images/choice_trial_1.png,,,,,65e6238e5774c7e869f5defd,16:52:06,27/03/2024
html-keyboard-response,189,378135,0.0-78.0-2.0,,,,delaylearn,learning,feedback_duration_window,R9m8VsBPDeU45hyCY4fehgRWCEu1,R9m8VsBPDeU45hyCY4fehgRWCEu1,,,,,,,,,,,,,,,,,,7000.0,,,,65e6238e5774c7e869f5defd,16:52:06,27/03/2024
html-keyboard-response,190,379646,0.0-78.0-3.0,,<div style='margin:auto;width: auto; font-size: 150%'><span style='font-weight: bold; font-size: 100px; color: green;'>+10 points!</span><br><br></div>,,delaylearn,learning,feedback_image_window,R9m8VsBPDeU45hyCY4fehgRWCEu1,R9m8VsBPDeU45hyCY4fehgRWCEu1,,,,,,,,,,,,,,,,,,,,,,65e6238e5774c7e869f5defd,16:52:06,27/03/2024
html-keyboard-response,191,380151,0.0-79.0-0.0,,,,,,mood_trial_fixation,R9m8VsBPDeU45hyCY4fehgRWCEu1,,,,,,,,,,,,,,,,,,,,,,,65e6238e5774c7e869f5defd,16:52:06,27/03/2024
lmdlab-html-vas-response,192,383782,0.0-79.0-1.0,2611.0,How happy are you right now?,0.44408272194178444,delaylearn,learning,mood_trial,R9m8VsBPDeU45hyCY4fehgRWCEu1,R9m8VsBPDeU45hyCY4fehgRWCEu1,,,,,,,,,,,,,,,,,,,,"['Very unhappy', 'Very happy']",,65e6238e5774c7e869f5defd,16:52:06,27/03/2024
html-keyboard-response,193,385548,0.0-80.0,,"<div style=""font-size:100px;"">+</div>",,delaylearn,learning,ITI,R9m8VsBPDeU45hyCY4fehgRWCEu1,R9m8VsBPDeU45hyCY4fehgRWCEu1,,,,,,,,,,,,,,,,,,,1753.0,,,65e6238e5774c7e869f5defd,16:52:06,27/03/2024
html-keyboard-response,194,385978,0.0-81.0-0.0,428.0999999642372,"<div style=""display: flex; flex-direction: column; align-items: center; margin-top: -40px;""><img src=""images/pattern_6.png"" style=""width: 234px; height: 230px; margin-top: -50px;""><div style=""display: flex; justify-content: space-between; margin-top: 33px;""><img src=""images/choice_trial_11.png"" style=""width: 408px; height: 417px; margin-right: 200px;""><img src=""images/choice_trial_12.png"" style=""width: 408px; height: 417px;""></div></div>",f,delaylearn,learning,trial,R9m8VsBPDeU45hyCY4fehgRWCEu1,R9m8VsBPDeU45hyCY4fehgRWCEu1,1.0,images/choice_trial_11.png,images/choice_trial_12.png,images/pattern_6.png,j,f,750.0,11.0,12.0,5.0,0.0,35.0,1.0,0.0,11.0,160.0,,,,,,65e6238e5774c7e869f5defd,16:52:06,27/03/2024
html-keyboard-response,195,386981,0.0-81.0-1.0,,"<div style=""display: flex; flex-direction: column; align-items: center; margin-top: -40px;""><img src=""images/pattern_6.png"" style=""width: 234px; height: 230px; margin-top: -50px;""><div style=""display: flex; justify-content: space-between; margin-top: 33px;""><img src=""images/choice_trial_11.png"" style=""width: 408px; height: 417px; margin-right: 608px;""></div></div>",,delaylearn,learning,display_response,R9m8VsBPDeU45hyCY4fehgRWCEu1,R9m8VsBPDeU45hyCY4fehgRWCEu1,,,,,,,,,,,,,,,,,chosen stimuli: images/choice_trial_11.png,,,,,65e6238e5774c7e869f5defd,16:52:06,27/03/2024
html-keyboard-response,196,387732,0.0-81.0-2.0,,,,delaylearn,learning,feedback_duration_window,R9m8VsBPDeU45hyCY4fehgRWCEu1,R9m8VsBPDeU45hyCY4fehgRWCEu1,,,,,,,,,,,,,,,,,,750.0,,,,65e6238e5774c7e869f5defd,16:52:06,27/03/2024
html-keyboard-response,197,389247,0.0-81.0-3.0,,<div style='margin:auto;width: auto; font-size: 150%'><span style='font-weight: bold; font-size: 100px; color: red;'>0 points!</span><br><br></div>,,delaylearn,learning,feedback_image_window,R9m8VsBPDeU45hyCY4fehgRWCEu1,R9m8VsBPDeU45hyCY4fehgRWCEu1,,,,,,,,,,,,,,,,,,,,,,65e6238e5774c7e869f5defd,16:52:06,27/03/2024
html-keyboard-response,198,391155,0.0-82.0,,"<div style=""font-size:100px;"">+</div>",,delaylearn,learning,ITI,R9m8VsBPDeU45hyCY4fehgRWCEu1,R9m8VsBPDeU45hyCY4fehgRWCEu1,,,,,,,,,,,,,,,,,,,1906.0,,,65e6238e5774c7e869f5defd,16:52:06,27/03/2024
html-keyboard-response,199,392313,0.0-83.0-0.0,1153.8999999761581,"<div style=""display: flex; flex-direction: column; align-items: center; margin-top: -40px;""><img src=""images/pattern_3.png"" style=""width: 234px; height: 230px; margin-top: -50px;""><div style=""display: flex; justify-content: space-between; margin-top: 33px;""><img src=""images/choice_trial_6.png"" style=""width: 408px; height: 417px; margin-right: 200px;""><img src=""images/choice_trial_5.png"" style=""width: 408px; height: 417px;""></div></div>",f,delaylearn,learning,trial,R9m8VsBPDeU45hyCY4fehgRWCEu1,R9m8VsBPDeU45hyCY4fehgRWCEu1,1.0,images/choice_trial_6.png,images/choice_trial_5.png,images/pattern_3.png,j,j,7000.0,6.0,5.0,2.0,1.0,36.0,0.0,0.0,6.0,160.0,,,,,,65e6238e5774c7e869f5defd,16:52:06,27/03/2024
html-keyboard-response,200,393315,0.0-83.0-1.0,,"<div style=""display: flex; flex-direction: column; align-items: center; margin-top: -40px;""><img src=""images/pattern_3.png"" style=""width: 234px; height: 230px; margin-top: -50px;""><div style=""display: flex; justify-content: space-between; margin-top: 33px;""><img src=""images/choice_trial_6.png"" style=""width: 408px; height: 417px; margin-right: 608px;""></div></div>",,delaylearn,learning,display_response,R9m8VsBPDeU45hyCY4fehgRWCEu1,R9m8VsBPDeU45hyCY4fehgRWCEu1,,,,,,,,,,,,,,,,,chosen stimuli: images/choice_trial_6.png,,,,,65e6238e5774c7e869f5defd,16:52:06,27/03/2024
html-keyboard-response,201,400317,0.0-83.0-2.0,,,,delaylearn,learning,feedback_duration_window,R9m8VsBPDeU45hyCY4fehgRWCEu1,R9m8VsBPDeU45hyCY4fehgRWCEu1,,,,,,,,,,,,,,,,,,7000.0,,,,65e6238e5774c7e869f5defd,16:52:06,27/03/2024
html-keyboard-response,202,401832,0.0-83.0-3.0,,<div style='margin:auto;width: auto; font-size: 150%'><span style='font-weight: bold; font-size: 100px; color: red;'>0 points!</span><br><br></div>,,delaylearn,learning,feedback_image_window,R9m8VsBPDeU45hyCY4fehgRWCEu1,R9m8VsBPDeU45hyCY4fehgRWCEu1,,,,,,,,,,,,,,,,,,,,,,65e6238e5774c7e869f5defd,16:52:06,27/03/2024
html-keyboard-response,203,404287,0.0-84.0,,"<div style=""font-size:100px;"">+</div>",,delaylearn,learning,ITI,R9m8VsBPDeU45hyCY4fehgRWCEu1,R9m8VsBPDeU45hyCY4fehgRWCEu1,,,,,,,,,,,,,,,,,,,2449.0,,,65e6238e5774c7e869f5defd,16:52:06,27/03/2024
html-keyboard-response,204,406654,0.0-85.0-0.0,2364.100000023842,"<div style=""display: flex; flex-direction: column; align-items: center; margin-top: -40px;""><img src=""images/pattern_4.png"" style=""width: 234px; height: 230px; margin-top: -50px;""><div style=""display: flex; justify-content: space-between; margin-top: 33px;""><img src=""images/choice_trial_8.png"" style=""width: 408px; height: 417px; margin-right: 200px;""><img src=""images/choice_trial_7.png"" style=""width: 408px; height: 417px;""></div></div>",f,delaylearn,learning,trial,R9m8VsBPDeU45hyCY4fehgRWCEu1,R9m8VsBPDeU45hyCY4fehgRWCEu1,1.0,images/choice_trial_8.png,images/choice_trial_7.png,images/pattern_4.png,f,j,7000.0,8.0,7.0,3.0,1.0,37.0,0.0,1.0,8.0,170.0,,,,,,65e6238e5774c7e869f5defd,16:52:06,27/03/2024
html-keyboard-response,205,407664,0.0-85.0-1.0,,"<div style=""display: flex; flex-direction: column; align-items: center; margin-top: -40px;""><img src=""images/pattern_4.png"" style=""width: 234px; height: 230px; margin-top: -50px;""><div style=""display: flex; justify-content: space-between; margin-top: 33px;""><img src=""images/choice_trial_8.png"" style=""width: 408px; height: 417px; margin-right: 608px;""></div></div>",,delaylearn,learning,display_response,R9m8VsBPDeU45hyCY4fehgRWCEu1,R9m8VsBPDeU45hyCY4fehgRWCEu1,,,,,,,,,,,,,,,,,chosen stimuli: images/choice_trial_8.png,,,,,65e6238e5774c7e869f5defd,16:52:06,27/03/2024
html-keyboard-response,206,414670,0.0-85.0-2.0,,,,delaylearn,learning,feedback_duration_window,R9m8VsBPDeU45hyCY4fehgRWCEu1,R9m8VsBPDeU45hyCY4fehgRWCEu1,,,,,,,,,,,,,,,,,,7000.0,,,,65e6238e5774c7e869f5defd,16:52:06,27/03/2024
html-keyboard-response,207,416183,0.0-85.0-3.0,,<div style='margin:auto;width: auto; font-size: 150%'><span style='font-weight: bold; font-size: 100px; color: green;'>+10 points!</span><br><br></div>,,delaylearn,learning,feedback_image_window,R9m8VsBPDeU45hyCY4fehgRWCEu1,R9m8VsBPDeU45hyCY4fehgRWCEu1,,,,,,,,,,,,,,,,,,,,,,65e6238e5774c7e869f5defd,16:52:06,27/03/2024
html-keyboard-response,208,418605,0.0-86.0,,"<div style=""font-size:100px;"">+</div>",,delaylearn,learning,ITI,R9m8VsBPDeU45hyCY4fehgRWCEu1,R9m8VsBPDeU45hyCY4fehgRWCEu1,,,,,,,,,,,,,,,,,,,2413.0,,,65e6238e5774c7e869f5defd,16:52:06,27/03/2024
html-keyboard-response,209,419138,0.0-87.0-0.0,529.5,"<div style=""display: flex; flex-direction: column; align-items: center; margin-top: -40px;""><img src=""images/pattern_7.png"" style=""width: 234px; height: 230px; margin-top: -50px;""><div style=""display: flex; justify-content: space-between; margin-top: 33px;""><img src=""images/choice_trial_13.png"" style=""width: 408px; height: 417px; margin-right: 200px;""><img src=""images/choice_trial_14.png"" style=""width: 408px; height: 417px;""></div></div>",f,delaylearn,learning,trial,R9m8VsBPDeU45hyCY4fehgRWCEu1,R9m8VsBPDeU45hyCY4fehgRWCEu1,1.0,images/choice_trial_13.png,images/choice_trial_14.png,images/pattern_7.png,f,f,750.0,13.0,14.0,6.0,0.0,38.0,1.0,1.0,13.0,180.0,,,,,,65e6238e5774c7e869f5defd,16:52:06,27/03/2024
html-keyboard-response,210,420149,0.0-87.0-1.0,,"<div style=""display: flex; flex-direction: column; align-items: center; margin-top: -40px;""><img src=""images/pattern_7.png"" style=""width: 234px; height: 230px; margin-top: -50px;""><div style=""display: flex; justify-content: space-between; margin-top: 33px;""><img src=""images/choice_trial_13.png"" style=""width: 408px; height: 417px; margin-right: 608px;""></div></div>",,delaylearn,learning,display_response,R9m8VsBPDeU45hyCY4fehgRWCEu1,R9m8VsBPDeU45hyCY4fehgRWCEu1,,,,,,,,,,,,,,,,,chosen stimuli: images/choice_trial_13.png,,,,,65e6238e5774c7e869f5defd,16:52:06,27/03/2024
html-keyboard-response,211,420901,0.0-87.0-2.0,,,,delaylearn,learning,feedback_duration_window,R9m8VsBPDeU45hyCY4fehgRWCEu1,R9m8VsBPDeU45hyCY4fehgRWCEu1,,,,,,,,,,,,,,,,,,750.0,,,,65e6238e5774c7e869f5defd,16:52:06,27/03/2024
html-keyboard-response,212,422416,0.0-87.0-3.0,,<div style='margin:auto;width: auto; font-size: 150%'><span style='font-weight: bold; font-size: 100px; color: green;'>+10 points!</span><br><br></div>,,delaylearn,learning,feedback_image_window,R9m8VsBPDeU45hyCY4fehgRWCEu1,R9m8VsBPDeU45hyCY4fehgRWCEu1,,,,,,,,,,,,,,,,,,,,,,65e6238e5774c7e869f5defd,16:52:06,27/03/2024
html-keyboard-response,213,423933,0.0-88.0,,"<div style=""font-size:100px;"">+</div>",,delaylearn,learning,ITI,R9m8VsBPDeU45hyCY4fehgRWCEu1,R9m8VsBPDeU45hyCY4fehgRWCEu1,,,,,,,,,,,,,,,,,,,1511.0,,,65e6238e5774c7e869f5defd,16:52:06,27/03/2024
html-keyboard-response,214,424387,0.0-89.0-0.0,450.69999998807907,"<div style=""display: flex; flex-direction: column; align-items: center; margin-top: -40px;""><img src=""images/pattern_1.png"" style=""width: 234px; height: 230px; margin-top: -50px;""><div style=""display: flex; justify-content: space-between; margin-top: 33px;""><img src=""images/choice_trial_1.png"" style=""width: 408px; height: 417px; margin-right: 200px;""><img src=""images/choice_trial_2.png"" style=""width: 408px; height: 417px;""></div></div>",f,delaylearn,learning,trial,R9m8VsBPDeU45hyCY4fehgRWCEu1,R9m8VsBPDeU45hyCY4fehgRWCEu1,1.0,images/choice_trial_1.png,images/choice_trial_2.png,images/pattern_1.png,f,f,7000.0,1.0,2.0,1.0,0.0,39.0,1.0,1.0,1.0,190.0,,,,,,65e6238e5774c7e869f5defd,16:52:06,27/03/2024
html-keyboard-response,215,425400,0.0-89.0-1.0,,"<div style=""display: flex; flex-direction: column; align-items: center; margin-top: -40px;""><img src=""images/pattern_1.png"" style=""width: 234px; height: 230px; margin-top: -50px;""><div style=""display: flex; justify-content: space-between; margin-top: 33px;""><img src=""images/choice_trial_1.png"" style=""width: 408px; height: 417px; margin-right: 608px;""></div></div>",,delaylearn,learning,display_response,R9m8VsBPDeU45hyCY4fehgRWCEu1,R9m8VsBPDeU45hyCY4fehgRWCEu1,,,,,,,,,,,,,,,,,chosen stimuli: images/choice_trial_1.png,,,,,65e6238e5774c7e869f5defd,16:52:06,27/03/2024
html-keyboard-response,216,432404,0.0-89.0-2.0,,,,delaylearn,learning,feedback_duration_window,R9m8VsBPDeU45hyCY4fehgRWCEu1,R9m8VsBPDeU45hyCY4fehgRWCEu1,,,,,,,,,,,,,,,,,,7000.0,,,,65e6238e5774c7e869f5defd,16:52:06,27/03/2024
html-keyboard-response,217,433917,0.0-89.0-3.0,,<div style='margin:auto;width: auto; font-size: 150%'><span style='font-weight: bold; font-size: 100px; color: green;'>+10 points!</span><br><br></div>,,delaylearn,learning,feedback_image_window,R9m8VsBPDeU45hyCY4fehgRWCEu1,R9m8VsBPDeU45hyCY4fehgRWCEu1,,,,,,,,,,,,,,,,,,,,,,65e6238e5774c7e869f5defd,16:52:06,27/03/2024
html-keyboard-response,218,434433,0.0-90.0-0.0,,,,,,mood_trial_fixation,R9m8VsBPDeU45hyCY4fehgRWCEu1,,,,,,,,,,,,,,,,,,,,,,,65e6238e5774c7e869f5defd,16:52:06,27/03/2024
lmdlab-html-vas-response,219,437467,0.0-90.0-1.0,2009.0,How happy are you right now?,0.5868296287993617,delaylearn,learning,mood_trial,R9m8VsBPDeU45hyCY4fehgRWCEu1,R9m8VsBPDeU45hyCY4fehgRWCEu1,,,,,,,,,,,,,,,,,,,,"['Very unhappy', 'Very happy']",,65e6238e5774c7e869f5defd,16:52:06,27/03/2024
html-keyboard-response,220,439736,0.0-91.0,,"<div style=""font-size:100px;"">+</div>",,delaylearn,learning,ITI,R9m8VsBPDeU45hyCY4fehgRWCEu1,R9m8VsBPDeU45hyCY4fehgRWCEu1,,,,,,,,,,,,,,,,,,,2267.0,,,65e6238e5774c7e869f5defd,16:52:06,27/03/2024
html-keyboard-response,221,440341,0.0-92.0-0.0,602.1999999880791,"<div style=""display: flex; flex-direction: column; align-items: center; margin-top: -40px;""><img src=""images/pattern_3.png"" style=""width: 234px; height: 230px; margin-top: -50px;""><div style=""display: flex; justify-content: space-between; margin-top: 33px;""><img src=""images/choice_trial_5.png"" style=""width: 408px; height: 417px; margin-right: 200px;""><img src=""images/choice_trial_6.png"" style=""width: 408px; height: 417px;""></div></div>",j,delaylearn,learning,trial,R9m8VsBPDeU45hyCY4fehgRWCEu1,R9m8VsBPDeU45hyCY4fehgRWCEu1,1.0,images/choice_trial_5.png,images/choice_trial_6.png,images/pattern_3.png,j,f,7000.0,5.0,6.0,2.0,0.0,40.0,0.0,1.0,6.0,200.0,,,,,,65e6238e5774c7e869f5defd,16:52:06,27/03/2024
html-keyboard-response,222,441350,0.0-92.0-1.0,,"<div style=""display: flex; flex-direction: column; align-items: center; margin-top: -40px;""><img src=""images/pattern_3.png"" style=""width: 234px; height: 230px; margin-top: -50px;""><div style=""display: flex; justify-content: space-between; margin-top: 33px;""><img src=""images/choice_trial_6.png"" style=""width: 408px; height: 417px; margin-left:608px;""></div></div>",,delaylearn,learning,display_response,R9m8VsBPDeU45hyCY4fehgRWCEu1,R9m8VsBPDeU45hyCY4fehgRWCEu1,,,,,,,,,,,,,,,,,chosen stimuli: images/choice_trial_6.png,,,,,65e6238e5774c7e869f5defd,16:52:06,27/03/2024
html-keyboard-response,223,448357,0.0-92.0-2.0,,,,delaylearn,learning,feedback_duration_window,R9m8VsBPDeU45hyCY4fehgRWCEu1,R9m8VsBPDeU45hyCY4fehgRWCEu1,,,,,,,,,,,,,,,,,,7000.0,,,,65e6238e5774c7e869f5defd,16:52:06,27/03/2024
html-keyboard-response,224,449866,0.0-92.0-3.0,,<div style='margin:auto;width: auto; font-size: 150%'><span style='font-weight: bold; font-size: 100px; color: green;'>+10 points!</span><br><br></div>,,delaylearn,learning,feedback_image_window,R9m8VsBPDeU45hyCY4fehgRWCEu1,R9m8VsBPDeU45hyCY4fehgRWCEu1,,,,,,,,,,,,,,,,,,,,,,65e6238e5774c7e869f5defd,16:52:06,27/03/2024
html-keyboard-response,225,451839,0.0-93.0,,"<div style=""font-size:100px;"">+</div>",,delaylearn,learning,ITI,R9m8VsBPDeU45hyCY4fehgRWCEu1,R9m8VsBPDeU45hyCY4fehgRWCEu1,,,,,,,,,,,,,,,,,,,1961.0,,,65e6238e5774c7e869f5defd,16:52:06,27/03/2024
html-keyboard-response,226,452972,0.0-94.0-0.0,1130.1000000238419,"<div style=""display: flex; flex-direction: column; align-items: center; margin-top: -40px;""><img src=""images/pattern_7.png"" style=""width: 234px; height: 230px; margin-top: -50px;""><div style=""display: flex; justify-content: space-between; margin-top: 33px;""><img src=""images/choice_trial_14.png"" style=""width: 408px; height: 417px; margin-right: 200px;""><img src=""images/choice_trial_13.png"" style=""width: 408px; height: 417px;""></div></div>",j,delaylearn,learning,trial,R9m8VsBPDeU45hyCY4fehgRWCEu1,R9m8VsBPDeU45hyCY4fehgRWCEu1,1.0,images/choice_trial_14.png,images/choice_trial_13.png,images/pattern_7.png,j,j,750.0,14.0,13.0,6.0,1.0,41.0,1.0,1.0,13.0,210.0,,,,,,65e6238e5774c7e869f5defd,16:52:06,27/03/2024
html-keyboard-response,227,453985,0.0-94.0-1.0,,"<div style=""display: flex; flex-direction: column; align-items: center; margin-top: -40px;""><img src=""images/pattern_7.png"" style=""width: 234px; height: 230px; margin-top: -50px;""><div style=""display: flex; justify-content: space-between; margin-top: 33px;""><img src=""images/choice_trial_13.png"" style=""width: 408px; height: 417px; margin-left:608px;""></div></div>",,delaylearn,learning,display_response,R9m8VsBPDeU45hyCY4fehgRWCEu1,R9m8VsBPDeU45hyCY4fehgRWCEu1,,,,,,,,,,,,,,,,,chosen stimuli: images/choice_trial_13.png,,,,,65e6238e5774c7e869f5defd,16:52:06,27/03/2024
html-keyboard-response,228,454751,0.0-94.0-2.0,,,,delaylearn,learning,feedback_duration_window,R9m8VsBPDeU45hyCY4fehgRWCEu1,R9m8VsBPDeU45hyCY4fehgRWCEu1,,,,,,,,,,,,,,,,,,750.0,,,,65e6238e5774c7e869f5defd,16:52:06,27/03/2024
html-keyboard-response,229,456268,0.0-94.0-3.0,,<div style='margin:auto;width: auto; font-size: 150%'><span style='font-weight: bold; font-size: 100px; color: green;'>+10 points!</span><br><br></div>,,delaylearn,learning,feedback_image_window,R9m8VsBPDeU45hyCY4fehgRWCEu1,R9m8VsBPDeU45hyCY4fehgRWCEu1,,,,,,,,,,,,,,,,,,,,,,65e6238e5774c7e869f5defd,16:52:06,27/03/2024
html-keyboard-response,230,458160,0.0-95.0,,"<div style=""font-size:100px;"">+</div>",,delaylearn,learning,ITI,R9m8VsBPDeU45hyCY4fehgRWCEu1,R9m8VsBPDeU45hyCY4fehgRWCEu1,,,,,,,,,,,,,,,,,,,1879.0,,,65e6238e5774c7e869f5defd,16:52:06,27/03/2024
