trial_type,trial_index,time_elapsed,internal_node_id,rt,stimulus,response,exp_name,exp_stage,test_part,subjectID,databaseID,counterbal,choice_stimuli_1,choice_stimuli_2,pattern_stimuli,rewarded_answer,correct_answer,feedback_duration_times,stim_left,stim_right,pair,leftright_counter,trial,response_correct,response_rewarded,chosen_stim,counter,displayed_choice,feedback_durations,ITI_duration,labels,rest_warning,prolificID,start_time,date
pavlovia,0,633,0.0-0.0,,,,,,,05fLMX3mo4NUYHG91PAMESsSlj92,,,,,,,,,,,,,,,,,,,,,,,656514f9443092badedb7003,09:07:17,27/02/2024
html-keyboard-response,1,3638,0.0-1.0,,"<div style=""font-size:100px;"">+</div>",,delaylearn,learning,pre_fixation,05fLMX3mo4NUYHG91PAMESsSlj92,,,,,,,,,,,,,,,,,,,,,,,656514f9443092badedb7003,09:07:17,27/02/2024
html-keyboard-response,2,5861,0.0-2.0-0.0,2219.699999988079,"<div style=""display: flex; flex-direction: column; align-items: center; margin-top: -40px;""><img src=""images/demo_images/pattern_1.png"" style=""width: 234px; height: 230px; margin-top: -50px;""><div style=""display: flex; justify-content: space-between; margin-top: 33px;""><img src=""images/demo_images/choice_trial_2.png"" style=""width: 408px; height: 417px; margin-right: 200px;""><img src=""images/demo_images/choice_trial_1.png"" style=""width: 408px; height: 417px;""></div></div>",j,delaylearn,learning,trial,05fLMX3mo4NUYHG91PAMESsSlj92,05fLMX3mo4NUYHG91PAMESsSlj92,2.0,images/demo_images/choice_trial_2.png,images/demo_images/choice_trial_1.png,images/demo_images/pattern_1.png,j,j,3000.0,2.0,1.0,20.0,1.0,1.0,1.0,1.0,1.0,10.0,,,,,,656514f9443092badedb7003,09:07:17,27/02/2024
html-keyboard-response,3,6870,0.0-2.0-1.0,,"<div style=""display: flex; flex-direction: column; align-items: center; margin-top: -40px;""><img src=""images/demo_images/pattern_1.png"" style=""width: 234px; height: 230px; margin-top: -50px;""><div style=""display: flex; justify-content: space-between; margin-top: 33px;""><img src=""images/demo_images/choice_trial_1.png"" style=""width: 408px; height: 417px; margin-left:608px;""></div></div>",,delaylearn,learning,display_response,05fLMX3mo4NUYHG91PAMESsSlj92,05fLMX3mo4NUYHG91PAMESsSlj92,,,,,,,,,,,,,,,,,chosen stimuli: images/demo_images/choice_trial_1.png,,,,,656514f9443092badedb7003,09:07:17,27/02/2024
html-keyboard-response,4,9888,0.0-2.0-2.0,,,,delaylearn,learning,feedback_duration_window,05fLMX3mo4NUYHG91PAMESsSlj92,05fLMX3mo4NUYHG91PAMESsSlj92,,,,,,,,,,,,,,,,,,3000.0,,,,656514f9443092badedb7003,09:07:17,27/02/2024
html-keyboard-response,5,11400,0.0-2.0-3.0,,<div style='margin:auto;width: auto; font-size: 150%'><span style='font-weight: bold; font-size: 100px; color: green;'>+10 points!</span><br><br></div>,,delaylearn,learning,feedback_image_window,05fLMX3mo4NUYHG91PAMESsSlj92,05fLMX3mo4NUYHG91PAMESsSlj92,,,,,,,,,,,,,,,,,,,,,,656514f9443092badedb7003,09:07:17,27/02/2024
html-keyboard-response,6,13088,0.0-3.0,,"<div style=""font-size:100px;"">+</div>",,delaylearn,learning,ITI,05fLMX3mo4NUYHG91PAMESsSlj92,05fLMX3mo4NUYHG91PAMESsSlj92,,,,,,,,,,,,,,,,,,,1676.0,,,656514f9443092badedb7003,09:07:17,27/02/2024
html-keyboard-response,7,14036,0.0-4.0-0.0,945.0,"<div style=""display: flex; flex-direction: column; align-items: center; margin-top: -40px;""><img src=""images/demo_images/pattern_1.png"" style=""width: 234px; height: 230px; margin-top: -50px;""><div style=""display: flex; justify-content: space-between; margin-top: 33px;""><img src=""images/demo_images/choice_trial_2.png"" style=""width: 408px; height: 417px; margin-right: 200px;""><img src=""images/demo_images/choice_trial_1.png"" style=""width: 408px; height: 417px;""></div></div>",j,delaylearn,learning,trial,05fLMX3mo4NUYHG91PAMESsSlj92,05fLMX3mo4NUYHG91PAMESsSlj92,2.0,images/demo_images/choice_trial_2.png,images/demo_images/choice_trial_1.png,images/demo_images/pattern_1.png,j,j,3000.0,2.0,1.0,20.0,1.0,2.0,1.0,1.0,1.0,20.0,,,,,,656514f9443092badedb7003,09:07:17,27/02/2024
html-keyboard-response,8,15047,0.0-4.0-1.0,,"<div style=""display: flex; flex-direction: column; align-items: center; margin-top: -40px;""><img src=""images/demo_images/pattern_1.png"" style=""width: 234px; height: 230px; margin-top: -50px;""><div style=""display: flex; justify-content: space-between; margin-top: 33px;""><img src=""images/demo_images/choice_trial_1.png"" style=""width: 408px; height: 417px; margin-left:608px;""></div></div>",,delaylearn,learning,display_response,05fLMX3mo4NUYHG91PAMESsSlj92,05fLMX3mo4NUYHG91PAMESsSlj92,,,,,,,,,,,,,,,,,chosen stimuli: images/demo_images/choice_trial_1.png,,,,,656514f9443092badedb7003,09:07:17,27/02/2024
html-keyboard-response,9,18051,0.0-4.0-2.0,,,,delaylearn,learning,feedback_duration_window,05fLMX3mo4NUYHG91PAMESsSlj92,05fLMX3mo4NUYHG91PAMESsSlj92,,,,,,,,,,,,,,,,,,3000.0,,,,656514f9443092badedb7003,09:07:17,27/02/2024
html-keyboard-response,10,19557,0.0-4.0-3.0,,<div style='margin:auto;width: auto; font-size: 150%'><span style='font-weight: bold; font-size: 100px; color: green;'>+10 points!</span><br><br></div>,,delaylearn,learning,feedback_image_window,05fLMX3mo4NUYHG91PAMESsSlj92,05fLMX3mo4NUYHG91PAMESsSlj92,,,,,,,,,,,,,,,,,,,,,,656514f9443092badedb7003,09:07:17,27/02/2024
html-keyboard-response,11,21319,0.0-5.0,,"<div style=""font-size:100px;"">+</div>",,delaylearn,learning,ITI,05fLMX3mo4NUYHG91PAMESsSlj92,05fLMX3mo4NUYHG91PAMESsSlj92,,,,,,,,,,,,,,,,,,,1746.0,,,656514f9443092badedb7003,09:07:17,27/02/2024
html-keyboard-response,12,22235,0.0-6.0-0.0,912.8999999761581,"<div style=""display: flex; flex-direction: column; align-items: center; margin-top: -40px;""><img src=""images/demo_images/pattern_1.png"" style=""width: 234px; height: 230px; margin-top: -50px;""><div style=""display: flex; justify-content: space-between; margin-top: 33px;""><img src=""images/demo_images/choice_trial_1.png"" style=""width: 408px; height: 417px; margin-right: 200px;""><img src=""images/demo_images/choice_trial_2.png"" style=""width: 408px; height: 417px;""></div></div>",f,delaylearn,learning,trial,05fLMX3mo4NUYHG91PAMESsSlj92,05fLMX3mo4NUYHG91PAMESsSlj92,2.0,images/demo_images/choice_trial_1.png,images/demo_images/choice_trial_2.png,images/demo_images/pattern_1.png,j,f,3000.0,1.0,2.0,20.0,0.0,3.0,1.0,0.0,1.0,20.0,,,,,,656514f9443092badedb7003,09:07:17,27/02/2024
html-keyboard-response,13,23241,0.0-6.0-1.0,,"<div style=""display: flex; flex-direction: column; align-items: center; margin-top: -40px;""><img src=""images/demo_images/pattern_1.png"" style=""width: 234px; height: 230px; margin-top: -50px;""><div style=""display: flex; justify-content: space-between; margin-top: 33px;""><img src=""images/demo_images/choice_trial_1.png"" style=""width: 408px; height: 417px; margin-right: 608px;""></div></div>",,delaylearn,learning,display_response,05fLMX3mo4NUYHG91PAMESsSlj92,05fLMX3mo4NUYHG91PAMESsSlj92,,,,,,,,,,,,,,,,,chosen stimuli: images/demo_images/choice_trial_1.png,,,,,656514f9443092badedb7003,09:07:17,27/02/2024
html-keyboard-response,14,26246,0.0-6.0-2.0,,,,delaylearn,learning,feedback_duration_window,05fLMX3mo4NUYHG91PAMESsSlj92,05fLMX3mo4NUYHG91PAMESsSlj92,,,,,,,,,,,,,,,,,,3000.0,,,,656514f9443092badedb7003,09:07:17,27/02/2024
html-keyboard-response,15,27749,0.0-6.0-3.0,,<div style='margin:auto;width: auto; font-size: 150%'><span style='font-weight: bold; font-size: 100px; color: red;'>0 points!</span><br><br></div>,,delaylearn,learning,feedback_image_window,05fLMX3mo4NUYHG91PAMESsSlj92,05fLMX3mo4NUYHG91PAMESsSlj92,,,,,,,,,,,,,,,,,,,,,,656514f9443092badedb7003,09:07:17,27/02/2024
html-keyboard-response,16,29315,0.0-7.0,,"<div style=""font-size:100px;"">+</div>",,delaylearn,learning,ITI,05fLMX3mo4NUYHG91PAMESsSlj92,05fLMX3mo4NUYHG91PAMESsSlj92,,,,,,,,,,,,,,,,,,,1560.0,,,656514f9443092badedb7003,09:07:17,27/02/2024
html-keyboard-response,17,32071,0.0-8.0-0.0,2753.2999999523163,"<div style=""display: flex; flex-direction: column; align-items: center; margin-top: -40px;""><img src=""images/demo_images/pattern_1.png"" style=""width: 234px; height: 230px; margin-top: -50px;""><div style=""display: flex; justify-content: space-between; margin-top: 33px;""><img src=""images/demo_images/choice_trial_1.png"" style=""width: 408px; height: 417px; margin-right: 200px;""><img src=""images/demo_images/choice_trial_2.png"" style=""width: 408px; height: 417px;""></div></div>",j,delaylearn,learning,trial,05fLMX3mo4NUYHG91PAMESsSlj92,05fLMX3mo4NUYHG91PAMESsSlj92,2.0,images/demo_images/choice_trial_1.png,images/demo_images/choice_trial_2.png,images/demo_images/pattern_1.png,f,f,3000.0,1.0,2.0,20.0,0.0,4.0,0.0,0.0,2.0,20.0,,,,,,656514f9443092badedb7003,09:07:17,27/02/2024
html-keyboard-response,18,33078,0.0-8.0-1.0,,"<div style=""display: flex; flex-direction: column; align-items: center; margin-top: -40px;""><img src=""images/demo_images/pattern_1.png"" style=""width: 234px; height: 230px; margin-top: -50px;""><div style=""display: flex; justify-content: space-between; margin-top: 33px;""><img src=""images/demo_images/choice_trial_2.png"" style=""width: 408px; height: 417px; margin-left:608px;""></div></div>",,delaylearn,learning,display_response,05fLMX3mo4NUYHG91PAMESsSlj92,05fLMX3mo4NUYHG91PAMESsSlj92,,,,,,,,,,,,,,,,,chosen stimuli: images/demo_images/choice_trial_2.png,,,,,656514f9443092badedb7003,09:07:17,27/02/2024
html-keyboard-response,19,36082,0.0-8.0-2.0,,,,delaylearn,learning,feedback_duration_window,05fLMX3mo4NUYHG91PAMESsSlj92,05fLMX3mo4NUYHG91PAMESsSlj92,,,,,,,,,,,,,,,,,,3000.0,,,,656514f9443092badedb7003,09:07:17,27/02/2024
html-keyboard-response,20,37586,0.0-8.0-3.0,,<div style='margin:auto;width: auto; font-size: 150%'><span style='font-weight: bold; font-size: 100px; color: red;'>0 points!</span><br><br></div>,,delaylearn,learning,feedback_image_window,05fLMX3mo4NUYHG91PAMESsSlj92,05fLMX3mo4NUYHG91PAMESsSlj92,,,,,,,,,,,,,,,,,,,,,,656514f9443092badedb7003,09:07:17,27/02/2024
html-keyboard-response,21,38091,0.0-9.0-0.0,,,,,,mood_trial_fixation,05fLMX3mo4NUYHG91PAMESsSlj92,,,,,,,,,,,,,,,,,,,,,,,656514f9443092badedb7003,09:07:17,27/02/2024
lmdlab-html-vas-response,22,44092,0.0-9.0-1.0,4973.0,How happy are you right now?,0.5208333333333334,delaylearn,learning,mood_trial,05fLMX3mo4NUYHG91PAMESsSlj92,05fLMX3mo4NUYHG91PAMESsSlj92,,,,,,,,,,,,,,,,,,,,"['Very unhappy', 'Very happy']",,656514f9443092badedb7003,09:07:17,27/02/2024
html-keyboard-response,23,46026,0.0-10.0,,"<div style=""font-size:100px;"">+</div>",,delaylearn,learning,ITI,05fLMX3mo4NUYHG91PAMESsSlj92,05fLMX3mo4NUYHG91PAMESsSlj92,,,,,,,,,,,,,,,,,,,1920.0,,,656514f9443092badedb7003,09:07:17,27/02/2024
html-keyboard-response,24,48872,0.0-11.0-0.0,2842.900000035763,"<div style=""display: flex; flex-direction: column; align-items: center; margin-top: -40px;""><img src=""images/demo_images/pattern_1.png"" style=""width: 234px; height: 230px; margin-top: -50px;""><div style=""display: flex; justify-content: space-between; margin-top: 33px;""><img src=""images/demo_images/choice_trial_2.png"" style=""width: 408px; height: 417px; margin-right: 200px;""><img src=""images/demo_images/choice_trial_1.png"" style=""width: 408px; height: 417px;""></div></div>",j,delaylearn,learning,trial,05fLMX3mo4NUYHG91PAMESsSlj92,05fLMX3mo4NUYHG91PAMESsSlj92,2.0,images/demo_images/choice_trial_2.png,images/demo_images/choice_trial_1.png,images/demo_images/pattern_1.png,j,j,3000.0,2.0,1.0,20.0,1.0,5.0,1.0,1.0,1.0,30.0,,,,,,656514f9443092badedb7003,09:07:17,27/02/2024
html-keyboard-response,25,49880,0.0-11.0-1.0,,"<div style=""display: flex; flex-direction: column; align-items: center; margin-top: -40px;""><img src=""images/demo_images/pattern_1.png"" style=""width: 234px; height: 230px; margin-top: -50px;""><div style=""display: flex; justify-content: space-between; margin-top: 33px;""><img src=""images/demo_images/choice_trial_1.png"" style=""width: 408px; height: 417px; margin-left:608px;""></div></div>",,delaylearn,learning,display_response,05fLMX3mo4NUYHG91PAMESsSlj92,05fLMX3mo4NUYHG91PAMESsSlj92,,,,,,,,,,,,,,,,,chosen stimuli: images/demo_images/choice_trial_1.png,,,,,656514f9443092badedb7003,09:07:17,27/02/2024
html-keyboard-response,26,52885,0.0-11.0-2.0,,,,delaylearn,learning,feedback_duration_window,05fLMX3mo4NUYHG91PAMESsSlj92,05fLMX3mo4NUYHG91PAMESsSlj92,,,,,,,,,,,,,,,,,,3000.0,,,,656514f9443092badedb7003,09:07:17,27/02/2024
html-keyboard-response,27,54391,0.0-11.0-3.0,,<div style='margin:auto;width: auto; font-size: 150%'><span style='font-weight: bold; font-size: 100px; color: green;'>+10 points!</span><br><br></div>,,delaylearn,learning,feedback_image_window,05fLMX3mo4NUYHG91PAMESsSlj92,05fLMX3mo4NUYHG91PAMESsSlj92,,,,,,,,,,,,,,,,,,,,,,656514f9443092badedb7003,09:07:17,27/02/2024
html-keyboard-response,28,55978,0.0-12.0,,"<div style=""font-size:100px;"">+</div>",,delaylearn,learning,ITI,05fLMX3mo4NUYHG91PAMESsSlj92,05fLMX3mo4NUYHG91PAMESsSlj92,,,,,,,,,,,,,,,,,,,1570.0,,,656514f9443092badedb7003,09:07:17,27/02/2024
html-keyboard-response,29,57668,0.0-13.0-0.0,1687.3999999761581,"<div style=""display: flex; flex-direction: column; align-items: center; margin-top: -40px;""><img src=""images/demo_images/pattern_1.png"" style=""width: 234px; height: 230px; margin-top: -50px;""><div style=""display: flex; justify-content: space-between; margin-top: 33px;""><img src=""images/demo_images/choice_trial_1.png"" style=""width: 408px; height: 417px; margin-right: 200px;""><img src=""images/demo_images/choice_trial_2.png"" style=""width: 408px; height: 417px;""></div></div>",f,delaylearn,learning,trial,05fLMX3mo4NUYHG91PAMESsSlj92,05fLMX3mo4NUYHG91PAMESsSlj92,2.0,images/demo_images/choice_trial_1.png,images/demo_images/choice_trial_2.png,images/demo_images/pattern_1.png,f,f,3000.0,1.0,2.0,20.0,0.0,6.0,1.0,1.0,1.0,40.0,,,,,,656514f9443092badedb7003,09:07:17,27/02/2024
html-keyboard-response,30,58674,0.0-13.0-1.0,,"<div style=""display: flex; flex-direction: column; align-items: center; margin-top: -40px;""><img src=""images/demo_images/pattern_1.png"" style=""width: 234px; height: 230px; margin-top: -50px;""><div style=""display: flex; justify-content: space-between; margin-top: 33px;""><img src=""images/demo_images/choice_trial_1.png"" style=""width: 408px; height: 417px; margin-right: 608px;""></div></div>",,delaylearn,learning,display_response,05fLMX3mo4NUYHG91PAMESsSlj92,05fLMX3mo4NUYHG91PAMESsSlj92,,,,,,,,,,,,,,,,,chosen stimuli: images/demo_images/choice_trial_1.png,,,,,656514f9443092badedb7003,09:07:17,27/02/2024
html-keyboard-response,31,61686,0.0-13.0-2.0,,,,delaylearn,learning,feedback_duration_window,05fLMX3mo4NUYHG91PAMESsSlj92,05fLMX3mo4NUYHG91PAMESsSlj92,,,,,,,,,,,,,,,,,,3000.0,,,,656514f9443092badedb7003,09:07:17,27/02/2024
html-keyboard-response,32,63198,0.0-13.0-3.0,,<div style='margin:auto;width: auto; font-size: 150%'><span style='font-weight: bold; font-size: 100px; color: green;'>+10 points!</span><br><br></div>,,delaylearn,learning,feedback_image_window,05fLMX3mo4NUYHG91PAMESsSlj92,05fLMX3mo4NUYHG91PAMESsSlj92,,,,,,,,,,,,,,,,,,,,,,656514f9443092badedb7003,09:07:17,27/02/2024
html-button-response,33,70209,0.0-14.0,7009.300000011921,"
  <div style=""display: flex; align-items: center; justify-content: center; height: 80vh;"">
  <div>
          <img src=""images/inst_demo_finish.png"" style=""width: 80vw; height:auto;"">
          <br><br>
      </div>
      <br><br>
  </div>",0,,,,05fLMX3mo4NUYHG91PAMESsSlj92,,,,,,,,,,,,,,,,,,,,,,,656514f9443092badedb7003,09:07:17,27/02/2024
html-keyboard-response,34,76487,0.0-15.0,6275.699999988079,"
  <div style=""display: flex; align-items: center; justify-content: center; height: 80vh;"">
  <div>
          <img src=""images/inst_6.png"" style=""width: 80vw; height:auto;"">
          <br><br>
      </div>
      <br><br>
  </div>",j,,,,05fLMX3mo4NUYHG91PAMESsSlj92,,,,,,,,,,,,,,,,,,,,,,,656514f9443092badedb7003,09:07:17,27/02/2024
html-keyboard-response,35,79502,0.0-16.0,,"<div style=""font-size:100px;"">+</div>",,delaylearn,learning,pre_fixation,05fLMX3mo4NUYHG91PAMESsSlj92,,,,,,,,,,,,,,,,,,,,,,,656514f9443092badedb7003,09:07:17,27/02/2024
html-keyboard-response,36,81261,0.0-17.0,,"<div style=""font-size:100px;"">+</div>",,delaylearn,learning,ITI,05fLMX3mo4NUYHG91PAMESsSlj92,05fLMX3mo4NUYHG91PAMESsSlj92,,,,,,,,,,,,,,,,,,,1744.0,,,656514f9443092badedb7003,09:07:17,27/02/2024
html-keyboard-response,37,83345,0.0-18.0-0.0,2081.5,"<div style=""display: flex; flex-direction: column; align-items: center; margin-top: -40px;""><img src=""images/pattern_3.png"" style=""width: 234px; height: 230px; margin-top: -50px;""><div style=""display: flex; justify-content: space-between; margin-top: 33px;""><img src=""images/choice_trial_12.png"" style=""width: 408px; height: 417px; margin-right: 200px;""><img src=""images/choice_trial_14.png"" style=""width: 408px; height: 417px;""></div></div>",f,delaylearn,learning,trial,05fLMX3mo4NUYHG91PAMESsSlj92,05fLMX3mo4NUYHG91PAMESsSlj92,2.0,images/choice_trial_12.png,images/choice_trial_14.png,images/pattern_3.png,f,f,7000.0,12.0,14.0,2.0,0.0,7.0,1.0,1.0,12.0,50.0,,,,,,656514f9443092badedb7003,09:07:17,27/02/2024
html-keyboard-response,38,84351,0.0-18.0-1.0,,"<div style=""display: flex; flex-direction: column; align-items: center; margin-top: -40px;""><img src=""images/pattern_3.png"" style=""width: 234px; height: 230px; margin-top: -50px;""><div style=""display: flex; justify-content: space-between; margin-top: 33px;""><img src=""images/choice_trial_12.png"" style=""width: 408px; height: 417px; margin-right: 608px;""></div></div>",,delaylearn,learning,display_response,05fLMX3mo4NUYHG91PAMESsSlj92,05fLMX3mo4NUYHG91PAMESsSlj92,,,,,,,,,,,,,,,,,chosen stimuli: images/choice_trial_12.png,,,,,656514f9443092badedb7003,09:07:17,27/02/2024
html-keyboard-response,39,91361,0.0-18.0-2.0,,,,delaylearn,learning,feedback_duration_window,05fLMX3mo4NUYHG91PAMESsSlj92,05fLMX3mo4NUYHG91PAMESsSlj92,,,,,,,,,,,,,,,,,,7000.0,,,,656514f9443092badedb7003,09:07:17,27/02/2024
html-keyboard-response,40,92864,0.0-18.0-3.0,,<div style='margin:auto;width: auto; font-size: 150%'><span style='font-weight: bold; font-size: 100px; color: green;'>+10 points!</span><br><br></div>,,delaylearn,learning,feedback_image_window,05fLMX3mo4NUYHG91PAMESsSlj92,05fLMX3mo4NUYHG91PAMESsSlj92,,,,,,,,,,,,,,,,,,,,,,656514f9443092badedb7003,09:07:17,27/02/2024
html-keyboard-response,41,95349,0.0-19.0,,"<div style=""font-size:100px;"">+</div>",,delaylearn,learning,ITI,05fLMX3mo4NUYHG91PAMESsSlj92,05fLMX3mo4NUYHG91PAMESsSlj92,,,,,,,,,,,,,,,,,,,2484.0,,,656514f9443092badedb7003,09:07:17,27/02/2024
html-keyboard-response,42,98354,0.0-20.0-0.0,,"<div style=""display: flex; flex-direction: column; align-items: center; margin-top: -40px;""><img src=""images/pattern_7.png"" style=""width: 234px; height: 230px; margin-top: -50px;""><div style=""display: flex; justify-content: space-between; margin-top: 33px;""><img src=""images/choice_trial_15.png"" style=""width: 408px; height: 417px; margin-right: 200px;""><img src=""images/choice_trial_8.png"" style=""width: 408px; height: 417px;""></div></div>",,delaylearn,learning,trial,05fLMX3mo4NUYHG91PAMESsSlj92,05fLMX3mo4NUYHG91PAMESsSlj92,2.0,images/choice_trial_15.png,images/choice_trial_8.png,images/pattern_7.png,j,j,750.0,15.0,8.0,6.0,1.0,8.0,0.0,0.0,0.0,50.0,,,,,,656514f9443092badedb7003,09:07:17,27/02/2024
html-keyboard-response,43,99365,0.0-20.0-1.0,,<div style='font-weight: bold; font-size: 75px; color: red;'>Missed Trial <br><br><br><br> Please respond faster</div>,,delaylearn,learning,display_response,05fLMX3mo4NUYHG91PAMESsSlj92,05fLMX3mo4NUYHG91PAMESsSlj92,,,,,,,,,,,,,,,,,Missed trial,,,,,656514f9443092badedb7003,09:07:17,27/02/2024
html-keyboard-response,44,99371,0.0-20.0-2.0,,,,delaylearn,learning,feedback_duration_window,05fLMX3mo4NUYHG91PAMESsSlj92,05fLMX3mo4NUYHG91PAMESsSlj92,,,,,,,,,,,,,,,,,,0.0,,,,656514f9443092badedb7003,09:07:17,27/02/2024
html-keyboard-response,45,99377,0.0-20.0-3.0,,,,delaylearn,learning,feedback_image_window,05fLMX3mo4NUYHG91PAMESsSlj92,05fLMX3mo4NUYHG91PAMESsSlj92,,,,,,,,,,,,,,,,,,,,,,656514f9443092badedb7003,09:07:17,27/02/2024
html-keyboard-response,46,101671,0.0-21.0,,"<div style=""font-size:100px;"">+</div>",,delaylearn,learning,ITI,05fLMX3mo4NUYHG91PAMESsSlj92,05fLMX3mo4NUYHG91PAMESsSlj92,,,,,,,,,,,,,,,,,,,2278.0,,,656514f9443092badedb7003,09:07:17,27/02/2024
html-keyboard-response,47,102763,0.0-22.0-0.0,1088.5,"<div style=""display: flex; flex-direction: column; align-items: center; margin-top: -40px;""><img src=""images/pattern_4.png"" style=""width: 234px; height: 230px; margin-top: -50px;""><div style=""display: flex; justify-content: space-between; margin-top: 33px;""><img src=""images/choice_trial_4.png"" style=""width: 408px; height: 417px; margin-right: 200px;""><img src=""images/choice_trial_16.png"" style=""width: 408px; height: 417px;""></div></div>",j,delaylearn,learning,trial,05fLMX3mo4NUYHG91PAMESsSlj92,05fLMX3mo4NUYHG91PAMESsSlj92,2.0,images/choice_trial_4.png,images/choice_trial_16.png,images/pattern_4.png,f,f,7000.0,4.0,16.0,3.0,0.0,9.0,0.0,0.0,16.0,50.0,,,,,,656514f9443092badedb7003,09:07:17,27/02/2024
html-keyboard-response,48,103780,0.0-22.0-1.0,,"<div style=""display: flex; flex-direction: column; align-items: center; margin-top: -40px;""><img src=""images/pattern_4.png"" style=""width: 234px; height: 230px; margin-top: -50px;""><div style=""display: flex; justify-content: space-between; margin-top: 33px;""><img src=""images/choice_trial_16.png"" style=""width: 408px; height: 417px; margin-left:608px;""></div></div>",,delaylearn,learning,display_response,05fLMX3mo4NUYHG91PAMESsSlj92,05fLMX3mo4NUYHG91PAMESsSlj92,,,,,,,,,,,,,,,,,chosen stimuli: images/choice_trial_16.png,,,,,656514f9443092badedb7003,09:07:17,27/02/2024
html-keyboard-response,49,110789,0.0-22.0-2.0,,,,delaylearn,learning,feedback_duration_window,05fLMX3mo4NUYHG91PAMESsSlj92,05fLMX3mo4NUYHG91PAMESsSlj92,,,,,,,,,,,,,,,,,,7000.0,,,,656514f9443092badedb7003,09:07:17,27/02/2024
html-keyboard-response,50,112298,0.0-22.0-3.0,,<div style='margin:auto;width: auto; font-size: 150%'><span style='font-weight: bold; font-size: 100px; color: red;'>0 points!</span><br><br></div>,,delaylearn,learning,feedback_image_window,05fLMX3mo4NUYHG91PAMESsSlj92,05fLMX3mo4NUYHG91PAMESsSlj92,,,,,,,,,,,,,,,,,,,,,,656514f9443092badedb7003,09:07:17,27/02/2024
html-keyboard-response,51,113837,0.0-23.0,,"<div style=""font-size:100px;"">+</div>",,delaylearn,learning,ITI,05fLMX3mo4NUYHG91PAMESsSlj92,05fLMX3mo4NUYHG91PAMESsSlj92,,,,,,,,,,,,,,,,,,,1536.0,,,656514f9443092badedb7003,09:07:17,27/02/2024
html-keyboard-response,52,115285,0.0-24.0-0.0,1445.4000000357628,"<div style=""display: flex; flex-direction: column; align-items: center; margin-top: -40px;""><img src=""images/pattern_5.png"" style=""width: 234px; height: 230px; margin-top: -50px;""><div style=""display: flex; justify-content: space-between; margin-top: 33px;""><img src=""images/choice_trial_9.png"" style=""width: 408px; height: 417px; margin-right: 200px;""><img src=""images/choice_trial_2.png"" style=""width: 408px; height: 417px;""></div></div>",f,delaylearn,learning,trial,05fLMX3mo4NUYHG91PAMESsSlj92,05fLMX3mo4NUYHG91PAMESsSlj92,2.0,images/choice_trial_9.png,images/choice_trial_2.png,images/pattern_5.png,j,j,750.0,9.0,2.0,4.0,1.0,10.0,0.0,0.0,9.0,50.0,,,,,,656514f9443092badedb7003,09:07:17,27/02/2024
html-keyboard-response,53,116298,0.0-24.0-1.0,,"<div style=""display: flex; flex-direction: column; align-items: center; margin-top: -40px;""><img src=""images/pattern_5.png"" style=""width: 234px; height: 230px; margin-top: -50px;""><div style=""display: flex; justify-content: space-between; margin-top: 33px;""><img src=""images/choice_trial_9.png"" style=""width: 408px; height: 417px; margin-right: 608px;""></div></div>",,delaylearn,learning,display_response,05fLMX3mo4NUYHG91PAMESsSlj92,05fLMX3mo4NUYHG91PAMESsSlj92,,,,,,,,,,,,,,,,,chosen stimuli: images/choice_trial_9.png,,,,,656514f9443092badedb7003,09:07:17,27/02/2024
html-keyboard-response,54,117065,0.0-24.0-2.0,,,,delaylearn,learning,feedback_duration_window,05fLMX3mo4NUYHG91PAMESsSlj92,05fLMX3mo4NUYHG91PAMESsSlj92,,,,,,,,,,,,,,,,,,750.0,,,,656514f9443092badedb7003,09:07:17,27/02/2024
html-keyboard-response,55,118569,0.0-24.0-3.0,,<div style='margin:auto;width: auto; font-size: 150%'><span style='font-weight: bold; font-size: 100px; color: red;'>0 points!</span><br><br></div>,,delaylearn,learning,feedback_image_window,05fLMX3mo4NUYHG91PAMESsSlj92,05fLMX3mo4NUYHG91PAMESsSlj92,,,,,,,,,,,,,,,,,,,,,,656514f9443092badedb7003,09:07:17,27/02/2024
html-keyboard-response,56,120293,0.0-25.0,,"<div style=""font-size:100px;"">+</div>",,delaylearn,learning,ITI,05fLMX3mo4NUYHG91PAMESsSlj92,05fLMX3mo4NUYHG91PAMESsSlj92,,,,,,,,,,,,,,,,,,,1712.0,,,656514f9443092badedb7003,09:07:17,27/02/2024
html-keyboard-response,57,121411,0.0-26.0-0.0,1114.5,"<div style=""display: flex; flex-direction: column; align-items: center; margin-top: -40px;""><img src=""images/pattern_6.png"" style=""width: 234px; height: 230px; margin-top: -50px;""><div style=""display: flex; justify-content: space-between; margin-top: 33px;""><img src=""images/choice_trial_11.png"" style=""width: 408px; height: 417px; margin-right: 200px;""><img src=""images/choice_trial_5.png"" style=""width: 408px; height: 417px;""></div></div>",j,delaylearn,learning,trial,05fLMX3mo4NUYHG91PAMESsSlj92,05fLMX3mo4NUYHG91PAMESsSlj92,2.0,images/choice_trial_11.png,images/choice_trial_5.png,images/pattern_6.png,j,f,750.0,11.0,5.0,5.0,0.0,11.0,0.0,1.0,5.0,60.0,,,,,,656514f9443092badedb7003,09:07:17,27/02/2024
html-keyboard-response,58,122419,0.0-26.0-1.0,,"<div style=""display: flex; flex-direction: column; align-items: center; margin-top: -40px;""><img src=""images/pattern_6.png"" style=""width: 234px; height: 230px; margin-top: -50px;""><div style=""display: flex; justify-content: space-between; margin-top: 33px;""><img src=""images/choice_trial_5.png"" style=""width: 408px; height: 417px; margin-left:608px;""></div></div>",,delaylearn,learning,display_response,05fLMX3mo4NUYHG91PAMESsSlj92,05fLMX3mo4NUYHG91PAMESsSlj92,,,,,,,,,,,,,,,,,chosen stimuli: images/choice_trial_5.png,,,,,656514f9443092badedb7003,09:07:17,27/02/2024
html-keyboard-response,59,123186,0.0-26.0-2.0,,,,delaylearn,learning,feedback_duration_window,05fLMX3mo4NUYHG91PAMESsSlj92,05fLMX3mo4NUYHG91PAMESsSlj92,,,,,,,,,,,,,,,,,,750.0,,,,656514f9443092badedb7003,09:07:17,27/02/2024
html-keyboard-response,60,124697,0.0-26.0-3.0,,<div style='margin:auto;width: auto; font-size: 150%'><span style='font-weight: bold; font-size: 100px; color: green;'>+10 points!</span><br><br></div>,,delaylearn,learning,feedback_image_window,05fLMX3mo4NUYHG91PAMESsSlj92,05fLMX3mo4NUYHG91PAMESsSlj92,,,,,,,,,,,,,,,,,,,,,,656514f9443092badedb7003,09:07:17,27/02/2024
html-keyboard-response,61,125199,0.0-27.0-0.0,,,,,,mood_trial_fixation,05fLMX3mo4NUYHG91PAMESsSlj92,,,,,,,,,,,,,,,,,,,,,,,656514f9443092badedb7003,09:07:17,27/02/2024
lmdlab-html-vas-response,62,130516,0.0-27.0-1.0,4307.0,How happy are you right now?,0.4976851851851852,delaylearn,learning,mood_trial,05fLMX3mo4NUYHG91PAMESsSlj92,05fLMX3mo4NUYHG91PAMESsSlj92,,,,,,,,,,,,,,,,,,,,"['Very unhappy', 'Very happy']",,656514f9443092badedb7003,09:07:17,27/02/2024
html-keyboard-response,63,132760,0.0-28.0,,"<div style=""font-size:100px;"">+</div>",,delaylearn,learning,ITI,05fLMX3mo4NUYHG91PAMESsSlj92,05fLMX3mo4NUYHG91PAMESsSlj92,,,,,,,,,,,,,,,,,,,2229.0,,,656514f9443092badedb7003,09:07:17,27/02/2024
html-keyboard-response,64,133717,0.0-29.0-0.0,953.2000000476837,"<div style=""display: flex; flex-direction: column; align-items: center; margin-top: -40px;""><img src=""images/pattern_1.png"" style=""width: 234px; height: 230px; margin-top: -50px;""><div style=""display: flex; justify-content: space-between; margin-top: 33px;""><img src=""images/choice_trial_10.png"" style=""width: 408px; height: 417px; margin-right: 200px;""><img src=""images/choice_trial_3.png"" style=""width: 408px; height: 417px;""></div></div>",j,delaylearn,learning,trial,05fLMX3mo4NUYHG91PAMESsSlj92,05fLMX3mo4NUYHG91PAMESsSlj92,2.0,images/choice_trial_10.png,images/choice_trial_3.png,images/pattern_1.png,j,j,7000.0,10.0,3.0,1.0,1.0,12.0,1.0,1.0,3.0,70.0,,,,,,656514f9443092badedb7003,09:07:17,27/02/2024
html-keyboard-response,65,134734,0.0-29.0-1.0,,"<div style=""display: flex; flex-direction: column; align-items: center; margin-top: -40px;""><img src=""images/pattern_1.png"" style=""width: 234px; height: 230px; margin-top: -50px;""><div style=""display: flex; justify-content: space-between; margin-top: 33px;""><img src=""images/choice_trial_3.png"" style=""width: 408px; height: 417px; margin-left:608px;""></div></div>",,delaylearn,learning,display_response,05fLMX3mo4NUYHG91PAMESsSlj92,05fLMX3mo4NUYHG91PAMESsSlj92,,,,,,,,,,,,,,,,,chosen stimuli: images/choice_trial_3.png,,,,,656514f9443092badedb7003,09:07:17,27/02/2024
html-keyboard-response,66,141749,0.0-29.0-2.0,,,,delaylearn,learning,feedback_duration_window,05fLMX3mo4NUYHG91PAMESsSlj92,05fLMX3mo4NUYHG91PAMESsSlj92,,,,,,,,,,,,,,,,,,7000.0,,,,656514f9443092badedb7003,09:07:17,27/02/2024
html-keyboard-response,67,143260,0.0-29.0-3.0,,<div style='margin:auto;width: auto; font-size: 150%'><span style='font-weight: bold; font-size: 100px; color: green;'>+10 points!</span><br><br></div>,,delaylearn,learning,feedback_image_window,05fLMX3mo4NUYHG91PAMESsSlj92,05fLMX3mo4NUYHG91PAMESsSlj92,,,,,,,,,,,,,,,,,,,,,,656514f9443092badedb7003,09:07:17,27/02/2024
html-keyboard-response,68,145413,0.0-30.0,,"<div style=""font-size:100px;"">+</div>",,delaylearn,learning,ITI,05fLMX3mo4NUYHG91PAMESsSlj92,05fLMX3mo4NUYHG91PAMESsSlj92,,,,,,,,,,,,,,,,,,,2146.0,,,656514f9443092badedb7003,09:07:17,27/02/2024
html-keyboard-response,69,146407,0.0-31.0-0.0,990.3000000119209,"<div style=""display: flex; flex-direction: column; align-items: center; margin-top: -40px;""><img src=""images/pattern_3.png"" style=""width: 234px; height: 230px; margin-top: -50px;""><div style=""display: flex; justify-content: space-between; margin-top: 33px;""><img src=""images/choice_trial_14.png"" style=""width: 408px; height: 417px; margin-right: 200px;""><img src=""images/choice_trial_12.png"" style=""width: 408px; height: 417px;""></div></div>",f,delaylearn,learning,trial,05fLMX3mo4NUYHG91PAMESsSlj92,05fLMX3mo4NUYHG91PAMESsSlj92,2.0,images/choice_trial_14.png,images/choice_trial_12.png,images/pattern_3.png,f,j,7000.0,14.0,12.0,2.0,1.0,13.0,0.0,1.0,14.0,80.0,,,,,,656514f9443092badedb7003,09:07:17,27/02/2024
html-keyboard-response,70,147418,0.0-31.0-1.0,,"<div style=""display: flex; flex-direction: column; align-items: center; margin-top: -40px;""><img src=""images/pattern_3.png"" style=""width: 234px; height: 230px; margin-top: -50px;""><div style=""display: flex; justify-content: space-between; margin-top: 33px;""><img src=""images/choice_trial_14.png"" style=""width: 408px; height: 417px; margin-right: 608px;""></div></div>",,delaylearn,learning,display_response,05fLMX3mo4NUYHG91PAMESsSlj92,05fLMX3mo4NUYHG91PAMESsSlj92,,,,,,,,,,,,,,,,,chosen stimuli: images/choice_trial_14.png,,,,,656514f9443092badedb7003,09:07:17,27/02/2024
html-keyboard-response,71,154432,0.0-31.0-2.0,,,,delaylearn,learning,feedback_duration_window,05fLMX3mo4NUYHG91PAMESsSlj92,05fLMX3mo4NUYHG91PAMESsSlj92,,,,,,,,,,,,,,,,,,7000.0,,,,656514f9443092badedb7003,09:07:17,27/02/2024
html-keyboard-response,72,155949,0.0-31.0-3.0,,<div style='margin:auto;width: auto; font-size: 150%'><span style='font-weight: bold; font-size: 100px; color: green;'>+10 points!</span><br><br></div>,,delaylearn,learning,feedback_image_window,05fLMX3mo4NUYHG91PAMESsSlj92,05fLMX3mo4NUYHG91PAMESsSlj92,,,,,,,,,,,,,,,,,,,,,,656514f9443092badedb7003,09:07:17,27/02/2024
html-keyboard-response,73,158328,0.0-32.0,,"<div style=""font-size:100px;"">+</div>",,delaylearn,learning,ITI,05fLMX3mo4NUYHG91PAMESsSlj92,05fLMX3mo4NUYHG91PAMESsSlj92,,,,,,,,,,,,,,,,,,,2365.0,,,656514f9443092badedb7003,09:07:17,27/02/2024
html-keyboard-response,74,159416,0.0-33.0-0.0,1084.300000011921,"<div style=""display: flex; flex-direction: column; align-items: center; margin-top: -40px;""><img src=""images/pattern_5.png"" style=""width: 234px; height: 230px; margin-top: -50px;""><div style=""display: flex; justify-content: space-between; margin-top: 33px;""><img src=""images/choice_trial_2.png"" style=""width: 408px; height: 417px; margin-right: 200px;""><img src=""images/choice_trial_9.png"" style=""width: 408px; height: 417px;""></div></div>",f,delaylearn,learning,trial,05fLMX3mo4NUYHG91PAMESsSlj92,05fLMX3mo4NUYHG91PAMESsSlj92,2.0,images/choice_trial_2.png,images/choice_trial_9.png,images/pattern_5.png,f,f,750.0,2.0,9.0,4.0,0.0,14.0,1.0,1.0,2.0,90.0,,,,,,656514f9443092badedb7003,09:07:17,27/02/2024
html-keyboard-response,75,160426,0.0-33.0-1.0,,"<div style=""display: flex; flex-direction: column; align-items: center; margin-top: -40px;""><img src=""images/pattern_5.png"" style=""width: 234px; height: 230px; margin-top: -50px;""><div style=""display: flex; justify-content: space-between; margin-top: 33px;""><img src=""images/choice_trial_2.png"" style=""width: 408px; height: 417px; margin-right: 608px;""></div></div>",,delaylearn,learning,display_response,05fLMX3mo4NUYHG91PAMESsSlj92,05fLMX3mo4NUYHG91PAMESsSlj92,,,,,,,,,,,,,,,,,chosen stimuli: images/choice_trial_2.png,,,,,656514f9443092badedb7003,09:07:17,27/02/2024
html-keyboard-response,76,161179,0.0-33.0-2.0,,,,delaylearn,learning,feedback_duration_window,05fLMX3mo4NUYHG91PAMESsSlj92,05fLMX3mo4NUYHG91PAMESsSlj92,,,,,,,,,,,,,,,,,,750.0,,,,656514f9443092badedb7003,09:07:17,27/02/2024
html-keyboard-response,77,162695,0.0-33.0-3.0,,<div style='margin:auto;width: auto; font-size: 150%'><span style='font-weight: bold; font-size: 100px; color: green;'>+10 points!</span><br><br></div>,,delaylearn,learning,feedback_image_window,05fLMX3mo4NUYHG91PAMESsSlj92,05fLMX3mo4NUYHG91PAMESsSlj92,,,,,,,,,,,,,,,,,,,,,,656514f9443092badedb7003,09:07:17,27/02/2024
html-keyboard-response,78,163200,0.0-34.0-0.0,,,,,,mood_trial_fixation,05fLMX3mo4NUYHG91PAMESsSlj92,,,,,,,,,,,,,,,,,,,,,,,656514f9443092badedb7003,09:07:17,27/02/2024
lmdlab-html-vas-response,79,168912,0.0-34.0-1.0,4705.0,How happy are you right now?,0.7685185185185185,delaylearn,learning,mood_trial,05fLMX3mo4NUYHG91PAMESsSlj92,05fLMX3mo4NUYHG91PAMESsSlj92,,,,,,,,,,,,,,,,,,,,"['Very unhappy', 'Very happy']",,656514f9443092badedb7003,09:07:17,27/02/2024
html-keyboard-response,80,171172,0.0-35.0,,"<div style=""font-size:100px;"">+</div>",,delaylearn,learning,ITI,05fLMX3mo4NUYHG91PAMESsSlj92,05fLMX3mo4NUYHG91PAMESsSlj92,,,,,,,,,,,,,,,,,,,2248.0,,,656514f9443092badedb7003,09:07:17,27/02/2024
html-keyboard-response,81,172381,0.0-36.0-0.0,1204.6000000238419,"<div style=""display: flex; flex-direction: column; align-items: center; margin-top: -40px;""><img src=""images/pattern_6.png"" style=""width: 234px; height: 230px; margin-top: -50px;""><div style=""display: flex; justify-content: space-between; margin-top: 33px;""><img src=""images/choice_trial_11.png"" style=""width: 408px; height: 417px; margin-right: 200px;""><img src=""images/choice_trial_5.png"" style=""width: 408px; height: 417px;""></div></div>",f,delaylearn,learning,trial,05fLMX3mo4NUYHG91PAMESsSlj92,05fLMX3mo4NUYHG91PAMESsSlj92,2.0,images/choice_trial_11.png,images/choice_trial_5.png,images/pattern_6.png,f,f,750.0,11.0,5.0,5.0,0.0,15.0,1.0,1.0,11.0,100.0,,,,,,656514f9443092badedb7003,09:07:17,27/02/2024
html-keyboard-response,82,173399,0.0-36.0-1.0,,"<div style=""display: flex; flex-direction: column; align-items: center; margin-top: -40px;""><img src=""images/pattern_6.png"" style=""width: 234px; height: 230px; margin-top: -50px;""><div style=""display: flex; justify-content: space-between; margin-top: 33px;""><img src=""images/choice_trial_11.png"" style=""width: 408px; height: 417px; margin-right: 608px;""></div></div>",,delaylearn,learning,display_response,05fLMX3mo4NUYHG91PAMESsSlj92,05fLMX3mo4NUYHG91PAMESsSlj92,,,,,,,,,,,,,,,,,chosen stimuli: images/choice_trial_11.png,,,,,656514f9443092badedb7003,09:07:17,27/02/2024
html-keyboard-response,83,174156,0.0-36.0-2.0,,,,delaylearn,learning,feedback_duration_window,05fLMX3mo4NUYHG91PAMESsSlj92,05fLMX3mo4NUYHG91PAMESsSlj92,,,,,,,,,,,,,,,,,,750.0,,,,656514f9443092badedb7003,09:07:17,27/02/2024
html-keyboard-response,84,175659,0.0-36.0-3.0,,<div style='margin:auto;width: auto; font-size: 150%'><span style='font-weight: bold; font-size: 100px; color: green;'>+10 points!</span><br><br></div>,,delaylearn,learning,feedback_image_window,05fLMX3mo4NUYHG91PAMESsSlj92,05fLMX3mo4NUYHG91PAMESsSlj92,,,,,,,,,,,,,,,,,,,,,,656514f9443092badedb7003,09:07:17,27/02/2024
html-keyboard-response,85,178014,0.0-37.0,,"<div style=""font-size:100px;"">+</div>",,delaylearn,learning,ITI,05fLMX3mo4NUYHG91PAMESsSlj92,05fLMX3mo4NUYHG91PAMESsSlj92,,,,,,,,,,,,,,,,,,,2339.0,,,656514f9443092badedb7003,09:07:17,27/02/2024
html-keyboard-response,86,179208,0.0-38.0-0.0,1190.5999999642372,"<div style=""display: flex; flex-direction: column; align-items: center; margin-top: -40px;""><img src=""images/pattern_4.png"" style=""width: 234px; height: 230px; margin-top: -50px;""><div style=""display: flex; justify-content: space-between; margin-top: 33px;""><img src=""images/choice_trial_16.png"" style=""width: 408px; height: 417px; margin-right: 200px;""><img src=""images/choice_trial_4.png"" style=""width: 408px; height: 417px;""></div></div>",j,delaylearn,learning,trial,05fLMX3mo4NUYHG91PAMESsSlj92,05fLMX3mo4NUYHG91PAMESsSlj92,2.0,images/choice_trial_16.png,images/choice_trial_4.png,images/pattern_4.png,j,j,7000.0,16.0,4.0,3.0,1.0,16.0,1.0,1.0,4.0,110.0,,,,,,656514f9443092badedb7003,09:07:17,27/02/2024
html-keyboard-response,87,180224,0.0-38.0-1.0,,"<div style=""display: flex; flex-direction: column; align-items: center; margin-top: -40px;""><img src=""images/pattern_4.png"" style=""width: 234px; height: 230px; margin-top: -50px;""><div style=""display: flex; justify-content: space-between; margin-top: 33px;""><img src=""images/choice_trial_4.png"" style=""width: 408px; height: 417px; margin-left:608px;""></div></div>",,delaylearn,learning,display_response,05fLMX3mo4NUYHG91PAMESsSlj92,05fLMX3mo4NUYHG91PAMESsSlj92,,,,,,,,,,,,,,,,,chosen stimuli: images/choice_trial_4.png,,,,,656514f9443092badedb7003,09:07:17,27/02/2024
html-keyboard-response,88,187234,0.0-38.0-2.0,,,,delaylearn,learning,feedback_duration_window,05fLMX3mo4NUYHG91PAMESsSlj92,05fLMX3mo4NUYHG91PAMESsSlj92,,,,,,,,,,,,,,,,,,7000.0,,,,656514f9443092badedb7003,09:07:17,27/02/2024
html-keyboard-response,89,188739,0.0-38.0-3.0,,<div style='margin:auto;width: auto; font-size: 150%'><span style='font-weight: bold; font-size: 100px; color: green;'>+10 points!</span><br><br></div>,,delaylearn,learning,feedback_image_window,05fLMX3mo4NUYHG91PAMESsSlj92,05fLMX3mo4NUYHG91PAMESsSlj92,,,,,,,,,,,,,,,,,,,,,,656514f9443092badedb7003,09:07:17,27/02/2024
html-keyboard-response,90,191199,0.0-39.0,,"<div style=""font-size:100px;"">+</div>",,delaylearn,learning,ITI,05fLMX3mo4NUYHG91PAMESsSlj92,05fLMX3mo4NUYHG91PAMESsSlj92,,,,,,,,,,,,,,,,,,,2446.0,,,656514f9443092badedb7003,09:07:17,27/02/2024
html-keyboard-response,91,192205,0.0-40.0-0.0,1002.0,"<div style=""display: flex; flex-direction: column; align-items: center; margin-top: -40px;""><img src=""images/pattern_7.png"" style=""width: 234px; height: 230px; margin-top: -50px;""><div style=""display: flex; justify-content: space-between; margin-top: 33px;""><img src=""images/choice_trial_8.png"" style=""width: 408px; height: 417px; margin-right: 200px;""><img src=""images/choice_trial_15.png"" style=""width: 408px; height: 417px;""></div></div>",j,delaylearn,learning,trial,05fLMX3mo4NUYHG91PAMESsSlj92,05fLMX3mo4NUYHG91PAMESsSlj92,2.0,images/choice_trial_8.png,images/choice_trial_15.png,images/pattern_7.png,j,f,750.0,8.0,15.0,6.0,0.0,17.0,0.0,1.0,15.0,120.0,,,,,,656514f9443092badedb7003,09:07:17,27/02/2024
html-keyboard-response,92,193216,0.0-40.0-1.0,,"<div style=""display: flex; flex-direction: column; align-items: center; margin-top: -40px;""><img src=""images/pattern_7.png"" style=""width: 234px; height: 230px; margin-top: -50px;""><div style=""display: flex; justify-content: space-between; margin-top: 33px;""><img src=""images/choice_trial_15.png"" style=""width: 408px; height: 417px; margin-left:608px;""></div></div>",,delaylearn,learning,display_response,05fLMX3mo4NUYHG91PAMESsSlj92,05fLMX3mo4NUYHG91PAMESsSlj92,,,,,,,,,,,,,,,,,chosen stimuli: images/choice_trial_15.png,,,,,656514f9443092badedb7003,09:07:17,27/02/2024
html-keyboard-response,93,193975,0.0-40.0-2.0,,,,delaylearn,learning,feedback_duration_window,05fLMX3mo4NUYHG91PAMESsSlj92,05fLMX3mo4NUYHG91PAMESsSlj92,,,,,,,,,,,,,,,,,,750.0,,,,656514f9443092badedb7003,09:07:17,27/02/2024
html-keyboard-response,94,195481,0.0-40.0-3.0,,<div style='margin:auto;width: auto; font-size: 150%'><span style='font-weight: bold; font-size: 100px; color: green;'>+10 points!</span><br><br></div>,,delaylearn,learning,feedback_image_window,05fLMX3mo4NUYHG91PAMESsSlj92,05fLMX3mo4NUYHG91PAMESsSlj92,,,,,,,,,,,,,,,,,,,,,,656514f9443092badedb7003,09:07:17,27/02/2024
html-keyboard-response,95,197030,0.0-41.0,,"<div style=""font-size:100px;"">+</div>",,delaylearn,learning,ITI,05fLMX3mo4NUYHG91PAMESsSlj92,05fLMX3mo4NUYHG91PAMESsSlj92,,,,,,,,,,,,,,,,,,,1547.0,,,656514f9443092badedb7003,09:07:17,27/02/2024
html-keyboard-response,96,198517,0.0-42.0-0.0,1483.5,"<div style=""display: flex; flex-direction: column; align-items: center; margin-top: -40px;""><img src=""images/pattern_1.png"" style=""width: 234px; height: 230px; margin-top: -50px;""><div style=""display: flex; justify-content: space-between; margin-top: 33px;""><img src=""images/choice_trial_3.png"" style=""width: 408px; height: 417px; margin-right: 200px;""><img src=""images/choice_trial_10.png"" style=""width: 408px; height: 417px;""></div></div>",f,delaylearn,learning,trial,05fLMX3mo4NUYHG91PAMESsSlj92,05fLMX3mo4NUYHG91PAMESsSlj92,2.0,images/choice_trial_3.png,images/choice_trial_10.png,images/pattern_1.png,f,f,7000.0,3.0,10.0,1.0,0.0,18.0,1.0,1.0,3.0,130.0,,,,,,656514f9443092badedb7003,09:07:17,27/02/2024
html-keyboard-response,97,199531,0.0-42.0-1.0,,"<div style=""display: flex; flex-direction: column; align-items: center; margin-top: -40px;""><img src=""images/pattern_1.png"" style=""width: 234px; height: 230px; margin-top: -50px;""><div style=""display: flex; justify-content: space-between; margin-top: 33px;""><img src=""images/choice_trial_3.png"" style=""width: 408px; height: 417px; margin-right: 608px;""></div></div>",,delaylearn,learning,display_response,05fLMX3mo4NUYHG91PAMESsSlj92,05fLMX3mo4NUYHG91PAMESsSlj92,,,,,,,,,,,,,,,,,chosen stimuli: images/choice_trial_3.png,,,,,656514f9443092badedb7003,09:07:17,27/02/2024
html-keyboard-response,98,206538,0.0-42.0-2.0,,,,delaylearn,learning,feedback_duration_window,05fLMX3mo4NUYHG91PAMESsSlj92,05fLMX3mo4NUYHG91PAMESsSlj92,,,,,,,,,,,,,,,,,,7000.0,,,,656514f9443092badedb7003,09:07:17,27/02/2024
html-keyboard-response,99,208052,0.0-42.0-3.0,,<div style='margin:auto;width: auto; font-size: 150%'><span style='font-weight: bold; font-size: 100px; color: green;'>+10 points!</span><br><br></div>,,delaylearn,learning,feedback_image_window,05fLMX3mo4NUYHG91PAMESsSlj92,05fLMX3mo4NUYHG91PAMESsSlj92,,,,,,,,,,,,,,,,,,,,,,656514f9443092badedb7003,09:07:17,27/02/2024
html-keyboard-response,100,209882,0.0-43.0,,"<div style=""font-size:100px;"">+</div>",,delaylearn,learning,ITI,05fLMX3mo4NUYHG91PAMESsSlj92,05fLMX3mo4NUYHG91PAMESsSlj92,,,,,,,,,,,,,,,,,,,1814.0,,,656514f9443092badedb7003,09:07:17,27/02/2024
html-keyboard-response,101,211388,0.0-44.0-0.0,1503.2000000476837,"<div style=""display: flex; flex-direction: column; align-items: center; margin-top: -40px;""><img src=""images/pattern_6.png"" style=""width: 234px; height: 230px; margin-top: -50px;""><div style=""display: flex; justify-content: space-between; margin-top: 33px;""><img src=""images/choice_trial_5.png"" style=""width: 408px; height: 417px; margin-right: 200px;""><img src=""images/choice_trial_11.png"" style=""width: 408px; height: 417px;""></div></div>",j,delaylearn,learning,trial,05fLMX3mo4NUYHG91PAMESsSlj92,05fLMX3mo4NUYHG91PAMESsSlj92,2.0,images/choice_trial_5.png,images/choice_trial_11.png,images/pattern_6.png,j,j,750.0,5.0,11.0,5.0,1.0,19.0,1.0,1.0,11.0,140.0,,,,,,656514f9443092badedb7003,09:07:17,27/02/2024
html-keyboard-response,102,212404,0.0-44.0-1.0,,"<div style=""display: flex; flex-direction: column; align-items: center; margin-top: -40px;""><img src=""images/pattern_6.png"" style=""width: 234px; height: 230px; margin-top: -50px;""><div style=""display: flex; justify-content: space-between; margin-top: 33px;""><img src=""images/choice_trial_11.png"" style=""width: 408px; height: 417px; margin-left:608px;""></div></div>",,delaylearn,learning,display_response,05fLMX3mo4NUYHG91PAMESsSlj92,05fLMX3mo4NUYHG91PAMESsSlj92,,,,,,,,,,,,,,,,,chosen stimuli: images/choice_trial_11.png,,,,,656514f9443092badedb7003,09:07:17,27/02/2024
html-keyboard-response,103,213157,0.0-44.0-2.0,,,,delaylearn,learning,feedback_duration_window,05fLMX3mo4NUYHG91PAMESsSlj92,05fLMX3mo4NUYHG91PAMESsSlj92,,,,,,,,,,,,,,,,,,750.0,,,,656514f9443092badedb7003,09:07:17,27/02/2024
html-keyboard-response,104,214665,0.0-44.0-3.0,,<div style='margin:auto;width: auto; font-size: 150%'><span style='font-weight: bold; font-size: 100px; color: green;'>+10 points!</span><br><br></div>,,delaylearn,learning,feedback_image_window,05fLMX3mo4NUYHG91PAMESsSlj92,05fLMX3mo4NUYHG91PAMESsSlj92,,,,,,,,,,,,,,,,,,,,,,656514f9443092badedb7003,09:07:17,27/02/2024
html-keyboard-response,105,216769,0.0-45.0,,"<div style=""font-size:100px;"">+</div>",,delaylearn,learning,ITI,05fLMX3mo4NUYHG91PAMESsSlj92,05fLMX3mo4NUYHG91PAMESsSlj92,,,,,,,,,,,,,,,,,,,2100.0,,,656514f9443092badedb7003,09:07:17,27/02/2024
html-keyboard-response,106,218203,0.0-46.0-0.0,1430.4000000357628,"<div style=""display: flex; flex-direction: column; align-items: center; margin-top: -40px;""><img src=""images/pattern_4.png"" style=""width: 234px; height: 230px; margin-top: -50px;""><div style=""display: flex; justify-content: space-between; margin-top: 33px;""><img src=""images/choice_trial_4.png"" style=""width: 408px; height: 417px; margin-right: 200px;""><img src=""images/choice_trial_16.png"" style=""width: 408px; height: 417px;""></div></div>",f,delaylearn,learning,trial,05fLMX3mo4NUYHG91PAMESsSlj92,05fLMX3mo4NUYHG91PAMESsSlj92,2.0,images/choice_trial_4.png,images/choice_trial_16.png,images/pattern_4.png,f,f,7000.0,4.0,16.0,3.0,0.0,20.0,1.0,1.0,4.0,150.0,,,,,,656514f9443092badedb7003,09:07:17,27/02/2024
html-keyboard-response,107,219210,0.0-46.0-1.0,,"<div style=""display: flex; flex-direction: column; align-items: center; margin-top: -40px;""><img src=""images/pattern_4.png"" style=""width: 234px; height: 230px; margin-top: -50px;""><div style=""display: flex; justify-content: space-between; margin-top: 33px;""><img src=""images/choice_trial_4.png"" style=""width: 408px; height: 417px; margin-right: 608px;""></div></div>",,delaylearn,learning,display_response,05fLMX3mo4NUYHG91PAMESsSlj92,05fLMX3mo4NUYHG91PAMESsSlj92,,,,,,,,,,,,,,,,,chosen stimuli: images/choice_trial_4.png,,,,,656514f9443092badedb7003,09:07:17,27/02/2024
html-keyboard-response,108,226213,0.0-46.0-2.0,,,,delaylearn,learning,feedback_duration_window,05fLMX3mo4NUYHG91PAMESsSlj92,05fLMX3mo4NUYHG91PAMESsSlj92,,,,,,,,,,,,,,,,,,7000.0,,,,656514f9443092badedb7003,09:07:17,27/02/2024
html-keyboard-response,109,227726,0.0-46.0-3.0,,<div style='margin:auto;width: auto; font-size: 150%'><span style='font-weight: bold; font-size: 100px; color: green;'>+10 points!</span><br><br></div>,,delaylearn,learning,feedback_image_window,05fLMX3mo4NUYHG91PAMESsSlj92,05fLMX3mo4NUYHG91PAMESsSlj92,,,,,,,,,,,,,,,,,,,,,,656514f9443092badedb7003,09:07:17,27/02/2024
html-keyboard-response,110,228228,0.0-47.0-0.0,,,,,,mood_trial_fixation,05fLMX3mo4NUYHG91PAMESsSlj92,,,,,,,,,,,,,,,,,,,,,,,656514f9443092badedb7003,09:07:17,27/02/2024
lmdlab-html-vas-response,111,233043,0.0-47.0-1.0,3807.0,How happy are you right now?,0.9745370370370371,delaylearn,learning,mood_trial,05fLMX3mo4NUYHG91PAMESsSlj92,05fLMX3mo4NUYHG91PAMESsSlj92,,,,,,,,,,,,,,,,,,,,"['Very unhappy', 'Very happy']",,656514f9443092badedb7003,09:07:17,27/02/2024
html-keyboard-response,112,234869,0.0-48.0,,"<div style=""font-size:100px;"">+</div>",,delaylearn,learning,ITI,05fLMX3mo4NUYHG91PAMESsSlj92,05fLMX3mo4NUYHG91PAMESsSlj92,,,,,,,,,,,,,,,,,,,1817.0,,,656514f9443092badedb7003,09:07:17,27/02/2024
html-keyboard-response,113,236121,0.0-49.0-0.0,1248.699999988079,"<div style=""display: flex; flex-direction: column; align-items: center; margin-top: -40px;""><img src=""images/pattern_7.png"" style=""width: 234px; height: 230px; margin-top: -50px;""><div style=""display: flex; justify-content: space-between; margin-top: 33px;""><img src=""images/choice_trial_15.png"" style=""width: 408px; height: 417px; margin-right: 200px;""><img src=""images/choice_trial_8.png"" style=""width: 408px; height: 417px;""></div></div>",f,delaylearn,learning,trial,05fLMX3mo4NUYHG91PAMESsSlj92,05fLMX3mo4NUYHG91PAMESsSlj92,2.0,images/choice_trial_15.png,images/choice_trial_8.png,images/pattern_7.png,j,j,750.0,15.0,8.0,6.0,1.0,21.0,0.0,0.0,15.0,150.0,,,,,,656514f9443092badedb7003,09:07:17,27/02/2024
html-keyboard-response,114,237134,0.0-49.0-1.0,,"<div style=""display: flex; flex-direction: column; align-items: center; margin-top: -40px;""><img src=""images/pattern_7.png"" style=""width: 234px; height: 230px; margin-top: -50px;""><div style=""display: flex; justify-content: space-between; margin-top: 33px;""><img src=""images/choice_trial_15.png"" style=""width: 408px; height: 417px; margin-right: 608px;""></div></div>",,delaylearn,learning,display_response,05fLMX3mo4NUYHG91PAMESsSlj92,05fLMX3mo4NUYHG91PAMESsSlj92,,,,,,,,,,,,,,,,,chosen stimuli: images/choice_trial_15.png,,,,,656514f9443092badedb7003,09:07:17,27/02/2024
html-keyboard-response,115,237900,0.0-49.0-2.0,,,,delaylearn,learning,feedback_duration_window,05fLMX3mo4NUYHG91PAMESsSlj92,05fLMX3mo4NUYHG91PAMESsSlj92,,,,,,,,,,,,,,,,,,750.0,,,,656514f9443092badedb7003,09:07:17,27/02/2024
html-keyboard-response,116,239415,0.0-49.0-3.0,,<div style='margin:auto;width: auto; font-size: 150%'><span style='font-weight: bold; font-size: 100px; color: red;'>0 points!</span><br><br></div>,,delaylearn,learning,feedback_image_window,05fLMX3mo4NUYHG91PAMESsSlj92,05fLMX3mo4NUYHG91PAMESsSlj92,,,,,,,,,,,,,,,,,,,,,,656514f9443092badedb7003,09:07:17,27/02/2024
html-keyboard-response,117,241584,0.0-50.0,,"<div style=""font-size:100px;"">+</div>",,delaylearn,learning,ITI,05fLMX3mo4NUYHG91PAMESsSlj92,05fLMX3mo4NUYHG91PAMESsSlj92,,,,,,,,,,,,,,,,,,,2159.0,,,656514f9443092badedb7003,09:07:17,27/02/2024
html-keyboard-response,118,242876,0.0-51.0-0.0,1290.0,"<div style=""display: flex; flex-direction: column; align-items: center; margin-top: -40px;""><img src=""images/pattern_1.png"" style=""width: 234px; height: 230px; margin-top: -50px;""><div style=""display: flex; justify-content: space-between; margin-top: 33px;""><img src=""images/choice_trial_10.png"" style=""width: 408px; height: 417px; margin-right: 200px;""><img src=""images/choice_trial_3.png"" style=""width: 408px; height: 417px;""></div></div>",j,delaylearn,learning,trial,05fLMX3mo4NUYHG91PAMESsSlj92,05fLMX3mo4NUYHG91PAMESsSlj92,2.0,images/choice_trial_10.png,images/choice_trial_3.png,images/pattern_1.png,f,j,7000.0,10.0,3.0,1.0,1.0,22.0,1.0,0.0,3.0,150.0,,,,,,656514f9443092badedb7003,09:07:17,27/02/2024
html-keyboard-response,119,243888,0.0-51.0-1.0,,"<div style=""display: flex; flex-direction: column; align-items: center; margin-top: -40px;""><img src=""images/pattern_1.png"" style=""width: 234px; height: 230px; margin-top: -50px;""><div style=""display: flex; justify-content: space-between; margin-top: 33px;""><img src=""images/choice_trial_3.png"" style=""width: 408px; height: 417px; margin-left:608px;""></div></div>",,delaylearn,learning,display_response,05fLMX3mo4NUYHG91PAMESsSlj92,05fLMX3mo4NUYHG91PAMESsSlj92,,,,,,,,,,,,,,,,,chosen stimuli: images/choice_trial_3.png,,,,,656514f9443092badedb7003,09:07:17,27/02/2024
html-keyboard-response,120,250893,0.0-51.0-2.0,,,,delaylearn,learning,feedback_duration_window,05fLMX3mo4NUYHG91PAMESsSlj92,05fLMX3mo4NUYHG91PAMESsSlj92,,,,,,,,,,,,,,,,,,7000.0,,,,656514f9443092badedb7003,09:07:17,27/02/2024
html-keyboard-response,121,252405,0.0-51.0-3.0,,<div style='margin:auto;width: auto; font-size: 150%'><span style='font-weight: bold; font-size: 100px; color: red;'>0 points!</span><br><br></div>,,delaylearn,learning,feedback_image_window,05fLMX3mo4NUYHG91PAMESsSlj92,05fLMX3mo4NUYHG91PAMESsSlj92,,,,,,,,,,,,,,,,,,,,,,656514f9443092badedb7003,09:07:17,27/02/2024
html-keyboard-response,122,254860,0.0-52.0,,"<div style=""font-size:100px;"">+</div>",,delaylearn,learning,ITI,05fLMX3mo4NUYHG91PAMESsSlj92,05fLMX3mo4NUYHG91PAMESsSlj92,,,,,,,,,,,,,,,,,,,2450.0,,,656514f9443092badedb7003,09:07:17,27/02/2024
html-keyboard-response,123,255789,0.0-53.0-0.0,925.8000000119209,"<div style=""display: flex; flex-direction: column; align-items: center; margin-top: -40px;""><img src=""images/pattern_5.png"" style=""width: 234px; height: 230px; margin-top: -50px;""><div style=""display: flex; justify-content: space-between; margin-top: 33px;""><img src=""images/choice_trial_9.png"" style=""width: 408px; height: 417px; margin-right: 200px;""><img src=""images/choice_trial_2.png"" style=""width: 408px; height: 417px;""></div></div>",f,delaylearn,learning,trial,05fLMX3mo4NUYHG91PAMESsSlj92,05fLMX3mo4NUYHG91PAMESsSlj92,2.0,images/choice_trial_9.png,images/choice_trial_2.png,images/pattern_5.png,j,j,750.0,9.0,2.0,4.0,1.0,23.0,0.0,0.0,9.0,150.0,,,,,,656514f9443092badedb7003,09:07:17,27/02/2024
html-keyboard-response,124,256798,0.0-53.0-1.0,,"<div style=""display: flex; flex-direction: column; align-items: center; margin-top: -40px;""><img src=""images/pattern_5.png"" style=""width: 234px; height: 230px; margin-top: -50px;""><div style=""display: flex; justify-content: space-between; margin-top: 33px;""><img src=""images/choice_trial_9.png"" style=""width: 408px; height: 417px; margin-right: 608px;""></div></div>",,delaylearn,learning,display_response,05fLMX3mo4NUYHG91PAMESsSlj92,05fLMX3mo4NUYHG91PAMESsSlj92,,,,,,,,,,,,,,,,,chosen stimuli: images/choice_trial_9.png,,,,,656514f9443092badedb7003,09:07:17,27/02/2024
html-keyboard-response,125,257553,0.0-53.0-2.0,,,,delaylearn,learning,feedback_duration_window,05fLMX3mo4NUYHG91PAMESsSlj92,05fLMX3mo4NUYHG91PAMESsSlj92,,,,,,,,,,,,,,,,,,750.0,,,,656514f9443092badedb7003,09:07:17,27/02/2024
html-keyboard-response,126,259055,0.0-53.0-3.0,,<div style='margin:auto;width: auto; font-size: 150%'><span style='font-weight: bold; font-size: 100px; color: red;'>0 points!</span><br><br></div>,,delaylearn,learning,feedback_image_window,05fLMX3mo4NUYHG91PAMESsSlj92,05fLMX3mo4NUYHG91PAMESsSlj92,,,,,,,,,,,,,,,,,,,,,,656514f9443092badedb7003,09:07:17,27/02/2024
html-keyboard-response,127,260810,0.0-54.0,,"<div style=""font-size:100px;"">+</div>",,delaylearn,learning,ITI,05fLMX3mo4NUYHG91PAMESsSlj92,05fLMX3mo4NUYHG91PAMESsSlj92,,,,,,,,,,,,,,,,,,,1744.0,,,656514f9443092badedb7003,09:07:17,27/02/2024
html-keyboard-response,128,262431,0.0-55.0-0.0,1617.4000000357628,"<div style=""display: flex; flex-direction: column; align-items: center; margin-top: -40px;""><img src=""images/pattern_3.png"" style=""width: 234px; height: 230px; margin-top: -50px;""><div style=""display: flex; justify-content: space-between; margin-top: 33px;""><img src=""images/choice_trial_14.png"" style=""width: 408px; height: 417px; margin-right: 200px;""><img src=""images/choice_trial_12.png"" style=""width: 408px; height: 417px;""></div></div>",f,delaylearn,learning,trial,05fLMX3mo4NUYHG91PAMESsSlj92,05fLMX3mo4NUYHG91PAMESsSlj92,2.0,images/choice_trial_14.png,images/choice_trial_12.png,images/pattern_3.png,j,j,7000.0,14.0,12.0,2.0,1.0,24.0,0.0,0.0,14.0,150.0,,,,,,656514f9443092badedb7003,09:07:17,27/02/2024
html-keyboard-response,129,263448,0.0-55.0-1.0,,"<div style=""display: flex; flex-direction: column; align-items: center; margin-top: -40px;""><img src=""images/pattern_3.png"" style=""width: 234px; height: 230px; margin-top: -50px;""><div style=""display: flex; justify-content: space-between; margin-top: 33px;""><img src=""images/choice_trial_14.png"" style=""width: 408px; height: 417px; margin-right: 608px;""></div></div>",,delaylearn,learning,display_response,05fLMX3mo4NUYHG91PAMESsSlj92,05fLMX3mo4NUYHG91PAMESsSlj92,,,,,,,,,,,,,,,,,chosen stimuli: images/choice_trial_14.png,,,,,656514f9443092badedb7003,09:07:17,27/02/2024
html-keyboard-response,130,270454,0.0-55.0-2.0,,,,delaylearn,learning,feedback_duration_window,05fLMX3mo4NUYHG91PAMESsSlj92,05fLMX3mo4NUYHG91PAMESsSlj92,,,,,,,,,,,,,,,,,,7000.0,,,,656514f9443092badedb7003,09:07:17,27/02/2024
html-keyboard-response,131,271963,0.0-55.0-3.0,,<div style='margin:auto;width: auto; font-size: 150%'><span style='font-weight: bold; font-size: 100px; color: red;'>0 points!</span><br><br></div>,,delaylearn,learning,feedback_image_window,05fLMX3mo4NUYHG91PAMESsSlj92,05fLMX3mo4NUYHG91PAMESsSlj92,,,,,,,,,,,,,,,,,,,,,,656514f9443092badedb7003,09:07:17,27/02/2024
lmdlab-html-vas-response,132,282610,0.0-56.0-0.0,9128.0,*How <b><u>confident</u></b> are you feeling about your answers at this moment?*,0.4444444444444444,rewlearn,rate_confidence,,05fLMX3mo4NUYHG91PAMESsSlj92,05fLMX3mo4NUYHG91PAMESsSlj92,,,,,,,,,,,,,,,,,,,,"['No confidence', 'Complete confidence']",,656514f9443092badedb7003,09:07:17,27/02/2024
lmdlab-rest-trial-limit,133,297529,0.0-56.0-1.0,13413.900000035763,"<div style=""font-size:40px;""><b>Please take a break!</b><br><br><br><br><p>Great work: you earned undefined points.<br><br><br><p>You have completed part(s) 1 of 6.<br><br><br><br>When you are ready to continue<br><br><br>please click the button.</p><br><br>",0,delaylearn,learning,break,05fLMX3mo4NUYHG91PAMESsSlj92,05fLMX3mo4NUYHG91PAMESsSlj92,,,,,,,,,,,,,,,,,,,,,0.0,656514f9443092badedb7003,09:07:17,27/02/2024
html-keyboard-response,134,300543,0.0-56.0-2.0,,"<div style=""font-size:100px;"">+</div>",,delaylearn,learning,pre_fixation,05fLMX3mo4NUYHG91PAMESsSlj92,,,,,,,,,,,,,,,,,,,,,,,656514f9443092badedb7003,09:07:17,27/02/2024
lmdlab-html-vas-response,135,306605,0.0-56.0-3.0-0.0,5048.0,How happy are you right now?,0.46296296296296297,delaylearn,learning,mood_baseline,05fLMX3mo4NUYHG91PAMESsSlj92,05fLMX3mo4NUYHG91PAMESsSlj92,,,,,,,,,,,,,,,,,,,,"['Very unhappy', 'Very happy']",,656514f9443092badedb7003,09:07:17,27/02/2024
html-keyboard-response,136,308114,0.0-56.0-3.0-1.0,,,,,,mood_baseline_fixation,05fLMX3mo4NUYHG91PAMESsSlj92,,,,,,,,,,,,,,,,,,,,,,,656514f9443092badedb7003,09:07:17,27/02/2024
html-keyboard-response,137,310068,0.0-57.0,,"<div style=""font-size:100px;"">+</div>",,delaylearn,learning,ITI,05fLMX3mo4NUYHG91PAMESsSlj92,05fLMX3mo4NUYHG91PAMESsSlj92,,,,,,,,,,,,,,,,,,,1952.0,,,656514f9443092badedb7003,09:07:17,27/02/2024
html-keyboard-response,138,311126,0.0-58.0-0.0,1055.300000011921,"<div style=""display: flex; flex-direction: column; align-items: center; margin-top: -40px;""><img src=""images/pattern_7.png"" style=""width: 234px; height: 230px; margin-top: -50px;""><div style=""display: flex; justify-content: space-between; margin-top: 33px;""><img src=""images/choice_trial_15.png"" style=""width: 408px; height: 417px; margin-right: 200px;""><img src=""images/choice_trial_8.png"" style=""width: 408px; height: 417px;""></div></div>",f,delaylearn,learning,trial,05fLMX3mo4NUYHG91PAMESsSlj92,05fLMX3mo4NUYHG91PAMESsSlj92,2.0,images/choice_trial_15.png,images/choice_trial_8.png,images/pattern_7.png,j,j,750.0,15.0,8.0,6.0,1.0,25.0,0.0,0.0,15.0,150.0,,,,,,656514f9443092badedb7003,09:07:17,27/02/2024
html-keyboard-response,139,312134,0.0-58.0-1.0,,"<div style=""display: flex; flex-direction: column; align-items: center; margin-top: -40px;""><img src=""images/pattern_7.png"" style=""width: 234px; height: 230px; margin-top: -50px;""><div style=""display: flex; justify-content: space-between; margin-top: 33px;""><img src=""images/choice_trial_15.png"" style=""width: 408px; height: 417px; margin-right: 608px;""></div></div>",,delaylearn,learning,display_response,05fLMX3mo4NUYHG91PAMESsSlj92,05fLMX3mo4NUYHG91PAMESsSlj92,,,,,,,,,,,,,,,,,chosen stimuli: images/choice_trial_15.png,,,,,656514f9443092badedb7003,09:07:17,27/02/2024
html-keyboard-response,140,312891,0.0-58.0-2.0,,,,delaylearn,learning,feedback_duration_window,05fLMX3mo4NUYHG91PAMESsSlj92,05fLMX3mo4NUYHG91PAMESsSlj92,,,,,,,,,,,,,,,,,,750.0,,,,656514f9443092badedb7003,09:07:17,27/02/2024
html-keyboard-response,141,314395,0.0-58.0-3.0,,<div style='margin:auto;width: auto; font-size: 150%'><span style='font-weight: bold; font-size: 100px; color: red;'>0 points!</span><br><br></div>,,delaylearn,learning,feedback_image_window,05fLMX3mo4NUYHG91PAMESsSlj92,05fLMX3mo4NUYHG91PAMESsSlj92,,,,,,,,,,,,,,,,,,,,,,656514f9443092badedb7003,09:07:17,27/02/2024
html-keyboard-response,142,314903,0.0-59.0-0.0,,,,,,mood_trial_fixation,05fLMX3mo4NUYHG91PAMESsSlj92,,,,,,,,,,,,,,,,,,,,,,,656514f9443092badedb7003,09:07:17,27/02/2024
lmdlab-html-vas-response,143,319804,0.0-59.0-1.0,3889.0,How happy are you right now?,0.2824074074074074,delaylearn,learning,mood_trial,05fLMX3mo4NUYHG91PAMESsSlj92,05fLMX3mo4NUYHG91PAMESsSlj92,,,,,,,,,,,,,,,,,,,,"['Very unhappy', 'Very happy']",,656514f9443092badedb7003,09:07:17,27/02/2024
html-keyboard-response,144,321318,0.0-60.0,,"<div style=""font-size:100px;"">+</div>",,delaylearn,learning,ITI,05fLMX3mo4NUYHG91PAMESsSlj92,05fLMX3mo4NUYHG91PAMESsSlj92,,,,,,,,,,,,,,,,,,,1511.0,,,656514f9443092badedb7003,09:07:17,27/02/2024
html-keyboard-response,145,322576,0.0-61.0-0.0,1254.199999988079,"<div style=""display: flex; flex-direction: column; align-items: center; margin-top: -40px;""><img src=""images/pattern_1.png"" style=""width: 234px; height: 230px; margin-top: -50px;""><div style=""display: flex; justify-content: space-between; margin-top: 33px;""><img src=""images/choice_trial_3.png"" style=""width: 408px; height: 417px; margin-right: 200px;""><img src=""images/choice_trial_10.png"" style=""width: 408px; height: 417px;""></div></div>",j,delaylearn,learning,trial,05fLMX3mo4NUYHG91PAMESsSlj92,05fLMX3mo4NUYHG91PAMESsSlj92,2.0,images/choice_trial_3.png,images/choice_trial_10.png,images/pattern_1.png,f,f,7000.0,3.0,10.0,1.0,0.0,26.0,0.0,0.0,10.0,150.0,,,,,,656514f9443092badedb7003,09:07:17,27/02/2024
html-keyboard-response,146,323587,0.0-61.0-1.0,,"<div style=""display: flex; flex-direction: column; align-items: center; margin-top: -40px;""><img src=""images/pattern_1.png"" style=""width: 234px; height: 230px; margin-top: -50px;""><div style=""display: flex; justify-content: space-between; margin-top: 33px;""><img src=""images/choice_trial_10.png"" style=""width: 408px; height: 417px; margin-left:608px;""></div></div>",,delaylearn,learning,display_response,05fLMX3mo4NUYHG91PAMESsSlj92,05fLMX3mo4NUYHG91PAMESsSlj92,,,,,,,,,,,,,,,,,chosen stimuli: images/choice_trial_10.png,,,,,656514f9443092badedb7003,09:07:17,27/02/2024
html-keyboard-response,147,330601,0.0-61.0-2.0,,,,delaylearn,learning,feedback_duration_window,05fLMX3mo4NUYHG91PAMESsSlj92,05fLMX3mo4NUYHG91PAMESsSlj92,,,,,,,,,,,,,,,,,,7000.0,,,,656514f9443092badedb7003,09:07:17,27/02/2024
html-keyboard-response,148,332114,0.0-61.0-3.0,,<div style='margin:auto;width: auto; font-size: 150%'><span style='font-weight: bold; font-size: 100px; color: red;'>0 points!</span><br><br></div>,,delaylearn,learning,feedback_image_window,05fLMX3mo4NUYHG91PAMESsSlj92,05fLMX3mo4NUYHG91PAMESsSlj92,,,,,,,,,,,,,,,,,,,,,,656514f9443092badedb7003,09:07:17,27/02/2024
html-keyboard-response,149,334361,0.0-62.0,,"<div style=""font-size:100px;"">+</div>",,delaylearn,learning,ITI,05fLMX3mo4NUYHG91PAMESsSlj92,05fLMX3mo4NUYHG91PAMESsSlj92,,,,,,,,,,,,,,,,,,,2233.0,,,656514f9443092badedb7003,09:07:17,27/02/2024
html-keyboard-response,150,335436,0.0-63.0-0.0,1070.800000011921,"<div style=""display: flex; flex-direction: column; align-items: center; margin-top: -40px;""><img src=""images/pattern_5.png"" style=""width: 234px; height: 230px; margin-top: -50px;""><div style=""display: flex; justify-content: space-between; margin-top: 33px;""><img src=""images/choice_trial_2.png"" style=""width: 408px; height: 417px; margin-right: 200px;""><img src=""images/choice_trial_9.png"" style=""width: 408px; height: 417px;""></div></div>",f,delaylearn,learning,trial,05fLMX3mo4NUYHG91PAMESsSlj92,05fLMX3mo4NUYHG91PAMESsSlj92,2.0,images/choice_trial_2.png,images/choice_trial_9.png,images/pattern_5.png,f,f,750.0,2.0,9.0,4.0,0.0,27.0,1.0,1.0,2.0,160.0,,,,,,656514f9443092badedb7003,09:07:17,27/02/2024
html-keyboard-response,151,336450,0.0-63.0-1.0,,"<div style=""display: flex; flex-direction: column; align-items: center; margin-top: -40px;""><img src=""images/pattern_5.png"" style=""width: 234px; height: 230px; margin-top: -50px;""><div style=""display: flex; justify-content: space-between; margin-top: 33px;""><img src=""images/choice_trial_2.png"" style=""width: 408px; height: 417px; margin-right: 608px;""></div></div>",,delaylearn,learning,display_response,05fLMX3mo4NUYHG91PAMESsSlj92,05fLMX3mo4NUYHG91PAMESsSlj92,,,,,,,,,,,,,,,,,chosen stimuli: images/choice_trial_2.png,,,,,656514f9443092badedb7003,09:07:17,27/02/2024
html-keyboard-response,152,337204,0.0-63.0-2.0,,,,delaylearn,learning,feedback_duration_window,05fLMX3mo4NUYHG91PAMESsSlj92,05fLMX3mo4NUYHG91PAMESsSlj92,,,,,,,,,,,,,,,,,,750.0,,,,656514f9443092badedb7003,09:07:17,27/02/2024
html-keyboard-response,153,338713,0.0-63.0-3.0,,<div style='margin:auto;width: auto; font-size: 150%'><span style='font-weight: bold; font-size: 100px; color: green;'>+10 points!</span><br><br></div>,,delaylearn,learning,feedback_image_window,05fLMX3mo4NUYHG91PAMESsSlj92,05fLMX3mo4NUYHG91PAMESsSlj92,,,,,,,,,,,,,,,,,,,,,,656514f9443092badedb7003,09:07:17,27/02/2024
html-keyboard-response,154,340364,0.0-64.0,,"<div style=""font-size:100px;"">+</div>",,delaylearn,learning,ITI,05fLMX3mo4NUYHG91PAMESsSlj92,05fLMX3mo4NUYHG91PAMESsSlj92,,,,,,,,,,,,,,,,,,,1646.0,,,656514f9443092badedb7003,09:07:17,27/02/2024
html-keyboard-response,155,342495,0.0-65.0-0.0,2126.099999964237,"<div style=""display: flex; flex-direction: column; align-items: center; margin-top: -40px;""><img src=""images/pattern_6.png"" style=""width: 234px; height: 230px; margin-top: -50px;""><div style=""display: flex; justify-content: space-between; margin-top: 33px;""><img src=""images/choice_trial_5.png"" style=""width: 408px; height: 417px; margin-right: 200px;""><img src=""images/choice_trial_11.png"" style=""width: 408px; height: 417px;""></div></div>",f,delaylearn,learning,trial,05fLMX3mo4NUYHG91PAMESsSlj92,05fLMX3mo4NUYHG91PAMESsSlj92,2.0,images/choice_trial_5.png,images/choice_trial_11.png,images/pattern_6.png,j,j,750.0,5.0,11.0,5.0,1.0,28.0,0.0,0.0,5.0,160.0,,,,,,656514f9443092badedb7003,09:07:17,27/02/2024
html-keyboard-response,156,343509,0.0-65.0-1.0,,"<div style=""display: flex; flex-direction: column; align-items: center; margin-top: -40px;""><img src=""images/pattern_6.png"" style=""width: 234px; height: 230px; margin-top: -50px;""><div style=""display: flex; justify-content: space-between; margin-top: 33px;""><img src=""images/choice_trial_5.png"" style=""width: 408px; height: 417px; margin-right: 608px;""></div></div>",,delaylearn,learning,display_response,05fLMX3mo4NUYHG91PAMESsSlj92,05fLMX3mo4NUYHG91PAMESsSlj92,,,,,,,,,,,,,,,,,chosen stimuli: images/choice_trial_5.png,,,,,656514f9443092badedb7003,09:07:17,27/02/2024
html-keyboard-response,157,344267,0.0-65.0-2.0,,,,delaylearn,learning,feedback_duration_window,05fLMX3mo4NUYHG91PAMESsSlj92,05fLMX3mo4NUYHG91PAMESsSlj92,,,,,,,,,,,,,,,,,,750.0,,,,656514f9443092badedb7003,09:07:17,27/02/2024
html-keyboard-response,158,345781,0.0-65.0-3.0,,<div style='margin:auto;width: auto; font-size: 150%'><span style='font-weight: bold; font-size: 100px; color: red;'>0 points!</span><br><br></div>,,delaylearn,learning,feedback_image_window,05fLMX3mo4NUYHG91PAMESsSlj92,05fLMX3mo4NUYHG91PAMESsSlj92,,,,,,,,,,,,,,,,,,,,,,656514f9443092badedb7003,09:07:17,27/02/2024
html-keyboard-response,159,346291,0.0-66.0-0.0,,,,,,mood_trial_fixation,05fLMX3mo4NUYHG91PAMESsSlj92,,,,,,,,,,,,,,,,,,,,,,,656514f9443092badedb7003,09:07:17,27/02/2024
lmdlab-html-vas-response,160,351372,0.0-66.0-1.0,4073.0,How happy are you right now?,0.47685185185185186,delaylearn,learning,mood_trial,05fLMX3mo4NUYHG91PAMESsSlj92,05fLMX3mo4NUYHG91PAMESsSlj92,,,,,,,,,,,,,,,,,,,,"['Very unhappy', 'Very happy']",,656514f9443092badedb7003,09:07:17,27/02/2024
html-keyboard-response,161,353278,0.0-67.0,,"<div style=""font-size:100px;"">+</div>",,delaylearn,learning,ITI,05fLMX3mo4NUYHG91PAMESsSlj92,05fLMX3mo4NUYHG91PAMESsSlj92,,,,,,,,,,,,,,,,,,,1891.0,,,656514f9443092badedb7003,09:07:17,27/02/2024
html-keyboard-response,162,355892,0.0-68.0-0.0,2609.600000023842,"<div style=""display: flex; flex-direction: column; align-items: center; margin-top: -40px;""><img src=""images/pattern_4.png"" style=""width: 234px; height: 230px; margin-top: -50px;""><div style=""display: flex; justify-content: space-between; margin-top: 33px;""><img src=""images/choice_trial_16.png"" style=""width: 408px; height: 417px; margin-right: 200px;""><img src=""images/choice_trial_4.png"" style=""width: 408px; height: 417px;""></div></div>",j,delaylearn,learning,trial,05fLMX3mo4NUYHG91PAMESsSlj92,05fLMX3mo4NUYHG91PAMESsSlj92,2.0,images/choice_trial_16.png,images/choice_trial_4.png,images/pattern_4.png,j,j,7000.0,16.0,4.0,3.0,1.0,29.0,1.0,1.0,4.0,170.0,,,,,,656514f9443092badedb7003,09:07:17,27/02/2024
html-keyboard-response,163,356904,0.0-68.0-1.0,,"<div style=""display: flex; flex-direction: column; align-items: center; margin-top: -40px;""><img src=""images/pattern_4.png"" style=""width: 234px; height: 230px; margin-top: -50px;""><div style=""display: flex; justify-content: space-between; margin-top: 33px;""><img src=""images/choice_trial_4.png"" style=""width: 408px; height: 417px; margin-left:608px;""></div></div>",,delaylearn,learning,display_response,05fLMX3mo4NUYHG91PAMESsSlj92,05fLMX3mo4NUYHG91PAMESsSlj92,,,,,,,,,,,,,,,,,chosen stimuli: images/choice_trial_4.png,,,,,656514f9443092badedb7003,09:07:17,27/02/2024
html-keyboard-response,164,363917,0.0-68.0-2.0,,,,delaylearn,learning,feedback_duration_window,05fLMX3mo4NUYHG91PAMESsSlj92,05fLMX3mo4NUYHG91PAMESsSlj92,,,,,,,,,,,,,,,,,,7000.0,,,,656514f9443092badedb7003,09:07:17,27/02/2024
html-keyboard-response,165,365429,0.0-68.0-3.0,,<div style='margin:auto;width: auto; font-size: 150%'><span style='font-weight: bold; font-size: 100px; color: green;'>+10 points!</span><br><br></div>,,delaylearn,learning,feedback_image_window,05fLMX3mo4NUYHG91PAMESsSlj92,05fLMX3mo4NUYHG91PAMESsSlj92,,,,,,,,,,,,,,,,,,,,,,656514f9443092badedb7003,09:07:17,27/02/2024
html-keyboard-response,166,367158,0.0-69.0,,"<div style=""font-size:100px;"">+</div>",,delaylearn,learning,ITI,05fLMX3mo4NUYHG91PAMESsSlj92,05fLMX3mo4NUYHG91PAMESsSlj92,,,,,,,,,,,,,,,,,,,1724.0,,,656514f9443092badedb7003,09:07:17,27/02/2024
html-keyboard-response,167,368576,0.0-70.0-0.0,1414.9000000357628,"<div style=""display: flex; flex-direction: column; align-items: center; margin-top: -40px;""><img src=""images/pattern_3.png"" style=""width: 234px; height: 230px; margin-top: -50px;""><div style=""display: flex; justify-content: space-between; margin-top: 33px;""><img src=""images/choice_trial_14.png"" style=""width: 408px; height: 417px; margin-right: 200px;""><img src=""images/choice_trial_12.png"" style=""width: 408px; height: 417px;""></div></div>",j,delaylearn,learning,trial,05fLMX3mo4NUYHG91PAMESsSlj92,05fLMX3mo4NUYHG91PAMESsSlj92,2.0,images/choice_trial_14.png,images/choice_trial_12.png,images/pattern_3.png,j,j,7000.0,14.0,12.0,2.0,1.0,30.0,1.0,1.0,12.0,180.0,,,,,,656514f9443092badedb7003,09:07:17,27/02/2024
html-keyboard-response,168,369579,0.0-70.0-1.0,,"<div style=""display: flex; flex-direction: column; align-items: center; margin-top: -40px;""><img src=""images/pattern_3.png"" style=""width: 234px; height: 230px; margin-top: -50px;""><div style=""display: flex; justify-content: space-between; margin-top: 33px;""><img src=""images/choice_trial_12.png"" style=""width: 408px; height: 417px; margin-left:608px;""></div></div>",,delaylearn,learning,display_response,05fLMX3mo4NUYHG91PAMESsSlj92,05fLMX3mo4NUYHG91PAMESsSlj92,,,,,,,,,,,,,,,,,chosen stimuli: images/choice_trial_12.png,,,,,656514f9443092badedb7003,09:07:17,27/02/2024
html-keyboard-response,169,376581,0.0-70.0-2.0,,,,delaylearn,learning,feedback_duration_window,05fLMX3mo4NUYHG91PAMESsSlj92,05fLMX3mo4NUYHG91PAMESsSlj92,,,,,,,,,,,,,,,,,,7000.0,,,,656514f9443092badedb7003,09:07:17,27/02/2024
html-keyboard-response,170,378099,0.0-70.0-3.0,,<div style='margin:auto;width: auto; font-size: 150%'><span style='font-weight: bold; font-size: 100px; color: green;'>+10 points!</span><br><br></div>,,delaylearn,learning,feedback_image_window,05fLMX3mo4NUYHG91PAMESsSlj92,05fLMX3mo4NUYHG91PAMESsSlj92,,,,,,,,,,,,,,,,,,,,,,656514f9443092badedb7003,09:07:17,27/02/2024
html-keyboard-response,171,379825,0.0-71.0,,"<div style=""font-size:100px;"">+</div>",,delaylearn,learning,ITI,05fLMX3mo4NUYHG91PAMESsSlj92,05fLMX3mo4NUYHG91PAMESsSlj92,,,,,,,,,,,,,,,,,,,1711.0,,,656514f9443092badedb7003,09:07:17,27/02/2024
html-keyboard-response,172,381022,0.0-72.0-0.0,1193.5,"<div style=""display: flex; flex-direction: column; align-items: center; margin-top: -40px;""><img src=""images/pattern_5.png"" style=""width: 234px; height: 230px; margin-top: -50px;""><div style=""display: flex; justify-content: space-between; margin-top: 33px;""><img src=""images/choice_trial_2.png"" style=""width: 408px; height: 417px; margin-right: 200px;""><img src=""images/choice_trial_9.png"" style=""width: 408px; height: 417px;""></div></div>",f,delaylearn,learning,trial,05fLMX3mo4NUYHG91PAMESsSlj92,05fLMX3mo4NUYHG91PAMESsSlj92,2.0,images/choice_trial_2.png,images/choice_trial_9.png,images/pattern_5.png,j,f,750.0,2.0,9.0,4.0,0.0,31.0,1.0,0.0,2.0,180.0,,,,,,656514f9443092badedb7003,09:07:17,27/02/2024
html-keyboard-response,173,382030,0.0-72.0-1.0,,"<div style=""display: flex; flex-direction: column; align-items: center; margin-top: -40px;""><img src=""images/pattern_5.png"" style=""width: 234px; height: 230px; margin-top: -50px;""><div style=""display: flex; justify-content: space-between; margin-top: 33px;""><img src=""images/choice_trial_2.png"" style=""width: 408px; height: 417px; margin-right: 608px;""></div></div>",,delaylearn,learning,display_response,05fLMX3mo4NUYHG91PAMESsSlj92,05fLMX3mo4NUYHG91PAMESsSlj92,,,,,,,,,,,,,,,,,chosen stimuli: images/choice_trial_2.png,,,,,656514f9443092badedb7003,09:07:17,27/02/2024
html-keyboard-response,174,382786,0.0-72.0-2.0,,,,delaylearn,learning,feedback_duration_window,05fLMX3mo4NUYHG91PAMESsSlj92,05fLMX3mo4NUYHG91PAMESsSlj92,,,,,,,,,,,,,,,,,,750.0,,,,656514f9443092badedb7003,09:07:17,27/02/2024
html-keyboard-response,175,384296,0.0-72.0-3.0,,<div style='margin:auto;width: auto; font-size: 150%'><span style='font-weight: bold; font-size: 100px; color: red;'>0 points!</span><br><br></div>,,delaylearn,learning,feedback_image_window,05fLMX3mo4NUYHG91PAMESsSlj92,05fLMX3mo4NUYHG91PAMESsSlj92,,,,,,,,,,,,,,,,,,,,,,656514f9443092badedb7003,09:07:17,27/02/2024
html-keyboard-response,176,386396,0.0-73.0,,"<div style=""font-size:100px;"">+</div>",,delaylearn,learning,ITI,05fLMX3mo4NUYHG91PAMESsSlj92,05fLMX3mo4NUYHG91PAMESsSlj92,,,,,,,,,,,,,,,,,,,2086.0,,,656514f9443092badedb7003,09:07:17,27/02/2024
html-keyboard-response,177,387552,0.0-74.0-0.0,1152.0999999642372,"<div style=""display: flex; flex-direction: column; align-items: center; margin-top: -40px;""><img src=""images/pattern_1.png"" style=""width: 234px; height: 230px; margin-top: -50px;""><div style=""display: flex; justify-content: space-between; margin-top: 33px;""><img src=""images/choice_trial_3.png"" style=""width: 408px; height: 417px; margin-right: 200px;""><img src=""images/choice_trial_10.png"" style=""width: 408px; height: 417px;""></div></div>",f,delaylearn,learning,trial,05fLMX3mo4NUYHG91PAMESsSlj92,05fLMX3mo4NUYHG91PAMESsSlj92,2.0,images/choice_trial_3.png,images/choice_trial_10.png,images/pattern_1.png,f,f,7000.0,3.0,10.0,1.0,0.0,32.0,1.0,1.0,3.0,190.0,,,,,,656514f9443092badedb7003,09:07:17,27/02/2024
html-keyboard-response,178,388561,0.0-74.0-1.0,,"<div style=""display: flex; flex-direction: column; align-items: center; margin-top: -40px;""><img src=""images/pattern_1.png"" style=""width: 234px; height: 230px; margin-top: -50px;""><div style=""display: flex; justify-content: space-between; margin-top: 33px;""><img src=""images/choice_trial_3.png"" style=""width: 408px; height: 417px; margin-right: 608px;""></div></div>",,delaylearn,learning,display_response,05fLMX3mo4NUYHG91PAMESsSlj92,05fLMX3mo4NUYHG91PAMESsSlj92,,,,,,,,,,,,,,,,,chosen stimuli: images/choice_trial_3.png,,,,,656514f9443092badedb7003,09:07:17,27/02/2024
html-keyboard-response,179,395566,0.0-74.0-2.0,,,,delaylearn,learning,feedback_duration_window,05fLMX3mo4NUYHG91PAMESsSlj92,05fLMX3mo4NUYHG91PAMESsSlj92,,,,,,,,,,,,,,,,,,7000.0,,,,656514f9443092badedb7003,09:07:17,27/02/2024
html-keyboard-response,180,397075,0.0-74.0-3.0,,<div style='margin:auto;width: auto; font-size: 150%'><span style='font-weight: bold; font-size: 100px; color: green;'>+10 points!</span><br><br></div>,,delaylearn,learning,feedback_image_window,05fLMX3mo4NUYHG91PAMESsSlj92,05fLMX3mo4NUYHG91PAMESsSlj92,,,,,,,,,,,,,,,,,,,,,,656514f9443092badedb7003,09:07:17,27/02/2024
html-keyboard-response,181,397577,0.0-75.0-0.0,,,,,,mood_trial_fixation,05fLMX3mo4NUYHG91PAMESsSlj92,,,,,,,,,,,,,,,,,,,,,,,656514f9443092badedb7003,09:07:17,27/02/2024
lmdlab-html-vas-response,182,402869,0.0-75.0-1.0,4274.0,How happy are you right now?,0.4675925925925926,delaylearn,learning,mood_trial,05fLMX3mo4NUYHG91PAMESsSlj92,05fLMX3mo4NUYHG91PAMESsSlj92,,,,,,,,,,,,,,,,,,,,"['Very unhappy', 'Very happy']",,656514f9443092badedb7003,09:07:17,27/02/2024
html-keyboard-response,183,404413,0.0-76.0,,"<div style=""font-size:100px;"">+</div>",,delaylearn,learning,ITI,05fLMX3mo4NUYHG91PAMESsSlj92,05fLMX3mo4NUYHG91PAMESsSlj92,,,,,,,,,,,,,,,,,,,1537.0,,,656514f9443092badedb7003,09:07:17,27/02/2024
html-keyboard-response,184,405420,0.0-77.0-0.0,1002.8000000119209,"<div style=""display: flex; flex-direction: column; align-items: center; margin-top: -40px;""><img src=""images/pattern_6.png"" style=""width: 234px; height: 230px; margin-top: -50px;""><div style=""display: flex; justify-content: space-between; margin-top: 33px;""><img src=""images/choice_trial_11.png"" style=""width: 408px; height: 417px; margin-right: 200px;""><img src=""images/choice_trial_5.png"" style=""width: 408px; height: 417px;""></div></div>",f,delaylearn,learning,trial,05fLMX3mo4NUYHG91PAMESsSlj92,05fLMX3mo4NUYHG91PAMESsSlj92,2.0,images/choice_trial_11.png,images/choice_trial_5.png,images/pattern_6.png,j,f,750.0,11.0,5.0,5.0,0.0,33.0,1.0,0.0,11.0,190.0,,,,,,656514f9443092badedb7003,09:07:17,27/02/2024
html-keyboard-response,185,406435,0.0-77.0-1.0,,"<div style=""display: flex; flex-direction: column; align-items: center; margin-top: -40px;""><img src=""images/pattern_6.png"" style=""width: 234px; height: 230px; margin-top: -50px;""><div style=""display: flex; justify-content: space-between; margin-top: 33px;""><img src=""images/choice_trial_11.png"" style=""width: 408px; height: 417px; margin-right: 608px;""></div></div>",,delaylearn,learning,display_response,05fLMX3mo4NUYHG91PAMESsSlj92,05fLMX3mo4NUYHG91PAMESsSlj92,,,,,,,,,,,,,,,,,chosen stimuli: images/choice_trial_11.png,,,,,656514f9443092badedb7003,09:07:17,27/02/2024
html-keyboard-response,186,407194,0.0-77.0-2.0,,,,delaylearn,learning,feedback_duration_window,05fLMX3mo4NUYHG91PAMESsSlj92,05fLMX3mo4NUYHG91PAMESsSlj92,,,,,,,,,,,,,,,,,,750.0,,,,656514f9443092badedb7003,09:07:17,27/02/2024
html-keyboard-response,187,408712,0.0-77.0-3.0,,<div style='margin:auto;width: auto; font-size: 150%'><span style='font-weight: bold; font-size: 100px; color: red;'>0 points!</span><br><br></div>,,delaylearn,learning,feedback_image_window,05fLMX3mo4NUYHG91PAMESsSlj92,05fLMX3mo4NUYHG91PAMESsSlj92,,,,,,,,,,,,,,,,,,,,,,656514f9443092badedb7003,09:07:17,27/02/2024
html-keyboard-response,188,410273,0.0-78.0,,"<div style=""font-size:100px;"">+</div>",,delaylearn,learning,ITI,05fLMX3mo4NUYHG91PAMESsSlj92,05fLMX3mo4NUYHG91PAMESsSlj92,,,,,,,,,,,,,,,,,,,1558.0,,,656514f9443092badedb7003,09:07:17,27/02/2024
html-keyboard-response,189,411497,0.0-79.0-0.0,1220.2000000476837,"<div style=""display: flex; flex-direction: column; align-items: center; margin-top: -40px;""><img src=""images/pattern_3.png"" style=""width: 234px; height: 230px; margin-top: -50px;""><div style=""display: flex; justify-content: space-between; margin-top: 33px;""><img src=""images/choice_trial_14.png"" style=""width: 408px; height: 417px; margin-right: 200px;""><img src=""images/choice_trial_12.png"" style=""width: 408px; height: 417px;""></div></div>",j,delaylearn,learning,trial,05fLMX3mo4NUYHG91PAMESsSlj92,05fLMX3mo4NUYHG91PAMESsSlj92,2.0,images/choice_trial_14.png,images/choice_trial_12.png,images/pattern_3.png,j,j,7000.0,14.0,12.0,2.0,1.0,34.0,1.0,1.0,12.0,200.0,,,,,,656514f9443092badedb7003,09:07:17,27/02/2024
html-keyboard-response,190,412510,0.0-79.0-1.0,,"<div style=""display: flex; flex-direction: column; align-items: center; margin-top: -40px;""><img src=""images/pattern_3.png"" style=""width: 234px; height: 230px; margin-top: -50px;""><div style=""display: flex; justify-content: space-between; margin-top: 33px;""><img src=""images/choice_trial_12.png"" style=""width: 408px; height: 417px; margin-left:608px;""></div></div>",,delaylearn,learning,display_response,05fLMX3mo4NUYHG91PAMESsSlj92,05fLMX3mo4NUYHG91PAMESsSlj92,,,,,,,,,,,,,,,,,chosen stimuli: images/choice_trial_12.png,,,,,656514f9443092badedb7003,09:07:17,27/02/2024
html-keyboard-response,191,419517,0.0-79.0-2.0,,,,delaylearn,learning,feedback_duration_window,05fLMX3mo4NUYHG91PAMESsSlj92,05fLMX3mo4NUYHG91PAMESsSlj92,,,,,,,,,,,,,,,,,,7000.0,,,,656514f9443092badedb7003,09:07:17,27/02/2024
html-keyboard-response,192,421029,0.0-79.0-3.0,,<div style='margin:auto;width: auto; font-size: 150%'><span style='font-weight: bold; font-size: 100px; color: green;'>+10 points!</span><br><br></div>,,delaylearn,learning,feedback_image_window,05fLMX3mo4NUYHG91PAMESsSlj92,05fLMX3mo4NUYHG91PAMESsSlj92,,,,,,,,,,,,,,,,,,,,,,656514f9443092badedb7003,09:07:17,27/02/2024
html-keyboard-response,193,423296,0.0-80.0,,"<div style=""font-size:100px;"">+</div>",,delaylearn,learning,ITI,05fLMX3mo4NUYHG91PAMESsSlj92,05fLMX3mo4NUYHG91PAMESsSlj92,,,,,,,,,,,,,,,,,,,2253.0,,,656514f9443092badedb7003,09:07:17,27/02/2024
html-keyboard-response,194,425404,0.0-81.0-0.0,2103.7000000476837,"<div style=""display: flex; flex-direction: column; align-items: center; margin-top: -40px;""><img src=""images/pattern_4.png"" style=""width: 234px; height: 230px; margin-top: -50px;""><div style=""display: flex; justify-content: space-between; margin-top: 33px;""><img src=""images/choice_trial_16.png"" style=""width: 408px; height: 417px; margin-right: 200px;""><img src=""images/choice_trial_4.png"" style=""width: 408px; height: 417px;""></div></div>",f,delaylearn,learning,trial,05fLMX3mo4NUYHG91PAMESsSlj92,05fLMX3mo4NUYHG91PAMESsSlj92,2.0,images/choice_trial_16.png,images/choice_trial_4.png,images/pattern_4.png,f,j,7000.0,16.0,4.0,3.0,1.0,35.0,0.0,1.0,16.0,210.0,,,,,,656514f9443092badedb7003,09:07:17,27/02/2024
html-keyboard-response,195,426408,0.0-81.0-1.0,,"<div style=""display: flex; flex-direction: column; align-items: center; margin-top: -40px;""><img src=""images/pattern_4.png"" style=""width: 234px; height: 230px; margin-top: -50px;""><div style=""display: flex; justify-content: space-between; margin-top: 33px;""><img src=""images/choice_trial_16.png"" style=""width: 408px; height: 417px; margin-right: 608px;""></div></div>",,delaylearn,learning,display_response,05fLMX3mo4NUYHG91PAMESsSlj92,05fLMX3mo4NUYHG91PAMESsSlj92,,,,,,,,,,,,,,,,,chosen stimuli: images/choice_trial_16.png,,,,,656514f9443092badedb7003,09:07:17,27/02/2024
html-keyboard-response,196,433410,0.0-81.0-2.0,,,,delaylearn,learning,feedback_duration_window,05fLMX3mo4NUYHG91PAMESsSlj92,05fLMX3mo4NUYHG91PAMESsSlj92,,,,,,,,,,,,,,,,,,7000.0,,,,656514f9443092badedb7003,09:07:17,27/02/2024
html-keyboard-response,197,434919,0.0-81.0-3.0,,<div style='margin:auto;width: auto; font-size: 150%'><span style='font-weight: bold; font-size: 100px; color: green;'>+10 points!</span><br><br></div>,,delaylearn,learning,feedback_image_window,05fLMX3mo4NUYHG91PAMESsSlj92,05fLMX3mo4NUYHG91PAMESsSlj92,,,,,,,,,,,,,,,,,,,,,,656514f9443092badedb7003,09:07:17,27/02/2024
html-keyboard-response,198,436850,0.0-82.0,,"<div style=""font-size:100px;"">+</div>",,delaylearn,learning,ITI,05fLMX3mo4NUYHG91PAMESsSlj92,05fLMX3mo4NUYHG91PAMESsSlj92,,,,,,,,,,,,,,,,,,,1917.0,,,656514f9443092badedb7003,09:07:17,27/02/2024
html-keyboard-response,199,438695,0.0-83.0-0.0,1840.699999988079,"<div style=""display: flex; flex-direction: column; align-items: center; margin-top: -40px;""><img src=""images/pattern_7.png"" style=""width: 234px; height: 230px; margin-top: -50px;""><div style=""display: flex; justify-content: space-between; margin-top: 33px;""><img src=""images/choice_trial_8.png"" style=""width: 408px; height: 417px; margin-right: 200px;""><img src=""images/choice_trial_15.png"" style=""width: 408px; height: 417px;""></div></div>",f,delaylearn,learning,trial,05fLMX3mo4NUYHG91PAMESsSlj92,05fLMX3mo4NUYHG91PAMESsSlj92,2.0,images/choice_trial_8.png,images/choice_trial_15.png,images/pattern_7.png,f,f,750.0,8.0,15.0,6.0,0.0,36.0,1.0,1.0,8.0,220.0,,,,,,656514f9443092badedb7003,09:07:17,27/02/2024
html-keyboard-response,200,439706,0.0-83.0-1.0,,"<div style=""display: flex; flex-direction: column; align-items: center; margin-top: -40px;""><img src=""images/pattern_7.png"" style=""width: 234px; height: 230px; margin-top: -50px;""><div style=""display: flex; justify-content: space-between; margin-top: 33px;""><img src=""images/choice_trial_8.png"" style=""width: 408px; height: 417px; margin-right: 608px;""></div></div>",,delaylearn,learning,display_response,05fLMX3mo4NUYHG91PAMESsSlj92,05fLMX3mo4NUYHG91PAMESsSlj92,,,,,,,,,,,,,,,,,chosen stimuli: images/choice_trial_8.png,,,,,656514f9443092badedb7003,09:07:17,27/02/2024
html-keyboard-response,201,440465,0.0-83.0-2.0,,,,delaylearn,learning,feedback_duration_window,05fLMX3mo4NUYHG91PAMESsSlj92,05fLMX3mo4NUYHG91PAMESsSlj92,,,,,,,,,,,,,,,,,,750.0,,,,656514f9443092badedb7003,09:07:17,27/02/2024
html-keyboard-response,202,441973,0.0-83.0-3.0,,<div style='margin:auto;width: auto; font-size: 150%'><span style='font-weight: bold; font-size: 100px; color: green;'>+10 points!</span><br><br></div>,,delaylearn,learning,feedback_image_window,05fLMX3mo4NUYHG91PAMESsSlj92,05fLMX3mo4NUYHG91PAMESsSlj92,,,,,,,,,,,,,,,,,,,,,,656514f9443092badedb7003,09:07:17,27/02/2024
html-keyboard-response,203,443942,0.0-84.0,,"<div style=""font-size:100px;"">+</div>",,delaylearn,learning,ITI,05fLMX3mo4NUYHG91PAMESsSlj92,05fLMX3mo4NUYHG91PAMESsSlj92,,,,,,,,,,,,,,,,,,,1959.0,,,656514f9443092badedb7003,09:07:17,27/02/2024
html-keyboard-response,204,445410,0.0-85.0-0.0,1466.699999988079,"<div style=""display: flex; flex-direction: column; align-items: center; margin-top: -40px;""><img src=""images/pattern_1.png"" style=""width: 234px; height: 230px; margin-top: -50px;""><div style=""display: flex; justify-content: space-between; margin-top: 33px;""><img src=""images/choice_trial_3.png"" style=""width: 408px; height: 417px; margin-right: 200px;""><img src=""images/choice_trial_10.png"" style=""width: 408px; height: 417px;""></div></div>",f,delaylearn,learning,trial,05fLMX3mo4NUYHG91PAMESsSlj92,05fLMX3mo4NUYHG91PAMESsSlj92,2.0,images/choice_trial_3.png,images/choice_trial_10.png,images/pattern_1.png,f,f,7000.0,3.0,10.0,1.0,0.0,37.0,1.0,1.0,3.0,230.0,,,,,,656514f9443092badedb7003,09:07:17,27/02/2024
html-keyboard-response,205,446417,0.0-85.0-1.0,,"<div style=""display: flex; flex-direction: column; align-items: center; margin-top: -40px;""><img src=""images/pattern_1.png"" style=""width: 234px; height: 230px; margin-top: -50px;""><div style=""display: flex; justify-content: space-between; margin-top: 33px;""><img src=""images/choice_trial_3.png"" style=""width: 408px; height: 417px; margin-right: 608px;""></div></div>",,delaylearn,learning,display_response,05fLMX3mo4NUYHG91PAMESsSlj92,05fLMX3mo4NUYHG91PAMESsSlj92,,,,,,,,,,,,,,,,,chosen stimuli: images/choice_trial_3.png,,,,,656514f9443092badedb7003,09:07:17,27/02/2024
html-keyboard-response,206,453435,0.0-85.0-2.0,,,,delaylearn,learning,feedback_duration_window,05fLMX3mo4NUYHG91PAMESsSlj92,05fLMX3mo4NUYHG91PAMESsSlj92,,,,,,,,,,,,,,,,,,7000.0,,,,656514f9443092badedb7003,09:07:17,27/02/2024
html-keyboard-response,207,454950,0.0-85.0-3.0,,<div style='margin:auto;width: auto; font-size: 150%'><span style='font-weight: bold; font-size: 100px; color: green;'>+10 points!</span><br><br></div>,,delaylearn,learning,feedback_image_window,05fLMX3mo4NUYHG91PAMESsSlj92,05fLMX3mo4NUYHG91PAMESsSlj92,,,,,,,,,,,,,,,,,,,,,,656514f9443092badedb7003,09:07:17,27/02/2024
html-keyboard-response,208,455464,0.0-86.0-0.0,,,,,,mood_trial_fixation,05fLMX3mo4NUYHG91PAMESsSlj92,,,,,,,,,,,,,,,,,,,,,,,656514f9443092badedb7003,09:07:17,27/02/2024
lmdlab-html-vas-response,209,461217,0.0-86.0-1.0,4733.0,How happy are you right now?,0.7060185185185185,delaylearn,learning,mood_trial,05fLMX3mo4NUYHG91PAMESsSlj92,05fLMX3mo4NUYHG91PAMESsSlj92,,,,,,,,,,,,,,,,,,,,"['Very unhappy', 'Very happy']",,656514f9443092badedb7003,09:07:17,27/02/2024
html-keyboard-response,210,463332,0.0-87.0,,"<div style=""font-size:100px;"">+</div>",,delaylearn,learning,ITI,05fLMX3mo4NUYHG91PAMESsSlj92,05fLMX3mo4NUYHG91PAMESsSlj92,,,,,,,,,,,,,,,,,,,2110.0,,,656514f9443092badedb7003,09:07:17,27/02/2024
html-keyboard-response,211,465579,0.0-88.0-0.0,2242.699999988079,"<div style=""display: flex; flex-direction: column; align-items: center; margin-top: -40px;""><img src=""images/pattern_3.png"" style=""width: 234px; height: 230px; margin-top: -50px;""><div style=""display: flex; justify-content: space-between; margin-top: 33px;""><img src=""images/choice_trial_12.png"" style=""width: 408px; height: 417px; margin-right: 200px;""><img src=""images/choice_trial_14.png"" style=""width: 408px; height: 417px;""></div></div>",f,delaylearn,learning,trial,05fLMX3mo4NUYHG91PAMESsSlj92,05fLMX3mo4NUYHG91PAMESsSlj92,2.0,images/choice_trial_12.png,images/choice_trial_14.png,images/pattern_3.png,j,f,7000.0,12.0,14.0,2.0,0.0,38.0,1.0,0.0,12.0,230.0,,,,,,656514f9443092badedb7003,09:07:17,27/02/2024
html-keyboard-response,212,466584,0.0-88.0-1.0,,"<div style=""display: flex; flex-direction: column; align-items: center; margin-top: -40px;""><img src=""images/pattern_3.png"" style=""width: 234px; height: 230px; margin-top: -50px;""><div style=""display: flex; justify-content: space-between; margin-top: 33px;""><img src=""images/choice_trial_12.png"" style=""width: 408px; height: 417px; margin-right: 608px;""></div></div>",,delaylearn,learning,display_response,05fLMX3mo4NUYHG91PAMESsSlj92,05fLMX3mo4NUYHG91PAMESsSlj92,,,,,,,,,,,,,,,,,chosen stimuli: images/choice_trial_12.png,,,,,656514f9443092badedb7003,09:07:17,27/02/2024
html-keyboard-response,213,473598,0.0-88.0-2.0,,,,delaylearn,learning,feedback_duration_window,05fLMX3mo4NUYHG91PAMESsSlj92,05fLMX3mo4NUYHG91PAMESsSlj92,,,,,,,,,,,,,,,,,,7000.0,,,,656514f9443092badedb7003,09:07:17,27/02/2024
html-keyboard-response,214,475116,0.0-88.0-3.0,,<div style='margin:auto;width: auto; font-size: 150%'><span style='font-weight: bold; font-size: 100px; color: red;'>0 points!</span><br><br></div>,,delaylearn,learning,feedback_image_window,05fLMX3mo4NUYHG91PAMESsSlj92,05fLMX3mo4NUYHG91PAMESsSlj92,,,,,,,,,,,,,,,,,,,,,,656514f9443092badedb7003,09:07:17,27/02/2024
html-keyboard-response,215,477546,0.0-89.0,,"<div style=""font-size:100px;"">+</div>",,delaylearn,learning,ITI,05fLMX3mo4NUYHG91PAMESsSlj92,05fLMX3mo4NUYHG91PAMESsSlj92,,,,,,,,,,,,,,,,,,,2414.0,,,656514f9443092badedb7003,09:07:17,27/02/2024
html-keyboard-response,216,479121,0.0-90.0-0.0,1570.699999988079,"<div style=""display: flex; flex-direction: column; align-items: center; margin-top: -40px;""><img src=""images/pattern_7.png"" style=""width: 234px; height: 230px; margin-top: -50px;""><div style=""display: flex; justify-content: space-between; margin-top: 33px;""><img src=""images/choice_trial_15.png"" style=""width: 408px; height: 417px; margin-right: 200px;""><img src=""images/choice_trial_8.png"" style=""width: 408px; height: 417px;""></div></div>",f,delaylearn,learning,trial,05fLMX3mo4NUYHG91PAMESsSlj92,05fLMX3mo4NUYHG91PAMESsSlj92,2.0,images/choice_trial_15.png,images/choice_trial_8.png,images/pattern_7.png,j,j,750.0,15.0,8.0,6.0,1.0,39.0,0.0,0.0,15.0,230.0,,,,,,656514f9443092badedb7003,09:07:17,27/02/2024
html-keyboard-response,217,480131,0.0-90.0-1.0,,"<div style=""display: flex; flex-direction: column; align-items: center; margin-top: -40px;""><img src=""images/pattern_7.png"" style=""width: 234px; height: 230px; margin-top: -50px;""><div style=""display: flex; justify-content: space-between; margin-top: 33px;""><img src=""images/choice_trial_15.png"" style=""width: 408px; height: 417px; margin-right: 608px;""></div></div>",,delaylearn,learning,display_response,05fLMX3mo4NUYHG91PAMESsSlj92,05fLMX3mo4NUYHG91PAMESsSlj92,,,,,,,,,,,,,,,,,chosen stimuli: images/choice_trial_15.png,,,,,656514f9443092badedb7003,09:07:17,27/02/2024
html-keyboard-response,218,480885,0.0-90.0-2.0,,,,delaylearn,learning,feedback_duration_window,05fLMX3mo4NUYHG91PAMESsSlj92,05fLMX3mo4NUYHG91PAMESsSlj92,,,,,,,,,,,,,,,,,,750.0,,,,656514f9443092badedb7003,09:07:17,27/02/2024
html-keyboard-response,219,482399,0.0-90.0-3.0,,<div style='margin:auto;width: auto; font-size: 150%'><span style='font-weight: bold; font-size: 100px; color: red;'>0 points!</span><br><br></div>,,delaylearn,learning,feedback_image_window,05fLMX3mo4NUYHG91PAMESsSlj92,05fLMX3mo4NUYHG91PAMESsSlj92,,,,,,,,,,,,,,,,,,,,,,656514f9443092badedb7003,09:07:17,27/02/2024
html-keyboard-response,220,484048,0.0-91.0,,"<div style=""font-size:100px;"">+</div>",,delaylearn,learning,ITI,05fLMX3mo4NUYHG91PAMESsSlj92,05fLMX3mo4NUYHG91PAMESsSlj92,,,,,,,,,,,,,,,,,,,1639.0,,,656514f9443092badedb7003,09:07:17,27/02/2024
html-keyboard-response,221,485379,0.0-92.0-0.0,1328.7999999523163,"<div style=""display: flex; flex-direction: column; align-items: center; margin-top: -40px;""><img src=""images/pattern_5.png"" style=""width: 234px; height: 230px; margin-top: -50px;""><div style=""display: flex; justify-content: space-between; margin-top: 33px;""><img src=""images/choice_trial_9.png"" style=""width: 408px; height: 417px; margin-right: 200px;""><img src=""images/choice_trial_2.png"" style=""width: 408px; height: 417px;""></div></div>",j,delaylearn,learning,trial,05fLMX3mo4NUYHG91PAMESsSlj92,05fLMX3mo4NUYHG91PAMESsSlj92,2.0,images/choice_trial_9.png,images/choice_trial_2.png,images/pattern_5.png,j,j,750.0,9.0,2.0,4.0,1.0,40.0,1.0,1.0,2.0,240.0,,,,,,656514f9443092badedb7003,09:07:17,27/02/2024
html-keyboard-response,222,486395,0.0-92.0-1.0,,"<div style=""display: flex; flex-direction: column; align-items: center; margin-top: -40px;""><img src=""images/pattern_5.png"" style=""width: 234px; height: 230px; margin-top: -50px;""><div style=""display: flex; justify-content: space-between; margin-top: 33px;""><img src=""images/choice_trial_2.png"" style=""width: 408px; height: 417px; margin-left:608px;""></div></div>",,delaylearn,learning,display_response,05fLMX3mo4NUYHG91PAMESsSlj92,05fLMX3mo4NUYHG91PAMESsSlj92,,,,,,,,,,,,,,,,,chosen stimuli: images/choice_trial_2.png,,,,,656514f9443092badedb7003,09:07:17,27/02/2024
html-keyboard-response,223,487150,0.0-92.0-2.0,,,,delaylearn,learning,feedback_duration_window,05fLMX3mo4NUYHG91PAMESsSlj92,05fLMX3mo4NUYHG91PAMESsSlj92,,,,,,,,,,,,,,,,,,750.0,,,,656514f9443092badedb7003,09:07:17,27/02/2024
html-keyboard-response,224,488660,0.0-92.0-3.0,,<div style='margin:auto;width: auto; font-size: 150%'><span style='font-weight: bold; font-size: 100px; color: green;'>+10 points!</span><br><br></div>,,delaylearn,learning,feedback_image_window,05fLMX3mo4NUYHG91PAMESsSlj92,05fLMX3mo4NUYHG91PAMESsSlj92,,,,,,,,,,,,,,,,,,,,,,656514f9443092badedb7003,09:07:17,27/02/2024
html-keyboard-response,225,489163,0.0-93.0-0.0,,,,,,mood_trial_fixation,05fLMX3mo4NUYHG91PAMESsSlj92,,,,,,,,,,,,,,,,,,,,,,,656514f9443092badedb7003,09:07:17,27/02/2024
lmdlab-html-vas-response,226,495712,0.0-93.0-1.0,5535.0,How happy are you right now?,0.7916666666666666,delaylearn,learning,mood_trial,05fLMX3mo4NUYHG91PAMESsSlj92,05fLMX3mo4NUYHG91PAMESsSlj92,,,,,,,,,,,,,,,,,,,,"['Very unhappy', 'Very happy']",,656514f9443092badedb7003,09:07:17,27/02/2024
html-keyboard-response,227,497243,0.0-94.0,,"<div style=""font-size:100px;"">+</div>",,delaylearn,learning,ITI,05fLMX3mo4NUYHG91PAMESsSlj92,05fLMX3mo4NUYHG91PAMESsSlj92,,,,,,,,,,,,,,,,,,,1522.0,,,656514f9443092badedb7003,09:07:17,27/02/2024
html-keyboard-response,228,498868,0.0-95.0-0.0,1621.4000000357628,"<div style=""display: flex; flex-direction: column; align-items: center; margin-top: -40px;""><img src=""images/pattern_4.png"" style=""width: 234px; height: 230px; margin-top: -50px;""><div style=""display: flex; justify-content: space-between; margin-top: 33px;""><img src=""images/choice_trial_4.png"" style=""width: 408px; height: 417px; margin-right: 200px;""><img src=""images/choice_trial_16.png"" style=""width: 408px; height: 417px;""></div></div>",j,delaylearn,learning,trial,05fLMX3mo4NUYHG91PAMESsSlj92,05fLMX3mo4NUYHG91PAMESsSlj92,2.0,images/choice_trial_4.png,images/choice_trial_16.png,images/pattern_4.png,f,f,7000.0,4.0,16.0,3.0,0.0,41.0,0.0,0.0,16.0,240.0,,,,,,656514f9443092badedb7003,09:07:17,27/02/2024
html-keyboard-response,229,499877,0.0-95.0-1.0,,"<div style=""display: flex; flex-direction: column; align-items: center; margin-top: -40px;""><img src=""images/pattern_4.png"" style=""width: 234px; height: 230px; margin-top: -50px;""><div style=""display: flex; justify-content: space-between; margin-top: 33px;""><img src=""images/choice_trial_16.png"" style=""width: 408px; height: 417px; margin-left:608px;""></div></div>",,delaylearn,learning,display_response,05fLMX3mo4NUYHG91PAMESsSlj92,05fLMX3mo4NUYHG91PAMESsSlj92,,,,,,,,,,,,,,,,,chosen stimuli: images/choice_trial_16.png,,,,,656514f9443092badedb7003,09:07:17,27/02/2024
html-keyboard-response,230,506890,0.0-95.0-2.0,,,,delaylearn,learning,feedback_duration_window,05fLMX3mo4NUYHG91PAMESsSlj92,05fLMX3mo4NUYHG91PAMESsSlj92,,,,,,,,,,,,,,,,,,7000.0,,,,656514f9443092badedb7003,09:07:17,27/02/2024
html-keyboard-response,231,508397,0.0-95.0-3.0,,<div style='margin:auto;width: auto; font-size: 150%'><span style='font-weight: bold; font-size: 100px; color: red;'>0 points!</span><br><br></div>,,delaylearn,learning,feedback_image_window,05fLMX3mo4NUYHG91PAMESsSlj92,05fLMX3mo4NUYHG91PAMESsSlj92,,,,,,,,,,,,,,,,,,,,,,656514f9443092badedb7003,09:07:17,27/02/2024
html-keyboard-response,232,510865,0.0-96.0,,"<div style=""font-size:100px;"">+</div>",,delaylearn,learning,ITI,05fLMX3mo4NUYHG91PAMESsSlj92,05fLMX3mo4NUYHG91PAMESsSlj92,,,,,,,,,,,,,,,,,,,2452.0,,,656514f9443092badedb7003,09:07:17,27/02/2024
