trial_type,trial_index,time_elapsed,internal_node_id,rt,stimulus,response,exp_name,exp_stage,test_part,subjectID,databaseID,counterbal,choice_stimuli_1,choice_stimuli_2,pattern_stimuli,rewarded_answer,correct_answer,feedback_duration_times,stim_left,stim_right,pair,leftright_counter,trial,response_correct,response_rewarded,chosen_stim,counter,displayed_choice,feedback_durations,ITI_duration,labels,rest_warning,prolificID,start_time,date
pavlovia,0,558,0.0-0.0,,,,,,,8LBNMYgDwaUIvQu16KdMjRfsUlB3,,,,,,,,,,,,,,,,,,,,,,,5d53c991ab3b8500015b7026,16:49:31,27/03/2024
html-keyboard-response,1,3573,0.0-1.0,,"<div style=""font-size:100px;"">+</div>",,delaylearn,learning,pre_fixation,8LBNMYgDwaUIvQu16KdMjRfsUlB3,,,,,,,,,,,,,,,,,,,,,,,5d53c991ab3b8500015b7026,16:49:31,27/03/2024
html-keyboard-response,2,6162,0.0-2.0-0.0,2586.5999999940395,"<div style=""display: flex; flex-direction: column; align-items: center; margin-top: -40px;""><img src=""images/demo_images/pattern_1.png"" style=""width: 234px; height: 230px; margin-top: -50px;""><div style=""display: flex; justify-content: space-between; margin-top: 33px;""><img src=""images/demo_images/choice_trial_2.png"" style=""width: 408px; height: 417px; margin-right: 200px;""><img src=""images/demo_images/choice_trial_1.png"" style=""width: 408px; height: 417px;""></div></div>",j,delaylearn,learning,trial,8LBNMYgDwaUIvQu16KdMjRfsUlB3,8LBNMYgDwaUIvQu16KdMjRfsUlB3,5.0,images/demo_images/choice_trial_2.png,images/demo_images/choice_trial_1.png,images/demo_images/pattern_1.png,j,j,3000.0,2.0,1.0,20.0,1.0,1.0,1.0,1.0,1.0,10.0,,,,,,5d53c991ab3b8500015b7026,16:49:31,27/03/2024
html-keyboard-response,3,7179,0.0-2.0-1.0,,"<div style=""display: flex; flex-direction: column; align-items: center; margin-top: -40px;""><img src=""images/demo_images/pattern_1.png"" style=""width: 234px; height: 230px; margin-top: -50px;""><div style=""display: flex; justify-content: space-between; margin-top: 33px;""><img src=""images/demo_images/choice_trial_1.png"" style=""width: 408px; height: 417px; margin-left:608px;""></div></div>",,delaylearn,learning,display_response,8LBNMYgDwaUIvQu16KdMjRfsUlB3,8LBNMYgDwaUIvQu16KdMjRfsUlB3,,,,,,,,,,,,,,,,,chosen stimuli: images/demo_images/choice_trial_1.png,,,,,5d53c991ab3b8500015b7026,16:49:31,27/03/2024
html-keyboard-response,4,10190,0.0-2.0-2.0,,,,delaylearn,learning,feedback_duration_window,8LBNMYgDwaUIvQu16KdMjRfsUlB3,8LBNMYgDwaUIvQu16KdMjRfsUlB3,,,,,,,,,,,,,,,,,,3000.0,,,,5d53c991ab3b8500015b7026,16:49:31,27/03/2024
html-keyboard-response,5,11697,0.0-2.0-3.0,,<div style='margin:auto;width: auto; font-size: 150%'><span style='font-weight: bold; font-size: 100px; color: green;'>+10 points!</span><br><br></div>,,delaylearn,learning,feedback_image_window,8LBNMYgDwaUIvQu16KdMjRfsUlB3,8LBNMYgDwaUIvQu16KdMjRfsUlB3,,,,,,,,,,,,,,,,,,,,,,5d53c991ab3b8500015b7026,16:49:31,27/03/2024
html-keyboard-response,6,13907,0.0-3.0,,"<div style=""font-size:100px;"">+</div>",,delaylearn,learning,ITI,8LBNMYgDwaUIvQu16KdMjRfsUlB3,8LBNMYgDwaUIvQu16KdMjRfsUlB3,,,,,,,,,,,,,,,,,,,2198.0,,,5d53c991ab3b8500015b7026,16:49:31,27/03/2024
html-keyboard-response,7,14754,0.0-4.0-0.0,844.4000000059605,"<div style=""display: flex; flex-direction: column; align-items: center; margin-top: -40px;""><img src=""images/demo_images/pattern_1.png"" style=""width: 234px; height: 230px; margin-top: -50px;""><div style=""display: flex; justify-content: space-between; margin-top: 33px;""><img src=""images/demo_images/choice_trial_2.png"" style=""width: 408px; height: 417px; margin-right: 200px;""><img src=""images/demo_images/choice_trial_1.png"" style=""width: 408px; height: 417px;""></div></div>",j,delaylearn,learning,trial,8LBNMYgDwaUIvQu16KdMjRfsUlB3,8LBNMYgDwaUIvQu16KdMjRfsUlB3,5.0,images/demo_images/choice_trial_2.png,images/demo_images/choice_trial_1.png,images/demo_images/pattern_1.png,j,j,3000.0,2.0,1.0,20.0,1.0,2.0,1.0,1.0,1.0,20.0,,,,,,5d53c991ab3b8500015b7026,16:49:31,27/03/2024
html-keyboard-response,8,15771,0.0-4.0-1.0,,"<div style=""display: flex; flex-direction: column; align-items: center; margin-top: -40px;""><img src=""images/demo_images/pattern_1.png"" style=""width: 234px; height: 230px; margin-top: -50px;""><div style=""display: flex; justify-content: space-between; margin-top: 33px;""><img src=""images/demo_images/choice_trial_1.png"" style=""width: 408px; height: 417px; margin-left:608px;""></div></div>",,delaylearn,learning,display_response,8LBNMYgDwaUIvQu16KdMjRfsUlB3,8LBNMYgDwaUIvQu16KdMjRfsUlB3,,,,,,,,,,,,,,,,,chosen stimuli: images/demo_images/choice_trial_1.png,,,,,5d53c991ab3b8500015b7026,16:49:31,27/03/2024
html-keyboard-response,9,18785,0.0-4.0-2.0,,,,delaylearn,learning,feedback_duration_window,8LBNMYgDwaUIvQu16KdMjRfsUlB3,8LBNMYgDwaUIvQu16KdMjRfsUlB3,,,,,,,,,,,,,,,,,,3000.0,,,,5d53c991ab3b8500015b7026,16:49:31,27/03/2024
html-keyboard-response,10,20292,0.0-4.0-3.0,,<div style='margin:auto;width: auto; font-size: 150%'><span style='font-weight: bold; font-size: 100px; color: green;'>+10 points!</span><br><br></div>,,delaylearn,learning,feedback_image_window,8LBNMYgDwaUIvQu16KdMjRfsUlB3,8LBNMYgDwaUIvQu16KdMjRfsUlB3,,,,,,,,,,,,,,,,,,,,,,5d53c991ab3b8500015b7026,16:49:31,27/03/2024
html-keyboard-response,11,22541,0.0-5.0,,"<div style=""font-size:100px;"">+</div>",,delaylearn,learning,ITI,8LBNMYgDwaUIvQu16KdMjRfsUlB3,8LBNMYgDwaUIvQu16KdMjRfsUlB3,,,,,,,,,,,,,,,,,,,2242.0,,,5d53c991ab3b8500015b7026,16:49:31,27/03/2024
html-keyboard-response,12,23563,0.0-6.0-0.0,1019.0999999940395,"<div style=""display: flex; flex-direction: column; align-items: center; margin-top: -40px;""><img src=""images/demo_images/pattern_1.png"" style=""width: 234px; height: 230px; margin-top: -50px;""><div style=""display: flex; justify-content: space-between; margin-top: 33px;""><img src=""images/demo_images/choice_trial_1.png"" style=""width: 408px; height: 417px; margin-right: 200px;""><img src=""images/demo_images/choice_trial_2.png"" style=""width: 408px; height: 417px;""></div></div>",f,delaylearn,learning,trial,8LBNMYgDwaUIvQu16KdMjRfsUlB3,8LBNMYgDwaUIvQu16KdMjRfsUlB3,5.0,images/demo_images/choice_trial_1.png,images/demo_images/choice_trial_2.png,images/demo_images/pattern_1.png,j,f,3000.0,1.0,2.0,20.0,0.0,3.0,1.0,0.0,1.0,20.0,,,,,,5d53c991ab3b8500015b7026,16:49:31,27/03/2024
html-keyboard-response,13,24571,0.0-6.0-1.0,,"<div style=""display: flex; flex-direction: column; align-items: center; margin-top: -40px;""><img src=""images/demo_images/pattern_1.png"" style=""width: 234px; height: 230px; margin-top: -50px;""><div style=""display: flex; justify-content: space-between; margin-top: 33px;""><img src=""images/demo_images/choice_trial_1.png"" style=""width: 408px; height: 417px; margin-right: 608px;""></div></div>",,delaylearn,learning,display_response,8LBNMYgDwaUIvQu16KdMjRfsUlB3,8LBNMYgDwaUIvQu16KdMjRfsUlB3,,,,,,,,,,,,,,,,,chosen stimuli: images/demo_images/choice_trial_1.png,,,,,5d53c991ab3b8500015b7026,16:49:31,27/03/2024
html-keyboard-response,14,27577,0.0-6.0-2.0,,,,delaylearn,learning,feedback_duration_window,8LBNMYgDwaUIvQu16KdMjRfsUlB3,8LBNMYgDwaUIvQu16KdMjRfsUlB3,,,,,,,,,,,,,,,,,,3000.0,,,,5d53c991ab3b8500015b7026,16:49:31,27/03/2024
html-keyboard-response,15,29089,0.0-6.0-3.0,,<div style='margin:auto;width: auto; font-size: 150%'><span style='font-weight: bold; font-size: 100px; color: red;'>0 points!</span><br><br></div>,,delaylearn,learning,feedback_image_window,8LBNMYgDwaUIvQu16KdMjRfsUlB3,8LBNMYgDwaUIvQu16KdMjRfsUlB3,,,,,,,,,,,,,,,,,,,,,,5d53c991ab3b8500015b7026,16:49:31,27/03/2024
html-keyboard-response,16,31129,0.0-7.0,,"<div style=""font-size:100px;"">+</div>",,delaylearn,learning,ITI,8LBNMYgDwaUIvQu16KdMjRfsUlB3,8LBNMYgDwaUIvQu16KdMjRfsUlB3,,,,,,,,,,,,,,,,,,,2028.0,,,5d53c991ab3b8500015b7026,16:49:31,27/03/2024
html-keyboard-response,17,31929,0.0-8.0-0.0,797.9000000059605,"<div style=""display: flex; flex-direction: column; align-items: center; margin-top: -40px;""><img src=""images/demo_images/pattern_1.png"" style=""width: 234px; height: 230px; margin-top: -50px;""><div style=""display: flex; justify-content: space-between; margin-top: 33px;""><img src=""images/demo_images/choice_trial_1.png"" style=""width: 408px; height: 417px; margin-right: 200px;""><img src=""images/demo_images/choice_trial_2.png"" style=""width: 408px; height: 417px;""></div></div>",f,delaylearn,learning,trial,8LBNMYgDwaUIvQu16KdMjRfsUlB3,8LBNMYgDwaUIvQu16KdMjRfsUlB3,5.0,images/demo_images/choice_trial_1.png,images/demo_images/choice_trial_2.png,images/demo_images/pattern_1.png,f,f,3000.0,1.0,2.0,20.0,0.0,4.0,1.0,1.0,1.0,30.0,,,,,,5d53c991ab3b8500015b7026,16:49:31,27/03/2024
html-keyboard-response,18,32943,0.0-8.0-1.0,,"<div style=""display: flex; flex-direction: column; align-items: center; margin-top: -40px;""><img src=""images/demo_images/pattern_1.png"" style=""width: 234px; height: 230px; margin-top: -50px;""><div style=""display: flex; justify-content: space-between; margin-top: 33px;""><img src=""images/demo_images/choice_trial_1.png"" style=""width: 408px; height: 417px; margin-right: 608px;""></div></div>",,delaylearn,learning,display_response,8LBNMYgDwaUIvQu16KdMjRfsUlB3,8LBNMYgDwaUIvQu16KdMjRfsUlB3,,,,,,,,,,,,,,,,,chosen stimuli: images/demo_images/choice_trial_1.png,,,,,5d53c991ab3b8500015b7026,16:49:31,27/03/2024
html-keyboard-response,19,35950,0.0-8.0-2.0,,,,delaylearn,learning,feedback_duration_window,8LBNMYgDwaUIvQu16KdMjRfsUlB3,8LBNMYgDwaUIvQu16KdMjRfsUlB3,,,,,,,,,,,,,,,,,,3000.0,,,,5d53c991ab3b8500015b7026,16:49:31,27/03/2024
html-keyboard-response,20,37460,0.0-8.0-3.0,,<div style='margin:auto;width: auto; font-size: 150%'><span style='font-weight: bold; font-size: 100px; color: green;'>+10 points!</span><br><br></div>,,delaylearn,learning,feedback_image_window,8LBNMYgDwaUIvQu16KdMjRfsUlB3,8LBNMYgDwaUIvQu16KdMjRfsUlB3,,,,,,,,,,,,,,,,,,,,,,5d53c991ab3b8500015b7026,16:49:31,27/03/2024
html-keyboard-response,21,37969,0.0-9.0-0.0,,,,,,mood_trial_fixation,8LBNMYgDwaUIvQu16KdMjRfsUlB3,,,,,,,,,,,,,,,,,,,,,,,5d53c991ab3b8500015b7026,16:49:31,27/03/2024
lmdlab-html-vas-response,22,42841,0.0-9.0-1.0,3848.0,How happy are you right now?,0.4521604938271605,delaylearn,learning,mood_trial,8LBNMYgDwaUIvQu16KdMjRfsUlB3,8LBNMYgDwaUIvQu16KdMjRfsUlB3,,,,,,,,,,,,,,,,,,,,"['Very unhappy', 'Very happy']",,5d53c991ab3b8500015b7026,16:49:31,27/03/2024
html-keyboard-response,23,44405,0.0-10.0,,"<div style=""font-size:100px;"">+</div>",,delaylearn,learning,ITI,8LBNMYgDwaUIvQu16KdMjRfsUlB3,8LBNMYgDwaUIvQu16KdMjRfsUlB3,,,,,,,,,,,,,,,,,,,1547.0,,,5d53c991ab3b8500015b7026,16:49:31,27/03/2024
html-keyboard-response,24,45419,0.0-11.0-0.0,1011.7000000178814,"<div style=""display: flex; flex-direction: column; align-items: center; margin-top: -40px;""><img src=""images/demo_images/pattern_1.png"" style=""width: 234px; height: 230px; margin-top: -50px;""><div style=""display: flex; justify-content: space-between; margin-top: 33px;""><img src=""images/demo_images/choice_trial_2.png"" style=""width: 408px; height: 417px; margin-right: 200px;""><img src=""images/demo_images/choice_trial_1.png"" style=""width: 408px; height: 417px;""></div></div>",j,delaylearn,learning,trial,8LBNMYgDwaUIvQu16KdMjRfsUlB3,8LBNMYgDwaUIvQu16KdMjRfsUlB3,5.0,images/demo_images/choice_trial_2.png,images/demo_images/choice_trial_1.png,images/demo_images/pattern_1.png,j,j,3000.0,2.0,1.0,20.0,1.0,5.0,1.0,1.0,1.0,40.0,,,,,,5d53c991ab3b8500015b7026,16:49:31,27/03/2024
html-keyboard-response,25,46434,0.0-11.0-1.0,,"<div style=""display: flex; flex-direction: column; align-items: center; margin-top: -40px;""><img src=""images/demo_images/pattern_1.png"" style=""width: 234px; height: 230px; margin-top: -50px;""><div style=""display: flex; justify-content: space-between; margin-top: 33px;""><img src=""images/demo_images/choice_trial_1.png"" style=""width: 408px; height: 417px; margin-left:608px;""></div></div>",,delaylearn,learning,display_response,8LBNMYgDwaUIvQu16KdMjRfsUlB3,8LBNMYgDwaUIvQu16KdMjRfsUlB3,,,,,,,,,,,,,,,,,chosen stimuli: images/demo_images/choice_trial_1.png,,,,,5d53c991ab3b8500015b7026,16:49:31,27/03/2024
html-keyboard-response,26,49447,0.0-11.0-2.0,,,,delaylearn,learning,feedback_duration_window,8LBNMYgDwaUIvQu16KdMjRfsUlB3,8LBNMYgDwaUIvQu16KdMjRfsUlB3,,,,,,,,,,,,,,,,,,3000.0,,,,5d53c991ab3b8500015b7026,16:49:31,27/03/2024
html-keyboard-response,27,50955,0.0-11.0-3.0,,<div style='margin:auto;width: auto; font-size: 150%'><span style='font-weight: bold; font-size: 100px; color: green;'>+10 points!</span><br><br></div>,,delaylearn,learning,feedback_image_window,8LBNMYgDwaUIvQu16KdMjRfsUlB3,8LBNMYgDwaUIvQu16KdMjRfsUlB3,,,,,,,,,,,,,,,,,,,,,,5d53c991ab3b8500015b7026,16:49:31,27/03/2024
html-keyboard-response,28,52943,0.0-12.0,,"<div style=""font-size:100px;"">+</div>",,delaylearn,learning,ITI,8LBNMYgDwaUIvQu16KdMjRfsUlB3,8LBNMYgDwaUIvQu16KdMjRfsUlB3,,,,,,,,,,,,,,,,,,,1981.0,,,5d53c991ab3b8500015b7026,16:49:31,27/03/2024
html-keyboard-response,29,54082,0.0-13.0-0.0,1136.8999999761581,"<div style=""display: flex; flex-direction: column; align-items: center; margin-top: -40px;""><img src=""images/demo_images/pattern_1.png"" style=""width: 234px; height: 230px; margin-top: -50px;""><div style=""display: flex; justify-content: space-between; margin-top: 33px;""><img src=""images/demo_images/choice_trial_1.png"" style=""width: 408px; height: 417px; margin-right: 200px;""><img src=""images/demo_images/choice_trial_2.png"" style=""width: 408px; height: 417px;""></div></div>",f,delaylearn,learning,trial,8LBNMYgDwaUIvQu16KdMjRfsUlB3,8LBNMYgDwaUIvQu16KdMjRfsUlB3,5.0,images/demo_images/choice_trial_1.png,images/demo_images/choice_trial_2.png,images/demo_images/pattern_1.png,f,f,3000.0,1.0,2.0,20.0,0.0,6.0,1.0,1.0,1.0,50.0,,,,,,5d53c991ab3b8500015b7026,16:49:31,27/03/2024
html-keyboard-response,30,55093,0.0-13.0-1.0,,"<div style=""display: flex; flex-direction: column; align-items: center; margin-top: -40px;""><img src=""images/demo_images/pattern_1.png"" style=""width: 234px; height: 230px; margin-top: -50px;""><div style=""display: flex; justify-content: space-between; margin-top: 33px;""><img src=""images/demo_images/choice_trial_1.png"" style=""width: 408px; height: 417px; margin-right: 608px;""></div></div>",,delaylearn,learning,display_response,8LBNMYgDwaUIvQu16KdMjRfsUlB3,8LBNMYgDwaUIvQu16KdMjRfsUlB3,,,,,,,,,,,,,,,,,chosen stimuli: images/demo_images/choice_trial_1.png,,,,,5d53c991ab3b8500015b7026,16:49:31,27/03/2024
html-keyboard-response,31,58109,0.0-13.0-2.0,,,,delaylearn,learning,feedback_duration_window,8LBNMYgDwaUIvQu16KdMjRfsUlB3,8LBNMYgDwaUIvQu16KdMjRfsUlB3,,,,,,,,,,,,,,,,,,3000.0,,,,5d53c991ab3b8500015b7026,16:49:31,27/03/2024
html-keyboard-response,32,59613,0.0-13.0-3.0,,<div style='margin:auto;width: auto; font-size: 150%'><span style='font-weight: bold; font-size: 100px; color: green;'>+10 points!</span><br><br></div>,,delaylearn,learning,feedback_image_window,8LBNMYgDwaUIvQu16KdMjRfsUlB3,8LBNMYgDwaUIvQu16KdMjRfsUlB3,,,,,,,,,,,,,,,,,,,,,,5d53c991ab3b8500015b7026,16:49:31,27/03/2024
html-keyboard-response,33,62105,0.0-14.0,,"<div style=""font-size:100px;"">+</div>",,delaylearn,learning,ITI,8LBNMYgDwaUIvQu16KdMjRfsUlB3,8LBNMYgDwaUIvQu16KdMjRfsUlB3,,,,,,,,,,,,,,,,,,,2479.0,,,5d53c991ab3b8500015b7026,16:49:31,27/03/2024
html-keyboard-response,34,62883,0.0-15.0-0.0,775.2999999821186,"<div style=""display: flex; flex-direction: column; align-items: center; margin-top: -40px;""><img src=""images/demo_images/pattern_1.png"" style=""width: 234px; height: 230px; margin-top: -50px;""><div style=""display: flex; justify-content: space-between; margin-top: 33px;""><img src=""images/demo_images/choice_trial_2.png"" style=""width: 408px; height: 417px; margin-right: 200px;""><img src=""images/demo_images/choice_trial_1.png"" style=""width: 408px; height: 417px;""></div></div>",j,delaylearn,learning,trial,8LBNMYgDwaUIvQu16KdMjRfsUlB3,8LBNMYgDwaUIvQu16KdMjRfsUlB3,5.0,images/demo_images/choice_trial_2.png,images/demo_images/choice_trial_1.png,images/demo_images/pattern_1.png,j,j,3000.0,2.0,1.0,20.0,1.0,7.0,1.0,1.0,1.0,60.0,,,,,,5d53c991ab3b8500015b7026,16:49:31,27/03/2024
html-keyboard-response,35,63887,0.0-15.0-1.0,,"<div style=""display: flex; flex-direction: column; align-items: center; margin-top: -40px;""><img src=""images/demo_images/pattern_1.png"" style=""width: 234px; height: 230px; margin-top: -50px;""><div style=""display: flex; justify-content: space-between; margin-top: 33px;""><img src=""images/demo_images/choice_trial_1.png"" style=""width: 408px; height: 417px; margin-left:608px;""></div></div>",,delaylearn,learning,display_response,8LBNMYgDwaUIvQu16KdMjRfsUlB3,8LBNMYgDwaUIvQu16KdMjRfsUlB3,,,,,,,,,,,,,,,,,chosen stimuli: images/demo_images/choice_trial_1.png,,,,,5d53c991ab3b8500015b7026,16:49:31,27/03/2024
html-keyboard-response,36,66897,0.0-15.0-2.0,,,,delaylearn,learning,feedback_duration_window,8LBNMYgDwaUIvQu16KdMjRfsUlB3,8LBNMYgDwaUIvQu16KdMjRfsUlB3,,,,,,,,,,,,,,,,,,3000.0,,,,5d53c991ab3b8500015b7026,16:49:31,27/03/2024
html-keyboard-response,37,68403,0.0-15.0-3.0,,<div style='margin:auto;width: auto; font-size: 150%'><span style='font-weight: bold; font-size: 100px; color: green;'>+10 points!</span><br><br></div>,,delaylearn,learning,feedback_image_window,8LBNMYgDwaUIvQu16KdMjRfsUlB3,8LBNMYgDwaUIvQu16KdMjRfsUlB3,,,,,,,,,,,,,,,,,,,,,,5d53c991ab3b8500015b7026,16:49:31,27/03/2024
html-keyboard-response,38,70483,0.0-16.0,,"<div style=""font-size:100px;"">+</div>",,delaylearn,learning,ITI,8LBNMYgDwaUIvQu16KdMjRfsUlB3,8LBNMYgDwaUIvQu16KdMjRfsUlB3,,,,,,,,,,,,,,,,,,,2066.0,,,5d53c991ab3b8500015b7026,16:49:31,27/03/2024
html-keyboard-response,39,71002,0.0-17.0-0.0,516.1999999880791,"<div style=""display: flex; flex-direction: column; align-items: center; margin-top: -40px;""><img src=""images/demo_images/pattern_1.png"" style=""width: 234px; height: 230px; margin-top: -50px;""><div style=""display: flex; justify-content: space-between; margin-top: 33px;""><img src=""images/demo_images/choice_trial_1.png"" style=""width: 408px; height: 417px; margin-right: 200px;""><img src=""images/demo_images/choice_trial_2.png"" style=""width: 408px; height: 417px;""></div></div>",f,delaylearn,learning,trial,8LBNMYgDwaUIvQu16KdMjRfsUlB3,8LBNMYgDwaUIvQu16KdMjRfsUlB3,5.0,images/demo_images/choice_trial_1.png,images/demo_images/choice_trial_2.png,images/demo_images/pattern_1.png,f,f,3000.0,1.0,2.0,20.0,0.0,8.0,1.0,1.0,1.0,70.0,,,,,,5d53c991ab3b8500015b7026,16:49:31,27/03/2024
html-keyboard-response,40,72011,0.0-17.0-1.0,,"<div style=""display: flex; flex-direction: column; align-items: center; margin-top: -40px;""><img src=""images/demo_images/pattern_1.png"" style=""width: 234px; height: 230px; margin-top: -50px;""><div style=""display: flex; justify-content: space-between; margin-top: 33px;""><img src=""images/demo_images/choice_trial_1.png"" style=""width: 408px; height: 417px; margin-right: 608px;""></div></div>",,delaylearn,learning,display_response,8LBNMYgDwaUIvQu16KdMjRfsUlB3,8LBNMYgDwaUIvQu16KdMjRfsUlB3,,,,,,,,,,,,,,,,,chosen stimuli: images/demo_images/choice_trial_1.png,,,,,5d53c991ab3b8500015b7026,16:49:31,27/03/2024
html-keyboard-response,41,75027,0.0-17.0-2.0,,,,delaylearn,learning,feedback_duration_window,8LBNMYgDwaUIvQu16KdMjRfsUlB3,8LBNMYgDwaUIvQu16KdMjRfsUlB3,,,,,,,,,,,,,,,,,,3000.0,,,,5d53c991ab3b8500015b7026,16:49:31,27/03/2024
html-keyboard-response,42,76530,0.0-17.0-3.0,,<div style='margin:auto;width: auto; font-size: 150%'><span style='font-weight: bold; font-size: 100px; color: green;'>+10 points!</span><br><br></div>,,delaylearn,learning,feedback_image_window,8LBNMYgDwaUIvQu16KdMjRfsUlB3,8LBNMYgDwaUIvQu16KdMjRfsUlB3,,,,,,,,,,,,,,,,,,,,,,5d53c991ab3b8500015b7026,16:49:31,27/03/2024
html-button-response,43,87308,0.0-18.0,10777.5,"
  <div style=""display: flex; align-items: center; justify-content: center; height: 80vh;"">
  <div>
          <img src=""images/inst_demo_finish.png"" style=""width: 80vw; height:auto;"">
          <br><br>
      </div>
      <br><br>
  </div>",0,,,,8LBNMYgDwaUIvQu16KdMjRfsUlB3,,,,,,,,,,,,,,,,,,,,,,,5d53c991ab3b8500015b7026,16:49:31,27/03/2024
html-keyboard-response,44,93697,0.0-19.0,6387.799999982119,"
  <div style=""display: flex; align-items: center; justify-content: center; height: 80vh;"">
  <div>
          <img src=""images/inst_6.png"" style=""width: 80vw; height:auto;"">
          <br><br>
      </div>
      <br><br>
  </div>",j,,,,8LBNMYgDwaUIvQu16KdMjRfsUlB3,,,,,,,,,,,,,,,,,,,,,,,5d53c991ab3b8500015b7026,16:49:31,27/03/2024
html-keyboard-response,45,96704,0.0-20.0,,"<div style=""font-size:100px;"">+</div>",,delaylearn,learning,pre_fixation,8LBNMYgDwaUIvQu16KdMjRfsUlB3,,,,,,,,,,,,,,,,,,,,,,,5d53c991ab3b8500015b7026,16:49:31,27/03/2024
html-keyboard-response,46,98647,0.0-21.0,,"<div style=""font-size:100px;"">+</div>",,delaylearn,learning,ITI,8LBNMYgDwaUIvQu16KdMjRfsUlB3,8LBNMYgDwaUIvQu16KdMjRfsUlB3,,,,,,,,,,,,,,,,,,,1927.0,,,5d53c991ab3b8500015b7026,16:49:31,27/03/2024
html-keyboard-response,47,99882,0.0-22.0-0.0,1233.0999999940395,"<div style=""display: flex; flex-direction: column; align-items: center; margin-top: -40px;""><img src=""images/pattern_3.png"" style=""width: 234px; height: 230px; margin-top: -50px;""><div style=""display: flex; justify-content: space-between; margin-top: 33px;""><img src=""images/choice_trial_16.png"" style=""width: 408px; height: 417px; margin-right: 200px;""><img src=""images/choice_trial_2.png"" style=""width: 408px; height: 417px;""></div></div>",j,delaylearn,learning,trial,8LBNMYgDwaUIvQu16KdMjRfsUlB3,8LBNMYgDwaUIvQu16KdMjRfsUlB3,5.0,images/choice_trial_16.png,images/choice_trial_2.png,images/pattern_3.png,f,f,7000.0,16.0,2.0,2.0,0.0,9.0,0.0,0.0,2.0,70.0,,,,,,5d53c991ab3b8500015b7026,16:49:31,27/03/2024
html-keyboard-response,48,100886,0.0-22.0-1.0,,"<div style=""display: flex; flex-direction: column; align-items: center; margin-top: -40px;""><img src=""images/pattern_3.png"" style=""width: 234px; height: 230px; margin-top: -50px;""><div style=""display: flex; justify-content: space-between; margin-top: 33px;""><img src=""images/choice_trial_2.png"" style=""width: 408px; height: 417px; margin-left:608px;""></div></div>",,delaylearn,learning,display_response,8LBNMYgDwaUIvQu16KdMjRfsUlB3,8LBNMYgDwaUIvQu16KdMjRfsUlB3,,,,,,,,,,,,,,,,,chosen stimuli: images/choice_trial_2.png,,,,,5d53c991ab3b8500015b7026,16:49:31,27/03/2024
html-keyboard-response,49,107901,0.0-22.0-2.0,,,,delaylearn,learning,feedback_duration_window,8LBNMYgDwaUIvQu16KdMjRfsUlB3,8LBNMYgDwaUIvQu16KdMjRfsUlB3,,,,,,,,,,,,,,,,,,7000.0,,,,5d53c991ab3b8500015b7026,16:49:31,27/03/2024
html-keyboard-response,50,109417,0.0-22.0-3.0,,<div style='margin:auto;width: auto; font-size: 150%'><span style='font-weight: bold; font-size: 100px; color: red;'>0 points!</span><br><br></div>,,delaylearn,learning,feedback_image_window,8LBNMYgDwaUIvQu16KdMjRfsUlB3,8LBNMYgDwaUIvQu16KdMjRfsUlB3,,,,,,,,,,,,,,,,,,,,,,5d53c991ab3b8500015b7026,16:49:31,27/03/2024
html-keyboard-response,51,110966,0.0-23.0,,"<div style=""font-size:100px;"">+</div>",,delaylearn,learning,ITI,8LBNMYgDwaUIvQu16KdMjRfsUlB3,8LBNMYgDwaUIvQu16KdMjRfsUlB3,,,,,,,,,,,,,,,,,,,1541.0,,,5d53c991ab3b8500015b7026,16:49:31,27/03/2024
html-keyboard-response,52,112458,0.0-24.0-0.0,1489.800000011921,"<div style=""display: flex; flex-direction: column; align-items: center; margin-top: -40px;""><img src=""images/pattern_7.png"" style=""width: 234px; height: 230px; margin-top: -50px;""><div style=""display: flex; justify-content: space-between; margin-top: 33px;""><img src=""images/choice_trial_10.png"" style=""width: 408px; height: 417px; margin-right: 200px;""><img src=""images/choice_trial_8.png"" style=""width: 408px; height: 417px;""></div></div>",j,delaylearn,learning,trial,8LBNMYgDwaUIvQu16KdMjRfsUlB3,8LBNMYgDwaUIvQu16KdMjRfsUlB3,5.0,images/choice_trial_10.png,images/choice_trial_8.png,images/pattern_7.png,j,j,750.0,10.0,8.0,6.0,1.0,10.0,1.0,1.0,8.0,80.0,,,,,,5d53c991ab3b8500015b7026,16:49:31,27/03/2024
html-keyboard-response,53,113474,0.0-24.0-1.0,,"<div style=""display: flex; flex-direction: column; align-items: center; margin-top: -40px;""><img src=""images/pattern_7.png"" style=""width: 234px; height: 230px; margin-top: -50px;""><div style=""display: flex; justify-content: space-between; margin-top: 33px;""><img src=""images/choice_trial_8.png"" style=""width: 408px; height: 417px; margin-left:608px;""></div></div>",,delaylearn,learning,display_response,8LBNMYgDwaUIvQu16KdMjRfsUlB3,8LBNMYgDwaUIvQu16KdMjRfsUlB3,,,,,,,,,,,,,,,,,chosen stimuli: images/choice_trial_8.png,,,,,5d53c991ab3b8500015b7026,16:49:31,27/03/2024
html-keyboard-response,54,114241,0.0-24.0-2.0,,,,delaylearn,learning,feedback_duration_window,8LBNMYgDwaUIvQu16KdMjRfsUlB3,8LBNMYgDwaUIvQu16KdMjRfsUlB3,,,,,,,,,,,,,,,,,,750.0,,,,5d53c991ab3b8500015b7026,16:49:31,27/03/2024
html-keyboard-response,55,115749,0.0-24.0-3.0,,<div style='margin:auto;width: auto; font-size: 150%'><span style='font-weight: bold; font-size: 100px; color: green;'>+10 points!</span><br><br></div>,,delaylearn,learning,feedback_image_window,8LBNMYgDwaUIvQu16KdMjRfsUlB3,8LBNMYgDwaUIvQu16KdMjRfsUlB3,,,,,,,,,,,,,,,,,,,,,,5d53c991ab3b8500015b7026,16:49:31,27/03/2024
html-keyboard-response,56,117486,0.0-25.0,,"<div style=""font-size:100px;"">+</div>",,delaylearn,learning,ITI,8LBNMYgDwaUIvQu16KdMjRfsUlB3,8LBNMYgDwaUIvQu16KdMjRfsUlB3,,,,,,,,,,,,,,,,,,,1728.0,,,5d53c991ab3b8500015b7026,16:49:31,27/03/2024
html-keyboard-response,57,119282,0.0-26.0-0.0,1793.5999999940395,"<div style=""display: flex; flex-direction: column; align-items: center; margin-top: -40px;""><img src=""images/pattern_4.png"" style=""width: 234px; height: 230px; margin-top: -50px;""><div style=""display: flex; justify-content: space-between; margin-top: 33px;""><img src=""images/choice_trial_11.png"" style=""width: 408px; height: 417px; margin-right: 200px;""><img src=""images/choice_trial_4.png"" style=""width: 408px; height: 417px;""></div></div>",f,delaylearn,learning,trial,8LBNMYgDwaUIvQu16KdMjRfsUlB3,8LBNMYgDwaUIvQu16KdMjRfsUlB3,5.0,images/choice_trial_11.png,images/choice_trial_4.png,images/pattern_4.png,f,f,7000.0,11.0,4.0,3.0,0.0,11.0,1.0,1.0,11.0,90.0,,,,,,5d53c991ab3b8500015b7026,16:49:31,27/03/2024
html-keyboard-response,58,120286,0.0-26.0-1.0,,"<div style=""display: flex; flex-direction: column; align-items: center; margin-top: -40px;""><img src=""images/pattern_4.png"" style=""width: 234px; height: 230px; margin-top: -50px;""><div style=""display: flex; justify-content: space-between; margin-top: 33px;""><img src=""images/choice_trial_11.png"" style=""width: 408px; height: 417px; margin-right: 608px;""></div></div>",,delaylearn,learning,display_response,8LBNMYgDwaUIvQu16KdMjRfsUlB3,8LBNMYgDwaUIvQu16KdMjRfsUlB3,,,,,,,,,,,,,,,,,chosen stimuli: images/choice_trial_11.png,,,,,5d53c991ab3b8500015b7026,16:49:31,27/03/2024
html-keyboard-response,59,127296,0.0-26.0-2.0,,,,delaylearn,learning,feedback_duration_window,8LBNMYgDwaUIvQu16KdMjRfsUlB3,8LBNMYgDwaUIvQu16KdMjRfsUlB3,,,,,,,,,,,,,,,,,,7000.0,,,,5d53c991ab3b8500015b7026,16:49:31,27/03/2024
html-keyboard-response,60,128804,0.0-26.0-3.0,,<div style='margin:auto;width: auto; font-size: 150%'><span style='font-weight: bold; font-size: 100px; color: green;'>+10 points!</span><br><br></div>,,delaylearn,learning,feedback_image_window,8LBNMYgDwaUIvQu16KdMjRfsUlB3,8LBNMYgDwaUIvQu16KdMjRfsUlB3,,,,,,,,,,,,,,,,,,,,,,5d53c991ab3b8500015b7026,16:49:31,27/03/2024
html-keyboard-response,61,131240,0.0-27.0,,"<div style=""font-size:100px;"">+</div>",,delaylearn,learning,ITI,8LBNMYgDwaUIvQu16KdMjRfsUlB3,8LBNMYgDwaUIvQu16KdMjRfsUlB3,,,,,,,,,,,,,,,,,,,2430.0,,,5d53c991ab3b8500015b7026,16:49:31,27/03/2024
html-keyboard-response,62,132121,0.0-28.0-0.0,879.1999999880791,"<div style=""display: flex; flex-direction: column; align-items: center; margin-top: -40px;""><img src=""images/pattern_5.png"" style=""width: 234px; height: 230px; margin-top: -50px;""><div style=""display: flex; justify-content: space-between; margin-top: 33px;""><img src=""images/choice_trial_13.png"" style=""width: 408px; height: 417px; margin-right: 200px;""><img src=""images/choice_trial_7.png"" style=""width: 408px; height: 417px;""></div></div>",j,delaylearn,learning,trial,8LBNMYgDwaUIvQu16KdMjRfsUlB3,8LBNMYgDwaUIvQu16KdMjRfsUlB3,5.0,images/choice_trial_13.png,images/choice_trial_7.png,images/pattern_5.png,j,j,750.0,13.0,7.0,4.0,1.0,12.0,1.0,1.0,7.0,100.0,,,,,,5d53c991ab3b8500015b7026,16:49:31,27/03/2024
html-keyboard-response,63,133133,0.0-28.0-1.0,,"<div style=""display: flex; flex-direction: column; align-items: center; margin-top: -40px;""><img src=""images/pattern_5.png"" style=""width: 234px; height: 230px; margin-top: -50px;""><div style=""display: flex; justify-content: space-between; margin-top: 33px;""><img src=""images/choice_trial_7.png"" style=""width: 408px; height: 417px; margin-left:608px;""></div></div>",,delaylearn,learning,display_response,8LBNMYgDwaUIvQu16KdMjRfsUlB3,8LBNMYgDwaUIvQu16KdMjRfsUlB3,,,,,,,,,,,,,,,,,chosen stimuli: images/choice_trial_7.png,,,,,5d53c991ab3b8500015b7026,16:49:31,27/03/2024
html-keyboard-response,64,133897,0.0-28.0-2.0,,,,delaylearn,learning,feedback_duration_window,8LBNMYgDwaUIvQu16KdMjRfsUlB3,8LBNMYgDwaUIvQu16KdMjRfsUlB3,,,,,,,,,,,,,,,,,,750.0,,,,5d53c991ab3b8500015b7026,16:49:31,27/03/2024
html-keyboard-response,65,135415,0.0-28.0-3.0,,<div style='margin:auto;width: auto; font-size: 150%'><span style='font-weight: bold; font-size: 100px; color: green;'>+10 points!</span><br><br></div>,,delaylearn,learning,feedback_image_window,8LBNMYgDwaUIvQu16KdMjRfsUlB3,8LBNMYgDwaUIvQu16KdMjRfsUlB3,,,,,,,,,,,,,,,,,,,,,,5d53c991ab3b8500015b7026,16:49:31,27/03/2024
html-keyboard-response,66,137780,0.0-29.0,,"<div style=""font-size:100px;"">+</div>",,delaylearn,learning,ITI,8LBNMYgDwaUIvQu16KdMjRfsUlB3,8LBNMYgDwaUIvQu16KdMjRfsUlB3,,,,,,,,,,,,,,,,,,,2354.0,,,5d53c991ab3b8500015b7026,16:49:31,27/03/2024
html-keyboard-response,67,140220,0.0-30.0-0.0,2437.199999988079,"<div style=""display: flex; flex-direction: column; align-items: center; margin-top: -40px;""><img src=""images/pattern_6.png"" style=""width: 234px; height: 230px; margin-top: -50px;""><div style=""display: flex; justify-content: space-between; margin-top: 33px;""><img src=""images/choice_trial_14.png"" style=""width: 408px; height: 417px; margin-right: 200px;""><img src=""images/choice_trial_9.png"" style=""width: 408px; height: 417px;""></div></div>",j,delaylearn,learning,trial,8LBNMYgDwaUIvQu16KdMjRfsUlB3,8LBNMYgDwaUIvQu16KdMjRfsUlB3,5.0,images/choice_trial_14.png,images/choice_trial_9.png,images/pattern_6.png,j,f,750.0,14.0,9.0,5.0,0.0,13.0,0.0,1.0,9.0,110.0,,,,,,5d53c991ab3b8500015b7026,16:49:31,27/03/2024
html-keyboard-response,68,141226,0.0-30.0-1.0,,"<div style=""display: flex; flex-direction: column; align-items: center; margin-top: -40px;""><img src=""images/pattern_6.png"" style=""width: 234px; height: 230px; margin-top: -50px;""><div style=""display: flex; justify-content: space-between; margin-top: 33px;""><img src=""images/choice_trial_9.png"" style=""width: 408px; height: 417px; margin-left:608px;""></div></div>",,delaylearn,learning,display_response,8LBNMYgDwaUIvQu16KdMjRfsUlB3,8LBNMYgDwaUIvQu16KdMjRfsUlB3,,,,,,,,,,,,,,,,,chosen stimuli: images/choice_trial_9.png,,,,,5d53c991ab3b8500015b7026,16:49:31,27/03/2024
html-keyboard-response,69,141977,0.0-30.0-2.0,,,,delaylearn,learning,feedback_duration_window,8LBNMYgDwaUIvQu16KdMjRfsUlB3,8LBNMYgDwaUIvQu16KdMjRfsUlB3,,,,,,,,,,,,,,,,,,750.0,,,,5d53c991ab3b8500015b7026,16:49:31,27/03/2024
html-keyboard-response,70,143489,0.0-30.0-3.0,,<div style='margin:auto;width: auto; font-size: 150%'><span style='font-weight: bold; font-size: 100px; color: green;'>+10 points!</span><br><br></div>,,delaylearn,learning,feedback_image_window,8LBNMYgDwaUIvQu16KdMjRfsUlB3,8LBNMYgDwaUIvQu16KdMjRfsUlB3,,,,,,,,,,,,,,,,,,,,,,5d53c991ab3b8500015b7026,16:49:31,27/03/2024
html-keyboard-response,71,143996,0.0-31.0-0.0,,,,,,mood_trial_fixation,8LBNMYgDwaUIvQu16KdMjRfsUlB3,,,,,,,,,,,,,,,,,,,,,,,5d53c991ab3b8500015b7026,16:49:31,27/03/2024
lmdlab-html-vas-response,72,149164,0.0-31.0-1.0,4154.0,How happy are you right now?,0.3765432098765432,delaylearn,learning,mood_trial,8LBNMYgDwaUIvQu16KdMjRfsUlB3,8LBNMYgDwaUIvQu16KdMjRfsUlB3,,,,,,,,,,,,,,,,,,,,"['Very unhappy', 'Very happy']",,5d53c991ab3b8500015b7026,16:49:31,27/03/2024
html-keyboard-response,73,151656,0.0-32.0,,"<div style=""font-size:100px;"">+</div>",,delaylearn,learning,ITI,8LBNMYgDwaUIvQu16KdMjRfsUlB3,8LBNMYgDwaUIvQu16KdMjRfsUlB3,,,,,,,,,,,,,,,,,,,2488.0,,,5d53c991ab3b8500015b7026,16:49:31,27/03/2024
html-keyboard-response,74,153986,0.0-33.0-0.0,2328.4000000059605,"<div style=""display: flex; flex-direction: column; align-items: center; margin-top: -40px;""><img src=""images/pattern_1.png"" style=""width: 234px; height: 230px; margin-top: -50px;""><div style=""display: flex; justify-content: space-between; margin-top: 33px;""><img src=""images/choice_trial_15.png"" style=""width: 408px; height: 417px; margin-right: 200px;""><img src=""images/choice_trial_6.png"" style=""width: 408px; height: 417px;""></div></div>",j,delaylearn,learning,trial,8LBNMYgDwaUIvQu16KdMjRfsUlB3,8LBNMYgDwaUIvQu16KdMjRfsUlB3,5.0,images/choice_trial_15.png,images/choice_trial_6.png,images/pattern_1.png,j,j,7000.0,15.0,6.0,1.0,1.0,14.0,1.0,1.0,6.0,120.0,,,,,,5d53c991ab3b8500015b7026,16:49:31,27/03/2024
html-keyboard-response,75,154997,0.0-33.0-1.0,,"<div style=""display: flex; flex-direction: column; align-items: center; margin-top: -40px;""><img src=""images/pattern_1.png"" style=""width: 234px; height: 230px; margin-top: -50px;""><div style=""display: flex; justify-content: space-between; margin-top: 33px;""><img src=""images/choice_trial_6.png"" style=""width: 408px; height: 417px; margin-left:608px;""></div></div>",,delaylearn,learning,display_response,8LBNMYgDwaUIvQu16KdMjRfsUlB3,8LBNMYgDwaUIvQu16KdMjRfsUlB3,,,,,,,,,,,,,,,,,chosen stimuli: images/choice_trial_6.png,,,,,5d53c991ab3b8500015b7026,16:49:31,27/03/2024
html-keyboard-response,76,162002,0.0-33.0-2.0,,,,delaylearn,learning,feedback_duration_window,8LBNMYgDwaUIvQu16KdMjRfsUlB3,8LBNMYgDwaUIvQu16KdMjRfsUlB3,,,,,,,,,,,,,,,,,,7000.0,,,,5d53c991ab3b8500015b7026,16:49:31,27/03/2024
html-keyboard-response,77,163509,0.0-33.0-3.0,,<div style='margin:auto;width: auto; font-size: 150%'><span style='font-weight: bold; font-size: 100px; color: green;'>+10 points!</span><br><br></div>,,delaylearn,learning,feedback_image_window,8LBNMYgDwaUIvQu16KdMjRfsUlB3,8LBNMYgDwaUIvQu16KdMjRfsUlB3,,,,,,,,,,,,,,,,,,,,,,5d53c991ab3b8500015b7026,16:49:31,27/03/2024
html-keyboard-response,78,165624,0.0-34.0,,"<div style=""font-size:100px;"">+</div>",,delaylearn,learning,ITI,8LBNMYgDwaUIvQu16KdMjRfsUlB3,8LBNMYgDwaUIvQu16KdMjRfsUlB3,,,,,,,,,,,,,,,,,,,2099.0,,,5d53c991ab3b8500015b7026,16:49:31,27/03/2024
html-keyboard-response,79,166587,0.0-35.0-0.0,960.2000000178814,"<div style=""display: flex; flex-direction: column; align-items: center; margin-top: -40px;""><img src=""images/pattern_3.png"" style=""width: 234px; height: 230px; margin-top: -50px;""><div style=""display: flex; justify-content: space-between; margin-top: 33px;""><img src=""images/choice_trial_2.png"" style=""width: 408px; height: 417px; margin-right: 200px;""><img src=""images/choice_trial_16.png"" style=""width: 408px; height: 417px;""></div></div>",f,delaylearn,learning,trial,8LBNMYgDwaUIvQu16KdMjRfsUlB3,8LBNMYgDwaUIvQu16KdMjRfsUlB3,5.0,images/choice_trial_2.png,images/choice_trial_16.png,images/pattern_3.png,f,j,7000.0,2.0,16.0,2.0,1.0,15.0,0.0,1.0,2.0,130.0,,,,,,5d53c991ab3b8500015b7026,16:49:31,27/03/2024
html-keyboard-response,80,167602,0.0-35.0-1.0,,"<div style=""display: flex; flex-direction: column; align-items: center; margin-top: -40px;""><img src=""images/pattern_3.png"" style=""width: 234px; height: 230px; margin-top: -50px;""><div style=""display: flex; justify-content: space-between; margin-top: 33px;""><img src=""images/choice_trial_2.png"" style=""width: 408px; height: 417px; margin-right: 608px;""></div></div>",,delaylearn,learning,display_response,8LBNMYgDwaUIvQu16KdMjRfsUlB3,8LBNMYgDwaUIvQu16KdMjRfsUlB3,,,,,,,,,,,,,,,,,chosen stimuli: images/choice_trial_2.png,,,,,5d53c991ab3b8500015b7026,16:49:31,27/03/2024
html-keyboard-response,81,174604,0.0-35.0-2.0,,,,delaylearn,learning,feedback_duration_window,8LBNMYgDwaUIvQu16KdMjRfsUlB3,8LBNMYgDwaUIvQu16KdMjRfsUlB3,,,,,,,,,,,,,,,,,,7000.0,,,,5d53c991ab3b8500015b7026,16:49:31,27/03/2024
html-keyboard-response,82,176108,0.0-35.0-3.0,,<div style='margin:auto;width: auto; font-size: 150%'><span style='font-weight: bold; font-size: 100px; color: green;'>+10 points!</span><br><br></div>,,delaylearn,learning,feedback_image_window,8LBNMYgDwaUIvQu16KdMjRfsUlB3,8LBNMYgDwaUIvQu16KdMjRfsUlB3,,,,,,,,,,,,,,,,,,,,,,5d53c991ab3b8500015b7026,16:49:31,27/03/2024
html-keyboard-response,83,177645,0.0-36.0,,"<div style=""font-size:100px;"">+</div>",,delaylearn,learning,ITI,8LBNMYgDwaUIvQu16KdMjRfsUlB3,8LBNMYgDwaUIvQu16KdMjRfsUlB3,,,,,,,,,,,,,,,,,,,1522.0,,,5d53c991ab3b8500015b7026,16:49:31,27/03/2024
html-keyboard-response,84,179338,0.0-37.0-0.0,1691.9000000059605,"<div style=""display: flex; flex-direction: column; align-items: center; margin-top: -40px;""><img src=""images/pattern_5.png"" style=""width: 234px; height: 230px; margin-top: -50px;""><div style=""display: flex; justify-content: space-between; margin-top: 33px;""><img src=""images/choice_trial_7.png"" style=""width: 408px; height: 417px; margin-right: 200px;""><img src=""images/choice_trial_13.png"" style=""width: 408px; height: 417px;""></div></div>",j,delaylearn,learning,trial,8LBNMYgDwaUIvQu16KdMjRfsUlB3,8LBNMYgDwaUIvQu16KdMjRfsUlB3,5.0,images/choice_trial_7.png,images/choice_trial_13.png,images/pattern_5.png,f,f,750.0,7.0,13.0,4.0,0.0,16.0,0.0,0.0,13.0,130.0,,,,,,5d53c991ab3b8500015b7026,16:49:31,27/03/2024
html-keyboard-response,85,180344,0.0-37.0-1.0,,"<div style=""display: flex; flex-direction: column; align-items: center; margin-top: -40px;""><img src=""images/pattern_5.png"" style=""width: 234px; height: 230px; margin-top: -50px;""><div style=""display: flex; justify-content: space-between; margin-top: 33px;""><img src=""images/choice_trial_13.png"" style=""width: 408px; height: 417px; margin-left:608px;""></div></div>",,delaylearn,learning,display_response,8LBNMYgDwaUIvQu16KdMjRfsUlB3,8LBNMYgDwaUIvQu16KdMjRfsUlB3,,,,,,,,,,,,,,,,,chosen stimuli: images/choice_trial_13.png,,,,,5d53c991ab3b8500015b7026,16:49:31,27/03/2024
html-keyboard-response,86,181097,0.0-37.0-2.0,,,,delaylearn,learning,feedback_duration_window,8LBNMYgDwaUIvQu16KdMjRfsUlB3,8LBNMYgDwaUIvQu16KdMjRfsUlB3,,,,,,,,,,,,,,,,,,750.0,,,,5d53c991ab3b8500015b7026,16:49:31,27/03/2024
html-keyboard-response,87,182606,0.0-37.0-3.0,,<div style='margin:auto;width: auto; font-size: 150%'><span style='font-weight: bold; font-size: 100px; color: red;'>0 points!</span><br><br></div>,,delaylearn,learning,feedback_image_window,8LBNMYgDwaUIvQu16KdMjRfsUlB3,8LBNMYgDwaUIvQu16KdMjRfsUlB3,,,,,,,,,,,,,,,,,,,,,,5d53c991ab3b8500015b7026,16:49:31,27/03/2024
html-keyboard-response,88,183108,0.0-38.0-0.0,,,,,,mood_trial_fixation,8LBNMYgDwaUIvQu16KdMjRfsUlB3,,,,,,,,,,,,,,,,,,,,,,,5d53c991ab3b8500015b7026,16:49:31,27/03/2024
lmdlab-html-vas-response,89,187219,0.0-38.0-1.0,3106.0,How happy are you right now?,0.35185185185185186,delaylearn,learning,mood_trial,8LBNMYgDwaUIvQu16KdMjRfsUlB3,8LBNMYgDwaUIvQu16KdMjRfsUlB3,,,,,,,,,,,,,,,,,,,,"['Very unhappy', 'Very happy']",,5d53c991ab3b8500015b7026,16:49:31,27/03/2024
html-keyboard-response,90,188981,0.0-39.0,,"<div style=""font-size:100px;"">+</div>",,delaylearn,learning,ITI,8LBNMYgDwaUIvQu16KdMjRfsUlB3,8LBNMYgDwaUIvQu16KdMjRfsUlB3,,,,,,,,,,,,,,,,,,,1760.0,,,5d53c991ab3b8500015b7026,16:49:31,27/03/2024
html-keyboard-response,91,191187,0.0-40.0-0.0,2203.800000011921,"<div style=""display: flex; flex-direction: column; align-items: center; margin-top: -40px;""><img src=""images/pattern_6.png"" style=""width: 234px; height: 230px; margin-top: -50px;""><div style=""display: flex; justify-content: space-between; margin-top: 33px;""><img src=""images/choice_trial_14.png"" style=""width: 408px; height: 417px; margin-right: 200px;""><img src=""images/choice_trial_9.png"" style=""width: 408px; height: 417px;""></div></div>",j,delaylearn,learning,trial,8LBNMYgDwaUIvQu16KdMjRfsUlB3,8LBNMYgDwaUIvQu16KdMjRfsUlB3,5.0,images/choice_trial_14.png,images/choice_trial_9.png,images/pattern_6.png,f,f,750.0,14.0,9.0,5.0,0.0,17.0,0.0,0.0,9.0,130.0,,,,,,5d53c991ab3b8500015b7026,16:49:31,27/03/2024
html-keyboard-response,92,192199,0.0-40.0-1.0,,"<div style=""display: flex; flex-direction: column; align-items: center; margin-top: -40px;""><img src=""images/pattern_6.png"" style=""width: 234px; height: 230px; margin-top: -50px;""><div style=""display: flex; justify-content: space-between; margin-top: 33px;""><img src=""images/choice_trial_9.png"" style=""width: 408px; height: 417px; margin-left:608px;""></div></div>",,delaylearn,learning,display_response,8LBNMYgDwaUIvQu16KdMjRfsUlB3,8LBNMYgDwaUIvQu16KdMjRfsUlB3,,,,,,,,,,,,,,,,,chosen stimuli: images/choice_trial_9.png,,,,,5d53c991ab3b8500015b7026,16:49:31,27/03/2024
html-keyboard-response,93,192955,0.0-40.0-2.0,,,,delaylearn,learning,feedback_duration_window,8LBNMYgDwaUIvQu16KdMjRfsUlB3,8LBNMYgDwaUIvQu16KdMjRfsUlB3,,,,,,,,,,,,,,,,,,750.0,,,,5d53c991ab3b8500015b7026,16:49:31,27/03/2024
html-keyboard-response,94,194464,0.0-40.0-3.0,,<div style='margin:auto;width: auto; font-size: 150%'><span style='font-weight: bold; font-size: 100px; color: red;'>0 points!</span><br><br></div>,,delaylearn,learning,feedback_image_window,8LBNMYgDwaUIvQu16KdMjRfsUlB3,8LBNMYgDwaUIvQu16KdMjRfsUlB3,,,,,,,,,,,,,,,,,,,,,,5d53c991ab3b8500015b7026,16:49:31,27/03/2024
html-keyboard-response,95,196630,0.0-41.0,,"<div style=""font-size:100px;"">+</div>",,delaylearn,learning,ITI,8LBNMYgDwaUIvQu16KdMjRfsUlB3,8LBNMYgDwaUIvQu16KdMjRfsUlB3,,,,,,,,,,,,,,,,,,,2163.0,,,5d53c991ab3b8500015b7026,16:49:31,27/03/2024
html-keyboard-response,96,197963,0.0-42.0-0.0,1330.5999999940395,"<div style=""display: flex; flex-direction: column; align-items: center; margin-top: -40px;""><img src=""images/pattern_4.png"" style=""width: 234px; height: 230px; margin-top: -50px;""><div style=""display: flex; justify-content: space-between; margin-top: 33px;""><img src=""images/choice_trial_4.png"" style=""width: 408px; height: 417px; margin-right: 200px;""><img src=""images/choice_trial_11.png"" style=""width: 408px; height: 417px;""></div></div>",j,delaylearn,learning,trial,8LBNMYgDwaUIvQu16KdMjRfsUlB3,8LBNMYgDwaUIvQu16KdMjRfsUlB3,5.0,images/choice_trial_4.png,images/choice_trial_11.png,images/pattern_4.png,j,j,7000.0,4.0,11.0,3.0,1.0,18.0,1.0,1.0,11.0,140.0,,,,,,5d53c991ab3b8500015b7026,16:49:31,27/03/2024
html-keyboard-response,97,198974,0.0-42.0-1.0,,"<div style=""display: flex; flex-direction: column; align-items: center; margin-top: -40px;""><img src=""images/pattern_4.png"" style=""width: 234px; height: 230px; margin-top: -50px;""><div style=""display: flex; justify-content: space-between; margin-top: 33px;""><img src=""images/choice_trial_11.png"" style=""width: 408px; height: 417px; margin-left:608px;""></div></div>",,delaylearn,learning,display_response,8LBNMYgDwaUIvQu16KdMjRfsUlB3,8LBNMYgDwaUIvQu16KdMjRfsUlB3,,,,,,,,,,,,,,,,,chosen stimuli: images/choice_trial_11.png,,,,,5d53c991ab3b8500015b7026,16:49:31,27/03/2024
html-keyboard-response,98,205981,0.0-42.0-2.0,,,,delaylearn,learning,feedback_duration_window,8LBNMYgDwaUIvQu16KdMjRfsUlB3,8LBNMYgDwaUIvQu16KdMjRfsUlB3,,,,,,,,,,,,,,,,,,7000.0,,,,5d53c991ab3b8500015b7026,16:49:31,27/03/2024
html-keyboard-response,99,207488,0.0-42.0-3.0,,<div style='margin:auto;width: auto; font-size: 150%'><span style='font-weight: bold; font-size: 100px; color: green;'>+10 points!</span><br><br></div>,,delaylearn,learning,feedback_image_window,8LBNMYgDwaUIvQu16KdMjRfsUlB3,8LBNMYgDwaUIvQu16KdMjRfsUlB3,,,,,,,,,,,,,,,,,,,,,,5d53c991ab3b8500015b7026,16:49:31,27/03/2024
html-keyboard-response,100,209967,0.0-43.0,,"<div style=""font-size:100px;"">+</div>",,delaylearn,learning,ITI,8LBNMYgDwaUIvQu16KdMjRfsUlB3,8LBNMYgDwaUIvQu16KdMjRfsUlB3,,,,,,,,,,,,,,,,,,,2470.0,,,5d53c991ab3b8500015b7026,16:49:31,27/03/2024
html-keyboard-response,101,210850,0.0-44.0-0.0,882.3000000119209,"<div style=""display: flex; flex-direction: column; align-items: center; margin-top: -40px;""><img src=""images/pattern_7.png"" style=""width: 234px; height: 230px; margin-top: -50px;""><div style=""display: flex; justify-content: space-between; margin-top: 33px;""><img src=""images/choice_trial_8.png"" style=""width: 408px; height: 417px; margin-right: 200px;""><img src=""images/choice_trial_10.png"" style=""width: 408px; height: 417px;""></div></div>",j,delaylearn,learning,trial,8LBNMYgDwaUIvQu16KdMjRfsUlB3,8LBNMYgDwaUIvQu16KdMjRfsUlB3,5.0,images/choice_trial_8.png,images/choice_trial_10.png,images/pattern_7.png,j,f,750.0,8.0,10.0,6.0,0.0,19.0,0.0,1.0,10.0,150.0,,,,,,5d53c991ab3b8500015b7026,16:49:31,27/03/2024
html-keyboard-response,102,211867,0.0-44.0-1.0,,"<div style=""display: flex; flex-direction: column; align-items: center; margin-top: -40px;""><img src=""images/pattern_7.png"" style=""width: 234px; height: 230px; margin-top: -50px;""><div style=""display: flex; justify-content: space-between; margin-top: 33px;""><img src=""images/choice_trial_10.png"" style=""width: 408px; height: 417px; margin-left:608px;""></div></div>",,delaylearn,learning,display_response,8LBNMYgDwaUIvQu16KdMjRfsUlB3,8LBNMYgDwaUIvQu16KdMjRfsUlB3,,,,,,,,,,,,,,,,,chosen stimuli: images/choice_trial_10.png,,,,,5d53c991ab3b8500015b7026,16:49:31,27/03/2024
html-keyboard-response,103,212630,0.0-44.0-2.0,,,,delaylearn,learning,feedback_duration_window,8LBNMYgDwaUIvQu16KdMjRfsUlB3,8LBNMYgDwaUIvQu16KdMjRfsUlB3,,,,,,,,,,,,,,,,,,750.0,,,,5d53c991ab3b8500015b7026,16:49:31,27/03/2024
html-keyboard-response,104,214134,0.0-44.0-3.0,,<div style='margin:auto;width: auto; font-size: 150%'><span style='font-weight: bold; font-size: 100px; color: green;'>+10 points!</span><br><br></div>,,delaylearn,learning,feedback_image_window,8LBNMYgDwaUIvQu16KdMjRfsUlB3,8LBNMYgDwaUIvQu16KdMjRfsUlB3,,,,,,,,,,,,,,,,,,,,,,5d53c991ab3b8500015b7026,16:49:31,27/03/2024
html-keyboard-response,105,215897,0.0-45.0,,"<div style=""font-size:100px;"">+</div>",,delaylearn,learning,ITI,8LBNMYgDwaUIvQu16KdMjRfsUlB3,8LBNMYgDwaUIvQu16KdMjRfsUlB3,,,,,,,,,,,,,,,,,,,1752.0,,,5d53c991ab3b8500015b7026,16:49:31,27/03/2024
html-keyboard-response,106,218162,0.0-46.0-0.0,2259.9000000059605,"<div style=""display: flex; flex-direction: column; align-items: center; margin-top: -40px;""><img src=""images/pattern_1.png"" style=""width: 234px; height: 230px; margin-top: -50px;""><div style=""display: flex; justify-content: space-between; margin-top: 33px;""><img src=""images/choice_trial_6.png"" style=""width: 408px; height: 417px; margin-right: 200px;""><img src=""images/choice_trial_15.png"" style=""width: 408px; height: 417px;""></div></div>",j,delaylearn,learning,trial,8LBNMYgDwaUIvQu16KdMjRfsUlB3,8LBNMYgDwaUIvQu16KdMjRfsUlB3,5.0,images/choice_trial_6.png,images/choice_trial_15.png,images/pattern_1.png,f,f,7000.0,6.0,15.0,1.0,0.0,20.0,0.0,0.0,15.0,150.0,,,,,,5d53c991ab3b8500015b7026,16:49:31,27/03/2024
html-keyboard-response,107,219165,0.0-46.0-1.0,,"<div style=""display: flex; flex-direction: column; align-items: center; margin-top: -40px;""><img src=""images/pattern_1.png"" style=""width: 234px; height: 230px; margin-top: -50px;""><div style=""display: flex; justify-content: space-between; margin-top: 33px;""><img src=""images/choice_trial_15.png"" style=""width: 408px; height: 417px; margin-left:608px;""></div></div>",,delaylearn,learning,display_response,8LBNMYgDwaUIvQu16KdMjRfsUlB3,8LBNMYgDwaUIvQu16KdMjRfsUlB3,,,,,,,,,,,,,,,,,chosen stimuli: images/choice_trial_15.png,,,,,5d53c991ab3b8500015b7026,16:49:31,27/03/2024
html-keyboard-response,108,226176,0.0-46.0-2.0,,,,delaylearn,learning,feedback_duration_window,8LBNMYgDwaUIvQu16KdMjRfsUlB3,8LBNMYgDwaUIvQu16KdMjRfsUlB3,,,,,,,,,,,,,,,,,,7000.0,,,,5d53c991ab3b8500015b7026,16:49:31,27/03/2024
html-keyboard-response,109,227688,0.0-46.0-3.0,,<div style='margin:auto;width: auto; font-size: 150%'><span style='font-weight: bold; font-size: 100px; color: red;'>0 points!</span><br><br></div>,,delaylearn,learning,feedback_image_window,8LBNMYgDwaUIvQu16KdMjRfsUlB3,8LBNMYgDwaUIvQu16KdMjRfsUlB3,,,,,,,,,,,,,,,,,,,,,,5d53c991ab3b8500015b7026,16:49:31,27/03/2024
html-keyboard-response,110,230142,0.0-47.0,,"<div style=""font-size:100px;"">+</div>",,delaylearn,learning,ITI,8LBNMYgDwaUIvQu16KdMjRfsUlB3,8LBNMYgDwaUIvQu16KdMjRfsUlB3,,,,,,,,,,,,,,,,,,,2447.0,,,5d53c991ab3b8500015b7026,16:49:31,27/03/2024
html-keyboard-response,111,231258,0.0-48.0-0.0,1114.800000011921,"<div style=""display: flex; flex-direction: column; align-items: center; margin-top: -40px;""><img src=""images/pattern_6.png"" style=""width: 234px; height: 230px; margin-top: -50px;""><div style=""display: flex; justify-content: space-between; margin-top: 33px;""><img src=""images/choice_trial_9.png"" style=""width: 408px; height: 417px; margin-right: 200px;""><img src=""images/choice_trial_14.png"" style=""width: 408px; height: 417px;""></div></div>",f,delaylearn,learning,trial,8LBNMYgDwaUIvQu16KdMjRfsUlB3,8LBNMYgDwaUIvQu16KdMjRfsUlB3,5.0,images/choice_trial_9.png,images/choice_trial_14.png,images/pattern_6.png,j,j,750.0,9.0,14.0,5.0,1.0,21.0,0.0,0.0,9.0,150.0,,,,,,5d53c991ab3b8500015b7026,16:49:31,27/03/2024
html-keyboard-response,112,232266,0.0-48.0-1.0,,"<div style=""display: flex; flex-direction: column; align-items: center; margin-top: -40px;""><img src=""images/pattern_6.png"" style=""width: 234px; height: 230px; margin-top: -50px;""><div style=""display: flex; justify-content: space-between; margin-top: 33px;""><img src=""images/choice_trial_9.png"" style=""width: 408px; height: 417px; margin-right: 608px;""></div></div>",,delaylearn,learning,display_response,8LBNMYgDwaUIvQu16KdMjRfsUlB3,8LBNMYgDwaUIvQu16KdMjRfsUlB3,,,,,,,,,,,,,,,,,chosen stimuli: images/choice_trial_9.png,,,,,5d53c991ab3b8500015b7026,16:49:31,27/03/2024
html-keyboard-response,113,233027,0.0-48.0-2.0,,,,delaylearn,learning,feedback_duration_window,8LBNMYgDwaUIvQu16KdMjRfsUlB3,8LBNMYgDwaUIvQu16KdMjRfsUlB3,,,,,,,,,,,,,,,,,,750.0,,,,5d53c991ab3b8500015b7026,16:49:31,27/03/2024
html-keyboard-response,114,234542,0.0-48.0-3.0,,<div style='margin:auto;width: auto; font-size: 150%'><span style='font-weight: bold; font-size: 100px; color: red;'>0 points!</span><br><br></div>,,delaylearn,learning,feedback_image_window,8LBNMYgDwaUIvQu16KdMjRfsUlB3,8LBNMYgDwaUIvQu16KdMjRfsUlB3,,,,,,,,,,,,,,,,,,,,,,5d53c991ab3b8500015b7026,16:49:31,27/03/2024
html-keyboard-response,115,236389,0.0-49.0,,"<div style=""font-size:100px;"">+</div>",,delaylearn,learning,ITI,8LBNMYgDwaUIvQu16KdMjRfsUlB3,8LBNMYgDwaUIvQu16KdMjRfsUlB3,,,,,,,,,,,,,,,,,,,1832.0,,,5d53c991ab3b8500015b7026,16:49:31,27/03/2024
html-keyboard-response,116,237917,0.0-50.0-0.0,1525.2999999821186,"<div style=""display: flex; flex-direction: column; align-items: center; margin-top: -40px;""><img src=""images/pattern_4.png"" style=""width: 234px; height: 230px; margin-top: -50px;""><div style=""display: flex; justify-content: space-between; margin-top: 33px;""><img src=""images/choice_trial_11.png"" style=""width: 408px; height: 417px; margin-right: 200px;""><img src=""images/choice_trial_4.png"" style=""width: 408px; height: 417px;""></div></div>",j,delaylearn,learning,trial,8LBNMYgDwaUIvQu16KdMjRfsUlB3,8LBNMYgDwaUIvQu16KdMjRfsUlB3,5.0,images/choice_trial_11.png,images/choice_trial_4.png,images/pattern_4.png,f,f,7000.0,11.0,4.0,3.0,0.0,22.0,0.0,0.0,4.0,150.0,,,,,,5d53c991ab3b8500015b7026,16:49:31,27/03/2024
html-keyboard-response,117,238928,0.0-50.0-1.0,,"<div style=""display: flex; flex-direction: column; align-items: center; margin-top: -40px;""><img src=""images/pattern_4.png"" style=""width: 234px; height: 230px; margin-top: -50px;""><div style=""display: flex; justify-content: space-between; margin-top: 33px;""><img src=""images/choice_trial_4.png"" style=""width: 408px; height: 417px; margin-left:608px;""></div></div>",,delaylearn,learning,display_response,8LBNMYgDwaUIvQu16KdMjRfsUlB3,8LBNMYgDwaUIvQu16KdMjRfsUlB3,,,,,,,,,,,,,,,,,chosen stimuli: images/choice_trial_4.png,,,,,5d53c991ab3b8500015b7026,16:49:31,27/03/2024
html-keyboard-response,118,245935,0.0-50.0-2.0,,,,delaylearn,learning,feedback_duration_window,8LBNMYgDwaUIvQu16KdMjRfsUlB3,8LBNMYgDwaUIvQu16KdMjRfsUlB3,,,,,,,,,,,,,,,,,,7000.0,,,,5d53c991ab3b8500015b7026,16:49:31,27/03/2024
html-keyboard-response,119,247454,0.0-50.0-3.0,,<div style='margin:auto;width: auto; font-size: 150%'><span style='font-weight: bold; font-size: 100px; color: red;'>0 points!</span><br><br></div>,,delaylearn,learning,feedback_image_window,8LBNMYgDwaUIvQu16KdMjRfsUlB3,8LBNMYgDwaUIvQu16KdMjRfsUlB3,,,,,,,,,,,,,,,,,,,,,,5d53c991ab3b8500015b7026,16:49:31,27/03/2024
html-keyboard-response,120,247965,0.0-51.0-0.0,,,,,,mood_trial_fixation,8LBNMYgDwaUIvQu16KdMjRfsUlB3,,,,,,,,,,,,,,,,,,,,,,,5d53c991ab3b8500015b7026,16:49:31,27/03/2024
lmdlab-html-vas-response,121,252468,0.0-51.0-1.0,3488.0,How happy are you right now?,0.2916666666666667,delaylearn,learning,mood_trial,8LBNMYgDwaUIvQu16KdMjRfsUlB3,8LBNMYgDwaUIvQu16KdMjRfsUlB3,,,,,,,,,,,,,,,,,,,,"['Very unhappy', 'Very happy']",,5d53c991ab3b8500015b7026,16:49:31,27/03/2024
html-keyboard-response,122,254476,0.0-52.0,,"<div style=""font-size:100px;"">+</div>",,delaylearn,learning,ITI,8LBNMYgDwaUIvQu16KdMjRfsUlB3,8LBNMYgDwaUIvQu16KdMjRfsUlB3,,,,,,,,,,,,,,,,,,,2004.0,,,5d53c991ab3b8500015b7026,16:49:31,27/03/2024
html-keyboard-response,123,255698,0.0-53.0-0.0,1219.2999999821186,"<div style=""display: flex; flex-direction: column; align-items: center; margin-top: -40px;""><img src=""images/pattern_7.png"" style=""width: 234px; height: 230px; margin-top: -50px;""><div style=""display: flex; justify-content: space-between; margin-top: 33px;""><img src=""images/choice_trial_10.png"" style=""width: 408px; height: 417px; margin-right: 200px;""><img src=""images/choice_trial_8.png"" style=""width: 408px; height: 417px;""></div></div>",f,delaylearn,learning,trial,8LBNMYgDwaUIvQu16KdMjRfsUlB3,8LBNMYgDwaUIvQu16KdMjRfsUlB3,5.0,images/choice_trial_10.png,images/choice_trial_8.png,images/pattern_7.png,j,j,750.0,10.0,8.0,6.0,1.0,23.0,0.0,0.0,10.0,150.0,,,,,,5d53c991ab3b8500015b7026,16:49:31,27/03/2024
html-keyboard-response,124,256712,0.0-53.0-1.0,,"<div style=""display: flex; flex-direction: column; align-items: center; margin-top: -40px;""><img src=""images/pattern_7.png"" style=""width: 234px; height: 230px; margin-top: -50px;""><div style=""display: flex; justify-content: space-between; margin-top: 33px;""><img src=""images/choice_trial_10.png"" style=""width: 408px; height: 417px; margin-right: 608px;""></div></div>",,delaylearn,learning,display_response,8LBNMYgDwaUIvQu16KdMjRfsUlB3,8LBNMYgDwaUIvQu16KdMjRfsUlB3,,,,,,,,,,,,,,,,,chosen stimuli: images/choice_trial_10.png,,,,,5d53c991ab3b8500015b7026,16:49:31,27/03/2024
html-keyboard-response,125,257474,0.0-53.0-2.0,,,,delaylearn,learning,feedback_duration_window,8LBNMYgDwaUIvQu16KdMjRfsUlB3,8LBNMYgDwaUIvQu16KdMjRfsUlB3,,,,,,,,,,,,,,,,,,750.0,,,,5d53c991ab3b8500015b7026,16:49:31,27/03/2024
html-keyboard-response,126,258980,0.0-53.0-3.0,,<div style='margin:auto;width: auto; font-size: 150%'><span style='font-weight: bold; font-size: 100px; color: red;'>0 points!</span><br><br></div>,,delaylearn,learning,feedback_image_window,8LBNMYgDwaUIvQu16KdMjRfsUlB3,8LBNMYgDwaUIvQu16KdMjRfsUlB3,,,,,,,,,,,,,,,,,,,,,,5d53c991ab3b8500015b7026,16:49:31,27/03/2024
html-keyboard-response,127,260939,0.0-54.0,,"<div style=""font-size:100px;"">+</div>",,delaylearn,learning,ITI,8LBNMYgDwaUIvQu16KdMjRfsUlB3,8LBNMYgDwaUIvQu16KdMjRfsUlB3,,,,,,,,,,,,,,,,,,,1952.0,,,5d53c991ab3b8500015b7026,16:49:31,27/03/2024
html-keyboard-response,128,261825,0.0-55.0-0.0,883.4000000059605,"<div style=""display: flex; flex-direction: column; align-items: center; margin-top: -40px;""><img src=""images/pattern_1.png"" style=""width: 234px; height: 230px; margin-top: -50px;""><div style=""display: flex; justify-content: space-between; margin-top: 33px;""><img src=""images/choice_trial_15.png"" style=""width: 408px; height: 417px; margin-right: 200px;""><img src=""images/choice_trial_6.png"" style=""width: 408px; height: 417px;""></div></div>",j,delaylearn,learning,trial,8LBNMYgDwaUIvQu16KdMjRfsUlB3,8LBNMYgDwaUIvQu16KdMjRfsUlB3,5.0,images/choice_trial_15.png,images/choice_trial_6.png,images/pattern_1.png,f,j,7000.0,15.0,6.0,1.0,1.0,24.0,1.0,0.0,6.0,150.0,,,,,,5d53c991ab3b8500015b7026,16:49:31,27/03/2024
html-keyboard-response,129,262838,0.0-55.0-1.0,,"<div style=""display: flex; flex-direction: column; align-items: center; margin-top: -40px;""><img src=""images/pattern_1.png"" style=""width: 234px; height: 230px; margin-top: -50px;""><div style=""display: flex; justify-content: space-between; margin-top: 33px;""><img src=""images/choice_trial_6.png"" style=""width: 408px; height: 417px; margin-left:608px;""></div></div>",,delaylearn,learning,display_response,8LBNMYgDwaUIvQu16KdMjRfsUlB3,8LBNMYgDwaUIvQu16KdMjRfsUlB3,,,,,,,,,,,,,,,,,chosen stimuli: images/choice_trial_6.png,,,,,5d53c991ab3b8500015b7026,16:49:31,27/03/2024
html-keyboard-response,130,269841,0.0-55.0-2.0,,,,delaylearn,learning,feedback_duration_window,8LBNMYgDwaUIvQu16KdMjRfsUlB3,8LBNMYgDwaUIvQu16KdMjRfsUlB3,,,,,,,,,,,,,,,,,,7000.0,,,,5d53c991ab3b8500015b7026,16:49:31,27/03/2024
html-keyboard-response,131,271347,0.0-55.0-3.0,,<div style='margin:auto;width: auto; font-size: 150%'><span style='font-weight: bold; font-size: 100px; color: red;'>0 points!</span><br><br></div>,,delaylearn,learning,feedback_image_window,8LBNMYgDwaUIvQu16KdMjRfsUlB3,8LBNMYgDwaUIvQu16KdMjRfsUlB3,,,,,,,,,,,,,,,,,,,,,,5d53c991ab3b8500015b7026,16:49:31,27/03/2024
html-keyboard-response,132,273061,0.0-56.0,,"<div style=""font-size:100px;"">+</div>",,delaylearn,learning,ITI,8LBNMYgDwaUIvQu16KdMjRfsUlB3,8LBNMYgDwaUIvQu16KdMjRfsUlB3,,,,,,,,,,,,,,,,,,,1698.0,,,5d53c991ab3b8500015b7026,16:49:31,27/03/2024
html-keyboard-response,133,274082,0.0-57.0-0.0,1019.1999999880791,"<div style=""display: flex; flex-direction: column; align-items: center; margin-top: -40px;""><img src=""images/pattern_5.png"" style=""width: 234px; height: 230px; margin-top: -50px;""><div style=""display: flex; justify-content: space-between; margin-top: 33px;""><img src=""images/choice_trial_13.png"" style=""width: 408px; height: 417px; margin-right: 200px;""><img src=""images/choice_trial_7.png"" style=""width: 408px; height: 417px;""></div></div>",j,delaylearn,learning,trial,8LBNMYgDwaUIvQu16KdMjRfsUlB3,8LBNMYgDwaUIvQu16KdMjRfsUlB3,5.0,images/choice_trial_13.png,images/choice_trial_7.png,images/pattern_5.png,j,j,750.0,13.0,7.0,4.0,1.0,25.0,1.0,1.0,7.0,160.0,,,,,,5d53c991ab3b8500015b7026,16:49:31,27/03/2024
html-keyboard-response,134,275092,0.0-57.0-1.0,,"<div style=""display: flex; flex-direction: column; align-items: center; margin-top: -40px;""><img src=""images/pattern_5.png"" style=""width: 234px; height: 230px; margin-top: -50px;""><div style=""display: flex; justify-content: space-between; margin-top: 33px;""><img src=""images/choice_trial_7.png"" style=""width: 408px; height: 417px; margin-left:608px;""></div></div>",,delaylearn,learning,display_response,8LBNMYgDwaUIvQu16KdMjRfsUlB3,8LBNMYgDwaUIvQu16KdMjRfsUlB3,,,,,,,,,,,,,,,,,chosen stimuli: images/choice_trial_7.png,,,,,5d53c991ab3b8500015b7026,16:49:31,27/03/2024
html-keyboard-response,135,275849,0.0-57.0-2.0,,,,delaylearn,learning,feedback_duration_window,8LBNMYgDwaUIvQu16KdMjRfsUlB3,8LBNMYgDwaUIvQu16KdMjRfsUlB3,,,,,,,,,,,,,,,,,,750.0,,,,5d53c991ab3b8500015b7026,16:49:31,27/03/2024
html-keyboard-response,136,277366,0.0-57.0-3.0,,<div style='margin:auto;width: auto; font-size: 150%'><span style='font-weight: bold; font-size: 100px; color: green;'>+10 points!</span><br><br></div>,,delaylearn,learning,feedback_image_window,8LBNMYgDwaUIvQu16KdMjRfsUlB3,8LBNMYgDwaUIvQu16KdMjRfsUlB3,,,,,,,,,,,,,,,,,,,,,,5d53c991ab3b8500015b7026,16:49:31,27/03/2024
html-keyboard-response,137,279745,0.0-58.0,,"<div style=""font-size:100px;"">+</div>",,delaylearn,learning,ITI,8LBNMYgDwaUIvQu16KdMjRfsUlB3,8LBNMYgDwaUIvQu16KdMjRfsUlB3,,,,,,,,,,,,,,,,,,,2365.0,,,5d53c991ab3b8500015b7026,16:49:31,27/03/2024
html-keyboard-response,138,280761,0.0-59.0-0.0,1014.3000000119209,"<div style=""display: flex; flex-direction: column; align-items: center; margin-top: -40px;""><img src=""images/pattern_3.png"" style=""width: 234px; height: 230px; margin-top: -50px;""><div style=""display: flex; justify-content: space-between; margin-top: 33px;""><img src=""images/choice_trial_2.png"" style=""width: 408px; height: 417px; margin-right: 200px;""><img src=""images/choice_trial_16.png"" style=""width: 408px; height: 417px;""></div></div>",j,delaylearn,learning,trial,8LBNMYgDwaUIvQu16KdMjRfsUlB3,8LBNMYgDwaUIvQu16KdMjRfsUlB3,5.0,images/choice_trial_2.png,images/choice_trial_16.png,images/pattern_3.png,j,j,7000.0,2.0,16.0,2.0,1.0,26.0,1.0,1.0,16.0,170.0,,,,,,5d53c991ab3b8500015b7026,16:49:31,27/03/2024
html-keyboard-response,139,281763,0.0-59.0-1.0,,"<div style=""display: flex; flex-direction: column; align-items: center; margin-top: -40px;""><img src=""images/pattern_3.png"" style=""width: 234px; height: 230px; margin-top: -50px;""><div style=""display: flex; justify-content: space-between; margin-top: 33px;""><img src=""images/choice_trial_16.png"" style=""width: 408px; height: 417px; margin-left:608px;""></div></div>",,delaylearn,learning,display_response,8LBNMYgDwaUIvQu16KdMjRfsUlB3,8LBNMYgDwaUIvQu16KdMjRfsUlB3,,,,,,,,,,,,,,,,,chosen stimuli: images/choice_trial_16.png,,,,,5d53c991ab3b8500015b7026,16:49:31,27/03/2024
html-keyboard-response,140,288781,0.0-59.0-2.0,,,,delaylearn,learning,feedback_duration_window,8LBNMYgDwaUIvQu16KdMjRfsUlB3,8LBNMYgDwaUIvQu16KdMjRfsUlB3,,,,,,,,,,,,,,,,,,7000.0,,,,5d53c991ab3b8500015b7026,16:49:31,27/03/2024
html-keyboard-response,141,290300,0.0-59.0-3.0,,<div style='margin:auto;width: auto; font-size: 150%'><span style='font-weight: bold; font-size: 100px; color: green;'>+10 points!</span><br><br></div>,,delaylearn,learning,feedback_image_window,8LBNMYgDwaUIvQu16KdMjRfsUlB3,8LBNMYgDwaUIvQu16KdMjRfsUlB3,,,,,,,,,,,,,,,,,,,,,,5d53c991ab3b8500015b7026,16:49:31,27/03/2024
lmdlab-html-vas-response,142,295468,0.0-60.0-0.0,3648.0,*How <b><u>confident</u></b> are you feeling about your answers at this moment?*,0.4089506172839506,rewlearn,rate_confidence,,8LBNMYgDwaUIvQu16KdMjRfsUlB3,8LBNMYgDwaUIvQu16KdMjRfsUlB3,,,,,,,,,,,,,,,,,,,,"['No confidence', 'Complete confidence']",,5d53c991ab3b8500015b7026,16:49:31,27/03/2024
lmdlab-rest-trial-limit,143,305875,0.0-60.0-1.0,8893.5,"<div style=""font-size:40px;""><b>Please take a break!</b><br><br><br><br><p>Great work: you earned 170 points.<br><br><br><p>You have completed part(s) 1 of 5.<br><br><br><br>When you are ready to continue<br><br><br>please click the button.</p><br><br>",0,delaylearn,learning,break,8LBNMYgDwaUIvQu16KdMjRfsUlB3,8LBNMYgDwaUIvQu16KdMjRfsUlB3,,,,,,,,,,,,,,,,,,,,,0.0,5d53c991ab3b8500015b7026,16:49:31,27/03/2024
html-keyboard-response,144,308889,0.0-60.0-2.0,,"<div style=""font-size:100px;"">+</div>",,delaylearn,learning,pre_fixation,8LBNMYgDwaUIvQu16KdMjRfsUlB3,,,,,,,,,,,,,,,,,,,,,,,5d53c991ab3b8500015b7026,16:49:31,27/03/2024
lmdlab-html-vas-response,145,312704,0.0-60.0-3.0-0.0,2798.0,How happy are you right now?,0.24074074074074073,delaylearn,learning,mood_baseline,8LBNMYgDwaUIvQu16KdMjRfsUlB3,8LBNMYgDwaUIvQu16KdMjRfsUlB3,,,,,,,,,,,,,,,,,,,,"['Very unhappy', 'Very happy']",,5d53c991ab3b8500015b7026,16:49:31,27/03/2024
html-keyboard-response,146,314217,0.0-60.0-3.0-1.0,,,,,,mood_baseline_fixation,8LBNMYgDwaUIvQu16KdMjRfsUlB3,,,,,,,,,,,,,,,,,,,,,,,5d53c991ab3b8500015b7026,16:49:31,27/03/2024
html-keyboard-response,147,315897,0.0-61.0,,"<div style=""font-size:100px;"">+</div>",,delaylearn,learning,ITI,8LBNMYgDwaUIvQu16KdMjRfsUlB3,8LBNMYgDwaUIvQu16KdMjRfsUlB3,,,,,,,,,,,,,,,,,,,1678.0,,,5d53c991ab3b8500015b7026,16:49:31,27/03/2024
html-keyboard-response,148,316969,0.0-62.0-0.0,1068.9000000059605,"<div style=""display: flex; flex-direction: column; align-items: center; margin-top: -40px;""><img src=""images/pattern_7.png"" style=""width: 234px; height: 230px; margin-top: -50px;""><div style=""display: flex; justify-content: space-between; margin-top: 33px;""><img src=""images/choice_trial_10.png"" style=""width: 408px; height: 417px; margin-right: 200px;""><img src=""images/choice_trial_8.png"" style=""width: 408px; height: 417px;""></div></div>",j,delaylearn,learning,trial,8LBNMYgDwaUIvQu16KdMjRfsUlB3,8LBNMYgDwaUIvQu16KdMjRfsUlB3,5.0,images/choice_trial_10.png,images/choice_trial_8.png,images/pattern_7.png,j,j,750.0,10.0,8.0,6.0,1.0,27.0,1.0,1.0,8.0,180.0,,,,,,5d53c991ab3b8500015b7026,16:49:31,27/03/2024
html-keyboard-response,149,317979,0.0-62.0-1.0,,"<div style=""display: flex; flex-direction: column; align-items: center; margin-top: -40px;""><img src=""images/pattern_7.png"" style=""width: 234px; height: 230px; margin-top: -50px;""><div style=""display: flex; justify-content: space-between; margin-top: 33px;""><img src=""images/choice_trial_8.png"" style=""width: 408px; height: 417px; margin-left:608px;""></div></div>",,delaylearn,learning,display_response,8LBNMYgDwaUIvQu16KdMjRfsUlB3,8LBNMYgDwaUIvQu16KdMjRfsUlB3,,,,,,,,,,,,,,,,,chosen stimuli: images/choice_trial_8.png,,,,,5d53c991ab3b8500015b7026,16:49:31,27/03/2024
html-keyboard-response,150,318738,0.0-62.0-2.0,,,,delaylearn,learning,feedback_duration_window,8LBNMYgDwaUIvQu16KdMjRfsUlB3,8LBNMYgDwaUIvQu16KdMjRfsUlB3,,,,,,,,,,,,,,,,,,750.0,,,,5d53c991ab3b8500015b7026,16:49:31,27/03/2024
html-keyboard-response,151,320245,0.0-62.0-3.0,,<div style='margin:auto;width: auto; font-size: 150%'><span style='font-weight: bold; font-size: 100px; color: green;'>+10 points!</span><br><br></div>,,delaylearn,learning,feedback_image_window,8LBNMYgDwaUIvQu16KdMjRfsUlB3,8LBNMYgDwaUIvQu16KdMjRfsUlB3,,,,,,,,,,,,,,,,,,,,,,5d53c991ab3b8500015b7026,16:49:31,27/03/2024
html-keyboard-response,152,320755,0.0-63.0-0.0,,,,,,mood_trial_fixation,8LBNMYgDwaUIvQu16KdMjRfsUlB3,,,,,,,,,,,,,,,,,,,,,,,5d53c991ab3b8500015b7026,16:49:31,27/03/2024
lmdlab-html-vas-response,153,324697,0.0-63.0-1.0,2922.0,How happy are you right now?,0.5015432098765432,delaylearn,learning,mood_trial,8LBNMYgDwaUIvQu16KdMjRfsUlB3,8LBNMYgDwaUIvQu16KdMjRfsUlB3,,,,,,,,,,,,,,,,,,,,"['Very unhappy', 'Very happy']",,5d53c991ab3b8500015b7026,16:49:31,27/03/2024
html-keyboard-response,154,326316,0.0-64.0,,"<div style=""font-size:100px;"">+</div>",,delaylearn,learning,ITI,8LBNMYgDwaUIvQu16KdMjRfsUlB3,8LBNMYgDwaUIvQu16KdMjRfsUlB3,,,,,,,,,,,,,,,,,,,1606.0,,,5d53c991ab3b8500015b7026,16:49:31,27/03/2024
html-keyboard-response,155,327994,0.0-65.0-0.0,1675.2000000178814,"<div style=""display: flex; flex-direction: column; align-items: center; margin-top: -40px;""><img src=""images/pattern_1.png"" style=""width: 234px; height: 230px; margin-top: -50px;""><div style=""display: flex; justify-content: space-between; margin-top: 33px;""><img src=""images/choice_trial_6.png"" style=""width: 408px; height: 417px; margin-right: 200px;""><img src=""images/choice_trial_15.png"" style=""width: 408px; height: 417px;""></div></div>",j,delaylearn,learning,trial,8LBNMYgDwaUIvQu16KdMjRfsUlB3,8LBNMYgDwaUIvQu16KdMjRfsUlB3,5.0,images/choice_trial_6.png,images/choice_trial_15.png,images/pattern_1.png,f,f,7000.0,6.0,15.0,1.0,0.0,28.0,0.0,0.0,15.0,180.0,,,,,,5d53c991ab3b8500015b7026,16:49:31,27/03/2024
html-keyboard-response,156,329003,0.0-65.0-1.0,,"<div style=""display: flex; flex-direction: column; align-items: center; margin-top: -40px;""><img src=""images/pattern_1.png"" style=""width: 234px; height: 230px; margin-top: -50px;""><div style=""display: flex; justify-content: space-between; margin-top: 33px;""><img src=""images/choice_trial_15.png"" style=""width: 408px; height: 417px; margin-left:608px;""></div></div>",,delaylearn,learning,display_response,8LBNMYgDwaUIvQu16KdMjRfsUlB3,8LBNMYgDwaUIvQu16KdMjRfsUlB3,,,,,,,,,,,,,,,,,chosen stimuli: images/choice_trial_15.png,,,,,5d53c991ab3b8500015b7026,16:49:31,27/03/2024
html-keyboard-response,157,336007,0.0-65.0-2.0,,,,delaylearn,learning,feedback_duration_window,8LBNMYgDwaUIvQu16KdMjRfsUlB3,8LBNMYgDwaUIvQu16KdMjRfsUlB3,,,,,,,,,,,,,,,,,,7000.0,,,,5d53c991ab3b8500015b7026,16:49:31,27/03/2024
html-keyboard-response,158,337516,0.0-65.0-3.0,,<div style='margin:auto;width: auto; font-size: 150%'><span style='font-weight: bold; font-size: 100px; color: red;'>0 points!</span><br><br></div>,,delaylearn,learning,feedback_image_window,8LBNMYgDwaUIvQu16KdMjRfsUlB3,8LBNMYgDwaUIvQu16KdMjRfsUlB3,,,,,,,,,,,,,,,,,,,,,,5d53c991ab3b8500015b7026,16:49:31,27/03/2024
html-keyboard-response,159,339727,0.0-66.0,,"<div style=""font-size:100px;"">+</div>",,delaylearn,learning,ITI,8LBNMYgDwaUIvQu16KdMjRfsUlB3,8LBNMYgDwaUIvQu16KdMjRfsUlB3,,,,,,,,,,,,,,,,,,,2196.0,,,5d53c991ab3b8500015b7026,16:49:31,27/03/2024
html-keyboard-response,160,340947,0.0-67.0-0.0,1216.199999988079,"<div style=""display: flex; flex-direction: column; align-items: center; margin-top: -40px;""><img src=""images/pattern_5.png"" style=""width: 234px; height: 230px; margin-top: -50px;""><div style=""display: flex; justify-content: space-between; margin-top: 33px;""><img src=""images/choice_trial_7.png"" style=""width: 408px; height: 417px; margin-right: 200px;""><img src=""images/choice_trial_13.png"" style=""width: 408px; height: 417px;""></div></div>",f,delaylearn,learning,trial,8LBNMYgDwaUIvQu16KdMjRfsUlB3,8LBNMYgDwaUIvQu16KdMjRfsUlB3,5.0,images/choice_trial_7.png,images/choice_trial_13.png,images/pattern_5.png,f,f,750.0,7.0,13.0,4.0,0.0,29.0,1.0,1.0,7.0,190.0,,,,,,5d53c991ab3b8500015b7026,16:49:31,27/03/2024
html-keyboard-response,161,341953,0.0-67.0-1.0,,"<div style=""display: flex; flex-direction: column; align-items: center; margin-top: -40px;""><img src=""images/pattern_5.png"" style=""width: 234px; height: 230px; margin-top: -50px;""><div style=""display: flex; justify-content: space-between; margin-top: 33px;""><img src=""images/choice_trial_7.png"" style=""width: 408px; height: 417px; margin-right: 608px;""></div></div>",,delaylearn,learning,display_response,8LBNMYgDwaUIvQu16KdMjRfsUlB3,8LBNMYgDwaUIvQu16KdMjRfsUlB3,,,,,,,,,,,,,,,,,chosen stimuli: images/choice_trial_7.png,,,,,5d53c991ab3b8500015b7026,16:49:31,27/03/2024
html-keyboard-response,162,342720,0.0-67.0-2.0,,,,delaylearn,learning,feedback_duration_window,8LBNMYgDwaUIvQu16KdMjRfsUlB3,8LBNMYgDwaUIvQu16KdMjRfsUlB3,,,,,,,,,,,,,,,,,,750.0,,,,5d53c991ab3b8500015b7026,16:49:31,27/03/2024
html-keyboard-response,163,344223,0.0-67.0-3.0,,<div style='margin:auto;width: auto; font-size: 150%'><span style='font-weight: bold; font-size: 100px; color: green;'>+10 points!</span><br><br></div>,,delaylearn,learning,feedback_image_window,8LBNMYgDwaUIvQu16KdMjRfsUlB3,8LBNMYgDwaUIvQu16KdMjRfsUlB3,,,,,,,,,,,,,,,,,,,,,,5d53c991ab3b8500015b7026,16:49:31,27/03/2024
html-keyboard-response,164,346222,0.0-68.0,,"<div style=""font-size:100px;"">+</div>",,delaylearn,learning,ITI,8LBNMYgDwaUIvQu16KdMjRfsUlB3,8LBNMYgDwaUIvQu16KdMjRfsUlB3,,,,,,,,,,,,,,,,,,,1992.0,,,5d53c991ab3b8500015b7026,16:49:31,27/03/2024
html-keyboard-response,165,347194,0.0-69.0-0.0,968.0,"<div style=""display: flex; flex-direction: column; align-items: center; margin-top: -40px;""><img src=""images/pattern_6.png"" style=""width: 234px; height: 230px; margin-top: -50px;""><div style=""display: flex; justify-content: space-between; margin-top: 33px;""><img src=""images/choice_trial_9.png"" style=""width: 408px; height: 417px; margin-right: 200px;""><img src=""images/choice_trial_14.png"" style=""width: 408px; height: 417px;""></div></div>",j,delaylearn,learning,trial,8LBNMYgDwaUIvQu16KdMjRfsUlB3,8LBNMYgDwaUIvQu16KdMjRfsUlB3,5.0,images/choice_trial_9.png,images/choice_trial_14.png,images/pattern_6.png,j,j,750.0,9.0,14.0,5.0,1.0,30.0,1.0,1.0,14.0,200.0,,,,,,5d53c991ab3b8500015b7026,16:49:31,27/03/2024
html-keyboard-response,166,348204,0.0-69.0-1.0,,"<div style=""display: flex; flex-direction: column; align-items: center; margin-top: -40px;""><img src=""images/pattern_6.png"" style=""width: 234px; height: 230px; margin-top: -50px;""><div style=""display: flex; justify-content: space-between; margin-top: 33px;""><img src=""images/choice_trial_14.png"" style=""width: 408px; height: 417px; margin-left:608px;""></div></div>",,delaylearn,learning,display_response,8LBNMYgDwaUIvQu16KdMjRfsUlB3,8LBNMYgDwaUIvQu16KdMjRfsUlB3,,,,,,,,,,,,,,,,,chosen stimuli: images/choice_trial_14.png,,,,,5d53c991ab3b8500015b7026,16:49:31,27/03/2024
html-keyboard-response,167,348965,0.0-69.0-2.0,,,,delaylearn,learning,feedback_duration_window,8LBNMYgDwaUIvQu16KdMjRfsUlB3,8LBNMYgDwaUIvQu16KdMjRfsUlB3,,,,,,,,,,,,,,,,,,750.0,,,,5d53c991ab3b8500015b7026,16:49:31,27/03/2024
html-keyboard-response,168,350471,0.0-69.0-3.0,,<div style='margin:auto;width: auto; font-size: 150%'><span style='font-weight: bold; font-size: 100px; color: green;'>+10 points!</span><br><br></div>,,delaylearn,learning,feedback_image_window,8LBNMYgDwaUIvQu16KdMjRfsUlB3,8LBNMYgDwaUIvQu16KdMjRfsUlB3,,,,,,,,,,,,,,,,,,,,,,5d53c991ab3b8500015b7026,16:49:31,27/03/2024
html-keyboard-response,169,350979,0.0-70.0-0.0,,,,,,mood_trial_fixation,8LBNMYgDwaUIvQu16KdMjRfsUlB3,,,,,,,,,,,,,,,,,,,,,,,5d53c991ab3b8500015b7026,16:49:31,27/03/2024
lmdlab-html-vas-response,170,355191,0.0-70.0-1.0,3207.0,How happy are you right now?,0.44290123456790126,delaylearn,learning,mood_trial,8LBNMYgDwaUIvQu16KdMjRfsUlB3,8LBNMYgDwaUIvQu16KdMjRfsUlB3,,,,,,,,,,,,,,,,,,,,"['Very unhappy', 'Very happy']",,5d53c991ab3b8500015b7026,16:49:31,27/03/2024
html-keyboard-response,171,357531,0.0-71.0,,"<div style=""font-size:100px;"">+</div>",,delaylearn,learning,ITI,8LBNMYgDwaUIvQu16KdMjRfsUlB3,8LBNMYgDwaUIvQu16KdMjRfsUlB3,,,,,,,,,,,,,,,,,,,2336.0,,,5d53c991ab3b8500015b7026,16:49:31,27/03/2024
html-keyboard-response,172,358657,0.0-72.0-0.0,1123.4000000059605,"<div style=""display: flex; flex-direction: column; align-items: center; margin-top: -40px;""><img src=""images/pattern_4.png"" style=""width: 234px; height: 230px; margin-top: -50px;""><div style=""display: flex; justify-content: space-between; margin-top: 33px;""><img src=""images/choice_trial_4.png"" style=""width: 408px; height: 417px; margin-right: 200px;""><img src=""images/choice_trial_11.png"" style=""width: 408px; height: 417px;""></div></div>",j,delaylearn,learning,trial,8LBNMYgDwaUIvQu16KdMjRfsUlB3,8LBNMYgDwaUIvQu16KdMjRfsUlB3,5.0,images/choice_trial_4.png,images/choice_trial_11.png,images/pattern_4.png,j,j,7000.0,4.0,11.0,3.0,1.0,31.0,1.0,1.0,11.0,210.0,,,,,,5d53c991ab3b8500015b7026,16:49:31,27/03/2024
html-keyboard-response,173,359673,0.0-72.0-1.0,,"<div style=""display: flex; flex-direction: column; align-items: center; margin-top: -40px;""><img src=""images/pattern_4.png"" style=""width: 234px; height: 230px; margin-top: -50px;""><div style=""display: flex; justify-content: space-between; margin-top: 33px;""><img src=""images/choice_trial_11.png"" style=""width: 408px; height: 417px; margin-left:608px;""></div></div>",,delaylearn,learning,display_response,8LBNMYgDwaUIvQu16KdMjRfsUlB3,8LBNMYgDwaUIvQu16KdMjRfsUlB3,,,,,,,,,,,,,,,,,chosen stimuli: images/choice_trial_11.png,,,,,5d53c991ab3b8500015b7026,16:49:31,27/03/2024
html-keyboard-response,174,366679,0.0-72.0-2.0,,,,delaylearn,learning,feedback_duration_window,8LBNMYgDwaUIvQu16KdMjRfsUlB3,8LBNMYgDwaUIvQu16KdMjRfsUlB3,,,,,,,,,,,,,,,,,,7000.0,,,,5d53c991ab3b8500015b7026,16:49:31,27/03/2024
html-keyboard-response,175,368191,0.0-72.0-3.0,,<div style='margin:auto;width: auto; font-size: 150%'><span style='font-weight: bold; font-size: 100px; color: green;'>+10 points!</span><br><br></div>,,delaylearn,learning,feedback_image_window,8LBNMYgDwaUIvQu16KdMjRfsUlB3,8LBNMYgDwaUIvQu16KdMjRfsUlB3,,,,,,,,,,,,,,,,,,,,,,5d53c991ab3b8500015b7026,16:49:31,27/03/2024
html-keyboard-response,176,369994,0.0-73.0,,"<div style=""font-size:100px;"">+</div>",,delaylearn,learning,ITI,8LBNMYgDwaUIvQu16KdMjRfsUlB3,8LBNMYgDwaUIvQu16KdMjRfsUlB3,,,,,,,,,,,,,,,,,,,1802.0,,,5d53c991ab3b8500015b7026,16:49:31,27/03/2024
html-keyboard-response,177,371226,0.0-74.0-0.0,1229.199999988079,"<div style=""display: flex; flex-direction: column; align-items: center; margin-top: -40px;""><img src=""images/pattern_3.png"" style=""width: 234px; height: 230px; margin-top: -50px;""><div style=""display: flex; justify-content: space-between; margin-top: 33px;""><img src=""images/choice_trial_2.png"" style=""width: 408px; height: 417px; margin-right: 200px;""><img src=""images/choice_trial_16.png"" style=""width: 408px; height: 417px;""></div></div>",f,delaylearn,learning,trial,8LBNMYgDwaUIvQu16KdMjRfsUlB3,8LBNMYgDwaUIvQu16KdMjRfsUlB3,5.0,images/choice_trial_2.png,images/choice_trial_16.png,images/pattern_3.png,j,j,7000.0,2.0,16.0,2.0,1.0,32.0,0.0,0.0,2.0,210.0,,,,,,5d53c991ab3b8500015b7026,16:49:31,27/03/2024
html-keyboard-response,178,372233,0.0-74.0-1.0,,"<div style=""display: flex; flex-direction: column; align-items: center; margin-top: -40px;""><img src=""images/pattern_3.png"" style=""width: 234px; height: 230px; margin-top: -50px;""><div style=""display: flex; justify-content: space-between; margin-top: 33px;""><img src=""images/choice_trial_2.png"" style=""width: 408px; height: 417px; margin-right: 608px;""></div></div>",,delaylearn,learning,display_response,8LBNMYgDwaUIvQu16KdMjRfsUlB3,8LBNMYgDwaUIvQu16KdMjRfsUlB3,,,,,,,,,,,,,,,,,chosen stimuli: images/choice_trial_2.png,,,,,5d53c991ab3b8500015b7026,16:49:31,27/03/2024
html-keyboard-response,179,379242,0.0-74.0-2.0,,,,delaylearn,learning,feedback_duration_window,8LBNMYgDwaUIvQu16KdMjRfsUlB3,8LBNMYgDwaUIvQu16KdMjRfsUlB3,,,,,,,,,,,,,,,,,,7000.0,,,,5d53c991ab3b8500015b7026,16:49:31,27/03/2024
html-keyboard-response,180,380748,0.0-74.0-3.0,,<div style='margin:auto;width: auto; font-size: 150%'><span style='font-weight: bold; font-size: 100px; color: red;'>0 points!</span><br><br></div>,,delaylearn,learning,feedback_image_window,8LBNMYgDwaUIvQu16KdMjRfsUlB3,8LBNMYgDwaUIvQu16KdMjRfsUlB3,,,,,,,,,,,,,,,,,,,,,,5d53c991ab3b8500015b7026,16:49:31,27/03/2024
html-keyboard-response,181,383023,0.0-75.0,,"<div style=""font-size:100px;"">+</div>",,delaylearn,learning,ITI,8LBNMYgDwaUIvQu16KdMjRfsUlB3,8LBNMYgDwaUIvQu16KdMjRfsUlB3,,,,,,,,,,,,,,,,,,,2261.0,,,5d53c991ab3b8500015b7026,16:49:31,27/03/2024
html-keyboard-response,182,385002,0.0-76.0-0.0,1976.0999999940395,"<div style=""display: flex; flex-direction: column; align-items: center; margin-top: -40px;""><img src=""images/pattern_5.png"" style=""width: 234px; height: 230px; margin-top: -50px;""><div style=""display: flex; justify-content: space-between; margin-top: 33px;""><img src=""images/choice_trial_7.png"" style=""width: 408px; height: 417px; margin-right: 200px;""><img src=""images/choice_trial_13.png"" style=""width: 408px; height: 417px;""></div></div>",f,delaylearn,learning,trial,8LBNMYgDwaUIvQu16KdMjRfsUlB3,8LBNMYgDwaUIvQu16KdMjRfsUlB3,5.0,images/choice_trial_7.png,images/choice_trial_13.png,images/pattern_5.png,j,f,750.0,7.0,13.0,4.0,0.0,33.0,1.0,0.0,7.0,210.0,,,,,,5d53c991ab3b8500015b7026,16:49:31,27/03/2024
html-keyboard-response,183,386004,0.0-76.0-1.0,,"<div style=""display: flex; flex-direction: column; align-items: center; margin-top: -40px;""><img src=""images/pattern_5.png"" style=""width: 234px; height: 230px; margin-top: -50px;""><div style=""display: flex; justify-content: space-between; margin-top: 33px;""><img src=""images/choice_trial_7.png"" style=""width: 408px; height: 417px; margin-right: 608px;""></div></div>",,delaylearn,learning,display_response,8LBNMYgDwaUIvQu16KdMjRfsUlB3,8LBNMYgDwaUIvQu16KdMjRfsUlB3,,,,,,,,,,,,,,,,,chosen stimuli: images/choice_trial_7.png,,,,,5d53c991ab3b8500015b7026,16:49:31,27/03/2024
html-keyboard-response,184,386770,0.0-76.0-2.0,,,,delaylearn,learning,feedback_duration_window,8LBNMYgDwaUIvQu16KdMjRfsUlB3,8LBNMYgDwaUIvQu16KdMjRfsUlB3,,,,,,,,,,,,,,,,,,750.0,,,,5d53c991ab3b8500015b7026,16:49:31,27/03/2024
html-keyboard-response,185,388280,0.0-76.0-3.0,,<div style='margin:auto;width: auto; font-size: 150%'><span style='font-weight: bold; font-size: 100px; color: red;'>0 points!</span><br><br></div>,,delaylearn,learning,feedback_image_window,8LBNMYgDwaUIvQu16KdMjRfsUlB3,8LBNMYgDwaUIvQu16KdMjRfsUlB3,,,,,,,,,,,,,,,,,,,,,,5d53c991ab3b8500015b7026,16:49:31,27/03/2024
html-keyboard-response,186,390579,0.0-77.0,,"<div style=""font-size:100px;"">+</div>",,delaylearn,learning,ITI,8LBNMYgDwaUIvQu16KdMjRfsUlB3,8LBNMYgDwaUIvQu16KdMjRfsUlB3,,,,,,,,,,,,,,,,,,,2295.0,,,5d53c991ab3b8500015b7026,16:49:31,27/03/2024
html-keyboard-response,187,392522,0.0-78.0-0.0,1940.300000011921,"<div style=""display: flex; flex-direction: column; align-items: center; margin-top: -40px;""><img src=""images/pattern_1.png"" style=""width: 234px; height: 230px; margin-top: -50px;""><div style=""display: flex; justify-content: space-between; margin-top: 33px;""><img src=""images/choice_trial_6.png"" style=""width: 408px; height: 417px; margin-right: 200px;""><img src=""images/choice_trial_15.png"" style=""width: 408px; height: 417px;""></div></div>",j,delaylearn,learning,trial,8LBNMYgDwaUIvQu16KdMjRfsUlB3,8LBNMYgDwaUIvQu16KdMjRfsUlB3,5.0,images/choice_trial_6.png,images/choice_trial_15.png,images/pattern_1.png,f,f,7000.0,6.0,15.0,1.0,0.0,34.0,0.0,0.0,15.0,210.0,,,,,,5d53c991ab3b8500015b7026,16:49:31,27/03/2024
html-keyboard-response,188,393538,0.0-78.0-1.0,,"<div style=""display: flex; flex-direction: column; align-items: center; margin-top: -40px;""><img src=""images/pattern_1.png"" style=""width: 234px; height: 230px; margin-top: -50px;""><div style=""display: flex; justify-content: space-between; margin-top: 33px;""><img src=""images/choice_trial_15.png"" style=""width: 408px; height: 417px; margin-left:608px;""></div></div>",,delaylearn,learning,display_response,8LBNMYgDwaUIvQu16KdMjRfsUlB3,8LBNMYgDwaUIvQu16KdMjRfsUlB3,,,,,,,,,,,,,,,,,chosen stimuli: images/choice_trial_15.png,,,,,5d53c991ab3b8500015b7026,16:49:31,27/03/2024
html-keyboard-response,189,400551,0.0-78.0-2.0,,,,delaylearn,learning,feedback_duration_window,8LBNMYgDwaUIvQu16KdMjRfsUlB3,8LBNMYgDwaUIvQu16KdMjRfsUlB3,,,,,,,,,,,,,,,,,,7000.0,,,,5d53c991ab3b8500015b7026,16:49:31,27/03/2024
html-keyboard-response,190,402063,0.0-78.0-3.0,,<div style='margin:auto;width: auto; font-size: 150%'><span style='font-weight: bold; font-size: 100px; color: red;'>0 points!</span><br><br></div>,,delaylearn,learning,feedback_image_window,8LBNMYgDwaUIvQu16KdMjRfsUlB3,8LBNMYgDwaUIvQu16KdMjRfsUlB3,,,,,,,,,,,,,,,,,,,,,,5d53c991ab3b8500015b7026,16:49:31,27/03/2024
html-keyboard-response,191,402574,0.0-79.0-0.0,,,,,,mood_trial_fixation,8LBNMYgDwaUIvQu16KdMjRfsUlB3,,,,,,,,,,,,,,,,,,,,,,,5d53c991ab3b8500015b7026,16:49:31,27/03/2024
lmdlab-html-vas-response,192,406504,0.0-79.0-1.0,2907.0,How happy are you right now?,0.36574074074074076,delaylearn,learning,mood_trial,8LBNMYgDwaUIvQu16KdMjRfsUlB3,8LBNMYgDwaUIvQu16KdMjRfsUlB3,,,,,,,,,,,,,,,,,,,,"['Very unhappy', 'Very happy']",,5d53c991ab3b8500015b7026,16:49:31,27/03/2024
html-keyboard-response,193,408476,0.0-80.0,,"<div style=""font-size:100px;"">+</div>",,delaylearn,learning,ITI,8LBNMYgDwaUIvQu16KdMjRfsUlB3,8LBNMYgDwaUIvQu16KdMjRfsUlB3,,,,,,,,,,,,,,,,,,,1965.0,,,5d53c991ab3b8500015b7026,16:49:31,27/03/2024
html-keyboard-response,194,410481,0.0-81.0-0.0,2003.0,"<div style=""display: flex; flex-direction: column; align-items: center; margin-top: -40px;""><img src=""images/pattern_6.png"" style=""width: 234px; height: 230px; margin-top: -50px;""><div style=""display: flex; justify-content: space-between; margin-top: 33px;""><img src=""images/choice_trial_14.png"" style=""width: 408px; height: 417px; margin-right: 200px;""><img src=""images/choice_trial_9.png"" style=""width: 408px; height: 417px;""></div></div>",j,delaylearn,learning,trial,8LBNMYgDwaUIvQu16KdMjRfsUlB3,8LBNMYgDwaUIvQu16KdMjRfsUlB3,5.0,images/choice_trial_14.png,images/choice_trial_9.png,images/pattern_6.png,j,f,750.0,14.0,9.0,5.0,0.0,35.0,0.0,1.0,9.0,220.0,,,,,,5d53c991ab3b8500015b7026,16:49:31,27/03/2024
html-keyboard-response,195,411495,0.0-81.0-1.0,,"<div style=""display: flex; flex-direction: column; align-items: center; margin-top: -40px;""><img src=""images/pattern_6.png"" style=""width: 234px; height: 230px; margin-top: -50px;""><div style=""display: flex; justify-content: space-between; margin-top: 33px;""><img src=""images/choice_trial_9.png"" style=""width: 408px; height: 417px; margin-left:608px;""></div></div>",,delaylearn,learning,display_response,8LBNMYgDwaUIvQu16KdMjRfsUlB3,8LBNMYgDwaUIvQu16KdMjRfsUlB3,,,,,,,,,,,,,,,,,chosen stimuli: images/choice_trial_9.png,,,,,5d53c991ab3b8500015b7026,16:49:31,27/03/2024
html-keyboard-response,196,412262,0.0-81.0-2.0,,,,delaylearn,learning,feedback_duration_window,8LBNMYgDwaUIvQu16KdMjRfsUlB3,8LBNMYgDwaUIvQu16KdMjRfsUlB3,,,,,,,,,,,,,,,,,,750.0,,,,5d53c991ab3b8500015b7026,16:49:31,27/03/2024
html-keyboard-response,197,413770,0.0-81.0-3.0,,<div style='margin:auto;width: auto; font-size: 150%'><span style='font-weight: bold; font-size: 100px; color: green;'>+10 points!</span><br><br></div>,,delaylearn,learning,feedback_image_window,8LBNMYgDwaUIvQu16KdMjRfsUlB3,8LBNMYgDwaUIvQu16KdMjRfsUlB3,,,,,,,,,,,,,,,,,,,,,,5d53c991ab3b8500015b7026,16:49:31,27/03/2024
html-keyboard-response,198,415319,0.0-82.0,,"<div style=""font-size:100px;"">+</div>",,delaylearn,learning,ITI,8LBNMYgDwaUIvQu16KdMjRfsUlB3,8LBNMYgDwaUIvQu16KdMjRfsUlB3,,,,,,,,,,,,,,,,,,,1545.0,,,5d53c991ab3b8500015b7026,16:49:31,27/03/2024
html-keyboard-response,199,416146,0.0-83.0-0.0,824.9000000059605,"<div style=""display: flex; flex-direction: column; align-items: center; margin-top: -40px;""><img src=""images/pattern_3.png"" style=""width: 234px; height: 230px; margin-top: -50px;""><div style=""display: flex; justify-content: space-between; margin-top: 33px;""><img src=""images/choice_trial_2.png"" style=""width: 408px; height: 417px; margin-right: 200px;""><img src=""images/choice_trial_16.png"" style=""width: 408px; height: 417px;""></div></div>",j,delaylearn,learning,trial,8LBNMYgDwaUIvQu16KdMjRfsUlB3,8LBNMYgDwaUIvQu16KdMjRfsUlB3,5.0,images/choice_trial_2.png,images/choice_trial_16.png,images/pattern_3.png,j,j,7000.0,2.0,16.0,2.0,1.0,36.0,1.0,1.0,16.0,230.0,,,,,,5d53c991ab3b8500015b7026,16:49:31,27/03/2024
html-keyboard-response,200,417164,0.0-83.0-1.0,,"<div style=""display: flex; flex-direction: column; align-items: center; margin-top: -40px;""><img src=""images/pattern_3.png"" style=""width: 234px; height: 230px; margin-top: -50px;""><div style=""display: flex; justify-content: space-between; margin-top: 33px;""><img src=""images/choice_trial_16.png"" style=""width: 408px; height: 417px; margin-left:608px;""></div></div>",,delaylearn,learning,display_response,8LBNMYgDwaUIvQu16KdMjRfsUlB3,8LBNMYgDwaUIvQu16KdMjRfsUlB3,,,,,,,,,,,,,,,,,chosen stimuli: images/choice_trial_16.png,,,,,5d53c991ab3b8500015b7026,16:49:31,27/03/2024
html-keyboard-response,201,424165,0.0-83.0-2.0,,,,delaylearn,learning,feedback_duration_window,8LBNMYgDwaUIvQu16KdMjRfsUlB3,8LBNMYgDwaUIvQu16KdMjRfsUlB3,,,,,,,,,,,,,,,,,,7000.0,,,,5d53c991ab3b8500015b7026,16:49:31,27/03/2024
html-keyboard-response,202,425679,0.0-83.0-3.0,,<div style='margin:auto;width: auto; font-size: 150%'><span style='font-weight: bold; font-size: 100px; color: green;'>+10 points!</span><br><br></div>,,delaylearn,learning,feedback_image_window,8LBNMYgDwaUIvQu16KdMjRfsUlB3,8LBNMYgDwaUIvQu16KdMjRfsUlB3,,,,,,,,,,,,,,,,,,,,,,5d53c991ab3b8500015b7026,16:49:31,27/03/2024
html-keyboard-response,203,427284,0.0-84.0,,"<div style=""font-size:100px;"">+</div>",,delaylearn,learning,ITI,8LBNMYgDwaUIvQu16KdMjRfsUlB3,8LBNMYgDwaUIvQu16KdMjRfsUlB3,,,,,,,,,,,,,,,,,,,1596.0,,,5d53c991ab3b8500015b7026,16:49:31,27/03/2024
html-keyboard-response,204,427946,0.0-85.0-0.0,658.1999999880791,"<div style=""display: flex; flex-direction: column; align-items: center; margin-top: -40px;""><img src=""images/pattern_4.png"" style=""width: 234px; height: 230px; margin-top: -50px;""><div style=""display: flex; justify-content: space-between; margin-top: 33px;""><img src=""images/choice_trial_4.png"" style=""width: 408px; height: 417px; margin-right: 200px;""><img src=""images/choice_trial_11.png"" style=""width: 408px; height: 417px;""></div></div>",j,delaylearn,learning,trial,8LBNMYgDwaUIvQu16KdMjRfsUlB3,8LBNMYgDwaUIvQu16KdMjRfsUlB3,5.0,images/choice_trial_4.png,images/choice_trial_11.png,images/pattern_4.png,f,j,7000.0,4.0,11.0,3.0,1.0,37.0,1.0,0.0,11.0,230.0,,,,,,5d53c991ab3b8500015b7026,16:49:31,27/03/2024
html-keyboard-response,205,428956,0.0-85.0-1.0,,"<div style=""display: flex; flex-direction: column; align-items: center; margin-top: -40px;""><img src=""images/pattern_4.png"" style=""width: 234px; height: 230px; margin-top: -50px;""><div style=""display: flex; justify-content: space-between; margin-top: 33px;""><img src=""images/choice_trial_11.png"" style=""width: 408px; height: 417px; margin-left:608px;""></div></div>",,delaylearn,learning,display_response,8LBNMYgDwaUIvQu16KdMjRfsUlB3,8LBNMYgDwaUIvQu16KdMjRfsUlB3,,,,,,,,,,,,,,,,,chosen stimuli: images/choice_trial_11.png,,,,,5d53c991ab3b8500015b7026,16:49:31,27/03/2024
html-keyboard-response,206,435970,0.0-85.0-2.0,,,,delaylearn,learning,feedback_duration_window,8LBNMYgDwaUIvQu16KdMjRfsUlB3,8LBNMYgDwaUIvQu16KdMjRfsUlB3,,,,,,,,,,,,,,,,,,7000.0,,,,5d53c991ab3b8500015b7026,16:49:31,27/03/2024
html-keyboard-response,207,437485,0.0-85.0-3.0,,<div style='margin:auto;width: auto; font-size: 150%'><span style='font-weight: bold; font-size: 100px; color: red;'>0 points!</span><br><br></div>,,delaylearn,learning,feedback_image_window,8LBNMYgDwaUIvQu16KdMjRfsUlB3,8LBNMYgDwaUIvQu16KdMjRfsUlB3,,,,,,,,,,,,,,,,,,,,,,5d53c991ab3b8500015b7026,16:49:31,27/03/2024
html-keyboard-response,208,439623,0.0-86.0,,"<div style=""font-size:100px;"">+</div>",,delaylearn,learning,ITI,8LBNMYgDwaUIvQu16KdMjRfsUlB3,8LBNMYgDwaUIvQu16KdMjRfsUlB3,,,,,,,,,,,,,,,,,,,2136.0,,,5d53c991ab3b8500015b7026,16:49:31,27/03/2024
html-keyboard-response,209,441139,0.0-87.0-0.0,1512.5999999940395,"<div style=""display: flex; flex-direction: column; align-items: center; margin-top: -40px;""><img src=""images/pattern_7.png"" style=""width: 234px; height: 230px; margin-top: -50px;""><div style=""display: flex; justify-content: space-between; margin-top: 33px;""><img src=""images/choice_trial_8.png"" style=""width: 408px; height: 417px; margin-right: 200px;""><img src=""images/choice_trial_10.png"" style=""width: 408px; height: 417px;""></div></div>",f,delaylearn,learning,trial,8LBNMYgDwaUIvQu16KdMjRfsUlB3,8LBNMYgDwaUIvQu16KdMjRfsUlB3,5.0,images/choice_trial_8.png,images/choice_trial_10.png,images/pattern_7.png,f,f,750.0,8.0,10.0,6.0,0.0,38.0,1.0,1.0,8.0,240.0,,,,,,5d53c991ab3b8500015b7026,16:49:31,27/03/2024
html-keyboard-response,210,442155,0.0-87.0-1.0,,"<div style=""display: flex; flex-direction: column; align-items: center; margin-top: -40px;""><img src=""images/pattern_7.png"" style=""width: 234px; height: 230px; margin-top: -50px;""><div style=""display: flex; justify-content: space-between; margin-top: 33px;""><img src=""images/choice_trial_8.png"" style=""width: 408px; height: 417px; margin-right: 608px;""></div></div>",,delaylearn,learning,display_response,8LBNMYgDwaUIvQu16KdMjRfsUlB3,8LBNMYgDwaUIvQu16KdMjRfsUlB3,,,,,,,,,,,,,,,,,chosen stimuli: images/choice_trial_8.png,,,,,5d53c991ab3b8500015b7026,16:49:31,27/03/2024
html-keyboard-response,211,442906,0.0-87.0-2.0,,,,delaylearn,learning,feedback_duration_window,8LBNMYgDwaUIvQu16KdMjRfsUlB3,8LBNMYgDwaUIvQu16KdMjRfsUlB3,,,,,,,,,,,,,,,,,,750.0,,,,5d53c991ab3b8500015b7026,16:49:31,27/03/2024
html-keyboard-response,212,444415,0.0-87.0-3.0,,<div style='margin:auto;width: auto; font-size: 150%'><span style='font-weight: bold; font-size: 100px; color: green;'>+10 points!</span><br><br></div>,,delaylearn,learning,feedback_image_window,8LBNMYgDwaUIvQu16KdMjRfsUlB3,8LBNMYgDwaUIvQu16KdMjRfsUlB3,,,,,,,,,,,,,,,,,,,,,,5d53c991ab3b8500015b7026,16:49:31,27/03/2024
html-keyboard-response,213,446275,0.0-88.0,,"<div style=""font-size:100px;"">+</div>",,delaylearn,learning,ITI,8LBNMYgDwaUIvQu16KdMjRfsUlB3,8LBNMYgDwaUIvQu16KdMjRfsUlB3,,,,,,,,,,,,,,,,,,,1854.0,,,5d53c991ab3b8500015b7026,16:49:31,27/03/2024
html-keyboard-response,214,447650,0.0-89.0-0.0,1371.9000000059605,"<div style=""display: flex; flex-direction: column; align-items: center; margin-top: -40px;""><img src=""images/pattern_1.png"" style=""width: 234px; height: 230px; margin-top: -50px;""><div style=""display: flex; justify-content: space-between; margin-top: 33px;""><img src=""images/choice_trial_6.png"" style=""width: 408px; height: 417px; margin-right: 200px;""><img src=""images/choice_trial_15.png"" style=""width: 408px; height: 417px;""></div></div>",f,delaylearn,learning,trial,8LBNMYgDwaUIvQu16KdMjRfsUlB3,8LBNMYgDwaUIvQu16KdMjRfsUlB3,5.0,images/choice_trial_6.png,images/choice_trial_15.png,images/pattern_1.png,f,f,7000.0,6.0,15.0,1.0,0.0,39.0,1.0,1.0,6.0,250.0,,,,,,5d53c991ab3b8500015b7026,16:49:31,27/03/2024
html-keyboard-response,215,448653,0.0-89.0-1.0,,"<div style=""display: flex; flex-direction: column; align-items: center; margin-top: -40px;""><img src=""images/pattern_1.png"" style=""width: 234px; height: 230px; margin-top: -50px;""><div style=""display: flex; justify-content: space-between; margin-top: 33px;""><img src=""images/choice_trial_6.png"" style=""width: 408px; height: 417px; margin-right: 608px;""></div></div>",,delaylearn,learning,display_response,8LBNMYgDwaUIvQu16KdMjRfsUlB3,8LBNMYgDwaUIvQu16KdMjRfsUlB3,,,,,,,,,,,,,,,,,chosen stimuli: images/choice_trial_6.png,,,,,5d53c991ab3b8500015b7026,16:49:31,27/03/2024
html-keyboard-response,216,455656,0.0-89.0-2.0,,,,delaylearn,learning,feedback_duration_window,8LBNMYgDwaUIvQu16KdMjRfsUlB3,8LBNMYgDwaUIvQu16KdMjRfsUlB3,,,,,,,,,,,,,,,,,,7000.0,,,,5d53c991ab3b8500015b7026,16:49:31,27/03/2024
html-keyboard-response,217,457171,0.0-89.0-3.0,,<div style='margin:auto;width: auto; font-size: 150%'><span style='font-weight: bold; font-size: 100px; color: green;'>+10 points!</span><br><br></div>,,delaylearn,learning,feedback_image_window,8LBNMYgDwaUIvQu16KdMjRfsUlB3,8LBNMYgDwaUIvQu16KdMjRfsUlB3,,,,,,,,,,,,,,,,,,,,,,5d53c991ab3b8500015b7026,16:49:31,27/03/2024
html-keyboard-response,218,457676,0.0-90.0-0.0,,,,,,mood_trial_fixation,8LBNMYgDwaUIvQu16KdMjRfsUlB3,,,,,,,,,,,,,,,,,,,,,,,5d53c991ab3b8500015b7026,16:49:31,27/03/2024
lmdlab-html-vas-response,219,461488,0.0-90.0-1.0,2805.0,How happy are you right now?,0.4861111111111111,delaylearn,learning,mood_trial,8LBNMYgDwaUIvQu16KdMjRfsUlB3,8LBNMYgDwaUIvQu16KdMjRfsUlB3,,,,,,,,,,,,,,,,,,,,"['Very unhappy', 'Very happy']",,5d53c991ab3b8500015b7026,16:49:31,27/03/2024
html-keyboard-response,220,463677,0.0-91.0,,"<div style=""font-size:100px;"">+</div>",,delaylearn,learning,ITI,8LBNMYgDwaUIvQu16KdMjRfsUlB3,8LBNMYgDwaUIvQu16KdMjRfsUlB3,,,,,,,,,,,,,,,,,,,2174.0,,,5d53c991ab3b8500015b7026,16:49:31,27/03/2024
html-keyboard-response,221,464722,0.0-92.0-0.0,1040.300000011921,"<div style=""display: flex; flex-direction: column; align-items: center; margin-top: -40px;""><img src=""images/pattern_3.png"" style=""width: 234px; height: 230px; margin-top: -50px;""><div style=""display: flex; justify-content: space-between; margin-top: 33px;""><img src=""images/choice_trial_16.png"" style=""width: 408px; height: 417px; margin-right: 200px;""><img src=""images/choice_trial_2.png"" style=""width: 408px; height: 417px;""></div></div>",f,delaylearn,learning,trial,8LBNMYgDwaUIvQu16KdMjRfsUlB3,8LBNMYgDwaUIvQu16KdMjRfsUlB3,5.0,images/choice_trial_16.png,images/choice_trial_2.png,images/pattern_3.png,j,f,7000.0,16.0,2.0,2.0,0.0,40.0,1.0,0.0,16.0,250.0,,,,,,5d53c991ab3b8500015b7026,16:49:31,27/03/2024
html-keyboard-response,222,465726,0.0-92.0-1.0,,"<div style=""display: flex; flex-direction: column; align-items: center; margin-top: -40px;""><img src=""images/pattern_3.png"" style=""width: 234px; height: 230px; margin-top: -50px;""><div style=""display: flex; justify-content: space-between; margin-top: 33px;""><img src=""images/choice_trial_16.png"" style=""width: 408px; height: 417px; margin-right: 608px;""></div></div>",,delaylearn,learning,display_response,8LBNMYgDwaUIvQu16KdMjRfsUlB3,8LBNMYgDwaUIvQu16KdMjRfsUlB3,,,,,,,,,,,,,,,,,chosen stimuli: images/choice_trial_16.png,,,,,5d53c991ab3b8500015b7026,16:49:31,27/03/2024
html-keyboard-response,223,472741,0.0-92.0-2.0,,,,delaylearn,learning,feedback_duration_window,8LBNMYgDwaUIvQu16KdMjRfsUlB3,8LBNMYgDwaUIvQu16KdMjRfsUlB3,,,,,,,,,,,,,,,,,,7000.0,,,,5d53c991ab3b8500015b7026,16:49:31,27/03/2024
html-keyboard-response,224,474243,0.0-92.0-3.0,,<div style='margin:auto;width: auto; font-size: 150%'><span style='font-weight: bold; font-size: 100px; color: red;'>0 points!</span><br><br></div>,,delaylearn,learning,feedback_image_window,8LBNMYgDwaUIvQu16KdMjRfsUlB3,8LBNMYgDwaUIvQu16KdMjRfsUlB3,,,,,,,,,,,,,,,,,,,,,,5d53c991ab3b8500015b7026,16:49:31,27/03/2024
html-keyboard-response,225,476496,0.0-93.0,,"<div style=""font-size:100px;"">+</div>",,delaylearn,learning,ITI,8LBNMYgDwaUIvQu16KdMjRfsUlB3,8LBNMYgDwaUIvQu16KdMjRfsUlB3,,,,,,,,,,,,,,,,,,,2241.0,,,5d53c991ab3b8500015b7026,16:49:31,27/03/2024
html-keyboard-response,226,477513,0.0-94.0-0.0,1011.9000000059605,"<div style=""display: flex; flex-direction: column; align-items: center; margin-top: -40px;""><img src=""images/pattern_7.png"" style=""width: 234px; height: 230px; margin-top: -50px;""><div style=""display: flex; justify-content: space-between; margin-top: 33px;""><img src=""images/choice_trial_10.png"" style=""width: 408px; height: 417px; margin-right: 200px;""><img src=""images/choice_trial_8.png"" style=""width: 408px; height: 417px;""></div></div>",j,delaylearn,learning,trial,8LBNMYgDwaUIvQu16KdMjRfsUlB3,8LBNMYgDwaUIvQu16KdMjRfsUlB3,5.0,images/choice_trial_10.png,images/choice_trial_8.png,images/pattern_7.png,j,j,750.0,10.0,8.0,6.0,1.0,41.0,1.0,1.0,8.0,260.0,,,,,,5d53c991ab3b8500015b7026,16:49:31,27/03/2024
html-keyboard-response,227,478527,0.0-94.0-1.0,,"<div style=""display: flex; flex-direction: column; align-items: center; margin-top: -40px;""><img src=""images/pattern_7.png"" style=""width: 234px; height: 230px; margin-top: -50px;""><div style=""display: flex; justify-content: space-between; margin-top: 33px;""><img src=""images/choice_trial_8.png"" style=""width: 408px; height: 417px; margin-left:608px;""></div></div>",,delaylearn,learning,display_response,8LBNMYgDwaUIvQu16KdMjRfsUlB3,8LBNMYgDwaUIvQu16KdMjRfsUlB3,,,,,,,,,,,,,,,,,chosen stimuli: images/choice_trial_8.png,,,,,5d53c991ab3b8500015b7026,16:49:31,27/03/2024
html-keyboard-response,228,479291,0.0-94.0-2.0,,,,delaylearn,learning,feedback_duration_window,8LBNMYgDwaUIvQu16KdMjRfsUlB3,8LBNMYgDwaUIvQu16KdMjRfsUlB3,,,,,,,,,,,,,,,,,,750.0,,,,5d53c991ab3b8500015b7026,16:49:31,27/03/2024
html-keyboard-response,229,480801,0.0-94.0-3.0,,<div style='margin:auto;width: auto; font-size: 150%'><span style='font-weight: bold; font-size: 100px; color: green;'>+10 points!</span><br><br></div>,,delaylearn,learning,feedback_image_window,8LBNMYgDwaUIvQu16KdMjRfsUlB3,8LBNMYgDwaUIvQu16KdMjRfsUlB3,,,,,,,,,,,,,,,,,,,,,,5d53c991ab3b8500015b7026,16:49:31,27/03/2024
html-keyboard-response,230,482311,0.0-95.0,,"<div style=""font-size:100px;"">+</div>",,delaylearn,learning,ITI,8LBNMYgDwaUIvQu16KdMjRfsUlB3,8LBNMYgDwaUIvQu16KdMjRfsUlB3,,,,,,,,,,,,,,,,,,,1505.0,,,5d53c991ab3b8500015b7026,16:49:31,27/03/2024
