trial_type,trial_index,time_elapsed,internal_node_id,rt,stimulus,response,exp_name,exp_stage,test_part,subjectID,databaseID,counterbal,choice_stimuli_1,choice_stimuli_2,pattern_stimuli,rewarded_answer,correct_answer,feedback_duration_times,stim_left,stim_right,pair,leftright_counter,trial,response_correct,response_rewarded,chosen_stim,counter,displayed_choice,feedback_durations,ITI_duration,labels,rest_warning,prolificID,start_time,date
pavlovia,0,520,0.0-0.0,,,,,,,OUDTh4JYCVPT0h8Eao3KXvDTX4J3,,,,,,,,,,,,,,,,,,,,,,,5eb16c316e577a06b326d39c,16:28:53,27/03/2024
html-keyboard-response,1,3539,0.0-1.0,,"<div style=""font-size:100px;"">+</div>",,delaylearn,learning,pre_fixation,OUDTh4JYCVPT0h8Eao3KXvDTX4J3,,,,,,,,,,,,,,,,,,,,,,,5eb16c316e577a06b326d39c,16:28:53,27/03/2024
html-keyboard-response,2,4973,0.0-2.0-0.0,1433.199999988079,"<div style=""display: flex; flex-direction: column; align-items: center; margin-top: -40px;""><img src=""images/demo_images/pattern_1.png"" style=""width: 234px; height: 230px; margin-top: -50px;""><div style=""display: flex; justify-content: space-between; margin-top: 33px;""><img src=""images/demo_images/choice_trial_2.png"" style=""width: 408px; height: 417px; margin-right: 200px;""><img src=""images/demo_images/choice_trial_1.png"" style=""width: 408px; height: 417px;""></div></div>",f,delaylearn,learning,trial,OUDTh4JYCVPT0h8Eao3KXvDTX4J3,OUDTh4JYCVPT0h8Eao3KXvDTX4J3,5.0,images/demo_images/choice_trial_2.png,images/demo_images/choice_trial_1.png,images/demo_images/pattern_1.png,j,j,3000.0,2.0,1.0,20.0,1.0,1.0,0.0,0.0,2.0,0.0,,,,,,5eb16c316e577a06b326d39c,16:28:53,27/03/2024
html-keyboard-response,3,5979,0.0-2.0-1.0,,"<div style=""display: flex; flex-direction: column; align-items: center; margin-top: -40px;""><img src=""images/demo_images/pattern_1.png"" style=""width: 234px; height: 230px; margin-top: -50px;""><div style=""display: flex; justify-content: space-between; margin-top: 33px;""><img src=""images/demo_images/choice_trial_2.png"" style=""width: 408px; height: 417px; margin-right: 608px;""></div></div>",,delaylearn,learning,display_response,OUDTh4JYCVPT0h8Eao3KXvDTX4J3,OUDTh4JYCVPT0h8Eao3KXvDTX4J3,,,,,,,,,,,,,,,,,chosen stimuli: images/demo_images/choice_trial_2.png,,,,,5eb16c316e577a06b326d39c,16:28:53,27/03/2024
html-keyboard-response,4,8980,0.0-2.0-2.0,,,,delaylearn,learning,feedback_duration_window,OUDTh4JYCVPT0h8Eao3KXvDTX4J3,OUDTh4JYCVPT0h8Eao3KXvDTX4J3,,,,,,,,,,,,,,,,,,3000.0,,,,5eb16c316e577a06b326d39c,16:28:53,27/03/2024
html-keyboard-response,5,10499,0.0-2.0-3.0,,<div style='margin:auto;width: auto; font-size: 150%'><span style='font-weight: bold; font-size: 100px; color: red;'>0 points!</span><br><br></div>,,delaylearn,learning,feedback_image_window,OUDTh4JYCVPT0h8Eao3KXvDTX4J3,OUDTh4JYCVPT0h8Eao3KXvDTX4J3,,,,,,,,,,,,,,,,,,,,,,5eb16c316e577a06b326d39c,16:28:53,27/03/2024
html-keyboard-response,6,12228,0.0-3.0,,"<div style=""font-size:100px;"">+</div>",,delaylearn,learning,ITI,OUDTh4JYCVPT0h8Eao3KXvDTX4J3,OUDTh4JYCVPT0h8Eao3KXvDTX4J3,,,,,,,,,,,,,,,,,,,1717.0,,,5eb16c316e577a06b326d39c,16:28:53,27/03/2024
html-keyboard-response,7,15241,0.0-4.0-0.0,,"<div style=""display: flex; flex-direction: column; align-items: center; margin-top: -40px;""><img src=""images/demo_images/pattern_1.png"" style=""width: 234px; height: 230px; margin-top: -50px;""><div style=""display: flex; justify-content: space-between; margin-top: 33px;""><img src=""images/demo_images/choice_trial_2.png"" style=""width: 408px; height: 417px; margin-right: 200px;""><img src=""images/demo_images/choice_trial_1.png"" style=""width: 408px; height: 417px;""></div></div>",,delaylearn,learning,trial,OUDTh4JYCVPT0h8Eao3KXvDTX4J3,OUDTh4JYCVPT0h8Eao3KXvDTX4J3,5.0,images/demo_images/choice_trial_2.png,images/demo_images/choice_trial_1.png,images/demo_images/pattern_1.png,j,j,3000.0,2.0,1.0,20.0,1.0,2.0,0.0,0.0,0.0,0.0,,,,,,5eb16c316e577a06b326d39c,16:28:53,27/03/2024
html-keyboard-response,8,16254,0.0-4.0-1.0,,<div style='font-weight: bold; font-size: 75px; color: red;'>Missed Trial <br><br><br><br> Please respond faster</div>,,delaylearn,learning,display_response,OUDTh4JYCVPT0h8Eao3KXvDTX4J3,OUDTh4JYCVPT0h8Eao3KXvDTX4J3,,,,,,,,,,,,,,,,,Missed trial,,,,,5eb16c316e577a06b326d39c,16:28:53,27/03/2024
html-keyboard-response,9,16259,0.0-4.0-2.0,,,,delaylearn,learning,feedback_duration_window,OUDTh4JYCVPT0h8Eao3KXvDTX4J3,OUDTh4JYCVPT0h8Eao3KXvDTX4J3,,,,,,,,,,,,,,,,,,0.0,,,,5eb16c316e577a06b326d39c,16:28:53,27/03/2024
html-keyboard-response,10,16264,0.0-4.0-3.0,,,,delaylearn,learning,feedback_image_window,OUDTh4JYCVPT0h8Eao3KXvDTX4J3,OUDTh4JYCVPT0h8Eao3KXvDTX4J3,,,,,,,,,,,,,,,,,,,,,,5eb16c316e577a06b326d39c,16:28:53,27/03/2024
html-keyboard-response,11,18139,0.0-5.0,,"<div style=""font-size:100px;"">+</div>",,delaylearn,learning,ITI,OUDTh4JYCVPT0h8Eao3KXvDTX4J3,OUDTh4JYCVPT0h8Eao3KXvDTX4J3,,,,,,,,,,,,,,,,,,,1863.0,,,5eb16c316e577a06b326d39c,16:28:53,27/03/2024
html-keyboard-response,12,19378,0.0-6.0-0.0,1237.5,"<div style=""display: flex; flex-direction: column; align-items: center; margin-top: -40px;""><img src=""images/demo_images/pattern_1.png"" style=""width: 234px; height: 230px; margin-top: -50px;""><div style=""display: flex; justify-content: space-between; margin-top: 33px;""><img src=""images/demo_images/choice_trial_1.png"" style=""width: 408px; height: 417px; margin-right: 200px;""><img src=""images/demo_images/choice_trial_2.png"" style=""width: 408px; height: 417px;""></div></div>",f,delaylearn,learning,trial,OUDTh4JYCVPT0h8Eao3KXvDTX4J3,OUDTh4JYCVPT0h8Eao3KXvDTX4J3,5.0,images/demo_images/choice_trial_1.png,images/demo_images/choice_trial_2.png,images/demo_images/pattern_1.png,j,f,3000.0,1.0,2.0,20.0,0.0,3.0,1.0,0.0,1.0,0.0,,,,,,5eb16c316e577a06b326d39c,16:28:53,27/03/2024
html-keyboard-response,13,20398,0.0-6.0-1.0,,"<div style=""display: flex; flex-direction: column; align-items: center; margin-top: -40px;""><img src=""images/demo_images/pattern_1.png"" style=""width: 234px; height: 230px; margin-top: -50px;""><div style=""display: flex; justify-content: space-between; margin-top: 33px;""><img src=""images/demo_images/choice_trial_1.png"" style=""width: 408px; height: 417px; margin-right: 608px;""></div></div>",,delaylearn,learning,display_response,OUDTh4JYCVPT0h8Eao3KXvDTX4J3,OUDTh4JYCVPT0h8Eao3KXvDTX4J3,,,,,,,,,,,,,,,,,chosen stimuli: images/demo_images/choice_trial_1.png,,,,,5eb16c316e577a06b326d39c,16:28:53,27/03/2024
html-keyboard-response,14,23408,0.0-6.0-2.0,,,,delaylearn,learning,feedback_duration_window,OUDTh4JYCVPT0h8Eao3KXvDTX4J3,OUDTh4JYCVPT0h8Eao3KXvDTX4J3,,,,,,,,,,,,,,,,,,3000.0,,,,5eb16c316e577a06b326d39c,16:28:53,27/03/2024
html-keyboard-response,15,24925,0.0-6.0-3.0,,<div style='margin:auto;width: auto; font-size: 150%'><span style='font-weight: bold; font-size: 100px; color: red;'>0 points!</span><br><br></div>,,delaylearn,learning,feedback_image_window,OUDTh4JYCVPT0h8Eao3KXvDTX4J3,OUDTh4JYCVPT0h8Eao3KXvDTX4J3,,,,,,,,,,,,,,,,,,,,,,5eb16c316e577a06b326d39c,16:28:53,27/03/2024
html-keyboard-response,16,26925,0.0-7.0,,"<div style=""font-size:100px;"">+</div>",,delaylearn,learning,ITI,OUDTh4JYCVPT0h8Eao3KXvDTX4J3,OUDTh4JYCVPT0h8Eao3KXvDTX4J3,,,,,,,,,,,,,,,,,,,1990.0,,,5eb16c316e577a06b326d39c,16:28:53,27/03/2024
html-keyboard-response,17,28344,0.0-8.0-0.0,1417.5999999642372,"<div style=""display: flex; flex-direction: column; align-items: center; margin-top: -40px;""><img src=""images/demo_images/pattern_1.png"" style=""width: 234px; height: 230px; margin-top: -50px;""><div style=""display: flex; justify-content: space-between; margin-top: 33px;""><img src=""images/demo_images/choice_trial_1.png"" style=""width: 408px; height: 417px; margin-right: 200px;""><img src=""images/demo_images/choice_trial_2.png"" style=""width: 408px; height: 417px;""></div></div>",f,delaylearn,learning,trial,OUDTh4JYCVPT0h8Eao3KXvDTX4J3,OUDTh4JYCVPT0h8Eao3KXvDTX4J3,5.0,images/demo_images/choice_trial_1.png,images/demo_images/choice_trial_2.png,images/demo_images/pattern_1.png,f,f,3000.0,1.0,2.0,20.0,0.0,4.0,1.0,1.0,1.0,10.0,,,,,,5eb16c316e577a06b326d39c,16:28:53,27/03/2024
html-keyboard-response,18,29352,0.0-8.0-1.0,,"<div style=""display: flex; flex-direction: column; align-items: center; margin-top: -40px;""><img src=""images/demo_images/pattern_1.png"" style=""width: 234px; height: 230px; margin-top: -50px;""><div style=""display: flex; justify-content: space-between; margin-top: 33px;""><img src=""images/demo_images/choice_trial_1.png"" style=""width: 408px; height: 417px; margin-right: 608px;""></div></div>",,delaylearn,learning,display_response,OUDTh4JYCVPT0h8Eao3KXvDTX4J3,OUDTh4JYCVPT0h8Eao3KXvDTX4J3,,,,,,,,,,,,,,,,,chosen stimuli: images/demo_images/choice_trial_1.png,,,,,5eb16c316e577a06b326d39c,16:28:53,27/03/2024
html-keyboard-response,19,32373,0.0-8.0-2.0,,,,delaylearn,learning,feedback_duration_window,OUDTh4JYCVPT0h8Eao3KXvDTX4J3,OUDTh4JYCVPT0h8Eao3KXvDTX4J3,,,,,,,,,,,,,,,,,,3000.0,,,,5eb16c316e577a06b326d39c,16:28:53,27/03/2024
html-keyboard-response,20,33889,0.0-8.0-3.0,,<div style='margin:auto;width: auto; font-size: 150%'><span style='font-weight: bold; font-size: 100px; color: green;'>+10 points!</span><br><br></div>,,delaylearn,learning,feedback_image_window,OUDTh4JYCVPT0h8Eao3KXvDTX4J3,OUDTh4JYCVPT0h8Eao3KXvDTX4J3,,,,,,,,,,,,,,,,,,,,,,5eb16c316e577a06b326d39c,16:28:53,27/03/2024
html-keyboard-response,21,34398,0.0-9.0-0.0,,,,,,mood_trial_fixation,OUDTh4JYCVPT0h8Eao3KXvDTX4J3,,,,,,,,,,,,,,,,,,,,,,,5eb16c316e577a06b326d39c,16:28:53,27/03/2024
lmdlab-html-vas-response,22,39682,0.0-9.0-1.0,4269.0,How happy are you right now?,0.5017344687257532,delaylearn,learning,mood_trial,OUDTh4JYCVPT0h8Eao3KXvDTX4J3,OUDTh4JYCVPT0h8Eao3KXvDTX4J3,,,,,,,,,,,,,,,,,,,,"['Very unhappy', 'Very happy']",,5eb16c316e577a06b326d39c,16:28:53,27/03/2024
html-keyboard-response,23,41652,0.0-10.0,,"<div style=""font-size:100px;"">+</div>",,delaylearn,learning,ITI,OUDTh4JYCVPT0h8Eao3KXvDTX4J3,OUDTh4JYCVPT0h8Eao3KXvDTX4J3,,,,,,,,,,,,,,,,,,,1952.0,,,5eb16c316e577a06b326d39c,16:28:53,27/03/2024
html-keyboard-response,24,43070,0.0-11.0-0.0,1417.300000011921,"<div style=""display: flex; flex-direction: column; align-items: center; margin-top: -40px;""><img src=""images/demo_images/pattern_1.png"" style=""width: 234px; height: 230px; margin-top: -50px;""><div style=""display: flex; justify-content: space-between; margin-top: 33px;""><img src=""images/demo_images/choice_trial_2.png"" style=""width: 408px; height: 417px; margin-right: 200px;""><img src=""images/demo_images/choice_trial_1.png"" style=""width: 408px; height: 417px;""></div></div>",j,delaylearn,learning,trial,OUDTh4JYCVPT0h8Eao3KXvDTX4J3,OUDTh4JYCVPT0h8Eao3KXvDTX4J3,5.0,images/demo_images/choice_trial_2.png,images/demo_images/choice_trial_1.png,images/demo_images/pattern_1.png,j,j,3000.0,2.0,1.0,20.0,1.0,5.0,1.0,1.0,1.0,20.0,,,,,,5eb16c316e577a06b326d39c,16:28:53,27/03/2024
html-keyboard-response,25,44075,0.0-11.0-1.0,,"<div style=""display: flex; flex-direction: column; align-items: center; margin-top: -40px;""><img src=""images/demo_images/pattern_1.png"" style=""width: 234px; height: 230px; margin-top: -50px;""><div style=""display: flex; justify-content: space-between; margin-top: 33px;""><img src=""images/demo_images/choice_trial_1.png"" style=""width: 408px; height: 417px; margin-left:608px;""></div></div>",,delaylearn,learning,display_response,OUDTh4JYCVPT0h8Eao3KXvDTX4J3,OUDTh4JYCVPT0h8Eao3KXvDTX4J3,,,,,,,,,,,,,,,,,chosen stimuli: images/demo_images/choice_trial_1.png,,,,,5eb16c316e577a06b326d39c,16:28:53,27/03/2024
html-keyboard-response,26,47080,0.0-11.0-2.0,,,,delaylearn,learning,feedback_duration_window,OUDTh4JYCVPT0h8Eao3KXvDTX4J3,OUDTh4JYCVPT0h8Eao3KXvDTX4J3,,,,,,,,,,,,,,,,,,3000.0,,,,5eb16c316e577a06b326d39c,16:28:53,27/03/2024
html-keyboard-response,27,48597,0.0-11.0-3.0,,<div style='margin:auto;width: auto; font-size: 150%'><span style='font-weight: bold; font-size: 100px; color: green;'>+10 points!</span><br><br></div>,,delaylearn,learning,feedback_image_window,OUDTh4JYCVPT0h8Eao3KXvDTX4J3,OUDTh4JYCVPT0h8Eao3KXvDTX4J3,,,,,,,,,,,,,,,,,,,,,,5eb16c316e577a06b326d39c,16:28:53,27/03/2024
html-keyboard-response,28,50627,0.0-12.0,,"<div style=""font-size:100px;"">+</div>",,delaylearn,learning,ITI,OUDTh4JYCVPT0h8Eao3KXvDTX4J3,OUDTh4JYCVPT0h8Eao3KXvDTX4J3,,,,,,,,,,,,,,,,,,,2018.0,,,5eb16c316e577a06b326d39c,16:28:53,27/03/2024
html-keyboard-response,29,51376,0.0-13.0-0.0,747.3000000119209,"<div style=""display: flex; flex-direction: column; align-items: center; margin-top: -40px;""><img src=""images/demo_images/pattern_1.png"" style=""width: 234px; height: 230px; margin-top: -50px;""><div style=""display: flex; justify-content: space-between; margin-top: 33px;""><img src=""images/demo_images/choice_trial_1.png"" style=""width: 408px; height: 417px; margin-right: 200px;""><img src=""images/demo_images/choice_trial_2.png"" style=""width: 408px; height: 417px;""></div></div>",f,delaylearn,learning,trial,OUDTh4JYCVPT0h8Eao3KXvDTX4J3,OUDTh4JYCVPT0h8Eao3KXvDTX4J3,5.0,images/demo_images/choice_trial_1.png,images/demo_images/choice_trial_2.png,images/demo_images/pattern_1.png,f,f,3000.0,1.0,2.0,20.0,0.0,6.0,1.0,1.0,1.0,30.0,,,,,,5eb16c316e577a06b326d39c,16:28:53,27/03/2024
html-keyboard-response,30,52385,0.0-13.0-1.0,,"<div style=""display: flex; flex-direction: column; align-items: center; margin-top: -40px;""><img src=""images/demo_images/pattern_1.png"" style=""width: 234px; height: 230px; margin-top: -50px;""><div style=""display: flex; justify-content: space-between; margin-top: 33px;""><img src=""images/demo_images/choice_trial_1.png"" style=""width: 408px; height: 417px; margin-right: 608px;""></div></div>",,delaylearn,learning,display_response,OUDTh4JYCVPT0h8Eao3KXvDTX4J3,OUDTh4JYCVPT0h8Eao3KXvDTX4J3,,,,,,,,,,,,,,,,,chosen stimuli: images/demo_images/choice_trial_1.png,,,,,5eb16c316e577a06b326d39c,16:28:53,27/03/2024
html-keyboard-response,31,55401,0.0-13.0-2.0,,,,delaylearn,learning,feedback_duration_window,OUDTh4JYCVPT0h8Eao3KXvDTX4J3,OUDTh4JYCVPT0h8Eao3KXvDTX4J3,,,,,,,,,,,,,,,,,,3000.0,,,,5eb16c316e577a06b326d39c,16:28:53,27/03/2024
html-keyboard-response,32,56905,0.0-13.0-3.0,,<div style='margin:auto;width: auto; font-size: 150%'><span style='font-weight: bold; font-size: 100px; color: green;'>+10 points!</span><br><br></div>,,delaylearn,learning,feedback_image_window,OUDTh4JYCVPT0h8Eao3KXvDTX4J3,OUDTh4JYCVPT0h8Eao3KXvDTX4J3,,,,,,,,,,,,,,,,,,,,,,5eb16c316e577a06b326d39c,16:28:53,27/03/2024
html-keyboard-response,33,58931,0.0-14.0,,"<div style=""font-size:100px;"">+</div>",,delaylearn,learning,ITI,OUDTh4JYCVPT0h8Eao3KXvDTX4J3,OUDTh4JYCVPT0h8Eao3KXvDTX4J3,,,,,,,,,,,,,,,,,,,2019.0,,,5eb16c316e577a06b326d39c,16:28:53,27/03/2024
html-keyboard-response,34,59741,0.0-15.0-0.0,808.3999999761581,"<div style=""display: flex; flex-direction: column; align-items: center; margin-top: -40px;""><img src=""images/demo_images/pattern_1.png"" style=""width: 234px; height: 230px; margin-top: -50px;""><div style=""display: flex; justify-content: space-between; margin-top: 33px;""><img src=""images/demo_images/choice_trial_2.png"" style=""width: 408px; height: 417px; margin-right: 200px;""><img src=""images/demo_images/choice_trial_1.png"" style=""width: 408px; height: 417px;""></div></div>",j,delaylearn,learning,trial,OUDTh4JYCVPT0h8Eao3KXvDTX4J3,OUDTh4JYCVPT0h8Eao3KXvDTX4J3,5.0,images/demo_images/choice_trial_2.png,images/demo_images/choice_trial_1.png,images/demo_images/pattern_1.png,j,j,3000.0,2.0,1.0,20.0,1.0,7.0,1.0,1.0,1.0,40.0,,,,,,5eb16c316e577a06b326d39c,16:28:53,27/03/2024
html-keyboard-response,35,60758,0.0-15.0-1.0,,"<div style=""display: flex; flex-direction: column; align-items: center; margin-top: -40px;""><img src=""images/demo_images/pattern_1.png"" style=""width: 234px; height: 230px; margin-top: -50px;""><div style=""display: flex; justify-content: space-between; margin-top: 33px;""><img src=""images/demo_images/choice_trial_1.png"" style=""width: 408px; height: 417px; margin-left:608px;""></div></div>",,delaylearn,learning,display_response,OUDTh4JYCVPT0h8Eao3KXvDTX4J3,OUDTh4JYCVPT0h8Eao3KXvDTX4J3,,,,,,,,,,,,,,,,,chosen stimuli: images/demo_images/choice_trial_1.png,,,,,5eb16c316e577a06b326d39c,16:28:53,27/03/2024
html-keyboard-response,36,63767,0.0-15.0-2.0,,,,delaylearn,learning,feedback_duration_window,OUDTh4JYCVPT0h8Eao3KXvDTX4J3,OUDTh4JYCVPT0h8Eao3KXvDTX4J3,,,,,,,,,,,,,,,,,,3000.0,,,,5eb16c316e577a06b326d39c,16:28:53,27/03/2024
html-keyboard-response,37,65282,0.0-15.0-3.0,,<div style='margin:auto;width: auto; font-size: 150%'><span style='font-weight: bold; font-size: 100px; color: green;'>+10 points!</span><br><br></div>,,delaylearn,learning,feedback_image_window,OUDTh4JYCVPT0h8Eao3KXvDTX4J3,OUDTh4JYCVPT0h8Eao3KXvDTX4J3,,,,,,,,,,,,,,,,,,,,,,5eb16c316e577a06b326d39c,16:28:53,27/03/2024
html-keyboard-response,38,66926,0.0-16.0,,"<div style=""font-size:100px;"">+</div>",,delaylearn,learning,ITI,OUDTh4JYCVPT0h8Eao3KXvDTX4J3,OUDTh4JYCVPT0h8Eao3KXvDTX4J3,,,,,,,,,,,,,,,,,,,1634.0,,,5eb16c316e577a06b326d39c,16:28:53,27/03/2024
html-keyboard-response,39,67806,0.0-17.0-0.0,878.8000000119209,"<div style=""display: flex; flex-direction: column; align-items: center; margin-top: -40px;""><img src=""images/demo_images/pattern_1.png"" style=""width: 234px; height: 230px; margin-top: -50px;""><div style=""display: flex; justify-content: space-between; margin-top: 33px;""><img src=""images/demo_images/choice_trial_1.png"" style=""width: 408px; height: 417px; margin-right: 200px;""><img src=""images/demo_images/choice_trial_2.png"" style=""width: 408px; height: 417px;""></div></div>",f,delaylearn,learning,trial,OUDTh4JYCVPT0h8Eao3KXvDTX4J3,OUDTh4JYCVPT0h8Eao3KXvDTX4J3,5.0,images/demo_images/choice_trial_1.png,images/demo_images/choice_trial_2.png,images/demo_images/pattern_1.png,f,f,3000.0,1.0,2.0,20.0,0.0,8.0,1.0,1.0,1.0,50.0,,,,,,5eb16c316e577a06b326d39c,16:28:53,27/03/2024
html-keyboard-response,40,68815,0.0-17.0-1.0,,"<div style=""display: flex; flex-direction: column; align-items: center; margin-top: -40px;""><img src=""images/demo_images/pattern_1.png"" style=""width: 234px; height: 230px; margin-top: -50px;""><div style=""display: flex; justify-content: space-between; margin-top: 33px;""><img src=""images/demo_images/choice_trial_1.png"" style=""width: 408px; height: 417px; margin-right: 608px;""></div></div>",,delaylearn,learning,display_response,OUDTh4JYCVPT0h8Eao3KXvDTX4J3,OUDTh4JYCVPT0h8Eao3KXvDTX4J3,,,,,,,,,,,,,,,,,chosen stimuli: images/demo_images/choice_trial_1.png,,,,,5eb16c316e577a06b326d39c,16:28:53,27/03/2024
html-keyboard-response,41,71827,0.0-17.0-2.0,,,,delaylearn,learning,feedback_duration_window,OUDTh4JYCVPT0h8Eao3KXvDTX4J3,OUDTh4JYCVPT0h8Eao3KXvDTX4J3,,,,,,,,,,,,,,,,,,3000.0,,,,5eb16c316e577a06b326d39c,16:28:53,27/03/2024
html-keyboard-response,42,73337,0.0-17.0-3.0,,<div style='margin:auto;width: auto; font-size: 150%'><span style='font-weight: bold; font-size: 100px; color: green;'>+10 points!</span><br><br></div>,,delaylearn,learning,feedback_image_window,OUDTh4JYCVPT0h8Eao3KXvDTX4J3,OUDTh4JYCVPT0h8Eao3KXvDTX4J3,,,,,,,,,,,,,,,,,,,,,,5eb16c316e577a06b326d39c,16:28:53,27/03/2024
html-button-response,43,76944,0.0-18.0,3605.900000035763,"
  <div style=""display: flex; align-items: center; justify-content: center; height: 80vh;"">
  <div>
          <img src=""images/inst_demo_finish.png"" style=""width: 80vw; height:auto;"">
          <br><br>
      </div>
      <br><br>
  </div>",0,,,,OUDTh4JYCVPT0h8Eao3KXvDTX4J3,,,,,,,,,,,,,,,,,,,,,,,5eb16c316e577a06b326d39c,16:28:53,27/03/2024
html-keyboard-response,44,79291,0.0-19.0,2347.0,"
  <div style=""display: flex; align-items: center; justify-content: center; height: 80vh;"">
  <div>
          <img src=""images/inst_6.png"" style=""width: 80vw; height:auto;"">
          <br><br>
      </div>
      <br><br>
  </div>",j,,,,OUDTh4JYCVPT0h8Eao3KXvDTX4J3,,,,,,,,,,,,,,,,,,,,,,,5eb16c316e577a06b326d39c,16:28:53,27/03/2024
html-keyboard-response,45,82303,0.0-20.0,,"<div style=""font-size:100px;"">+</div>",,delaylearn,learning,pre_fixation,OUDTh4JYCVPT0h8Eao3KXvDTX4J3,,,,,,,,,,,,,,,,,,,,,,,5eb16c316e577a06b326d39c,16:28:53,27/03/2024
html-keyboard-response,46,84630,0.0-21.0,,"<div style=""font-size:100px;"">+</div>",,delaylearn,learning,ITI,OUDTh4JYCVPT0h8Eao3KXvDTX4J3,OUDTh4JYCVPT0h8Eao3KXvDTX4J3,,,,,,,,,,,,,,,,,,,2309.0,,,5eb16c316e577a06b326d39c,16:28:53,27/03/2024
html-keyboard-response,47,85774,0.0-22.0-0.0,1143.5,"<div style=""display: flex; flex-direction: column; align-items: center; margin-top: -40px;""><img src=""images/pattern_3.png"" style=""width: 234px; height: 230px; margin-top: -50px;""><div style=""display: flex; justify-content: space-between; margin-top: 33px;""><img src=""images/choice_trial_16.png"" style=""width: 408px; height: 417px; margin-right: 200px;""><img src=""images/choice_trial_2.png"" style=""width: 408px; height: 417px;""></div></div>",j,delaylearn,learning,trial,OUDTh4JYCVPT0h8Eao3KXvDTX4J3,OUDTh4JYCVPT0h8Eao3KXvDTX4J3,5.0,images/choice_trial_16.png,images/choice_trial_2.png,images/pattern_3.png,f,f,7000.0,16.0,2.0,2.0,0.0,9.0,0.0,0.0,2.0,50.0,,,,,,5eb16c316e577a06b326d39c,16:28:53,27/03/2024
html-keyboard-response,48,86785,0.0-22.0-1.0,,"<div style=""display: flex; flex-direction: column; align-items: center; margin-top: -40px;""><img src=""images/pattern_3.png"" style=""width: 234px; height: 230px; margin-top: -50px;""><div style=""display: flex; justify-content: space-between; margin-top: 33px;""><img src=""images/choice_trial_2.png"" style=""width: 408px; height: 417px; margin-left:608px;""></div></div>",,delaylearn,learning,display_response,OUDTh4JYCVPT0h8Eao3KXvDTX4J3,OUDTh4JYCVPT0h8Eao3KXvDTX4J3,,,,,,,,,,,,,,,,,chosen stimuli: images/choice_trial_2.png,,,,,5eb16c316e577a06b326d39c,16:28:53,27/03/2024
html-keyboard-response,49,93792,0.0-22.0-2.0,,,,delaylearn,learning,feedback_duration_window,OUDTh4JYCVPT0h8Eao3KXvDTX4J3,OUDTh4JYCVPT0h8Eao3KXvDTX4J3,,,,,,,,,,,,,,,,,,7000.0,,,,5eb16c316e577a06b326d39c,16:28:53,27/03/2024
html-keyboard-response,50,95303,0.0-22.0-3.0,,<div style='margin:auto;width: auto; font-size: 150%'><span style='font-weight: bold; font-size: 100px; color: red;'>0 points!</span><br><br></div>,,delaylearn,learning,feedback_image_window,OUDTh4JYCVPT0h8Eao3KXvDTX4J3,OUDTh4JYCVPT0h8Eao3KXvDTX4J3,,,,,,,,,,,,,,,,,,,,,,5eb16c316e577a06b326d39c,16:28:53,27/03/2024
html-keyboard-response,51,97254,0.0-23.0,,"<div style=""font-size:100px;"">+</div>",,delaylearn,learning,ITI,OUDTh4JYCVPT0h8Eao3KXvDTX4J3,OUDTh4JYCVPT0h8Eao3KXvDTX4J3,,,,,,,,,,,,,,,,,,,1939.0,,,5eb16c316e577a06b326d39c,16:28:53,27/03/2024
html-keyboard-response,52,98569,0.0-24.0-0.0,1314.0,"<div style=""display: flex; flex-direction: column; align-items: center; margin-top: -40px;""><img src=""images/pattern_7.png"" style=""width: 234px; height: 230px; margin-top: -50px;""><div style=""display: flex; justify-content: space-between; margin-top: 33px;""><img src=""images/choice_trial_10.png"" style=""width: 408px; height: 417px; margin-right: 200px;""><img src=""images/choice_trial_8.png"" style=""width: 408px; height: 417px;""></div></div>",f,delaylearn,learning,trial,OUDTh4JYCVPT0h8Eao3KXvDTX4J3,OUDTh4JYCVPT0h8Eao3KXvDTX4J3,5.0,images/choice_trial_10.png,images/choice_trial_8.png,images/pattern_7.png,j,j,750.0,10.0,8.0,6.0,1.0,10.0,0.0,0.0,10.0,50.0,,,,,,5eb16c316e577a06b326d39c,16:28:53,27/03/2024
html-keyboard-response,53,99589,0.0-24.0-1.0,,"<div style=""display: flex; flex-direction: column; align-items: center; margin-top: -40px;""><img src=""images/pattern_7.png"" style=""width: 234px; height: 230px; margin-top: -50px;""><div style=""display: flex; justify-content: space-between; margin-top: 33px;""><img src=""images/choice_trial_10.png"" style=""width: 408px; height: 417px; margin-right: 608px;""></div></div>",,delaylearn,learning,display_response,OUDTh4JYCVPT0h8Eao3KXvDTX4J3,OUDTh4JYCVPT0h8Eao3KXvDTX4J3,,,,,,,,,,,,,,,,,chosen stimuli: images/choice_trial_10.png,,,,,5eb16c316e577a06b326d39c,16:28:53,27/03/2024
html-keyboard-response,54,100354,0.0-24.0-2.0,,,,delaylearn,learning,feedback_duration_window,OUDTh4JYCVPT0h8Eao3KXvDTX4J3,OUDTh4JYCVPT0h8Eao3KXvDTX4J3,,,,,,,,,,,,,,,,,,750.0,,,,5eb16c316e577a06b326d39c,16:28:53,27/03/2024
html-keyboard-response,55,101866,0.0-24.0-3.0,,<div style='margin:auto;width: auto; font-size: 150%'><span style='font-weight: bold; font-size: 100px; color: red;'>0 points!</span><br><br></div>,,delaylearn,learning,feedback_image_window,OUDTh4JYCVPT0h8Eao3KXvDTX4J3,OUDTh4JYCVPT0h8Eao3KXvDTX4J3,,,,,,,,,,,,,,,,,,,,,,5eb16c316e577a06b326d39c,16:28:53,27/03/2024
html-keyboard-response,56,103912,0.0-25.0,,"<div style=""font-size:100px;"">+</div>",,delaylearn,learning,ITI,OUDTh4JYCVPT0h8Eao3KXvDTX4J3,OUDTh4JYCVPT0h8Eao3KXvDTX4J3,,,,,,,,,,,,,,,,,,,2042.0,,,5eb16c316e577a06b326d39c,16:28:53,27/03/2024
html-keyboard-response,57,105840,0.0-26.0-0.0,1926.8999999761581,"<div style=""display: flex; flex-direction: column; align-items: center; margin-top: -40px;""><img src=""images/pattern_4.png"" style=""width: 234px; height: 230px; margin-top: -50px;""><div style=""display: flex; justify-content: space-between; margin-top: 33px;""><img src=""images/choice_trial_11.png"" style=""width: 408px; height: 417px; margin-right: 200px;""><img src=""images/choice_trial_4.png"" style=""width: 408px; height: 417px;""></div></div>",j,delaylearn,learning,trial,OUDTh4JYCVPT0h8Eao3KXvDTX4J3,OUDTh4JYCVPT0h8Eao3KXvDTX4J3,5.0,images/choice_trial_11.png,images/choice_trial_4.png,images/pattern_4.png,f,f,7000.0,11.0,4.0,3.0,0.0,11.0,0.0,0.0,4.0,50.0,,,,,,5eb16c316e577a06b326d39c,16:28:53,27/03/2024
html-keyboard-response,58,106853,0.0-26.0-1.0,,"<div style=""display: flex; flex-direction: column; align-items: center; margin-top: -40px;""><img src=""images/pattern_4.png"" style=""width: 234px; height: 230px; margin-top: -50px;""><div style=""display: flex; justify-content: space-between; margin-top: 33px;""><img src=""images/choice_trial_4.png"" style=""width: 408px; height: 417px; margin-left:608px;""></div></div>",,delaylearn,learning,display_response,OUDTh4JYCVPT0h8Eao3KXvDTX4J3,OUDTh4JYCVPT0h8Eao3KXvDTX4J3,,,,,,,,,,,,,,,,,chosen stimuli: images/choice_trial_4.png,,,,,5eb16c316e577a06b326d39c,16:28:53,27/03/2024
html-keyboard-response,59,113859,0.0-26.0-2.0,,,,delaylearn,learning,feedback_duration_window,OUDTh4JYCVPT0h8Eao3KXvDTX4J3,OUDTh4JYCVPT0h8Eao3KXvDTX4J3,,,,,,,,,,,,,,,,,,7000.0,,,,5eb16c316e577a06b326d39c,16:28:53,27/03/2024
html-keyboard-response,60,115370,0.0-26.0-3.0,,<div style='margin:auto;width: auto; font-size: 150%'><span style='font-weight: bold; font-size: 100px; color: red;'>0 points!</span><br><br></div>,,delaylearn,learning,feedback_image_window,OUDTh4JYCVPT0h8Eao3KXvDTX4J3,OUDTh4JYCVPT0h8Eao3KXvDTX4J3,,,,,,,,,,,,,,,,,,,,,,5eb16c316e577a06b326d39c,16:28:53,27/03/2024
html-keyboard-response,61,117651,0.0-27.0,,"<div style=""font-size:100px;"">+</div>",,delaylearn,learning,ITI,OUDTh4JYCVPT0h8Eao3KXvDTX4J3,OUDTh4JYCVPT0h8Eao3KXvDTX4J3,,,,,,,,,,,,,,,,,,,2267.0,,,5eb16c316e577a06b326d39c,16:28:53,27/03/2024
html-keyboard-response,62,119039,0.0-28.0-0.0,1387.0999999642372,"<div style=""display: flex; flex-direction: column; align-items: center; margin-top: -40px;""><img src=""images/pattern_5.png"" style=""width: 234px; height: 230px; margin-top: -50px;""><div style=""display: flex; justify-content: space-between; margin-top: 33px;""><img src=""images/choice_trial_13.png"" style=""width: 408px; height: 417px; margin-right: 200px;""><img src=""images/choice_trial_7.png"" style=""width: 408px; height: 417px;""></div></div>",f,delaylearn,learning,trial,OUDTh4JYCVPT0h8Eao3KXvDTX4J3,OUDTh4JYCVPT0h8Eao3KXvDTX4J3,5.0,images/choice_trial_13.png,images/choice_trial_7.png,images/pattern_5.png,j,j,750.0,13.0,7.0,4.0,1.0,12.0,0.0,0.0,13.0,50.0,,,,,,5eb16c316e577a06b326d39c,16:28:53,27/03/2024
html-keyboard-response,63,120052,0.0-28.0-1.0,,"<div style=""display: flex; flex-direction: column; align-items: center; margin-top: -40px;""><img src=""images/pattern_5.png"" style=""width: 234px; height: 230px; margin-top: -50px;""><div style=""display: flex; justify-content: space-between; margin-top: 33px;""><img src=""images/choice_trial_13.png"" style=""width: 408px; height: 417px; margin-right: 608px;""></div></div>",,delaylearn,learning,display_response,OUDTh4JYCVPT0h8Eao3KXvDTX4J3,OUDTh4JYCVPT0h8Eao3KXvDTX4J3,,,,,,,,,,,,,,,,,chosen stimuli: images/choice_trial_13.png,,,,,5eb16c316e577a06b326d39c,16:28:53,27/03/2024
html-keyboard-response,64,120820,0.0-28.0-2.0,,,,delaylearn,learning,feedback_duration_window,OUDTh4JYCVPT0h8Eao3KXvDTX4J3,OUDTh4JYCVPT0h8Eao3KXvDTX4J3,,,,,,,,,,,,,,,,,,750.0,,,,5eb16c316e577a06b326d39c,16:28:53,27/03/2024
html-keyboard-response,65,122331,0.0-28.0-3.0,,<div style='margin:auto;width: auto; font-size: 150%'><span style='font-weight: bold; font-size: 100px; color: red;'>0 points!</span><br><br></div>,,delaylearn,learning,feedback_image_window,OUDTh4JYCVPT0h8Eao3KXvDTX4J3,OUDTh4JYCVPT0h8Eao3KXvDTX4J3,,,,,,,,,,,,,,,,,,,,,,5eb16c316e577a06b326d39c,16:28:53,27/03/2024
html-keyboard-response,66,123908,0.0-29.0,,"<div style=""font-size:100px;"">+</div>",,delaylearn,learning,ITI,OUDTh4JYCVPT0h8Eao3KXvDTX4J3,OUDTh4JYCVPT0h8Eao3KXvDTX4J3,,,,,,,,,,,,,,,,,,,1560.0,,,5eb16c316e577a06b326d39c,16:28:53,27/03/2024
html-keyboard-response,67,124826,0.0-30.0-0.0,917.5,"<div style=""display: flex; flex-direction: column; align-items: center; margin-top: -40px;""><img src=""images/pattern_6.png"" style=""width: 234px; height: 230px; margin-top: -50px;""><div style=""display: flex; justify-content: space-between; margin-top: 33px;""><img src=""images/choice_trial_14.png"" style=""width: 408px; height: 417px; margin-right: 200px;""><img src=""images/choice_trial_9.png"" style=""width: 408px; height: 417px;""></div></div>",j,delaylearn,learning,trial,OUDTh4JYCVPT0h8Eao3KXvDTX4J3,OUDTh4JYCVPT0h8Eao3KXvDTX4J3,5.0,images/choice_trial_14.png,images/choice_trial_9.png,images/pattern_6.png,j,f,750.0,14.0,9.0,5.0,0.0,13.0,0.0,1.0,9.0,60.0,,,,,,5eb16c316e577a06b326d39c,16:28:53,27/03/2024
html-keyboard-response,68,125840,0.0-30.0-1.0,,"<div style=""display: flex; flex-direction: column; align-items: center; margin-top: -40px;""><img src=""images/pattern_6.png"" style=""width: 234px; height: 230px; margin-top: -50px;""><div style=""display: flex; justify-content: space-between; margin-top: 33px;""><img src=""images/choice_trial_9.png"" style=""width: 408px; height: 417px; margin-left:608px;""></div></div>",,delaylearn,learning,display_response,OUDTh4JYCVPT0h8Eao3KXvDTX4J3,OUDTh4JYCVPT0h8Eao3KXvDTX4J3,,,,,,,,,,,,,,,,,chosen stimuli: images/choice_trial_9.png,,,,,5eb16c316e577a06b326d39c,16:28:53,27/03/2024
html-keyboard-response,69,126600,0.0-30.0-2.0,,,,delaylearn,learning,feedback_duration_window,OUDTh4JYCVPT0h8Eao3KXvDTX4J3,OUDTh4JYCVPT0h8Eao3KXvDTX4J3,,,,,,,,,,,,,,,,,,750.0,,,,5eb16c316e577a06b326d39c,16:28:53,27/03/2024
html-keyboard-response,70,128115,0.0-30.0-3.0,,<div style='margin:auto;width: auto; font-size: 150%'><span style='font-weight: bold; font-size: 100px; color: green;'>+10 points!</span><br><br></div>,,delaylearn,learning,feedback_image_window,OUDTh4JYCVPT0h8Eao3KXvDTX4J3,OUDTh4JYCVPT0h8Eao3KXvDTX4J3,,,,,,,,,,,,,,,,,,,,,,5eb16c316e577a06b326d39c,16:28:53,27/03/2024
html-keyboard-response,71,128628,0.0-31.0-0.0,,,,,,mood_trial_fixation,OUDTh4JYCVPT0h8Eao3KXvDTX4J3,,,,,,,,,,,,,,,,,,,,,,,5eb16c316e577a06b326d39c,16:28:53,27/03/2024
lmdlab-html-vas-response,72,132589,0.0-31.0-1.0,2944.0,How happy are you right now?,0.37492166297875745,delaylearn,learning,mood_trial,OUDTh4JYCVPT0h8Eao3KXvDTX4J3,OUDTh4JYCVPT0h8Eao3KXvDTX4J3,,,,,,,,,,,,,,,,,,,,"['Very unhappy', 'Very happy']",,5eb16c316e577a06b326d39c,16:28:53,27/03/2024
html-keyboard-response,73,135053,0.0-32.0,,"<div style=""font-size:100px;"">+</div>",,delaylearn,learning,ITI,OUDTh4JYCVPT0h8Eao3KXvDTX4J3,OUDTh4JYCVPT0h8Eao3KXvDTX4J3,,,,,,,,,,,,,,,,,,,2448.0,,,5eb16c316e577a06b326d39c,16:28:53,27/03/2024
html-keyboard-response,74,136520,0.0-33.0-0.0,1465.6000000238419,"<div style=""display: flex; flex-direction: column; align-items: center; margin-top: -40px;""><img src=""images/pattern_1.png"" style=""width: 234px; height: 230px; margin-top: -50px;""><div style=""display: flex; justify-content: space-between; margin-top: 33px;""><img src=""images/choice_trial_15.png"" style=""width: 408px; height: 417px; margin-right: 200px;""><img src=""images/choice_trial_6.png"" style=""width: 408px; height: 417px;""></div></div>",f,delaylearn,learning,trial,OUDTh4JYCVPT0h8Eao3KXvDTX4J3,OUDTh4JYCVPT0h8Eao3KXvDTX4J3,5.0,images/choice_trial_15.png,images/choice_trial_6.png,images/pattern_1.png,j,j,7000.0,15.0,6.0,1.0,1.0,14.0,0.0,0.0,15.0,60.0,,,,,,5eb16c316e577a06b326d39c,16:28:53,27/03/2024
html-keyboard-response,75,137534,0.0-33.0-1.0,,"<div style=""display: flex; flex-direction: column; align-items: center; margin-top: -40px;""><img src=""images/pattern_1.png"" style=""width: 234px; height: 230px; margin-top: -50px;""><div style=""display: flex; justify-content: space-between; margin-top: 33px;""><img src=""images/choice_trial_15.png"" style=""width: 408px; height: 417px; margin-right: 608px;""></div></div>",,delaylearn,learning,display_response,OUDTh4JYCVPT0h8Eao3KXvDTX4J3,OUDTh4JYCVPT0h8Eao3KXvDTX4J3,,,,,,,,,,,,,,,,,chosen stimuli: images/choice_trial_15.png,,,,,5eb16c316e577a06b326d39c,16:28:53,27/03/2024
html-keyboard-response,76,144546,0.0-33.0-2.0,,,,delaylearn,learning,feedback_duration_window,OUDTh4JYCVPT0h8Eao3KXvDTX4J3,OUDTh4JYCVPT0h8Eao3KXvDTX4J3,,,,,,,,,,,,,,,,,,7000.0,,,,5eb16c316e577a06b326d39c,16:28:53,27/03/2024
html-keyboard-response,77,146055,0.0-33.0-3.0,,<div style='margin:auto;width: auto; font-size: 150%'><span style='font-weight: bold; font-size: 100px; color: red;'>0 points!</span><br><br></div>,,delaylearn,learning,feedback_image_window,OUDTh4JYCVPT0h8Eao3KXvDTX4J3,OUDTh4JYCVPT0h8Eao3KXvDTX4J3,,,,,,,,,,,,,,,,,,,,,,5eb16c316e577a06b326d39c,16:28:53,27/03/2024
html-keyboard-response,78,148315,0.0-34.0,,"<div style=""font-size:100px;"">+</div>",,delaylearn,learning,ITI,OUDTh4JYCVPT0h8Eao3KXvDTX4J3,OUDTh4JYCVPT0h8Eao3KXvDTX4J3,,,,,,,,,,,,,,,,,,,2254.0,,,5eb16c316e577a06b326d39c,16:28:53,27/03/2024
html-keyboard-response,79,150363,0.0-35.0-0.0,2046.5,"<div style=""display: flex; flex-direction: column; align-items: center; margin-top: -40px;""><img src=""images/pattern_3.png"" style=""width: 234px; height: 230px; margin-top: -50px;""><div style=""display: flex; justify-content: space-between; margin-top: 33px;""><img src=""images/choice_trial_2.png"" style=""width: 408px; height: 417px; margin-right: 200px;""><img src=""images/choice_trial_16.png"" style=""width: 408px; height: 417px;""></div></div>",j,delaylearn,learning,trial,OUDTh4JYCVPT0h8Eao3KXvDTX4J3,OUDTh4JYCVPT0h8Eao3KXvDTX4J3,5.0,images/choice_trial_2.png,images/choice_trial_16.png,images/pattern_3.png,f,j,7000.0,2.0,16.0,2.0,1.0,15.0,1.0,0.0,16.0,60.0,,,,,,5eb16c316e577a06b326d39c,16:28:53,27/03/2024
html-keyboard-response,80,151370,0.0-35.0-1.0,,"<div style=""display: flex; flex-direction: column; align-items: center; margin-top: -40px;""><img src=""images/pattern_3.png"" style=""width: 234px; height: 230px; margin-top: -50px;""><div style=""display: flex; justify-content: space-between; margin-top: 33px;""><img src=""images/choice_trial_16.png"" style=""width: 408px; height: 417px; margin-left:608px;""></div></div>",,delaylearn,learning,display_response,OUDTh4JYCVPT0h8Eao3KXvDTX4J3,OUDTh4JYCVPT0h8Eao3KXvDTX4J3,,,,,,,,,,,,,,,,,chosen stimuli: images/choice_trial_16.png,,,,,5eb16c316e577a06b326d39c,16:28:53,27/03/2024
html-keyboard-response,81,158383,0.0-35.0-2.0,,,,delaylearn,learning,feedback_duration_window,OUDTh4JYCVPT0h8Eao3KXvDTX4J3,OUDTh4JYCVPT0h8Eao3KXvDTX4J3,,,,,,,,,,,,,,,,,,7000.0,,,,5eb16c316e577a06b326d39c,16:28:53,27/03/2024
html-keyboard-response,82,159895,0.0-35.0-3.0,,<div style='margin:auto;width: auto; font-size: 150%'><span style='font-weight: bold; font-size: 100px; color: red;'>0 points!</span><br><br></div>,,delaylearn,learning,feedback_image_window,OUDTh4JYCVPT0h8Eao3KXvDTX4J3,OUDTh4JYCVPT0h8Eao3KXvDTX4J3,,,,,,,,,,,,,,,,,,,,,,5eb16c316e577a06b326d39c,16:28:53,27/03/2024
html-keyboard-response,83,162254,0.0-36.0,,"<div style=""font-size:100px;"">+</div>",,delaylearn,learning,ITI,OUDTh4JYCVPT0h8Eao3KXvDTX4J3,OUDTh4JYCVPT0h8Eao3KXvDTX4J3,,,,,,,,,,,,,,,,,,,2338.0,,,5eb16c316e577a06b326d39c,16:28:53,27/03/2024
html-keyboard-response,84,164728,0.0-37.0-0.0,2473.399999976158,"<div style=""display: flex; flex-direction: column; align-items: center; margin-top: -40px;""><img src=""images/pattern_5.png"" style=""width: 234px; height: 230px; margin-top: -50px;""><div style=""display: flex; justify-content: space-between; margin-top: 33px;""><img src=""images/choice_trial_7.png"" style=""width: 408px; height: 417px; margin-right: 200px;""><img src=""images/choice_trial_13.png"" style=""width: 408px; height: 417px;""></div></div>",f,delaylearn,learning,trial,OUDTh4JYCVPT0h8Eao3KXvDTX4J3,OUDTh4JYCVPT0h8Eao3KXvDTX4J3,5.0,images/choice_trial_7.png,images/choice_trial_13.png,images/pattern_5.png,f,f,750.0,7.0,13.0,4.0,0.0,16.0,1.0,1.0,7.0,70.0,,,,,,5eb16c316e577a06b326d39c,16:28:53,27/03/2024
html-keyboard-response,85,165746,0.0-37.0-1.0,,"<div style=""display: flex; flex-direction: column; align-items: center; margin-top: -40px;""><img src=""images/pattern_5.png"" style=""width: 234px; height: 230px; margin-top: -50px;""><div style=""display: flex; justify-content: space-between; margin-top: 33px;""><img src=""images/choice_trial_7.png"" style=""width: 408px; height: 417px; margin-right: 608px;""></div></div>",,delaylearn,learning,display_response,OUDTh4JYCVPT0h8Eao3KXvDTX4J3,OUDTh4JYCVPT0h8Eao3KXvDTX4J3,,,,,,,,,,,,,,,,,chosen stimuli: images/choice_trial_7.png,,,,,5eb16c316e577a06b326d39c,16:28:53,27/03/2024
html-keyboard-response,86,166513,0.0-37.0-2.0,,,,delaylearn,learning,feedback_duration_window,OUDTh4JYCVPT0h8Eao3KXvDTX4J3,OUDTh4JYCVPT0h8Eao3KXvDTX4J3,,,,,,,,,,,,,,,,,,750.0,,,,5eb16c316e577a06b326d39c,16:28:53,27/03/2024
html-keyboard-response,87,168018,0.0-37.0-3.0,,<div style='margin:auto;width: auto; font-size: 150%'><span style='font-weight: bold; font-size: 100px; color: green;'>+10 points!</span><br><br></div>,,delaylearn,learning,feedback_image_window,OUDTh4JYCVPT0h8Eao3KXvDTX4J3,OUDTh4JYCVPT0h8Eao3KXvDTX4J3,,,,,,,,,,,,,,,,,,,,,,5eb16c316e577a06b326d39c,16:28:53,27/03/2024
html-keyboard-response,88,168534,0.0-38.0-0.0,,,,,,mood_trial_fixation,OUDTh4JYCVPT0h8Eao3KXvDTX4J3,,,,,,,,,,,,,,,,,,,,,,,5eb16c316e577a06b326d39c,16:28:53,27/03/2024
lmdlab-html-vas-response,89,172660,0.0-38.0-1.0,3116.0,How happy are you right now?,0.41269569022254343,delaylearn,learning,mood_trial,OUDTh4JYCVPT0h8Eao3KXvDTX4J3,OUDTh4JYCVPT0h8Eao3KXvDTX4J3,,,,,,,,,,,,,,,,,,,,"['Very unhappy', 'Very happy']",,5eb16c316e577a06b326d39c,16:28:53,27/03/2024
html-keyboard-response,90,174691,0.0-39.0,,"<div style=""font-size:100px;"">+</div>",,delaylearn,learning,ITI,OUDTh4JYCVPT0h8Eao3KXvDTX4J3,OUDTh4JYCVPT0h8Eao3KXvDTX4J3,,,,,,,,,,,,,,,,,,,2027.0,,,5eb16c316e577a06b326d39c,16:28:53,27/03/2024
html-keyboard-response,91,176673,0.0-40.0-0.0,1981.5,"<div style=""display: flex; flex-direction: column; align-items: center; margin-top: -40px;""><img src=""images/pattern_6.png"" style=""width: 234px; height: 230px; margin-top: -50px;""><div style=""display: flex; justify-content: space-between; margin-top: 33px;""><img src=""images/choice_trial_14.png"" style=""width: 408px; height: 417px; margin-right: 200px;""><img src=""images/choice_trial_9.png"" style=""width: 408px; height: 417px;""></div></div>",f,delaylearn,learning,trial,OUDTh4JYCVPT0h8Eao3KXvDTX4J3,OUDTh4JYCVPT0h8Eao3KXvDTX4J3,5.0,images/choice_trial_14.png,images/choice_trial_9.png,images/pattern_6.png,f,f,750.0,14.0,9.0,5.0,0.0,17.0,1.0,1.0,14.0,80.0,,,,,,5eb16c316e577a06b326d39c,16:28:53,27/03/2024
html-keyboard-response,92,177691,0.0-40.0-1.0,,"<div style=""display: flex; flex-direction: column; align-items: center; margin-top: -40px;""><img src=""images/pattern_6.png"" style=""width: 234px; height: 230px; margin-top: -50px;""><div style=""display: flex; justify-content: space-between; margin-top: 33px;""><img src=""images/choice_trial_14.png"" style=""width: 408px; height: 417px; margin-right: 608px;""></div></div>",,delaylearn,learning,display_response,OUDTh4JYCVPT0h8Eao3KXvDTX4J3,OUDTh4JYCVPT0h8Eao3KXvDTX4J3,,,,,,,,,,,,,,,,,chosen stimuli: images/choice_trial_14.png,,,,,5eb16c316e577a06b326d39c,16:28:53,27/03/2024
html-keyboard-response,93,178451,0.0-40.0-2.0,,,,delaylearn,learning,feedback_duration_window,OUDTh4JYCVPT0h8Eao3KXvDTX4J3,OUDTh4JYCVPT0h8Eao3KXvDTX4J3,,,,,,,,,,,,,,,,,,750.0,,,,5eb16c316e577a06b326d39c,16:28:53,27/03/2024
html-keyboard-response,94,179965,0.0-40.0-3.0,,<div style='margin:auto;width: auto; font-size: 150%'><span style='font-weight: bold; font-size: 100px; color: green;'>+10 points!</span><br><br></div>,,delaylearn,learning,feedback_image_window,OUDTh4JYCVPT0h8Eao3KXvDTX4J3,OUDTh4JYCVPT0h8Eao3KXvDTX4J3,,,,,,,,,,,,,,,,,,,,,,5eb16c316e577a06b326d39c,16:28:53,27/03/2024
html-keyboard-response,95,181496,0.0-41.0,,"<div style=""font-size:100px;"">+</div>",,delaylearn,learning,ITI,OUDTh4JYCVPT0h8Eao3KXvDTX4J3,OUDTh4JYCVPT0h8Eao3KXvDTX4J3,,,,,,,,,,,,,,,,,,,1524.0,,,5eb16c316e577a06b326d39c,16:28:53,27/03/2024
html-keyboard-response,96,182818,0.0-42.0-0.0,1321.5999999642372,"<div style=""display: flex; flex-direction: column; align-items: center; margin-top: -40px;""><img src=""images/pattern_4.png"" style=""width: 234px; height: 230px; margin-top: -50px;""><div style=""display: flex; justify-content: space-between; margin-top: 33px;""><img src=""images/choice_trial_4.png"" style=""width: 408px; height: 417px; margin-right: 200px;""><img src=""images/choice_trial_11.png"" style=""width: 408px; height: 417px;""></div></div>",j,delaylearn,learning,trial,OUDTh4JYCVPT0h8Eao3KXvDTX4J3,OUDTh4JYCVPT0h8Eao3KXvDTX4J3,5.0,images/choice_trial_4.png,images/choice_trial_11.png,images/pattern_4.png,j,j,7000.0,4.0,11.0,3.0,1.0,18.0,1.0,1.0,11.0,90.0,,,,,,5eb16c316e577a06b326d39c,16:28:53,27/03/2024
html-keyboard-response,97,183827,0.0-42.0-1.0,,"<div style=""display: flex; flex-direction: column; align-items: center; margin-top: -40px;""><img src=""images/pattern_4.png"" style=""width: 234px; height: 230px; margin-top: -50px;""><div style=""display: flex; justify-content: space-between; margin-top: 33px;""><img src=""images/choice_trial_11.png"" style=""width: 408px; height: 417px; margin-left:608px;""></div></div>",,delaylearn,learning,display_response,OUDTh4JYCVPT0h8Eao3KXvDTX4J3,OUDTh4JYCVPT0h8Eao3KXvDTX4J3,,,,,,,,,,,,,,,,,chosen stimuli: images/choice_trial_11.png,,,,,5eb16c316e577a06b326d39c,16:28:53,27/03/2024
html-keyboard-response,98,190835,0.0-42.0-2.0,,,,delaylearn,learning,feedback_duration_window,OUDTh4JYCVPT0h8Eao3KXvDTX4J3,OUDTh4JYCVPT0h8Eao3KXvDTX4J3,,,,,,,,,,,,,,,,,,7000.0,,,,5eb16c316e577a06b326d39c,16:28:53,27/03/2024
html-keyboard-response,99,192348,0.0-42.0-3.0,,<div style='margin:auto;width: auto; font-size: 150%'><span style='font-weight: bold; font-size: 100px; color: green;'>+10 points!</span><br><br></div>,,delaylearn,learning,feedback_image_window,OUDTh4JYCVPT0h8Eao3KXvDTX4J3,OUDTh4JYCVPT0h8Eao3KXvDTX4J3,,,,,,,,,,,,,,,,,,,,,,5eb16c316e577a06b326d39c,16:28:53,27/03/2024
html-keyboard-response,100,194515,0.0-43.0,,"<div style=""font-size:100px;"">+</div>",,delaylearn,learning,ITI,OUDTh4JYCVPT0h8Eao3KXvDTX4J3,OUDTh4JYCVPT0h8Eao3KXvDTX4J3,,,,,,,,,,,,,,,,,,,2157.0,,,5eb16c316e577a06b326d39c,16:28:53,27/03/2024
html-keyboard-response,101,196258,0.0-44.0-0.0,1741.8999999761581,"<div style=""display: flex; flex-direction: column; align-items: center; margin-top: -40px;""><img src=""images/pattern_7.png"" style=""width: 234px; height: 230px; margin-top: -50px;""><div style=""display: flex; justify-content: space-between; margin-top: 33px;""><img src=""images/choice_trial_8.png"" style=""width: 408px; height: 417px; margin-right: 200px;""><img src=""images/choice_trial_10.png"" style=""width: 408px; height: 417px;""></div></div>",f,delaylearn,learning,trial,OUDTh4JYCVPT0h8Eao3KXvDTX4J3,OUDTh4JYCVPT0h8Eao3KXvDTX4J3,5.0,images/choice_trial_8.png,images/choice_trial_10.png,images/pattern_7.png,j,f,750.0,8.0,10.0,6.0,0.0,19.0,1.0,0.0,8.0,90.0,,,,,,5eb16c316e577a06b326d39c,16:28:53,27/03/2024
html-keyboard-response,102,197270,0.0-44.0-1.0,,"<div style=""display: flex; flex-direction: column; align-items: center; margin-top: -40px;""><img src=""images/pattern_7.png"" style=""width: 234px; height: 230px; margin-top: -50px;""><div style=""display: flex; justify-content: space-between; margin-top: 33px;""><img src=""images/choice_trial_8.png"" style=""width: 408px; height: 417px; margin-right: 608px;""></div></div>",,delaylearn,learning,display_response,OUDTh4JYCVPT0h8Eao3KXvDTX4J3,OUDTh4JYCVPT0h8Eao3KXvDTX4J3,,,,,,,,,,,,,,,,,chosen stimuli: images/choice_trial_8.png,,,,,5eb16c316e577a06b326d39c,16:28:53,27/03/2024
html-keyboard-response,103,198030,0.0-44.0-2.0,,,,delaylearn,learning,feedback_duration_window,OUDTh4JYCVPT0h8Eao3KXvDTX4J3,OUDTh4JYCVPT0h8Eao3KXvDTX4J3,,,,,,,,,,,,,,,,,,750.0,,,,5eb16c316e577a06b326d39c,16:28:53,27/03/2024
html-keyboard-response,104,199539,0.0-44.0-3.0,,<div style='margin:auto;width: auto; font-size: 150%'><span style='font-weight: bold; font-size: 100px; color: red;'>0 points!</span><br><br></div>,,delaylearn,learning,feedback_image_window,OUDTh4JYCVPT0h8Eao3KXvDTX4J3,OUDTh4JYCVPT0h8Eao3KXvDTX4J3,,,,,,,,,,,,,,,,,,,,,,5eb16c316e577a06b326d39c,16:28:53,27/03/2024
html-keyboard-response,105,201423,0.0-45.0,,"<div style=""font-size:100px;"">+</div>",,delaylearn,learning,ITI,OUDTh4JYCVPT0h8Eao3KXvDTX4J3,OUDTh4JYCVPT0h8Eao3KXvDTX4J3,,,,,,,,,,,,,,,,,,,1869.0,,,5eb16c316e577a06b326d39c,16:28:53,27/03/2024
html-keyboard-response,106,204442,0.0-46.0-0.0,,"<div style=""display: flex; flex-direction: column; align-items: center; margin-top: -40px;""><img src=""images/pattern_1.png"" style=""width: 234px; height: 230px; margin-top: -50px;""><div style=""display: flex; justify-content: space-between; margin-top: 33px;""><img src=""images/choice_trial_6.png"" style=""width: 408px; height: 417px; margin-right: 200px;""><img src=""images/choice_trial_15.png"" style=""width: 408px; height: 417px;""></div></div>",,delaylearn,learning,trial,OUDTh4JYCVPT0h8Eao3KXvDTX4J3,OUDTh4JYCVPT0h8Eao3KXvDTX4J3,5.0,images/choice_trial_6.png,images/choice_trial_15.png,images/pattern_1.png,f,f,7000.0,6.0,15.0,1.0,0.0,20.0,0.0,0.0,0.0,90.0,,,,,,5eb16c316e577a06b326d39c,16:28:53,27/03/2024
html-keyboard-response,107,205458,0.0-46.0-1.0,,<div style='font-weight: bold; font-size: 75px; color: red;'>Missed Trial <br><br><br><br> Please respond faster</div>,,delaylearn,learning,display_response,OUDTh4JYCVPT0h8Eao3KXvDTX4J3,OUDTh4JYCVPT0h8Eao3KXvDTX4J3,,,,,,,,,,,,,,,,,Missed trial,,,,,5eb16c316e577a06b326d39c,16:28:53,27/03/2024
html-keyboard-response,108,205462,0.0-46.0-2.0,,,,delaylearn,learning,feedback_duration_window,OUDTh4JYCVPT0h8Eao3KXvDTX4J3,OUDTh4JYCVPT0h8Eao3KXvDTX4J3,,,,,,,,,,,,,,,,,,0.0,,,,5eb16c316e577a06b326d39c,16:28:53,27/03/2024
html-keyboard-response,109,205468,0.0-46.0-3.0,,,,delaylearn,learning,feedback_image_window,OUDTh4JYCVPT0h8Eao3KXvDTX4J3,OUDTh4JYCVPT0h8Eao3KXvDTX4J3,,,,,,,,,,,,,,,,,,,,,,5eb16c316e577a06b326d39c,16:28:53,27/03/2024
html-keyboard-response,110,207626,0.0-47.0,,"<div style=""font-size:100px;"">+</div>",,delaylearn,learning,ITI,OUDTh4JYCVPT0h8Eao3KXvDTX4J3,OUDTh4JYCVPT0h8Eao3KXvDTX4J3,,,,,,,,,,,,,,,,,,,2148.0,,,5eb16c316e577a06b326d39c,16:28:53,27/03/2024
html-keyboard-response,111,208973,0.0-48.0-0.0,1345.800000011921,"<div style=""display: flex; flex-direction: column; align-items: center; margin-top: -40px;""><img src=""images/pattern_6.png"" style=""width: 234px; height: 230px; margin-top: -50px;""><div style=""display: flex; justify-content: space-between; margin-top: 33px;""><img src=""images/choice_trial_9.png"" style=""width: 408px; height: 417px; margin-right: 200px;""><img src=""images/choice_trial_14.png"" style=""width: 408px; height: 417px;""></div></div>",j,delaylearn,learning,trial,OUDTh4JYCVPT0h8Eao3KXvDTX4J3,OUDTh4JYCVPT0h8Eao3KXvDTX4J3,5.0,images/choice_trial_9.png,images/choice_trial_14.png,images/pattern_6.png,j,j,750.0,9.0,14.0,5.0,1.0,21.0,1.0,1.0,14.0,100.0,,,,,,5eb16c316e577a06b326d39c,16:28:53,27/03/2024
html-keyboard-response,112,209989,0.0-48.0-1.0,,"<div style=""display: flex; flex-direction: column; align-items: center; margin-top: -40px;""><img src=""images/pattern_6.png"" style=""width: 234px; height: 230px; margin-top: -50px;""><div style=""display: flex; justify-content: space-between; margin-top: 33px;""><img src=""images/choice_trial_14.png"" style=""width: 408px; height: 417px; margin-left:608px;""></div></div>",,delaylearn,learning,display_response,OUDTh4JYCVPT0h8Eao3KXvDTX4J3,OUDTh4JYCVPT0h8Eao3KXvDTX4J3,,,,,,,,,,,,,,,,,chosen stimuli: images/choice_trial_14.png,,,,,5eb16c316e577a06b326d39c,16:28:53,27/03/2024
html-keyboard-response,113,210751,0.0-48.0-2.0,,,,delaylearn,learning,feedback_duration_window,OUDTh4JYCVPT0h8Eao3KXvDTX4J3,OUDTh4JYCVPT0h8Eao3KXvDTX4J3,,,,,,,,,,,,,,,,,,750.0,,,,5eb16c316e577a06b326d39c,16:28:53,27/03/2024
html-keyboard-response,114,212268,0.0-48.0-3.0,,<div style='margin:auto;width: auto; font-size: 150%'><span style='font-weight: bold; font-size: 100px; color: green;'>+10 points!</span><br><br></div>,,delaylearn,learning,feedback_image_window,OUDTh4JYCVPT0h8Eao3KXvDTX4J3,OUDTh4JYCVPT0h8Eao3KXvDTX4J3,,,,,,,,,,,,,,,,,,,,,,5eb16c316e577a06b326d39c,16:28:53,27/03/2024
html-keyboard-response,115,214192,0.0-49.0,,"<div style=""font-size:100px;"">+</div>",,delaylearn,learning,ITI,OUDTh4JYCVPT0h8Eao3KXvDTX4J3,OUDTh4JYCVPT0h8Eao3KXvDTX4J3,,,,,,,,,,,,,,,,,,,1914.0,,,5eb16c316e577a06b326d39c,16:28:53,27/03/2024
html-keyboard-response,116,215322,0.0-50.0-0.0,1129.5,"<div style=""display: flex; flex-direction: column; align-items: center; margin-top: -40px;""><img src=""images/pattern_4.png"" style=""width: 234px; height: 230px; margin-top: -50px;""><div style=""display: flex; justify-content: space-between; margin-top: 33px;""><img src=""images/choice_trial_11.png"" style=""width: 408px; height: 417px; margin-right: 200px;""><img src=""images/choice_trial_4.png"" style=""width: 408px; height: 417px;""></div></div>",f,delaylearn,learning,trial,OUDTh4JYCVPT0h8Eao3KXvDTX4J3,OUDTh4JYCVPT0h8Eao3KXvDTX4J3,5.0,images/choice_trial_11.png,images/choice_trial_4.png,images/pattern_4.png,f,f,7000.0,11.0,4.0,3.0,0.0,22.0,1.0,1.0,11.0,110.0,,,,,,5eb16c316e577a06b326d39c,16:28:53,27/03/2024
html-keyboard-response,117,216338,0.0-50.0-1.0,,"<div style=""display: flex; flex-direction: column; align-items: center; margin-top: -40px;""><img src=""images/pattern_4.png"" style=""width: 234px; height: 230px; margin-top: -50px;""><div style=""display: flex; justify-content: space-between; margin-top: 33px;""><img src=""images/choice_trial_11.png"" style=""width: 408px; height: 417px; margin-right: 608px;""></div></div>",,delaylearn,learning,display_response,OUDTh4JYCVPT0h8Eao3KXvDTX4J3,OUDTh4JYCVPT0h8Eao3KXvDTX4J3,,,,,,,,,,,,,,,,,chosen stimuli: images/choice_trial_11.png,,,,,5eb16c316e577a06b326d39c,16:28:53,27/03/2024
html-keyboard-response,118,223352,0.0-50.0-2.0,,,,delaylearn,learning,feedback_duration_window,OUDTh4JYCVPT0h8Eao3KXvDTX4J3,OUDTh4JYCVPT0h8Eao3KXvDTX4J3,,,,,,,,,,,,,,,,,,7000.0,,,,5eb16c316e577a06b326d39c,16:28:53,27/03/2024
html-keyboard-response,119,224867,0.0-50.0-3.0,,<div style='margin:auto;width: auto; font-size: 150%'><span style='font-weight: bold; font-size: 100px; color: green;'>+10 points!</span><br><br></div>,,delaylearn,learning,feedback_image_window,OUDTh4JYCVPT0h8Eao3KXvDTX4J3,OUDTh4JYCVPT0h8Eao3KXvDTX4J3,,,,,,,,,,,,,,,,,,,,,,5eb16c316e577a06b326d39c,16:28:53,27/03/2024
html-keyboard-response,120,225383,0.0-51.0-0.0,,,,,,mood_trial_fixation,OUDTh4JYCVPT0h8Eao3KXvDTX4J3,,,,,,,,,,,,,,,,,,,,,,,5eb16c316e577a06b326d39c,16:28:53,27/03/2024
lmdlab-html-vas-response,121,230769,0.0-51.0-1.0,4380.0,How happy are you right now?,0.5071307583320084,delaylearn,learning,mood_trial,OUDTh4JYCVPT0h8Eao3KXvDTX4J3,OUDTh4JYCVPT0h8Eao3KXvDTX4J3,,,,,,,,,,,,,,,,,,,,"['Very unhappy', 'Very happy']",,5eb16c316e577a06b326d39c,16:28:53,27/03/2024
html-keyboard-response,122,232786,0.0-52.0,,"<div style=""font-size:100px;"">+</div>",,delaylearn,learning,ITI,OUDTh4JYCVPT0h8Eao3KXvDTX4J3,OUDTh4JYCVPT0h8Eao3KXvDTX4J3,,,,,,,,,,,,,,,,,,,2006.0,,,5eb16c316e577a06b326d39c,16:28:53,27/03/2024
html-keyboard-response,123,234333,0.0-53.0-0.0,1545.699999988079,"<div style=""display: flex; flex-direction: column; align-items: center; margin-top: -40px;""><img src=""images/pattern_7.png"" style=""width: 234px; height: 230px; margin-top: -50px;""><div style=""display: flex; justify-content: space-between; margin-top: 33px;""><img src=""images/choice_trial_10.png"" style=""width: 408px; height: 417px; margin-right: 200px;""><img src=""images/choice_trial_8.png"" style=""width: 408px; height: 417px;""></div></div>",f,delaylearn,learning,trial,OUDTh4JYCVPT0h8Eao3KXvDTX4J3,OUDTh4JYCVPT0h8Eao3KXvDTX4J3,5.0,images/choice_trial_10.png,images/choice_trial_8.png,images/pattern_7.png,j,j,750.0,10.0,8.0,6.0,1.0,23.0,0.0,0.0,10.0,110.0,,,,,,5eb16c316e577a06b326d39c,16:28:53,27/03/2024
html-keyboard-response,124,235341,0.0-53.0-1.0,,"<div style=""display: flex; flex-direction: column; align-items: center; margin-top: -40px;""><img src=""images/pattern_7.png"" style=""width: 234px; height: 230px; margin-top: -50px;""><div style=""display: flex; justify-content: space-between; margin-top: 33px;""><img src=""images/choice_trial_10.png"" style=""width: 408px; height: 417px; margin-right: 608px;""></div></div>",,delaylearn,learning,display_response,OUDTh4JYCVPT0h8Eao3KXvDTX4J3,OUDTh4JYCVPT0h8Eao3KXvDTX4J3,,,,,,,,,,,,,,,,,chosen stimuli: images/choice_trial_10.png,,,,,5eb16c316e577a06b326d39c,16:28:53,27/03/2024
html-keyboard-response,125,236100,0.0-53.0-2.0,,,,delaylearn,learning,feedback_duration_window,OUDTh4JYCVPT0h8Eao3KXvDTX4J3,OUDTh4JYCVPT0h8Eao3KXvDTX4J3,,,,,,,,,,,,,,,,,,750.0,,,,5eb16c316e577a06b326d39c,16:28:53,27/03/2024
html-keyboard-response,126,237610,0.0-53.0-3.0,,<div style='margin:auto;width: auto; font-size: 150%'><span style='font-weight: bold; font-size: 100px; color: red;'>0 points!</span><br><br></div>,,delaylearn,learning,feedback_image_window,OUDTh4JYCVPT0h8Eao3KXvDTX4J3,OUDTh4JYCVPT0h8Eao3KXvDTX4J3,,,,,,,,,,,,,,,,,,,,,,5eb16c316e577a06b326d39c,16:28:53,27/03/2024
html-keyboard-response,127,239627,0.0-54.0,,"<div style=""font-size:100px;"">+</div>",,delaylearn,learning,ITI,OUDTh4JYCVPT0h8Eao3KXvDTX4J3,OUDTh4JYCVPT0h8Eao3KXvDTX4J3,,,,,,,,,,,,,,,,,,,2004.0,,,5eb16c316e577a06b326d39c,16:28:53,27/03/2024
html-keyboard-response,128,241823,0.0-55.0-0.0,2195.300000011921,"<div style=""display: flex; flex-direction: column; align-items: center; margin-top: -40px;""><img src=""images/pattern_1.png"" style=""width: 234px; height: 230px; margin-top: -50px;""><div style=""display: flex; justify-content: space-between; margin-top: 33px;""><img src=""images/choice_trial_15.png"" style=""width: 408px; height: 417px; margin-right: 200px;""><img src=""images/choice_trial_6.png"" style=""width: 408px; height: 417px;""></div></div>",j,delaylearn,learning,trial,OUDTh4JYCVPT0h8Eao3KXvDTX4J3,OUDTh4JYCVPT0h8Eao3KXvDTX4J3,5.0,images/choice_trial_15.png,images/choice_trial_6.png,images/pattern_1.png,f,j,7000.0,15.0,6.0,1.0,1.0,24.0,1.0,0.0,6.0,110.0,,,,,,5eb16c316e577a06b326d39c,16:28:53,27/03/2024
html-keyboard-response,129,242847,0.0-55.0-1.0,,"<div style=""display: flex; flex-direction: column; align-items: center; margin-top: -40px;""><img src=""images/pattern_1.png"" style=""width: 234px; height: 230px; margin-top: -50px;""><div style=""display: flex; justify-content: space-between; margin-top: 33px;""><img src=""images/choice_trial_6.png"" style=""width: 408px; height: 417px; margin-left:608px;""></div></div>",,delaylearn,learning,display_response,OUDTh4JYCVPT0h8Eao3KXvDTX4J3,OUDTh4JYCVPT0h8Eao3KXvDTX4J3,,,,,,,,,,,,,,,,,chosen stimuli: images/choice_trial_6.png,,,,,5eb16c316e577a06b326d39c,16:28:53,27/03/2024
html-keyboard-response,130,249860,0.0-55.0-2.0,,,,delaylearn,learning,feedback_duration_window,OUDTh4JYCVPT0h8Eao3KXvDTX4J3,OUDTh4JYCVPT0h8Eao3KXvDTX4J3,,,,,,,,,,,,,,,,,,7000.0,,,,5eb16c316e577a06b326d39c,16:28:53,27/03/2024
html-keyboard-response,131,251370,0.0-55.0-3.0,,<div style='margin:auto;width: auto; font-size: 150%'><span style='font-weight: bold; font-size: 100px; color: red;'>0 points!</span><br><br></div>,,delaylearn,learning,feedback_image_window,OUDTh4JYCVPT0h8Eao3KXvDTX4J3,OUDTh4JYCVPT0h8Eao3KXvDTX4J3,,,,,,,,,,,,,,,,,,,,,,5eb16c316e577a06b326d39c,16:28:53,27/03/2024
html-keyboard-response,132,253013,0.0-56.0,,"<div style=""font-size:100px;"">+</div>",,delaylearn,learning,ITI,OUDTh4JYCVPT0h8Eao3KXvDTX4J3,OUDTh4JYCVPT0h8Eao3KXvDTX4J3,,,,,,,,,,,,,,,,,,,1630.0,,,5eb16c316e577a06b326d39c,16:28:53,27/03/2024
html-keyboard-response,133,256018,0.0-57.0-0.0,,"<div style=""display: flex; flex-direction: column; align-items: center; margin-top: -40px;""><img src=""images/pattern_5.png"" style=""width: 234px; height: 230px; margin-top: -50px;""><div style=""display: flex; justify-content: space-between; margin-top: 33px;""><img src=""images/choice_trial_13.png"" style=""width: 408px; height: 417px; margin-right: 200px;""><img src=""images/choice_trial_7.png"" style=""width: 408px; height: 417px;""></div></div>",,delaylearn,learning,trial,OUDTh4JYCVPT0h8Eao3KXvDTX4J3,OUDTh4JYCVPT0h8Eao3KXvDTX4J3,5.0,images/choice_trial_13.png,images/choice_trial_7.png,images/pattern_5.png,j,j,750.0,13.0,7.0,4.0,1.0,25.0,0.0,0.0,0.0,110.0,,,,,,5eb16c316e577a06b326d39c,16:28:53,27/03/2024
html-keyboard-response,134,257020,0.0-57.0-1.0,,<div style='font-weight: bold; font-size: 75px; color: red;'>Missed Trial <br><br><br><br> Please respond faster</div>,,delaylearn,learning,display_response,OUDTh4JYCVPT0h8Eao3KXvDTX4J3,OUDTh4JYCVPT0h8Eao3KXvDTX4J3,,,,,,,,,,,,,,,,,Missed trial,,,,,5eb16c316e577a06b326d39c,16:28:53,27/03/2024
html-keyboard-response,135,257026,0.0-57.0-2.0,,,,delaylearn,learning,feedback_duration_window,OUDTh4JYCVPT0h8Eao3KXvDTX4J3,OUDTh4JYCVPT0h8Eao3KXvDTX4J3,,,,,,,,,,,,,,,,,,0.0,,,,5eb16c316e577a06b326d39c,16:28:53,27/03/2024
html-keyboard-response,136,257031,0.0-57.0-3.0,,,,delaylearn,learning,feedback_image_window,OUDTh4JYCVPT0h8Eao3KXvDTX4J3,OUDTh4JYCVPT0h8Eao3KXvDTX4J3,,,,,,,,,,,,,,,,,,,,,,5eb16c316e577a06b326d39c,16:28:53,27/03/2024
html-keyboard-response,137,259480,0.0-58.0,,"<div style=""font-size:100px;"">+</div>",,delaylearn,learning,ITI,OUDTh4JYCVPT0h8Eao3KXvDTX4J3,OUDTh4JYCVPT0h8Eao3KXvDTX4J3,,,,,,,,,,,,,,,,,,,2447.0,,,5eb16c316e577a06b326d39c,16:28:53,27/03/2024
html-keyboard-response,138,261774,0.0-59.0-0.0,2293.399999976158,"<div style=""display: flex; flex-direction: column; align-items: center; margin-top: -40px;""><img src=""images/pattern_3.png"" style=""width: 234px; height: 230px; margin-top: -50px;""><div style=""display: flex; justify-content: space-between; margin-top: 33px;""><img src=""images/choice_trial_2.png"" style=""width: 408px; height: 417px; margin-right: 200px;""><img src=""images/choice_trial_16.png"" style=""width: 408px; height: 417px;""></div></div>",f,delaylearn,learning,trial,OUDTh4JYCVPT0h8Eao3KXvDTX4J3,OUDTh4JYCVPT0h8Eao3KXvDTX4J3,5.0,images/choice_trial_2.png,images/choice_trial_16.png,images/pattern_3.png,j,j,7000.0,2.0,16.0,2.0,1.0,26.0,0.0,0.0,2.0,110.0,,,,,,5eb16c316e577a06b326d39c,16:28:53,27/03/2024
html-keyboard-response,139,262790,0.0-59.0-1.0,,"<div style=""display: flex; flex-direction: column; align-items: center; margin-top: -40px;""><img src=""images/pattern_3.png"" style=""width: 234px; height: 230px; margin-top: -50px;""><div style=""display: flex; justify-content: space-between; margin-top: 33px;""><img src=""images/choice_trial_2.png"" style=""width: 408px; height: 417px; margin-right: 608px;""></div></div>",,delaylearn,learning,display_response,OUDTh4JYCVPT0h8Eao3KXvDTX4J3,OUDTh4JYCVPT0h8Eao3KXvDTX4J3,,,,,,,,,,,,,,,,,chosen stimuli: images/choice_trial_2.png,,,,,5eb16c316e577a06b326d39c,16:28:53,27/03/2024
html-keyboard-response,140,269801,0.0-59.0-2.0,,,,delaylearn,learning,feedback_duration_window,OUDTh4JYCVPT0h8Eao3KXvDTX4J3,OUDTh4JYCVPT0h8Eao3KXvDTX4J3,,,,,,,,,,,,,,,,,,7000.0,,,,5eb16c316e577a06b326d39c,16:28:53,27/03/2024
html-keyboard-response,141,271313,0.0-59.0-3.0,,<div style='margin:auto;width: auto; font-size: 150%'><span style='font-weight: bold; font-size: 100px; color: red;'>0 points!</span><br><br></div>,,delaylearn,learning,feedback_image_window,OUDTh4JYCVPT0h8Eao3KXvDTX4J3,OUDTh4JYCVPT0h8Eao3KXvDTX4J3,,,,,,,,,,,,,,,,,,,,,,5eb16c316e577a06b326d39c,16:28:53,27/03/2024
lmdlab-html-vas-response,142,278216,0.0-60.0-0.0,5390.0,*How <b><u>confident</u></b> are you feeling about your answers at this moment?*,0.07272944502846976,rewlearn,rate_confidence,,OUDTh4JYCVPT0h8Eao3KXvDTX4J3,OUDTh4JYCVPT0h8Eao3KXvDTX4J3,,,,,,,,,,,,,,,,,,,,"['No confidence', 'Complete confidence']",,5eb16c316e577a06b326d39c,16:28:53,27/03/2024
lmdlab-rest-trial-limit,143,289410,0.0-60.0-1.0,9679.5,"<div style=""font-size:40px;""><b>Please take a break!</b><br><br><br><br><p>Great work: you earned 110 points.<br><br><br><p>You have completed part(s) 1 of 5.<br><br><br><br>When you are ready to continue<br><br><br>please click the button.</p><br><br>",0,delaylearn,learning,break,OUDTh4JYCVPT0h8Eao3KXvDTX4J3,OUDTh4JYCVPT0h8Eao3KXvDTX4J3,,,,,,,,,,,,,,,,,,,,,0.0,5eb16c316e577a06b326d39c,16:28:53,27/03/2024
html-keyboard-response,144,292418,0.0-60.0-2.0,,"<div style=""font-size:100px;"">+</div>",,delaylearn,learning,pre_fixation,OUDTh4JYCVPT0h8Eao3KXvDTX4J3,,,,,,,,,,,,,,,,,,,,,,,5eb16c316e577a06b326d39c,16:28:53,27/03/2024
lmdlab-html-vas-response,145,297337,0.0-60.0-3.0-0.0,3909.0,How happy are you right now?,0.5017344687257532,delaylearn,learning,mood_baseline,OUDTh4JYCVPT0h8Eao3KXvDTX4J3,OUDTh4JYCVPT0h8Eao3KXvDTX4J3,,,,,,,,,,,,,,,,,,,,"['Very unhappy', 'Very happy']",,5eb16c316e577a06b326d39c,16:28:53,27/03/2024
html-keyboard-response,146,298855,0.0-60.0-3.0-1.0,,,,,,mood_baseline_fixation,OUDTh4JYCVPT0h8Eao3KXvDTX4J3,,,,,,,,,,,,,,,,,,,,,,,5eb16c316e577a06b326d39c,16:28:53,27/03/2024
html-keyboard-response,147,300426,0.0-61.0,,"<div style=""font-size:100px;"">+</div>",,delaylearn,learning,ITI,OUDTh4JYCVPT0h8Eao3KXvDTX4J3,OUDTh4JYCVPT0h8Eao3KXvDTX4J3,,,,,,,,,,,,,,,,,,,1563.0,,,5eb16c316e577a06b326d39c,16:28:53,27/03/2024
html-keyboard-response,148,301995,0.0-62.0-0.0,1568.0,"<div style=""display: flex; flex-direction: column; align-items: center; margin-top: -40px;""><img src=""images/pattern_7.png"" style=""width: 234px; height: 230px; margin-top: -50px;""><div style=""display: flex; justify-content: space-between; margin-top: 33px;""><img src=""images/choice_trial_10.png"" style=""width: 408px; height: 417px; margin-right: 200px;""><img src=""images/choice_trial_8.png"" style=""width: 408px; height: 417px;""></div></div>",j,delaylearn,learning,trial,OUDTh4JYCVPT0h8Eao3KXvDTX4J3,OUDTh4JYCVPT0h8Eao3KXvDTX4J3,5.0,images/choice_trial_10.png,images/choice_trial_8.png,images/pattern_7.png,j,j,750.0,10.0,8.0,6.0,1.0,27.0,1.0,1.0,8.0,120.0,,,,,,5eb16c316e577a06b326d39c,16:28:53,27/03/2024
html-keyboard-response,149,303007,0.0-62.0-1.0,,"<div style=""display: flex; flex-direction: column; align-items: center; margin-top: -40px;""><img src=""images/pattern_7.png"" style=""width: 234px; height: 230px; margin-top: -50px;""><div style=""display: flex; justify-content: space-between; margin-top: 33px;""><img src=""images/choice_trial_8.png"" style=""width: 408px; height: 417px; margin-left:608px;""></div></div>",,delaylearn,learning,display_response,OUDTh4JYCVPT0h8Eao3KXvDTX4J3,OUDTh4JYCVPT0h8Eao3KXvDTX4J3,,,,,,,,,,,,,,,,,chosen stimuli: images/choice_trial_8.png,,,,,5eb16c316e577a06b326d39c,16:28:53,27/03/2024
html-keyboard-response,150,303771,0.0-62.0-2.0,,,,delaylearn,learning,feedback_duration_window,OUDTh4JYCVPT0h8Eao3KXvDTX4J3,OUDTh4JYCVPT0h8Eao3KXvDTX4J3,,,,,,,,,,,,,,,,,,750.0,,,,5eb16c316e577a06b326d39c,16:28:53,27/03/2024
html-keyboard-response,151,305284,0.0-62.0-3.0,,<div style='margin:auto;width: auto; font-size: 150%'><span style='font-weight: bold; font-size: 100px; color: green;'>+10 points!</span><br><br></div>,,delaylearn,learning,feedback_image_window,OUDTh4JYCVPT0h8Eao3KXvDTX4J3,OUDTh4JYCVPT0h8Eao3KXvDTX4J3,,,,,,,,,,,,,,,,,,,,,,5eb16c316e577a06b326d39c,16:28:53,27/03/2024
html-keyboard-response,152,305798,0.0-63.0-0.0,,,,,,mood_trial_fixation,OUDTh4JYCVPT0h8Eao3KXvDTX4J3,,,,,,,,,,,,,,,,,,,,,,,5eb16c316e577a06b326d39c,16:28:53,27/03/2024
lmdlab-html-vas-response,153,314671,0.0-63.0-1.0,7859.0,How happy are you right now?,0.006624897351844324,delaylearn,learning,mood_trial,OUDTh4JYCVPT0h8Eao3KXvDTX4J3,OUDTh4JYCVPT0h8Eao3KXvDTX4J3,,,,,,,,,,,,,,,,,,,,"['Very unhappy', 'Very happy']",,5eb16c316e577a06b326d39c,16:28:53,27/03/2024
html-keyboard-response,154,316255,0.0-64.0,,"<div style=""font-size:100px;"">+</div>",,delaylearn,learning,ITI,OUDTh4JYCVPT0h8Eao3KXvDTX4J3,OUDTh4JYCVPT0h8Eao3KXvDTX4J3,,,,,,,,,,,,,,,,,,,1570.0,,,5eb16c316e577a06b326d39c,16:28:53,27/03/2024
html-keyboard-response,155,317613,0.0-65.0-0.0,1357.300000011921,"<div style=""display: flex; flex-direction: column; align-items: center; margin-top: -40px;""><img src=""images/pattern_1.png"" style=""width: 234px; height: 230px; margin-top: -50px;""><div style=""display: flex; justify-content: space-between; margin-top: 33px;""><img src=""images/choice_trial_6.png"" style=""width: 408px; height: 417px; margin-right: 200px;""><img src=""images/choice_trial_15.png"" style=""width: 408px; height: 417px;""></div></div>",j,delaylearn,learning,trial,OUDTh4JYCVPT0h8Eao3KXvDTX4J3,OUDTh4JYCVPT0h8Eao3KXvDTX4J3,5.0,images/choice_trial_6.png,images/choice_trial_15.png,images/pattern_1.png,f,f,7000.0,6.0,15.0,1.0,0.0,28.0,0.0,0.0,15.0,120.0,,,,,,5eb16c316e577a06b326d39c,16:28:53,27/03/2024
html-keyboard-response,156,318627,0.0-65.0-1.0,,"<div style=""display: flex; flex-direction: column; align-items: center; margin-top: -40px;""><img src=""images/pattern_1.png"" style=""width: 234px; height: 230px; margin-top: -50px;""><div style=""display: flex; justify-content: space-between; margin-top: 33px;""><img src=""images/choice_trial_15.png"" style=""width: 408px; height: 417px; margin-left:608px;""></div></div>",,delaylearn,learning,display_response,OUDTh4JYCVPT0h8Eao3KXvDTX4J3,OUDTh4JYCVPT0h8Eao3KXvDTX4J3,,,,,,,,,,,,,,,,,chosen stimuli: images/choice_trial_15.png,,,,,5eb16c316e577a06b326d39c,16:28:53,27/03/2024
html-keyboard-response,157,325641,0.0-65.0-2.0,,,,delaylearn,learning,feedback_duration_window,OUDTh4JYCVPT0h8Eao3KXvDTX4J3,OUDTh4JYCVPT0h8Eao3KXvDTX4J3,,,,,,,,,,,,,,,,,,7000.0,,,,5eb16c316e577a06b326d39c,16:28:53,27/03/2024
html-keyboard-response,158,327148,0.0-65.0-3.0,,<div style='margin:auto;width: auto; font-size: 150%'><span style='font-weight: bold; font-size: 100px; color: red;'>0 points!</span><br><br></div>,,delaylearn,learning,feedback_image_window,OUDTh4JYCVPT0h8Eao3KXvDTX4J3,OUDTh4JYCVPT0h8Eao3KXvDTX4J3,,,,,,,,,,,,,,,,,,,,,,5eb16c316e577a06b326d39c,16:28:53,27/03/2024
html-keyboard-response,159,328671,0.0-66.0,,"<div style=""font-size:100px;"">+</div>",,delaylearn,learning,ITI,OUDTh4JYCVPT0h8Eao3KXvDTX4J3,OUDTh4JYCVPT0h8Eao3KXvDTX4J3,,,,,,,,,,,,,,,,,,,1505.0,,,5eb16c316e577a06b326d39c,16:28:53,27/03/2024
html-keyboard-response,160,330086,0.0-67.0-0.0,1413.699999988079,"<div style=""display: flex; flex-direction: column; align-items: center; margin-top: -40px;""><img src=""images/pattern_5.png"" style=""width: 234px; height: 230px; margin-top: -50px;""><div style=""display: flex; justify-content: space-between; margin-top: 33px;""><img src=""images/choice_trial_7.png"" style=""width: 408px; height: 417px; margin-right: 200px;""><img src=""images/choice_trial_13.png"" style=""width: 408px; height: 417px;""></div></div>",f,delaylearn,learning,trial,OUDTh4JYCVPT0h8Eao3KXvDTX4J3,OUDTh4JYCVPT0h8Eao3KXvDTX4J3,5.0,images/choice_trial_7.png,images/choice_trial_13.png,images/pattern_5.png,f,f,750.0,7.0,13.0,4.0,0.0,29.0,1.0,1.0,7.0,130.0,,,,,,5eb16c316e577a06b326d39c,16:28:53,27/03/2024
html-keyboard-response,161,331093,0.0-67.0-1.0,,"<div style=""display: flex; flex-direction: column; align-items: center; margin-top: -40px;""><img src=""images/pattern_5.png"" style=""width: 234px; height: 230px; margin-top: -50px;""><div style=""display: flex; justify-content: space-between; margin-top: 33px;""><img src=""images/choice_trial_7.png"" style=""width: 408px; height: 417px; margin-right: 608px;""></div></div>",,delaylearn,learning,display_response,OUDTh4JYCVPT0h8Eao3KXvDTX4J3,OUDTh4JYCVPT0h8Eao3KXvDTX4J3,,,,,,,,,,,,,,,,,chosen stimuli: images/choice_trial_7.png,,,,,5eb16c316e577a06b326d39c,16:28:53,27/03/2024
html-keyboard-response,162,331855,0.0-67.0-2.0,,,,delaylearn,learning,feedback_duration_window,OUDTh4JYCVPT0h8Eao3KXvDTX4J3,OUDTh4JYCVPT0h8Eao3KXvDTX4J3,,,,,,,,,,,,,,,,,,750.0,,,,5eb16c316e577a06b326d39c,16:28:53,27/03/2024
html-keyboard-response,163,333365,0.0-67.0-3.0,,<div style='margin:auto;width: auto; font-size: 150%'><span style='font-weight: bold; font-size: 100px; color: green;'>+10 points!</span><br><br></div>,,delaylearn,learning,feedback_image_window,OUDTh4JYCVPT0h8Eao3KXvDTX4J3,OUDTh4JYCVPT0h8Eao3KXvDTX4J3,,,,,,,,,,,,,,,,,,,,,,5eb16c316e577a06b326d39c,16:28:53,27/03/2024
html-keyboard-response,164,334932,0.0-68.0,,"<div style=""font-size:100px;"">+</div>",,delaylearn,learning,ITI,OUDTh4JYCVPT0h8Eao3KXvDTX4J3,OUDTh4JYCVPT0h8Eao3KXvDTX4J3,,,,,,,,,,,,,,,,,,,1552.0,,,5eb16c316e577a06b326d39c,16:28:53,27/03/2024
html-keyboard-response,165,337408,0.0-69.0-0.0,2475.5,"<div style=""display: flex; flex-direction: column; align-items: center; margin-top: -40px;""><img src=""images/pattern_6.png"" style=""width: 234px; height: 230px; margin-top: -50px;""><div style=""display: flex; justify-content: space-between; margin-top: 33px;""><img src=""images/choice_trial_9.png"" style=""width: 408px; height: 417px; margin-right: 200px;""><img src=""images/choice_trial_14.png"" style=""width: 408px; height: 417px;""></div></div>",f,delaylearn,learning,trial,OUDTh4JYCVPT0h8Eao3KXvDTX4J3,OUDTh4JYCVPT0h8Eao3KXvDTX4J3,5.0,images/choice_trial_9.png,images/choice_trial_14.png,images/pattern_6.png,j,j,750.0,9.0,14.0,5.0,1.0,30.0,0.0,0.0,9.0,130.0,,,,,,5eb16c316e577a06b326d39c,16:28:53,27/03/2024
html-keyboard-response,166,338427,0.0-69.0-1.0,,"<div style=""display: flex; flex-direction: column; align-items: center; margin-top: -40px;""><img src=""images/pattern_6.png"" style=""width: 234px; height: 230px; margin-top: -50px;""><div style=""display: flex; justify-content: space-between; margin-top: 33px;""><img src=""images/choice_trial_9.png"" style=""width: 408px; height: 417px; margin-right: 608px;""></div></div>",,delaylearn,learning,display_response,OUDTh4JYCVPT0h8Eao3KXvDTX4J3,OUDTh4JYCVPT0h8Eao3KXvDTX4J3,,,,,,,,,,,,,,,,,chosen stimuli: images/choice_trial_9.png,,,,,5eb16c316e577a06b326d39c,16:28:53,27/03/2024
html-keyboard-response,167,339197,0.0-69.0-2.0,,,,delaylearn,learning,feedback_duration_window,OUDTh4JYCVPT0h8Eao3KXvDTX4J3,OUDTh4JYCVPT0h8Eao3KXvDTX4J3,,,,,,,,,,,,,,,,,,750.0,,,,5eb16c316e577a06b326d39c,16:28:53,27/03/2024
html-keyboard-response,168,340708,0.0-69.0-3.0,,<div style='margin:auto;width: auto; font-size: 150%'><span style='font-weight: bold; font-size: 100px; color: red;'>0 points!</span><br><br></div>,,delaylearn,learning,feedback_image_window,OUDTh4JYCVPT0h8Eao3KXvDTX4J3,OUDTh4JYCVPT0h8Eao3KXvDTX4J3,,,,,,,,,,,,,,,,,,,,,,5eb16c316e577a06b326d39c,16:28:53,27/03/2024
html-keyboard-response,169,341224,0.0-70.0-0.0,,,,,,mood_trial_fixation,OUDTh4JYCVPT0h8Eao3KXvDTX4J3,,,,,,,,,,,,,,,,,,,,,,,5eb16c316e577a06b326d39c,16:28:53,27/03/2024
lmdlab-html-vas-response,170,346130,0.0-70.0-1.0,3889.0,How happy are you right now?,0.03900263498937515,delaylearn,learning,mood_trial,OUDTh4JYCVPT0h8Eao3KXvDTX4J3,OUDTh4JYCVPT0h8Eao3KXvDTX4J3,,,,,,,,,,,,,,,,,,,,"['Very unhappy', 'Very happy']",,5eb16c316e577a06b326d39c,16:28:53,27/03/2024
html-keyboard-response,171,348396,0.0-71.0,,"<div style=""font-size:100px;"">+</div>",,delaylearn,learning,ITI,OUDTh4JYCVPT0h8Eao3KXvDTX4J3,OUDTh4JYCVPT0h8Eao3KXvDTX4J3,,,,,,,,,,,,,,,,,,,2256.0,,,5eb16c316e577a06b326d39c,16:28:53,27/03/2024
html-keyboard-response,172,349322,0.0-72.0-0.0,924.0,"<div style=""display: flex; flex-direction: column; align-items: center; margin-top: -40px;""><img src=""images/pattern_4.png"" style=""width: 234px; height: 230px; margin-top: -50px;""><div style=""display: flex; justify-content: space-between; margin-top: 33px;""><img src=""images/choice_trial_4.png"" style=""width: 408px; height: 417px; margin-right: 200px;""><img src=""images/choice_trial_11.png"" style=""width: 408px; height: 417px;""></div></div>",j,delaylearn,learning,trial,OUDTh4JYCVPT0h8Eao3KXvDTX4J3,OUDTh4JYCVPT0h8Eao3KXvDTX4J3,5.0,images/choice_trial_4.png,images/choice_trial_11.png,images/pattern_4.png,j,j,7000.0,4.0,11.0,3.0,1.0,31.0,1.0,1.0,11.0,140.0,,,,,,5eb16c316e577a06b326d39c,16:28:53,27/03/2024
html-keyboard-response,173,350341,0.0-72.0-1.0,,"<div style=""display: flex; flex-direction: column; align-items: center; margin-top: -40px;""><img src=""images/pattern_4.png"" style=""width: 234px; height: 230px; margin-top: -50px;""><div style=""display: flex; justify-content: space-between; margin-top: 33px;""><img src=""images/choice_trial_11.png"" style=""width: 408px; height: 417px; margin-left:608px;""></div></div>",,delaylearn,learning,display_response,OUDTh4JYCVPT0h8Eao3KXvDTX4J3,OUDTh4JYCVPT0h8Eao3KXvDTX4J3,,,,,,,,,,,,,,,,,chosen stimuli: images/choice_trial_11.png,,,,,5eb16c316e577a06b326d39c,16:28:53,27/03/2024
html-keyboard-response,174,357353,0.0-72.0-2.0,,,,delaylearn,learning,feedback_duration_window,OUDTh4JYCVPT0h8Eao3KXvDTX4J3,OUDTh4JYCVPT0h8Eao3KXvDTX4J3,,,,,,,,,,,,,,,,,,7000.0,,,,5eb16c316e577a06b326d39c,16:28:53,27/03/2024
html-keyboard-response,175,358862,0.0-72.0-3.0,,<div style='margin:auto;width: auto; font-size: 150%'><span style='font-weight: bold; font-size: 100px; color: green;'>+10 points!</span><br><br></div>,,delaylearn,learning,feedback_image_window,OUDTh4JYCVPT0h8Eao3KXvDTX4J3,OUDTh4JYCVPT0h8Eao3KXvDTX4J3,,,,,,,,,,,,,,,,,,,,,,5eb16c316e577a06b326d39c,16:28:53,27/03/2024
html-keyboard-response,176,360726,0.0-73.0,,"<div style=""font-size:100px;"">+</div>",,delaylearn,learning,ITI,OUDTh4JYCVPT0h8Eao3KXvDTX4J3,OUDTh4JYCVPT0h8Eao3KXvDTX4J3,,,,,,,,,,,,,,,,,,,1849.0,,,5eb16c316e577a06b326d39c,16:28:53,27/03/2024
html-keyboard-response,177,362869,0.0-74.0-0.0,2141.300000011921,"<div style=""display: flex; flex-direction: column; align-items: center; margin-top: -40px;""><img src=""images/pattern_3.png"" style=""width: 234px; height: 230px; margin-top: -50px;""><div style=""display: flex; justify-content: space-between; margin-top: 33px;""><img src=""images/choice_trial_2.png"" style=""width: 408px; height: 417px; margin-right: 200px;""><img src=""images/choice_trial_16.png"" style=""width: 408px; height: 417px;""></div></div>",j,delaylearn,learning,trial,OUDTh4JYCVPT0h8Eao3KXvDTX4J3,OUDTh4JYCVPT0h8Eao3KXvDTX4J3,5.0,images/choice_trial_2.png,images/choice_trial_16.png,images/pattern_3.png,j,j,7000.0,2.0,16.0,2.0,1.0,32.0,1.0,1.0,16.0,150.0,,,,,,5eb16c316e577a06b326d39c,16:28:53,27/03/2024
html-keyboard-response,178,363880,0.0-74.0-1.0,,"<div style=""display: flex; flex-direction: column; align-items: center; margin-top: -40px;""><img src=""images/pattern_3.png"" style=""width: 234px; height: 230px; margin-top: -50px;""><div style=""display: flex; justify-content: space-between; margin-top: 33px;""><img src=""images/choice_trial_16.png"" style=""width: 408px; height: 417px; margin-left:608px;""></div></div>",,delaylearn,learning,display_response,OUDTh4JYCVPT0h8Eao3KXvDTX4J3,OUDTh4JYCVPT0h8Eao3KXvDTX4J3,,,,,,,,,,,,,,,,,chosen stimuli: images/choice_trial_16.png,,,,,5eb16c316e577a06b326d39c,16:28:53,27/03/2024
html-keyboard-response,179,370888,0.0-74.0-2.0,,,,delaylearn,learning,feedback_duration_window,OUDTh4JYCVPT0h8Eao3KXvDTX4J3,OUDTh4JYCVPT0h8Eao3KXvDTX4J3,,,,,,,,,,,,,,,,,,7000.0,,,,5eb16c316e577a06b326d39c,16:28:53,27/03/2024
html-keyboard-response,180,372393,0.0-74.0-3.0,,<div style='margin:auto;width: auto; font-size: 150%'><span style='font-weight: bold; font-size: 100px; color: green;'>+10 points!</span><br><br></div>,,delaylearn,learning,feedback_image_window,OUDTh4JYCVPT0h8Eao3KXvDTX4J3,OUDTh4JYCVPT0h8Eao3KXvDTX4J3,,,,,,,,,,,,,,,,,,,,,,5eb16c316e577a06b326d39c,16:28:53,27/03/2024
html-keyboard-response,181,374644,0.0-75.0,,"<div style=""font-size:100px;"">+</div>",,delaylearn,learning,ITI,OUDTh4JYCVPT0h8Eao3KXvDTX4J3,OUDTh4JYCVPT0h8Eao3KXvDTX4J3,,,,,,,,,,,,,,,,,,,2239.0,,,5eb16c316e577a06b326d39c,16:28:53,27/03/2024
html-keyboard-response,182,375864,0.0-76.0-0.0,1219.699999988079,"<div style=""display: flex; flex-direction: column; align-items: center; margin-top: -40px;""><img src=""images/pattern_5.png"" style=""width: 234px; height: 230px; margin-top: -50px;""><div style=""display: flex; justify-content: space-between; margin-top: 33px;""><img src=""images/choice_trial_7.png"" style=""width: 408px; height: 417px; margin-right: 200px;""><img src=""images/choice_trial_13.png"" style=""width: 408px; height: 417px;""></div></div>",f,delaylearn,learning,trial,OUDTh4JYCVPT0h8Eao3KXvDTX4J3,OUDTh4JYCVPT0h8Eao3KXvDTX4J3,5.0,images/choice_trial_7.png,images/choice_trial_13.png,images/pattern_5.png,j,f,750.0,7.0,13.0,4.0,0.0,33.0,1.0,0.0,7.0,150.0,,,,,,5eb16c316e577a06b326d39c,16:28:53,27/03/2024
html-keyboard-response,183,376884,0.0-76.0-1.0,,"<div style=""display: flex; flex-direction: column; align-items: center; margin-top: -40px;""><img src=""images/pattern_5.png"" style=""width: 234px; height: 230px; margin-top: -50px;""><div style=""display: flex; justify-content: space-between; margin-top: 33px;""><img src=""images/choice_trial_7.png"" style=""width: 408px; height: 417px; margin-right: 608px;""></div></div>",,delaylearn,learning,display_response,OUDTh4JYCVPT0h8Eao3KXvDTX4J3,OUDTh4JYCVPT0h8Eao3KXvDTX4J3,,,,,,,,,,,,,,,,,chosen stimuli: images/choice_trial_7.png,,,,,5eb16c316e577a06b326d39c,16:28:53,27/03/2024
html-keyboard-response,184,377648,0.0-76.0-2.0,,,,delaylearn,learning,feedback_duration_window,OUDTh4JYCVPT0h8Eao3KXvDTX4J3,OUDTh4JYCVPT0h8Eao3KXvDTX4J3,,,,,,,,,,,,,,,,,,750.0,,,,5eb16c316e577a06b326d39c,16:28:53,27/03/2024
html-keyboard-response,185,379157,0.0-76.0-3.0,,<div style='margin:auto;width: auto; font-size: 150%'><span style='font-weight: bold; font-size: 100px; color: red;'>0 points!</span><br><br></div>,,delaylearn,learning,feedback_image_window,OUDTh4JYCVPT0h8Eao3KXvDTX4J3,OUDTh4JYCVPT0h8Eao3KXvDTX4J3,,,,,,,,,,,,,,,,,,,,,,5eb16c316e577a06b326d39c,16:28:53,27/03/2024
html-keyboard-response,186,381398,0.0-77.0,,"<div style=""font-size:100px;"">+</div>",,delaylearn,learning,ITI,OUDTh4JYCVPT0h8Eao3KXvDTX4J3,OUDTh4JYCVPT0h8Eao3KXvDTX4J3,,,,,,,,,,,,,,,,,,,2220.0,,,5eb16c316e577a06b326d39c,16:28:53,27/03/2024
html-keyboard-response,187,382416,0.0-78.0-0.0,1017.1000000238419,"<div style=""display: flex; flex-direction: column; align-items: center; margin-top: -40px;""><img src=""images/pattern_1.png"" style=""width: 234px; height: 230px; margin-top: -50px;""><div style=""display: flex; justify-content: space-between; margin-top: 33px;""><img src=""images/choice_trial_6.png"" style=""width: 408px; height: 417px; margin-right: 200px;""><img src=""images/choice_trial_15.png"" style=""width: 408px; height: 417px;""></div></div>",j,delaylearn,learning,trial,OUDTh4JYCVPT0h8Eao3KXvDTX4J3,OUDTh4JYCVPT0h8Eao3KXvDTX4J3,5.0,images/choice_trial_6.png,images/choice_trial_15.png,images/pattern_1.png,f,f,7000.0,6.0,15.0,1.0,0.0,34.0,0.0,0.0,15.0,150.0,,,,,,5eb16c316e577a06b326d39c,16:28:53,27/03/2024
html-keyboard-response,188,383420,0.0-78.0-1.0,,"<div style=""display: flex; flex-direction: column; align-items: center; margin-top: -40px;""><img src=""images/pattern_1.png"" style=""width: 234px; height: 230px; margin-top: -50px;""><div style=""display: flex; justify-content: space-between; margin-top: 33px;""><img src=""images/choice_trial_15.png"" style=""width: 408px; height: 417px; margin-left:608px;""></div></div>",,delaylearn,learning,display_response,OUDTh4JYCVPT0h8Eao3KXvDTX4J3,OUDTh4JYCVPT0h8Eao3KXvDTX4J3,,,,,,,,,,,,,,,,,chosen stimuli: images/choice_trial_15.png,,,,,5eb16c316e577a06b326d39c,16:28:53,27/03/2024
html-keyboard-response,189,390435,0.0-78.0-2.0,,,,delaylearn,learning,feedback_duration_window,OUDTh4JYCVPT0h8Eao3KXvDTX4J3,OUDTh4JYCVPT0h8Eao3KXvDTX4J3,,,,,,,,,,,,,,,,,,7000.0,,,,5eb16c316e577a06b326d39c,16:28:53,27/03/2024
html-keyboard-response,190,391958,0.0-78.0-3.0,,<div style='margin:auto;width: auto; font-size: 150%'><span style='font-weight: bold; font-size: 100px; color: red;'>0 points!</span><br><br></div>,,delaylearn,learning,feedback_image_window,OUDTh4JYCVPT0h8Eao3KXvDTX4J3,OUDTh4JYCVPT0h8Eao3KXvDTX4J3,,,,,,,,,,,,,,,,,,,,,,5eb16c316e577a06b326d39c,16:28:53,27/03/2024
html-keyboard-response,191,392472,0.0-79.0-0.0,,,,,,mood_trial_fixation,OUDTh4JYCVPT0h8Eao3KXvDTX4J3,,,,,,,,,,,,,,,,,,,,,,,5eb16c316e577a06b326d39c,16:28:53,27/03/2024
lmdlab-html-vas-response,192,396025,0.0-79.0-1.0,2540.0,How happy are you right now?,0.022813766170609737,delaylearn,learning,mood_trial,OUDTh4JYCVPT0h8Eao3KXvDTX4J3,OUDTh4JYCVPT0h8Eao3KXvDTX4J3,,,,,,,,,,,,,,,,,,,,"['Very unhappy', 'Very happy']",,5eb16c316e577a06b326d39c,16:28:53,27/03/2024
html-keyboard-response,193,397981,0.0-80.0,,"<div style=""font-size:100px;"">+</div>",,delaylearn,learning,ITI,OUDTh4JYCVPT0h8Eao3KXvDTX4J3,OUDTh4JYCVPT0h8Eao3KXvDTX4J3,,,,,,,,,,,,,,,,,,,1949.0,,,5eb16c316e577a06b326d39c,16:28:53,27/03/2024
html-keyboard-response,194,399316,0.0-81.0-0.0,1334.1000000238419,"<div style=""display: flex; flex-direction: column; align-items: center; margin-top: -40px;""><img src=""images/pattern_6.png"" style=""width: 234px; height: 230px; margin-top: -50px;""><div style=""display: flex; justify-content: space-between; margin-top: 33px;""><img src=""images/choice_trial_14.png"" style=""width: 408px; height: 417px; margin-right: 200px;""><img src=""images/choice_trial_9.png"" style=""width: 408px; height: 417px;""></div></div>",f,delaylearn,learning,trial,OUDTh4JYCVPT0h8Eao3KXvDTX4J3,OUDTh4JYCVPT0h8Eao3KXvDTX4J3,5.0,images/choice_trial_14.png,images/choice_trial_9.png,images/pattern_6.png,j,f,750.0,14.0,9.0,5.0,0.0,35.0,1.0,0.0,14.0,150.0,,,,,,5eb16c316e577a06b326d39c,16:28:53,27/03/2024
html-keyboard-response,195,400331,0.0-81.0-1.0,,"<div style=""display: flex; flex-direction: column; align-items: center; margin-top: -40px;""><img src=""images/pattern_6.png"" style=""width: 234px; height: 230px; margin-top: -50px;""><div style=""display: flex; justify-content: space-between; margin-top: 33px;""><img src=""images/choice_trial_14.png"" style=""width: 408px; height: 417px; margin-right: 608px;""></div></div>",,delaylearn,learning,display_response,OUDTh4JYCVPT0h8Eao3KXvDTX4J3,OUDTh4JYCVPT0h8Eao3KXvDTX4J3,,,,,,,,,,,,,,,,,chosen stimuli: images/choice_trial_14.png,,,,,5eb16c316e577a06b326d39c,16:28:53,27/03/2024
html-keyboard-response,196,401095,0.0-81.0-2.0,,,,delaylearn,learning,feedback_duration_window,OUDTh4JYCVPT0h8Eao3KXvDTX4J3,OUDTh4JYCVPT0h8Eao3KXvDTX4J3,,,,,,,,,,,,,,,,,,750.0,,,,5eb16c316e577a06b326d39c,16:28:53,27/03/2024
html-keyboard-response,197,402614,0.0-81.0-3.0,,<div style='margin:auto;width: auto; font-size: 150%'><span style='font-weight: bold; font-size: 100px; color: red;'>0 points!</span><br><br></div>,,delaylearn,learning,feedback_image_window,OUDTh4JYCVPT0h8Eao3KXvDTX4J3,OUDTh4JYCVPT0h8Eao3KXvDTX4J3,,,,,,,,,,,,,,,,,,,,,,5eb16c316e577a06b326d39c,16:28:53,27/03/2024
html-keyboard-response,198,404434,0.0-82.0,,"<div style=""font-size:100px;"">+</div>",,delaylearn,learning,ITI,OUDTh4JYCVPT0h8Eao3KXvDTX4J3,OUDTh4JYCVPT0h8Eao3KXvDTX4J3,,,,,,,,,,,,,,,,,,,1803.0,,,5eb16c316e577a06b326d39c,16:28:53,27/03/2024
html-keyboard-response,199,406162,0.0-83.0-0.0,1727.2000000476837,"<div style=""display: flex; flex-direction: column; align-items: center; margin-top: -40px;""><img src=""images/pattern_3.png"" style=""width: 234px; height: 230px; margin-top: -50px;""><div style=""display: flex; justify-content: space-between; margin-top: 33px;""><img src=""images/choice_trial_2.png"" style=""width: 408px; height: 417px; margin-right: 200px;""><img src=""images/choice_trial_16.png"" style=""width: 408px; height: 417px;""></div></div>",j,delaylearn,learning,trial,OUDTh4JYCVPT0h8Eao3KXvDTX4J3,OUDTh4JYCVPT0h8Eao3KXvDTX4J3,5.0,images/choice_trial_2.png,images/choice_trial_16.png,images/pattern_3.png,j,j,7000.0,2.0,16.0,2.0,1.0,36.0,1.0,1.0,16.0,160.0,,,,,,5eb16c316e577a06b326d39c,16:28:53,27/03/2024
html-keyboard-response,200,407178,0.0-83.0-1.0,,"<div style=""display: flex; flex-direction: column; align-items: center; margin-top: -40px;""><img src=""images/pattern_3.png"" style=""width: 234px; height: 230px; margin-top: -50px;""><div style=""display: flex; justify-content: space-between; margin-top: 33px;""><img src=""images/choice_trial_16.png"" style=""width: 408px; height: 417px; margin-left:608px;""></div></div>",,delaylearn,learning,display_response,OUDTh4JYCVPT0h8Eao3KXvDTX4J3,OUDTh4JYCVPT0h8Eao3KXvDTX4J3,,,,,,,,,,,,,,,,,chosen stimuli: images/choice_trial_16.png,,,,,5eb16c316e577a06b326d39c,16:28:53,27/03/2024
html-keyboard-response,201,414184,0.0-83.0-2.0,,,,delaylearn,learning,feedback_duration_window,OUDTh4JYCVPT0h8Eao3KXvDTX4J3,OUDTh4JYCVPT0h8Eao3KXvDTX4J3,,,,,,,,,,,,,,,,,,7000.0,,,,5eb16c316e577a06b326d39c,16:28:53,27/03/2024
html-keyboard-response,202,415693,0.0-83.0-3.0,,<div style='margin:auto;width: auto; font-size: 150%'><span style='font-weight: bold; font-size: 100px; color: green;'>+10 points!</span><br><br></div>,,delaylearn,learning,feedback_image_window,OUDTh4JYCVPT0h8Eao3KXvDTX4J3,OUDTh4JYCVPT0h8Eao3KXvDTX4J3,,,,,,,,,,,,,,,,,,,,,,5eb16c316e577a06b326d39c,16:28:53,27/03/2024
html-keyboard-response,203,417547,0.0-84.0,,"<div style=""font-size:100px;"">+</div>",,delaylearn,learning,ITI,OUDTh4JYCVPT0h8Eao3KXvDTX4J3,OUDTh4JYCVPT0h8Eao3KXvDTX4J3,,,,,,,,,,,,,,,,,,,1838.0,,,5eb16c316e577a06b326d39c,16:28:53,27/03/2024
html-keyboard-response,204,418263,0.0-85.0-0.0,714.8999999761581,"<div style=""display: flex; flex-direction: column; align-items: center; margin-top: -40px;""><img src=""images/pattern_4.png"" style=""width: 234px; height: 230px; margin-top: -50px;""><div style=""display: flex; justify-content: space-between; margin-top: 33px;""><img src=""images/choice_trial_4.png"" style=""width: 408px; height: 417px; margin-right: 200px;""><img src=""images/choice_trial_11.png"" style=""width: 408px; height: 417px;""></div></div>",j,delaylearn,learning,trial,OUDTh4JYCVPT0h8Eao3KXvDTX4J3,OUDTh4JYCVPT0h8Eao3KXvDTX4J3,5.0,images/choice_trial_4.png,images/choice_trial_11.png,images/pattern_4.png,f,j,7000.0,4.0,11.0,3.0,1.0,37.0,1.0,0.0,11.0,160.0,,,,,,5eb16c316e577a06b326d39c,16:28:53,27/03/2024
html-keyboard-response,205,419274,0.0-85.0-1.0,,"<div style=""display: flex; flex-direction: column; align-items: center; margin-top: -40px;""><img src=""images/pattern_4.png"" style=""width: 234px; height: 230px; margin-top: -50px;""><div style=""display: flex; justify-content: space-between; margin-top: 33px;""><img src=""images/choice_trial_11.png"" style=""width: 408px; height: 417px; margin-left:608px;""></div></div>",,delaylearn,learning,display_response,OUDTh4JYCVPT0h8Eao3KXvDTX4J3,OUDTh4JYCVPT0h8Eao3KXvDTX4J3,,,,,,,,,,,,,,,,,chosen stimuli: images/choice_trial_11.png,,,,,5eb16c316e577a06b326d39c,16:28:53,27/03/2024
html-keyboard-response,206,426280,0.0-85.0-2.0,,,,delaylearn,learning,feedback_duration_window,OUDTh4JYCVPT0h8Eao3KXvDTX4J3,OUDTh4JYCVPT0h8Eao3KXvDTX4J3,,,,,,,,,,,,,,,,,,7000.0,,,,5eb16c316e577a06b326d39c,16:28:53,27/03/2024
html-keyboard-response,207,427781,0.0-85.0-3.0,,<div style='margin:auto;width: auto; font-size: 150%'><span style='font-weight: bold; font-size: 100px; color: red;'>0 points!</span><br><br></div>,,delaylearn,learning,feedback_image_window,OUDTh4JYCVPT0h8Eao3KXvDTX4J3,OUDTh4JYCVPT0h8Eao3KXvDTX4J3,,,,,,,,,,,,,,,,,,,,,,5eb16c316e577a06b326d39c,16:28:53,27/03/2024
html-keyboard-response,208,430238,0.0-86.0,,"<div style=""font-size:100px;"">+</div>",,delaylearn,learning,ITI,OUDTh4JYCVPT0h8Eao3KXvDTX4J3,OUDTh4JYCVPT0h8Eao3KXvDTX4J3,,,,,,,,,,,,,,,,,,,2448.0,,,5eb16c316e577a06b326d39c,16:28:53,27/03/2024
html-keyboard-response,209,431505,0.0-87.0-0.0,1265.300000011921,"<div style=""display: flex; flex-direction: column; align-items: center; margin-top: -40px;""><img src=""images/pattern_7.png"" style=""width: 234px; height: 230px; margin-top: -50px;""><div style=""display: flex; justify-content: space-between; margin-top: 33px;""><img src=""images/choice_trial_8.png"" style=""width: 408px; height: 417px; margin-right: 200px;""><img src=""images/choice_trial_10.png"" style=""width: 408px; height: 417px;""></div></div>",f,delaylearn,learning,trial,OUDTh4JYCVPT0h8Eao3KXvDTX4J3,OUDTh4JYCVPT0h8Eao3KXvDTX4J3,5.0,images/choice_trial_8.png,images/choice_trial_10.png,images/pattern_7.png,f,f,750.0,8.0,10.0,6.0,0.0,38.0,1.0,1.0,8.0,170.0,,,,,,5eb16c316e577a06b326d39c,16:28:53,27/03/2024
html-keyboard-response,210,432516,0.0-87.0-1.0,,"<div style=""display: flex; flex-direction: column; align-items: center; margin-top: -40px;""><img src=""images/pattern_7.png"" style=""width: 234px; height: 230px; margin-top: -50px;""><div style=""display: flex; justify-content: space-between; margin-top: 33px;""><img src=""images/choice_trial_8.png"" style=""width: 408px; height: 417px; margin-right: 608px;""></div></div>",,delaylearn,learning,display_response,OUDTh4JYCVPT0h8Eao3KXvDTX4J3,OUDTh4JYCVPT0h8Eao3KXvDTX4J3,,,,,,,,,,,,,,,,,chosen stimuli: images/choice_trial_8.png,,,,,5eb16c316e577a06b326d39c,16:28:53,27/03/2024
html-keyboard-response,211,433274,0.0-87.0-2.0,,,,delaylearn,learning,feedback_duration_window,OUDTh4JYCVPT0h8Eao3KXvDTX4J3,OUDTh4JYCVPT0h8Eao3KXvDTX4J3,,,,,,,,,,,,,,,,,,750.0,,,,5eb16c316e577a06b326d39c,16:28:53,27/03/2024
html-keyboard-response,212,434784,0.0-87.0-3.0,,<div style='margin:auto;width: auto; font-size: 150%'><span style='font-weight: bold; font-size: 100px; color: green;'>+10 points!</span><br><br></div>,,delaylearn,learning,feedback_image_window,OUDTh4JYCVPT0h8Eao3KXvDTX4J3,OUDTh4JYCVPT0h8Eao3KXvDTX4J3,,,,,,,,,,,,,,,,,,,,,,5eb16c316e577a06b326d39c,16:28:53,27/03/2024
html-keyboard-response,213,436641,0.0-88.0,,"<div style=""font-size:100px;"">+</div>",,delaylearn,learning,ITI,OUDTh4JYCVPT0h8Eao3KXvDTX4J3,OUDTh4JYCVPT0h8Eao3KXvDTX4J3,,,,,,,,,,,,,,,,,,,1840.0,,,5eb16c316e577a06b326d39c,16:28:53,27/03/2024
html-keyboard-response,214,437908,0.0-89.0-0.0,1265.5,"<div style=""display: flex; flex-direction: column; align-items: center; margin-top: -40px;""><img src=""images/pattern_1.png"" style=""width: 234px; height: 230px; margin-top: -50px;""><div style=""display: flex; justify-content: space-between; margin-top: 33px;""><img src=""images/choice_trial_6.png"" style=""width: 408px; height: 417px; margin-right: 200px;""><img src=""images/choice_trial_15.png"" style=""width: 408px; height: 417px;""></div></div>",j,delaylearn,learning,trial,OUDTh4JYCVPT0h8Eao3KXvDTX4J3,OUDTh4JYCVPT0h8Eao3KXvDTX4J3,5.0,images/choice_trial_6.png,images/choice_trial_15.png,images/pattern_1.png,f,f,7000.0,6.0,15.0,1.0,0.0,39.0,0.0,0.0,15.0,170.0,,,,,,5eb16c316e577a06b326d39c,16:28:53,27/03/2024
html-keyboard-response,215,438923,0.0-89.0-1.0,,"<div style=""display: flex; flex-direction: column; align-items: center; margin-top: -40px;""><img src=""images/pattern_1.png"" style=""width: 234px; height: 230px; margin-top: -50px;""><div style=""display: flex; justify-content: space-between; margin-top: 33px;""><img src=""images/choice_trial_15.png"" style=""width: 408px; height: 417px; margin-left:608px;""></div></div>",,delaylearn,learning,display_response,OUDTh4JYCVPT0h8Eao3KXvDTX4J3,OUDTh4JYCVPT0h8Eao3KXvDTX4J3,,,,,,,,,,,,,,,,,chosen stimuli: images/choice_trial_15.png,,,,,5eb16c316e577a06b326d39c,16:28:53,27/03/2024
html-keyboard-response,216,445930,0.0-89.0-2.0,,,,delaylearn,learning,feedback_duration_window,OUDTh4JYCVPT0h8Eao3KXvDTX4J3,OUDTh4JYCVPT0h8Eao3KXvDTX4J3,,,,,,,,,,,,,,,,,,7000.0,,,,5eb16c316e577a06b326d39c,16:28:53,27/03/2024
html-keyboard-response,217,447440,0.0-89.0-3.0,,<div style='margin:auto;width: auto; font-size: 150%'><span style='font-weight: bold; font-size: 100px; color: red;'>0 points!</span><br><br></div>,,delaylearn,learning,feedback_image_window,OUDTh4JYCVPT0h8Eao3KXvDTX4J3,OUDTh4JYCVPT0h8Eao3KXvDTX4J3,,,,,,,,,,,,,,,,,,,,,,5eb16c316e577a06b326d39c,16:28:53,27/03/2024
html-keyboard-response,218,447953,0.0-90.0-0.0,,,,,,mood_trial_fixation,OUDTh4JYCVPT0h8Eao3KXvDTX4J3,,,,,,,,,,,,,,,,,,,,,,,5eb16c316e577a06b326d39c,16:28:53,27/03/2024
lmdlab-html-vas-response,219,452644,0.0-90.0-1.0,3677.0,How happy are you right now?,0.0012286077455891861,delaylearn,learning,mood_trial,OUDTh4JYCVPT0h8Eao3KXvDTX4J3,OUDTh4JYCVPT0h8Eao3KXvDTX4J3,,,,,,,,,,,,,,,,,,,,"['Very unhappy', 'Very happy']",,5eb16c316e577a06b326d39c,16:28:53,27/03/2024
html-keyboard-response,220,454922,0.0-91.0,,"<div style=""font-size:100px;"">+</div>",,delaylearn,learning,ITI,OUDTh4JYCVPT0h8Eao3KXvDTX4J3,OUDTh4JYCVPT0h8Eao3KXvDTX4J3,,,,,,,,,,,,,,,,,,,2271.0,,,5eb16c316e577a06b326d39c,16:28:53,27/03/2024
html-keyboard-response,221,456007,0.0-92.0-0.0,1084.199999988079,"<div style=""display: flex; flex-direction: column; align-items: center; margin-top: -40px;""><img src=""images/pattern_3.png"" style=""width: 234px; height: 230px; margin-top: -50px;""><div style=""display: flex; justify-content: space-between; margin-top: 33px;""><img src=""images/choice_trial_16.png"" style=""width: 408px; height: 417px; margin-right: 200px;""><img src=""images/choice_trial_2.png"" style=""width: 408px; height: 417px;""></div></div>",f,delaylearn,learning,trial,OUDTh4JYCVPT0h8Eao3KXvDTX4J3,OUDTh4JYCVPT0h8Eao3KXvDTX4J3,5.0,images/choice_trial_16.png,images/choice_trial_2.png,images/pattern_3.png,j,f,7000.0,16.0,2.0,2.0,0.0,40.0,1.0,0.0,16.0,170.0,,,,,,5eb16c316e577a06b326d39c,16:28:53,27/03/2024
html-keyboard-response,222,457023,0.0-92.0-1.0,,"<div style=""display: flex; flex-direction: column; align-items: center; margin-top: -40px;""><img src=""images/pattern_3.png"" style=""width: 234px; height: 230px; margin-top: -50px;""><div style=""display: flex; justify-content: space-between; margin-top: 33px;""><img src=""images/choice_trial_16.png"" style=""width: 408px; height: 417px; margin-right: 608px;""></div></div>",,delaylearn,learning,display_response,OUDTh4JYCVPT0h8Eao3KXvDTX4J3,OUDTh4JYCVPT0h8Eao3KXvDTX4J3,,,,,,,,,,,,,,,,,chosen stimuli: images/choice_trial_16.png,,,,,5eb16c316e577a06b326d39c,16:28:53,27/03/2024
html-keyboard-response,223,464030,0.0-92.0-2.0,,,,delaylearn,learning,feedback_duration_window,OUDTh4JYCVPT0h8Eao3KXvDTX4J3,OUDTh4JYCVPT0h8Eao3KXvDTX4J3,,,,,,,,,,,,,,,,,,7000.0,,,,5eb16c316e577a06b326d39c,16:28:53,27/03/2024
html-keyboard-response,224,465548,0.0-92.0-3.0,,<div style='margin:auto;width: auto; font-size: 150%'><span style='font-weight: bold; font-size: 100px; color: red;'>0 points!</span><br><br></div>,,delaylearn,learning,feedback_image_window,OUDTh4JYCVPT0h8Eao3KXvDTX4J3,OUDTh4JYCVPT0h8Eao3KXvDTX4J3,,,,,,,,,,,,,,,,,,,,,,5eb16c316e577a06b326d39c,16:28:53,27/03/2024
html-keyboard-response,225,468010,0.0-93.0,,"<div style=""font-size:100px;"">+</div>",,delaylearn,learning,ITI,OUDTh4JYCVPT0h8Eao3KXvDTX4J3,OUDTh4JYCVPT0h8Eao3KXvDTX4J3,,,,,,,,,,,,,,,,,,,2444.0,,,5eb16c316e577a06b326d39c,16:28:53,27/03/2024
html-keyboard-response,226,469530,0.0-94.0-0.0,1518.800000011921,"<div style=""display: flex; flex-direction: column; align-items: center; margin-top: -40px;""><img src=""images/pattern_7.png"" style=""width: 234px; height: 230px; margin-top: -50px;""><div style=""display: flex; justify-content: space-between; margin-top: 33px;""><img src=""images/choice_trial_10.png"" style=""width: 408px; height: 417px; margin-right: 200px;""><img src=""images/choice_trial_8.png"" style=""width: 408px; height: 417px;""></div></div>",j,delaylearn,learning,trial,OUDTh4JYCVPT0h8Eao3KXvDTX4J3,OUDTh4JYCVPT0h8Eao3KXvDTX4J3,5.0,images/choice_trial_10.png,images/choice_trial_8.png,images/pattern_7.png,j,j,750.0,10.0,8.0,6.0,1.0,41.0,1.0,1.0,8.0,180.0,,,,,,5eb16c316e577a06b326d39c,16:28:53,27/03/2024
html-keyboard-response,227,470547,0.0-94.0-1.0,,"<div style=""display: flex; flex-direction: column; align-items: center; margin-top: -40px;""><img src=""images/pattern_7.png"" style=""width: 234px; height: 230px; margin-top: -50px;""><div style=""display: flex; justify-content: space-between; margin-top: 33px;""><img src=""images/choice_trial_8.png"" style=""width: 408px; height: 417px; margin-left:608px;""></div></div>",,delaylearn,learning,display_response,OUDTh4JYCVPT0h8Eao3KXvDTX4J3,OUDTh4JYCVPT0h8Eao3KXvDTX4J3,,,,,,,,,,,,,,,,,chosen stimuli: images/choice_trial_8.png,,,,,5eb16c316e577a06b326d39c,16:28:53,27/03/2024
html-keyboard-response,228,471311,0.0-94.0-2.0,,,,delaylearn,learning,feedback_duration_window,OUDTh4JYCVPT0h8Eao3KXvDTX4J3,OUDTh4JYCVPT0h8Eao3KXvDTX4J3,,,,,,,,,,,,,,,,,,750.0,,,,5eb16c316e577a06b326d39c,16:28:53,27/03/2024
html-keyboard-response,229,472818,0.0-94.0-3.0,,<div style='margin:auto;width: auto; font-size: 150%'><span style='font-weight: bold; font-size: 100px; color: green;'>+10 points!</span><br><br></div>,,delaylearn,learning,feedback_image_window,OUDTh4JYCVPT0h8Eao3KXvDTX4J3,OUDTh4JYCVPT0h8Eao3KXvDTX4J3,,,,,,,,,,,,,,,,,,,,,,5eb16c316e577a06b326d39c,16:28:53,27/03/2024
html-keyboard-response,230,475016,0.0-95.0,,"<div style=""font-size:100px;"">+</div>",,delaylearn,learning,ITI,OUDTh4JYCVPT0h8Eao3KXvDTX4J3,OUDTh4JYCVPT0h8Eao3KXvDTX4J3,,,,,,,,,,,,,,,,,,,2185.0,,,5eb16c316e577a06b326d39c,16:28:53,27/03/2024
html-keyboard-response,231,476170,0.0-96.0-0.0,1152.699999988079,"<div style=""display: flex; flex-direction: column; align-items: center; margin-top: -40px;""><img src=""images/pattern_5.png"" style=""width: 234px; height: 230px; margin-top: -50px;""><div style=""display: flex; justify-content: space-between; margin-top: 33px;""><img src=""images/choice_trial_13.png"" style=""width: 408px; height: 417px; margin-right: 200px;""><img src=""images/choice_trial_7.png"" style=""width: 408px; height: 417px;""></div></div>",f,delaylearn,learning,trial,OUDTh4JYCVPT0h8Eao3KXvDTX4J3,OUDTh4JYCVPT0h8Eao3KXvDTX4J3,5.0,images/choice_trial_13.png,images/choice_trial_7.png,images/pattern_5.png,j,j,750.0,13.0,7.0,4.0,1.0,42.0,0.0,0.0,13.0,180.0,,,,,,5eb16c316e577a06b326d39c,16:28:53,27/03/2024
html-keyboard-response,232,477188,0.0-96.0-1.0,,"<div style=""display: flex; flex-direction: column; align-items: center; margin-top: -40px;""><img src=""images/pattern_5.png"" style=""width: 234px; height: 230px; margin-top: -50px;""><div style=""display: flex; justify-content: space-between; margin-top: 33px;""><img src=""images/choice_trial_13.png"" style=""width: 408px; height: 417px; margin-right: 608px;""></div></div>",,delaylearn,learning,display_response,OUDTh4JYCVPT0h8Eao3KXvDTX4J3,OUDTh4JYCVPT0h8Eao3KXvDTX4J3,,,,,,,,,,,,,,,,,chosen stimuli: images/choice_trial_13.png,,,,,5eb16c316e577a06b326d39c,16:28:53,27/03/2024
