trial_type,trial_index,time_elapsed,internal_node_id,rt,stimulus,response,exp_name,exp_stage,test_part,subjectID,databaseID,counterbal,choice_stimuli_1,choice_stimuli_2,pattern_stimuli,rewarded_answer,correct_answer,feedback_duration_times,stim_left,stim_right,pair,leftright_counter,trial,response_correct,response_rewarded,chosen_stim,counter,displayed_choice,feedback_durations,ITI_duration,labels,rest_warning,prolificID,start_time,date
pavlovia,0,545,0.0-0.0,,,,,,,KbzxN7yzfQbKCQk8OWzk3HKy0fv1,,,,,,,,,,,,,,,,,,,,,,,62c5d0cfdf443d24e054d302,09:11:07,27/02/2024
html-keyboard-response,1,3548,0.0-1.0,,"<div style=""font-size:100px;"">+</div>",,delaylearn,learning,pre_fixation,KbzxN7yzfQbKCQk8OWzk3HKy0fv1,,,,,,,,,,,,,,,,,,,,,,,62c5d0cfdf443d24e054d302,09:11:07,27/02/2024
html-keyboard-response,2,4988,0.0-2.0-0.0,1436.7000000476837,"<div style=""display: flex; flex-direction: column; align-items: center; margin-top: -40px;""><img src=""images/demo_images/pattern_1.png"" style=""width: 234px; height: 230px; margin-top: -50px;""><div style=""display: flex; justify-content: space-between; margin-top: 33px;""><img src=""images/demo_images/choice_trial_2.png"" style=""width: 408px; height: 417px; margin-right: 200px;""><img src=""images/demo_images/choice_trial_1.png"" style=""width: 408px; height: 417px;""></div></div>",j,delaylearn,learning,trial,KbzxN7yzfQbKCQk8OWzk3HKy0fv1,KbzxN7yzfQbKCQk8OWzk3HKy0fv1,1.0,images/demo_images/choice_trial_2.png,images/demo_images/choice_trial_1.png,images/demo_images/pattern_1.png,j,j,3000.0,2.0,1.0,20.0,1.0,1.0,1.0,1.0,1.0,10.0,,,,,,62c5d0cfdf443d24e054d302,09:11:07,27/02/2024
html-keyboard-response,3,5996,0.0-2.0-1.0,,"<div style=""display: flex; flex-direction: column; align-items: center; margin-top: -40px;""><img src=""images/demo_images/pattern_1.png"" style=""width: 234px; height: 230px; margin-top: -50px;""><div style=""display: flex; justify-content: space-between; margin-top: 33px;""><img src=""images/demo_images/choice_trial_1.png"" style=""width: 408px; height: 417px; margin-left:608px;""></div></div>",,delaylearn,learning,display_response,KbzxN7yzfQbKCQk8OWzk3HKy0fv1,KbzxN7yzfQbKCQk8OWzk3HKy0fv1,,,,,,,,,,,,,,,,,chosen stimuli: images/demo_images/choice_trial_1.png,,,,,62c5d0cfdf443d24e054d302,09:11:07,27/02/2024
html-keyboard-response,4,9000,0.0-2.0-2.0,,,,delaylearn,learning,feedback_duration_window,KbzxN7yzfQbKCQk8OWzk3HKy0fv1,KbzxN7yzfQbKCQk8OWzk3HKy0fv1,,,,,,,,,,,,,,,,,,3000.0,,,,62c5d0cfdf443d24e054d302,09:11:07,27/02/2024
html-keyboard-response,5,10503,0.0-2.0-3.0,,<div style='margin:auto;width: auto; font-size: 150%'><span style='font-weight: bold; font-size: 100px; color: green;'>+10 points!</span><br><br></div>,,delaylearn,learning,feedback_image_window,KbzxN7yzfQbKCQk8OWzk3HKy0fv1,KbzxN7yzfQbKCQk8OWzk3HKy0fv1,,,,,,,,,,,,,,,,,,,,,,62c5d0cfdf443d24e054d302,09:11:07,27/02/2024
html-keyboard-response,6,12937,0.0-3.0,,"<div style=""font-size:100px;"">+</div>",,delaylearn,learning,ITI,KbzxN7yzfQbKCQk8OWzk3HKy0fv1,KbzxN7yzfQbKCQk8OWzk3HKy0fv1,,,,,,,,,,,,,,,,,,,2428.0,,,62c5d0cfdf443d24e054d302,09:11:07,27/02/2024
html-keyboard-response,7,14241,0.0-4.0-0.0,1300.3000001907349,"<div style=""display: flex; flex-direction: column; align-items: center; margin-top: -40px;""><img src=""images/demo_images/pattern_1.png"" style=""width: 234px; height: 230px; margin-top: -50px;""><div style=""display: flex; justify-content: space-between; margin-top: 33px;""><img src=""images/demo_images/choice_trial_2.png"" style=""width: 408px; height: 417px; margin-right: 200px;""><img src=""images/demo_images/choice_trial_1.png"" style=""width: 408px; height: 417px;""></div></div>",j,delaylearn,learning,trial,KbzxN7yzfQbKCQk8OWzk3HKy0fv1,KbzxN7yzfQbKCQk8OWzk3HKy0fv1,1.0,images/demo_images/choice_trial_2.png,images/demo_images/choice_trial_1.png,images/demo_images/pattern_1.png,j,j,3000.0,2.0,1.0,20.0,1.0,2.0,1.0,1.0,1.0,20.0,,,,,,62c5d0cfdf443d24e054d302,09:11:07,27/02/2024
html-keyboard-response,8,15256,0.0-4.0-1.0,,"<div style=""display: flex; flex-direction: column; align-items: center; margin-top: -40px;""><img src=""images/demo_images/pattern_1.png"" style=""width: 234px; height: 230px; margin-top: -50px;""><div style=""display: flex; justify-content: space-between; margin-top: 33px;""><img src=""images/demo_images/choice_trial_1.png"" style=""width: 408px; height: 417px; margin-left:608px;""></div></div>",,delaylearn,learning,display_response,KbzxN7yzfQbKCQk8OWzk3HKy0fv1,KbzxN7yzfQbKCQk8OWzk3HKy0fv1,,,,,,,,,,,,,,,,,chosen stimuli: images/demo_images/choice_trial_1.png,,,,,62c5d0cfdf443d24e054d302,09:11:07,27/02/2024
html-keyboard-response,9,18263,0.0-4.0-2.0,,,,delaylearn,learning,feedback_duration_window,KbzxN7yzfQbKCQk8OWzk3HKy0fv1,KbzxN7yzfQbKCQk8OWzk3HKy0fv1,,,,,,,,,,,,,,,,,,3000.0,,,,62c5d0cfdf443d24e054d302,09:11:07,27/02/2024
html-keyboard-response,10,19779,0.0-4.0-3.0,,<div style='margin:auto;width: auto; font-size: 150%'><span style='font-weight: bold; font-size: 100px; color: green;'>+10 points!</span><br><br></div>,,delaylearn,learning,feedback_image_window,KbzxN7yzfQbKCQk8OWzk3HKy0fv1,KbzxN7yzfQbKCQk8OWzk3HKy0fv1,,,,,,,,,,,,,,,,,,,,,,62c5d0cfdf443d24e054d302,09:11:07,27/02/2024
html-keyboard-response,11,21897,0.0-5.0,,"<div style=""font-size:100px;"">+</div>",,delaylearn,learning,ITI,KbzxN7yzfQbKCQk8OWzk3HKy0fv1,KbzxN7yzfQbKCQk8OWzk3HKy0fv1,,,,,,,,,,,,,,,,,,,2104.0,,,62c5d0cfdf443d24e054d302,09:11:07,27/02/2024
html-keyboard-response,12,23683,0.0-6.0-0.0,1783.5,"<div style=""display: flex; flex-direction: column; align-items: center; margin-top: -40px;""><img src=""images/demo_images/pattern_1.png"" style=""width: 234px; height: 230px; margin-top: -50px;""><div style=""display: flex; justify-content: space-between; margin-top: 33px;""><img src=""images/demo_images/choice_trial_1.png"" style=""width: 408px; height: 417px; margin-right: 200px;""><img src=""images/demo_images/choice_trial_2.png"" style=""width: 408px; height: 417px;""></div></div>",f,delaylearn,learning,trial,KbzxN7yzfQbKCQk8OWzk3HKy0fv1,KbzxN7yzfQbKCQk8OWzk3HKy0fv1,1.0,images/demo_images/choice_trial_1.png,images/demo_images/choice_trial_2.png,images/demo_images/pattern_1.png,j,f,3000.0,1.0,2.0,20.0,0.0,3.0,1.0,0.0,1.0,20.0,,,,,,62c5d0cfdf443d24e054d302,09:11:07,27/02/2024
html-keyboard-response,13,24701,0.0-6.0-1.0,,"<div style=""display: flex; flex-direction: column; align-items: center; margin-top: -40px;""><img src=""images/demo_images/pattern_1.png"" style=""width: 234px; height: 230px; margin-top: -50px;""><div style=""display: flex; justify-content: space-between; margin-top: 33px;""><img src=""images/demo_images/choice_trial_1.png"" style=""width: 408px; height: 417px; margin-right: 608px;""></div></div>",,delaylearn,learning,display_response,KbzxN7yzfQbKCQk8OWzk3HKy0fv1,KbzxN7yzfQbKCQk8OWzk3HKy0fv1,,,,,,,,,,,,,,,,,chosen stimuli: images/demo_images/choice_trial_1.png,,,,,62c5d0cfdf443d24e054d302,09:11:07,27/02/2024
html-keyboard-response,14,27705,0.0-6.0-2.0,,,,delaylearn,learning,feedback_duration_window,KbzxN7yzfQbKCQk8OWzk3HKy0fv1,KbzxN7yzfQbKCQk8OWzk3HKy0fv1,,,,,,,,,,,,,,,,,,3000.0,,,,62c5d0cfdf443d24e054d302,09:11:07,27/02/2024
html-keyboard-response,15,29222,0.0-6.0-3.0,,<div style='margin:auto;width: auto; font-size: 150%'><span style='font-weight: bold; font-size: 100px; color: red;'>0 points!</span><br><br></div>,,delaylearn,learning,feedback_image_window,KbzxN7yzfQbKCQk8OWzk3HKy0fv1,KbzxN7yzfQbKCQk8OWzk3HKy0fv1,,,,,,,,,,,,,,,,,,,,,,62c5d0cfdf443d24e054d302,09:11:07,27/02/2024
html-keyboard-response,16,30852,0.0-7.0,,"<div style=""font-size:100px;"">+</div>",,delaylearn,learning,ITI,KbzxN7yzfQbKCQk8OWzk3HKy0fv1,KbzxN7yzfQbKCQk8OWzk3HKy0fv1,,,,,,,,,,,,,,,,,,,1617.0,,,62c5d0cfdf443d24e054d302,09:11:07,27/02/2024
html-keyboard-response,17,33165,0.0-8.0-0.0,2310.199999809265,"<div style=""display: flex; flex-direction: column; align-items: center; margin-top: -40px;""><img src=""images/demo_images/pattern_1.png"" style=""width: 234px; height: 230px; margin-top: -50px;""><div style=""display: flex; justify-content: space-between; margin-top: 33px;""><img src=""images/demo_images/choice_trial_1.png"" style=""width: 408px; height: 417px; margin-right: 200px;""><img src=""images/demo_images/choice_trial_2.png"" style=""width: 408px; height: 417px;""></div></div>",j,delaylearn,learning,trial,KbzxN7yzfQbKCQk8OWzk3HKy0fv1,KbzxN7yzfQbKCQk8OWzk3HKy0fv1,1.0,images/demo_images/choice_trial_1.png,images/demo_images/choice_trial_2.png,images/demo_images/pattern_1.png,f,f,3000.0,1.0,2.0,20.0,0.0,4.0,0.0,0.0,2.0,20.0,,,,,,62c5d0cfdf443d24e054d302,09:11:07,27/02/2024
html-keyboard-response,18,34170,0.0-8.0-1.0,,"<div style=""display: flex; flex-direction: column; align-items: center; margin-top: -40px;""><img src=""images/demo_images/pattern_1.png"" style=""width: 234px; height: 230px; margin-top: -50px;""><div style=""display: flex; justify-content: space-between; margin-top: 33px;""><img src=""images/demo_images/choice_trial_2.png"" style=""width: 408px; height: 417px; margin-left:608px;""></div></div>",,delaylearn,learning,display_response,KbzxN7yzfQbKCQk8OWzk3HKy0fv1,KbzxN7yzfQbKCQk8OWzk3HKy0fv1,,,,,,,,,,,,,,,,,chosen stimuli: images/demo_images/choice_trial_2.png,,,,,62c5d0cfdf443d24e054d302,09:11:07,27/02/2024
html-keyboard-response,19,37173,0.0-8.0-2.0,,,,delaylearn,learning,feedback_duration_window,KbzxN7yzfQbKCQk8OWzk3HKy0fv1,KbzxN7yzfQbKCQk8OWzk3HKy0fv1,,,,,,,,,,,,,,,,,,3000.0,,,,62c5d0cfdf443d24e054d302,09:11:07,27/02/2024
html-keyboard-response,20,38681,0.0-8.0-3.0,,<div style='margin:auto;width: auto; font-size: 150%'><span style='font-weight: bold; font-size: 100px; color: red;'>0 points!</span><br><br></div>,,delaylearn,learning,feedback_image_window,KbzxN7yzfQbKCQk8OWzk3HKy0fv1,KbzxN7yzfQbKCQk8OWzk3HKy0fv1,,,,,,,,,,,,,,,,,,,,,,62c5d0cfdf443d24e054d302,09:11:07,27/02/2024
html-keyboard-response,21,39183,0.0-9.0-0.0,,,,,,mood_trial_fixation,KbzxN7yzfQbKCQk8OWzk3HKy0fv1,,,,,,,,,,,,,,,,,,,,,,,62c5d0cfdf443d24e054d302,09:11:07,27/02/2024
lmdlab-html-vas-response,22,44880,0.0-9.0-1.0,4663.0,How happy are you right now?,0.4976851851851852,delaylearn,learning,mood_trial,KbzxN7yzfQbKCQk8OWzk3HKy0fv1,KbzxN7yzfQbKCQk8OWzk3HKy0fv1,,,,,,,,,,,,,,,,,,,,"['Very unhappy', 'Very happy']",,62c5d0cfdf443d24e054d302,09:11:07,27/02/2024
html-keyboard-response,23,46555,0.0-10.0,,"<div style=""font-size:100px;"">+</div>",,delaylearn,learning,ITI,KbzxN7yzfQbKCQk8OWzk3HKy0fv1,KbzxN7yzfQbKCQk8OWzk3HKy0fv1,,,,,,,,,,,,,,,,,,,1671.0,,,62c5d0cfdf443d24e054d302,09:11:07,27/02/2024
html-keyboard-response,24,48486,0.0-11.0-0.0,1928.0,"<div style=""display: flex; flex-direction: column; align-items: center; margin-top: -40px;""><img src=""images/demo_images/pattern_1.png"" style=""width: 234px; height: 230px; margin-top: -50px;""><div style=""display: flex; justify-content: space-between; margin-top: 33px;""><img src=""images/demo_images/choice_trial_2.png"" style=""width: 408px; height: 417px; margin-right: 200px;""><img src=""images/demo_images/choice_trial_1.png"" style=""width: 408px; height: 417px;""></div></div>",j,delaylearn,learning,trial,KbzxN7yzfQbKCQk8OWzk3HKy0fv1,KbzxN7yzfQbKCQk8OWzk3HKy0fv1,1.0,images/demo_images/choice_trial_2.png,images/demo_images/choice_trial_1.png,images/demo_images/pattern_1.png,j,j,3000.0,2.0,1.0,20.0,1.0,5.0,1.0,1.0,1.0,30.0,,,,,,62c5d0cfdf443d24e054d302,09:11:07,27/02/2024
html-keyboard-response,25,49490,0.0-11.0-1.0,,"<div style=""display: flex; flex-direction: column; align-items: center; margin-top: -40px;""><img src=""images/demo_images/pattern_1.png"" style=""width: 234px; height: 230px; margin-top: -50px;""><div style=""display: flex; justify-content: space-between; margin-top: 33px;""><img src=""images/demo_images/choice_trial_1.png"" style=""width: 408px; height: 417px; margin-left:608px;""></div></div>",,delaylearn,learning,display_response,KbzxN7yzfQbKCQk8OWzk3HKy0fv1,KbzxN7yzfQbKCQk8OWzk3HKy0fv1,,,,,,,,,,,,,,,,,chosen stimuli: images/demo_images/choice_trial_1.png,,,,,62c5d0cfdf443d24e054d302,09:11:07,27/02/2024
html-keyboard-response,26,52496,0.0-11.0-2.0,,,,delaylearn,learning,feedback_duration_window,KbzxN7yzfQbKCQk8OWzk3HKy0fv1,KbzxN7yzfQbKCQk8OWzk3HKy0fv1,,,,,,,,,,,,,,,,,,3000.0,,,,62c5d0cfdf443d24e054d302,09:11:07,27/02/2024
html-keyboard-response,27,54001,0.0-11.0-3.0,,<div style='margin:auto;width: auto; font-size: 150%'><span style='font-weight: bold; font-size: 100px; color: green;'>+10 points!</span><br><br></div>,,delaylearn,learning,feedback_image_window,KbzxN7yzfQbKCQk8OWzk3HKy0fv1,KbzxN7yzfQbKCQk8OWzk3HKy0fv1,,,,,,,,,,,,,,,,,,,,,,62c5d0cfdf443d24e054d302,09:11:07,27/02/2024
html-keyboard-response,28,55583,0.0-12.0,,"<div style=""font-size:100px;"">+</div>",,delaylearn,learning,ITI,KbzxN7yzfQbKCQk8OWzk3HKy0fv1,KbzxN7yzfQbKCQk8OWzk3HKy0fv1,,,,,,,,,,,,,,,,,,,1566.0,,,62c5d0cfdf443d24e054d302,09:11:07,27/02/2024
html-keyboard-response,29,56961,0.0-13.0-0.0,1375.3999998569489,"<div style=""display: flex; flex-direction: column; align-items: center; margin-top: -40px;""><img src=""images/demo_images/pattern_1.png"" style=""width: 234px; height: 230px; margin-top: -50px;""><div style=""display: flex; justify-content: space-between; margin-top: 33px;""><img src=""images/demo_images/choice_trial_1.png"" style=""width: 408px; height: 417px; margin-right: 200px;""><img src=""images/demo_images/choice_trial_2.png"" style=""width: 408px; height: 417px;""></div></div>",f,delaylearn,learning,trial,KbzxN7yzfQbKCQk8OWzk3HKy0fv1,KbzxN7yzfQbKCQk8OWzk3HKy0fv1,1.0,images/demo_images/choice_trial_1.png,images/demo_images/choice_trial_2.png,images/demo_images/pattern_1.png,f,f,3000.0,1.0,2.0,20.0,0.0,6.0,1.0,1.0,1.0,40.0,,,,,,62c5d0cfdf443d24e054d302,09:11:07,27/02/2024
html-keyboard-response,30,57972,0.0-13.0-1.0,,"<div style=""display: flex; flex-direction: column; align-items: center; margin-top: -40px;""><img src=""images/demo_images/pattern_1.png"" style=""width: 234px; height: 230px; margin-top: -50px;""><div style=""display: flex; justify-content: space-between; margin-top: 33px;""><img src=""images/demo_images/choice_trial_1.png"" style=""width: 408px; height: 417px; margin-right: 608px;""></div></div>",,delaylearn,learning,display_response,KbzxN7yzfQbKCQk8OWzk3HKy0fv1,KbzxN7yzfQbKCQk8OWzk3HKy0fv1,,,,,,,,,,,,,,,,,chosen stimuli: images/demo_images/choice_trial_1.png,,,,,62c5d0cfdf443d24e054d302,09:11:07,27/02/2024
html-keyboard-response,31,60986,0.0-13.0-2.0,,,,delaylearn,learning,feedback_duration_window,KbzxN7yzfQbKCQk8OWzk3HKy0fv1,KbzxN7yzfQbKCQk8OWzk3HKy0fv1,,,,,,,,,,,,,,,,,,3000.0,,,,62c5d0cfdf443d24e054d302,09:11:07,27/02/2024
html-keyboard-response,32,62489,0.0-13.0-3.0,,<div style='margin:auto;width: auto; font-size: 150%'><span style='font-weight: bold; font-size: 100px; color: green;'>+10 points!</span><br><br></div>,,delaylearn,learning,feedback_image_window,KbzxN7yzfQbKCQk8OWzk3HKy0fv1,KbzxN7yzfQbKCQk8OWzk3HKy0fv1,,,,,,,,,,,,,,,,,,,,,,62c5d0cfdf443d24e054d302,09:11:07,27/02/2024
html-button-response,33,73676,0.0-14.0,11184.900000095367,"
  <div style=""display: flex; align-items: center; justify-content: center; height: 80vh;"">
  <div>
          <img src=""images/inst_demo_finish.png"" style=""width: 80vw; height:auto;"">
          <br><br>
      </div>
      <br><br>
  </div>",0,,,,KbzxN7yzfQbKCQk8OWzk3HKy0fv1,,,,,,,,,,,,,,,,,,,,,,,62c5d0cfdf443d24e054d302,09:11:07,27/02/2024
html-keyboard-response,34,305460,0.0-15.0,231782.0,"
  <div style=""display: flex; align-items: center; justify-content: center; height: 80vh;"">
  <div>
          <img src=""images/inst_6.png"" style=""width: 80vw; height:auto;"">
          <br><br>
      </div>
      <br><br>
  </div>",f,,,,KbzxN7yzfQbKCQk8OWzk3HKy0fv1,,,,,,,,,,,,,,,,,,,,,,,62c5d0cfdf443d24e054d302,09:11:07,27/02/2024
html-keyboard-response,35,308472,0.0-16.0,,"<div style=""font-size:100px;"">+</div>",,delaylearn,learning,pre_fixation,KbzxN7yzfQbKCQk8OWzk3HKy0fv1,,,,,,,,,,,,,,,,,,,,,,,62c5d0cfdf443d24e054d302,09:11:07,27/02/2024
html-keyboard-response,36,310124,0.0-17.0,,"<div style=""font-size:100px;"">+</div>",,delaylearn,learning,ITI,KbzxN7yzfQbKCQk8OWzk3HKy0fv1,KbzxN7yzfQbKCQk8OWzk3HKy0fv1,,,,,,,,,,,,,,,,,,,1643.0,,,62c5d0cfdf443d24e054d302,09:11:07,27/02/2024
html-keyboard-response,37,311875,0.0-18.0-0.0,1748.4000000953674,"<div style=""display: flex; flex-direction: column; align-items: center; margin-top: -40px;""><img src=""images/pattern_3.png"" style=""width: 234px; height: 230px; margin-top: -50px;""><div style=""display: flex; justify-content: space-between; margin-top: 33px;""><img src=""images/choice_trial_5.png"" style=""width: 408px; height: 417px; margin-right: 200px;""><img src=""images/choice_trial_6.png"" style=""width: 408px; height: 417px;""></div></div>",f,delaylearn,learning,trial,KbzxN7yzfQbKCQk8OWzk3HKy0fv1,KbzxN7yzfQbKCQk8OWzk3HKy0fv1,1.0,images/choice_trial_5.png,images/choice_trial_6.png,images/pattern_3.png,f,f,7000.0,5.0,6.0,2.0,0.0,7.0,1.0,1.0,5.0,50.0,,,,,,62c5d0cfdf443d24e054d302,09:11:07,27/02/2024
html-keyboard-response,38,312879,0.0-18.0-1.0,,"<div style=""display: flex; flex-direction: column; align-items: center; margin-top: -40px;""><img src=""images/pattern_3.png"" style=""width: 234px; height: 230px; margin-top: -50px;""><div style=""display: flex; justify-content: space-between; margin-top: 33px;""><img src=""images/choice_trial_5.png"" style=""width: 408px; height: 417px; margin-right: 608px;""></div></div>",,delaylearn,learning,display_response,KbzxN7yzfQbKCQk8OWzk3HKy0fv1,KbzxN7yzfQbKCQk8OWzk3HKy0fv1,,,,,,,,,,,,,,,,,chosen stimuli: images/choice_trial_5.png,,,,,62c5d0cfdf443d24e054d302,09:11:07,27/02/2024
html-keyboard-response,39,319883,0.0-18.0-2.0,,,,delaylearn,learning,feedback_duration_window,KbzxN7yzfQbKCQk8OWzk3HKy0fv1,KbzxN7yzfQbKCQk8OWzk3HKy0fv1,,,,,,,,,,,,,,,,,,7000.0,,,,62c5d0cfdf443d24e054d302,09:11:07,27/02/2024
html-keyboard-response,40,321387,0.0-18.0-3.0,,<div style='margin:auto;width: auto; font-size: 150%'><span style='font-weight: bold; font-size: 100px; color: green;'>+10 points!</span><br><br></div>,,delaylearn,learning,feedback_image_window,KbzxN7yzfQbKCQk8OWzk3HKy0fv1,KbzxN7yzfQbKCQk8OWzk3HKy0fv1,,,,,,,,,,,,,,,,,,,,,,62c5d0cfdf443d24e054d302,09:11:07,27/02/2024
html-keyboard-response,41,323142,0.0-19.0,,"<div style=""font-size:100px;"">+</div>",,delaylearn,learning,ITI,KbzxN7yzfQbKCQk8OWzk3HKy0fv1,KbzxN7yzfQbKCQk8OWzk3HKy0fv1,,,,,,,,,,,,,,,,,,,1753.0,,,62c5d0cfdf443d24e054d302,09:11:07,27/02/2024
html-keyboard-response,42,325582,0.0-20.0-0.0,2437.7999999523163,"<div style=""display: flex; flex-direction: column; align-items: center; margin-top: -40px;""><img src=""images/pattern_7.png"" style=""width: 234px; height: 230px; margin-top: -50px;""><div style=""display: flex; justify-content: space-between; margin-top: 33px;""><img src=""images/choice_trial_14.png"" style=""width: 408px; height: 417px; margin-right: 200px;""><img src=""images/choice_trial_13.png"" style=""width: 408px; height: 417px;""></div></div>",f,delaylearn,learning,trial,KbzxN7yzfQbKCQk8OWzk3HKy0fv1,KbzxN7yzfQbKCQk8OWzk3HKy0fv1,1.0,images/choice_trial_14.png,images/choice_trial_13.png,images/pattern_7.png,j,j,750.0,14.0,13.0,6.0,1.0,8.0,0.0,0.0,14.0,50.0,,,,,,62c5d0cfdf443d24e054d302,09:11:07,27/02/2024
html-keyboard-response,43,326592,0.0-20.0-1.0,,"<div style=""display: flex; flex-direction: column; align-items: center; margin-top: -40px;""><img src=""images/pattern_7.png"" style=""width: 234px; height: 230px; margin-top: -50px;""><div style=""display: flex; justify-content: space-between; margin-top: 33px;""><img src=""images/choice_trial_14.png"" style=""width: 408px; height: 417px; margin-right: 608px;""></div></div>",,delaylearn,learning,display_response,KbzxN7yzfQbKCQk8OWzk3HKy0fv1,KbzxN7yzfQbKCQk8OWzk3HKy0fv1,,,,,,,,,,,,,,,,,chosen stimuli: images/choice_trial_14.png,,,,,62c5d0cfdf443d24e054d302,09:11:07,27/02/2024
html-keyboard-response,44,327344,0.0-20.0-2.0,,,,delaylearn,learning,feedback_duration_window,KbzxN7yzfQbKCQk8OWzk3HKy0fv1,KbzxN7yzfQbKCQk8OWzk3HKy0fv1,,,,,,,,,,,,,,,,,,750.0,,,,62c5d0cfdf443d24e054d302,09:11:07,27/02/2024
html-keyboard-response,45,328845,0.0-20.0-3.0,,<div style='margin:auto;width: auto; font-size: 150%'><span style='font-weight: bold; font-size: 100px; color: red;'>0 points!</span><br><br></div>,,delaylearn,learning,feedback_image_window,KbzxN7yzfQbKCQk8OWzk3HKy0fv1,KbzxN7yzfQbKCQk8OWzk3HKy0fv1,,,,,,,,,,,,,,,,,,,,,,62c5d0cfdf443d24e054d302,09:11:07,27/02/2024
html-keyboard-response,46,331180,0.0-21.0,,"<div style=""font-size:100px;"">+</div>",,delaylearn,learning,ITI,KbzxN7yzfQbKCQk8OWzk3HKy0fv1,KbzxN7yzfQbKCQk8OWzk3HKy0fv1,,,,,,,,,,,,,,,,,,,2323.0,,,62c5d0cfdf443d24e054d302,09:11:07,27/02/2024
html-keyboard-response,47,334143,0.0-22.0-0.0,2960.5999999046326,"<div style=""display: flex; flex-direction: column; align-items: center; margin-top: -40px;""><img src=""images/pattern_4.png"" style=""width: 234px; height: 230px; margin-top: -50px;""><div style=""display: flex; justify-content: space-between; margin-top: 33px;""><img src=""images/choice_trial_7.png"" style=""width: 408px; height: 417px; margin-right: 200px;""><img src=""images/choice_trial_8.png"" style=""width: 408px; height: 417px;""></div></div>",j,delaylearn,learning,trial,KbzxN7yzfQbKCQk8OWzk3HKy0fv1,KbzxN7yzfQbKCQk8OWzk3HKy0fv1,1.0,images/choice_trial_7.png,images/choice_trial_8.png,images/pattern_4.png,f,f,7000.0,7.0,8.0,3.0,0.0,9.0,0.0,0.0,8.0,50.0,,,,,,62c5d0cfdf443d24e054d302,09:11:07,27/02/2024
html-keyboard-response,48,335150,0.0-22.0-1.0,,"<div style=""display: flex; flex-direction: column; align-items: center; margin-top: -40px;""><img src=""images/pattern_4.png"" style=""width: 234px; height: 230px; margin-top: -50px;""><div style=""display: flex; justify-content: space-between; margin-top: 33px;""><img src=""images/choice_trial_8.png"" style=""width: 408px; height: 417px; margin-left:608px;""></div></div>",,delaylearn,learning,display_response,KbzxN7yzfQbKCQk8OWzk3HKy0fv1,KbzxN7yzfQbKCQk8OWzk3HKy0fv1,,,,,,,,,,,,,,,,,chosen stimuli: images/choice_trial_8.png,,,,,62c5d0cfdf443d24e054d302,09:11:07,27/02/2024
html-keyboard-response,49,342158,0.0-22.0-2.0,,,,delaylearn,learning,feedback_duration_window,KbzxN7yzfQbKCQk8OWzk3HKy0fv1,KbzxN7yzfQbKCQk8OWzk3HKy0fv1,,,,,,,,,,,,,,,,,,7000.0,,,,62c5d0cfdf443d24e054d302,09:11:07,27/02/2024
html-keyboard-response,50,343675,0.0-22.0-3.0,,<div style='margin:auto;width: auto; font-size: 150%'><span style='font-weight: bold; font-size: 100px; color: red;'>0 points!</span><br><br></div>,,delaylearn,learning,feedback_image_window,KbzxN7yzfQbKCQk8OWzk3HKy0fv1,KbzxN7yzfQbKCQk8OWzk3HKy0fv1,,,,,,,,,,,,,,,,,,,,,,62c5d0cfdf443d24e054d302,09:11:07,27/02/2024
html-keyboard-response,51,346062,0.0-23.0,,"<div style=""font-size:100px;"">+</div>",,delaylearn,learning,ITI,KbzxN7yzfQbKCQk8OWzk3HKy0fv1,KbzxN7yzfQbKCQk8OWzk3HKy0fv1,,,,,,,,,,,,,,,,,,,2385.0,,,62c5d0cfdf443d24e054d302,09:11:07,27/02/2024
html-keyboard-response,52,348282,0.0-24.0-0.0,2216.5999999046326,"<div style=""display: flex; flex-direction: column; align-items: center; margin-top: -40px;""><img src=""images/pattern_5.png"" style=""width: 234px; height: 230px; margin-top: -50px;""><div style=""display: flex; justify-content: space-between; margin-top: 33px;""><img src=""images/choice_trial_10.png"" style=""width: 408px; height: 417px; margin-right: 200px;""><img src=""images/choice_trial_9.png"" style=""width: 408px; height: 417px;""></div></div>",f,delaylearn,learning,trial,KbzxN7yzfQbKCQk8OWzk3HKy0fv1,KbzxN7yzfQbKCQk8OWzk3HKy0fv1,1.0,images/choice_trial_10.png,images/choice_trial_9.png,images/pattern_5.png,j,j,750.0,10.0,9.0,4.0,1.0,10.0,0.0,0.0,10.0,50.0,,,,,,62c5d0cfdf443d24e054d302,09:11:07,27/02/2024
html-keyboard-response,53,349284,0.0-24.0-1.0,,"<div style=""display: flex; flex-direction: column; align-items: center; margin-top: -40px;""><img src=""images/pattern_5.png"" style=""width: 234px; height: 230px; margin-top: -50px;""><div style=""display: flex; justify-content: space-between; margin-top: 33px;""><img src=""images/choice_trial_10.png"" style=""width: 408px; height: 417px; margin-right: 608px;""></div></div>",,delaylearn,learning,display_response,KbzxN7yzfQbKCQk8OWzk3HKy0fv1,KbzxN7yzfQbKCQk8OWzk3HKy0fv1,,,,,,,,,,,,,,,,,chosen stimuli: images/choice_trial_10.png,,,,,62c5d0cfdf443d24e054d302,09:11:07,27/02/2024
html-keyboard-response,54,350047,0.0-24.0-2.0,,,,delaylearn,learning,feedback_duration_window,KbzxN7yzfQbKCQk8OWzk3HKy0fv1,KbzxN7yzfQbKCQk8OWzk3HKy0fv1,,,,,,,,,,,,,,,,,,750.0,,,,62c5d0cfdf443d24e054d302,09:11:07,27/02/2024
html-keyboard-response,55,351550,0.0-24.0-3.0,,<div style='margin:auto;width: auto; font-size: 150%'><span style='font-weight: bold; font-size: 100px; color: red;'>0 points!</span><br><br></div>,,delaylearn,learning,feedback_image_window,KbzxN7yzfQbKCQk8OWzk3HKy0fv1,KbzxN7yzfQbKCQk8OWzk3HKy0fv1,,,,,,,,,,,,,,,,,,,,,,62c5d0cfdf443d24e054d302,09:11:07,27/02/2024
html-keyboard-response,56,353273,0.0-25.0,,"<div style=""font-size:100px;"">+</div>",,delaylearn,learning,ITI,KbzxN7yzfQbKCQk8OWzk3HKy0fv1,KbzxN7yzfQbKCQk8OWzk3HKy0fv1,,,,,,,,,,,,,,,,,,,1716.0,,,62c5d0cfdf443d24e054d302,09:11:07,27/02/2024
html-keyboard-response,57,355546,0.0-26.0-0.0,2270.399999856949,"<div style=""display: flex; flex-direction: column; align-items: center; margin-top: -40px;""><img src=""images/pattern_6.png"" style=""width: 234px; height: 230px; margin-top: -50px;""><div style=""display: flex; justify-content: space-between; margin-top: 33px;""><img src=""images/choice_trial_11.png"" style=""width: 408px; height: 417px; margin-right: 200px;""><img src=""images/choice_trial_12.png"" style=""width: 408px; height: 417px;""></div></div>",f,delaylearn,learning,trial,KbzxN7yzfQbKCQk8OWzk3HKy0fv1,KbzxN7yzfQbKCQk8OWzk3HKy0fv1,1.0,images/choice_trial_11.png,images/choice_trial_12.png,images/pattern_6.png,j,f,750.0,11.0,12.0,5.0,0.0,11.0,1.0,0.0,11.0,50.0,,,,,,62c5d0cfdf443d24e054d302,09:11:07,27/02/2024
html-keyboard-response,58,356560,0.0-26.0-1.0,,"<div style=""display: flex; flex-direction: column; align-items: center; margin-top: -40px;""><img src=""images/pattern_6.png"" style=""width: 234px; height: 230px; margin-top: -50px;""><div style=""display: flex; justify-content: space-between; margin-top: 33px;""><img src=""images/choice_trial_11.png"" style=""width: 408px; height: 417px; margin-right: 608px;""></div></div>",,delaylearn,learning,display_response,KbzxN7yzfQbKCQk8OWzk3HKy0fv1,KbzxN7yzfQbKCQk8OWzk3HKy0fv1,,,,,,,,,,,,,,,,,chosen stimuli: images/choice_trial_11.png,,,,,62c5d0cfdf443d24e054d302,09:11:07,27/02/2024
html-keyboard-response,59,357322,0.0-26.0-2.0,,,,delaylearn,learning,feedback_duration_window,KbzxN7yzfQbKCQk8OWzk3HKy0fv1,KbzxN7yzfQbKCQk8OWzk3HKy0fv1,,,,,,,,,,,,,,,,,,750.0,,,,62c5d0cfdf443d24e054d302,09:11:07,27/02/2024
html-keyboard-response,60,358824,0.0-26.0-3.0,,<div style='margin:auto;width: auto; font-size: 150%'><span style='font-weight: bold; font-size: 100px; color: red;'>0 points!</span><br><br></div>,,delaylearn,learning,feedback_image_window,KbzxN7yzfQbKCQk8OWzk3HKy0fv1,KbzxN7yzfQbKCQk8OWzk3HKy0fv1,,,,,,,,,,,,,,,,,,,,,,62c5d0cfdf443d24e054d302,09:11:07,27/02/2024
html-keyboard-response,61,359327,0.0-27.0-0.0,,,,,,mood_trial_fixation,KbzxN7yzfQbKCQk8OWzk3HKy0fv1,,,,,,,,,,,,,,,,,,,,,,,62c5d0cfdf443d24e054d302,09:11:07,27/02/2024
lmdlab-html-vas-response,62,374599,0.0-27.0-1.0,14264.0,How happy are you right now?,0.35300925925925924,delaylearn,learning,mood_trial,KbzxN7yzfQbKCQk8OWzk3HKy0fv1,KbzxN7yzfQbKCQk8OWzk3HKy0fv1,,,,,,,,,,,,,,,,,,,,"['Very unhappy', 'Very happy']",,62c5d0cfdf443d24e054d302,09:11:07,27/02/2024
html-keyboard-response,63,376942,0.0-28.0,,"<div style=""font-size:100px;"">+</div>",,delaylearn,learning,ITI,KbzxN7yzfQbKCQk8OWzk3HKy0fv1,KbzxN7yzfQbKCQk8OWzk3HKy0fv1,,,,,,,,,,,,,,,,,,,2327.0,,,62c5d0cfdf443d24e054d302,09:11:07,27/02/2024
html-keyboard-response,64,379935,0.0-29.0-0.0,2990.7999999523163,"<div style=""display: flex; flex-direction: column; align-items: center; margin-top: -40px;""><img src=""images/pattern_1.png"" style=""width: 234px; height: 230px; margin-top: -50px;""><div style=""display: flex; justify-content: space-between; margin-top: 33px;""><img src=""images/choice_trial_2.png"" style=""width: 408px; height: 417px; margin-right: 200px;""><img src=""images/choice_trial_1.png"" style=""width: 408px; height: 417px;""></div></div>",j,delaylearn,learning,trial,KbzxN7yzfQbKCQk8OWzk3HKy0fv1,KbzxN7yzfQbKCQk8OWzk3HKy0fv1,1.0,images/choice_trial_2.png,images/choice_trial_1.png,images/pattern_1.png,j,j,7000.0,2.0,1.0,1.0,1.0,12.0,1.0,1.0,1.0,60.0,,,,,,62c5d0cfdf443d24e054d302,09:11:07,27/02/2024
html-keyboard-response,65,380949,0.0-29.0-1.0,,"<div style=""display: flex; flex-direction: column; align-items: center; margin-top: -40px;""><img src=""images/pattern_1.png"" style=""width: 234px; height: 230px; margin-top: -50px;""><div style=""display: flex; justify-content: space-between; margin-top: 33px;""><img src=""images/choice_trial_1.png"" style=""width: 408px; height: 417px; margin-left:608px;""></div></div>",,delaylearn,learning,display_response,KbzxN7yzfQbKCQk8OWzk3HKy0fv1,KbzxN7yzfQbKCQk8OWzk3HKy0fv1,,,,,,,,,,,,,,,,,chosen stimuli: images/choice_trial_1.png,,,,,62c5d0cfdf443d24e054d302,09:11:07,27/02/2024
html-keyboard-response,66,387954,0.0-29.0-2.0,,,,delaylearn,learning,feedback_duration_window,KbzxN7yzfQbKCQk8OWzk3HKy0fv1,KbzxN7yzfQbKCQk8OWzk3HKy0fv1,,,,,,,,,,,,,,,,,,7000.0,,,,62c5d0cfdf443d24e054d302,09:11:07,27/02/2024
html-keyboard-response,67,389456,0.0-29.0-3.0,,<div style='margin:auto;width: auto; font-size: 150%'><span style='font-weight: bold; font-size: 100px; color: green;'>+10 points!</span><br><br></div>,,delaylearn,learning,feedback_image_window,KbzxN7yzfQbKCQk8OWzk3HKy0fv1,KbzxN7yzfQbKCQk8OWzk3HKy0fv1,,,,,,,,,,,,,,,,,,,,,,62c5d0cfdf443d24e054d302,09:11:07,27/02/2024
html-keyboard-response,68,391725,0.0-30.0,,"<div style=""font-size:100px;"">+</div>",,delaylearn,learning,ITI,KbzxN7yzfQbKCQk8OWzk3HKy0fv1,KbzxN7yzfQbKCQk8OWzk3HKy0fv1,,,,,,,,,,,,,,,,,,,2264.0,,,62c5d0cfdf443d24e054d302,09:11:07,27/02/2024
html-keyboard-response,69,394489,0.0-31.0-0.0,2762.0,"<div style=""display: flex; flex-direction: column; align-items: center; margin-top: -40px;""><img src=""images/pattern_3.png"" style=""width: 234px; height: 230px; margin-top: -50px;""><div style=""display: flex; justify-content: space-between; margin-top: 33px;""><img src=""images/choice_trial_6.png"" style=""width: 408px; height: 417px; margin-right: 200px;""><img src=""images/choice_trial_5.png"" style=""width: 408px; height: 417px;""></div></div>",f,delaylearn,learning,trial,KbzxN7yzfQbKCQk8OWzk3HKy0fv1,KbzxN7yzfQbKCQk8OWzk3HKy0fv1,1.0,images/choice_trial_6.png,images/choice_trial_5.png,images/pattern_3.png,f,j,7000.0,6.0,5.0,2.0,1.0,13.0,0.0,1.0,6.0,70.0,,,,,,62c5d0cfdf443d24e054d302,09:11:07,27/02/2024
html-keyboard-response,70,395508,0.0-31.0-1.0,,"<div style=""display: flex; flex-direction: column; align-items: center; margin-top: -40px;""><img src=""images/pattern_3.png"" style=""width: 234px; height: 230px; margin-top: -50px;""><div style=""display: flex; justify-content: space-between; margin-top: 33px;""><img src=""images/choice_trial_6.png"" style=""width: 408px; height: 417px; margin-right: 608px;""></div></div>",,delaylearn,learning,display_response,KbzxN7yzfQbKCQk8OWzk3HKy0fv1,KbzxN7yzfQbKCQk8OWzk3HKy0fv1,,,,,,,,,,,,,,,,,chosen stimuli: images/choice_trial_6.png,,,,,62c5d0cfdf443d24e054d302,09:11:07,27/02/2024
html-keyboard-response,71,402516,0.0-31.0-2.0,,,,delaylearn,learning,feedback_duration_window,KbzxN7yzfQbKCQk8OWzk3HKy0fv1,KbzxN7yzfQbKCQk8OWzk3HKy0fv1,,,,,,,,,,,,,,,,,,7000.0,,,,62c5d0cfdf443d24e054d302,09:11:07,27/02/2024
html-keyboard-response,72,404029,0.0-31.0-3.0,,<div style='margin:auto;width: auto; font-size: 150%'><span style='font-weight: bold; font-size: 100px; color: green;'>+10 points!</span><br><br></div>,,delaylearn,learning,feedback_image_window,KbzxN7yzfQbKCQk8OWzk3HKy0fv1,KbzxN7yzfQbKCQk8OWzk3HKy0fv1,,,,,,,,,,,,,,,,,,,,,,62c5d0cfdf443d24e054d302,09:11:07,27/02/2024
html-keyboard-response,73,406255,0.0-32.0,,"<div style=""font-size:100px;"">+</div>",,delaylearn,learning,ITI,KbzxN7yzfQbKCQk8OWzk3HKy0fv1,KbzxN7yzfQbKCQk8OWzk3HKy0fv1,,,,,,,,,,,,,,,,,,,2217.0,,,62c5d0cfdf443d24e054d302,09:11:07,27/02/2024
html-keyboard-response,74,408830,0.0-33.0-0.0,2571.199999809265,"<div style=""display: flex; flex-direction: column; align-items: center; margin-top: -40px;""><img src=""images/pattern_5.png"" style=""width: 234px; height: 230px; margin-top: -50px;""><div style=""display: flex; justify-content: space-between; margin-top: 33px;""><img src=""images/choice_trial_9.png"" style=""width: 408px; height: 417px; margin-right: 200px;""><img src=""images/choice_trial_10.png"" style=""width: 408px; height: 417px;""></div></div>",j,delaylearn,learning,trial,KbzxN7yzfQbKCQk8OWzk3HKy0fv1,KbzxN7yzfQbKCQk8OWzk3HKy0fv1,1.0,images/choice_trial_9.png,images/choice_trial_10.png,images/pattern_5.png,f,f,750.0,9.0,10.0,4.0,0.0,14.0,0.0,0.0,10.0,70.0,,,,,,62c5d0cfdf443d24e054d302,09:11:07,27/02/2024
html-keyboard-response,75,409844,0.0-33.0-1.0,,"<div style=""display: flex; flex-direction: column; align-items: center; margin-top: -40px;""><img src=""images/pattern_5.png"" style=""width: 234px; height: 230px; margin-top: -50px;""><div style=""display: flex; justify-content: space-between; margin-top: 33px;""><img src=""images/choice_trial_10.png"" style=""width: 408px; height: 417px; margin-left:608px;""></div></div>",,delaylearn,learning,display_response,KbzxN7yzfQbKCQk8OWzk3HKy0fv1,KbzxN7yzfQbKCQk8OWzk3HKy0fv1,,,,,,,,,,,,,,,,,chosen stimuli: images/choice_trial_10.png,,,,,62c5d0cfdf443d24e054d302,09:11:07,27/02/2024
html-keyboard-response,76,410606,0.0-33.0-2.0,,,,delaylearn,learning,feedback_duration_window,KbzxN7yzfQbKCQk8OWzk3HKy0fv1,KbzxN7yzfQbKCQk8OWzk3HKy0fv1,,,,,,,,,,,,,,,,,,750.0,,,,62c5d0cfdf443d24e054d302,09:11:07,27/02/2024
html-keyboard-response,77,412112,0.0-33.0-3.0,,<div style='margin:auto;width: auto; font-size: 150%'><span style='font-weight: bold; font-size: 100px; color: red;'>0 points!</span><br><br></div>,,delaylearn,learning,feedback_image_window,KbzxN7yzfQbKCQk8OWzk3HKy0fv1,KbzxN7yzfQbKCQk8OWzk3HKy0fv1,,,,,,,,,,,,,,,,,,,,,,62c5d0cfdf443d24e054d302,09:11:07,27/02/2024
html-keyboard-response,78,412615,0.0-34.0-0.0,,,,,,mood_trial_fixation,KbzxN7yzfQbKCQk8OWzk3HKy0fv1,,,,,,,,,,,,,,,,,,,,,,,62c5d0cfdf443d24e054d302,09:11:07,27/02/2024
lmdlab-html-vas-response,79,436636,0.0-34.0-1.0,,How happy are you right now?,,delaylearn,learning,mood_trial,KbzxN7yzfQbKCQk8OWzk3HKy0fv1,KbzxN7yzfQbKCQk8OWzk3HKy0fv1,,,,,,,,,,,,,,,,,,,,"['Very unhappy', 'Very happy']",,62c5d0cfdf443d24e054d302,09:11:07,27/02/2024
html-keyboard-response,80,438622,0.0-35.0,,"<div style=""font-size:100px;"">+</div>",,delaylearn,learning,ITI,KbzxN7yzfQbKCQk8OWzk3HKy0fv1,KbzxN7yzfQbKCQk8OWzk3HKy0fv1,,,,,,,,,,,,,,,,,,,1970.0,,,62c5d0cfdf443d24e054d302,09:11:07,27/02/2024
html-keyboard-response,81,441249,0.0-36.0-0.0,2624.2999999523163,"<div style=""display: flex; flex-direction: column; align-items: center; margin-top: -40px;""><img src=""images/pattern_6.png"" style=""width: 234px; height: 230px; margin-top: -50px;""><div style=""display: flex; justify-content: space-between; margin-top: 33px;""><img src=""images/choice_trial_11.png"" style=""width: 408px; height: 417px; margin-right: 200px;""><img src=""images/choice_trial_12.png"" style=""width: 408px; height: 417px;""></div></div>",j,delaylearn,learning,trial,KbzxN7yzfQbKCQk8OWzk3HKy0fv1,KbzxN7yzfQbKCQk8OWzk3HKy0fv1,1.0,images/choice_trial_11.png,images/choice_trial_12.png,images/pattern_6.png,f,f,750.0,11.0,12.0,5.0,0.0,15.0,0.0,0.0,12.0,70.0,,,,,,62c5d0cfdf443d24e054d302,09:11:07,27/02/2024
html-keyboard-response,82,442260,0.0-36.0-1.0,,"<div style=""display: flex; flex-direction: column; align-items: center; margin-top: -40px;""><img src=""images/pattern_6.png"" style=""width: 234px; height: 230px; margin-top: -50px;""><div style=""display: flex; justify-content: space-between; margin-top: 33px;""><img src=""images/choice_trial_12.png"" style=""width: 408px; height: 417px; margin-left:608px;""></div></div>",,delaylearn,learning,display_response,KbzxN7yzfQbKCQk8OWzk3HKy0fv1,KbzxN7yzfQbKCQk8OWzk3HKy0fv1,,,,,,,,,,,,,,,,,chosen stimuli: images/choice_trial_12.png,,,,,62c5d0cfdf443d24e054d302,09:11:07,27/02/2024
html-keyboard-response,83,443026,0.0-36.0-2.0,,,,delaylearn,learning,feedback_duration_window,KbzxN7yzfQbKCQk8OWzk3HKy0fv1,KbzxN7yzfQbKCQk8OWzk3HKy0fv1,,,,,,,,,,,,,,,,,,750.0,,,,62c5d0cfdf443d24e054d302,09:11:07,27/02/2024
html-keyboard-response,84,444539,0.0-36.0-3.0,,<div style='margin:auto;width: auto; font-size: 150%'><span style='font-weight: bold; font-size: 100px; color: red;'>0 points!</span><br><br></div>,,delaylearn,learning,feedback_image_window,KbzxN7yzfQbKCQk8OWzk3HKy0fv1,KbzxN7yzfQbKCQk8OWzk3HKy0fv1,,,,,,,,,,,,,,,,,,,,,,62c5d0cfdf443d24e054d302,09:11:07,27/02/2024
html-keyboard-response,85,446530,0.0-37.0,,"<div style=""font-size:100px;"">+</div>",,delaylearn,learning,ITI,KbzxN7yzfQbKCQk8OWzk3HKy0fv1,KbzxN7yzfQbKCQk8OWzk3HKy0fv1,,,,,,,,,,,,,,,,,,,1981.0,,,62c5d0cfdf443d24e054d302,09:11:07,27/02/2024
html-keyboard-response,86,448825,0.0-38.0-0.0,2292.0,"<div style=""display: flex; flex-direction: column; align-items: center; margin-top: -40px;""><img src=""images/pattern_4.png"" style=""width: 234px; height: 230px; margin-top: -50px;""><div style=""display: flex; justify-content: space-between; margin-top: 33px;""><img src=""images/choice_trial_8.png"" style=""width: 408px; height: 417px; margin-right: 200px;""><img src=""images/choice_trial_7.png"" style=""width: 408px; height: 417px;""></div></div>",f,delaylearn,learning,trial,KbzxN7yzfQbKCQk8OWzk3HKy0fv1,KbzxN7yzfQbKCQk8OWzk3HKy0fv1,1.0,images/choice_trial_8.png,images/choice_trial_7.png,images/pattern_4.png,j,j,7000.0,8.0,7.0,3.0,1.0,16.0,0.0,0.0,8.0,70.0,,,,,,62c5d0cfdf443d24e054d302,09:11:07,27/02/2024
html-keyboard-response,87,449833,0.0-38.0-1.0,,"<div style=""display: flex; flex-direction: column; align-items: center; margin-top: -40px;""><img src=""images/pattern_4.png"" style=""width: 234px; height: 230px; margin-top: -50px;""><div style=""display: flex; justify-content: space-between; margin-top: 33px;""><img src=""images/choice_trial_8.png"" style=""width: 408px; height: 417px; margin-right: 608px;""></div></div>",,delaylearn,learning,display_response,KbzxN7yzfQbKCQk8OWzk3HKy0fv1,KbzxN7yzfQbKCQk8OWzk3HKy0fv1,,,,,,,,,,,,,,,,,chosen stimuli: images/choice_trial_8.png,,,,,62c5d0cfdf443d24e054d302,09:11:07,27/02/2024
html-keyboard-response,88,456841,0.0-38.0-2.0,,,,delaylearn,learning,feedback_duration_window,KbzxN7yzfQbKCQk8OWzk3HKy0fv1,KbzxN7yzfQbKCQk8OWzk3HKy0fv1,,,,,,,,,,,,,,,,,,7000.0,,,,62c5d0cfdf443d24e054d302,09:11:07,27/02/2024
html-keyboard-response,89,458345,0.0-38.0-3.0,,<div style='margin:auto;width: auto; font-size: 150%'><span style='font-weight: bold; font-size: 100px; color: red;'>0 points!</span><br><br></div>,,delaylearn,learning,feedback_image_window,KbzxN7yzfQbKCQk8OWzk3HKy0fv1,KbzxN7yzfQbKCQk8OWzk3HKy0fv1,,,,,,,,,,,,,,,,,,,,,,62c5d0cfdf443d24e054d302,09:11:07,27/02/2024
html-keyboard-response,90,460838,0.0-39.0,,"<div style=""font-size:100px;"">+</div>",,delaylearn,learning,ITI,KbzxN7yzfQbKCQk8OWzk3HKy0fv1,KbzxN7yzfQbKCQk8OWzk3HKy0fv1,,,,,,,,,,,,,,,,,,,2481.0,,,62c5d0cfdf443d24e054d302,09:11:07,27/02/2024
html-keyboard-response,91,463492,0.0-40.0-0.0,2651.0999999046326,"<div style=""display: flex; flex-direction: column; align-items: center; margin-top: -40px;""><img src=""images/pattern_7.png"" style=""width: 234px; height: 230px; margin-top: -50px;""><div style=""display: flex; justify-content: space-between; margin-top: 33px;""><img src=""images/choice_trial_13.png"" style=""width: 408px; height: 417px; margin-right: 200px;""><img src=""images/choice_trial_14.png"" style=""width: 408px; height: 417px;""></div></div>",j,delaylearn,learning,trial,KbzxN7yzfQbKCQk8OWzk3HKy0fv1,KbzxN7yzfQbKCQk8OWzk3HKy0fv1,1.0,images/choice_trial_13.png,images/choice_trial_14.png,images/pattern_7.png,j,f,750.0,13.0,14.0,6.0,0.0,17.0,0.0,1.0,14.0,80.0,,,,,,62c5d0cfdf443d24e054d302,09:11:07,27/02/2024
html-keyboard-response,92,464502,0.0-40.0-1.0,,"<div style=""display: flex; flex-direction: column; align-items: center; margin-top: -40px;""><img src=""images/pattern_7.png"" style=""width: 234px; height: 230px; margin-top: -50px;""><div style=""display: flex; justify-content: space-between; margin-top: 33px;""><img src=""images/choice_trial_14.png"" style=""width: 408px; height: 417px; margin-left:608px;""></div></div>",,delaylearn,learning,display_response,KbzxN7yzfQbKCQk8OWzk3HKy0fv1,KbzxN7yzfQbKCQk8OWzk3HKy0fv1,,,,,,,,,,,,,,,,,chosen stimuli: images/choice_trial_14.png,,,,,62c5d0cfdf443d24e054d302,09:11:07,27/02/2024
html-keyboard-response,93,465263,0.0-40.0-2.0,,,,delaylearn,learning,feedback_duration_window,KbzxN7yzfQbKCQk8OWzk3HKy0fv1,KbzxN7yzfQbKCQk8OWzk3HKy0fv1,,,,,,,,,,,,,,,,,,750.0,,,,62c5d0cfdf443d24e054d302,09:11:07,27/02/2024
html-keyboard-response,94,466774,0.0-40.0-3.0,,<div style='margin:auto;width: auto; font-size: 150%'><span style='font-weight: bold; font-size: 100px; color: green;'>+10 points!</span><br><br></div>,,delaylearn,learning,feedback_image_window,KbzxN7yzfQbKCQk8OWzk3HKy0fv1,KbzxN7yzfQbKCQk8OWzk3HKy0fv1,,,,,,,,,,,,,,,,,,,,,,62c5d0cfdf443d24e054d302,09:11:07,27/02/2024
html-keyboard-response,95,468846,0.0-41.0,,"<div style=""font-size:100px;"">+</div>",,delaylearn,learning,ITI,KbzxN7yzfQbKCQk8OWzk3HKy0fv1,KbzxN7yzfQbKCQk8OWzk3HKy0fv1,,,,,,,,,,,,,,,,,,,2067.0,,,62c5d0cfdf443d24e054d302,09:11:07,27/02/2024
html-keyboard-response,96,471405,0.0-42.0-0.0,2556.5,"<div style=""display: flex; flex-direction: column; align-items: center; margin-top: -40px;""><img src=""images/pattern_1.png"" style=""width: 234px; height: 230px; margin-top: -50px;""><div style=""display: flex; justify-content: space-between; margin-top: 33px;""><img src=""images/choice_trial_1.png"" style=""width: 408px; height: 417px; margin-right: 200px;""><img src=""images/choice_trial_2.png"" style=""width: 408px; height: 417px;""></div></div>",f,delaylearn,learning,trial,KbzxN7yzfQbKCQk8OWzk3HKy0fv1,KbzxN7yzfQbKCQk8OWzk3HKy0fv1,1.0,images/choice_trial_1.png,images/choice_trial_2.png,images/pattern_1.png,f,f,7000.0,1.0,2.0,1.0,0.0,18.0,1.0,1.0,1.0,90.0,,,,,,62c5d0cfdf443d24e054d302,09:11:07,27/02/2024
html-keyboard-response,97,472420,0.0-42.0-1.0,,"<div style=""display: flex; flex-direction: column; align-items: center; margin-top: -40px;""><img src=""images/pattern_1.png"" style=""width: 234px; height: 230px; margin-top: -50px;""><div style=""display: flex; justify-content: space-between; margin-top: 33px;""><img src=""images/choice_trial_1.png"" style=""width: 408px; height: 417px; margin-right: 608px;""></div></div>",,delaylearn,learning,display_response,KbzxN7yzfQbKCQk8OWzk3HKy0fv1,KbzxN7yzfQbKCQk8OWzk3HKy0fv1,,,,,,,,,,,,,,,,,chosen stimuli: images/choice_trial_1.png,,,,,62c5d0cfdf443d24e054d302,09:11:07,27/02/2024
html-keyboard-response,98,479427,0.0-42.0-2.0,,,,delaylearn,learning,feedback_duration_window,KbzxN7yzfQbKCQk8OWzk3HKy0fv1,KbzxN7yzfQbKCQk8OWzk3HKy0fv1,,,,,,,,,,,,,,,,,,7000.0,,,,62c5d0cfdf443d24e054d302,09:11:07,27/02/2024
html-keyboard-response,99,480932,0.0-42.0-3.0,,<div style='margin:auto;width: auto; font-size: 150%'><span style='font-weight: bold; font-size: 100px; color: green;'>+10 points!</span><br><br></div>,,delaylearn,learning,feedback_image_window,KbzxN7yzfQbKCQk8OWzk3HKy0fv1,KbzxN7yzfQbKCQk8OWzk3HKy0fv1,,,,,,,,,,,,,,,,,,,,,,62c5d0cfdf443d24e054d302,09:11:07,27/02/2024
html-keyboard-response,100,483428,0.0-43.0,,"<div style=""font-size:100px;"">+</div>",,delaylearn,learning,ITI,KbzxN7yzfQbKCQk8OWzk3HKy0fv1,KbzxN7yzfQbKCQk8OWzk3HKy0fv1,,,,,,,,,,,,,,,,,,,2487.0,,,62c5d0cfdf443d24e054d302,09:11:07,27/02/2024
html-keyboard-response,101,486416,0.0-44.0-0.0,2985.4000000953674,"<div style=""display: flex; flex-direction: column; align-items: center; margin-top: -40px;""><img src=""images/pattern_6.png"" style=""width: 234px; height: 230px; margin-top: -50px;""><div style=""display: flex; justify-content: space-between; margin-top: 33px;""><img src=""images/choice_trial_12.png"" style=""width: 408px; height: 417px; margin-right: 200px;""><img src=""images/choice_trial_11.png"" style=""width: 408px; height: 417px;""></div></div>",j,delaylearn,learning,trial,KbzxN7yzfQbKCQk8OWzk3HKy0fv1,KbzxN7yzfQbKCQk8OWzk3HKy0fv1,1.0,images/choice_trial_12.png,images/choice_trial_11.png,images/pattern_6.png,j,j,750.0,12.0,11.0,5.0,1.0,19.0,1.0,1.0,11.0,100.0,,,,,,62c5d0cfdf443d24e054d302,09:11:07,27/02/2024
html-keyboard-response,102,487424,0.0-44.0-1.0,,"<div style=""display: flex; flex-direction: column; align-items: center; margin-top: -40px;""><img src=""images/pattern_6.png"" style=""width: 234px; height: 230px; margin-top: -50px;""><div style=""display: flex; justify-content: space-between; margin-top: 33px;""><img src=""images/choice_trial_11.png"" style=""width: 408px; height: 417px; margin-left:608px;""></div></div>",,delaylearn,learning,display_response,KbzxN7yzfQbKCQk8OWzk3HKy0fv1,KbzxN7yzfQbKCQk8OWzk3HKy0fv1,,,,,,,,,,,,,,,,,chosen stimuli: images/choice_trial_11.png,,,,,62c5d0cfdf443d24e054d302,09:11:07,27/02/2024
html-keyboard-response,103,488181,0.0-44.0-2.0,,,,delaylearn,learning,feedback_duration_window,KbzxN7yzfQbKCQk8OWzk3HKy0fv1,KbzxN7yzfQbKCQk8OWzk3HKy0fv1,,,,,,,,,,,,,,,,,,750.0,,,,62c5d0cfdf443d24e054d302,09:11:07,27/02/2024
html-keyboard-response,104,489689,0.0-44.0-3.0,,<div style='margin:auto;width: auto; font-size: 150%'><span style='font-weight: bold; font-size: 100px; color: green;'>+10 points!</span><br><br></div>,,delaylearn,learning,feedback_image_window,KbzxN7yzfQbKCQk8OWzk3HKy0fv1,KbzxN7yzfQbKCQk8OWzk3HKy0fv1,,,,,,,,,,,,,,,,,,,,,,62c5d0cfdf443d24e054d302,09:11:07,27/02/2024
html-keyboard-response,105,491641,0.0-45.0,,"<div style=""font-size:100px;"">+</div>",,delaylearn,learning,ITI,KbzxN7yzfQbKCQk8OWzk3HKy0fv1,KbzxN7yzfQbKCQk8OWzk3HKy0fv1,,,,,,,,,,,,,,,,,,,1939.0,,,62c5d0cfdf443d24e054d302,09:11:07,27/02/2024
html-keyboard-response,106,493944,0.0-46.0-0.0,2299.5,"<div style=""display: flex; flex-direction: column; align-items: center; margin-top: -40px;""><img src=""images/pattern_4.png"" style=""width: 234px; height: 230px; margin-top: -50px;""><div style=""display: flex; justify-content: space-between; margin-top: 33px;""><img src=""images/choice_trial_7.png"" style=""width: 408px; height: 417px; margin-right: 200px;""><img src=""images/choice_trial_8.png"" style=""width: 408px; height: 417px;""></div></div>",j,delaylearn,learning,trial,KbzxN7yzfQbKCQk8OWzk3HKy0fv1,KbzxN7yzfQbKCQk8OWzk3HKy0fv1,1.0,images/choice_trial_7.png,images/choice_trial_8.png,images/pattern_4.png,f,f,7000.0,7.0,8.0,3.0,0.0,20.0,0.0,0.0,8.0,100.0,,,,,,62c5d0cfdf443d24e054d302,09:11:07,27/02/2024
html-keyboard-response,107,494947,0.0-46.0-1.0,,"<div style=""display: flex; flex-direction: column; align-items: center; margin-top: -40px;""><img src=""images/pattern_4.png"" style=""width: 234px; height: 230px; margin-top: -50px;""><div style=""display: flex; justify-content: space-between; margin-top: 33px;""><img src=""images/choice_trial_8.png"" style=""width: 408px; height: 417px; margin-left:608px;""></div></div>",,delaylearn,learning,display_response,KbzxN7yzfQbKCQk8OWzk3HKy0fv1,KbzxN7yzfQbKCQk8OWzk3HKy0fv1,,,,,,,,,,,,,,,,,chosen stimuli: images/choice_trial_8.png,,,,,62c5d0cfdf443d24e054d302,09:11:07,27/02/2024
html-keyboard-response,108,501954,0.0-46.0-2.0,,,,delaylearn,learning,feedback_duration_window,KbzxN7yzfQbKCQk8OWzk3HKy0fv1,KbzxN7yzfQbKCQk8OWzk3HKy0fv1,,,,,,,,,,,,,,,,,,7000.0,,,,62c5d0cfdf443d24e054d302,09:11:07,27/02/2024
html-keyboard-response,109,503471,0.0-46.0-3.0,,<div style='margin:auto;width: auto; font-size: 150%'><span style='font-weight: bold; font-size: 100px; color: red;'>0 points!</span><br><br></div>,,delaylearn,learning,feedback_image_window,KbzxN7yzfQbKCQk8OWzk3HKy0fv1,KbzxN7yzfQbKCQk8OWzk3HKy0fv1,,,,,,,,,,,,,,,,,,,,,,62c5d0cfdf443d24e054d302,09:11:07,27/02/2024
html-keyboard-response,110,503976,0.0-47.0-0.0,,,,,,mood_trial_fixation,KbzxN7yzfQbKCQk8OWzk3HKy0fv1,,,,,,,,,,,,,,,,,,,,,,,62c5d0cfdf443d24e054d302,09:11:07,27/02/2024
lmdlab-html-vas-response,111,508615,0.0-47.0-1.0,3627.0,How happy are you right now?,0.5173611111111112,delaylearn,learning,mood_trial,KbzxN7yzfQbKCQk8OWzk3HKy0fv1,KbzxN7yzfQbKCQk8OWzk3HKy0fv1,,,,,,,,,,,,,,,,,,,,"['Very unhappy', 'Very happy']",,62c5d0cfdf443d24e054d302,09:11:07,27/02/2024
html-keyboard-response,112,510544,0.0-48.0,,"<div style=""font-size:100px;"">+</div>",,delaylearn,learning,ITI,KbzxN7yzfQbKCQk8OWzk3HKy0fv1,KbzxN7yzfQbKCQk8OWzk3HKy0fv1,,,,,,,,,,,,,,,,,,,1913.0,,,62c5d0cfdf443d24e054d302,09:11:07,27/02/2024
html-keyboard-response,113,513228,0.0-49.0-0.0,2680.800000190735,"<div style=""display: flex; flex-direction: column; align-items: center; margin-top: -40px;""><img src=""images/pattern_7.png"" style=""width: 234px; height: 230px; margin-top: -50px;""><div style=""display: flex; justify-content: space-between; margin-top: 33px;""><img src=""images/choice_trial_14.png"" style=""width: 408px; height: 417px; margin-right: 200px;""><img src=""images/choice_trial_13.png"" style=""width: 408px; height: 417px;""></div></div>",f,delaylearn,learning,trial,KbzxN7yzfQbKCQk8OWzk3HKy0fv1,KbzxN7yzfQbKCQk8OWzk3HKy0fv1,1.0,images/choice_trial_14.png,images/choice_trial_13.png,images/pattern_7.png,j,j,750.0,14.0,13.0,6.0,1.0,21.0,0.0,0.0,14.0,100.0,,,,,,62c5d0cfdf443d24e054d302,09:11:07,27/02/2024
html-keyboard-response,114,514248,0.0-49.0-1.0,,"<div style=""display: flex; flex-direction: column; align-items: center; margin-top: -40px;""><img src=""images/pattern_7.png"" style=""width: 234px; height: 230px; margin-top: -50px;""><div style=""display: flex; justify-content: space-between; margin-top: 33px;""><img src=""images/choice_trial_14.png"" style=""width: 408px; height: 417px; margin-right: 608px;""></div></div>",,delaylearn,learning,display_response,KbzxN7yzfQbKCQk8OWzk3HKy0fv1,KbzxN7yzfQbKCQk8OWzk3HKy0fv1,,,,,,,,,,,,,,,,,chosen stimuli: images/choice_trial_14.png,,,,,62c5d0cfdf443d24e054d302,09:11:07,27/02/2024
html-keyboard-response,115,515000,0.0-49.0-2.0,,,,delaylearn,learning,feedback_duration_window,KbzxN7yzfQbKCQk8OWzk3HKy0fv1,KbzxN7yzfQbKCQk8OWzk3HKy0fv1,,,,,,,,,,,,,,,,,,750.0,,,,62c5d0cfdf443d24e054d302,09:11:07,27/02/2024
html-keyboard-response,116,516502,0.0-49.0-3.0,,<div style='margin:auto;width: auto; font-size: 150%'><span style='font-weight: bold; font-size: 100px; color: red;'>0 points!</span><br><br></div>,,delaylearn,learning,feedback_image_window,KbzxN7yzfQbKCQk8OWzk3HKy0fv1,KbzxN7yzfQbKCQk8OWzk3HKy0fv1,,,,,,,,,,,,,,,,,,,,,,62c5d0cfdf443d24e054d302,09:11:07,27/02/2024
html-keyboard-response,117,518182,0.0-50.0,,"<div style=""font-size:100px;"">+</div>",,delaylearn,learning,ITI,KbzxN7yzfQbKCQk8OWzk3HKy0fv1,KbzxN7yzfQbKCQk8OWzk3HKy0fv1,,,,,,,,,,,,,,,,,,,1676.0,,,62c5d0cfdf443d24e054d302,09:11:07,27/02/2024
html-keyboard-response,118,521190,0.0-51.0-0.0,,"<div style=""display: flex; flex-direction: column; align-items: center; margin-top: -40px;""><img src=""images/pattern_1.png"" style=""width: 234px; height: 230px; margin-top: -50px;""><div style=""display: flex; justify-content: space-between; margin-top: 33px;""><img src=""images/choice_trial_2.png"" style=""width: 408px; height: 417px; margin-right: 200px;""><img src=""images/choice_trial_1.png"" style=""width: 408px; height: 417px;""></div></div>",,delaylearn,learning,trial,KbzxN7yzfQbKCQk8OWzk3HKy0fv1,KbzxN7yzfQbKCQk8OWzk3HKy0fv1,1.0,images/choice_trial_2.png,images/choice_trial_1.png,images/pattern_1.png,f,j,7000.0,2.0,1.0,1.0,1.0,22.0,0.0,0.0,0.0,100.0,,,,,,62c5d0cfdf443d24e054d302,09:11:07,27/02/2024
html-keyboard-response,119,522199,0.0-51.0-1.0,,<div style='font-weight: bold; font-size: 75px; color: red;'>Missed Trial <br><br><br><br> Please respond faster</div>,,delaylearn,learning,display_response,KbzxN7yzfQbKCQk8OWzk3HKy0fv1,KbzxN7yzfQbKCQk8OWzk3HKy0fv1,,,,,,,,,,,,,,,,,Missed trial,,,,,62c5d0cfdf443d24e054d302,09:11:07,27/02/2024
html-keyboard-response,120,522204,0.0-51.0-2.0,,,,delaylearn,learning,feedback_duration_window,KbzxN7yzfQbKCQk8OWzk3HKy0fv1,KbzxN7yzfQbKCQk8OWzk3HKy0fv1,,,,,,,,,,,,,,,,,,0.0,,,,62c5d0cfdf443d24e054d302,09:11:07,27/02/2024
html-keyboard-response,121,522211,0.0-51.0-3.0,,,,delaylearn,learning,feedback_image_window,KbzxN7yzfQbKCQk8OWzk3HKy0fv1,KbzxN7yzfQbKCQk8OWzk3HKy0fv1,,,,,,,,,,,,,,,,,,,,,,62c5d0cfdf443d24e054d302,09:11:07,27/02/2024
html-keyboard-response,122,524659,0.0-52.0,,"<div style=""font-size:100px;"">+</div>",,delaylearn,learning,ITI,KbzxN7yzfQbKCQk8OWzk3HKy0fv1,KbzxN7yzfQbKCQk8OWzk3HKy0fv1,,,,,,,,,,,,,,,,,,,2437.0,,,62c5d0cfdf443d24e054d302,09:11:07,27/02/2024
html-keyboard-response,123,526248,0.0-53.0-0.0,1585.5999999046326,"<div style=""display: flex; flex-direction: column; align-items: center; margin-top: -40px;""><img src=""images/pattern_5.png"" style=""width: 234px; height: 230px; margin-top: -50px;""><div style=""display: flex; justify-content: space-between; margin-top: 33px;""><img src=""images/choice_trial_10.png"" style=""width: 408px; height: 417px; margin-right: 200px;""><img src=""images/choice_trial_9.png"" style=""width: 408px; height: 417px;""></div></div>",j,delaylearn,learning,trial,KbzxN7yzfQbKCQk8OWzk3HKy0fv1,KbzxN7yzfQbKCQk8OWzk3HKy0fv1,1.0,images/choice_trial_10.png,images/choice_trial_9.png,images/pattern_5.png,j,j,750.0,10.0,9.0,4.0,1.0,23.0,1.0,1.0,9.0,110.0,,,,,,62c5d0cfdf443d24e054d302,09:11:07,27/02/2024
html-keyboard-response,124,527260,0.0-53.0-1.0,,"<div style=""display: flex; flex-direction: column; align-items: center; margin-top: -40px;""><img src=""images/pattern_5.png"" style=""width: 234px; height: 230px; margin-top: -50px;""><div style=""display: flex; justify-content: space-between; margin-top: 33px;""><img src=""images/choice_trial_9.png"" style=""width: 408px; height: 417px; margin-left:608px;""></div></div>",,delaylearn,learning,display_response,KbzxN7yzfQbKCQk8OWzk3HKy0fv1,KbzxN7yzfQbKCQk8OWzk3HKy0fv1,,,,,,,,,,,,,,,,,chosen stimuli: images/choice_trial_9.png,,,,,62c5d0cfdf443d24e054d302,09:11:07,27/02/2024
html-keyboard-response,125,528013,0.0-53.0-2.0,,,,delaylearn,learning,feedback_duration_window,KbzxN7yzfQbKCQk8OWzk3HKy0fv1,KbzxN7yzfQbKCQk8OWzk3HKy0fv1,,,,,,,,,,,,,,,,,,750.0,,,,62c5d0cfdf443d24e054d302,09:11:07,27/02/2024
html-keyboard-response,126,529516,0.0-53.0-3.0,,<div style='margin:auto;width: auto; font-size: 150%'><span style='font-weight: bold; font-size: 100px; color: green;'>+10 points!</span><br><br></div>,,delaylearn,learning,feedback_image_window,KbzxN7yzfQbKCQk8OWzk3HKy0fv1,KbzxN7yzfQbKCQk8OWzk3HKy0fv1,,,,,,,,,,,,,,,,,,,,,,62c5d0cfdf443d24e054d302,09:11:07,27/02/2024
html-keyboard-response,127,531702,0.0-54.0,,"<div style=""font-size:100px;"">+</div>",,delaylearn,learning,ITI,KbzxN7yzfQbKCQk8OWzk3HKy0fv1,KbzxN7yzfQbKCQk8OWzk3HKy0fv1,,,,,,,,,,,,,,,,,,,2176.0,,,62c5d0cfdf443d24e054d302,09:11:07,27/02/2024
html-keyboard-response,128,533497,0.0-55.0-0.0,1789.1999998092651,"<div style=""display: flex; flex-direction: column; align-items: center; margin-top: -40px;""><img src=""images/pattern_3.png"" style=""width: 234px; height: 230px; margin-top: -50px;""><div style=""display: flex; justify-content: space-between; margin-top: 33px;""><img src=""images/choice_trial_6.png"" style=""width: 408px; height: 417px; margin-right: 200px;""><img src=""images/choice_trial_5.png"" style=""width: 408px; height: 417px;""></div></div>",f,delaylearn,learning,trial,KbzxN7yzfQbKCQk8OWzk3HKy0fv1,KbzxN7yzfQbKCQk8OWzk3HKy0fv1,1.0,images/choice_trial_6.png,images/choice_trial_5.png,images/pattern_3.png,j,j,7000.0,6.0,5.0,2.0,1.0,24.0,0.0,0.0,6.0,110.0,,,,,,62c5d0cfdf443d24e054d302,09:11:07,27/02/2024
html-keyboard-response,129,534500,0.0-55.0-1.0,,"<div style=""display: flex; flex-direction: column; align-items: center; margin-top: -40px;""><img src=""images/pattern_3.png"" style=""width: 234px; height: 230px; margin-top: -50px;""><div style=""display: flex; justify-content: space-between; margin-top: 33px;""><img src=""images/choice_trial_6.png"" style=""width: 408px; height: 417px; margin-right: 608px;""></div></div>",,delaylearn,learning,display_response,KbzxN7yzfQbKCQk8OWzk3HKy0fv1,KbzxN7yzfQbKCQk8OWzk3HKy0fv1,,,,,,,,,,,,,,,,,chosen stimuli: images/choice_trial_6.png,,,,,62c5d0cfdf443d24e054d302,09:11:07,27/02/2024
html-keyboard-response,130,541508,0.0-55.0-2.0,,,,delaylearn,learning,feedback_duration_window,KbzxN7yzfQbKCQk8OWzk3HKy0fv1,KbzxN7yzfQbKCQk8OWzk3HKy0fv1,,,,,,,,,,,,,,,,,,7000.0,,,,62c5d0cfdf443d24e054d302,09:11:07,27/02/2024
html-keyboard-response,131,543013,0.0-55.0-3.0,,<div style='margin:auto;width: auto; font-size: 150%'><span style='font-weight: bold; font-size: 100px; color: red;'>0 points!</span><br><br></div>,,delaylearn,learning,feedback_image_window,KbzxN7yzfQbKCQk8OWzk3HKy0fv1,KbzxN7yzfQbKCQk8OWzk3HKy0fv1,,,,,,,,,,,,,,,,,,,,,,62c5d0cfdf443d24e054d302,09:11:07,27/02/2024
lmdlab-html-vas-response,132,550457,0.0-56.0-0.0,5928.0,*How <b><u>confident</u></b> are you feeling about your answers at this moment?*,0.11226851851851852,rewlearn,rate_confidence,,KbzxN7yzfQbKCQk8OWzk3HKy0fv1,KbzxN7yzfQbKCQk8OWzk3HKy0fv1,,,,,,,,,,,,,,,,,,,,"['No confidence', 'Complete confidence']",,62c5d0cfdf443d24e054d302,09:11:07,27/02/2024
lmdlab-rest-trial-limit,133,814855,0.0-56.0-1.0,262891.40000009537,"<div style=""font-size:40px;""><b>Please take a break!</b><br><br><br><br><p>Great work: you earned undefined points.<br><br><br><p>You have completed part(s) 1 of 6.<br><br><br><br>When you are ready to continue<br><br><br>please click the button.</p><br><br>",0,delaylearn,learning,break,KbzxN7yzfQbKCQk8OWzk3HKy0fv1,KbzxN7yzfQbKCQk8OWzk3HKy0fv1,,,,,,,,,,,,,,,,,,,,,0.0,62c5d0cfdf443d24e054d302,09:11:07,27/02/2024
html-keyboard-response,134,817864,0.0-56.0-2.0,,"<div style=""font-size:100px;"">+</div>",,delaylearn,learning,pre_fixation,KbzxN7yzfQbKCQk8OWzk3HKy0fv1,,,,,,,,,,,,,,,,,,,,,,,62c5d0cfdf443d24e054d302,09:11:07,27/02/2024
lmdlab-html-vas-response,135,823282,0.0-56.0-3.0-0.0,4404.0,How happy are you right now?,0.5763888888888888,delaylearn,learning,mood_baseline,KbzxN7yzfQbKCQk8OWzk3HKy0fv1,KbzxN7yzfQbKCQk8OWzk3HKy0fv1,,,,,,,,,,,,,,,,,,,,"['Very unhappy', 'Very happy']",,62c5d0cfdf443d24e054d302,09:11:07,27/02/2024
html-keyboard-response,136,824798,0.0-56.0-3.0-1.0,,,,,,mood_baseline_fixation,KbzxN7yzfQbKCQk8OWzk3HKy0fv1,,,,,,,,,,,,,,,,,,,,,,,62c5d0cfdf443d24e054d302,09:11:07,27/02/2024
html-keyboard-response,137,826333,0.0-57.0,,"<div style=""font-size:100px;"">+</div>",,delaylearn,learning,ITI,KbzxN7yzfQbKCQk8OWzk3HKy0fv1,KbzxN7yzfQbKCQk8OWzk3HKy0fv1,,,,,,,,,,,,,,,,,,,1527.0,,,62c5d0cfdf443d24e054d302,09:11:07,27/02/2024
html-keyboard-response,138,828729,0.0-58.0-0.0,2392.2000000476837,"<div style=""display: flex; flex-direction: column; align-items: center; margin-top: -40px;""><img src=""images/pattern_7.png"" style=""width: 234px; height: 230px; margin-top: -50px;""><div style=""display: flex; justify-content: space-between; margin-top: 33px;""><img src=""images/choice_trial_14.png"" style=""width: 408px; height: 417px; margin-right: 200px;""><img src=""images/choice_trial_13.png"" style=""width: 408px; height: 417px;""></div></div>",j,delaylearn,learning,trial,KbzxN7yzfQbKCQk8OWzk3HKy0fv1,KbzxN7yzfQbKCQk8OWzk3HKy0fv1,1.0,images/choice_trial_14.png,images/choice_trial_13.png,images/pattern_7.png,j,j,750.0,14.0,13.0,6.0,1.0,25.0,1.0,1.0,13.0,120.0,,,,,,62c5d0cfdf443d24e054d302,09:11:07,27/02/2024
html-keyboard-response,139,829735,0.0-58.0-1.0,,"<div style=""display: flex; flex-direction: column; align-items: center; margin-top: -40px;""><img src=""images/pattern_7.png"" style=""width: 234px; height: 230px; margin-top: -50px;""><div style=""display: flex; justify-content: space-between; margin-top: 33px;""><img src=""images/choice_trial_13.png"" style=""width: 408px; height: 417px; margin-left:608px;""></div></div>",,delaylearn,learning,display_response,KbzxN7yzfQbKCQk8OWzk3HKy0fv1,KbzxN7yzfQbKCQk8OWzk3HKy0fv1,,,,,,,,,,,,,,,,,chosen stimuli: images/choice_trial_13.png,,,,,62c5d0cfdf443d24e054d302,09:11:07,27/02/2024
html-keyboard-response,140,830493,0.0-58.0-2.0,,,,delaylearn,learning,feedback_duration_window,KbzxN7yzfQbKCQk8OWzk3HKy0fv1,KbzxN7yzfQbKCQk8OWzk3HKy0fv1,,,,,,,,,,,,,,,,,,750.0,,,,62c5d0cfdf443d24e054d302,09:11:07,27/02/2024
html-keyboard-response,141,832007,0.0-58.0-3.0,,<div style='margin:auto;width: auto; font-size: 150%'><span style='font-weight: bold; font-size: 100px; color: green;'>+10 points!</span><br><br></div>,,delaylearn,learning,feedback_image_window,KbzxN7yzfQbKCQk8OWzk3HKy0fv1,KbzxN7yzfQbKCQk8OWzk3HKy0fv1,,,,,,,,,,,,,,,,,,,,,,62c5d0cfdf443d24e054d302,09:11:07,27/02/2024
html-keyboard-response,142,832510,0.0-59.0-0.0,,,,,,mood_trial_fixation,KbzxN7yzfQbKCQk8OWzk3HKy0fv1,,,,,,,,,,,,,,,,,,,,,,,62c5d0cfdf443d24e054d302,09:11:07,27/02/2024
lmdlab-html-vas-response,143,843277,0.0-59.0-1.0,9759.0,How happy are you right now?,0.5891203703703703,delaylearn,learning,mood_trial,KbzxN7yzfQbKCQk8OWzk3HKy0fv1,KbzxN7yzfQbKCQk8OWzk3HKy0fv1,,,,,,,,,,,,,,,,,,,,"['Very unhappy', 'Very happy']",,62c5d0cfdf443d24e054d302,09:11:07,27/02/2024
html-keyboard-response,144,845379,0.0-60.0,,"<div style=""font-size:100px;"">+</div>",,delaylearn,learning,ITI,KbzxN7yzfQbKCQk8OWzk3HKy0fv1,KbzxN7yzfQbKCQk8OWzk3HKy0fv1,,,,,,,,,,,,,,,,,,,2100.0,,,62c5d0cfdf443d24e054d302,09:11:07,27/02/2024
html-keyboard-response,145,847460,0.0-61.0-0.0,2077.899999856949,"<div style=""display: flex; flex-direction: column; align-items: center; margin-top: -40px;""><img src=""images/pattern_1.png"" style=""width: 234px; height: 230px; margin-top: -50px;""><div style=""display: flex; justify-content: space-between; margin-top: 33px;""><img src=""images/choice_trial_1.png"" style=""width: 408px; height: 417px; margin-right: 200px;""><img src=""images/choice_trial_2.png"" style=""width: 408px; height: 417px;""></div></div>",j,delaylearn,learning,trial,KbzxN7yzfQbKCQk8OWzk3HKy0fv1,KbzxN7yzfQbKCQk8OWzk3HKy0fv1,1.0,images/choice_trial_1.png,images/choice_trial_2.png,images/pattern_1.png,f,f,7000.0,1.0,2.0,1.0,0.0,26.0,0.0,0.0,2.0,120.0,,,,,,62c5d0cfdf443d24e054d302,09:11:07,27/02/2024
html-keyboard-response,146,848473,0.0-61.0-1.0,,"<div style=""display: flex; flex-direction: column; align-items: center; margin-top: -40px;""><img src=""images/pattern_1.png"" style=""width: 234px; height: 230px; margin-top: -50px;""><div style=""display: flex; justify-content: space-between; margin-top: 33px;""><img src=""images/choice_trial_2.png"" style=""width: 408px; height: 417px; margin-left:608px;""></div></div>",,delaylearn,learning,display_response,KbzxN7yzfQbKCQk8OWzk3HKy0fv1,KbzxN7yzfQbKCQk8OWzk3HKy0fv1,,,,,,,,,,,,,,,,,chosen stimuli: images/choice_trial_2.png,,,,,62c5d0cfdf443d24e054d302,09:11:07,27/02/2024
html-keyboard-response,147,855482,0.0-61.0-2.0,,,,delaylearn,learning,feedback_duration_window,KbzxN7yzfQbKCQk8OWzk3HKy0fv1,KbzxN7yzfQbKCQk8OWzk3HKy0fv1,,,,,,,,,,,,,,,,,,7000.0,,,,62c5d0cfdf443d24e054d302,09:11:07,27/02/2024
html-keyboard-response,148,856997,0.0-61.0-3.0,,<div style='margin:auto;width: auto; font-size: 150%'><span style='font-weight: bold; font-size: 100px; color: red;'>0 points!</span><br><br></div>,,delaylearn,learning,feedback_image_window,KbzxN7yzfQbKCQk8OWzk3HKy0fv1,KbzxN7yzfQbKCQk8OWzk3HKy0fv1,,,,,,,,,,,,,,,,,,,,,,62c5d0cfdf443d24e054d302,09:11:07,27/02/2024
html-keyboard-response,149,858567,0.0-62.0,,"<div style=""font-size:100px;"">+</div>",,delaylearn,learning,ITI,KbzxN7yzfQbKCQk8OWzk3HKy0fv1,KbzxN7yzfQbKCQk8OWzk3HKy0fv1,,,,,,,,,,,,,,,,,,,1560.0,,,62c5d0cfdf443d24e054d302,09:11:07,27/02/2024
html-keyboard-response,150,861199,0.0-63.0-0.0,2628.4000000953674,"<div style=""display: flex; flex-direction: column; align-items: center; margin-top: -40px;""><img src=""images/pattern_5.png"" style=""width: 234px; height: 230px; margin-top: -50px;""><div style=""display: flex; justify-content: space-between; margin-top: 33px;""><img src=""images/choice_trial_9.png"" style=""width: 408px; height: 417px; margin-right: 200px;""><img src=""images/choice_trial_10.png"" style=""width: 408px; height: 417px;""></div></div>",f,delaylearn,learning,trial,KbzxN7yzfQbKCQk8OWzk3HKy0fv1,KbzxN7yzfQbKCQk8OWzk3HKy0fv1,1.0,images/choice_trial_9.png,images/choice_trial_10.png,images/pattern_5.png,f,f,750.0,9.0,10.0,4.0,0.0,27.0,1.0,1.0,9.0,130.0,,,,,,62c5d0cfdf443d24e054d302,09:11:07,27/02/2024
html-keyboard-response,151,862205,0.0-63.0-1.0,,"<div style=""display: flex; flex-direction: column; align-items: center; margin-top: -40px;""><img src=""images/pattern_5.png"" style=""width: 234px; height: 230px; margin-top: -50px;""><div style=""display: flex; justify-content: space-between; margin-top: 33px;""><img src=""images/choice_trial_9.png"" style=""width: 408px; height: 417px; margin-right: 608px;""></div></div>",,delaylearn,learning,display_response,KbzxN7yzfQbKCQk8OWzk3HKy0fv1,KbzxN7yzfQbKCQk8OWzk3HKy0fv1,,,,,,,,,,,,,,,,,chosen stimuli: images/choice_trial_9.png,,,,,62c5d0cfdf443d24e054d302,09:11:07,27/02/2024
html-keyboard-response,152,862962,0.0-63.0-2.0,,,,delaylearn,learning,feedback_duration_window,KbzxN7yzfQbKCQk8OWzk3HKy0fv1,KbzxN7yzfQbKCQk8OWzk3HKy0fv1,,,,,,,,,,,,,,,,,,750.0,,,,62c5d0cfdf443d24e054d302,09:11:07,27/02/2024
html-keyboard-response,153,864472,0.0-63.0-3.0,,<div style='margin:auto;width: auto; font-size: 150%'><span style='font-weight: bold; font-size: 100px; color: green;'>+10 points!</span><br><br></div>,,delaylearn,learning,feedback_image_window,KbzxN7yzfQbKCQk8OWzk3HKy0fv1,KbzxN7yzfQbKCQk8OWzk3HKy0fv1,,,,,,,,,,,,,,,,,,,,,,62c5d0cfdf443d24e054d302,09:11:07,27/02/2024
html-keyboard-response,154,866591,0.0-64.0,,"<div style=""font-size:100px;"">+</div>",,delaylearn,learning,ITI,KbzxN7yzfQbKCQk8OWzk3HKy0fv1,KbzxN7yzfQbKCQk8OWzk3HKy0fv1,,,,,,,,,,,,,,,,,,,2105.0,,,62c5d0cfdf443d24e054d302,09:11:07,27/02/2024
html-keyboard-response,155,869119,0.0-65.0-0.0,2524.7999999523163,"<div style=""display: flex; flex-direction: column; align-items: center; margin-top: -40px;""><img src=""images/pattern_6.png"" style=""width: 234px; height: 230px; margin-top: -50px;""><div style=""display: flex; justify-content: space-between; margin-top: 33px;""><img src=""images/choice_trial_12.png"" style=""width: 408px; height: 417px; margin-right: 200px;""><img src=""images/choice_trial_11.png"" style=""width: 408px; height: 417px;""></div></div>",f,delaylearn,learning,trial,KbzxN7yzfQbKCQk8OWzk3HKy0fv1,KbzxN7yzfQbKCQk8OWzk3HKy0fv1,1.0,images/choice_trial_12.png,images/choice_trial_11.png,images/pattern_6.png,j,j,750.0,12.0,11.0,5.0,1.0,28.0,0.0,0.0,12.0,130.0,,,,,,62c5d0cfdf443d24e054d302,09:11:07,27/02/2024
html-keyboard-response,156,870127,0.0-65.0-1.0,,"<div style=""display: flex; flex-direction: column; align-items: center; margin-top: -40px;""><img src=""images/pattern_6.png"" style=""width: 234px; height: 230px; margin-top: -50px;""><div style=""display: flex; justify-content: space-between; margin-top: 33px;""><img src=""images/choice_trial_12.png"" style=""width: 408px; height: 417px; margin-right: 608px;""></div></div>",,delaylearn,learning,display_response,KbzxN7yzfQbKCQk8OWzk3HKy0fv1,KbzxN7yzfQbKCQk8OWzk3HKy0fv1,,,,,,,,,,,,,,,,,chosen stimuli: images/choice_trial_12.png,,,,,62c5d0cfdf443d24e054d302,09:11:07,27/02/2024
html-keyboard-response,157,870878,0.0-65.0-2.0,,,,delaylearn,learning,feedback_duration_window,KbzxN7yzfQbKCQk8OWzk3HKy0fv1,KbzxN7yzfQbKCQk8OWzk3HKy0fv1,,,,,,,,,,,,,,,,,,750.0,,,,62c5d0cfdf443d24e054d302,09:11:07,27/02/2024
html-keyboard-response,158,872394,0.0-65.0-3.0,,<div style='margin:auto;width: auto; font-size: 150%'><span style='font-weight: bold; font-size: 100px; color: red;'>0 points!</span><br><br></div>,,delaylearn,learning,feedback_image_window,KbzxN7yzfQbKCQk8OWzk3HKy0fv1,KbzxN7yzfQbKCQk8OWzk3HKy0fv1,,,,,,,,,,,,,,,,,,,,,,62c5d0cfdf443d24e054d302,09:11:07,27/02/2024
html-keyboard-response,159,872897,0.0-66.0-0.0,,,,,,mood_trial_fixation,KbzxN7yzfQbKCQk8OWzk3HKy0fv1,,,,,,,,,,,,,,,,,,,,,,,62c5d0cfdf443d24e054d302,09:11:07,27/02/2024
lmdlab-html-vas-response,160,878314,0.0-66.0-1.0,4406.0,How happy are you right now?,0.5659722222222222,delaylearn,learning,mood_trial,KbzxN7yzfQbKCQk8OWzk3HKy0fv1,KbzxN7yzfQbKCQk8OWzk3HKy0fv1,,,,,,,,,,,,,,,,,,,,"['Very unhappy', 'Very happy']",,62c5d0cfdf443d24e054d302,09:11:07,27/02/2024
html-keyboard-response,161,880486,0.0-67.0,,"<div style=""font-size:100px;"">+</div>",,delaylearn,learning,ITI,KbzxN7yzfQbKCQk8OWzk3HKy0fv1,KbzxN7yzfQbKCQk8OWzk3HKy0fv1,,,,,,,,,,,,,,,,,,,2168.0,,,62c5d0cfdf443d24e054d302,09:11:07,27/02/2024
html-keyboard-response,162,883494,0.0-68.0-0.0,,"<div style=""display: flex; flex-direction: column; align-items: center; margin-top: -40px;""><img src=""images/pattern_4.png"" style=""width: 234px; height: 230px; margin-top: -50px;""><div style=""display: flex; justify-content: space-between; margin-top: 33px;""><img src=""images/choice_trial_8.png"" style=""width: 408px; height: 417px; margin-right: 200px;""><img src=""images/choice_trial_7.png"" style=""width: 408px; height: 417px;""></div></div>",,delaylearn,learning,trial,KbzxN7yzfQbKCQk8OWzk3HKy0fv1,KbzxN7yzfQbKCQk8OWzk3HKy0fv1,1.0,images/choice_trial_8.png,images/choice_trial_7.png,images/pattern_4.png,j,j,7000.0,8.0,7.0,3.0,1.0,29.0,0.0,0.0,0.0,130.0,,,,,,62c5d0cfdf443d24e054d302,09:11:07,27/02/2024
html-keyboard-response,163,884504,0.0-68.0-1.0,,<div style='font-weight: bold; font-size: 75px; color: red;'>Missed Trial <br><br><br><br> Please respond faster</div>,,delaylearn,learning,display_response,KbzxN7yzfQbKCQk8OWzk3HKy0fv1,KbzxN7yzfQbKCQk8OWzk3HKy0fv1,,,,,,,,,,,,,,,,,Missed trial,,,,,62c5d0cfdf443d24e054d302,09:11:07,27/02/2024
html-keyboard-response,164,884510,0.0-68.0-2.0,,,,delaylearn,learning,feedback_duration_window,KbzxN7yzfQbKCQk8OWzk3HKy0fv1,KbzxN7yzfQbKCQk8OWzk3HKy0fv1,,,,,,,,,,,,,,,,,,0.0,,,,62c5d0cfdf443d24e054d302,09:11:07,27/02/2024
html-keyboard-response,165,884515,0.0-68.0-3.0,,,,delaylearn,learning,feedback_image_window,KbzxN7yzfQbKCQk8OWzk3HKy0fv1,KbzxN7yzfQbKCQk8OWzk3HKy0fv1,,,,,,,,,,,,,,,,,,,,,,62c5d0cfdf443d24e054d302,09:11:07,27/02/2024
html-keyboard-response,166,886228,0.0-69.0,,"<div style=""font-size:100px;"">+</div>",,delaylearn,learning,ITI,KbzxN7yzfQbKCQk8OWzk3HKy0fv1,KbzxN7yzfQbKCQk8OWzk3HKy0fv1,,,,,,,,,,,,,,,,,,,1711.0,,,62c5d0cfdf443d24e054d302,09:11:07,27/02/2024
html-keyboard-response,167,887764,0.0-70.0-0.0,1531.5999999046326,"<div style=""display: flex; flex-direction: column; align-items: center; margin-top: -40px;""><img src=""images/pattern_3.png"" style=""width: 234px; height: 230px; margin-top: -50px;""><div style=""display: flex; justify-content: space-between; margin-top: 33px;""><img src=""images/choice_trial_6.png"" style=""width: 408px; height: 417px; margin-right: 200px;""><img src=""images/choice_trial_5.png"" style=""width: 408px; height: 417px;""></div></div>",f,delaylearn,learning,trial,KbzxN7yzfQbKCQk8OWzk3HKy0fv1,KbzxN7yzfQbKCQk8OWzk3HKy0fv1,1.0,images/choice_trial_6.png,images/choice_trial_5.png,images/pattern_3.png,j,j,7000.0,6.0,5.0,2.0,1.0,30.0,0.0,0.0,6.0,130.0,,,,,,62c5d0cfdf443d24e054d302,09:11:07,27/02/2024
html-keyboard-response,168,888771,0.0-70.0-1.0,,"<div style=""display: flex; flex-direction: column; align-items: center; margin-top: -40px;""><img src=""images/pattern_3.png"" style=""width: 234px; height: 230px; margin-top: -50px;""><div style=""display: flex; justify-content: space-between; margin-top: 33px;""><img src=""images/choice_trial_6.png"" style=""width: 408px; height: 417px; margin-right: 608px;""></div></div>",,delaylearn,learning,display_response,KbzxN7yzfQbKCQk8OWzk3HKy0fv1,KbzxN7yzfQbKCQk8OWzk3HKy0fv1,,,,,,,,,,,,,,,,,chosen stimuli: images/choice_trial_6.png,,,,,62c5d0cfdf443d24e054d302,09:11:07,27/02/2024
html-keyboard-response,169,895779,0.0-70.0-2.0,,,,delaylearn,learning,feedback_duration_window,KbzxN7yzfQbKCQk8OWzk3HKy0fv1,KbzxN7yzfQbKCQk8OWzk3HKy0fv1,,,,,,,,,,,,,,,,,,7000.0,,,,62c5d0cfdf443d24e054d302,09:11:07,27/02/2024
html-keyboard-response,170,897287,0.0-70.0-3.0,,<div style='margin:auto;width: auto; font-size: 150%'><span style='font-weight: bold; font-size: 100px; color: red;'>0 points!</span><br><br></div>,,delaylearn,learning,feedback_image_window,KbzxN7yzfQbKCQk8OWzk3HKy0fv1,KbzxN7yzfQbKCQk8OWzk3HKy0fv1,,,,,,,,,,,,,,,,,,,,,,62c5d0cfdf443d24e054d302,09:11:07,27/02/2024
html-keyboard-response,171,899771,0.0-71.0,,"<div style=""font-size:100px;"">+</div>",,delaylearn,learning,ITI,KbzxN7yzfQbKCQk8OWzk3HKy0fv1,KbzxN7yzfQbKCQk8OWzk3HKy0fv1,,,,,,,,,,,,,,,,,,,2473.0,,,62c5d0cfdf443d24e054d302,09:11:07,27/02/2024
html-keyboard-response,172,901574,0.0-72.0-0.0,1799.6999998092651,"<div style=""display: flex; flex-direction: column; align-items: center; margin-top: -40px;""><img src=""images/pattern_5.png"" style=""width: 234px; height: 230px; margin-top: -50px;""><div style=""display: flex; justify-content: space-between; margin-top: 33px;""><img src=""images/choice_trial_9.png"" style=""width: 408px; height: 417px; margin-right: 200px;""><img src=""images/choice_trial_10.png"" style=""width: 408px; height: 417px;""></div></div>",j,delaylearn,learning,trial,KbzxN7yzfQbKCQk8OWzk3HKy0fv1,KbzxN7yzfQbKCQk8OWzk3HKy0fv1,1.0,images/choice_trial_9.png,images/choice_trial_10.png,images/pattern_5.png,j,f,750.0,9.0,10.0,4.0,0.0,31.0,0.0,1.0,10.0,140.0,,,,,,62c5d0cfdf443d24e054d302,09:11:07,27/02/2024
html-keyboard-response,173,902578,0.0-72.0-1.0,,"<div style=""display: flex; flex-direction: column; align-items: center; margin-top: -40px;""><img src=""images/pattern_5.png"" style=""width: 234px; height: 230px; margin-top: -50px;""><div style=""display: flex; justify-content: space-between; margin-top: 33px;""><img src=""images/choice_trial_10.png"" style=""width: 408px; height: 417px; margin-left:608px;""></div></div>",,delaylearn,learning,display_response,KbzxN7yzfQbKCQk8OWzk3HKy0fv1,KbzxN7yzfQbKCQk8OWzk3HKy0fv1,,,,,,,,,,,,,,,,,chosen stimuli: images/choice_trial_10.png,,,,,62c5d0cfdf443d24e054d302,09:11:07,27/02/2024
html-keyboard-response,174,903334,0.0-72.0-2.0,,,,delaylearn,learning,feedback_duration_window,KbzxN7yzfQbKCQk8OWzk3HKy0fv1,KbzxN7yzfQbKCQk8OWzk3HKy0fv1,,,,,,,,,,,,,,,,,,750.0,,,,62c5d0cfdf443d24e054d302,09:11:07,27/02/2024
html-keyboard-response,175,904836,0.0-72.0-3.0,,<div style='margin:auto;width: auto; font-size: 150%'><span style='font-weight: bold; font-size: 100px; color: green;'>+10 points!</span><br><br></div>,,delaylearn,learning,feedback_image_window,KbzxN7yzfQbKCQk8OWzk3HKy0fv1,KbzxN7yzfQbKCQk8OWzk3HKy0fv1,,,,,,,,,,,,,,,,,,,,,,62c5d0cfdf443d24e054d302,09:11:07,27/02/2024
html-keyboard-response,176,906776,0.0-73.0,,"<div style=""font-size:100px;"">+</div>",,delaylearn,learning,ITI,KbzxN7yzfQbKCQk8OWzk3HKy0fv1,KbzxN7yzfQbKCQk8OWzk3HKy0fv1,,,,,,,,,,,,,,,,,,,1938.0,,,62c5d0cfdf443d24e054d302,09:11:07,27/02/2024
html-keyboard-response,177,908558,0.0-74.0-0.0,1779.1000001430511,"<div style=""display: flex; flex-direction: column; align-items: center; margin-top: -40px;""><img src=""images/pattern_1.png"" style=""width: 234px; height: 230px; margin-top: -50px;""><div style=""display: flex; justify-content: space-between; margin-top: 33px;""><img src=""images/choice_trial_1.png"" style=""width: 408px; height: 417px; margin-right: 200px;""><img src=""images/choice_trial_2.png"" style=""width: 408px; height: 417px;""></div></div>",f,delaylearn,learning,trial,KbzxN7yzfQbKCQk8OWzk3HKy0fv1,KbzxN7yzfQbKCQk8OWzk3HKy0fv1,1.0,images/choice_trial_1.png,images/choice_trial_2.png,images/pattern_1.png,f,f,7000.0,1.0,2.0,1.0,0.0,32.0,1.0,1.0,1.0,150.0,,,,,,62c5d0cfdf443d24e054d302,09:11:07,27/02/2024
html-keyboard-response,178,909568,0.0-74.0-1.0,,"<div style=""display: flex; flex-direction: column; align-items: center; margin-top: -40px;""><img src=""images/pattern_1.png"" style=""width: 234px; height: 230px; margin-top: -50px;""><div style=""display: flex; justify-content: space-between; margin-top: 33px;""><img src=""images/choice_trial_1.png"" style=""width: 408px; height: 417px; margin-right: 608px;""></div></div>",,delaylearn,learning,display_response,KbzxN7yzfQbKCQk8OWzk3HKy0fv1,KbzxN7yzfQbKCQk8OWzk3HKy0fv1,,,,,,,,,,,,,,,,,chosen stimuli: images/choice_trial_1.png,,,,,62c5d0cfdf443d24e054d302,09:11:07,27/02/2024
html-keyboard-response,179,916576,0.0-74.0-2.0,,,,delaylearn,learning,feedback_duration_window,KbzxN7yzfQbKCQk8OWzk3HKy0fv1,KbzxN7yzfQbKCQk8OWzk3HKy0fv1,,,,,,,,,,,,,,,,,,7000.0,,,,62c5d0cfdf443d24e054d302,09:11:07,27/02/2024
html-keyboard-response,180,918084,0.0-74.0-3.0,,<div style='margin:auto;width: auto; font-size: 150%'><span style='font-weight: bold; font-size: 100px; color: green;'>+10 points!</span><br><br></div>,,delaylearn,learning,feedback_image_window,KbzxN7yzfQbKCQk8OWzk3HKy0fv1,KbzxN7yzfQbKCQk8OWzk3HKy0fv1,,,,,,,,,,,,,,,,,,,,,,62c5d0cfdf443d24e054d302,09:11:07,27/02/2024
html-keyboard-response,181,918593,0.0-75.0-0.0,,,,,,mood_trial_fixation,KbzxN7yzfQbKCQk8OWzk3HKy0fv1,,,,,,,,,,,,,,,,,,,,,,,62c5d0cfdf443d24e054d302,09:11:07,27/02/2024
lmdlab-html-vas-response,182,924322,0.0-75.0-1.0,4723.0,How happy are you right now?,0.6886574074074074,delaylearn,learning,mood_trial,KbzxN7yzfQbKCQk8OWzk3HKy0fv1,KbzxN7yzfQbKCQk8OWzk3HKy0fv1,,,,,,,,,,,,,,,,,,,,"['Very unhappy', 'Very happy']",,62c5d0cfdf443d24e054d302,09:11:07,27/02/2024
html-keyboard-response,183,926010,0.0-76.0,,"<div style=""font-size:100px;"">+</div>",,delaylearn,learning,ITI,KbzxN7yzfQbKCQk8OWzk3HKy0fv1,KbzxN7yzfQbKCQk8OWzk3HKy0fv1,,,,,,,,,,,,,,,,,,,1679.0,,,62c5d0cfdf443d24e054d302,09:11:07,27/02/2024
html-keyboard-response,184,928337,0.0-77.0-0.0,2323.2999999523163,"<div style=""display: flex; flex-direction: column; align-items: center; margin-top: -40px;""><img src=""images/pattern_6.png"" style=""width: 234px; height: 230px; margin-top: -50px;""><div style=""display: flex; justify-content: space-between; margin-top: 33px;""><img src=""images/choice_trial_11.png"" style=""width: 408px; height: 417px; margin-right: 200px;""><img src=""images/choice_trial_12.png"" style=""width: 408px; height: 417px;""></div></div>",f,delaylearn,learning,trial,KbzxN7yzfQbKCQk8OWzk3HKy0fv1,KbzxN7yzfQbKCQk8OWzk3HKy0fv1,1.0,images/choice_trial_11.png,images/choice_trial_12.png,images/pattern_6.png,j,f,750.0,11.0,12.0,5.0,0.0,33.0,1.0,0.0,11.0,150.0,,,,,,62c5d0cfdf443d24e054d302,09:11:07,27/02/2024
html-keyboard-response,185,929354,0.0-77.0-1.0,,"<div style=""display: flex; flex-direction: column; align-items: center; margin-top: -40px;""><img src=""images/pattern_6.png"" style=""width: 234px; height: 230px; margin-top: -50px;""><div style=""display: flex; justify-content: space-between; margin-top: 33px;""><img src=""images/choice_trial_11.png"" style=""width: 408px; height: 417px; margin-right: 608px;""></div></div>",,delaylearn,learning,display_response,KbzxN7yzfQbKCQk8OWzk3HKy0fv1,KbzxN7yzfQbKCQk8OWzk3HKy0fv1,,,,,,,,,,,,,,,,,chosen stimuli: images/choice_trial_11.png,,,,,62c5d0cfdf443d24e054d302,09:11:07,27/02/2024
html-keyboard-response,186,930106,0.0-77.0-2.0,,,,delaylearn,learning,feedback_duration_window,KbzxN7yzfQbKCQk8OWzk3HKy0fv1,KbzxN7yzfQbKCQk8OWzk3HKy0fv1,,,,,,,,,,,,,,,,,,750.0,,,,62c5d0cfdf443d24e054d302,09:11:07,27/02/2024
html-keyboard-response,187,931620,0.0-77.0-3.0,,<div style='margin:auto;width: auto; font-size: 150%'><span style='font-weight: bold; font-size: 100px; color: red;'>0 points!</span><br><br></div>,,delaylearn,learning,feedback_image_window,KbzxN7yzfQbKCQk8OWzk3HKy0fv1,KbzxN7yzfQbKCQk8OWzk3HKy0fv1,,,,,,,,,,,,,,,,,,,,,,62c5d0cfdf443d24e054d302,09:11:07,27/02/2024
html-keyboard-response,188,933860,0.0-78.0,,"<div style=""font-size:100px;"">+</div>",,delaylearn,learning,ITI,KbzxN7yzfQbKCQk8OWzk3HKy0fv1,KbzxN7yzfQbKCQk8OWzk3HKy0fv1,,,,,,,,,,,,,,,,,,,2229.0,,,62c5d0cfdf443d24e054d302,09:11:07,27/02/2024
html-keyboard-response,189,936571,0.0-79.0-0.0,2707.2999999523163,"<div style=""display: flex; flex-direction: column; align-items: center; margin-top: -40px;""><img src=""images/pattern_3.png"" style=""width: 234px; height: 230px; margin-top: -50px;""><div style=""display: flex; justify-content: space-between; margin-top: 33px;""><img src=""images/choice_trial_6.png"" style=""width: 408px; height: 417px; margin-right: 200px;""><img src=""images/choice_trial_5.png"" style=""width: 408px; height: 417px;""></div></div>",f,delaylearn,learning,trial,KbzxN7yzfQbKCQk8OWzk3HKy0fv1,KbzxN7yzfQbKCQk8OWzk3HKy0fv1,1.0,images/choice_trial_6.png,images/choice_trial_5.png,images/pattern_3.png,j,j,7000.0,6.0,5.0,2.0,1.0,34.0,0.0,0.0,6.0,150.0,,,,,,62c5d0cfdf443d24e054d302,09:11:07,27/02/2024
html-keyboard-response,190,937580,0.0-79.0-1.0,,"<div style=""display: flex; flex-direction: column; align-items: center; margin-top: -40px;""><img src=""images/pattern_3.png"" style=""width: 234px; height: 230px; margin-top: -50px;""><div style=""display: flex; justify-content: space-between; margin-top: 33px;""><img src=""images/choice_trial_6.png"" style=""width: 408px; height: 417px; margin-right: 608px;""></div></div>",,delaylearn,learning,display_response,KbzxN7yzfQbKCQk8OWzk3HKy0fv1,KbzxN7yzfQbKCQk8OWzk3HKy0fv1,,,,,,,,,,,,,,,,,chosen stimuli: images/choice_trial_6.png,,,,,62c5d0cfdf443d24e054d302,09:11:07,27/02/2024
html-keyboard-response,191,944585,0.0-79.0-2.0,,,,delaylearn,learning,feedback_duration_window,KbzxN7yzfQbKCQk8OWzk3HKy0fv1,KbzxN7yzfQbKCQk8OWzk3HKy0fv1,,,,,,,,,,,,,,,,,,7000.0,,,,62c5d0cfdf443d24e054d302,09:11:07,27/02/2024
html-keyboard-response,192,946089,0.0-79.0-3.0,,<div style='margin:auto;width: auto; font-size: 150%'><span style='font-weight: bold; font-size: 100px; color: red;'>0 points!</span><br><br></div>,,delaylearn,learning,feedback_image_window,KbzxN7yzfQbKCQk8OWzk3HKy0fv1,KbzxN7yzfQbKCQk8OWzk3HKy0fv1,,,,,,,,,,,,,,,,,,,,,,62c5d0cfdf443d24e054d302,09:11:07,27/02/2024
html-keyboard-response,193,948441,0.0-80.0,,"<div style=""font-size:100px;"">+</div>",,delaylearn,learning,ITI,KbzxN7yzfQbKCQk8OWzk3HKy0fv1,KbzxN7yzfQbKCQk8OWzk3HKy0fv1,,,,,,,,,,,,,,,,,,,2349.0,,,62c5d0cfdf443d24e054d302,09:11:07,27/02/2024
html-keyboard-response,194,950741,0.0-81.0-0.0,2296.4000000953674,"<div style=""display: flex; flex-direction: column; align-items: center; margin-top: -40px;""><img src=""images/pattern_4.png"" style=""width: 234px; height: 230px; margin-top: -50px;""><div style=""display: flex; justify-content: space-between; margin-top: 33px;""><img src=""images/choice_trial_8.png"" style=""width: 408px; height: 417px; margin-right: 200px;""><img src=""images/choice_trial_7.png"" style=""width: 408px; height: 417px;""></div></div>",f,delaylearn,learning,trial,KbzxN7yzfQbKCQk8OWzk3HKy0fv1,KbzxN7yzfQbKCQk8OWzk3HKy0fv1,1.0,images/choice_trial_8.png,images/choice_trial_7.png,images/pattern_4.png,f,j,7000.0,8.0,7.0,3.0,1.0,35.0,0.0,1.0,8.0,160.0,,,,,,62c5d0cfdf443d24e054d302,09:11:07,27/02/2024
html-keyboard-response,195,951753,0.0-81.0-1.0,,"<div style=""display: flex; flex-direction: column; align-items: center; margin-top: -40px;""><img src=""images/pattern_4.png"" style=""width: 234px; height: 230px; margin-top: -50px;""><div style=""display: flex; justify-content: space-between; margin-top: 33px;""><img src=""images/choice_trial_8.png"" style=""width: 408px; height: 417px; margin-right: 608px;""></div></div>",,delaylearn,learning,display_response,KbzxN7yzfQbKCQk8OWzk3HKy0fv1,KbzxN7yzfQbKCQk8OWzk3HKy0fv1,,,,,,,,,,,,,,,,,chosen stimuli: images/choice_trial_8.png,,,,,62c5d0cfdf443d24e054d302,09:11:07,27/02/2024
html-keyboard-response,196,958757,0.0-81.0-2.0,,,,delaylearn,learning,feedback_duration_window,KbzxN7yzfQbKCQk8OWzk3HKy0fv1,KbzxN7yzfQbKCQk8OWzk3HKy0fv1,,,,,,,,,,,,,,,,,,7000.0,,,,62c5d0cfdf443d24e054d302,09:11:07,27/02/2024
html-keyboard-response,197,960259,0.0-81.0-3.0,,<div style='margin:auto;width: auto; font-size: 150%'><span style='font-weight: bold; font-size: 100px; color: green;'>+10 points!</span><br><br></div>,,delaylearn,learning,feedback_image_window,KbzxN7yzfQbKCQk8OWzk3HKy0fv1,KbzxN7yzfQbKCQk8OWzk3HKy0fv1,,,,,,,,,,,,,,,,,,,,,,62c5d0cfdf443d24e054d302,09:11:07,27/02/2024
html-keyboard-response,198,962733,0.0-82.0,,"<div style=""font-size:100px;"">+</div>",,delaylearn,learning,ITI,KbzxN7yzfQbKCQk8OWzk3HKy0fv1,KbzxN7yzfQbKCQk8OWzk3HKy0fv1,,,,,,,,,,,,,,,,,,,2468.0,,,62c5d0cfdf443d24e054d302,09:11:07,27/02/2024
html-keyboard-response,199,964536,0.0-83.0-0.0,1799.3999998569489,"<div style=""display: flex; flex-direction: column; align-items: center; margin-top: -40px;""><img src=""images/pattern_7.png"" style=""width: 234px; height: 230px; margin-top: -50px;""><div style=""display: flex; justify-content: space-between; margin-top: 33px;""><img src=""images/choice_trial_13.png"" style=""width: 408px; height: 417px; margin-right: 200px;""><img src=""images/choice_trial_14.png"" style=""width: 408px; height: 417px;""></div></div>",j,delaylearn,learning,trial,KbzxN7yzfQbKCQk8OWzk3HKy0fv1,KbzxN7yzfQbKCQk8OWzk3HKy0fv1,1.0,images/choice_trial_13.png,images/choice_trial_14.png,images/pattern_7.png,f,f,750.0,13.0,14.0,6.0,0.0,36.0,0.0,0.0,14.0,160.0,,,,,,62c5d0cfdf443d24e054d302,09:11:07,27/02/2024
html-keyboard-response,200,965538,0.0-83.0-1.0,,"<div style=""display: flex; flex-direction: column; align-items: center; margin-top: -40px;""><img src=""images/pattern_7.png"" style=""width: 234px; height: 230px; margin-top: -50px;""><div style=""display: flex; justify-content: space-between; margin-top: 33px;""><img src=""images/choice_trial_14.png"" style=""width: 408px; height: 417px; margin-left:608px;""></div></div>",,delaylearn,learning,display_response,KbzxN7yzfQbKCQk8OWzk3HKy0fv1,KbzxN7yzfQbKCQk8OWzk3HKy0fv1,,,,,,,,,,,,,,,,,chosen stimuli: images/choice_trial_14.png,,,,,62c5d0cfdf443d24e054d302,09:11:07,27/02/2024
html-keyboard-response,201,966293,0.0-83.0-2.0,,,,delaylearn,learning,feedback_duration_window,KbzxN7yzfQbKCQk8OWzk3HKy0fv1,KbzxN7yzfQbKCQk8OWzk3HKy0fv1,,,,,,,,,,,,,,,,,,750.0,,,,62c5d0cfdf443d24e054d302,09:11:07,27/02/2024
html-keyboard-response,202,967796,0.0-83.0-3.0,,<div style='margin:auto;width: auto; font-size: 150%'><span style='font-weight: bold; font-size: 100px; color: red;'>0 points!</span><br><br></div>,,delaylearn,learning,feedback_image_window,KbzxN7yzfQbKCQk8OWzk3HKy0fv1,KbzxN7yzfQbKCQk8OWzk3HKy0fv1,,,,,,,,,,,,,,,,,,,,,,62c5d0cfdf443d24e054d302,09:11:07,27/02/2024
html-keyboard-response,203,969494,0.0-84.0,,"<div style=""font-size:100px;"">+</div>",,delaylearn,learning,ITI,KbzxN7yzfQbKCQk8OWzk3HKy0fv1,KbzxN7yzfQbKCQk8OWzk3HKy0fv1,,,,,,,,,,,,,,,,,,,1688.0,,,62c5d0cfdf443d24e054d302,09:11:07,27/02/2024
html-keyboard-response,204,971256,0.0-85.0-0.0,1755.2999999523163,"<div style=""display: flex; flex-direction: column; align-items: center; margin-top: -40px;""><img src=""images/pattern_1.png"" style=""width: 234px; height: 230px; margin-top: -50px;""><div style=""display: flex; justify-content: space-between; margin-top: 33px;""><img src=""images/choice_trial_1.png"" style=""width: 408px; height: 417px; margin-right: 200px;""><img src=""images/choice_trial_2.png"" style=""width: 408px; height: 417px;""></div></div>",f,delaylearn,learning,trial,KbzxN7yzfQbKCQk8OWzk3HKy0fv1,KbzxN7yzfQbKCQk8OWzk3HKy0fv1,1.0,images/choice_trial_1.png,images/choice_trial_2.png,images/pattern_1.png,f,f,7000.0,1.0,2.0,1.0,0.0,37.0,1.0,1.0,1.0,170.0,,,,,,62c5d0cfdf443d24e054d302,09:11:07,27/02/2024
html-keyboard-response,205,972267,0.0-85.0-1.0,,"<div style=""display: flex; flex-direction: column; align-items: center; margin-top: -40px;""><img src=""images/pattern_1.png"" style=""width: 234px; height: 230px; margin-top: -50px;""><div style=""display: flex; justify-content: space-between; margin-top: 33px;""><img src=""images/choice_trial_1.png"" style=""width: 408px; height: 417px; margin-right: 608px;""></div></div>",,delaylearn,learning,display_response,KbzxN7yzfQbKCQk8OWzk3HKy0fv1,KbzxN7yzfQbKCQk8OWzk3HKy0fv1,,,,,,,,,,,,,,,,,chosen stimuli: images/choice_trial_1.png,,,,,62c5d0cfdf443d24e054d302,09:11:07,27/02/2024
html-keyboard-response,206,979271,0.0-85.0-2.0,,,,delaylearn,learning,feedback_duration_window,KbzxN7yzfQbKCQk8OWzk3HKy0fv1,KbzxN7yzfQbKCQk8OWzk3HKy0fv1,,,,,,,,,,,,,,,,,,7000.0,,,,62c5d0cfdf443d24e054d302,09:11:07,27/02/2024
html-keyboard-response,207,980774,0.0-85.0-3.0,,<div style='margin:auto;width: auto; font-size: 150%'><span style='font-weight: bold; font-size: 100px; color: green;'>+10 points!</span><br><br></div>,,delaylearn,learning,feedback_image_window,KbzxN7yzfQbKCQk8OWzk3HKy0fv1,KbzxN7yzfQbKCQk8OWzk3HKy0fv1,,,,,,,,,,,,,,,,,,,,,,62c5d0cfdf443d24e054d302,09:11:07,27/02/2024
html-keyboard-response,208,981286,0.0-86.0-0.0,,,,,,mood_trial_fixation,KbzxN7yzfQbKCQk8OWzk3HKy0fv1,,,,,,,,,,,,,,,,,,,,,,,62c5d0cfdf443d24e054d302,09:11:07,27/02/2024
lmdlab-html-vas-response,209,986876,0.0-86.0-1.0,4581.0,How happy are you right now?,0.6469907407407407,delaylearn,learning,mood_trial,KbzxN7yzfQbKCQk8OWzk3HKy0fv1,KbzxN7yzfQbKCQk8OWzk3HKy0fv1,,,,,,,,,,,,,,,,,,,,"['Very unhappy', 'Very happy']",,62c5d0cfdf443d24e054d302,09:11:07,27/02/2024
html-keyboard-response,210,988599,0.0-87.0,,"<div style=""font-size:100px;"">+</div>",,delaylearn,learning,ITI,KbzxN7yzfQbKCQk8OWzk3HKy0fv1,KbzxN7yzfQbKCQk8OWzk3HKy0fv1,,,,,,,,,,,,,,,,,,,1708.0,,,62c5d0cfdf443d24e054d302,09:11:07,27/02/2024
html-keyboard-response,211,990315,0.0-88.0-0.0,1710.7999999523163,"<div style=""display: flex; flex-direction: column; align-items: center; margin-top: -40px;""><img src=""images/pattern_3.png"" style=""width: 234px; height: 230px; margin-top: -50px;""><div style=""display: flex; justify-content: space-between; margin-top: 33px;""><img src=""images/choice_trial_5.png"" style=""width: 408px; height: 417px; margin-right: 200px;""><img src=""images/choice_trial_6.png"" style=""width: 408px; height: 417px;""></div></div>",j,delaylearn,learning,trial,KbzxN7yzfQbKCQk8OWzk3HKy0fv1,KbzxN7yzfQbKCQk8OWzk3HKy0fv1,1.0,images/choice_trial_5.png,images/choice_trial_6.png,images/pattern_3.png,j,f,7000.0,5.0,6.0,2.0,0.0,38.0,0.0,1.0,6.0,180.0,,,,,,62c5d0cfdf443d24e054d302,09:11:07,27/02/2024
html-keyboard-response,212,991323,0.0-88.0-1.0,,"<div style=""display: flex; flex-direction: column; align-items: center; margin-top: -40px;""><img src=""images/pattern_3.png"" style=""width: 234px; height: 230px; margin-top: -50px;""><div style=""display: flex; justify-content: space-between; margin-top: 33px;""><img src=""images/choice_trial_6.png"" style=""width: 408px; height: 417px; margin-left:608px;""></div></div>",,delaylearn,learning,display_response,KbzxN7yzfQbKCQk8OWzk3HKy0fv1,KbzxN7yzfQbKCQk8OWzk3HKy0fv1,,,,,,,,,,,,,,,,,chosen stimuli: images/choice_trial_6.png,,,,,62c5d0cfdf443d24e054d302,09:11:07,27/02/2024
html-keyboard-response,213,998326,0.0-88.0-2.0,,,,delaylearn,learning,feedback_duration_window,KbzxN7yzfQbKCQk8OWzk3HKy0fv1,KbzxN7yzfQbKCQk8OWzk3HKy0fv1,,,,,,,,,,,,,,,,,,7000.0,,,,62c5d0cfdf443d24e054d302,09:11:07,27/02/2024
html-keyboard-response,214,999841,0.0-88.0-3.0,,<div style='margin:auto;width: auto; font-size: 150%'><span style='font-weight: bold; font-size: 100px; color: green;'>+10 points!</span><br><br></div>,,delaylearn,learning,feedback_image_window,KbzxN7yzfQbKCQk8OWzk3HKy0fv1,KbzxN7yzfQbKCQk8OWzk3HKy0fv1,,,,,,,,,,,,,,,,,,,,,,62c5d0cfdf443d24e054d302,09:11:07,27/02/2024
html-keyboard-response,215,1001677,0.0-89.0,,"<div style=""font-size:100px;"">+</div>",,delaylearn,learning,ITI,KbzxN7yzfQbKCQk8OWzk3HKy0fv1,KbzxN7yzfQbKCQk8OWzk3HKy0fv1,,,,,,,,,,,,,,,,,,,1824.0,,,62c5d0cfdf443d24e054d302,09:11:07,27/02/2024
html-keyboard-response,216,1004487,0.0-90.0-0.0,2805.0,"<div style=""display: flex; flex-direction: column; align-items: center; margin-top: -40px;""><img src=""images/pattern_7.png"" style=""width: 234px; height: 230px; margin-top: -50px;""><div style=""display: flex; justify-content: space-between; margin-top: 33px;""><img src=""images/choice_trial_14.png"" style=""width: 408px; height: 417px; margin-right: 200px;""><img src=""images/choice_trial_13.png"" style=""width: 408px; height: 417px;""></div></div>",f,delaylearn,learning,trial,KbzxN7yzfQbKCQk8OWzk3HKy0fv1,KbzxN7yzfQbKCQk8OWzk3HKy0fv1,1.0,images/choice_trial_14.png,images/choice_trial_13.png,images/pattern_7.png,j,j,750.0,14.0,13.0,6.0,1.0,39.0,0.0,0.0,14.0,180.0,,,,,,62c5d0cfdf443d24e054d302,09:11:07,27/02/2024
html-keyboard-response,217,1005489,0.0-90.0-1.0,,"<div style=""display: flex; flex-direction: column; align-items: center; margin-top: -40px;""><img src=""images/pattern_7.png"" style=""width: 234px; height: 230px; margin-top: -50px;""><div style=""display: flex; justify-content: space-between; margin-top: 33px;""><img src=""images/choice_trial_14.png"" style=""width: 408px; height: 417px; margin-right: 608px;""></div></div>",,delaylearn,learning,display_response,KbzxN7yzfQbKCQk8OWzk3HKy0fv1,KbzxN7yzfQbKCQk8OWzk3HKy0fv1,,,,,,,,,,,,,,,,,chosen stimuli: images/choice_trial_14.png,,,,,62c5d0cfdf443d24e054d302,09:11:07,27/02/2024
html-keyboard-response,218,1006245,0.0-90.0-2.0,,,,delaylearn,learning,feedback_duration_window,KbzxN7yzfQbKCQk8OWzk3HKy0fv1,KbzxN7yzfQbKCQk8OWzk3HKy0fv1,,,,,,,,,,,,,,,,,,750.0,,,,62c5d0cfdf443d24e054d302,09:11:07,27/02/2024
html-keyboard-response,219,1007752,0.0-90.0-3.0,,<div style='margin:auto;width: auto; font-size: 150%'><span style='font-weight: bold; font-size: 100px; color: red;'>0 points!</span><br><br></div>,,delaylearn,learning,feedback_image_window,KbzxN7yzfQbKCQk8OWzk3HKy0fv1,KbzxN7yzfQbKCQk8OWzk3HKy0fv1,,,,,,,,,,,,,,,,,,,,,,62c5d0cfdf443d24e054d302,09:11:07,27/02/2024
html-keyboard-response,220,1010021,0.0-91.0,,"<div style=""font-size:100px;"">+</div>",,delaylearn,learning,ITI,KbzxN7yzfQbKCQk8OWzk3HKy0fv1,KbzxN7yzfQbKCQk8OWzk3HKy0fv1,,,,,,,,,,,,,,,,,,,2262.0,,,62c5d0cfdf443d24e054d302,09:11:07,27/02/2024
html-keyboard-response,221,1012328,0.0-92.0-0.0,2299.2000000476837,"<div style=""display: flex; flex-direction: column; align-items: center; margin-top: -40px;""><img src=""images/pattern_5.png"" style=""width: 234px; height: 230px; margin-top: -50px;""><div style=""display: flex; justify-content: space-between; margin-top: 33px;""><img src=""images/choice_trial_10.png"" style=""width: 408px; height: 417px; margin-right: 200px;""><img src=""images/choice_trial_9.png"" style=""width: 408px; height: 417px;""></div></div>",f,delaylearn,learning,trial,KbzxN7yzfQbKCQk8OWzk3HKy0fv1,KbzxN7yzfQbKCQk8OWzk3HKy0fv1,1.0,images/choice_trial_10.png,images/choice_trial_9.png,images/pattern_5.png,j,j,750.0,10.0,9.0,4.0,1.0,40.0,0.0,0.0,10.0,180.0,,,,,,62c5d0cfdf443d24e054d302,09:11:07,27/02/2024
html-keyboard-response,222,1013331,0.0-92.0-1.0,,"<div style=""display: flex; flex-direction: column; align-items: center; margin-top: -40px;""><img src=""images/pattern_5.png"" style=""width: 234px; height: 230px; margin-top: -50px;""><div style=""display: flex; justify-content: space-between; margin-top: 33px;""><img src=""images/choice_trial_10.png"" style=""width: 408px; height: 417px; margin-right: 608px;""></div></div>",,delaylearn,learning,display_response,KbzxN7yzfQbKCQk8OWzk3HKy0fv1,KbzxN7yzfQbKCQk8OWzk3HKy0fv1,,,,,,,,,,,,,,,,,chosen stimuli: images/choice_trial_10.png,,,,,62c5d0cfdf443d24e054d302,09:11:07,27/02/2024
html-keyboard-response,223,1014083,0.0-92.0-2.0,,,,delaylearn,learning,feedback_duration_window,KbzxN7yzfQbKCQk8OWzk3HKy0fv1,KbzxN7yzfQbKCQk8OWzk3HKy0fv1,,,,,,,,,,,,,,,,,,750.0,,,,62c5d0cfdf443d24e054d302,09:11:07,27/02/2024
html-keyboard-response,224,1015598,0.0-92.0-3.0,,<div style='margin:auto;width: auto; font-size: 150%'><span style='font-weight: bold; font-size: 100px; color: red;'>0 points!</span><br><br></div>,,delaylearn,learning,feedback_image_window,KbzxN7yzfQbKCQk8OWzk3HKy0fv1,KbzxN7yzfQbKCQk8OWzk3HKy0fv1,,,,,,,,,,,,,,,,,,,,,,62c5d0cfdf443d24e054d302,09:11:07,27/02/2024
html-keyboard-response,225,1016102,0.0-93.0-0.0,,,,,,mood_trial_fixation,KbzxN7yzfQbKCQk8OWzk3HKy0fv1,,,,,,,,,,,,,,,,,,,,,,,62c5d0cfdf443d24e054d302,09:11:07,27/02/2024
lmdlab-html-vas-response,226,1023747,0.0-93.0-1.0,6632.0,How happy are you right now?,0.6597222222222222,delaylearn,learning,mood_trial,KbzxN7yzfQbKCQk8OWzk3HKy0fv1,KbzxN7yzfQbKCQk8OWzk3HKy0fv1,,,,,,,,,,,,,,,,,,,,"['Very unhappy', 'Very happy']",,62c5d0cfdf443d24e054d302,09:11:07,27/02/2024
html-keyboard-response,227,1025253,0.0-94.0,,"<div style=""font-size:100px;"">+</div>",,delaylearn,learning,ITI,KbzxN7yzfQbKCQk8OWzk3HKy0fv1,KbzxN7yzfQbKCQk8OWzk3HKy0fv1,,,,,,,,,,,,,,,,,,,1501.0,,,62c5d0cfdf443d24e054d302,09:11:07,27/02/2024
html-keyboard-response,228,1028272,0.0-95.0-0.0,,"<div style=""display: flex; flex-direction: column; align-items: center; margin-top: -40px;""><img src=""images/pattern_4.png"" style=""width: 234px; height: 230px; margin-top: -50px;""><div style=""display: flex; justify-content: space-between; margin-top: 33px;""><img src=""images/choice_trial_7.png"" style=""width: 408px; height: 417px; margin-right: 200px;""><img src=""images/choice_trial_8.png"" style=""width: 408px; height: 417px;""></div></div>",,delaylearn,learning,trial,KbzxN7yzfQbKCQk8OWzk3HKy0fv1,KbzxN7yzfQbKCQk8OWzk3HKy0fv1,1.0,images/choice_trial_7.png,images/choice_trial_8.png,images/pattern_4.png,f,f,7000.0,7.0,8.0,3.0,0.0,41.0,0.0,0.0,0.0,180.0,,,,,,62c5d0cfdf443d24e054d302,09:11:07,27/02/2024
html-keyboard-response,229,1029287,0.0-95.0-1.0,,<div style='font-weight: bold; font-size: 75px; color: red;'>Missed Trial <br><br><br><br> Please respond faster</div>,,delaylearn,learning,display_response,KbzxN7yzfQbKCQk8OWzk3HKy0fv1,KbzxN7yzfQbKCQk8OWzk3HKy0fv1,,,,,,,,,,,,,,,,,Missed trial,,,,,62c5d0cfdf443d24e054d302,09:11:07,27/02/2024
html-keyboard-response,230,1029293,0.0-95.0-2.0,,,,delaylearn,learning,feedback_duration_window,KbzxN7yzfQbKCQk8OWzk3HKy0fv1,KbzxN7yzfQbKCQk8OWzk3HKy0fv1,,,,,,,,,,,,,,,,,,0.0,,,,62c5d0cfdf443d24e054d302,09:11:07,27/02/2024
html-keyboard-response,231,1029299,0.0-95.0-3.0,,,,delaylearn,learning,feedback_image_window,KbzxN7yzfQbKCQk8OWzk3HKy0fv1,KbzxN7yzfQbKCQk8OWzk3HKy0fv1,,,,,,,,,,,,,,,,,,,,,,62c5d0cfdf443d24e054d302,09:11:07,27/02/2024
html-keyboard-response,232,1031226,0.0-96.0,,"<div style=""font-size:100px;"">+</div>",,delaylearn,learning,ITI,KbzxN7yzfQbKCQk8OWzk3HKy0fv1,KbzxN7yzfQbKCQk8OWzk3HKy0fv1,,,,,,,,,,,,,,,,,,,1920.0,,,62c5d0cfdf443d24e054d302,09:11:07,27/02/2024
html-keyboard-response,233,1032956,0.0-97.0-0.0,1727.0,"<div style=""display: flex; flex-direction: column; align-items: center; margin-top: -40px;""><img src=""images/pattern_6.png"" style=""width: 234px; height: 230px; margin-top: -50px;""><div style=""display: flex; justify-content: space-between; margin-top: 33px;""><img src=""images/choice_trial_12.png"" style=""width: 408px; height: 417px; margin-right: 200px;""><img src=""images/choice_trial_11.png"" style=""width: 408px; height: 417px;""></div></div>",j,delaylearn,learning,trial,KbzxN7yzfQbKCQk8OWzk3HKy0fv1,KbzxN7yzfQbKCQk8OWzk3HKy0fv1,1.0,images/choice_trial_12.png,images/choice_trial_11.png,images/pattern_6.png,j,j,750.0,12.0,11.0,5.0,1.0,42.0,1.0,1.0,11.0,190.0,,,,,,62c5d0cfdf443d24e054d302,09:11:07,27/02/2024
