trial_type,trial_index,time_elapsed,internal_node_id,rt,stimulus,response,exp_name,exp_stage,test_part,subjectID,databaseID,counterbal,choice_stimuli_1,choice_stimuli_2,pattern_stimuli,rewarded_answer,correct_answer,feedback_duration_times,stim_left,stim_right,pair,leftright_counter,trial,response_correct,response_rewarded,chosen_stim,counter,displayed_choice,feedback_durations,ITI_duration,labels,rest_warning,prolificID,start_time,date
pavlovia,0,621,0.0-0.0,,,,,,,4jrGaKTlMqdWnmGrpwbPDCOATbJ3,,,,,,,,,,,,,,,,,,,,,,,5b758de6d74fcb00010d7f0b,16:31:34,27/03/2024
html-keyboard-response,1,3641,0.0-1.0,,"<div style=""font-size:100px;"">+</div>",,delaylearn,learning,pre_fixation,4jrGaKTlMqdWnmGrpwbPDCOATbJ3,,,,,,,,,,,,,,,,,,,,,,,5b758de6d74fcb00010d7f0b,16:31:34,27/03/2024
html-keyboard-response,2,4888,0.0-2.0-0.0,1232.9000000003725,"<div style=""display: flex; flex-direction: column; align-items: center; margin-top: -40px;""><img src=""images/demo_images/pattern_1.png"" style=""width: 234px; height: 230px; margin-top: -50px;""><div style=""display: flex; justify-content: space-between; margin-top: 33px;""><img src=""images/demo_images/choice_trial_2.png"" style=""width: 408px; height: 417px; margin-right: 200px;""><img src=""images/demo_images/choice_trial_1.png"" style=""width: 408px; height: 417px;""></div></div>",f,delaylearn,learning,trial,4jrGaKTlMqdWnmGrpwbPDCOATbJ3,4jrGaKTlMqdWnmGrpwbPDCOATbJ3,4.0,images/demo_images/choice_trial_2.png,images/demo_images/choice_trial_1.png,images/demo_images/pattern_1.png,j,j,3000.0,2.0,1.0,20.0,1.0,1.0,0.0,0.0,2.0,0.0,,,,,,5b758de6d74fcb00010d7f0b,16:31:34,27/03/2024
html-keyboard-response,3,5917,0.0-2.0-1.0,,"<div style=""display: flex; flex-direction: column; align-items: center; margin-top: -40px;""><img src=""images/demo_images/pattern_1.png"" style=""width: 234px; height: 230px; margin-top: -50px;""><div style=""display: flex; justify-content: space-between; margin-top: 33px;""><img src=""images/demo_images/choice_trial_2.png"" style=""width: 408px; height: 417px; margin-right: 608px;""></div></div>",,delaylearn,learning,display_response,4jrGaKTlMqdWnmGrpwbPDCOATbJ3,4jrGaKTlMqdWnmGrpwbPDCOATbJ3,,,,,,,,,,,,,,,,,chosen stimuli: images/demo_images/choice_trial_2.png,,,,,5b758de6d74fcb00010d7f0b,16:31:34,27/03/2024
html-keyboard-response,4,8941,0.0-2.0-2.0,,,,delaylearn,learning,feedback_duration_window,4jrGaKTlMqdWnmGrpwbPDCOATbJ3,4jrGaKTlMqdWnmGrpwbPDCOATbJ3,,,,,,,,,,,,,,,,,,3000.0,,,,5b758de6d74fcb00010d7f0b,16:31:34,27/03/2024
html-keyboard-response,5,10457,0.0-2.0-3.0,,<div style='margin:auto;width: auto; font-size: 150%'><span style='font-weight: bold; font-size: 100px; color: red;'>0 points!</span><br><br></div>,,delaylearn,learning,feedback_image_window,4jrGaKTlMqdWnmGrpwbPDCOATbJ3,4jrGaKTlMqdWnmGrpwbPDCOATbJ3,,,,,,,,,,,,,,,,,,,,,,5b758de6d74fcb00010d7f0b,16:31:34,27/03/2024
html-keyboard-response,6,12674,0.0-3.0,,"<div style=""font-size:100px;"">+</div>",,delaylearn,learning,ITI,4jrGaKTlMqdWnmGrpwbPDCOATbJ3,4jrGaKTlMqdWnmGrpwbPDCOATbJ3,,,,,,,,,,,,,,,,,,,2206.0,,,5b758de6d74fcb00010d7f0b,16:31:34,27/03/2024
html-keyboard-response,7,13433,0.0-4.0-0.0,743.7000000011176,"<div style=""display: flex; flex-direction: column; align-items: center; margin-top: -40px;""><img src=""images/demo_images/pattern_1.png"" style=""width: 234px; height: 230px; margin-top: -50px;""><div style=""display: flex; justify-content: space-between; margin-top: 33px;""><img src=""images/demo_images/choice_trial_2.png"" style=""width: 408px; height: 417px; margin-right: 200px;""><img src=""images/demo_images/choice_trial_1.png"" style=""width: 408px; height: 417px;""></div></div>",j,delaylearn,learning,trial,4jrGaKTlMqdWnmGrpwbPDCOATbJ3,4jrGaKTlMqdWnmGrpwbPDCOATbJ3,4.0,images/demo_images/choice_trial_2.png,images/demo_images/choice_trial_1.png,images/demo_images/pattern_1.png,j,j,3000.0,2.0,1.0,20.0,1.0,2.0,1.0,1.0,1.0,10.0,,,,,,5b758de6d74fcb00010d7f0b,16:31:34,27/03/2024
html-keyboard-response,8,14452,0.0-4.0-1.0,,"<div style=""display: flex; flex-direction: column; align-items: center; margin-top: -40px;""><img src=""images/demo_images/pattern_1.png"" style=""width: 234px; height: 230px; margin-top: -50px;""><div style=""display: flex; justify-content: space-between; margin-top: 33px;""><img src=""images/demo_images/choice_trial_1.png"" style=""width: 408px; height: 417px; margin-left:608px;""></div></div>",,delaylearn,learning,display_response,4jrGaKTlMqdWnmGrpwbPDCOATbJ3,4jrGaKTlMqdWnmGrpwbPDCOATbJ3,,,,,,,,,,,,,,,,,chosen stimuli: images/demo_images/choice_trial_1.png,,,,,5b758de6d74fcb00010d7f0b,16:31:34,27/03/2024
html-keyboard-response,9,17471,0.0-4.0-2.0,,,,delaylearn,learning,feedback_duration_window,4jrGaKTlMqdWnmGrpwbPDCOATbJ3,4jrGaKTlMqdWnmGrpwbPDCOATbJ3,,,,,,,,,,,,,,,,,,3000.0,,,,5b758de6d74fcb00010d7f0b,16:31:34,27/03/2024
html-keyboard-response,10,18988,0.0-4.0-3.0,,<div style='margin:auto;width: auto; font-size: 150%'><span style='font-weight: bold; font-size: 100px; color: green;'>+10 points!</span><br><br></div>,,delaylearn,learning,feedback_image_window,4jrGaKTlMqdWnmGrpwbPDCOATbJ3,4jrGaKTlMqdWnmGrpwbPDCOATbJ3,,,,,,,,,,,,,,,,,,,,,,5b758de6d74fcb00010d7f0b,16:31:34,27/03/2024
html-keyboard-response,11,20911,0.0-5.0,,"<div style=""font-size:100px;"">+</div>",,delaylearn,learning,ITI,4jrGaKTlMqdWnmGrpwbPDCOATbJ3,4jrGaKTlMqdWnmGrpwbPDCOATbJ3,,,,,,,,,,,,,,,,,,,1909.0,,,5b758de6d74fcb00010d7f0b,16:31:34,27/03/2024
html-keyboard-response,12,21905,0.0-6.0-0.0,978.5999999996275,"<div style=""display: flex; flex-direction: column; align-items: center; margin-top: -40px;""><img src=""images/demo_images/pattern_1.png"" style=""width: 234px; height: 230px; margin-top: -50px;""><div style=""display: flex; justify-content: space-between; margin-top: 33px;""><img src=""images/demo_images/choice_trial_1.png"" style=""width: 408px; height: 417px; margin-right: 200px;""><img src=""images/demo_images/choice_trial_2.png"" style=""width: 408px; height: 417px;""></div></div>",f,delaylearn,learning,trial,4jrGaKTlMqdWnmGrpwbPDCOATbJ3,4jrGaKTlMqdWnmGrpwbPDCOATbJ3,4.0,images/demo_images/choice_trial_1.png,images/demo_images/choice_trial_2.png,images/demo_images/pattern_1.png,j,f,3000.0,1.0,2.0,20.0,0.0,3.0,1.0,0.0,1.0,10.0,,,,,,5b758de6d74fcb00010d7f0b,16:31:34,27/03/2024
html-keyboard-response,13,22922,0.0-6.0-1.0,,"<div style=""display: flex; flex-direction: column; align-items: center; margin-top: -40px;""><img src=""images/demo_images/pattern_1.png"" style=""width: 234px; height: 230px; margin-top: -50px;""><div style=""display: flex; justify-content: space-between; margin-top: 33px;""><img src=""images/demo_images/choice_trial_1.png"" style=""width: 408px; height: 417px; margin-right: 608px;""></div></div>",,delaylearn,learning,display_response,4jrGaKTlMqdWnmGrpwbPDCOATbJ3,4jrGaKTlMqdWnmGrpwbPDCOATbJ3,,,,,,,,,,,,,,,,,chosen stimuli: images/demo_images/choice_trial_1.png,,,,,5b758de6d74fcb00010d7f0b,16:31:34,27/03/2024
html-keyboard-response,14,25926,0.0-6.0-2.0,,,,delaylearn,learning,feedback_duration_window,4jrGaKTlMqdWnmGrpwbPDCOATbJ3,4jrGaKTlMqdWnmGrpwbPDCOATbJ3,,,,,,,,,,,,,,,,,,3000.0,,,,5b758de6d74fcb00010d7f0b,16:31:34,27/03/2024
html-keyboard-response,15,27447,0.0-6.0-3.0,,<div style='margin:auto;width: auto; font-size: 150%'><span style='font-weight: bold; font-size: 100px; color: red;'>0 points!</span><br><br></div>,,delaylearn,learning,feedback_image_window,4jrGaKTlMqdWnmGrpwbPDCOATbJ3,4jrGaKTlMqdWnmGrpwbPDCOATbJ3,,,,,,,,,,,,,,,,,,,,,,5b758de6d74fcb00010d7f0b,16:31:34,27/03/2024
html-keyboard-response,16,29095,0.0-7.0,,"<div style=""font-size:100px;"">+</div>",,delaylearn,learning,ITI,4jrGaKTlMqdWnmGrpwbPDCOATbJ3,4jrGaKTlMqdWnmGrpwbPDCOATbJ3,,,,,,,,,,,,,,,,,,,1642.0,,,5b758de6d74fcb00010d7f0b,16:31:34,27/03/2024
html-keyboard-response,17,31036,0.0-8.0-0.0,1928.5999999996275,"<div style=""display: flex; flex-direction: column; align-items: center; margin-top: -40px;""><img src=""images/demo_images/pattern_1.png"" style=""width: 234px; height: 230px; margin-top: -50px;""><div style=""display: flex; justify-content: space-between; margin-top: 33px;""><img src=""images/demo_images/choice_trial_1.png"" style=""width: 408px; height: 417px; margin-right: 200px;""><img src=""images/demo_images/choice_trial_2.png"" style=""width: 408px; height: 417px;""></div></div>",j,delaylearn,learning,trial,4jrGaKTlMqdWnmGrpwbPDCOATbJ3,4jrGaKTlMqdWnmGrpwbPDCOATbJ3,4.0,images/demo_images/choice_trial_1.png,images/demo_images/choice_trial_2.png,images/demo_images/pattern_1.png,f,f,3000.0,1.0,2.0,20.0,0.0,4.0,0.0,0.0,2.0,10.0,,,,,,5b758de6d74fcb00010d7f0b,16:31:34,27/03/2024
html-keyboard-response,18,32063,0.0-8.0-1.0,,"<div style=""display: flex; flex-direction: column; align-items: center; margin-top: -40px;""><img src=""images/demo_images/pattern_1.png"" style=""width: 234px; height: 230px; margin-top: -50px;""><div style=""display: flex; justify-content: space-between; margin-top: 33px;""><img src=""images/demo_images/choice_trial_2.png"" style=""width: 408px; height: 417px; margin-left:608px;""></div></div>",,delaylearn,learning,display_response,4jrGaKTlMqdWnmGrpwbPDCOATbJ3,4jrGaKTlMqdWnmGrpwbPDCOATbJ3,,,,,,,,,,,,,,,,,chosen stimuli: images/demo_images/choice_trial_2.png,,,,,5b758de6d74fcb00010d7f0b,16:31:34,27/03/2024
html-keyboard-response,19,35072,0.0-8.0-2.0,,,,delaylearn,learning,feedback_duration_window,4jrGaKTlMqdWnmGrpwbPDCOATbJ3,4jrGaKTlMqdWnmGrpwbPDCOATbJ3,,,,,,,,,,,,,,,,,,3000.0,,,,5b758de6d74fcb00010d7f0b,16:31:34,27/03/2024
html-keyboard-response,20,36581,0.0-8.0-3.0,,<div style='margin:auto;width: auto; font-size: 150%'><span style='font-weight: bold; font-size: 100px; color: red;'>0 points!</span><br><br></div>,,delaylearn,learning,feedback_image_window,4jrGaKTlMqdWnmGrpwbPDCOATbJ3,4jrGaKTlMqdWnmGrpwbPDCOATbJ3,,,,,,,,,,,,,,,,,,,,,,5b758de6d74fcb00010d7f0b,16:31:34,27/03/2024
html-keyboard-response,21,37096,0.0-9.0-0.0,,,,,,mood_trial_fixation,4jrGaKTlMqdWnmGrpwbPDCOATbJ3,,,,,,,,,,,,,,,,,,,,,,,5b758de6d74fcb00010d7f0b,16:31:34,27/03/2024
lmdlab-html-vas-response,22,48802,0.0-9.0-1.0,9949.0,How happy are you right now?,0.9318775219558509,delaylearn,learning,mood_trial,4jrGaKTlMqdWnmGrpwbPDCOATbJ3,4jrGaKTlMqdWnmGrpwbPDCOATbJ3,,,,,,,,,,,,,,,,,,,,"['Very unhappy', 'Very happy']",,5b758de6d74fcb00010d7f0b,16:31:34,27/03/2024
html-keyboard-response,23,51016,0.0-10.0,,"<div style=""font-size:100px;"">+</div>",,delaylearn,learning,ITI,4jrGaKTlMqdWnmGrpwbPDCOATbJ3,4jrGaKTlMqdWnmGrpwbPDCOATbJ3,,,,,,,,,,,,,,,,,,,2201.0,,,5b758de6d74fcb00010d7f0b,16:31:34,27/03/2024
html-keyboard-response,24,51963,0.0-11.0-0.0,941.7999999988824,"<div style=""display: flex; flex-direction: column; align-items: center; margin-top: -40px;""><img src=""images/demo_images/pattern_1.png"" style=""width: 234px; height: 230px; margin-top: -50px;""><div style=""display: flex; justify-content: space-between; margin-top: 33px;""><img src=""images/demo_images/choice_trial_2.png"" style=""width: 408px; height: 417px; margin-right: 200px;""><img src=""images/demo_images/choice_trial_1.png"" style=""width: 408px; height: 417px;""></div></div>",j,delaylearn,learning,trial,4jrGaKTlMqdWnmGrpwbPDCOATbJ3,4jrGaKTlMqdWnmGrpwbPDCOATbJ3,4.0,images/demo_images/choice_trial_2.png,images/demo_images/choice_trial_1.png,images/demo_images/pattern_1.png,j,j,3000.0,2.0,1.0,20.0,1.0,5.0,1.0,1.0,1.0,20.0,,,,,,5b758de6d74fcb00010d7f0b,16:31:34,27/03/2024
html-keyboard-response,25,52980,0.0-11.0-1.0,,"<div style=""display: flex; flex-direction: column; align-items: center; margin-top: -40px;""><img src=""images/demo_images/pattern_1.png"" style=""width: 234px; height: 230px; margin-top: -50px;""><div style=""display: flex; justify-content: space-between; margin-top: 33px;""><img src=""images/demo_images/choice_trial_1.png"" style=""width: 408px; height: 417px; margin-left:608px;""></div></div>",,delaylearn,learning,display_response,4jrGaKTlMqdWnmGrpwbPDCOATbJ3,4jrGaKTlMqdWnmGrpwbPDCOATbJ3,,,,,,,,,,,,,,,,,chosen stimuli: images/demo_images/choice_trial_1.png,,,,,5b758de6d74fcb00010d7f0b,16:31:34,27/03/2024
html-keyboard-response,26,55987,0.0-11.0-2.0,,,,delaylearn,learning,feedback_duration_window,4jrGaKTlMqdWnmGrpwbPDCOATbJ3,4jrGaKTlMqdWnmGrpwbPDCOATbJ3,,,,,,,,,,,,,,,,,,3000.0,,,,5b758de6d74fcb00010d7f0b,16:31:34,27/03/2024
html-keyboard-response,27,57496,0.0-11.0-3.0,,<div style='margin:auto;width: auto; font-size: 150%'><span style='font-weight: bold; font-size: 100px; color: green;'>+10 points!</span><br><br></div>,,delaylearn,learning,feedback_image_window,4jrGaKTlMqdWnmGrpwbPDCOATbJ3,4jrGaKTlMqdWnmGrpwbPDCOATbJ3,,,,,,,,,,,,,,,,,,,,,,5b758de6d74fcb00010d7f0b,16:31:34,27/03/2024
html-keyboard-response,28,59829,0.0-12.0,,"<div style=""font-size:100px;"">+</div>",,delaylearn,learning,ITI,4jrGaKTlMqdWnmGrpwbPDCOATbJ3,4jrGaKTlMqdWnmGrpwbPDCOATbJ3,,,,,,,,,,,,,,,,,,,2329.0,,,5b758de6d74fcb00010d7f0b,16:31:34,27/03/2024
html-keyboard-response,29,61056,0.0-13.0-0.0,1221.5,"<div style=""display: flex; flex-direction: column; align-items: center; margin-top: -40px;""><img src=""images/demo_images/pattern_1.png"" style=""width: 234px; height: 230px; margin-top: -50px;""><div style=""display: flex; justify-content: space-between; margin-top: 33px;""><img src=""images/demo_images/choice_trial_1.png"" style=""width: 408px; height: 417px; margin-right: 200px;""><img src=""images/demo_images/choice_trial_2.png"" style=""width: 408px; height: 417px;""></div></div>",j,delaylearn,learning,trial,4jrGaKTlMqdWnmGrpwbPDCOATbJ3,4jrGaKTlMqdWnmGrpwbPDCOATbJ3,4.0,images/demo_images/choice_trial_1.png,images/demo_images/choice_trial_2.png,images/demo_images/pattern_1.png,f,f,3000.0,1.0,2.0,20.0,0.0,6.0,0.0,0.0,2.0,20.0,,,,,,5b758de6d74fcb00010d7f0b,16:31:34,27/03/2024
html-keyboard-response,30,62062,0.0-13.0-1.0,,"<div style=""display: flex; flex-direction: column; align-items: center; margin-top: -40px;""><img src=""images/demo_images/pattern_1.png"" style=""width: 234px; height: 230px; margin-top: -50px;""><div style=""display: flex; justify-content: space-between; margin-top: 33px;""><img src=""images/demo_images/choice_trial_2.png"" style=""width: 408px; height: 417px; margin-left:608px;""></div></div>",,delaylearn,learning,display_response,4jrGaKTlMqdWnmGrpwbPDCOATbJ3,4jrGaKTlMqdWnmGrpwbPDCOATbJ3,,,,,,,,,,,,,,,,,chosen stimuli: images/demo_images/choice_trial_2.png,,,,,5b758de6d74fcb00010d7f0b,16:31:34,27/03/2024
html-keyboard-response,31,65066,0.0-13.0-2.0,,,,delaylearn,learning,feedback_duration_window,4jrGaKTlMqdWnmGrpwbPDCOATbJ3,4jrGaKTlMqdWnmGrpwbPDCOATbJ3,,,,,,,,,,,,,,,,,,3000.0,,,,5b758de6d74fcb00010d7f0b,16:31:34,27/03/2024
html-keyboard-response,32,66574,0.0-13.0-3.0,,<div style='margin:auto;width: auto; font-size: 150%'><span style='font-weight: bold; font-size: 100px; color: red;'>0 points!</span><br><br></div>,,delaylearn,learning,feedback_image_window,4jrGaKTlMqdWnmGrpwbPDCOATbJ3,4jrGaKTlMqdWnmGrpwbPDCOATbJ3,,,,,,,,,,,,,,,,,,,,,,5b758de6d74fcb00010d7f0b,16:31:34,27/03/2024
html-keyboard-response,33,68630,0.0-14.0,,"<div style=""font-size:100px;"">+</div>",,delaylearn,learning,ITI,4jrGaKTlMqdWnmGrpwbPDCOATbJ3,4jrGaKTlMqdWnmGrpwbPDCOATbJ3,,,,,,,,,,,,,,,,,,,2050.0,,,5b758de6d74fcb00010d7f0b,16:31:34,27/03/2024
html-keyboard-response,34,70028,0.0-15.0-0.0,1386.4000000003725,"<div style=""display: flex; flex-direction: column; align-items: center; margin-top: -40px;""><img src=""images/demo_images/pattern_1.png"" style=""width: 234px; height: 230px; margin-top: -50px;""><div style=""display: flex; justify-content: space-between; margin-top: 33px;""><img src=""images/demo_images/choice_trial_2.png"" style=""width: 408px; height: 417px; margin-right: 200px;""><img src=""images/demo_images/choice_trial_1.png"" style=""width: 408px; height: 417px;""></div></div>",j,delaylearn,learning,trial,4jrGaKTlMqdWnmGrpwbPDCOATbJ3,4jrGaKTlMqdWnmGrpwbPDCOATbJ3,4.0,images/demo_images/choice_trial_2.png,images/demo_images/choice_trial_1.png,images/demo_images/pattern_1.png,j,j,3000.0,2.0,1.0,20.0,1.0,7.0,1.0,1.0,1.0,30.0,,,,,,5b758de6d74fcb00010d7f0b,16:31:34,27/03/2024
html-keyboard-response,35,71048,0.0-15.0-1.0,,"<div style=""display: flex; flex-direction: column; align-items: center; margin-top: -40px;""><img src=""images/demo_images/pattern_1.png"" style=""width: 234px; height: 230px; margin-top: -50px;""><div style=""display: flex; justify-content: space-between; margin-top: 33px;""><img src=""images/demo_images/choice_trial_1.png"" style=""width: 408px; height: 417px; margin-left:608px;""></div></div>",,delaylearn,learning,display_response,4jrGaKTlMqdWnmGrpwbPDCOATbJ3,4jrGaKTlMqdWnmGrpwbPDCOATbJ3,,,,,,,,,,,,,,,,,chosen stimuli: images/demo_images/choice_trial_1.png,,,,,5b758de6d74fcb00010d7f0b,16:31:34,27/03/2024
html-keyboard-response,36,74066,0.0-15.0-2.0,,,,delaylearn,learning,feedback_duration_window,4jrGaKTlMqdWnmGrpwbPDCOATbJ3,4jrGaKTlMqdWnmGrpwbPDCOATbJ3,,,,,,,,,,,,,,,,,,3000.0,,,,5b758de6d74fcb00010d7f0b,16:31:34,27/03/2024
html-keyboard-response,37,75581,0.0-15.0-3.0,,<div style='margin:auto;width: auto; font-size: 150%'><span style='font-weight: bold; font-size: 100px; color: green;'>+10 points!</span><br><br></div>,,delaylearn,learning,feedback_image_window,4jrGaKTlMqdWnmGrpwbPDCOATbJ3,4jrGaKTlMqdWnmGrpwbPDCOATbJ3,,,,,,,,,,,,,,,,,,,,,,5b758de6d74fcb00010d7f0b,16:31:34,27/03/2024
html-keyboard-response,38,77694,0.0-16.0,,"<div style=""font-size:100px;"">+</div>",,delaylearn,learning,ITI,4jrGaKTlMqdWnmGrpwbPDCOATbJ3,4jrGaKTlMqdWnmGrpwbPDCOATbJ3,,,,,,,,,,,,,,,,,,,2101.0,,,5b758de6d74fcb00010d7f0b,16:31:34,27/03/2024
html-keyboard-response,39,80255,0.0-17.0-0.0,2546.39999999851,"<div style=""display: flex; flex-direction: column; align-items: center; margin-top: -40px;""><img src=""images/demo_images/pattern_1.png"" style=""width: 234px; height: 230px; margin-top: -50px;""><div style=""display: flex; justify-content: space-between; margin-top: 33px;""><img src=""images/demo_images/choice_trial_1.png"" style=""width: 408px; height: 417px; margin-right: 200px;""><img src=""images/demo_images/choice_trial_2.png"" style=""width: 408px; height: 417px;""></div></div>",f,delaylearn,learning,trial,4jrGaKTlMqdWnmGrpwbPDCOATbJ3,4jrGaKTlMqdWnmGrpwbPDCOATbJ3,4.0,images/demo_images/choice_trial_1.png,images/demo_images/choice_trial_2.png,images/demo_images/pattern_1.png,f,f,3000.0,1.0,2.0,20.0,0.0,8.0,1.0,1.0,1.0,40.0,,,,,,5b758de6d74fcb00010d7f0b,16:31:34,27/03/2024
html-keyboard-response,40,81268,0.0-17.0-1.0,,"<div style=""display: flex; flex-direction: column; align-items: center; margin-top: -40px;""><img src=""images/demo_images/pattern_1.png"" style=""width: 234px; height: 230px; margin-top: -50px;""><div style=""display: flex; justify-content: space-between; margin-top: 33px;""><img src=""images/demo_images/choice_trial_1.png"" style=""width: 408px; height: 417px; margin-right: 608px;""></div></div>",,delaylearn,learning,display_response,4jrGaKTlMqdWnmGrpwbPDCOATbJ3,4jrGaKTlMqdWnmGrpwbPDCOATbJ3,,,,,,,,,,,,,,,,,chosen stimuli: images/demo_images/choice_trial_1.png,,,,,5b758de6d74fcb00010d7f0b,16:31:34,27/03/2024
html-keyboard-response,41,84290,0.0-17.0-2.0,,,,delaylearn,learning,feedback_duration_window,4jrGaKTlMqdWnmGrpwbPDCOATbJ3,4jrGaKTlMqdWnmGrpwbPDCOATbJ3,,,,,,,,,,,,,,,,,,3000.0,,,,5b758de6d74fcb00010d7f0b,16:31:34,27/03/2024
html-keyboard-response,42,85804,0.0-17.0-3.0,,<div style='margin:auto;width: auto; font-size: 150%'><span style='font-weight: bold; font-size: 100px; color: green;'>+10 points!</span><br><br></div>,,delaylearn,learning,feedback_image_window,4jrGaKTlMqdWnmGrpwbPDCOATbJ3,4jrGaKTlMqdWnmGrpwbPDCOATbJ3,,,,,,,,,,,,,,,,,,,,,,5b758de6d74fcb00010d7f0b,16:31:34,27/03/2024
html-button-response,43,91432,0.0-18.0,5621.199999999255,"
  <div style=""display: flex; align-items: center; justify-content: center; height: 80vh;"">
  <div>
          <img src=""images/inst_demo_finish.png"" style=""width: 80vw; height:auto;"">
          <br><br>
      </div>
      <br><br>
  </div>",0,,,,4jrGaKTlMqdWnmGrpwbPDCOATbJ3,,,,,,,,,,,,,,,,,,,,,,,5b758de6d74fcb00010d7f0b,16:31:34,27/03/2024
html-keyboard-response,44,97305,0.0-19.0,5864.800000000745,"
  <div style=""display: flex; align-items: center; justify-content: center; height: 80vh;"">
  <div>
          <img src=""images/inst_6.png"" style=""width: 80vw; height:auto;"">
          <br><br>
      </div>
      <br><br>
  </div>",f,,,,4jrGaKTlMqdWnmGrpwbPDCOATbJ3,,,,,,,,,,,,,,,,,,,,,,,5b758de6d74fcb00010d7f0b,16:31:34,27/03/2024
html-keyboard-response,45,100326,0.0-20.0,,"<div style=""font-size:100px;"">+</div>",,delaylearn,learning,pre_fixation,4jrGaKTlMqdWnmGrpwbPDCOATbJ3,,,,,,,,,,,,,,,,,,,,,,,5b758de6d74fcb00010d7f0b,16:31:34,27/03/2024
html-keyboard-response,46,102343,0.0-21.0,,"<div style=""font-size:100px;"">+</div>",,delaylearn,learning,ITI,4jrGaKTlMqdWnmGrpwbPDCOATbJ3,4jrGaKTlMqdWnmGrpwbPDCOATbJ3,,,,,,,,,,,,,,,,,,,2007.0,,,5b758de6d74fcb00010d7f0b,16:31:34,27/03/2024
html-keyboard-response,47,104553,0.0-22.0-0.0,2203.7999999988824,"<div style=""display: flex; flex-direction: column; align-items: center; margin-top: -40px;""><img src=""images/pattern_3.png"" style=""width: 234px; height: 230px; margin-top: -50px;""><div style=""display: flex; justify-content: space-between; margin-top: 33px;""><img src=""images/choice_trial_16.png"" style=""width: 408px; height: 417px; margin-right: 200px;""><img src=""images/choice_trial_6.png"" style=""width: 408px; height: 417px;""></div></div>",f,delaylearn,learning,trial,4jrGaKTlMqdWnmGrpwbPDCOATbJ3,4jrGaKTlMqdWnmGrpwbPDCOATbJ3,4.0,images/choice_trial_16.png,images/choice_trial_6.png,images/pattern_3.png,f,f,7000.0,16.0,6.0,2.0,0.0,9.0,1.0,1.0,16.0,50.0,,,,,,5b758de6d74fcb00010d7f0b,16:31:34,27/03/2024
html-keyboard-response,48,105560,0.0-22.0-1.0,,"<div style=""display: flex; flex-direction: column; align-items: center; margin-top: -40px;""><img src=""images/pattern_3.png"" style=""width: 234px; height: 230px; margin-top: -50px;""><div style=""display: flex; justify-content: space-between; margin-top: 33px;""><img src=""images/choice_trial_16.png"" style=""width: 408px; height: 417px; margin-right: 608px;""></div></div>",,delaylearn,learning,display_response,4jrGaKTlMqdWnmGrpwbPDCOATbJ3,4jrGaKTlMqdWnmGrpwbPDCOATbJ3,,,,,,,,,,,,,,,,,chosen stimuli: images/choice_trial_16.png,,,,,5b758de6d74fcb00010d7f0b,16:31:34,27/03/2024
html-keyboard-response,49,112576,0.0-22.0-2.0,,,,delaylearn,learning,feedback_duration_window,4jrGaKTlMqdWnmGrpwbPDCOATbJ3,4jrGaKTlMqdWnmGrpwbPDCOATbJ3,,,,,,,,,,,,,,,,,,7000.0,,,,5b758de6d74fcb00010d7f0b,16:31:34,27/03/2024
html-keyboard-response,50,114093,0.0-22.0-3.0,,<div style='margin:auto;width: auto; font-size: 150%'><span style='font-weight: bold; font-size: 100px; color: green;'>+10 points!</span><br><br></div>,,delaylearn,learning,feedback_image_window,4jrGaKTlMqdWnmGrpwbPDCOATbJ3,4jrGaKTlMqdWnmGrpwbPDCOATbJ3,,,,,,,,,,,,,,,,,,,,,,5b758de6d74fcb00010d7f0b,16:31:34,27/03/2024
html-keyboard-response,51,116488,0.0-23.0,,"<div style=""font-size:100px;"">+</div>",,delaylearn,learning,ITI,4jrGaKTlMqdWnmGrpwbPDCOATbJ3,4jrGaKTlMqdWnmGrpwbPDCOATbJ3,,,,,,,,,,,,,,,,,,,2389.0,,,5b758de6d74fcb00010d7f0b,16:31:34,27/03/2024
html-keyboard-response,52,118019,0.0-24.0-0.0,1517.800000000745,"<div style=""display: flex; flex-direction: column; align-items: center; margin-top: -40px;""><img src=""images/pattern_7.png"" style=""width: 234px; height: 230px; margin-top: -50px;""><div style=""display: flex; justify-content: space-between; margin-top: 33px;""><img src=""images/choice_trial_4.png"" style=""width: 408px; height: 417px; margin-right: 200px;""><img src=""images/choice_trial_13.png"" style=""width: 408px; height: 417px;""></div></div>",j,delaylearn,learning,trial,4jrGaKTlMqdWnmGrpwbPDCOATbJ3,4jrGaKTlMqdWnmGrpwbPDCOATbJ3,4.0,images/choice_trial_4.png,images/choice_trial_13.png,images/pattern_7.png,j,j,750.0,4.0,13.0,6.0,1.0,10.0,1.0,1.0,13.0,60.0,,,,,,5b758de6d74fcb00010d7f0b,16:31:34,27/03/2024
html-keyboard-response,53,119027,0.0-24.0-1.0,,"<div style=""display: flex; flex-direction: column; align-items: center; margin-top: -40px;""><img src=""images/pattern_7.png"" style=""width: 234px; height: 230px; margin-top: -50px;""><div style=""display: flex; justify-content: space-between; margin-top: 33px;""><img src=""images/choice_trial_13.png"" style=""width: 408px; height: 417px; margin-left:608px;""></div></div>",,delaylearn,learning,display_response,4jrGaKTlMqdWnmGrpwbPDCOATbJ3,4jrGaKTlMqdWnmGrpwbPDCOATbJ3,,,,,,,,,,,,,,,,,chosen stimuli: images/choice_trial_13.png,,,,,5b758de6d74fcb00010d7f0b,16:31:34,27/03/2024
html-keyboard-response,54,119795,0.0-24.0-2.0,,,,delaylearn,learning,feedback_duration_window,4jrGaKTlMqdWnmGrpwbPDCOATbJ3,4jrGaKTlMqdWnmGrpwbPDCOATbJ3,,,,,,,,,,,,,,,,,,750.0,,,,5b758de6d74fcb00010d7f0b,16:31:34,27/03/2024
html-keyboard-response,55,121310,0.0-24.0-3.0,,<div style='margin:auto;width: auto; font-size: 150%'><span style='font-weight: bold; font-size: 100px; color: green;'>+10 points!</span><br><br></div>,,delaylearn,learning,feedback_image_window,4jrGaKTlMqdWnmGrpwbPDCOATbJ3,4jrGaKTlMqdWnmGrpwbPDCOATbJ3,,,,,,,,,,,,,,,,,,,,,,5b758de6d74fcb00010d7f0b,16:31:34,27/03/2024
html-keyboard-response,56,122988,0.0-25.0,,"<div style=""font-size:100px;"">+</div>",,delaylearn,learning,ITI,4jrGaKTlMqdWnmGrpwbPDCOATbJ3,4jrGaKTlMqdWnmGrpwbPDCOATbJ3,,,,,,,,,,,,,,,,,,,1664.0,,,5b758de6d74fcb00010d7f0b,16:31:34,27/03/2024
html-keyboard-response,57,125095,0.0-26.0-0.0,2092.0,"<div style=""display: flex; flex-direction: column; align-items: center; margin-top: -40px;""><img src=""images/pattern_4.png"" style=""width: 234px; height: 230px; margin-top: -50px;""><div style=""display: flex; justify-content: space-between; margin-top: 33px;""><img src=""images/choice_trial_8.png"" style=""width: 408px; height: 417px; margin-right: 200px;""><img src=""images/choice_trial_7.png"" style=""width: 408px; height: 417px;""></div></div>",j,delaylearn,learning,trial,4jrGaKTlMqdWnmGrpwbPDCOATbJ3,4jrGaKTlMqdWnmGrpwbPDCOATbJ3,4.0,images/choice_trial_8.png,images/choice_trial_7.png,images/pattern_4.png,f,f,7000.0,8.0,7.0,3.0,0.0,11.0,0.0,0.0,7.0,60.0,,,,,,5b758de6d74fcb00010d7f0b,16:31:34,27/03/2024
html-keyboard-response,58,126106,0.0-26.0-1.0,,"<div style=""display: flex; flex-direction: column; align-items: center; margin-top: -40px;""><img src=""images/pattern_4.png"" style=""width: 234px; height: 230px; margin-top: -50px;""><div style=""display: flex; justify-content: space-between; margin-top: 33px;""><img src=""images/choice_trial_7.png"" style=""width: 408px; height: 417px; margin-left:608px;""></div></div>",,delaylearn,learning,display_response,4jrGaKTlMqdWnmGrpwbPDCOATbJ3,4jrGaKTlMqdWnmGrpwbPDCOATbJ3,,,,,,,,,,,,,,,,,chosen stimuli: images/choice_trial_7.png,,,,,5b758de6d74fcb00010d7f0b,16:31:34,27/03/2024
html-keyboard-response,59,133115,0.0-26.0-2.0,,,,delaylearn,learning,feedback_duration_window,4jrGaKTlMqdWnmGrpwbPDCOATbJ3,4jrGaKTlMqdWnmGrpwbPDCOATbJ3,,,,,,,,,,,,,,,,,,7000.0,,,,5b758de6d74fcb00010d7f0b,16:31:34,27/03/2024
html-keyboard-response,60,134630,0.0-26.0-3.0,,<div style='margin:auto;width: auto; font-size: 150%'><span style='font-weight: bold; font-size: 100px; color: red;'>0 points!</span><br><br></div>,,delaylearn,learning,feedback_image_window,4jrGaKTlMqdWnmGrpwbPDCOATbJ3,4jrGaKTlMqdWnmGrpwbPDCOATbJ3,,,,,,,,,,,,,,,,,,,,,,5b758de6d74fcb00010d7f0b,16:31:34,27/03/2024
html-keyboard-response,61,136348,0.0-27.0,,"<div style=""font-size:100px;"">+</div>",,delaylearn,learning,ITI,4jrGaKTlMqdWnmGrpwbPDCOATbJ3,4jrGaKTlMqdWnmGrpwbPDCOATbJ3,,,,,,,,,,,,,,,,,,,1712.0,,,5b758de6d74fcb00010d7f0b,16:31:34,27/03/2024
html-keyboard-response,62,138243,0.0-28.0-0.0,1884.300000000745,"<div style=""display: flex; flex-direction: column; align-items: center; margin-top: -40px;""><img src=""images/pattern_5.png"" style=""width: 234px; height: 230px; margin-top: -50px;""><div style=""display: flex; justify-content: space-between; margin-top: 33px;""><img src=""images/choice_trial_15.png"" style=""width: 408px; height: 417px; margin-right: 200px;""><img src=""images/choice_trial_5.png"" style=""width: 408px; height: 417px;""></div></div>",j,delaylearn,learning,trial,4jrGaKTlMqdWnmGrpwbPDCOATbJ3,4jrGaKTlMqdWnmGrpwbPDCOATbJ3,4.0,images/choice_trial_15.png,images/choice_trial_5.png,images/pattern_5.png,j,j,750.0,15.0,5.0,4.0,1.0,12.0,1.0,1.0,5.0,70.0,,,,,,5b758de6d74fcb00010d7f0b,16:31:34,27/03/2024
html-keyboard-response,63,139259,0.0-28.0-1.0,,"<div style=""display: flex; flex-direction: column; align-items: center; margin-top: -40px;""><img src=""images/pattern_5.png"" style=""width: 234px; height: 230px; margin-top: -50px;""><div style=""display: flex; justify-content: space-between; margin-top: 33px;""><img src=""images/choice_trial_5.png"" style=""width: 408px; height: 417px; margin-left:608px;""></div></div>",,delaylearn,learning,display_response,4jrGaKTlMqdWnmGrpwbPDCOATbJ3,4jrGaKTlMqdWnmGrpwbPDCOATbJ3,,,,,,,,,,,,,,,,,chosen stimuli: images/choice_trial_5.png,,,,,5b758de6d74fcb00010d7f0b,16:31:34,27/03/2024
html-keyboard-response,64,140024,0.0-28.0-2.0,,,,delaylearn,learning,feedback_duration_window,4jrGaKTlMqdWnmGrpwbPDCOATbJ3,4jrGaKTlMqdWnmGrpwbPDCOATbJ3,,,,,,,,,,,,,,,,,,750.0,,,,5b758de6d74fcb00010d7f0b,16:31:34,27/03/2024
html-keyboard-response,65,141545,0.0-28.0-3.0,,<div style='margin:auto;width: auto; font-size: 150%'><span style='font-weight: bold; font-size: 100px; color: green;'>+10 points!</span><br><br></div>,,delaylearn,learning,feedback_image_window,4jrGaKTlMqdWnmGrpwbPDCOATbJ3,4jrGaKTlMqdWnmGrpwbPDCOATbJ3,,,,,,,,,,,,,,,,,,,,,,5b758de6d74fcb00010d7f0b,16:31:34,27/03/2024
html-keyboard-response,66,143404,0.0-29.0,,"<div style=""font-size:100px;"">+</div>",,delaylearn,learning,ITI,4jrGaKTlMqdWnmGrpwbPDCOATbJ3,4jrGaKTlMqdWnmGrpwbPDCOATbJ3,,,,,,,,,,,,,,,,,,,1853.0,,,5b758de6d74fcb00010d7f0b,16:31:34,27/03/2024
html-keyboard-response,67,144761,0.0-30.0-0.0,1348.300000000745,"<div style=""display: flex; flex-direction: column; align-items: center; margin-top: -40px;""><img src=""images/pattern_6.png"" style=""width: 234px; height: 230px; margin-top: -50px;""><div style=""display: flex; justify-content: space-between; margin-top: 33px;""><img src=""images/choice_trial_10.png"" style=""width: 408px; height: 417px; margin-right: 200px;""><img src=""images/choice_trial_3.png"" style=""width: 408px; height: 417px;""></div></div>",f,delaylearn,learning,trial,4jrGaKTlMqdWnmGrpwbPDCOATbJ3,4jrGaKTlMqdWnmGrpwbPDCOATbJ3,4.0,images/choice_trial_10.png,images/choice_trial_3.png,images/pattern_6.png,j,f,750.0,10.0,3.0,5.0,0.0,13.0,1.0,0.0,10.0,70.0,,,,,,5b758de6d74fcb00010d7f0b,16:31:34,27/03/2024
html-keyboard-response,68,145793,0.0-30.0-1.0,,"<div style=""display: flex; flex-direction: column; align-items: center; margin-top: -40px;""><img src=""images/pattern_6.png"" style=""width: 234px; height: 230px; margin-top: -50px;""><div style=""display: flex; justify-content: space-between; margin-top: 33px;""><img src=""images/choice_trial_10.png"" style=""width: 408px; height: 417px; margin-right: 608px;""></div></div>",,delaylearn,learning,display_response,4jrGaKTlMqdWnmGrpwbPDCOATbJ3,4jrGaKTlMqdWnmGrpwbPDCOATbJ3,,,,,,,,,,,,,,,,,chosen stimuli: images/choice_trial_10.png,,,,,5b758de6d74fcb00010d7f0b,16:31:34,27/03/2024
html-keyboard-response,69,146559,0.0-30.0-2.0,,,,delaylearn,learning,feedback_duration_window,4jrGaKTlMqdWnmGrpwbPDCOATbJ3,4jrGaKTlMqdWnmGrpwbPDCOATbJ3,,,,,,,,,,,,,,,,,,750.0,,,,5b758de6d74fcb00010d7f0b,16:31:34,27/03/2024
html-keyboard-response,70,148075,0.0-30.0-3.0,,<div style='margin:auto;width: auto; font-size: 150%'><span style='font-weight: bold; font-size: 100px; color: red;'>0 points!</span><br><br></div>,,delaylearn,learning,feedback_image_window,4jrGaKTlMqdWnmGrpwbPDCOATbJ3,4jrGaKTlMqdWnmGrpwbPDCOATbJ3,,,,,,,,,,,,,,,,,,,,,,5b758de6d74fcb00010d7f0b,16:31:34,27/03/2024
html-keyboard-response,71,148589,0.0-31.0-0.0,,,,,,mood_trial_fixation,4jrGaKTlMqdWnmGrpwbPDCOATbJ3,,,,,,,,,,,,,,,,,,,,,,,5b758de6d74fcb00010d7f0b,16:31:34,27/03/2024
lmdlab-html-vas-response,72,154109,0.0-31.0-1.0,4497.0,How happy are you right now?,0.4978468007188634,delaylearn,learning,mood_trial,4jrGaKTlMqdWnmGrpwbPDCOATbJ3,4jrGaKTlMqdWnmGrpwbPDCOATbJ3,,,,,,,,,,,,,,,,,,,,"['Very unhappy', 'Very happy']",,5b758de6d74fcb00010d7f0b,16:31:34,27/03/2024
html-keyboard-response,73,156098,0.0-32.0,,"<div style=""font-size:100px;"">+</div>",,delaylearn,learning,ITI,4jrGaKTlMqdWnmGrpwbPDCOATbJ3,4jrGaKTlMqdWnmGrpwbPDCOATbJ3,,,,,,,,,,,,,,,,,,,1972.0,,,5b758de6d74fcb00010d7f0b,16:31:34,27/03/2024
html-keyboard-response,74,157469,0.0-33.0-0.0,1365.8999999985099,"<div style=""display: flex; flex-direction: column; align-items: center; margin-top: -40px;""><img src=""images/pattern_1.png"" style=""width: 234px; height: 230px; margin-top: -50px;""><div style=""display: flex; justify-content: space-between; margin-top: 33px;""><img src=""images/choice_trial_9.png"" style=""width: 408px; height: 417px; margin-right: 200px;""><img src=""images/choice_trial_1.png"" style=""width: 408px; height: 417px;""></div></div>",j,delaylearn,learning,trial,4jrGaKTlMqdWnmGrpwbPDCOATbJ3,4jrGaKTlMqdWnmGrpwbPDCOATbJ3,4.0,images/choice_trial_9.png,images/choice_trial_1.png,images/pattern_1.png,j,j,7000.0,9.0,1.0,1.0,1.0,14.0,1.0,1.0,1.0,80.0,,,,,,5b758de6d74fcb00010d7f0b,16:31:34,27/03/2024
html-keyboard-response,75,158488,0.0-33.0-1.0,,"<div style=""display: flex; flex-direction: column; align-items: center; margin-top: -40px;""><img src=""images/pattern_1.png"" style=""width: 234px; height: 230px; margin-top: -50px;""><div style=""display: flex; justify-content: space-between; margin-top: 33px;""><img src=""images/choice_trial_1.png"" style=""width: 408px; height: 417px; margin-left:608px;""></div></div>",,delaylearn,learning,display_response,4jrGaKTlMqdWnmGrpwbPDCOATbJ3,4jrGaKTlMqdWnmGrpwbPDCOATbJ3,,,,,,,,,,,,,,,,,chosen stimuli: images/choice_trial_1.png,,,,,5b758de6d74fcb00010d7f0b,16:31:34,27/03/2024
html-keyboard-response,76,165495,0.0-33.0-2.0,,,,delaylearn,learning,feedback_duration_window,4jrGaKTlMqdWnmGrpwbPDCOATbJ3,4jrGaKTlMqdWnmGrpwbPDCOATbJ3,,,,,,,,,,,,,,,,,,7000.0,,,,5b758de6d74fcb00010d7f0b,16:31:34,27/03/2024
html-keyboard-response,77,167006,0.0-33.0-3.0,,<div style='margin:auto;width: auto; font-size: 150%'><span style='font-weight: bold; font-size: 100px; color: green;'>+10 points!</span><br><br></div>,,delaylearn,learning,feedback_image_window,4jrGaKTlMqdWnmGrpwbPDCOATbJ3,4jrGaKTlMqdWnmGrpwbPDCOATbJ3,,,,,,,,,,,,,,,,,,,,,,5b758de6d74fcb00010d7f0b,16:31:34,27/03/2024
html-keyboard-response,78,168598,0.0-34.0,,"<div style=""font-size:100px;"">+</div>",,delaylearn,learning,ITI,4jrGaKTlMqdWnmGrpwbPDCOATbJ3,4jrGaKTlMqdWnmGrpwbPDCOATbJ3,,,,,,,,,,,,,,,,,,,1582.0,,,5b758de6d74fcb00010d7f0b,16:31:34,27/03/2024
html-keyboard-response,79,171400,0.0-35.0-0.0,2785.0,"<div style=""display: flex; flex-direction: column; align-items: center; margin-top: -40px;""><img src=""images/pattern_3.png"" style=""width: 234px; height: 230px; margin-top: -50px;""><div style=""display: flex; justify-content: space-between; margin-top: 33px;""><img src=""images/choice_trial_6.png"" style=""width: 408px; height: 417px; margin-right: 200px;""><img src=""images/choice_trial_16.png"" style=""width: 408px; height: 417px;""></div></div>",j,delaylearn,learning,trial,4jrGaKTlMqdWnmGrpwbPDCOATbJ3,4jrGaKTlMqdWnmGrpwbPDCOATbJ3,4.0,images/choice_trial_6.png,images/choice_trial_16.png,images/pattern_3.png,f,j,7000.0,6.0,16.0,2.0,1.0,15.0,1.0,0.0,16.0,80.0,,,,,,5b758de6d74fcb00010d7f0b,16:31:34,27/03/2024
html-keyboard-response,80,172425,0.0-35.0-1.0,,"<div style=""display: flex; flex-direction: column; align-items: center; margin-top: -40px;""><img src=""images/pattern_3.png"" style=""width: 234px; height: 230px; margin-top: -50px;""><div style=""display: flex; justify-content: space-between; margin-top: 33px;""><img src=""images/choice_trial_16.png"" style=""width: 408px; height: 417px; margin-left:608px;""></div></div>",,delaylearn,learning,display_response,4jrGaKTlMqdWnmGrpwbPDCOATbJ3,4jrGaKTlMqdWnmGrpwbPDCOATbJ3,,,,,,,,,,,,,,,,,chosen stimuli: images/choice_trial_16.png,,,,,5b758de6d74fcb00010d7f0b,16:31:34,27/03/2024
html-keyboard-response,81,179430,0.0-35.0-2.0,,,,delaylearn,learning,feedback_duration_window,4jrGaKTlMqdWnmGrpwbPDCOATbJ3,4jrGaKTlMqdWnmGrpwbPDCOATbJ3,,,,,,,,,,,,,,,,,,7000.0,,,,5b758de6d74fcb00010d7f0b,16:31:34,27/03/2024
html-keyboard-response,82,180946,0.0-35.0-3.0,,<div style='margin:auto;width: auto; font-size: 150%'><span style='font-weight: bold; font-size: 100px; color: red;'>0 points!</span><br><br></div>,,delaylearn,learning,feedback_image_window,4jrGaKTlMqdWnmGrpwbPDCOATbJ3,4jrGaKTlMqdWnmGrpwbPDCOATbJ3,,,,,,,,,,,,,,,,,,,,,,5b758de6d74fcb00010d7f0b,16:31:34,27/03/2024
html-keyboard-response,83,182961,0.0-36.0,,"<div style=""font-size:100px;"">+</div>",,delaylearn,learning,ITI,4jrGaKTlMqdWnmGrpwbPDCOATbJ3,4jrGaKTlMqdWnmGrpwbPDCOATbJ3,,,,,,,,,,,,,,,,,,,1992.0,,,5b758de6d74fcb00010d7f0b,16:31:34,27/03/2024
html-keyboard-response,84,184913,0.0-37.0-0.0,1933.5,"<div style=""display: flex; flex-direction: column; align-items: center; margin-top: -40px;""><img src=""images/pattern_5.png"" style=""width: 234px; height: 230px; margin-top: -50px;""><div style=""display: flex; justify-content: space-between; margin-top: 33px;""><img src=""images/choice_trial_5.png"" style=""width: 408px; height: 417px; margin-right: 200px;""><img src=""images/choice_trial_15.png"" style=""width: 408px; height: 417px;""></div></div>",f,delaylearn,learning,trial,4jrGaKTlMqdWnmGrpwbPDCOATbJ3,4jrGaKTlMqdWnmGrpwbPDCOATbJ3,4.0,images/choice_trial_5.png,images/choice_trial_15.png,images/pattern_5.png,f,f,750.0,5.0,15.0,4.0,0.0,16.0,1.0,1.0,5.0,90.0,,,,,,5b758de6d74fcb00010d7f0b,16:31:34,27/03/2024
html-keyboard-response,85,185926,0.0-37.0-1.0,,"<div style=""display: flex; flex-direction: column; align-items: center; margin-top: -40px;""><img src=""images/pattern_5.png"" style=""width: 234px; height: 230px; margin-top: -50px;""><div style=""display: flex; justify-content: space-between; margin-top: 33px;""><img src=""images/choice_trial_5.png"" style=""width: 408px; height: 417px; margin-right: 608px;""></div></div>",,delaylearn,learning,display_response,4jrGaKTlMqdWnmGrpwbPDCOATbJ3,4jrGaKTlMqdWnmGrpwbPDCOATbJ3,,,,,,,,,,,,,,,,,chosen stimuli: images/choice_trial_5.png,,,,,5b758de6d74fcb00010d7f0b,16:31:34,27/03/2024
html-keyboard-response,86,186694,0.0-37.0-2.0,,,,delaylearn,learning,feedback_duration_window,4jrGaKTlMqdWnmGrpwbPDCOATbJ3,4jrGaKTlMqdWnmGrpwbPDCOATbJ3,,,,,,,,,,,,,,,,,,750.0,,,,5b758de6d74fcb00010d7f0b,16:31:34,27/03/2024
html-keyboard-response,87,188209,0.0-37.0-3.0,,<div style='margin:auto;width: auto; font-size: 150%'><span style='font-weight: bold; font-size: 100px; color: green;'>+10 points!</span><br><br></div>,,delaylearn,learning,feedback_image_window,4jrGaKTlMqdWnmGrpwbPDCOATbJ3,4jrGaKTlMqdWnmGrpwbPDCOATbJ3,,,,,,,,,,,,,,,,,,,,,,5b758de6d74fcb00010d7f0b,16:31:34,27/03/2024
html-keyboard-response,88,188727,0.0-38.0-0.0,,,,,,mood_trial_fixation,4jrGaKTlMqdWnmGrpwbPDCOATbJ3,,,,,,,,,,,,,,,,,,,,,,,5b758de6d74fcb00010d7f0b,16:31:34,27/03/2024
lmdlab-html-vas-response,89,194218,0.0-38.0-1.0,4467.0,How happy are you right now?,0.5086975687497881,delaylearn,learning,mood_trial,4jrGaKTlMqdWnmGrpwbPDCOATbJ3,4jrGaKTlMqdWnmGrpwbPDCOATbJ3,,,,,,,,,,,,,,,,,,,,"['Very unhappy', 'Very happy']",,5b758de6d74fcb00010d7f0b,16:31:34,27/03/2024
html-keyboard-response,90,196580,0.0-39.0,,"<div style=""font-size:100px;"">+</div>",,delaylearn,learning,ITI,4jrGaKTlMqdWnmGrpwbPDCOATbJ3,4jrGaKTlMqdWnmGrpwbPDCOATbJ3,,,,,,,,,,,,,,,,,,,2342.0,,,5b758de6d74fcb00010d7f0b,16:31:34,27/03/2024
html-keyboard-response,91,198264,0.0-40.0-0.0,1677.2999999988824,"<div style=""display: flex; flex-direction: column; align-items: center; margin-top: -40px;""><img src=""images/pattern_6.png"" style=""width: 234px; height: 230px; margin-top: -50px;""><div style=""display: flex; justify-content: space-between; margin-top: 33px;""><img src=""images/choice_trial_10.png"" style=""width: 408px; height: 417px; margin-right: 200px;""><img src=""images/choice_trial_3.png"" style=""width: 408px; height: 417px;""></div></div>",j,delaylearn,learning,trial,4jrGaKTlMqdWnmGrpwbPDCOATbJ3,4jrGaKTlMqdWnmGrpwbPDCOATbJ3,4.0,images/choice_trial_10.png,images/choice_trial_3.png,images/pattern_6.png,f,f,750.0,10.0,3.0,5.0,0.0,17.0,0.0,0.0,3.0,90.0,,,,,,5b758de6d74fcb00010d7f0b,16:31:34,27/03/2024
html-keyboard-response,92,199275,0.0-40.0-1.0,,"<div style=""display: flex; flex-direction: column; align-items: center; margin-top: -40px;""><img src=""images/pattern_6.png"" style=""width: 234px; height: 230px; margin-top: -50px;""><div style=""display: flex; justify-content: space-between; margin-top: 33px;""><img src=""images/choice_trial_3.png"" style=""width: 408px; height: 417px; margin-left:608px;""></div></div>",,delaylearn,learning,display_response,4jrGaKTlMqdWnmGrpwbPDCOATbJ3,4jrGaKTlMqdWnmGrpwbPDCOATbJ3,,,,,,,,,,,,,,,,,chosen stimuli: images/choice_trial_3.png,,,,,5b758de6d74fcb00010d7f0b,16:31:34,27/03/2024
html-keyboard-response,93,200043,0.0-40.0-2.0,,,,delaylearn,learning,feedback_duration_window,4jrGaKTlMqdWnmGrpwbPDCOATbJ3,4jrGaKTlMqdWnmGrpwbPDCOATbJ3,,,,,,,,,,,,,,,,,,750.0,,,,5b758de6d74fcb00010d7f0b,16:31:34,27/03/2024
html-keyboard-response,94,201558,0.0-40.0-3.0,,<div style='margin:auto;width: auto; font-size: 150%'><span style='font-weight: bold; font-size: 100px; color: red;'>0 points!</span><br><br></div>,,delaylearn,learning,feedback_image_window,4jrGaKTlMqdWnmGrpwbPDCOATbJ3,4jrGaKTlMqdWnmGrpwbPDCOATbJ3,,,,,,,,,,,,,,,,,,,,,,5b758de6d74fcb00010d7f0b,16:31:34,27/03/2024
html-keyboard-response,95,203734,0.0-41.0,,"<div style=""font-size:100px;"">+</div>",,delaylearn,learning,ITI,4jrGaKTlMqdWnmGrpwbPDCOATbJ3,4jrGaKTlMqdWnmGrpwbPDCOATbJ3,,,,,,,,,,,,,,,,,,,2166.0,,,5b758de6d74fcb00010d7f0b,16:31:34,27/03/2024
html-keyboard-response,96,204785,0.0-42.0-0.0,1044.800000000745,"<div style=""display: flex; flex-direction: column; align-items: center; margin-top: -40px;""><img src=""images/pattern_4.png"" style=""width: 234px; height: 230px; margin-top: -50px;""><div style=""display: flex; justify-content: space-between; margin-top: 33px;""><img src=""images/choice_trial_7.png"" style=""width: 408px; height: 417px; margin-right: 200px;""><img src=""images/choice_trial_8.png"" style=""width: 408px; height: 417px;""></div></div>",j,delaylearn,learning,trial,4jrGaKTlMqdWnmGrpwbPDCOATbJ3,4jrGaKTlMqdWnmGrpwbPDCOATbJ3,4.0,images/choice_trial_7.png,images/choice_trial_8.png,images/pattern_4.png,j,j,7000.0,7.0,8.0,3.0,1.0,18.0,1.0,1.0,8.0,100.0,,,,,,5b758de6d74fcb00010d7f0b,16:31:34,27/03/2024
html-keyboard-response,97,205790,0.0-42.0-1.0,,"<div style=""display: flex; flex-direction: column; align-items: center; margin-top: -40px;""><img src=""images/pattern_4.png"" style=""width: 234px; height: 230px; margin-top: -50px;""><div style=""display: flex; justify-content: space-between; margin-top: 33px;""><img src=""images/choice_trial_8.png"" style=""width: 408px; height: 417px; margin-left:608px;""></div></div>",,delaylearn,learning,display_response,4jrGaKTlMqdWnmGrpwbPDCOATbJ3,4jrGaKTlMqdWnmGrpwbPDCOATbJ3,,,,,,,,,,,,,,,,,chosen stimuli: images/choice_trial_8.png,,,,,5b758de6d74fcb00010d7f0b,16:31:34,27/03/2024
html-keyboard-response,98,212799,0.0-42.0-2.0,,,,delaylearn,learning,feedback_duration_window,4jrGaKTlMqdWnmGrpwbPDCOATbJ3,4jrGaKTlMqdWnmGrpwbPDCOATbJ3,,,,,,,,,,,,,,,,,,7000.0,,,,5b758de6d74fcb00010d7f0b,16:31:34,27/03/2024
html-keyboard-response,99,214310,0.0-42.0-3.0,,<div style='margin:auto;width: auto; font-size: 150%'><span style='font-weight: bold; font-size: 100px; color: green;'>+10 points!</span><br><br></div>,,delaylearn,learning,feedback_image_window,4jrGaKTlMqdWnmGrpwbPDCOATbJ3,4jrGaKTlMqdWnmGrpwbPDCOATbJ3,,,,,,,,,,,,,,,,,,,,,,5b758de6d74fcb00010d7f0b,16:31:34,27/03/2024
html-keyboard-response,100,216529,0.0-43.0,,"<div style=""font-size:100px;"">+</div>",,delaylearn,learning,ITI,4jrGaKTlMqdWnmGrpwbPDCOATbJ3,4jrGaKTlMqdWnmGrpwbPDCOATbJ3,,,,,,,,,,,,,,,,,,,2214.0,,,5b758de6d74fcb00010d7f0b,16:31:34,27/03/2024
html-keyboard-response,101,218138,0.0-44.0-0.0,1603.300000000745,"<div style=""display: flex; flex-direction: column; align-items: center; margin-top: -40px;""><img src=""images/pattern_7.png"" style=""width: 234px; height: 230px; margin-top: -50px;""><div style=""display: flex; justify-content: space-between; margin-top: 33px;""><img src=""images/choice_trial_13.png"" style=""width: 408px; height: 417px; margin-right: 200px;""><img src=""images/choice_trial_4.png"" style=""width: 408px; height: 417px;""></div></div>",f,delaylearn,learning,trial,4jrGaKTlMqdWnmGrpwbPDCOATbJ3,4jrGaKTlMqdWnmGrpwbPDCOATbJ3,4.0,images/choice_trial_13.png,images/choice_trial_4.png,images/pattern_7.png,j,f,750.0,13.0,4.0,6.0,0.0,19.0,1.0,0.0,13.0,100.0,,,,,,5b758de6d74fcb00010d7f0b,16:31:34,27/03/2024
html-keyboard-response,102,219142,0.0-44.0-1.0,,"<div style=""display: flex; flex-direction: column; align-items: center; margin-top: -40px;""><img src=""images/pattern_7.png"" style=""width: 234px; height: 230px; margin-top: -50px;""><div style=""display: flex; justify-content: space-between; margin-top: 33px;""><img src=""images/choice_trial_13.png"" style=""width: 408px; height: 417px; margin-right: 608px;""></div></div>",,delaylearn,learning,display_response,4jrGaKTlMqdWnmGrpwbPDCOATbJ3,4jrGaKTlMqdWnmGrpwbPDCOATbJ3,,,,,,,,,,,,,,,,,chosen stimuli: images/choice_trial_13.png,,,,,5b758de6d74fcb00010d7f0b,16:31:34,27/03/2024
html-keyboard-response,103,219909,0.0-44.0-2.0,,,,delaylearn,learning,feedback_duration_window,4jrGaKTlMqdWnmGrpwbPDCOATbJ3,4jrGaKTlMqdWnmGrpwbPDCOATbJ3,,,,,,,,,,,,,,,,,,750.0,,,,5b758de6d74fcb00010d7f0b,16:31:34,27/03/2024
html-keyboard-response,104,221426,0.0-44.0-3.0,,<div style='margin:auto;width: auto; font-size: 150%'><span style='font-weight: bold; font-size: 100px; color: red;'>0 points!</span><br><br></div>,,delaylearn,learning,feedback_image_window,4jrGaKTlMqdWnmGrpwbPDCOATbJ3,4jrGaKTlMqdWnmGrpwbPDCOATbJ3,,,,,,,,,,,,,,,,,,,,,,5b758de6d74fcb00010d7f0b,16:31:34,27/03/2024
html-keyboard-response,105,223396,0.0-45.0,,"<div style=""font-size:100px;"">+</div>",,delaylearn,learning,ITI,4jrGaKTlMqdWnmGrpwbPDCOATbJ3,4jrGaKTlMqdWnmGrpwbPDCOATbJ3,,,,,,,,,,,,,,,,,,,1965.0,,,5b758de6d74fcb00010d7f0b,16:31:34,27/03/2024
html-keyboard-response,106,225119,0.0-46.0-0.0,1716.9000000003725,"<div style=""display: flex; flex-direction: column; align-items: center; margin-top: -40px;""><img src=""images/pattern_1.png"" style=""width: 234px; height: 230px; margin-top: -50px;""><div style=""display: flex; justify-content: space-between; margin-top: 33px;""><img src=""images/choice_trial_1.png"" style=""width: 408px; height: 417px; margin-right: 200px;""><img src=""images/choice_trial_9.png"" style=""width: 408px; height: 417px;""></div></div>",f,delaylearn,learning,trial,4jrGaKTlMqdWnmGrpwbPDCOATbJ3,4jrGaKTlMqdWnmGrpwbPDCOATbJ3,4.0,images/choice_trial_1.png,images/choice_trial_9.png,images/pattern_1.png,f,f,7000.0,1.0,9.0,1.0,0.0,20.0,1.0,1.0,1.0,110.0,,,,,,5b758de6d74fcb00010d7f0b,16:31:34,27/03/2024
html-keyboard-response,107,226127,0.0-46.0-1.0,,"<div style=""display: flex; flex-direction: column; align-items: center; margin-top: -40px;""><img src=""images/pattern_1.png"" style=""width: 234px; height: 230px; margin-top: -50px;""><div style=""display: flex; justify-content: space-between; margin-top: 33px;""><img src=""images/choice_trial_1.png"" style=""width: 408px; height: 417px; margin-right: 608px;""></div></div>",,delaylearn,learning,display_response,4jrGaKTlMqdWnmGrpwbPDCOATbJ3,4jrGaKTlMqdWnmGrpwbPDCOATbJ3,,,,,,,,,,,,,,,,,chosen stimuli: images/choice_trial_1.png,,,,,5b758de6d74fcb00010d7f0b,16:31:34,27/03/2024
html-keyboard-response,108,233130,0.0-46.0-2.0,,,,delaylearn,learning,feedback_duration_window,4jrGaKTlMqdWnmGrpwbPDCOATbJ3,4jrGaKTlMqdWnmGrpwbPDCOATbJ3,,,,,,,,,,,,,,,,,,7000.0,,,,5b758de6d74fcb00010d7f0b,16:31:34,27/03/2024
html-keyboard-response,109,234643,0.0-46.0-3.0,,<div style='margin:auto;width: auto; font-size: 150%'><span style='font-weight: bold; font-size: 100px; color: green;'>+10 points!</span><br><br></div>,,delaylearn,learning,feedback_image_window,4jrGaKTlMqdWnmGrpwbPDCOATbJ3,4jrGaKTlMqdWnmGrpwbPDCOATbJ3,,,,,,,,,,,,,,,,,,,,,,5b758de6d74fcb00010d7f0b,16:31:34,27/03/2024
html-keyboard-response,110,236160,0.0-47.0,,"<div style=""font-size:100px;"">+</div>",,delaylearn,learning,ITI,4jrGaKTlMqdWnmGrpwbPDCOATbJ3,4jrGaKTlMqdWnmGrpwbPDCOATbJ3,,,,,,,,,,,,,,,,,,,1509.0,,,5b758de6d74fcb00010d7f0b,16:31:34,27/03/2024
html-keyboard-response,111,238341,0.0-48.0-0.0,2174.5999999996275,"<div style=""display: flex; flex-direction: column; align-items: center; margin-top: -40px;""><img src=""images/pattern_6.png"" style=""width: 234px; height: 230px; margin-top: -50px;""><div style=""display: flex; justify-content: space-between; margin-top: 33px;""><img src=""images/choice_trial_3.png"" style=""width: 408px; height: 417px; margin-right: 200px;""><img src=""images/choice_trial_10.png"" style=""width: 408px; height: 417px;""></div></div>",j,delaylearn,learning,trial,4jrGaKTlMqdWnmGrpwbPDCOATbJ3,4jrGaKTlMqdWnmGrpwbPDCOATbJ3,4.0,images/choice_trial_3.png,images/choice_trial_10.png,images/pattern_6.png,j,j,750.0,3.0,10.0,5.0,1.0,21.0,1.0,1.0,10.0,120.0,,,,,,5b758de6d74fcb00010d7f0b,16:31:34,27/03/2024
html-keyboard-response,112,239360,0.0-48.0-1.0,,"<div style=""display: flex; flex-direction: column; align-items: center; margin-top: -40px;""><img src=""images/pattern_6.png"" style=""width: 234px; height: 230px; margin-top: -50px;""><div style=""display: flex; justify-content: space-between; margin-top: 33px;""><img src=""images/choice_trial_10.png"" style=""width: 408px; height: 417px; margin-left:608px;""></div></div>",,delaylearn,learning,display_response,4jrGaKTlMqdWnmGrpwbPDCOATbJ3,4jrGaKTlMqdWnmGrpwbPDCOATbJ3,,,,,,,,,,,,,,,,,chosen stimuli: images/choice_trial_10.png,,,,,5b758de6d74fcb00010d7f0b,16:31:34,27/03/2024
html-keyboard-response,113,240126,0.0-48.0-2.0,,,,delaylearn,learning,feedback_duration_window,4jrGaKTlMqdWnmGrpwbPDCOATbJ3,4jrGaKTlMqdWnmGrpwbPDCOATbJ3,,,,,,,,,,,,,,,,,,750.0,,,,5b758de6d74fcb00010d7f0b,16:31:34,27/03/2024
html-keyboard-response,114,241644,0.0-48.0-3.0,,<div style='margin:auto;width: auto; font-size: 150%'><span style='font-weight: bold; font-size: 100px; color: green;'>+10 points!</span><br><br></div>,,delaylearn,learning,feedback_image_window,4jrGaKTlMqdWnmGrpwbPDCOATbJ3,4jrGaKTlMqdWnmGrpwbPDCOATbJ3,,,,,,,,,,,,,,,,,,,,,,5b758de6d74fcb00010d7f0b,16:31:34,27/03/2024
html-keyboard-response,115,243839,0.0-49.0,,"<div style=""font-size:100px;"">+</div>",,delaylearn,learning,ITI,4jrGaKTlMqdWnmGrpwbPDCOATbJ3,4jrGaKTlMqdWnmGrpwbPDCOATbJ3,,,,,,,,,,,,,,,,,,,2190.0,,,5b758de6d74fcb00010d7f0b,16:31:34,27/03/2024
html-keyboard-response,116,246013,0.0-50.0-0.0,2167.7000000011176,"<div style=""display: flex; flex-direction: column; align-items: center; margin-top: -40px;""><img src=""images/pattern_4.png"" style=""width: 234px; height: 230px; margin-top: -50px;""><div style=""display: flex; justify-content: space-between; margin-top: 33px;""><img src=""images/choice_trial_8.png"" style=""width: 408px; height: 417px; margin-right: 200px;""><img src=""images/choice_trial_7.png"" style=""width: 408px; height: 417px;""></div></div>",j,delaylearn,learning,trial,4jrGaKTlMqdWnmGrpwbPDCOATbJ3,4jrGaKTlMqdWnmGrpwbPDCOATbJ3,4.0,images/choice_trial_8.png,images/choice_trial_7.png,images/pattern_4.png,f,f,7000.0,8.0,7.0,3.0,0.0,22.0,0.0,0.0,7.0,120.0,,,,,,5b758de6d74fcb00010d7f0b,16:31:34,27/03/2024
html-keyboard-response,117,247027,0.0-50.0-1.0,,"<div style=""display: flex; flex-direction: column; align-items: center; margin-top: -40px;""><img src=""images/pattern_4.png"" style=""width: 234px; height: 230px; margin-top: -50px;""><div style=""display: flex; justify-content: space-between; margin-top: 33px;""><img src=""images/choice_trial_7.png"" style=""width: 408px; height: 417px; margin-left:608px;""></div></div>",,delaylearn,learning,display_response,4jrGaKTlMqdWnmGrpwbPDCOATbJ3,4jrGaKTlMqdWnmGrpwbPDCOATbJ3,,,,,,,,,,,,,,,,,chosen stimuli: images/choice_trial_7.png,,,,,5b758de6d74fcb00010d7f0b,16:31:34,27/03/2024
html-keyboard-response,118,254031,0.0-50.0-2.0,,,,delaylearn,learning,feedback_duration_window,4jrGaKTlMqdWnmGrpwbPDCOATbJ3,4jrGaKTlMqdWnmGrpwbPDCOATbJ3,,,,,,,,,,,,,,,,,,7000.0,,,,5b758de6d74fcb00010d7f0b,16:31:34,27/03/2024
html-keyboard-response,119,255544,0.0-50.0-3.0,,<div style='margin:auto;width: auto; font-size: 150%'><span style='font-weight: bold; font-size: 100px; color: red;'>0 points!</span><br><br></div>,,delaylearn,learning,feedback_image_window,4jrGaKTlMqdWnmGrpwbPDCOATbJ3,4jrGaKTlMqdWnmGrpwbPDCOATbJ3,,,,,,,,,,,,,,,,,,,,,,5b758de6d74fcb00010d7f0b,16:31:34,27/03/2024
html-keyboard-response,120,256061,0.0-51.0-0.0,,,,,,mood_trial_fixation,4jrGaKTlMqdWnmGrpwbPDCOATbJ3,,,,,,,,,,,,,,,,,,,,,,,5b758de6d74fcb00010d7f0b,16:31:34,27/03/2024
lmdlab-html-vas-response,121,262601,0.0-51.0-1.0,5514.0,How happy are you right now?,0.5889932521786307,delaylearn,learning,mood_trial,4jrGaKTlMqdWnmGrpwbPDCOATbJ3,4jrGaKTlMqdWnmGrpwbPDCOATbJ3,,,,,,,,,,,,,,,,,,,,"['Very unhappy', 'Very happy']",,5b758de6d74fcb00010d7f0b,16:31:34,27/03/2024
html-keyboard-response,122,264283,0.0-52.0,,"<div style=""font-size:100px;"">+</div>",,delaylearn,learning,ITI,4jrGaKTlMqdWnmGrpwbPDCOATbJ3,4jrGaKTlMqdWnmGrpwbPDCOATbJ3,,,,,,,,,,,,,,,,,,,1668.0,,,5b758de6d74fcb00010d7f0b,16:31:34,27/03/2024
html-keyboard-response,123,264972,0.0-53.0-0.0,683.5,"<div style=""display: flex; flex-direction: column; align-items: center; margin-top: -40px;""><img src=""images/pattern_7.png"" style=""width: 234px; height: 230px; margin-top: -50px;""><div style=""display: flex; justify-content: space-between; margin-top: 33px;""><img src=""images/choice_trial_4.png"" style=""width: 408px; height: 417px; margin-right: 200px;""><img src=""images/choice_trial_13.png"" style=""width: 408px; height: 417px;""></div></div>",f,delaylearn,learning,trial,4jrGaKTlMqdWnmGrpwbPDCOATbJ3,4jrGaKTlMqdWnmGrpwbPDCOATbJ3,4.0,images/choice_trial_4.png,images/choice_trial_13.png,images/pattern_7.png,j,j,750.0,4.0,13.0,6.0,1.0,23.0,0.0,0.0,4.0,120.0,,,,,,5b758de6d74fcb00010d7f0b,16:31:34,27/03/2024
html-keyboard-response,124,265979,0.0-53.0-1.0,,"<div style=""display: flex; flex-direction: column; align-items: center; margin-top: -40px;""><img src=""images/pattern_7.png"" style=""width: 234px; height: 230px; margin-top: -50px;""><div style=""display: flex; justify-content: space-between; margin-top: 33px;""><img src=""images/choice_trial_4.png"" style=""width: 408px; height: 417px; margin-right: 608px;""></div></div>",,delaylearn,learning,display_response,4jrGaKTlMqdWnmGrpwbPDCOATbJ3,4jrGaKTlMqdWnmGrpwbPDCOATbJ3,,,,,,,,,,,,,,,,,chosen stimuli: images/choice_trial_4.png,,,,,5b758de6d74fcb00010d7f0b,16:31:34,27/03/2024
html-keyboard-response,125,266744,0.0-53.0-2.0,,,,delaylearn,learning,feedback_duration_window,4jrGaKTlMqdWnmGrpwbPDCOATbJ3,4jrGaKTlMqdWnmGrpwbPDCOATbJ3,,,,,,,,,,,,,,,,,,750.0,,,,5b758de6d74fcb00010d7f0b,16:31:34,27/03/2024
html-keyboard-response,126,268261,0.0-53.0-3.0,,<div style='margin:auto;width: auto; font-size: 150%'><span style='font-weight: bold; font-size: 100px; color: red;'>0 points!</span><br><br></div>,,delaylearn,learning,feedback_image_window,4jrGaKTlMqdWnmGrpwbPDCOATbJ3,4jrGaKTlMqdWnmGrpwbPDCOATbJ3,,,,,,,,,,,,,,,,,,,,,,5b758de6d74fcb00010d7f0b,16:31:34,27/03/2024
html-keyboard-response,127,270028,0.0-54.0,,"<div style=""font-size:100px;"">+</div>",,delaylearn,learning,ITI,4jrGaKTlMqdWnmGrpwbPDCOATbJ3,4jrGaKTlMqdWnmGrpwbPDCOATbJ3,,,,,,,,,,,,,,,,,,,1753.0,,,5b758de6d74fcb00010d7f0b,16:31:34,27/03/2024
html-keyboard-response,128,272218,0.0-55.0-0.0,2184.2000000011176,"<div style=""display: flex; flex-direction: column; align-items: center; margin-top: -40px;""><img src=""images/pattern_1.png"" style=""width: 234px; height: 230px; margin-top: -50px;""><div style=""display: flex; justify-content: space-between; margin-top: 33px;""><img src=""images/choice_trial_9.png"" style=""width: 408px; height: 417px; margin-right: 200px;""><img src=""images/choice_trial_1.png"" style=""width: 408px; height: 417px;""></div></div>",f,delaylearn,learning,trial,4jrGaKTlMqdWnmGrpwbPDCOATbJ3,4jrGaKTlMqdWnmGrpwbPDCOATbJ3,4.0,images/choice_trial_9.png,images/choice_trial_1.png,images/pattern_1.png,f,j,7000.0,9.0,1.0,1.0,1.0,24.0,0.0,1.0,9.0,130.0,,,,,,5b758de6d74fcb00010d7f0b,16:31:34,27/03/2024
html-keyboard-response,129,273228,0.0-55.0-1.0,,"<div style=""display: flex; flex-direction: column; align-items: center; margin-top: -40px;""><img src=""images/pattern_1.png"" style=""width: 234px; height: 230px; margin-top: -50px;""><div style=""display: flex; justify-content: space-between; margin-top: 33px;""><img src=""images/choice_trial_9.png"" style=""width: 408px; height: 417px; margin-right: 608px;""></div></div>",,delaylearn,learning,display_response,4jrGaKTlMqdWnmGrpwbPDCOATbJ3,4jrGaKTlMqdWnmGrpwbPDCOATbJ3,,,,,,,,,,,,,,,,,chosen stimuli: images/choice_trial_9.png,,,,,5b758de6d74fcb00010d7f0b,16:31:34,27/03/2024
html-keyboard-response,130,280247,0.0-55.0-2.0,,,,delaylearn,learning,feedback_duration_window,4jrGaKTlMqdWnmGrpwbPDCOATbJ3,4jrGaKTlMqdWnmGrpwbPDCOATbJ3,,,,,,,,,,,,,,,,,,7000.0,,,,5b758de6d74fcb00010d7f0b,16:31:34,27/03/2024
html-keyboard-response,131,281755,0.0-55.0-3.0,,<div style='margin:auto;width: auto; font-size: 150%'><span style='font-weight: bold; font-size: 100px; color: green;'>+10 points!</span><br><br></div>,,delaylearn,learning,feedback_image_window,4jrGaKTlMqdWnmGrpwbPDCOATbJ3,4jrGaKTlMqdWnmGrpwbPDCOATbJ3,,,,,,,,,,,,,,,,,,,,,,5b758de6d74fcb00010d7f0b,16:31:34,27/03/2024
html-keyboard-response,132,284024,0.0-56.0,,"<div style=""font-size:100px;"">+</div>",,delaylearn,learning,ITI,4jrGaKTlMqdWnmGrpwbPDCOATbJ3,4jrGaKTlMqdWnmGrpwbPDCOATbJ3,,,,,,,,,,,,,,,,,,,2260.0,,,5b758de6d74fcb00010d7f0b,16:31:34,27/03/2024
html-keyboard-response,133,286932,0.0-57.0-0.0,2887.300000000745,"<div style=""display: flex; flex-direction: column; align-items: center; margin-top: -40px;""><img src=""images/pattern_5.png"" style=""width: 234px; height: 230px; margin-top: -50px;""><div style=""display: flex; justify-content: space-between; margin-top: 33px;""><img src=""images/choice_trial_15.png"" style=""width: 408px; height: 417px; margin-right: 200px;""><img src=""images/choice_trial_5.png"" style=""width: 408px; height: 417px;""></div></div>",j,delaylearn,learning,trial,4jrGaKTlMqdWnmGrpwbPDCOATbJ3,4jrGaKTlMqdWnmGrpwbPDCOATbJ3,4.0,images/choice_trial_15.png,images/choice_trial_5.png,images/pattern_5.png,j,j,750.0,15.0,5.0,4.0,1.0,25.0,1.0,1.0,5.0,140.0,,,,,,5b758de6d74fcb00010d7f0b,16:31:34,27/03/2024
html-keyboard-response,134,287946,0.0-57.0-1.0,,"<div style=""display: flex; flex-direction: column; align-items: center; margin-top: -40px;""><img src=""images/pattern_5.png"" style=""width: 234px; height: 230px; margin-top: -50px;""><div style=""display: flex; justify-content: space-between; margin-top: 33px;""><img src=""images/choice_trial_5.png"" style=""width: 408px; height: 417px; margin-left:608px;""></div></div>",,delaylearn,learning,display_response,4jrGaKTlMqdWnmGrpwbPDCOATbJ3,4jrGaKTlMqdWnmGrpwbPDCOATbJ3,,,,,,,,,,,,,,,,,chosen stimuli: images/choice_trial_5.png,,,,,5b758de6d74fcb00010d7f0b,16:31:34,27/03/2024
html-keyboard-response,135,288712,0.0-57.0-2.0,,,,delaylearn,learning,feedback_duration_window,4jrGaKTlMqdWnmGrpwbPDCOATbJ3,4jrGaKTlMqdWnmGrpwbPDCOATbJ3,,,,,,,,,,,,,,,,,,750.0,,,,5b758de6d74fcb00010d7f0b,16:31:34,27/03/2024
html-keyboard-response,136,290230,0.0-57.0-3.0,,<div style='margin:auto;width: auto; font-size: 150%'><span style='font-weight: bold; font-size: 100px; color: green;'>+10 points!</span><br><br></div>,,delaylearn,learning,feedback_image_window,4jrGaKTlMqdWnmGrpwbPDCOATbJ3,4jrGaKTlMqdWnmGrpwbPDCOATbJ3,,,,,,,,,,,,,,,,,,,,,,5b758de6d74fcb00010d7f0b,16:31:34,27/03/2024
html-keyboard-response,137,291951,0.0-58.0,,"<div style=""font-size:100px;"">+</div>",,delaylearn,learning,ITI,4jrGaKTlMqdWnmGrpwbPDCOATbJ3,4jrGaKTlMqdWnmGrpwbPDCOATbJ3,,,,,,,,,,,,,,,,,,,1711.0,,,5b758de6d74fcb00010d7f0b,16:31:34,27/03/2024
html-keyboard-response,138,294982,0.0-59.0-0.0,,"<div style=""display: flex; flex-direction: column; align-items: center; margin-top: -40px;""><img src=""images/pattern_3.png"" style=""width: 234px; height: 230px; margin-top: -50px;""><div style=""display: flex; justify-content: space-between; margin-top: 33px;""><img src=""images/choice_trial_6.png"" style=""width: 408px; height: 417px; margin-right: 200px;""><img src=""images/choice_trial_16.png"" style=""width: 408px; height: 417px;""></div></div>",,delaylearn,learning,trial,4jrGaKTlMqdWnmGrpwbPDCOATbJ3,4jrGaKTlMqdWnmGrpwbPDCOATbJ3,4.0,images/choice_trial_6.png,images/choice_trial_16.png,images/pattern_3.png,j,j,7000.0,6.0,16.0,2.0,1.0,26.0,0.0,0.0,0.0,140.0,,,,,,5b758de6d74fcb00010d7f0b,16:31:34,27/03/2024
html-keyboard-response,139,295996,0.0-59.0-1.0,,<div style='font-weight: bold; font-size: 75px; color: red;'>Missed Trial <br><br><br><br> Please respond faster</div>,,delaylearn,learning,display_response,4jrGaKTlMqdWnmGrpwbPDCOATbJ3,4jrGaKTlMqdWnmGrpwbPDCOATbJ3,,,,,,,,,,,,,,,,,Missed trial,,,,,5b758de6d74fcb00010d7f0b,16:31:34,27/03/2024
html-keyboard-response,140,296012,0.0-59.0-2.0,,,,delaylearn,learning,feedback_duration_window,4jrGaKTlMqdWnmGrpwbPDCOATbJ3,4jrGaKTlMqdWnmGrpwbPDCOATbJ3,,,,,,,,,,,,,,,,,,0.0,,,,5b758de6d74fcb00010d7f0b,16:31:34,27/03/2024
html-keyboard-response,141,296022,0.0-59.0-3.0,,,,delaylearn,learning,feedback_image_window,4jrGaKTlMqdWnmGrpwbPDCOATbJ3,4jrGaKTlMqdWnmGrpwbPDCOATbJ3,,,,,,,,,,,,,,,,,,,,,,5b758de6d74fcb00010d7f0b,16:31:34,27/03/2024
lmdlab-html-vas-response,142,300978,0.0-60.0-0.0,3423.0,*How <b><u>confident</u></b> are you feeling about your answers at this moment?*,0.5889932521786307,rewlearn,rate_confidence,,4jrGaKTlMqdWnmGrpwbPDCOATbJ3,4jrGaKTlMqdWnmGrpwbPDCOATbJ3,,,,,,,,,,,,,,,,,,,,"['No confidence', 'Complete confidence']",,5b758de6d74fcb00010d7f0b,16:31:34,27/03/2024
lmdlab-rest-trial-limit,143,524379,0.0-60.0-1.0,221888.90000000037,"<div style=""font-size:40px;""><b>Please take a break!</b><br><br><br><br><p>Great work: you earned 140 points.<br><br><br><p>You have completed part(s) 1 of 5.<br><br><br><br>When you are ready to continue<br><br><br>please click the button.</p><br><br>",0,delaylearn,learning,break,4jrGaKTlMqdWnmGrpwbPDCOATbJ3,4jrGaKTlMqdWnmGrpwbPDCOATbJ3,,,,,,,,,,,,,,,,,,,,,0.0,5b758de6d74fcb00010d7f0b,16:31:34,27/03/2024
html-keyboard-response,144,527400,0.0-60.0-2.0,,"<div style=""font-size:100px;"">+</div>",,delaylearn,learning,pre_fixation,4jrGaKTlMqdWnmGrpwbPDCOATbJ3,,,,,,,,,,,,,,,,,,,,,,,5b758de6d74fcb00010d7f0b,16:31:34,27/03/2024
lmdlab-html-vas-response,145,536936,0.0-60.0-3.0-0.0,8509.0,How happy are you right now?,0.5086975687497881,delaylearn,learning,mood_baseline,4jrGaKTlMqdWnmGrpwbPDCOATbJ3,4jrGaKTlMqdWnmGrpwbPDCOATbJ3,,,,,,,,,,,,,,,,,,,,"['Very unhappy', 'Very happy']",,5b758de6d74fcb00010d7f0b,16:31:34,27/03/2024
html-keyboard-response,146,538447,0.0-60.0-3.0-1.0,,,,,,mood_baseline_fixation,4jrGaKTlMqdWnmGrpwbPDCOATbJ3,,,,,,,,,,,,,,,,,,,,,,,5b758de6d74fcb00010d7f0b,16:31:34,27/03/2024
html-keyboard-response,147,540030,0.0-61.0,,"<div style=""font-size:100px;"">+</div>",,delaylearn,learning,ITI,4jrGaKTlMqdWnmGrpwbPDCOATbJ3,4jrGaKTlMqdWnmGrpwbPDCOATbJ3,,,,,,,,,,,,,,,,,,,1564.0,,,5b758de6d74fcb00010d7f0b,16:31:34,27/03/2024
html-keyboard-response,148,541838,0.0-62.0-0.0,1784.199999999255,"<div style=""display: flex; flex-direction: column; align-items: center; margin-top: -40px;""><img src=""images/pattern_7.png"" style=""width: 234px; height: 230px; margin-top: -50px;""><div style=""display: flex; justify-content: space-between; margin-top: 33px;""><img src=""images/choice_trial_4.png"" style=""width: 408px; height: 417px; margin-right: 200px;""><img src=""images/choice_trial_13.png"" style=""width: 408px; height: 417px;""></div></div>",f,delaylearn,learning,trial,4jrGaKTlMqdWnmGrpwbPDCOATbJ3,4jrGaKTlMqdWnmGrpwbPDCOATbJ3,4.0,images/choice_trial_4.png,images/choice_trial_13.png,images/pattern_7.png,j,j,750.0,4.0,13.0,6.0,1.0,27.0,0.0,0.0,4.0,140.0,,,,,,5b758de6d74fcb00010d7f0b,16:31:34,27/03/2024
html-keyboard-response,149,542849,0.0-62.0-1.0,,"<div style=""display: flex; flex-direction: column; align-items: center; margin-top: -40px;""><img src=""images/pattern_7.png"" style=""width: 234px; height: 230px; margin-top: -50px;""><div style=""display: flex; justify-content: space-between; margin-top: 33px;""><img src=""images/choice_trial_4.png"" style=""width: 408px; height: 417px; margin-right: 608px;""></div></div>",,delaylearn,learning,display_response,4jrGaKTlMqdWnmGrpwbPDCOATbJ3,4jrGaKTlMqdWnmGrpwbPDCOATbJ3,,,,,,,,,,,,,,,,,chosen stimuli: images/choice_trial_4.png,,,,,5b758de6d74fcb00010d7f0b,16:31:34,27/03/2024
html-keyboard-response,150,543618,0.0-62.0-2.0,,,,delaylearn,learning,feedback_duration_window,4jrGaKTlMqdWnmGrpwbPDCOATbJ3,4jrGaKTlMqdWnmGrpwbPDCOATbJ3,,,,,,,,,,,,,,,,,,750.0,,,,5b758de6d74fcb00010d7f0b,16:31:34,27/03/2024
html-keyboard-response,151,545128,0.0-62.0-3.0,,<div style='margin:auto;width: auto; font-size: 150%'><span style='font-weight: bold; font-size: 100px; color: red;'>0 points!</span><br><br></div>,,delaylearn,learning,feedback_image_window,4jrGaKTlMqdWnmGrpwbPDCOATbJ3,4jrGaKTlMqdWnmGrpwbPDCOATbJ3,,,,,,,,,,,,,,,,,,,,,,5b758de6d74fcb00010d7f0b,16:31:34,27/03/2024
html-keyboard-response,152,545649,0.0-63.0-0.0,,,,,,mood_trial_fixation,4jrGaKTlMqdWnmGrpwbPDCOATbJ3,,,,,,,,,,,,,,,,,,,,,,,5b758de6d74fcb00010d7f0b,16:31:34,27/03/2024
lmdlab-html-vas-response,153,552212,0.0-63.0-1.0,5528.0,How happy are you right now?,0.49133633990030856,delaylearn,learning,mood_trial,4jrGaKTlMqdWnmGrpwbPDCOATbJ3,4jrGaKTlMqdWnmGrpwbPDCOATbJ3,,,,,,,,,,,,,,,,,,,,"['Very unhappy', 'Very happy']",,5b758de6d74fcb00010d7f0b,16:31:34,27/03/2024
html-keyboard-response,154,554530,0.0-64.0,,"<div style=""font-size:100px;"">+</div>",,delaylearn,learning,ITI,4jrGaKTlMqdWnmGrpwbPDCOATbJ3,4jrGaKTlMqdWnmGrpwbPDCOATbJ3,,,,,,,,,,,,,,,,,,,2293.0,,,5b758de6d74fcb00010d7f0b,16:31:34,27/03/2024
html-keyboard-response,155,556451,0.0-65.0-0.0,1903.0,"<div style=""display: flex; flex-direction: column; align-items: center; margin-top: -40px;""><img src=""images/pattern_1.png"" style=""width: 234px; height: 230px; margin-top: -50px;""><div style=""display: flex; justify-content: space-between; margin-top: 33px;""><img src=""images/choice_trial_1.png"" style=""width: 408px; height: 417px; margin-right: 200px;""><img src=""images/choice_trial_9.png"" style=""width: 408px; height: 417px;""></div></div>",j,delaylearn,learning,trial,4jrGaKTlMqdWnmGrpwbPDCOATbJ3,4jrGaKTlMqdWnmGrpwbPDCOATbJ3,4.0,images/choice_trial_1.png,images/choice_trial_9.png,images/pattern_1.png,f,f,7000.0,1.0,9.0,1.0,0.0,28.0,0.0,0.0,9.0,140.0,,,,,,5b758de6d74fcb00010d7f0b,16:31:34,27/03/2024
html-keyboard-response,156,557465,0.0-65.0-1.0,,"<div style=""display: flex; flex-direction: column; align-items: center; margin-top: -40px;""><img src=""images/pattern_1.png"" style=""width: 234px; height: 230px; margin-top: -50px;""><div style=""display: flex; justify-content: space-between; margin-top: 33px;""><img src=""images/choice_trial_9.png"" style=""width: 408px; height: 417px; margin-left:608px;""></div></div>",,delaylearn,learning,display_response,4jrGaKTlMqdWnmGrpwbPDCOATbJ3,4jrGaKTlMqdWnmGrpwbPDCOATbJ3,,,,,,,,,,,,,,,,,chosen stimuli: images/choice_trial_9.png,,,,,5b758de6d74fcb00010d7f0b,16:31:34,27/03/2024
html-keyboard-response,157,564485,0.0-65.0-2.0,,,,delaylearn,learning,feedback_duration_window,4jrGaKTlMqdWnmGrpwbPDCOATbJ3,4jrGaKTlMqdWnmGrpwbPDCOATbJ3,,,,,,,,,,,,,,,,,,7000.0,,,,5b758de6d74fcb00010d7f0b,16:31:34,27/03/2024
html-keyboard-response,158,565999,0.0-65.0-3.0,,<div style='margin:auto;width: auto; font-size: 150%'><span style='font-weight: bold; font-size: 100px; color: red;'>0 points!</span><br><br></div>,,delaylearn,learning,feedback_image_window,4jrGaKTlMqdWnmGrpwbPDCOATbJ3,4jrGaKTlMqdWnmGrpwbPDCOATbJ3,,,,,,,,,,,,,,,,,,,,,,5b758de6d74fcb00010d7f0b,16:31:34,27/03/2024
html-keyboard-response,159,568180,0.0-66.0,,"<div style=""font-size:100px;"">+</div>",,delaylearn,learning,ITI,4jrGaKTlMqdWnmGrpwbPDCOATbJ3,4jrGaKTlMqdWnmGrpwbPDCOATbJ3,,,,,,,,,,,,,,,,,,,2155.0,,,5b758de6d74fcb00010d7f0b,16:31:34,27/03/2024
html-keyboard-response,160,569234,0.0-67.0-0.0,1040.1000000014901,"<div style=""display: flex; flex-direction: column; align-items: center; margin-top: -40px;""><img src=""images/pattern_5.png"" style=""width: 234px; height: 230px; margin-top: -50px;""><div style=""display: flex; justify-content: space-between; margin-top: 33px;""><img src=""images/choice_trial_5.png"" style=""width: 408px; height: 417px; margin-right: 200px;""><img src=""images/choice_trial_15.png"" style=""width: 408px; height: 417px;""></div></div>",j,delaylearn,learning,trial,4jrGaKTlMqdWnmGrpwbPDCOATbJ3,4jrGaKTlMqdWnmGrpwbPDCOATbJ3,4.0,images/choice_trial_5.png,images/choice_trial_15.png,images/pattern_5.png,f,f,750.0,5.0,15.0,4.0,0.0,29.0,0.0,0.0,15.0,140.0,,,,,,5b758de6d74fcb00010d7f0b,16:31:34,27/03/2024
html-keyboard-response,161,570258,0.0-67.0-1.0,,"<div style=""display: flex; flex-direction: column; align-items: center; margin-top: -40px;""><img src=""images/pattern_5.png"" style=""width: 234px; height: 230px; margin-top: -50px;""><div style=""display: flex; justify-content: space-between; margin-top: 33px;""><img src=""images/choice_trial_15.png"" style=""width: 408px; height: 417px; margin-left:608px;""></div></div>",,delaylearn,learning,display_response,4jrGaKTlMqdWnmGrpwbPDCOATbJ3,4jrGaKTlMqdWnmGrpwbPDCOATbJ3,,,,,,,,,,,,,,,,,chosen stimuli: images/choice_trial_15.png,,,,,5b758de6d74fcb00010d7f0b,16:31:34,27/03/2024
html-keyboard-response,162,571024,0.0-67.0-2.0,,,,delaylearn,learning,feedback_duration_window,4jrGaKTlMqdWnmGrpwbPDCOATbJ3,4jrGaKTlMqdWnmGrpwbPDCOATbJ3,,,,,,,,,,,,,,,,,,750.0,,,,5b758de6d74fcb00010d7f0b,16:31:34,27/03/2024
html-keyboard-response,163,572540,0.0-67.0-3.0,,<div style='margin:auto;width: auto; font-size: 150%'><span style='font-weight: bold; font-size: 100px; color: red;'>0 points!</span><br><br></div>,,delaylearn,learning,feedback_image_window,4jrGaKTlMqdWnmGrpwbPDCOATbJ3,4jrGaKTlMqdWnmGrpwbPDCOATbJ3,,,,,,,,,,,,,,,,,,,,,,5b758de6d74fcb00010d7f0b,16:31:34,27/03/2024
html-keyboard-response,164,574419,0.0-68.0,,"<div style=""font-size:100px;"">+</div>",,delaylearn,learning,ITI,4jrGaKTlMqdWnmGrpwbPDCOATbJ3,4jrGaKTlMqdWnmGrpwbPDCOATbJ3,,,,,,,,,,,,,,,,,,,1857.0,,,5b758de6d74fcb00010d7f0b,16:31:34,27/03/2024
html-keyboard-response,165,576208,0.0-69.0-0.0,1772.4000000003725,"<div style=""display: flex; flex-direction: column; align-items: center; margin-top: -40px;""><img src=""images/pattern_6.png"" style=""width: 234px; height: 230px; margin-top: -50px;""><div style=""display: flex; justify-content: space-between; margin-top: 33px;""><img src=""images/choice_trial_3.png"" style=""width: 408px; height: 417px; margin-right: 200px;""><img src=""images/choice_trial_10.png"" style=""width: 408px; height: 417px;""></div></div>",f,delaylearn,learning,trial,4jrGaKTlMqdWnmGrpwbPDCOATbJ3,4jrGaKTlMqdWnmGrpwbPDCOATbJ3,4.0,images/choice_trial_3.png,images/choice_trial_10.png,images/pattern_6.png,j,j,750.0,3.0,10.0,5.0,1.0,30.0,0.0,0.0,3.0,140.0,,,,,,5b758de6d74fcb00010d7f0b,16:31:34,27/03/2024
html-keyboard-response,166,577224,0.0-69.0-1.0,,"<div style=""display: flex; flex-direction: column; align-items: center; margin-top: -40px;""><img src=""images/pattern_6.png"" style=""width: 234px; height: 230px; margin-top: -50px;""><div style=""display: flex; justify-content: space-between; margin-top: 33px;""><img src=""images/choice_trial_3.png"" style=""width: 408px; height: 417px; margin-right: 608px;""></div></div>",,delaylearn,learning,display_response,4jrGaKTlMqdWnmGrpwbPDCOATbJ3,4jrGaKTlMqdWnmGrpwbPDCOATbJ3,,,,,,,,,,,,,,,,,chosen stimuli: images/choice_trial_3.png,,,,,5b758de6d74fcb00010d7f0b,16:31:34,27/03/2024
html-keyboard-response,167,577990,0.0-69.0-2.0,,,,delaylearn,learning,feedback_duration_window,4jrGaKTlMqdWnmGrpwbPDCOATbJ3,4jrGaKTlMqdWnmGrpwbPDCOATbJ3,,,,,,,,,,,,,,,,,,750.0,,,,5b758de6d74fcb00010d7f0b,16:31:34,27/03/2024
html-keyboard-response,168,579512,0.0-69.0-3.0,,<div style='margin:auto;width: auto; font-size: 150%'><span style='font-weight: bold; font-size: 100px; color: red;'>0 points!</span><br><br></div>,,delaylearn,learning,feedback_image_window,4jrGaKTlMqdWnmGrpwbPDCOATbJ3,4jrGaKTlMqdWnmGrpwbPDCOATbJ3,,,,,,,,,,,,,,,,,,,,,,5b758de6d74fcb00010d7f0b,16:31:34,27/03/2024
html-keyboard-response,169,580023,0.0-70.0-0.0,,,,,,mood_trial_fixation,4jrGaKTlMqdWnmGrpwbPDCOATbJ3,,,,,,,,,,,,,,,,,,,,,,,5b758de6d74fcb00010d7f0b,16:31:34,27/03/2024
lmdlab-html-vas-response,170,588152,0.0-70.0-1.0,7102.0,How happy are you right now?,0.41972127089620564,delaylearn,learning,mood_trial,4jrGaKTlMqdWnmGrpwbPDCOATbJ3,4jrGaKTlMqdWnmGrpwbPDCOATbJ3,,,,,,,,,,,,,,,,,,,,"['Very unhappy', 'Very happy']",,5b758de6d74fcb00010d7f0b,16:31:34,27/03/2024
html-keyboard-response,171,590329,0.0-71.0,,"<div style=""font-size:100px;"">+</div>",,delaylearn,learning,ITI,4jrGaKTlMqdWnmGrpwbPDCOATbJ3,4jrGaKTlMqdWnmGrpwbPDCOATbJ3,,,,,,,,,,,,,,,,,,,2166.0,,,5b758de6d74fcb00010d7f0b,16:31:34,27/03/2024
html-keyboard-response,172,592767,0.0-72.0-0.0,2420.0999999996275,"<div style=""display: flex; flex-direction: column; align-items: center; margin-top: -40px;""><img src=""images/pattern_4.png"" style=""width: 234px; height: 230px; margin-top: -50px;""><div style=""display: flex; justify-content: space-between; margin-top: 33px;""><img src=""images/choice_trial_7.png"" style=""width: 408px; height: 417px; margin-right: 200px;""><img src=""images/choice_trial_8.png"" style=""width: 408px; height: 417px;""></div></div>",j,delaylearn,learning,trial,4jrGaKTlMqdWnmGrpwbPDCOATbJ3,4jrGaKTlMqdWnmGrpwbPDCOATbJ3,4.0,images/choice_trial_7.png,images/choice_trial_8.png,images/pattern_4.png,j,j,7000.0,7.0,8.0,3.0,1.0,31.0,1.0,1.0,8.0,150.0,,,,,,5b758de6d74fcb00010d7f0b,16:31:34,27/03/2024
html-keyboard-response,173,593771,0.0-72.0-1.0,,"<div style=""display: flex; flex-direction: column; align-items: center; margin-top: -40px;""><img src=""images/pattern_4.png"" style=""width: 234px; height: 230px; margin-top: -50px;""><div style=""display: flex; justify-content: space-between; margin-top: 33px;""><img src=""images/choice_trial_8.png"" style=""width: 408px; height: 417px; margin-left:608px;""></div></div>",,delaylearn,learning,display_response,4jrGaKTlMqdWnmGrpwbPDCOATbJ3,4jrGaKTlMqdWnmGrpwbPDCOATbJ3,,,,,,,,,,,,,,,,,chosen stimuli: images/choice_trial_8.png,,,,,5b758de6d74fcb00010d7f0b,16:31:34,27/03/2024
html-keyboard-response,174,600778,0.0-72.0-2.0,,,,delaylearn,learning,feedback_duration_window,4jrGaKTlMqdWnmGrpwbPDCOATbJ3,4jrGaKTlMqdWnmGrpwbPDCOATbJ3,,,,,,,,,,,,,,,,,,7000.0,,,,5b758de6d74fcb00010d7f0b,16:31:34,27/03/2024
html-keyboard-response,175,602289,0.0-72.0-3.0,,<div style='margin:auto;width: auto; font-size: 150%'><span style='font-weight: bold; font-size: 100px; color: green;'>+10 points!</span><br><br></div>,,delaylearn,learning,feedback_image_window,4jrGaKTlMqdWnmGrpwbPDCOATbJ3,4jrGaKTlMqdWnmGrpwbPDCOATbJ3,,,,,,,,,,,,,,,,,,,,,,5b758de6d74fcb00010d7f0b,16:31:34,27/03/2024
html-keyboard-response,176,604057,0.0-73.0,,"<div style=""font-size:100px;"">+</div>",,delaylearn,learning,ITI,4jrGaKTlMqdWnmGrpwbPDCOATbJ3,4jrGaKTlMqdWnmGrpwbPDCOATbJ3,,,,,,,,,,,,,,,,,,,1763.0,,,5b758de6d74fcb00010d7f0b,16:31:34,27/03/2024
html-keyboard-response,177,605740,0.0-74.0-0.0,1676.5,"<div style=""display: flex; flex-direction: column; align-items: center; margin-top: -40px;""><img src=""images/pattern_3.png"" style=""width: 234px; height: 230px; margin-top: -50px;""><div style=""display: flex; justify-content: space-between; margin-top: 33px;""><img src=""images/choice_trial_6.png"" style=""width: 408px; height: 417px; margin-right: 200px;""><img src=""images/choice_trial_16.png"" style=""width: 408px; height: 417px;""></div></div>",j,delaylearn,learning,trial,4jrGaKTlMqdWnmGrpwbPDCOATbJ3,4jrGaKTlMqdWnmGrpwbPDCOATbJ3,4.0,images/choice_trial_6.png,images/choice_trial_16.png,images/pattern_3.png,j,j,7000.0,6.0,16.0,2.0,1.0,32.0,1.0,1.0,16.0,160.0,,,,,,5b758de6d74fcb00010d7f0b,16:31:34,27/03/2024
html-keyboard-response,178,606745,0.0-74.0-1.0,,"<div style=""display: flex; flex-direction: column; align-items: center; margin-top: -40px;""><img src=""images/pattern_3.png"" style=""width: 234px; height: 230px; margin-top: -50px;""><div style=""display: flex; justify-content: space-between; margin-top: 33px;""><img src=""images/choice_trial_16.png"" style=""width: 408px; height: 417px; margin-left:608px;""></div></div>",,delaylearn,learning,display_response,4jrGaKTlMqdWnmGrpwbPDCOATbJ3,4jrGaKTlMqdWnmGrpwbPDCOATbJ3,,,,,,,,,,,,,,,,,chosen stimuli: images/choice_trial_16.png,,,,,5b758de6d74fcb00010d7f0b,16:31:34,27/03/2024
html-keyboard-response,179,613750,0.0-74.0-2.0,,,,delaylearn,learning,feedback_duration_window,4jrGaKTlMqdWnmGrpwbPDCOATbJ3,4jrGaKTlMqdWnmGrpwbPDCOATbJ3,,,,,,,,,,,,,,,,,,7000.0,,,,5b758de6d74fcb00010d7f0b,16:31:34,27/03/2024
html-keyboard-response,180,615277,0.0-74.0-3.0,,<div style='margin:auto;width: auto; font-size: 150%'><span style='font-weight: bold; font-size: 100px; color: green;'>+10 points!</span><br><br></div>,,delaylearn,learning,feedback_image_window,4jrGaKTlMqdWnmGrpwbPDCOATbJ3,4jrGaKTlMqdWnmGrpwbPDCOATbJ3,,,,,,,,,,,,,,,,,,,,,,5b758de6d74fcb00010d7f0b,16:31:34,27/03/2024
html-keyboard-response,181,617074,0.0-75.0,,"<div style=""font-size:100px;"">+</div>",,delaylearn,learning,ITI,4jrGaKTlMqdWnmGrpwbPDCOATbJ3,4jrGaKTlMqdWnmGrpwbPDCOATbJ3,,,,,,,,,,,,,,,,,,,1788.0,,,5b758de6d74fcb00010d7f0b,16:31:34,27/03/2024
html-keyboard-response,182,618414,0.0-76.0-0.0,1330.0,"<div style=""display: flex; flex-direction: column; align-items: center; margin-top: -40px;""><img src=""images/pattern_5.png"" style=""width: 234px; height: 230px; margin-top: -50px;""><div style=""display: flex; justify-content: space-between; margin-top: 33px;""><img src=""images/choice_trial_5.png"" style=""width: 408px; height: 417px; margin-right: 200px;""><img src=""images/choice_trial_15.png"" style=""width: 408px; height: 417px;""></div></div>",f,delaylearn,learning,trial,4jrGaKTlMqdWnmGrpwbPDCOATbJ3,4jrGaKTlMqdWnmGrpwbPDCOATbJ3,4.0,images/choice_trial_5.png,images/choice_trial_15.png,images/pattern_5.png,j,f,750.0,5.0,15.0,4.0,0.0,33.0,1.0,0.0,5.0,160.0,,,,,,5b758de6d74fcb00010d7f0b,16:31:34,27/03/2024
html-keyboard-response,183,619423,0.0-76.0-1.0,,"<div style=""display: flex; flex-direction: column; align-items: center; margin-top: -40px;""><img src=""images/pattern_5.png"" style=""width: 234px; height: 230px; margin-top: -50px;""><div style=""display: flex; justify-content: space-between; margin-top: 33px;""><img src=""images/choice_trial_5.png"" style=""width: 408px; height: 417px; margin-right: 608px;""></div></div>",,delaylearn,learning,display_response,4jrGaKTlMqdWnmGrpwbPDCOATbJ3,4jrGaKTlMqdWnmGrpwbPDCOATbJ3,,,,,,,,,,,,,,,,,chosen stimuli: images/choice_trial_5.png,,,,,5b758de6d74fcb00010d7f0b,16:31:34,27/03/2024
html-keyboard-response,184,620179,0.0-76.0-2.0,,,,delaylearn,learning,feedback_duration_window,4jrGaKTlMqdWnmGrpwbPDCOATbJ3,4jrGaKTlMqdWnmGrpwbPDCOATbJ3,,,,,,,,,,,,,,,,,,750.0,,,,5b758de6d74fcb00010d7f0b,16:31:34,27/03/2024
html-keyboard-response,185,621691,0.0-76.0-3.0,,<div style='margin:auto;width: auto; font-size: 150%'><span style='font-weight: bold; font-size: 100px; color: red;'>0 points!</span><br><br></div>,,delaylearn,learning,feedback_image_window,4jrGaKTlMqdWnmGrpwbPDCOATbJ3,4jrGaKTlMqdWnmGrpwbPDCOATbJ3,,,,,,,,,,,,,,,,,,,,,,5b758de6d74fcb00010d7f0b,16:31:34,27/03/2024
html-keyboard-response,186,623462,0.0-77.0,,"<div style=""font-size:100px;"">+</div>",,delaylearn,learning,ITI,4jrGaKTlMqdWnmGrpwbPDCOATbJ3,4jrGaKTlMqdWnmGrpwbPDCOATbJ3,,,,,,,,,,,,,,,,,,,1755.0,,,5b758de6d74fcb00010d7f0b,16:31:34,27/03/2024
html-keyboard-response,187,626251,0.0-78.0-0.0,2772.89999999851,"<div style=""display: flex; flex-direction: column; align-items: center; margin-top: -40px;""><img src=""images/pattern_1.png"" style=""width: 234px; height: 230px; margin-top: -50px;""><div style=""display: flex; justify-content: space-between; margin-top: 33px;""><img src=""images/choice_trial_1.png"" style=""width: 408px; height: 417px; margin-right: 200px;""><img src=""images/choice_trial_9.png"" style=""width: 408px; height: 417px;""></div></div>",f,delaylearn,learning,trial,4jrGaKTlMqdWnmGrpwbPDCOATbJ3,4jrGaKTlMqdWnmGrpwbPDCOATbJ3,4.0,images/choice_trial_1.png,images/choice_trial_9.png,images/pattern_1.png,f,f,7000.0,1.0,9.0,1.0,0.0,34.0,1.0,1.0,1.0,170.0,,,,,,5b758de6d74fcb00010d7f0b,16:31:34,27/03/2024
html-keyboard-response,188,627271,0.0-78.0-1.0,,"<div style=""display: flex; flex-direction: column; align-items: center; margin-top: -40px;""><img src=""images/pattern_1.png"" style=""width: 234px; height: 230px; margin-top: -50px;""><div style=""display: flex; justify-content: space-between; margin-top: 33px;""><img src=""images/choice_trial_1.png"" style=""width: 408px; height: 417px; margin-right: 608px;""></div></div>",,delaylearn,learning,display_response,4jrGaKTlMqdWnmGrpwbPDCOATbJ3,4jrGaKTlMqdWnmGrpwbPDCOATbJ3,,,,,,,,,,,,,,,,,chosen stimuli: images/choice_trial_1.png,,,,,5b758de6d74fcb00010d7f0b,16:31:34,27/03/2024
html-keyboard-response,189,634280,0.0-78.0-2.0,,,,delaylearn,learning,feedback_duration_window,4jrGaKTlMqdWnmGrpwbPDCOATbJ3,4jrGaKTlMqdWnmGrpwbPDCOATbJ3,,,,,,,,,,,,,,,,,,7000.0,,,,5b758de6d74fcb00010d7f0b,16:31:34,27/03/2024
html-keyboard-response,190,635805,0.0-78.0-3.0,,<div style='margin:auto;width: auto; font-size: 150%'><span style='font-weight: bold; font-size: 100px; color: green;'>+10 points!</span><br><br></div>,,delaylearn,learning,feedback_image_window,4jrGaKTlMqdWnmGrpwbPDCOATbJ3,4jrGaKTlMqdWnmGrpwbPDCOATbJ3,,,,,,,,,,,,,,,,,,,,,,5b758de6d74fcb00010d7f0b,16:31:34,27/03/2024
html-keyboard-response,191,636324,0.0-79.0-0.0,,,,,,mood_trial_fixation,4jrGaKTlMqdWnmGrpwbPDCOATbJ3,,,,,,,,,,,,,,,,,,,,,,,5b758de6d74fcb00010d7f0b,16:31:34,27/03/2024
lmdlab-html-vas-response,192,660381,0.0-79.0-1.0,,How happy are you right now?,,delaylearn,learning,mood_trial,4jrGaKTlMqdWnmGrpwbPDCOATbJ3,4jrGaKTlMqdWnmGrpwbPDCOATbJ3,,,,,,,,,,,,,,,,,,,,"['Very unhappy', 'Very happy']",,5b758de6d74fcb00010d7f0b,16:31:34,27/03/2024
html-keyboard-response,193,661906,0.0-80.0,,"<div style=""font-size:100px;"">+</div>",,delaylearn,learning,ITI,4jrGaKTlMqdWnmGrpwbPDCOATbJ3,4jrGaKTlMqdWnmGrpwbPDCOATbJ3,,,,,,,,,,,,,,,,,,,1511.0,,,5b758de6d74fcb00010d7f0b,16:31:34,27/03/2024
