trial_type,trial_index,time_elapsed,internal_node_id,rt,stimulus,response,exp_name,exp_stage,test_part,subjectID,databaseID,counterbal,choice_stimuli_1,choice_stimuli_2,pattern_stimuli,rewarded_answer,correct_answer,feedback_duration_times,stim_left,stim_right,pair,leftright_counter,trial,response_correct,response_rewarded,chosen_stim,counter,displayed_choice,feedback_durations,ITI_duration,labels,rest_warning,prolificID,start_time,date
pavlovia,0,453,0.0-0.0,,,,,,,vAAyoEmesTVkcaP7p4fzpa4cNy03,,,,,,,,,,,,,,,,,,,,,,,5c63363b935c87000118a78a,09:06:13,27/02/2024
html-keyboard-response,1,3457,0.0-1.0,,"<div style=""font-size:100px;"">+</div>",,delaylearn,learning,pre_fixation,vAAyoEmesTVkcaP7p4fzpa4cNy03,,,,,,,,,,,,,,,,,,,,,,,5c63363b935c87000118a78a,09:06:13,27/02/2024
html-keyboard-response,2,4135,0.0-2.0-0.0,671.6000000000931,"<div style=""display: flex; flex-direction: column; align-items: center; margin-top: -40px;""><img src=""images/demo_images/pattern_1.png"" style=""width: 234px; height: 230px; margin-top: -50px;""><div style=""display: flex; justify-content: space-between; margin-top: 33px;""><img src=""images/demo_images/choice_trial_2.png"" style=""width: 408px; height: 417px; margin-right: 200px;""><img src=""images/demo_images/choice_trial_1.png"" style=""width: 408px; height: 417px;""></div></div>",j,delaylearn,learning,trial,vAAyoEmesTVkcaP7p4fzpa4cNy03,vAAyoEmesTVkcaP7p4fzpa4cNy03,3.0,images/demo_images/choice_trial_2.png,images/demo_images/choice_trial_1.png,images/demo_images/pattern_1.png,j,j,3000.0,2.0,1.0,20.0,1.0,1.0,1.0,1.0,1.0,10.0,,,,,,5c63363b935c87000118a78a,09:06:13,27/02/2024
html-keyboard-response,3,5139,0.0-2.0-1.0,,"<div style=""display: flex; flex-direction: column; align-items: center; margin-top: -40px;""><img src=""images/demo_images/pattern_1.png"" style=""width: 234px; height: 230px; margin-top: -50px;""><div style=""display: flex; justify-content: space-between; margin-top: 33px;""><img src=""images/demo_images/choice_trial_1.png"" style=""width: 408px; height: 417px; margin-left:608px;""></div></div>",,delaylearn,learning,display_response,vAAyoEmesTVkcaP7p4fzpa4cNy03,vAAyoEmesTVkcaP7p4fzpa4cNy03,,,,,,,,,,,,,,,,,chosen stimuli: images/demo_images/choice_trial_1.png,,,,,5c63363b935c87000118a78a,09:06:13,27/02/2024
html-keyboard-response,4,8143,0.0-2.0-2.0,,,,delaylearn,learning,feedback_duration_window,vAAyoEmesTVkcaP7p4fzpa4cNy03,vAAyoEmesTVkcaP7p4fzpa4cNy03,,,,,,,,,,,,,,,,,,3000.0,,,,5c63363b935c87000118a78a,09:06:13,27/02/2024
html-keyboard-response,5,9646,0.0-2.0-3.0,,<div style='margin:auto;width: auto; font-size: 150%'><span style='font-weight: bold; font-size: 100px; color: green;'>+10 points!</span><br><br></div>,,delaylearn,learning,feedback_image_window,vAAyoEmesTVkcaP7p4fzpa4cNy03,vAAyoEmesTVkcaP7p4fzpa4cNy03,,,,,,,,,,,,,,,,,,,,,,5c63363b935c87000118a78a,09:06:13,27/02/2024
html-keyboard-response,6,11903,0.0-3.0,,"<div style=""font-size:100px;"">+</div>",,delaylearn,learning,ITI,vAAyoEmesTVkcaP7p4fzpa4cNy03,vAAyoEmesTVkcaP7p4fzpa4cNy03,,,,,,,,,,,,,,,,,,,2254.0,,,5c63363b935c87000118a78a,09:06:13,27/02/2024
html-keyboard-response,7,12388,0.0-4.0-0.0,479.60000000009313,"<div style=""display: flex; flex-direction: column; align-items: center; margin-top: -40px;""><img src=""images/demo_images/pattern_1.png"" style=""width: 234px; height: 230px; margin-top: -50px;""><div style=""display: flex; justify-content: space-between; margin-top: 33px;""><img src=""images/demo_images/choice_trial_2.png"" style=""width: 408px; height: 417px; margin-right: 200px;""><img src=""images/demo_images/choice_trial_1.png"" style=""width: 408px; height: 417px;""></div></div>",j,delaylearn,learning,trial,vAAyoEmesTVkcaP7p4fzpa4cNy03,vAAyoEmesTVkcaP7p4fzpa4cNy03,3.0,images/demo_images/choice_trial_2.png,images/demo_images/choice_trial_1.png,images/demo_images/pattern_1.png,j,j,3000.0,2.0,1.0,20.0,1.0,2.0,1.0,1.0,1.0,20.0,,,,,,5c63363b935c87000118a78a,09:06:13,27/02/2024
html-keyboard-response,8,13392,0.0-4.0-1.0,,"<div style=""display: flex; flex-direction: column; align-items: center; margin-top: -40px;""><img src=""images/demo_images/pattern_1.png"" style=""width: 234px; height: 230px; margin-top: -50px;""><div style=""display: flex; justify-content: space-between; margin-top: 33px;""><img src=""images/demo_images/choice_trial_1.png"" style=""width: 408px; height: 417px; margin-left:608px;""></div></div>",,delaylearn,learning,display_response,vAAyoEmesTVkcaP7p4fzpa4cNy03,vAAyoEmesTVkcaP7p4fzpa4cNy03,,,,,,,,,,,,,,,,,chosen stimuli: images/demo_images/choice_trial_1.png,,,,,5c63363b935c87000118a78a,09:06:13,27/02/2024
html-keyboard-response,9,16395,0.0-4.0-2.0,,,,delaylearn,learning,feedback_duration_window,vAAyoEmesTVkcaP7p4fzpa4cNy03,vAAyoEmesTVkcaP7p4fzpa4cNy03,,,,,,,,,,,,,,,,,,3000.0,,,,5c63363b935c87000118a78a,09:06:13,27/02/2024
html-keyboard-response,10,17899,0.0-4.0-3.0,,<div style='margin:auto;width: auto; font-size: 150%'><span style='font-weight: bold; font-size: 100px; color: green;'>+10 points!</span><br><br></div>,,delaylearn,learning,feedback_image_window,vAAyoEmesTVkcaP7p4fzpa4cNy03,vAAyoEmesTVkcaP7p4fzpa4cNy03,,,,,,,,,,,,,,,,,,,,,,5c63363b935c87000118a78a,09:06:13,27/02/2024
html-keyboard-response,11,19900,0.0-5.0,,"<div style=""font-size:100px;"">+</div>",,delaylearn,learning,ITI,vAAyoEmesTVkcaP7p4fzpa4cNy03,vAAyoEmesTVkcaP7p4fzpa4cNy03,,,,,,,,,,,,,,,,,,,1998.0,,,5c63363b935c87000118a78a,09:06:13,27/02/2024
html-keyboard-response,12,20418,0.0-6.0-0.0,513.8999999999069,"<div style=""display: flex; flex-direction: column; align-items: center; margin-top: -40px;""><img src=""images/demo_images/pattern_1.png"" style=""width: 234px; height: 230px; margin-top: -50px;""><div style=""display: flex; justify-content: space-between; margin-top: 33px;""><img src=""images/demo_images/choice_trial_1.png"" style=""width: 408px; height: 417px; margin-right: 200px;""><img src=""images/demo_images/choice_trial_2.png"" style=""width: 408px; height: 417px;""></div></div>",f,delaylearn,learning,trial,vAAyoEmesTVkcaP7p4fzpa4cNy03,vAAyoEmesTVkcaP7p4fzpa4cNy03,3.0,images/demo_images/choice_trial_1.png,images/demo_images/choice_trial_2.png,images/demo_images/pattern_1.png,j,f,3000.0,1.0,2.0,20.0,0.0,3.0,1.0,0.0,1.0,20.0,,,,,,5c63363b935c87000118a78a,09:06:13,27/02/2024
html-keyboard-response,13,21423,0.0-6.0-1.0,,"<div style=""display: flex; flex-direction: column; align-items: center; margin-top: -40px;""><img src=""images/demo_images/pattern_1.png"" style=""width: 234px; height: 230px; margin-top: -50px;""><div style=""display: flex; justify-content: space-between; margin-top: 33px;""><img src=""images/demo_images/choice_trial_1.png"" style=""width: 408px; height: 417px; margin-right: 608px;""></div></div>",,delaylearn,learning,display_response,vAAyoEmesTVkcaP7p4fzpa4cNy03,vAAyoEmesTVkcaP7p4fzpa4cNy03,,,,,,,,,,,,,,,,,chosen stimuli: images/demo_images/choice_trial_1.png,,,,,5c63363b935c87000118a78a,09:06:13,27/02/2024
html-keyboard-response,14,24425,0.0-6.0-2.0,,,,delaylearn,learning,feedback_duration_window,vAAyoEmesTVkcaP7p4fzpa4cNy03,vAAyoEmesTVkcaP7p4fzpa4cNy03,,,,,,,,,,,,,,,,,,3000.0,,,,5c63363b935c87000118a78a,09:06:13,27/02/2024
html-keyboard-response,15,25929,0.0-6.0-3.0,,<div style='margin:auto;width: auto; font-size: 150%'><span style='font-weight: bold; font-size: 100px; color: red;'>0 points!</span><br><br></div>,,delaylearn,learning,feedback_image_window,vAAyoEmesTVkcaP7p4fzpa4cNy03,vAAyoEmesTVkcaP7p4fzpa4cNy03,,,,,,,,,,,,,,,,,,,,,,5c63363b935c87000118a78a,09:06:13,27/02/2024
html-keyboard-response,16,28119,0.0-7.0,,"<div style=""font-size:100px;"">+</div>",,delaylearn,learning,ITI,vAAyoEmesTVkcaP7p4fzpa4cNy03,vAAyoEmesTVkcaP7p4fzpa4cNy03,,,,,,,,,,,,,,,,,,,2188.0,,,5c63363b935c87000118a78a,09:06:13,27/02/2024
html-keyboard-response,17,28863,0.0-8.0-0.0,739.2999999998137,"<div style=""display: flex; flex-direction: column; align-items: center; margin-top: -40px;""><img src=""images/demo_images/pattern_1.png"" style=""width: 234px; height: 230px; margin-top: -50px;""><div style=""display: flex; justify-content: space-between; margin-top: 33px;""><img src=""images/demo_images/choice_trial_1.png"" style=""width: 408px; height: 417px; margin-right: 200px;""><img src=""images/demo_images/choice_trial_2.png"" style=""width: 408px; height: 417px;""></div></div>",j,delaylearn,learning,trial,vAAyoEmesTVkcaP7p4fzpa4cNy03,vAAyoEmesTVkcaP7p4fzpa4cNy03,3.0,images/demo_images/choice_trial_1.png,images/demo_images/choice_trial_2.png,images/demo_images/pattern_1.png,f,f,3000.0,1.0,2.0,20.0,0.0,4.0,0.0,0.0,2.0,20.0,,,,,,5c63363b935c87000118a78a,09:06:13,27/02/2024
html-keyboard-response,18,29868,0.0-8.0-1.0,,"<div style=""display: flex; flex-direction: column; align-items: center; margin-top: -40px;""><img src=""images/demo_images/pattern_1.png"" style=""width: 234px; height: 230px; margin-top: -50px;""><div style=""display: flex; justify-content: space-between; margin-top: 33px;""><img src=""images/demo_images/choice_trial_2.png"" style=""width: 408px; height: 417px; margin-left:608px;""></div></div>",,delaylearn,learning,display_response,vAAyoEmesTVkcaP7p4fzpa4cNy03,vAAyoEmesTVkcaP7p4fzpa4cNy03,,,,,,,,,,,,,,,,,chosen stimuli: images/demo_images/choice_trial_2.png,,,,,5c63363b935c87000118a78a,09:06:13,27/02/2024
html-keyboard-response,19,32871,0.0-8.0-2.0,,,,delaylearn,learning,feedback_duration_window,vAAyoEmesTVkcaP7p4fzpa4cNy03,vAAyoEmesTVkcaP7p4fzpa4cNy03,,,,,,,,,,,,,,,,,,3000.0,,,,5c63363b935c87000118a78a,09:06:13,27/02/2024
html-keyboard-response,20,34374,0.0-8.0-3.0,,<div style='margin:auto;width: auto; font-size: 150%'><span style='font-weight: bold; font-size: 100px; color: red;'>0 points!</span><br><br></div>,,delaylearn,learning,feedback_image_window,vAAyoEmesTVkcaP7p4fzpa4cNy03,vAAyoEmesTVkcaP7p4fzpa4cNy03,,,,,,,,,,,,,,,,,,,,,,5c63363b935c87000118a78a,09:06:13,27/02/2024
html-keyboard-response,21,34877,0.0-9.0-0.0,,,,,,mood_trial_fixation,vAAyoEmesTVkcaP7p4fzpa4cNy03,,,,,,,,,,,,,,,,,,,,,,,5c63363b935c87000118a78a,09:06:13,27/02/2024
lmdlab-html-vas-response,22,39715,0.0-9.0-1.0,3819.0,How happy are you right now?,0.4629918981481482,delaylearn,learning,mood_trial,vAAyoEmesTVkcaP7p4fzpa4cNy03,vAAyoEmesTVkcaP7p4fzpa4cNy03,,,,,,,,,,,,,,,,,,,,"['Very unhappy', 'Very happy']",,5c63363b935c87000118a78a,09:06:13,27/02/2024
html-keyboard-response,23,41839,0.0-10.0,,"<div style=""font-size:100px;"">+</div>",,delaylearn,learning,ITI,vAAyoEmesTVkcaP7p4fzpa4cNy03,vAAyoEmesTVkcaP7p4fzpa4cNy03,,,,,,,,,,,,,,,,,,,2119.0,,,5c63363b935c87000118a78a,09:06:13,27/02/2024
html-keyboard-response,24,42343,0.0-11.0-0.0,500.20000000018626,"<div style=""display: flex; flex-direction: column; align-items: center; margin-top: -40px;""><img src=""images/demo_images/pattern_1.png"" style=""width: 234px; height: 230px; margin-top: -50px;""><div style=""display: flex; justify-content: space-between; margin-top: 33px;""><img src=""images/demo_images/choice_trial_2.png"" style=""width: 408px; height: 417px; margin-right: 200px;""><img src=""images/demo_images/choice_trial_1.png"" style=""width: 408px; height: 417px;""></div></div>",j,delaylearn,learning,trial,vAAyoEmesTVkcaP7p4fzpa4cNy03,vAAyoEmesTVkcaP7p4fzpa4cNy03,3.0,images/demo_images/choice_trial_2.png,images/demo_images/choice_trial_1.png,images/demo_images/pattern_1.png,j,j,3000.0,2.0,1.0,20.0,1.0,5.0,1.0,1.0,1.0,30.0,,,,,,5c63363b935c87000118a78a,09:06:13,27/02/2024
html-keyboard-response,25,43347,0.0-11.0-1.0,,"<div style=""display: flex; flex-direction: column; align-items: center; margin-top: -40px;""><img src=""images/demo_images/pattern_1.png"" style=""width: 234px; height: 230px; margin-top: -50px;""><div style=""display: flex; justify-content: space-between; margin-top: 33px;""><img src=""images/demo_images/choice_trial_1.png"" style=""width: 408px; height: 417px; margin-left:608px;""></div></div>",,delaylearn,learning,display_response,vAAyoEmesTVkcaP7p4fzpa4cNy03,vAAyoEmesTVkcaP7p4fzpa4cNy03,,,,,,,,,,,,,,,,,chosen stimuli: images/demo_images/choice_trial_1.png,,,,,5c63363b935c87000118a78a,09:06:13,27/02/2024
html-keyboard-response,26,46350,0.0-11.0-2.0,,,,delaylearn,learning,feedback_duration_window,vAAyoEmesTVkcaP7p4fzpa4cNy03,vAAyoEmesTVkcaP7p4fzpa4cNy03,,,,,,,,,,,,,,,,,,3000.0,,,,5c63363b935c87000118a78a,09:06:13,27/02/2024
html-keyboard-response,27,47854,0.0-11.0-3.0,,<div style='margin:auto;width: auto; font-size: 150%'><span style='font-weight: bold; font-size: 100px; color: green;'>+10 points!</span><br><br></div>,,delaylearn,learning,feedback_image_window,vAAyoEmesTVkcaP7p4fzpa4cNy03,vAAyoEmesTVkcaP7p4fzpa4cNy03,,,,,,,,,,,,,,,,,,,,,,5c63363b935c87000118a78a,09:06:13,27/02/2024
html-keyboard-response,28,50286,0.0-12.0,,"<div style=""font-size:100px;"">+</div>",,delaylearn,learning,ITI,vAAyoEmesTVkcaP7p4fzpa4cNy03,vAAyoEmesTVkcaP7p4fzpa4cNy03,,,,,,,,,,,,,,,,,,,2430.0,,,5c63363b935c87000118a78a,09:06:13,27/02/2024
html-keyboard-response,29,51329,0.0-13.0-0.0,1036.8000000002794,"<div style=""display: flex; flex-direction: column; align-items: center; margin-top: -40px;""><img src=""images/demo_images/pattern_1.png"" style=""width: 234px; height: 230px; margin-top: -50px;""><div style=""display: flex; justify-content: space-between; margin-top: 33px;""><img src=""images/demo_images/choice_trial_1.png"" style=""width: 408px; height: 417px; margin-right: 200px;""><img src=""images/demo_images/choice_trial_2.png"" style=""width: 408px; height: 417px;""></div></div>",f,delaylearn,learning,trial,vAAyoEmesTVkcaP7p4fzpa4cNy03,vAAyoEmesTVkcaP7p4fzpa4cNy03,3.0,images/demo_images/choice_trial_1.png,images/demo_images/choice_trial_2.png,images/demo_images/pattern_1.png,f,f,3000.0,1.0,2.0,20.0,0.0,6.0,1.0,1.0,1.0,40.0,,,,,,5c63363b935c87000118a78a,09:06:13,27/02/2024
html-keyboard-response,30,52333,0.0-13.0-1.0,,"<div style=""display: flex; flex-direction: column; align-items: center; margin-top: -40px;""><img src=""images/demo_images/pattern_1.png"" style=""width: 234px; height: 230px; margin-top: -50px;""><div style=""display: flex; justify-content: space-between; margin-top: 33px;""><img src=""images/demo_images/choice_trial_1.png"" style=""width: 408px; height: 417px; margin-right: 608px;""></div></div>",,delaylearn,learning,display_response,vAAyoEmesTVkcaP7p4fzpa4cNy03,vAAyoEmesTVkcaP7p4fzpa4cNy03,,,,,,,,,,,,,,,,,chosen stimuli: images/demo_images/choice_trial_1.png,,,,,5c63363b935c87000118a78a,09:06:13,27/02/2024
html-keyboard-response,31,55335,0.0-13.0-2.0,,,,delaylearn,learning,feedback_duration_window,vAAyoEmesTVkcaP7p4fzpa4cNy03,vAAyoEmesTVkcaP7p4fzpa4cNy03,,,,,,,,,,,,,,,,,,3000.0,,,,5c63363b935c87000118a78a,09:06:13,27/02/2024
html-keyboard-response,32,56838,0.0-13.0-3.0,,<div style='margin:auto;width: auto; font-size: 150%'><span style='font-weight: bold; font-size: 100px; color: green;'>+10 points!</span><br><br></div>,,delaylearn,learning,feedback_image_window,vAAyoEmesTVkcaP7p4fzpa4cNy03,vAAyoEmesTVkcaP7p4fzpa4cNy03,,,,,,,,,,,,,,,,,,,,,,5c63363b935c87000118a78a,09:06:13,27/02/2024
html-button-response,33,59813,0.0-14.0,2971.600000000093,"
  <div style=""display: flex; align-items: center; justify-content: center; height: 80vh;"">
  <div>
          <img src=""images/inst_demo_finish.png"" style=""width: 80vw; height:auto;"">
          <br><br>
      </div>
      <br><br>
  </div>",0,,,,vAAyoEmesTVkcaP7p4fzpa4cNy03,,,,,,,,,,,,,,,,,,,,,,,5c63363b935c87000118a78a,09:06:13,27/02/2024
html-keyboard-response,34,62617,0.0-15.0,2800.5,"
  <div style=""display: flex; align-items: center; justify-content: center; height: 80vh;"">
  <div>
          <img src=""images/inst_6.png"" style=""width: 80vw; height:auto;"">
          <br><br>
      </div>
      <br><br>
  </div>",j,,,,vAAyoEmesTVkcaP7p4fzpa4cNy03,,,,,,,,,,,,,,,,,,,,,,,5c63363b935c87000118a78a,09:06:13,27/02/2024
html-keyboard-response,35,65619,0.0-16.0,,"<div style=""font-size:100px;"">+</div>",,delaylearn,learning,pre_fixation,vAAyoEmesTVkcaP7p4fzpa4cNy03,,,,,,,,,,,,,,,,,,,,,,,5c63363b935c87000118a78a,09:06:13,27/02/2024
html-keyboard-response,36,67243,0.0-17.0,,"<div style=""font-size:100px;"">+</div>",,delaylearn,learning,ITI,vAAyoEmesTVkcaP7p4fzpa4cNy03,vAAyoEmesTVkcaP7p4fzpa4cNy03,,,,,,,,,,,,,,,,,,,1620.0,,,5c63363b935c87000118a78a,09:06:13,27/02/2024
html-keyboard-response,37,68176,0.0-18.0-0.0,928.3999999999069,"<div style=""display: flex; flex-direction: column; align-items: center; margin-top: -40px;""><img src=""images/pattern_3.png"" style=""width: 234px; height: 230px; margin-top: -50px;""><div style=""display: flex; justify-content: space-between; margin-top: 33px;""><img src=""images/choice_trial_13.png"" style=""width: 408px; height: 417px; margin-right: 200px;""><img src=""images/choice_trial_10.png"" style=""width: 408px; height: 417px;""></div></div>",j,delaylearn,learning,trial,vAAyoEmesTVkcaP7p4fzpa4cNy03,vAAyoEmesTVkcaP7p4fzpa4cNy03,3.0,images/choice_trial_13.png,images/choice_trial_10.png,images/pattern_3.png,f,f,7000.0,13.0,10.0,2.0,0.0,7.0,0.0,0.0,10.0,40.0,,,,,,5c63363b935c87000118a78a,09:06:13,27/02/2024
html-keyboard-response,38,69180,0.0-18.0-1.0,,"<div style=""display: flex; flex-direction: column; align-items: center; margin-top: -40px;""><img src=""images/pattern_3.png"" style=""width: 234px; height: 230px; margin-top: -50px;""><div style=""display: flex; justify-content: space-between; margin-top: 33px;""><img src=""images/choice_trial_10.png"" style=""width: 408px; height: 417px; margin-left:608px;""></div></div>",,delaylearn,learning,display_response,vAAyoEmesTVkcaP7p4fzpa4cNy03,vAAyoEmesTVkcaP7p4fzpa4cNy03,,,,,,,,,,,,,,,,,chosen stimuli: images/choice_trial_10.png,,,,,5c63363b935c87000118a78a,09:06:13,27/02/2024
html-keyboard-response,39,76183,0.0-18.0-2.0,,,,delaylearn,learning,feedback_duration_window,vAAyoEmesTVkcaP7p4fzpa4cNy03,vAAyoEmesTVkcaP7p4fzpa4cNy03,,,,,,,,,,,,,,,,,,7000.0,,,,5c63363b935c87000118a78a,09:06:13,27/02/2024
html-keyboard-response,40,77686,0.0-18.0-3.0,,<div style='margin:auto;width: auto; font-size: 150%'><span style='font-weight: bold; font-size: 100px; color: red;'>0 points!</span><br><br></div>,,delaylearn,learning,feedback_image_window,vAAyoEmesTVkcaP7p4fzpa4cNy03,vAAyoEmesTVkcaP7p4fzpa4cNy03,,,,,,,,,,,,,,,,,,,,,,5c63363b935c87000118a78a,09:06:13,27/02/2024
html-keyboard-response,41,79971,0.0-19.0,,"<div style=""font-size:100px;"">+</div>",,delaylearn,learning,ITI,vAAyoEmesTVkcaP7p4fzpa4cNy03,vAAyoEmesTVkcaP7p4fzpa4cNy03,,,,,,,,,,,,,,,,,,,2282.0,,,5c63363b935c87000118a78a,09:06:13,27/02/2024
html-keyboard-response,42,80739,0.0-20.0-0.0,764.0,"<div style=""display: flex; flex-direction: column; align-items: center; margin-top: -40px;""><img src=""images/pattern_7.png"" style=""width: 234px; height: 230px; margin-top: -50px;""><div style=""display: flex; justify-content: space-between; margin-top: 33px;""><img src=""images/choice_trial_12.png"" style=""width: 408px; height: 417px; margin-right: 200px;""><img src=""images/choice_trial_6.png"" style=""width: 408px; height: 417px;""></div></div>",f,delaylearn,learning,trial,vAAyoEmesTVkcaP7p4fzpa4cNy03,vAAyoEmesTVkcaP7p4fzpa4cNy03,3.0,images/choice_trial_12.png,images/choice_trial_6.png,images/pattern_7.png,j,j,750.0,12.0,6.0,6.0,1.0,8.0,0.0,0.0,12.0,40.0,,,,,,5c63363b935c87000118a78a,09:06:13,27/02/2024
html-keyboard-response,43,81743,0.0-20.0-1.0,,"<div style=""display: flex; flex-direction: column; align-items: center; margin-top: -40px;""><img src=""images/pattern_7.png"" style=""width: 234px; height: 230px; margin-top: -50px;""><div style=""display: flex; justify-content: space-between; margin-top: 33px;""><img src=""images/choice_trial_12.png"" style=""width: 408px; height: 417px; margin-right: 608px;""></div></div>",,delaylearn,learning,display_response,vAAyoEmesTVkcaP7p4fzpa4cNy03,vAAyoEmesTVkcaP7p4fzpa4cNy03,,,,,,,,,,,,,,,,,chosen stimuli: images/choice_trial_12.png,,,,,5c63363b935c87000118a78a,09:06:13,27/02/2024
html-keyboard-response,44,82495,0.0-20.0-2.0,,,,delaylearn,learning,feedback_duration_window,vAAyoEmesTVkcaP7p4fzpa4cNy03,vAAyoEmesTVkcaP7p4fzpa4cNy03,,,,,,,,,,,,,,,,,,750.0,,,,5c63363b935c87000118a78a,09:06:13,27/02/2024
html-keyboard-response,45,83998,0.0-20.0-3.0,,<div style='margin:auto;width: auto; font-size: 150%'><span style='font-weight: bold; font-size: 100px; color: red;'>0 points!</span><br><br></div>,,delaylearn,learning,feedback_image_window,vAAyoEmesTVkcaP7p4fzpa4cNy03,vAAyoEmesTVkcaP7p4fzpa4cNy03,,,,,,,,,,,,,,,,,,,,,,5c63363b935c87000118a78a,09:06:13,27/02/2024
html-keyboard-response,46,86390,0.0-21.0,,"<div style=""font-size:100px;"">+</div>",,delaylearn,learning,ITI,vAAyoEmesTVkcaP7p4fzpa4cNy03,vAAyoEmesTVkcaP7p4fzpa4cNy03,,,,,,,,,,,,,,,,,,,2389.0,,,5c63363b935c87000118a78a,09:06:13,27/02/2024
html-keyboard-response,47,87205,0.0-22.0-0.0,810.6000000000931,"<div style=""display: flex; flex-direction: column; align-items: center; margin-top: -40px;""><img src=""images/pattern_4.png"" style=""width: 234px; height: 230px; margin-top: -50px;""><div style=""display: flex; justify-content: space-between; margin-top: 33px;""><img src=""images/choice_trial_15.png"" style=""width: 408px; height: 417px; margin-right: 200px;""><img src=""images/choice_trial_9.png"" style=""width: 408px; height: 417px;""></div></div>",j,delaylearn,learning,trial,vAAyoEmesTVkcaP7p4fzpa4cNy03,vAAyoEmesTVkcaP7p4fzpa4cNy03,3.0,images/choice_trial_15.png,images/choice_trial_9.png,images/pattern_4.png,f,f,7000.0,15.0,9.0,3.0,0.0,9.0,0.0,0.0,9.0,40.0,,,,,,5c63363b935c87000118a78a,09:06:13,27/02/2024
html-keyboard-response,48,88209,0.0-22.0-1.0,,"<div style=""display: flex; flex-direction: column; align-items: center; margin-top: -40px;""><img src=""images/pattern_4.png"" style=""width: 234px; height: 230px; margin-top: -50px;""><div style=""display: flex; justify-content: space-between; margin-top: 33px;""><img src=""images/choice_trial_9.png"" style=""width: 408px; height: 417px; margin-left:608px;""></div></div>",,delaylearn,learning,display_response,vAAyoEmesTVkcaP7p4fzpa4cNy03,vAAyoEmesTVkcaP7p4fzpa4cNy03,,,,,,,,,,,,,,,,,chosen stimuli: images/choice_trial_9.png,,,,,5c63363b935c87000118a78a,09:06:13,27/02/2024
html-keyboard-response,49,95211,0.0-22.0-2.0,,,,delaylearn,learning,feedback_duration_window,vAAyoEmesTVkcaP7p4fzpa4cNy03,vAAyoEmesTVkcaP7p4fzpa4cNy03,,,,,,,,,,,,,,,,,,7000.0,,,,5c63363b935c87000118a78a,09:06:13,27/02/2024
html-keyboard-response,50,96715,0.0-22.0-3.0,,<div style='margin:auto;width: auto; font-size: 150%'><span style='font-weight: bold; font-size: 100px; color: red;'>0 points!</span><br><br></div>,,delaylearn,learning,feedback_image_window,vAAyoEmesTVkcaP7p4fzpa4cNy03,vAAyoEmesTVkcaP7p4fzpa4cNy03,,,,,,,,,,,,,,,,,,,,,,5c63363b935c87000118a78a,09:06:13,27/02/2024
html-keyboard-response,51,98852,0.0-23.0,,"<div style=""font-size:100px;"">+</div>",,delaylearn,learning,ITI,vAAyoEmesTVkcaP7p4fzpa4cNy03,vAAyoEmesTVkcaP7p4fzpa4cNy03,,,,,,,,,,,,,,,,,,,2134.0,,,5c63363b935c87000118a78a,09:06:13,27/02/2024
html-keyboard-response,52,99718,0.0-24.0-0.0,862.2000000001863,"<div style=""display: flex; flex-direction: column; align-items: center; margin-top: -40px;""><img src=""images/pattern_5.png"" style=""width: 234px; height: 230px; margin-top: -50px;""><div style=""display: flex; justify-content: space-between; margin-top: 33px;""><img src=""images/choice_trial_2.png"" style=""width: 408px; height: 417px; margin-right: 200px;""><img src=""images/choice_trial_11.png"" style=""width: 408px; height: 417px;""></div></div>",j,delaylearn,learning,trial,vAAyoEmesTVkcaP7p4fzpa4cNy03,vAAyoEmesTVkcaP7p4fzpa4cNy03,3.0,images/choice_trial_2.png,images/choice_trial_11.png,images/pattern_5.png,j,j,750.0,2.0,11.0,4.0,1.0,10.0,1.0,1.0,11.0,50.0,,,,,,5c63363b935c87000118a78a,09:06:13,27/02/2024
html-keyboard-response,53,100723,0.0-24.0-1.0,,"<div style=""display: flex; flex-direction: column; align-items: center; margin-top: -40px;""><img src=""images/pattern_5.png"" style=""width: 234px; height: 230px; margin-top: -50px;""><div style=""display: flex; justify-content: space-between; margin-top: 33px;""><img src=""images/choice_trial_11.png"" style=""width: 408px; height: 417px; margin-left:608px;""></div></div>",,delaylearn,learning,display_response,vAAyoEmesTVkcaP7p4fzpa4cNy03,vAAyoEmesTVkcaP7p4fzpa4cNy03,,,,,,,,,,,,,,,,,chosen stimuli: images/choice_trial_11.png,,,,,5c63363b935c87000118a78a,09:06:13,27/02/2024
html-keyboard-response,54,101475,0.0-24.0-2.0,,,,delaylearn,learning,feedback_duration_window,vAAyoEmesTVkcaP7p4fzpa4cNy03,vAAyoEmesTVkcaP7p4fzpa4cNy03,,,,,,,,,,,,,,,,,,750.0,,,,5c63363b935c87000118a78a,09:06:13,27/02/2024
html-keyboard-response,55,102978,0.0-24.0-3.0,,<div style='margin:auto;width: auto; font-size: 150%'><span style='font-weight: bold; font-size: 100px; color: green;'>+10 points!</span><br><br></div>,,delaylearn,learning,feedback_image_window,vAAyoEmesTVkcaP7p4fzpa4cNy03,vAAyoEmesTVkcaP7p4fzpa4cNy03,,,,,,,,,,,,,,,,,,,,,,5c63363b935c87000118a78a,09:06:13,27/02/2024
html-keyboard-response,56,104661,0.0-25.0,,"<div style=""font-size:100px;"">+</div>",,delaylearn,learning,ITI,vAAyoEmesTVkcaP7p4fzpa4cNy03,vAAyoEmesTVkcaP7p4fzpa4cNy03,,,,,,,,,,,,,,,,,,,1681.0,,,5c63363b935c87000118a78a,09:06:13,27/02/2024
html-keyboard-response,57,105910,0.0-26.0-0.0,1244.7000000001863,"<div style=""display: flex; flex-direction: column; align-items: center; margin-top: -40px;""><img src=""images/pattern_6.png"" style=""width: 234px; height: 230px; margin-top: -50px;""><div style=""display: flex; justify-content: space-between; margin-top: 33px;""><img src=""images/choice_trial_16.png"" style=""width: 408px; height: 417px; margin-right: 200px;""><img src=""images/choice_trial_3.png"" style=""width: 408px; height: 417px;""></div></div>",j,delaylearn,learning,trial,vAAyoEmesTVkcaP7p4fzpa4cNy03,vAAyoEmesTVkcaP7p4fzpa4cNy03,3.0,images/choice_trial_16.png,images/choice_trial_3.png,images/pattern_6.png,j,f,750.0,16.0,3.0,5.0,0.0,11.0,0.0,1.0,3.0,60.0,,,,,,5c63363b935c87000118a78a,09:06:13,27/02/2024
html-keyboard-response,58,106914,0.0-26.0-1.0,,"<div style=""display: flex; flex-direction: column; align-items: center; margin-top: -40px;""><img src=""images/pattern_6.png"" style=""width: 234px; height: 230px; margin-top: -50px;""><div style=""display: flex; justify-content: space-between; margin-top: 33px;""><img src=""images/choice_trial_3.png"" style=""width: 408px; height: 417px; margin-left:608px;""></div></div>",,delaylearn,learning,display_response,vAAyoEmesTVkcaP7p4fzpa4cNy03,vAAyoEmesTVkcaP7p4fzpa4cNy03,,,,,,,,,,,,,,,,,chosen stimuli: images/choice_trial_3.png,,,,,5c63363b935c87000118a78a,09:06:13,27/02/2024
html-keyboard-response,59,107667,0.0-26.0-2.0,,,,delaylearn,learning,feedback_duration_window,vAAyoEmesTVkcaP7p4fzpa4cNy03,vAAyoEmesTVkcaP7p4fzpa4cNy03,,,,,,,,,,,,,,,,,,750.0,,,,5c63363b935c87000118a78a,09:06:13,27/02/2024
html-keyboard-response,60,109170,0.0-26.0-3.0,,<div style='margin:auto;width: auto; font-size: 150%'><span style='font-weight: bold; font-size: 100px; color: green;'>+10 points!</span><br><br></div>,,delaylearn,learning,feedback_image_window,vAAyoEmesTVkcaP7p4fzpa4cNy03,vAAyoEmesTVkcaP7p4fzpa4cNy03,,,,,,,,,,,,,,,,,,,,,,5c63363b935c87000118a78a,09:06:13,27/02/2024
html-keyboard-response,61,109673,0.0-27.0-0.0,,,,,,mood_trial_fixation,vAAyoEmesTVkcaP7p4fzpa4cNy03,,,,,,,,,,,,,,,,,,,,,,,5c63363b935c87000118a78a,09:06:13,27/02/2024
lmdlab-html-vas-response,62,114252,0.0-27.0-1.0,3572.0,How happy are you right now?,0.4907696759259259,delaylearn,learning,mood_trial,vAAyoEmesTVkcaP7p4fzpa4cNy03,vAAyoEmesTVkcaP7p4fzpa4cNy03,,,,,,,,,,,,,,,,,,,,"['Very unhappy', 'Very happy']",,5c63363b935c87000118a78a,09:06:13,27/02/2024
html-keyboard-response,63,116000,0.0-28.0,,"<div style=""font-size:100px;"">+</div>",,delaylearn,learning,ITI,vAAyoEmesTVkcaP7p4fzpa4cNy03,vAAyoEmesTVkcaP7p4fzpa4cNy03,,,,,,,,,,,,,,,,,,,1744.0,,,5c63363b935c87000118a78a,09:06:13,27/02/2024
html-keyboard-response,64,117062,0.0-29.0-0.0,1059.5,"<div style=""display: flex; flex-direction: column; align-items: center; margin-top: -40px;""><img src=""images/pattern_1.png"" style=""width: 234px; height: 230px; margin-top: -50px;""><div style=""display: flex; justify-content: space-between; margin-top: 33px;""><img src=""images/choice_trial_8.png"" style=""width: 408px; height: 417px; margin-right: 200px;""><img src=""images/choice_trial_14.png"" style=""width: 408px; height: 417px;""></div></div>",f,delaylearn,learning,trial,vAAyoEmesTVkcaP7p4fzpa4cNy03,vAAyoEmesTVkcaP7p4fzpa4cNy03,3.0,images/choice_trial_8.png,images/choice_trial_14.png,images/pattern_1.png,j,j,7000.0,8.0,14.0,1.0,1.0,12.0,0.0,0.0,8.0,60.0,,,,,,5c63363b935c87000118a78a,09:06:13,27/02/2024
html-keyboard-response,65,118066,0.0-29.0-1.0,,"<div style=""display: flex; flex-direction: column; align-items: center; margin-top: -40px;""><img src=""images/pattern_1.png"" style=""width: 234px; height: 230px; margin-top: -50px;""><div style=""display: flex; justify-content: space-between; margin-top: 33px;""><img src=""images/choice_trial_8.png"" style=""width: 408px; height: 417px; margin-right: 608px;""></div></div>",,delaylearn,learning,display_response,vAAyoEmesTVkcaP7p4fzpa4cNy03,vAAyoEmesTVkcaP7p4fzpa4cNy03,,,,,,,,,,,,,,,,,chosen stimuli: images/choice_trial_8.png,,,,,5c63363b935c87000118a78a,09:06:13,27/02/2024
html-keyboard-response,66,125068,0.0-29.0-2.0,,,,delaylearn,learning,feedback_duration_window,vAAyoEmesTVkcaP7p4fzpa4cNy03,vAAyoEmesTVkcaP7p4fzpa4cNy03,,,,,,,,,,,,,,,,,,7000.0,,,,5c63363b935c87000118a78a,09:06:13,27/02/2024
html-keyboard-response,67,126572,0.0-29.0-3.0,,<div style='margin:auto;width: auto; font-size: 150%'><span style='font-weight: bold; font-size: 100px; color: red;'>0 points!</span><br><br></div>,,delaylearn,learning,feedback_image_window,vAAyoEmesTVkcaP7p4fzpa4cNy03,vAAyoEmesTVkcaP7p4fzpa4cNy03,,,,,,,,,,,,,,,,,,,,,,5c63363b935c87000118a78a,09:06:13,27/02/2024
html-keyboard-response,68,128341,0.0-30.0,,"<div style=""font-size:100px;"">+</div>",,delaylearn,learning,ITI,vAAyoEmesTVkcaP7p4fzpa4cNy03,vAAyoEmesTVkcaP7p4fzpa4cNy03,,,,,,,,,,,,,,,,,,,1767.0,,,5c63363b935c87000118a78a,09:06:13,27/02/2024
html-keyboard-response,69,129532,0.0-31.0-0.0,1187.2000000001863,"<div style=""display: flex; flex-direction: column; align-items: center; margin-top: -40px;""><img src=""images/pattern_3.png"" style=""width: 234px; height: 230px; margin-top: -50px;""><div style=""display: flex; justify-content: space-between; margin-top: 33px;""><img src=""images/choice_trial_10.png"" style=""width: 408px; height: 417px; margin-right: 200px;""><img src=""images/choice_trial_13.png"" style=""width: 408px; height: 417px;""></div></div>",j,delaylearn,learning,trial,vAAyoEmesTVkcaP7p4fzpa4cNy03,vAAyoEmesTVkcaP7p4fzpa4cNy03,3.0,images/choice_trial_10.png,images/choice_trial_13.png,images/pattern_3.png,f,j,7000.0,10.0,13.0,2.0,1.0,13.0,1.0,0.0,13.0,60.0,,,,,,5c63363b935c87000118a78a,09:06:13,27/02/2024
html-keyboard-response,70,130536,0.0-31.0-1.0,,"<div style=""display: flex; flex-direction: column; align-items: center; margin-top: -40px;""><img src=""images/pattern_3.png"" style=""width: 234px; height: 230px; margin-top: -50px;""><div style=""display: flex; justify-content: space-between; margin-top: 33px;""><img src=""images/choice_trial_13.png"" style=""width: 408px; height: 417px; margin-left:608px;""></div></div>",,delaylearn,learning,display_response,vAAyoEmesTVkcaP7p4fzpa4cNy03,vAAyoEmesTVkcaP7p4fzpa4cNy03,,,,,,,,,,,,,,,,,chosen stimuli: images/choice_trial_13.png,,,,,5c63363b935c87000118a78a,09:06:13,27/02/2024
html-keyboard-response,71,137539,0.0-31.0-2.0,,,,delaylearn,learning,feedback_duration_window,vAAyoEmesTVkcaP7p4fzpa4cNy03,vAAyoEmesTVkcaP7p4fzpa4cNy03,,,,,,,,,,,,,,,,,,7000.0,,,,5c63363b935c87000118a78a,09:06:13,27/02/2024
html-keyboard-response,72,139041,0.0-31.0-3.0,,<div style='margin:auto;width: auto; font-size: 150%'><span style='font-weight: bold; font-size: 100px; color: red;'>0 points!</span><br><br></div>,,delaylearn,learning,feedback_image_window,vAAyoEmesTVkcaP7p4fzpa4cNy03,vAAyoEmesTVkcaP7p4fzpa4cNy03,,,,,,,,,,,,,,,,,,,,,,5c63363b935c87000118a78a,09:06:13,27/02/2024
html-keyboard-response,73,140623,0.0-32.0,,"<div style=""font-size:100px;"">+</div>",,delaylearn,learning,ITI,vAAyoEmesTVkcaP7p4fzpa4cNy03,vAAyoEmesTVkcaP7p4fzpa4cNy03,,,,,,,,,,,,,,,,,,,1579.0,,,5c63363b935c87000118a78a,09:06:13,27/02/2024
html-keyboard-response,74,141565,0.0-33.0-0.0,937.2000000001863,"<div style=""display: flex; flex-direction: column; align-items: center; margin-top: -40px;""><img src=""images/pattern_5.png"" style=""width: 234px; height: 230px; margin-top: -50px;""><div style=""display: flex; justify-content: space-between; margin-top: 33px;""><img src=""images/choice_trial_11.png"" style=""width: 408px; height: 417px; margin-right: 200px;""><img src=""images/choice_trial_2.png"" style=""width: 408px; height: 417px;""></div></div>",f,delaylearn,learning,trial,vAAyoEmesTVkcaP7p4fzpa4cNy03,vAAyoEmesTVkcaP7p4fzpa4cNy03,3.0,images/choice_trial_11.png,images/choice_trial_2.png,images/pattern_5.png,f,f,750.0,11.0,2.0,4.0,0.0,14.0,1.0,1.0,11.0,70.0,,,,,,5c63363b935c87000118a78a,09:06:13,27/02/2024
html-keyboard-response,75,142569,0.0-33.0-1.0,,"<div style=""display: flex; flex-direction: column; align-items: center; margin-top: -40px;""><img src=""images/pattern_5.png"" style=""width: 234px; height: 230px; margin-top: -50px;""><div style=""display: flex; justify-content: space-between; margin-top: 33px;""><img src=""images/choice_trial_11.png"" style=""width: 408px; height: 417px; margin-right: 608px;""></div></div>",,delaylearn,learning,display_response,vAAyoEmesTVkcaP7p4fzpa4cNy03,vAAyoEmesTVkcaP7p4fzpa4cNy03,,,,,,,,,,,,,,,,,chosen stimuli: images/choice_trial_11.png,,,,,5c63363b935c87000118a78a,09:06:13,27/02/2024
html-keyboard-response,76,143321,0.0-33.0-2.0,,,,delaylearn,learning,feedback_duration_window,vAAyoEmesTVkcaP7p4fzpa4cNy03,vAAyoEmesTVkcaP7p4fzpa4cNy03,,,,,,,,,,,,,,,,,,750.0,,,,5c63363b935c87000118a78a,09:06:13,27/02/2024
html-keyboard-response,77,144824,0.0-33.0-3.0,,<div style='margin:auto;width: auto; font-size: 150%'><span style='font-weight: bold; font-size: 100px; color: green;'>+10 points!</span><br><br></div>,,delaylearn,learning,feedback_image_window,vAAyoEmesTVkcaP7p4fzpa4cNy03,vAAyoEmesTVkcaP7p4fzpa4cNy03,,,,,,,,,,,,,,,,,,,,,,5c63363b935c87000118a78a,09:06:13,27/02/2024
html-keyboard-response,78,145327,0.0-34.0-0.0,,,,,,mood_trial_fixation,vAAyoEmesTVkcaP7p4fzpa4cNy03,,,,,,,,,,,,,,,,,,,,,,,5c63363b935c87000118a78a,09:06:13,27/02/2024
lmdlab-html-vas-response,79,149648,0.0-34.0-1.0,3312.0,How happy are you right now?,0.31484375,delaylearn,learning,mood_trial,vAAyoEmesTVkcaP7p4fzpa4cNy03,vAAyoEmesTVkcaP7p4fzpa4cNy03,,,,,,,,,,,,,,,,,,,,"['Very unhappy', 'Very happy']",,5c63363b935c87000118a78a,09:06:13,27/02/2024
html-keyboard-response,80,151852,0.0-35.0,,"<div style=""font-size:100px;"">+</div>",,delaylearn,learning,ITI,vAAyoEmesTVkcaP7p4fzpa4cNy03,vAAyoEmesTVkcaP7p4fzpa4cNy03,,,,,,,,,,,,,,,,,,,2199.0,,,5c63363b935c87000118a78a,09:06:13,27/02/2024
html-keyboard-response,81,152810,0.0-36.0-0.0,953.3999999999069,"<div style=""display: flex; flex-direction: column; align-items: center; margin-top: -40px;""><img src=""images/pattern_6.png"" style=""width: 234px; height: 230px; margin-top: -50px;""><div style=""display: flex; justify-content: space-between; margin-top: 33px;""><img src=""images/choice_trial_16.png"" style=""width: 408px; height: 417px; margin-right: 200px;""><img src=""images/choice_trial_3.png"" style=""width: 408px; height: 417px;""></div></div>",j,delaylearn,learning,trial,vAAyoEmesTVkcaP7p4fzpa4cNy03,vAAyoEmesTVkcaP7p4fzpa4cNy03,3.0,images/choice_trial_16.png,images/choice_trial_3.png,images/pattern_6.png,f,f,750.0,16.0,3.0,5.0,0.0,15.0,0.0,0.0,3.0,70.0,,,,,,5c63363b935c87000118a78a,09:06:13,27/02/2024
html-keyboard-response,82,153814,0.0-36.0-1.0,,"<div style=""display: flex; flex-direction: column; align-items: center; margin-top: -40px;""><img src=""images/pattern_6.png"" style=""width: 234px; height: 230px; margin-top: -50px;""><div style=""display: flex; justify-content: space-between; margin-top: 33px;""><img src=""images/choice_trial_3.png"" style=""width: 408px; height: 417px; margin-left:608px;""></div></div>",,delaylearn,learning,display_response,vAAyoEmesTVkcaP7p4fzpa4cNy03,vAAyoEmesTVkcaP7p4fzpa4cNy03,,,,,,,,,,,,,,,,,chosen stimuli: images/choice_trial_3.png,,,,,5c63363b935c87000118a78a,09:06:13,27/02/2024
html-keyboard-response,83,154566,0.0-36.0-2.0,,,,delaylearn,learning,feedback_duration_window,vAAyoEmesTVkcaP7p4fzpa4cNy03,vAAyoEmesTVkcaP7p4fzpa4cNy03,,,,,,,,,,,,,,,,,,750.0,,,,5c63363b935c87000118a78a,09:06:13,27/02/2024
html-keyboard-response,84,156070,0.0-36.0-3.0,,<div style='margin:auto;width: auto; font-size: 150%'><span style='font-weight: bold; font-size: 100px; color: red;'>0 points!</span><br><br></div>,,delaylearn,learning,feedback_image_window,vAAyoEmesTVkcaP7p4fzpa4cNy03,vAAyoEmesTVkcaP7p4fzpa4cNy03,,,,,,,,,,,,,,,,,,,,,,5c63363b935c87000118a78a,09:06:13,27/02/2024
html-keyboard-response,85,158026,0.0-37.0,,"<div style=""font-size:100px;"">+</div>",,delaylearn,learning,ITI,vAAyoEmesTVkcaP7p4fzpa4cNy03,vAAyoEmesTVkcaP7p4fzpa4cNy03,,,,,,,,,,,,,,,,,,,1954.0,,,5c63363b935c87000118a78a,09:06:13,27/02/2024
html-keyboard-response,86,159115,0.0-38.0-0.0,1084.1999999997206,"<div style=""display: flex; flex-direction: column; align-items: center; margin-top: -40px;""><img src=""images/pattern_4.png"" style=""width: 234px; height: 230px; margin-top: -50px;""><div style=""display: flex; justify-content: space-between; margin-top: 33px;""><img src=""images/choice_trial_9.png"" style=""width: 408px; height: 417px; margin-right: 200px;""><img src=""images/choice_trial_15.png"" style=""width: 408px; height: 417px;""></div></div>",f,delaylearn,learning,trial,vAAyoEmesTVkcaP7p4fzpa4cNy03,vAAyoEmesTVkcaP7p4fzpa4cNy03,3.0,images/choice_trial_9.png,images/choice_trial_15.png,images/pattern_4.png,j,j,7000.0,9.0,15.0,3.0,1.0,16.0,0.0,0.0,9.0,70.0,,,,,,5c63363b935c87000118a78a,09:06:13,27/02/2024
html-keyboard-response,87,160119,0.0-38.0-1.0,,"<div style=""display: flex; flex-direction: column; align-items: center; margin-top: -40px;""><img src=""images/pattern_4.png"" style=""width: 234px; height: 230px; margin-top: -50px;""><div style=""display: flex; justify-content: space-between; margin-top: 33px;""><img src=""images/choice_trial_9.png"" style=""width: 408px; height: 417px; margin-right: 608px;""></div></div>",,delaylearn,learning,display_response,vAAyoEmesTVkcaP7p4fzpa4cNy03,vAAyoEmesTVkcaP7p4fzpa4cNy03,,,,,,,,,,,,,,,,,chosen stimuli: images/choice_trial_9.png,,,,,5c63363b935c87000118a78a,09:06:13,27/02/2024
html-keyboard-response,88,167122,0.0-38.0-2.0,,,,delaylearn,learning,feedback_duration_window,vAAyoEmesTVkcaP7p4fzpa4cNy03,vAAyoEmesTVkcaP7p4fzpa4cNy03,,,,,,,,,,,,,,,,,,7000.0,,,,5c63363b935c87000118a78a,09:06:13,27/02/2024
html-keyboard-response,89,168625,0.0-38.0-3.0,,<div style='margin:auto;width: auto; font-size: 150%'><span style='font-weight: bold; font-size: 100px; color: red;'>0 points!</span><br><br></div>,,delaylearn,learning,feedback_image_window,vAAyoEmesTVkcaP7p4fzpa4cNy03,vAAyoEmesTVkcaP7p4fzpa4cNy03,,,,,,,,,,,,,,,,,,,,,,5c63363b935c87000118a78a,09:06:13,27/02/2024
html-keyboard-response,90,170870,0.0-39.0,,"<div style=""font-size:100px;"">+</div>",,delaylearn,learning,ITI,vAAyoEmesTVkcaP7p4fzpa4cNy03,vAAyoEmesTVkcaP7p4fzpa4cNy03,,,,,,,,,,,,,,,,,,,2243.0,,,5c63363b935c87000118a78a,09:06:13,27/02/2024
html-keyboard-response,91,171874,0.0-40.0-0.0,998.8000000002794,"<div style=""display: flex; flex-direction: column; align-items: center; margin-top: -40px;""><img src=""images/pattern_7.png"" style=""width: 234px; height: 230px; margin-top: -50px;""><div style=""display: flex; justify-content: space-between; margin-top: 33px;""><img src=""images/choice_trial_6.png"" style=""width: 408px; height: 417px; margin-right: 200px;""><img src=""images/choice_trial_12.png"" style=""width: 408px; height: 417px;""></div></div>",j,delaylearn,learning,trial,vAAyoEmesTVkcaP7p4fzpa4cNy03,vAAyoEmesTVkcaP7p4fzpa4cNy03,3.0,images/choice_trial_6.png,images/choice_trial_12.png,images/pattern_7.png,j,f,750.0,6.0,12.0,6.0,0.0,17.0,0.0,1.0,12.0,80.0,,,,,,5c63363b935c87000118a78a,09:06:13,27/02/2024
html-keyboard-response,92,172877,0.0-40.0-1.0,,"<div style=""display: flex; flex-direction: column; align-items: center; margin-top: -40px;""><img src=""images/pattern_7.png"" style=""width: 234px; height: 230px; margin-top: -50px;""><div style=""display: flex; justify-content: space-between; margin-top: 33px;""><img src=""images/choice_trial_12.png"" style=""width: 408px; height: 417px; margin-left:608px;""></div></div>",,delaylearn,learning,display_response,vAAyoEmesTVkcaP7p4fzpa4cNy03,vAAyoEmesTVkcaP7p4fzpa4cNy03,,,,,,,,,,,,,,,,,chosen stimuli: images/choice_trial_12.png,,,,,5c63363b935c87000118a78a,09:06:13,27/02/2024
html-keyboard-response,93,173630,0.0-40.0-2.0,,,,delaylearn,learning,feedback_duration_window,vAAyoEmesTVkcaP7p4fzpa4cNy03,vAAyoEmesTVkcaP7p4fzpa4cNy03,,,,,,,,,,,,,,,,,,750.0,,,,5c63363b935c87000118a78a,09:06:13,27/02/2024
html-keyboard-response,94,175133,0.0-40.0-3.0,,<div style='margin:auto;width: auto; font-size: 150%'><span style='font-weight: bold; font-size: 100px; color: green;'>+10 points!</span><br><br></div>,,delaylearn,learning,feedback_image_window,vAAyoEmesTVkcaP7p4fzpa4cNy03,vAAyoEmesTVkcaP7p4fzpa4cNy03,,,,,,,,,,,,,,,,,,,,,,5c63363b935c87000118a78a,09:06:13,27/02/2024
html-keyboard-response,95,176660,0.0-41.0,,"<div style=""font-size:100px;"">+</div>",,delaylearn,learning,ITI,vAAyoEmesTVkcaP7p4fzpa4cNy03,vAAyoEmesTVkcaP7p4fzpa4cNy03,,,,,,,,,,,,,,,,,,,1525.0,,,5c63363b935c87000118a78a,09:06:13,27/02/2024
html-keyboard-response,96,177710,0.0-42.0-0.0,1045.4000000003725,"<div style=""display: flex; flex-direction: column; align-items: center; margin-top: -40px;""><img src=""images/pattern_1.png"" style=""width: 234px; height: 230px; margin-top: -50px;""><div style=""display: flex; justify-content: space-between; margin-top: 33px;""><img src=""images/choice_trial_14.png"" style=""width: 408px; height: 417px; margin-right: 200px;""><img src=""images/choice_trial_8.png"" style=""width: 408px; height: 417px;""></div></div>",j,delaylearn,learning,trial,vAAyoEmesTVkcaP7p4fzpa4cNy03,vAAyoEmesTVkcaP7p4fzpa4cNy03,3.0,images/choice_trial_14.png,images/choice_trial_8.png,images/pattern_1.png,f,f,7000.0,14.0,8.0,1.0,0.0,18.0,0.0,0.0,8.0,80.0,,,,,,5c63363b935c87000118a78a,09:06:13,27/02/2024
html-keyboard-response,97,178714,0.0-42.0-1.0,,"<div style=""display: flex; flex-direction: column; align-items: center; margin-top: -40px;""><img src=""images/pattern_1.png"" style=""width: 234px; height: 230px; margin-top: -50px;""><div style=""display: flex; justify-content: space-between; margin-top: 33px;""><img src=""images/choice_trial_8.png"" style=""width: 408px; height: 417px; margin-left:608px;""></div></div>",,delaylearn,learning,display_response,vAAyoEmesTVkcaP7p4fzpa4cNy03,vAAyoEmesTVkcaP7p4fzpa4cNy03,,,,,,,,,,,,,,,,,chosen stimuli: images/choice_trial_8.png,,,,,5c63363b935c87000118a78a,09:06:13,27/02/2024
html-keyboard-response,98,185717,0.0-42.0-2.0,,,,delaylearn,learning,feedback_duration_window,vAAyoEmesTVkcaP7p4fzpa4cNy03,vAAyoEmesTVkcaP7p4fzpa4cNy03,,,,,,,,,,,,,,,,,,7000.0,,,,5c63363b935c87000118a78a,09:06:13,27/02/2024
html-keyboard-response,99,187220,0.0-42.0-3.0,,<div style='margin:auto;width: auto; font-size: 150%'><span style='font-weight: bold; font-size: 100px; color: red;'>0 points!</span><br><br></div>,,delaylearn,learning,feedback_image_window,vAAyoEmesTVkcaP7p4fzpa4cNy03,vAAyoEmesTVkcaP7p4fzpa4cNy03,,,,,,,,,,,,,,,,,,,,,,5c63363b935c87000118a78a,09:06:13,27/02/2024
html-keyboard-response,100,189027,0.0-43.0,,"<div style=""font-size:100px;"">+</div>",,delaylearn,learning,ITI,vAAyoEmesTVkcaP7p4fzpa4cNy03,vAAyoEmesTVkcaP7p4fzpa4cNy03,,,,,,,,,,,,,,,,,,,1804.0,,,5c63363b935c87000118a78a,09:06:13,27/02/2024
html-keyboard-response,101,189910,0.0-44.0-0.0,877.8000000002794,"<div style=""display: flex; flex-direction: column; align-items: center; margin-top: -40px;""><img src=""images/pattern_6.png"" style=""width: 234px; height: 230px; margin-top: -50px;""><div style=""display: flex; justify-content: space-between; margin-top: 33px;""><img src=""images/choice_trial_3.png"" style=""width: 408px; height: 417px; margin-right: 200px;""><img src=""images/choice_trial_16.png"" style=""width: 408px; height: 417px;""></div></div>",f,delaylearn,learning,trial,vAAyoEmesTVkcaP7p4fzpa4cNy03,vAAyoEmesTVkcaP7p4fzpa4cNy03,3.0,images/choice_trial_3.png,images/choice_trial_16.png,images/pattern_6.png,j,j,750.0,3.0,16.0,5.0,1.0,19.0,0.0,0.0,3.0,80.0,,,,,,5c63363b935c87000118a78a,09:06:13,27/02/2024
html-keyboard-response,102,190914,0.0-44.0-1.0,,"<div style=""display: flex; flex-direction: column; align-items: center; margin-top: -40px;""><img src=""images/pattern_6.png"" style=""width: 234px; height: 230px; margin-top: -50px;""><div style=""display: flex; justify-content: space-between; margin-top: 33px;""><img src=""images/choice_trial_3.png"" style=""width: 408px; height: 417px; margin-right: 608px;""></div></div>",,delaylearn,learning,display_response,vAAyoEmesTVkcaP7p4fzpa4cNy03,vAAyoEmesTVkcaP7p4fzpa4cNy03,,,,,,,,,,,,,,,,,chosen stimuli: images/choice_trial_3.png,,,,,5c63363b935c87000118a78a,09:06:13,27/02/2024
html-keyboard-response,103,191667,0.0-44.0-2.0,,,,delaylearn,learning,feedback_duration_window,vAAyoEmesTVkcaP7p4fzpa4cNy03,vAAyoEmesTVkcaP7p4fzpa4cNy03,,,,,,,,,,,,,,,,,,750.0,,,,5c63363b935c87000118a78a,09:06:13,27/02/2024
html-keyboard-response,104,193169,0.0-44.0-3.0,,<div style='margin:auto;width: auto; font-size: 150%'><span style='font-weight: bold; font-size: 100px; color: red;'>0 points!</span><br><br></div>,,delaylearn,learning,feedback_image_window,vAAyoEmesTVkcaP7p4fzpa4cNy03,vAAyoEmesTVkcaP7p4fzpa4cNy03,,,,,,,,,,,,,,,,,,,,,,5c63363b935c87000118a78a,09:06:13,27/02/2024
html-keyboard-response,105,195541,0.0-45.0,,"<div style=""font-size:100px;"">+</div>",,delaylearn,learning,ITI,vAAyoEmesTVkcaP7p4fzpa4cNy03,vAAyoEmesTVkcaP7p4fzpa4cNy03,,,,,,,,,,,,,,,,,,,2370.0,,,5c63363b935c87000118a78a,09:06:13,27/02/2024
html-keyboard-response,106,196559,0.0-46.0-0.0,1012.3999999999069,"<div style=""display: flex; flex-direction: column; align-items: center; margin-top: -40px;""><img src=""images/pattern_4.png"" style=""width: 234px; height: 230px; margin-top: -50px;""><div style=""display: flex; justify-content: space-between; margin-top: 33px;""><img src=""images/choice_trial_15.png"" style=""width: 408px; height: 417px; margin-right: 200px;""><img src=""images/choice_trial_9.png"" style=""width: 408px; height: 417px;""></div></div>",j,delaylearn,learning,trial,vAAyoEmesTVkcaP7p4fzpa4cNy03,vAAyoEmesTVkcaP7p4fzpa4cNy03,3.0,images/choice_trial_15.png,images/choice_trial_9.png,images/pattern_4.png,f,f,7000.0,15.0,9.0,3.0,0.0,20.0,0.0,0.0,9.0,80.0,,,,,,5c63363b935c87000118a78a,09:06:13,27/02/2024
html-keyboard-response,107,197563,0.0-46.0-1.0,,"<div style=""display: flex; flex-direction: column; align-items: center; margin-top: -40px;""><img src=""images/pattern_4.png"" style=""width: 234px; height: 230px; margin-top: -50px;""><div style=""display: flex; justify-content: space-between; margin-top: 33px;""><img src=""images/choice_trial_9.png"" style=""width: 408px; height: 417px; margin-left:608px;""></div></div>",,delaylearn,learning,display_response,vAAyoEmesTVkcaP7p4fzpa4cNy03,vAAyoEmesTVkcaP7p4fzpa4cNy03,,,,,,,,,,,,,,,,,chosen stimuli: images/choice_trial_9.png,,,,,5c63363b935c87000118a78a,09:06:13,27/02/2024
html-keyboard-response,108,204565,0.0-46.0-2.0,,,,delaylearn,learning,feedback_duration_window,vAAyoEmesTVkcaP7p4fzpa4cNy03,vAAyoEmesTVkcaP7p4fzpa4cNy03,,,,,,,,,,,,,,,,,,7000.0,,,,5c63363b935c87000118a78a,09:06:13,27/02/2024
html-keyboard-response,109,206068,0.0-46.0-3.0,,<div style='margin:auto;width: auto; font-size: 150%'><span style='font-weight: bold; font-size: 100px; color: red;'>0 points!</span><br><br></div>,,delaylearn,learning,feedback_image_window,vAAyoEmesTVkcaP7p4fzpa4cNy03,vAAyoEmesTVkcaP7p4fzpa4cNy03,,,,,,,,,,,,,,,,,,,,,,5c63363b935c87000118a78a,09:06:13,27/02/2024
html-keyboard-response,110,206571,0.0-47.0-0.0,,,,,,mood_trial_fixation,vAAyoEmesTVkcaP7p4fzpa4cNy03,,,,,,,,,,,,,,,,,,,,,,,5c63363b935c87000118a78a,09:06:13,27/02/2024
lmdlab-html-vas-response,111,210600,0.0-47.0-1.0,3020.0,How happy are you right now?,0.09632523148148148,delaylearn,learning,mood_trial,vAAyoEmesTVkcaP7p4fzpa4cNy03,vAAyoEmesTVkcaP7p4fzpa4cNy03,,,,,,,,,,,,,,,,,,,,"['Very unhappy', 'Very happy']",,5c63363b935c87000118a78a,09:06:13,27/02/2024
html-keyboard-response,112,212339,0.0-48.0,,"<div style=""font-size:100px;"">+</div>",,delaylearn,learning,ITI,vAAyoEmesTVkcaP7p4fzpa4cNy03,vAAyoEmesTVkcaP7p4fzpa4cNy03,,,,,,,,,,,,,,,,,,,1736.0,,,5c63363b935c87000118a78a,09:06:13,27/02/2024
html-keyboard-response,113,213481,0.0-49.0-0.0,1137.5,"<div style=""display: flex; flex-direction: column; align-items: center; margin-top: -40px;""><img src=""images/pattern_7.png"" style=""width: 234px; height: 230px; margin-top: -50px;""><div style=""display: flex; justify-content: space-between; margin-top: 33px;""><img src=""images/choice_trial_12.png"" style=""width: 408px; height: 417px; margin-right: 200px;""><img src=""images/choice_trial_6.png"" style=""width: 408px; height: 417px;""></div></div>",j,delaylearn,learning,trial,vAAyoEmesTVkcaP7p4fzpa4cNy03,vAAyoEmesTVkcaP7p4fzpa4cNy03,3.0,images/choice_trial_12.png,images/choice_trial_6.png,images/pattern_7.png,j,j,750.0,12.0,6.0,6.0,1.0,21.0,1.0,1.0,6.0,90.0,,,,,,5c63363b935c87000118a78a,09:06:13,27/02/2024
html-keyboard-response,114,214485,0.0-49.0-1.0,,"<div style=""display: flex; flex-direction: column; align-items: center; margin-top: -40px;""><img src=""images/pattern_7.png"" style=""width: 234px; height: 230px; margin-top: -50px;""><div style=""display: flex; justify-content: space-between; margin-top: 33px;""><img src=""images/choice_trial_6.png"" style=""width: 408px; height: 417px; margin-left:608px;""></div></div>",,delaylearn,learning,display_response,vAAyoEmesTVkcaP7p4fzpa4cNy03,vAAyoEmesTVkcaP7p4fzpa4cNy03,,,,,,,,,,,,,,,,,chosen stimuli: images/choice_trial_6.png,,,,,5c63363b935c87000118a78a,09:06:13,27/02/2024
html-keyboard-response,115,215238,0.0-49.0-2.0,,,,delaylearn,learning,feedback_duration_window,vAAyoEmesTVkcaP7p4fzpa4cNy03,vAAyoEmesTVkcaP7p4fzpa4cNy03,,,,,,,,,,,,,,,,,,750.0,,,,5c63363b935c87000118a78a,09:06:13,27/02/2024
html-keyboard-response,116,216741,0.0-49.0-3.0,,<div style='margin:auto;width: auto; font-size: 150%'><span style='font-weight: bold; font-size: 100px; color: green;'>+10 points!</span><br><br></div>,,delaylearn,learning,feedback_image_window,vAAyoEmesTVkcaP7p4fzpa4cNy03,vAAyoEmesTVkcaP7p4fzpa4cNy03,,,,,,,,,,,,,,,,,,,,,,5c63363b935c87000118a78a,09:06:13,27/02/2024
html-keyboard-response,117,218454,0.0-50.0,,"<div style=""font-size:100px;"">+</div>",,delaylearn,learning,ITI,vAAyoEmesTVkcaP7p4fzpa4cNy03,vAAyoEmesTVkcaP7p4fzpa4cNy03,,,,,,,,,,,,,,,,,,,1711.0,,,5c63363b935c87000118a78a,09:06:13,27/02/2024
html-keyboard-response,118,219753,0.0-51.0-0.0,1294.0,"<div style=""display: flex; flex-direction: column; align-items: center; margin-top: -40px;""><img src=""images/pattern_1.png"" style=""width: 234px; height: 230px; margin-top: -50px;""><div style=""display: flex; justify-content: space-between; margin-top: 33px;""><img src=""images/choice_trial_8.png"" style=""width: 408px; height: 417px; margin-right: 200px;""><img src=""images/choice_trial_14.png"" style=""width: 408px; height: 417px;""></div></div>",j,delaylearn,learning,trial,vAAyoEmesTVkcaP7p4fzpa4cNy03,vAAyoEmesTVkcaP7p4fzpa4cNy03,3.0,images/choice_trial_8.png,images/choice_trial_14.png,images/pattern_1.png,f,j,7000.0,8.0,14.0,1.0,1.0,22.0,1.0,0.0,14.0,90.0,,,,,,5c63363b935c87000118a78a,09:06:13,27/02/2024
html-keyboard-response,119,220756,0.0-51.0-1.0,,"<div style=""display: flex; flex-direction: column; align-items: center; margin-top: -40px;""><img src=""images/pattern_1.png"" style=""width: 234px; height: 230px; margin-top: -50px;""><div style=""display: flex; justify-content: space-between; margin-top: 33px;""><img src=""images/choice_trial_14.png"" style=""width: 408px; height: 417px; margin-left:608px;""></div></div>",,delaylearn,learning,display_response,vAAyoEmesTVkcaP7p4fzpa4cNy03,vAAyoEmesTVkcaP7p4fzpa4cNy03,,,,,,,,,,,,,,,,,chosen stimuli: images/choice_trial_14.png,,,,,5c63363b935c87000118a78a,09:06:13,27/02/2024
html-keyboard-response,120,227758,0.0-51.0-2.0,,,,delaylearn,learning,feedback_duration_window,vAAyoEmesTVkcaP7p4fzpa4cNy03,vAAyoEmesTVkcaP7p4fzpa4cNy03,,,,,,,,,,,,,,,,,,7000.0,,,,5c63363b935c87000118a78a,09:06:13,27/02/2024
html-keyboard-response,121,229261,0.0-51.0-3.0,,<div style='margin:auto;width: auto; font-size: 150%'><span style='font-weight: bold; font-size: 100px; color: red;'>0 points!</span><br><br></div>,,delaylearn,learning,feedback_image_window,vAAyoEmesTVkcaP7p4fzpa4cNy03,vAAyoEmesTVkcaP7p4fzpa4cNy03,,,,,,,,,,,,,,,,,,,,,,5c63363b935c87000118a78a,09:06:13,27/02/2024
html-keyboard-response,122,230833,0.0-52.0,,"<div style=""font-size:100px;"">+</div>",,delaylearn,learning,ITI,vAAyoEmesTVkcaP7p4fzpa4cNy03,vAAyoEmesTVkcaP7p4fzpa4cNy03,,,,,,,,,,,,,,,,,,,1570.0,,,5c63363b935c87000118a78a,09:06:13,27/02/2024
html-keyboard-response,123,231926,0.0-53.0-0.0,1087.0,"<div style=""display: flex; flex-direction: column; align-items: center; margin-top: -40px;""><img src=""images/pattern_5.png"" style=""width: 234px; height: 230px; margin-top: -50px;""><div style=""display: flex; justify-content: space-between; margin-top: 33px;""><img src=""images/choice_trial_2.png"" style=""width: 408px; height: 417px; margin-right: 200px;""><img src=""images/choice_trial_11.png"" style=""width: 408px; height: 417px;""></div></div>",j,delaylearn,learning,trial,vAAyoEmesTVkcaP7p4fzpa4cNy03,vAAyoEmesTVkcaP7p4fzpa4cNy03,3.0,images/choice_trial_2.png,images/choice_trial_11.png,images/pattern_5.png,j,j,750.0,2.0,11.0,4.0,1.0,23.0,1.0,1.0,11.0,100.0,,,,,,5c63363b935c87000118a78a,09:06:13,27/02/2024
html-keyboard-response,124,232930,0.0-53.0-1.0,,"<div style=""display: flex; flex-direction: column; align-items: center; margin-top: -40px;""><img src=""images/pattern_5.png"" style=""width: 234px; height: 230px; margin-top: -50px;""><div style=""display: flex; justify-content: space-between; margin-top: 33px;""><img src=""images/choice_trial_11.png"" style=""width: 408px; height: 417px; margin-left:608px;""></div></div>",,delaylearn,learning,display_response,vAAyoEmesTVkcaP7p4fzpa4cNy03,vAAyoEmesTVkcaP7p4fzpa4cNy03,,,,,,,,,,,,,,,,,chosen stimuli: images/choice_trial_11.png,,,,,5c63363b935c87000118a78a,09:06:13,27/02/2024
html-keyboard-response,125,233682,0.0-53.0-2.0,,,,delaylearn,learning,feedback_duration_window,vAAyoEmesTVkcaP7p4fzpa4cNy03,vAAyoEmesTVkcaP7p4fzpa4cNy03,,,,,,,,,,,,,,,,,,750.0,,,,5c63363b935c87000118a78a,09:06:13,27/02/2024
html-keyboard-response,126,235185,0.0-53.0-3.0,,<div style='margin:auto;width: auto; font-size: 150%'><span style='font-weight: bold; font-size: 100px; color: green;'>+10 points!</span><br><br></div>,,delaylearn,learning,feedback_image_window,vAAyoEmesTVkcaP7p4fzpa4cNy03,vAAyoEmesTVkcaP7p4fzpa4cNy03,,,,,,,,,,,,,,,,,,,,,,5c63363b935c87000118a78a,09:06:13,27/02/2024
html-keyboard-response,127,237070,0.0-54.0,,"<div style=""font-size:100px;"">+</div>",,delaylearn,learning,ITI,vAAyoEmesTVkcaP7p4fzpa4cNy03,vAAyoEmesTVkcaP7p4fzpa4cNy03,,,,,,,,,,,,,,,,,,,1883.0,,,5c63363b935c87000118a78a,09:06:13,27/02/2024
html-keyboard-response,128,238548,0.0-55.0-0.0,1472.8999999999069,"<div style=""display: flex; flex-direction: column; align-items: center; margin-top: -40px;""><img src=""images/pattern_3.png"" style=""width: 234px; height: 230px; margin-top: -50px;""><div style=""display: flex; justify-content: space-between; margin-top: 33px;""><img src=""images/choice_trial_10.png"" style=""width: 408px; height: 417px; margin-right: 200px;""><img src=""images/choice_trial_13.png"" style=""width: 408px; height: 417px;""></div></div>",j,delaylearn,learning,trial,vAAyoEmesTVkcaP7p4fzpa4cNy03,vAAyoEmesTVkcaP7p4fzpa4cNy03,3.0,images/choice_trial_10.png,images/choice_trial_13.png,images/pattern_3.png,j,j,7000.0,10.0,13.0,2.0,1.0,24.0,1.0,1.0,13.0,110.0,,,,,,5c63363b935c87000118a78a,09:06:13,27/02/2024
html-keyboard-response,129,239552,0.0-55.0-1.0,,"<div style=""display: flex; flex-direction: column; align-items: center; margin-top: -40px;""><img src=""images/pattern_3.png"" style=""width: 234px; height: 230px; margin-top: -50px;""><div style=""display: flex; justify-content: space-between; margin-top: 33px;""><img src=""images/choice_trial_13.png"" style=""width: 408px; height: 417px; margin-left:608px;""></div></div>",,delaylearn,learning,display_response,vAAyoEmesTVkcaP7p4fzpa4cNy03,vAAyoEmesTVkcaP7p4fzpa4cNy03,,,,,,,,,,,,,,,,,chosen stimuli: images/choice_trial_13.png,,,,,5c63363b935c87000118a78a,09:06:13,27/02/2024
html-keyboard-response,130,246555,0.0-55.0-2.0,,,,delaylearn,learning,feedback_duration_window,vAAyoEmesTVkcaP7p4fzpa4cNy03,vAAyoEmesTVkcaP7p4fzpa4cNy03,,,,,,,,,,,,,,,,,,7000.0,,,,5c63363b935c87000118a78a,09:06:13,27/02/2024
html-keyboard-response,131,248058,0.0-55.0-3.0,,<div style='margin:auto;width: auto; font-size: 150%'><span style='font-weight: bold; font-size: 100px; color: green;'>+10 points!</span><br><br></div>,,delaylearn,learning,feedback_image_window,vAAyoEmesTVkcaP7p4fzpa4cNy03,vAAyoEmesTVkcaP7p4fzpa4cNy03,,,,,,,,,,,,,,,,,,,,,,5c63363b935c87000118a78a,09:06:13,27/02/2024
lmdlab-html-vas-response,132,254044,0.0-56.0-0.0,4473.0,*How <b><u>confident</u></b> are you feeling about your answers at this moment?*,0.07039930555555556,rewlearn,rate_confidence,,vAAyoEmesTVkcaP7p4fzpa4cNy03,vAAyoEmesTVkcaP7p4fzpa4cNy03,,,,,,,,,,,,,,,,,,,,"['No confidence', 'Complete confidence']",,5c63363b935c87000118a78a,09:06:13,27/02/2024
lmdlab-rest-trial-limit,133,264206,0.0-56.0-1.0,8656.600000000093,"<div style=""font-size:40px;""><b>Please take a break!</b><br><br><br><br><p>Great work: you earned undefined points.<br><br><br><p>You have completed part(s) 1 of 6.<br><br><br><br>When you are ready to continue<br><br><br>please click the button.</p><br><br>",0,delaylearn,learning,break,vAAyoEmesTVkcaP7p4fzpa4cNy03,vAAyoEmesTVkcaP7p4fzpa4cNy03,,,,,,,,,,,,,,,,,,,,,0.0,5c63363b935c87000118a78a,09:06:13,27/02/2024
html-keyboard-response,134,267210,0.0-56.0-2.0,,"<div style=""font-size:100px;"">+</div>",,delaylearn,learning,pre_fixation,vAAyoEmesTVkcaP7p4fzpa4cNy03,,,,,,,,,,,,,,,,,,,,,,,5c63363b935c87000118a78a,09:06:13,27/02/2024
lmdlab-html-vas-response,135,270831,0.0-56.0-3.0-0.0,2612.0,How happy are you right now?,0.14076967592592593,delaylearn,learning,mood_baseline,vAAyoEmesTVkcaP7p4fzpa4cNy03,vAAyoEmesTVkcaP7p4fzpa4cNy03,,,,,,,,,,,,,,,,,,,,"['Very unhappy', 'Very happy']",,5c63363b935c87000118a78a,09:06:13,27/02/2024
html-keyboard-response,136,272335,0.0-56.0-3.0-1.0,,,,,,mood_baseline_fixation,vAAyoEmesTVkcaP7p4fzpa4cNy03,,,,,,,,,,,,,,,,,,,,,,,5c63363b935c87000118a78a,09:06:13,27/02/2024
html-keyboard-response,137,274134,0.0-57.0,,"<div style=""font-size:100px;"">+</div>",,delaylearn,learning,ITI,vAAyoEmesTVkcaP7p4fzpa4cNy03,vAAyoEmesTVkcaP7p4fzpa4cNy03,,,,,,,,,,,,,,,,,,,1797.0,,,5c63363b935c87000118a78a,09:06:13,27/02/2024
html-keyboard-response,138,275291,0.0-58.0-0.0,1152.8000000002794,"<div style=""display: flex; flex-direction: column; align-items: center; margin-top: -40px;""><img src=""images/pattern_7.png"" style=""width: 234px; height: 230px; margin-top: -50px;""><div style=""display: flex; justify-content: space-between; margin-top: 33px;""><img src=""images/choice_trial_12.png"" style=""width: 408px; height: 417px; margin-right: 200px;""><img src=""images/choice_trial_6.png"" style=""width: 408px; height: 417px;""></div></div>",j,delaylearn,learning,trial,vAAyoEmesTVkcaP7p4fzpa4cNy03,vAAyoEmesTVkcaP7p4fzpa4cNy03,3.0,images/choice_trial_12.png,images/choice_trial_6.png,images/pattern_7.png,j,j,750.0,12.0,6.0,6.0,1.0,25.0,1.0,1.0,6.0,120.0,,,,,,5c63363b935c87000118a78a,09:06:13,27/02/2024
html-keyboard-response,139,276294,0.0-58.0-1.0,,"<div style=""display: flex; flex-direction: column; align-items: center; margin-top: -40px;""><img src=""images/pattern_7.png"" style=""width: 234px; height: 230px; margin-top: -50px;""><div style=""display: flex; justify-content: space-between; margin-top: 33px;""><img src=""images/choice_trial_6.png"" style=""width: 408px; height: 417px; margin-left:608px;""></div></div>",,delaylearn,learning,display_response,vAAyoEmesTVkcaP7p4fzpa4cNy03,vAAyoEmesTVkcaP7p4fzpa4cNy03,,,,,,,,,,,,,,,,,chosen stimuli: images/choice_trial_6.png,,,,,5c63363b935c87000118a78a,09:06:13,27/02/2024
html-keyboard-response,140,277047,0.0-58.0-2.0,,,,delaylearn,learning,feedback_duration_window,vAAyoEmesTVkcaP7p4fzpa4cNy03,vAAyoEmesTVkcaP7p4fzpa4cNy03,,,,,,,,,,,,,,,,,,750.0,,,,5c63363b935c87000118a78a,09:06:13,27/02/2024
html-keyboard-response,141,278550,0.0-58.0-3.0,,<div style='margin:auto;width: auto; font-size: 150%'><span style='font-weight: bold; font-size: 100px; color: green;'>+10 points!</span><br><br></div>,,delaylearn,learning,feedback_image_window,vAAyoEmesTVkcaP7p4fzpa4cNy03,vAAyoEmesTVkcaP7p4fzpa4cNy03,,,,,,,,,,,,,,,,,,,,,,5c63363b935c87000118a78a,09:06:13,27/02/2024
html-keyboard-response,142,279052,0.0-59.0-0.0,,,,,,mood_trial_fixation,vAAyoEmesTVkcaP7p4fzpa4cNy03,,,,,,,,,,,,,,,,,,,,,,,5c63363b935c87000118a78a,09:06:13,27/02/2024
lmdlab-html-vas-response,143,284423,0.0-59.0-1.0,4363.0,How happy are you right now?,0.20743634259259258,delaylearn,learning,mood_trial,vAAyoEmesTVkcaP7p4fzpa4cNy03,vAAyoEmesTVkcaP7p4fzpa4cNy03,,,,,,,,,,,,,,,,,,,,"['Very unhappy', 'Very happy']",,5c63363b935c87000118a78a,09:06:13,27/02/2024
html-keyboard-response,144,286826,0.0-60.0,,"<div style=""font-size:100px;"">+</div>",,delaylearn,learning,ITI,vAAyoEmesTVkcaP7p4fzpa4cNy03,vAAyoEmesTVkcaP7p4fzpa4cNy03,,,,,,,,,,,,,,,,,,,2398.0,,,5c63363b935c87000118a78a,09:06:13,27/02/2024
html-keyboard-response,145,288400,0.0-61.0-0.0,1568.6000000000931,"<div style=""display: flex; flex-direction: column; align-items: center; margin-top: -40px;""><img src=""images/pattern_1.png"" style=""width: 234px; height: 230px; margin-top: -50px;""><div style=""display: flex; justify-content: space-between; margin-top: 33px;""><img src=""images/choice_trial_14.png"" style=""width: 408px; height: 417px; margin-right: 200px;""><img src=""images/choice_trial_8.png"" style=""width: 408px; height: 417px;""></div></div>",f,delaylearn,learning,trial,vAAyoEmesTVkcaP7p4fzpa4cNy03,vAAyoEmesTVkcaP7p4fzpa4cNy03,3.0,images/choice_trial_14.png,images/choice_trial_8.png,images/pattern_1.png,f,f,7000.0,14.0,8.0,1.0,0.0,26.0,1.0,1.0,14.0,130.0,,,,,,5c63363b935c87000118a78a,09:06:13,27/02/2024
html-keyboard-response,146,289404,0.0-61.0-1.0,,"<div style=""display: flex; flex-direction: column; align-items: center; margin-top: -40px;""><img src=""images/pattern_1.png"" style=""width: 234px; height: 230px; margin-top: -50px;""><div style=""display: flex; justify-content: space-between; margin-top: 33px;""><img src=""images/choice_trial_14.png"" style=""width: 408px; height: 417px; margin-right: 608px;""></div></div>",,delaylearn,learning,display_response,vAAyoEmesTVkcaP7p4fzpa4cNy03,vAAyoEmesTVkcaP7p4fzpa4cNy03,,,,,,,,,,,,,,,,,chosen stimuli: images/choice_trial_14.png,,,,,5c63363b935c87000118a78a,09:06:13,27/02/2024
html-keyboard-response,147,296407,0.0-61.0-2.0,,,,delaylearn,learning,feedback_duration_window,vAAyoEmesTVkcaP7p4fzpa4cNy03,vAAyoEmesTVkcaP7p4fzpa4cNy03,,,,,,,,,,,,,,,,,,7000.0,,,,5c63363b935c87000118a78a,09:06:13,27/02/2024
html-keyboard-response,148,297910,0.0-61.0-3.0,,<div style='margin:auto;width: auto; font-size: 150%'><span style='font-weight: bold; font-size: 100px; color: green;'>+10 points!</span><br><br></div>,,delaylearn,learning,feedback_image_window,vAAyoEmesTVkcaP7p4fzpa4cNy03,vAAyoEmesTVkcaP7p4fzpa4cNy03,,,,,,,,,,,,,,,,,,,,,,5c63363b935c87000118a78a,09:06:13,27/02/2024
html-keyboard-response,149,299822,0.0-62.0,,"<div style=""font-size:100px;"">+</div>",,delaylearn,learning,ITI,vAAyoEmesTVkcaP7p4fzpa4cNy03,vAAyoEmesTVkcaP7p4fzpa4cNy03,,,,,,,,,,,,,,,,,,,1909.0,,,5c63363b935c87000118a78a,09:06:13,27/02/2024
html-keyboard-response,150,301442,0.0-63.0-0.0,1615.2000000001863,"<div style=""display: flex; flex-direction: column; align-items: center; margin-top: -40px;""><img src=""images/pattern_5.png"" style=""width: 234px; height: 230px; margin-top: -50px;""><div style=""display: flex; justify-content: space-between; margin-top: 33px;""><img src=""images/choice_trial_11.png"" style=""width: 408px; height: 417px; margin-right: 200px;""><img src=""images/choice_trial_2.png"" style=""width: 408px; height: 417px;""></div></div>",f,delaylearn,learning,trial,vAAyoEmesTVkcaP7p4fzpa4cNy03,vAAyoEmesTVkcaP7p4fzpa4cNy03,3.0,images/choice_trial_11.png,images/choice_trial_2.png,images/pattern_5.png,f,f,750.0,11.0,2.0,4.0,0.0,27.0,1.0,1.0,11.0,140.0,,,,,,5c63363b935c87000118a78a,09:06:13,27/02/2024
html-keyboard-response,151,302446,0.0-63.0-1.0,,"<div style=""display: flex; flex-direction: column; align-items: center; margin-top: -40px;""><img src=""images/pattern_5.png"" style=""width: 234px; height: 230px; margin-top: -50px;""><div style=""display: flex; justify-content: space-between; margin-top: 33px;""><img src=""images/choice_trial_11.png"" style=""width: 408px; height: 417px; margin-right: 608px;""></div></div>",,delaylearn,learning,display_response,vAAyoEmesTVkcaP7p4fzpa4cNy03,vAAyoEmesTVkcaP7p4fzpa4cNy03,,,,,,,,,,,,,,,,,chosen stimuli: images/choice_trial_11.png,,,,,5c63363b935c87000118a78a,09:06:13,27/02/2024
html-keyboard-response,152,303199,0.0-63.0-2.0,,,,delaylearn,learning,feedback_duration_window,vAAyoEmesTVkcaP7p4fzpa4cNy03,vAAyoEmesTVkcaP7p4fzpa4cNy03,,,,,,,,,,,,,,,,,,750.0,,,,5c63363b935c87000118a78a,09:06:13,27/02/2024
html-keyboard-response,153,304702,0.0-63.0-3.0,,<div style='margin:auto;width: auto; font-size: 150%'><span style='font-weight: bold; font-size: 100px; color: green;'>+10 points!</span><br><br></div>,,delaylearn,learning,feedback_image_window,vAAyoEmesTVkcaP7p4fzpa4cNy03,vAAyoEmesTVkcaP7p4fzpa4cNy03,,,,,,,,,,,,,,,,,,,,,,5c63363b935c87000118a78a,09:06:13,27/02/2024
html-keyboard-response,154,306277,0.0-64.0,,"<div style=""font-size:100px;"">+</div>",,delaylearn,learning,ITI,vAAyoEmesTVkcaP7p4fzpa4cNy03,vAAyoEmesTVkcaP7p4fzpa4cNy03,,,,,,,,,,,,,,,,,,,1573.0,,,5c63363b935c87000118a78a,09:06:13,27/02/2024
html-keyboard-response,155,307428,0.0-65.0-0.0,1145.6999999997206,"<div style=""display: flex; flex-direction: column; align-items: center; margin-top: -40px;""><img src=""images/pattern_6.png"" style=""width: 234px; height: 230px; margin-top: -50px;""><div style=""display: flex; justify-content: space-between; margin-top: 33px;""><img src=""images/choice_trial_3.png"" style=""width: 408px; height: 417px; margin-right: 200px;""><img src=""images/choice_trial_16.png"" style=""width: 408px; height: 417px;""></div></div>",j,delaylearn,learning,trial,vAAyoEmesTVkcaP7p4fzpa4cNy03,vAAyoEmesTVkcaP7p4fzpa4cNy03,3.0,images/choice_trial_3.png,images/choice_trial_16.png,images/pattern_6.png,j,j,750.0,3.0,16.0,5.0,1.0,28.0,1.0,1.0,16.0,150.0,,,,,,5c63363b935c87000118a78a,09:06:13,27/02/2024
html-keyboard-response,156,308431,0.0-65.0-1.0,,"<div style=""display: flex; flex-direction: column; align-items: center; margin-top: -40px;""><img src=""images/pattern_6.png"" style=""width: 234px; height: 230px; margin-top: -50px;""><div style=""display: flex; justify-content: space-between; margin-top: 33px;""><img src=""images/choice_trial_16.png"" style=""width: 408px; height: 417px; margin-left:608px;""></div></div>",,delaylearn,learning,display_response,vAAyoEmesTVkcaP7p4fzpa4cNy03,vAAyoEmesTVkcaP7p4fzpa4cNy03,,,,,,,,,,,,,,,,,chosen stimuli: images/choice_trial_16.png,,,,,5c63363b935c87000118a78a,09:06:13,27/02/2024
html-keyboard-response,157,309184,0.0-65.0-2.0,,,,delaylearn,learning,feedback_duration_window,vAAyoEmesTVkcaP7p4fzpa4cNy03,vAAyoEmesTVkcaP7p4fzpa4cNy03,,,,,,,,,,,,,,,,,,750.0,,,,5c63363b935c87000118a78a,09:06:13,27/02/2024
html-keyboard-response,158,310687,0.0-65.0-3.0,,<div style='margin:auto;width: auto; font-size: 150%'><span style='font-weight: bold; font-size: 100px; color: green;'>+10 points!</span><br><br></div>,,delaylearn,learning,feedback_image_window,vAAyoEmesTVkcaP7p4fzpa4cNy03,vAAyoEmesTVkcaP7p4fzpa4cNy03,,,,,,,,,,,,,,,,,,,,,,5c63363b935c87000118a78a,09:06:13,27/02/2024
html-keyboard-response,159,311189,0.0-66.0-0.0,,,,,,mood_trial_fixation,vAAyoEmesTVkcaP7p4fzpa4cNy03,,,,,,,,,,,,,,,,,,,,,,,5c63363b935c87000118a78a,09:06:13,27/02/2024
lmdlab-html-vas-response,160,315461,0.0-66.0-1.0,3263.0,How happy are you right now?,0.47965856481481484,delaylearn,learning,mood_trial,vAAyoEmesTVkcaP7p4fzpa4cNy03,vAAyoEmesTVkcaP7p4fzpa4cNy03,,,,,,,,,,,,,,,,,,,,"['Very unhappy', 'Very happy']",,5c63363b935c87000118a78a,09:06:13,27/02/2024
html-keyboard-response,161,317322,0.0-67.0,,"<div style=""font-size:100px;"">+</div>",,delaylearn,learning,ITI,vAAyoEmesTVkcaP7p4fzpa4cNy03,vAAyoEmesTVkcaP7p4fzpa4cNy03,,,,,,,,,,,,,,,,,,,1858.0,,,5c63363b935c87000118a78a,09:06:13,27/02/2024
html-keyboard-response,162,318245,0.0-68.0-0.0,919.3999999999069,"<div style=""display: flex; flex-direction: column; align-items: center; margin-top: -40px;""><img src=""images/pattern_4.png"" style=""width: 234px; height: 230px; margin-top: -50px;""><div style=""display: flex; justify-content: space-between; margin-top: 33px;""><img src=""images/choice_trial_9.png"" style=""width: 408px; height: 417px; margin-right: 200px;""><img src=""images/choice_trial_15.png"" style=""width: 408px; height: 417px;""></div></div>",f,delaylearn,learning,trial,vAAyoEmesTVkcaP7p4fzpa4cNy03,vAAyoEmesTVkcaP7p4fzpa4cNy03,3.0,images/choice_trial_9.png,images/choice_trial_15.png,images/pattern_4.png,j,j,7000.0,9.0,15.0,3.0,1.0,29.0,0.0,0.0,9.0,150.0,,,,,,5c63363b935c87000118a78a,09:06:13,27/02/2024
html-keyboard-response,163,319250,0.0-68.0-1.0,,"<div style=""display: flex; flex-direction: column; align-items: center; margin-top: -40px;""><img src=""images/pattern_4.png"" style=""width: 234px; height: 230px; margin-top: -50px;""><div style=""display: flex; justify-content: space-between; margin-top: 33px;""><img src=""images/choice_trial_9.png"" style=""width: 408px; height: 417px; margin-right: 608px;""></div></div>",,delaylearn,learning,display_response,vAAyoEmesTVkcaP7p4fzpa4cNy03,vAAyoEmesTVkcaP7p4fzpa4cNy03,,,,,,,,,,,,,,,,,chosen stimuli: images/choice_trial_9.png,,,,,5c63363b935c87000118a78a,09:06:13,27/02/2024
html-keyboard-response,164,326252,0.0-68.0-2.0,,,,delaylearn,learning,feedback_duration_window,vAAyoEmesTVkcaP7p4fzpa4cNy03,vAAyoEmesTVkcaP7p4fzpa4cNy03,,,,,,,,,,,,,,,,,,7000.0,,,,5c63363b935c87000118a78a,09:06:13,27/02/2024
html-keyboard-response,165,327756,0.0-68.0-3.0,,<div style='margin:auto;width: auto; font-size: 150%'><span style='font-weight: bold; font-size: 100px; color: red;'>0 points!</span><br><br></div>,,delaylearn,learning,feedback_image_window,vAAyoEmesTVkcaP7p4fzpa4cNy03,vAAyoEmesTVkcaP7p4fzpa4cNy03,,,,,,,,,,,,,,,,,,,,,,5c63363b935c87000118a78a,09:06:13,27/02/2024
html-keyboard-response,166,329410,0.0-69.0,,"<div style=""font-size:100px;"">+</div>",,delaylearn,learning,ITI,vAAyoEmesTVkcaP7p4fzpa4cNy03,vAAyoEmesTVkcaP7p4fzpa4cNy03,,,,,,,,,,,,,,,,,,,1652.0,,,5c63363b935c87000118a78a,09:06:13,27/02/2024
html-keyboard-response,167,330406,0.0-70.0-0.0,990.7000000001863,"<div style=""display: flex; flex-direction: column; align-items: center; margin-top: -40px;""><img src=""images/pattern_3.png"" style=""width: 234px; height: 230px; margin-top: -50px;""><div style=""display: flex; justify-content: space-between; margin-top: 33px;""><img src=""images/choice_trial_10.png"" style=""width: 408px; height: 417px; margin-right: 200px;""><img src=""images/choice_trial_13.png"" style=""width: 408px; height: 417px;""></div></div>",j,delaylearn,learning,trial,vAAyoEmesTVkcaP7p4fzpa4cNy03,vAAyoEmesTVkcaP7p4fzpa4cNy03,3.0,images/choice_trial_10.png,images/choice_trial_13.png,images/pattern_3.png,j,j,7000.0,10.0,13.0,2.0,1.0,30.0,1.0,1.0,13.0,160.0,,,,,,5c63363b935c87000118a78a,09:06:13,27/02/2024
html-keyboard-response,168,331409,0.0-70.0-1.0,,"<div style=""display: flex; flex-direction: column; align-items: center; margin-top: -40px;""><img src=""images/pattern_3.png"" style=""width: 234px; height: 230px; margin-top: -50px;""><div style=""display: flex; justify-content: space-between; margin-top: 33px;""><img src=""images/choice_trial_13.png"" style=""width: 408px; height: 417px; margin-left:608px;""></div></div>",,delaylearn,learning,display_response,vAAyoEmesTVkcaP7p4fzpa4cNy03,vAAyoEmesTVkcaP7p4fzpa4cNy03,,,,,,,,,,,,,,,,,chosen stimuli: images/choice_trial_13.png,,,,,5c63363b935c87000118a78a,09:06:13,27/02/2024
html-keyboard-response,169,338412,0.0-70.0-2.0,,,,delaylearn,learning,feedback_duration_window,vAAyoEmesTVkcaP7p4fzpa4cNy03,vAAyoEmesTVkcaP7p4fzpa4cNy03,,,,,,,,,,,,,,,,,,7000.0,,,,5c63363b935c87000118a78a,09:06:13,27/02/2024
html-keyboard-response,170,339915,0.0-70.0-3.0,,<div style='margin:auto;width: auto; font-size: 150%'><span style='font-weight: bold; font-size: 100px; color: green;'>+10 points!</span><br><br></div>,,delaylearn,learning,feedback_image_window,vAAyoEmesTVkcaP7p4fzpa4cNy03,vAAyoEmesTVkcaP7p4fzpa4cNy03,,,,,,,,,,,,,,,,,,,,,,5c63363b935c87000118a78a,09:06:13,27/02/2024
html-keyboard-response,171,342153,0.0-71.0,,"<div style=""font-size:100px;"">+</div>",,delaylearn,learning,ITI,vAAyoEmesTVkcaP7p4fzpa4cNy03,vAAyoEmesTVkcaP7p4fzpa4cNy03,,,,,,,,,,,,,,,,,,,2236.0,,,5c63363b935c87000118a78a,09:06:13,27/02/2024
html-keyboard-response,172,343175,0.0-72.0-0.0,1017.8999999999069,"<div style=""display: flex; flex-direction: column; align-items: center; margin-top: -40px;""><img src=""images/pattern_5.png"" style=""width: 234px; height: 230px; margin-top: -50px;""><div style=""display: flex; justify-content: space-between; margin-top: 33px;""><img src=""images/choice_trial_11.png"" style=""width: 408px; height: 417px; margin-right: 200px;""><img src=""images/choice_trial_2.png"" style=""width: 408px; height: 417px;""></div></div>",f,delaylearn,learning,trial,vAAyoEmesTVkcaP7p4fzpa4cNy03,vAAyoEmesTVkcaP7p4fzpa4cNy03,3.0,images/choice_trial_11.png,images/choice_trial_2.png,images/pattern_5.png,j,f,750.0,11.0,2.0,4.0,0.0,31.0,1.0,0.0,11.0,160.0,,,,,,5c63363b935c87000118a78a,09:06:13,27/02/2024
html-keyboard-response,173,344178,0.0-72.0-1.0,,"<div style=""display: flex; flex-direction: column; align-items: center; margin-top: -40px;""><img src=""images/pattern_5.png"" style=""width: 234px; height: 230px; margin-top: -50px;""><div style=""display: flex; justify-content: space-between; margin-top: 33px;""><img src=""images/choice_trial_11.png"" style=""width: 408px; height: 417px; margin-right: 608px;""></div></div>",,delaylearn,learning,display_response,vAAyoEmesTVkcaP7p4fzpa4cNy03,vAAyoEmesTVkcaP7p4fzpa4cNy03,,,,,,,,,,,,,,,,,chosen stimuli: images/choice_trial_11.png,,,,,5c63363b935c87000118a78a,09:06:13,27/02/2024
html-keyboard-response,174,344931,0.0-72.0-2.0,,,,delaylearn,learning,feedback_duration_window,vAAyoEmesTVkcaP7p4fzpa4cNy03,vAAyoEmesTVkcaP7p4fzpa4cNy03,,,,,,,,,,,,,,,,,,750.0,,,,5c63363b935c87000118a78a,09:06:13,27/02/2024
html-keyboard-response,175,346434,0.0-72.0-3.0,,<div style='margin:auto;width: auto; font-size: 150%'><span style='font-weight: bold; font-size: 100px; color: red;'>0 points!</span><br><br></div>,,delaylearn,learning,feedback_image_window,vAAyoEmesTVkcaP7p4fzpa4cNy03,vAAyoEmesTVkcaP7p4fzpa4cNy03,,,,,,,,,,,,,,,,,,,,,,5c63363b935c87000118a78a,09:06:13,27/02/2024
html-keyboard-response,176,348934,0.0-73.0,,"<div style=""font-size:100px;"">+</div>",,delaylearn,learning,ITI,vAAyoEmesTVkcaP7p4fzpa4cNy03,vAAyoEmesTVkcaP7p4fzpa4cNy03,,,,,,,,,,,,,,,,,,,2498.0,,,5c63363b935c87000118a78a,09:06:13,27/02/2024
html-keyboard-response,177,350792,0.0-74.0-0.0,1850.8999999999069,"<div style=""display: flex; flex-direction: column; align-items: center; margin-top: -40px;""><img src=""images/pattern_1.png"" style=""width: 234px; height: 230px; margin-top: -50px;""><div style=""display: flex; justify-content: space-between; margin-top: 33px;""><img src=""images/choice_trial_14.png"" style=""width: 408px; height: 417px; margin-right: 200px;""><img src=""images/choice_trial_8.png"" style=""width: 408px; height: 417px;""></div></div>",f,delaylearn,learning,trial,vAAyoEmesTVkcaP7p4fzpa4cNy03,vAAyoEmesTVkcaP7p4fzpa4cNy03,3.0,images/choice_trial_14.png,images/choice_trial_8.png,images/pattern_1.png,f,f,7000.0,14.0,8.0,1.0,0.0,32.0,1.0,1.0,14.0,170.0,,,,,,5c63363b935c87000118a78a,09:06:13,27/02/2024
html-keyboard-response,178,351796,0.0-74.0-1.0,,"<div style=""display: flex; flex-direction: column; align-items: center; margin-top: -40px;""><img src=""images/pattern_1.png"" style=""width: 234px; height: 230px; margin-top: -50px;""><div style=""display: flex; justify-content: space-between; margin-top: 33px;""><img src=""images/choice_trial_14.png"" style=""width: 408px; height: 417px; margin-right: 608px;""></div></div>",,delaylearn,learning,display_response,vAAyoEmesTVkcaP7p4fzpa4cNy03,vAAyoEmesTVkcaP7p4fzpa4cNy03,,,,,,,,,,,,,,,,,chosen stimuli: images/choice_trial_14.png,,,,,5c63363b935c87000118a78a,09:06:13,27/02/2024
html-keyboard-response,179,358798,0.0-74.0-2.0,,,,delaylearn,learning,feedback_duration_window,vAAyoEmesTVkcaP7p4fzpa4cNy03,vAAyoEmesTVkcaP7p4fzpa4cNy03,,,,,,,,,,,,,,,,,,7000.0,,,,5c63363b935c87000118a78a,09:06:13,27/02/2024
html-keyboard-response,180,360302,0.0-74.0-3.0,,<div style='margin:auto;width: auto; font-size: 150%'><span style='font-weight: bold; font-size: 100px; color: green;'>+10 points!</span><br><br></div>,,delaylearn,learning,feedback_image_window,vAAyoEmesTVkcaP7p4fzpa4cNy03,vAAyoEmesTVkcaP7p4fzpa4cNy03,,,,,,,,,,,,,,,,,,,,,,5c63363b935c87000118a78a,09:06:13,27/02/2024
html-keyboard-response,181,360805,0.0-75.0-0.0,,,,,,mood_trial_fixation,vAAyoEmesTVkcaP7p4fzpa4cNy03,,,,,,,,,,,,,,,,,,,,,,,5c63363b935c87000118a78a,09:06:13,27/02/2024
lmdlab-html-vas-response,182,364734,0.0-75.0-1.0,2920.0,How happy are you right now?,0.3537326388888889,delaylearn,learning,mood_trial,vAAyoEmesTVkcaP7p4fzpa4cNy03,vAAyoEmesTVkcaP7p4fzpa4cNy03,,,,,,,,,,,,,,,,,,,,"['Very unhappy', 'Very happy']",,5c63363b935c87000118a78a,09:06:13,27/02/2024
html-keyboard-response,183,366546,0.0-76.0,,"<div style=""font-size:100px;"">+</div>",,delaylearn,learning,ITI,vAAyoEmesTVkcaP7p4fzpa4cNy03,vAAyoEmesTVkcaP7p4fzpa4cNy03,,,,,,,,,,,,,,,,,,,1807.0,,,5c63363b935c87000118a78a,09:06:13,27/02/2024
html-keyboard-response,184,367708,0.0-77.0-0.0,1156.6000000000931,"<div style=""display: flex; flex-direction: column; align-items: center; margin-top: -40px;""><img src=""images/pattern_6.png"" style=""width: 234px; height: 230px; margin-top: -50px;""><div style=""display: flex; justify-content: space-between; margin-top: 33px;""><img src=""images/choice_trial_16.png"" style=""width: 408px; height: 417px; margin-right: 200px;""><img src=""images/choice_trial_3.png"" style=""width: 408px; height: 417px;""></div></div>",j,delaylearn,learning,trial,vAAyoEmesTVkcaP7p4fzpa4cNy03,vAAyoEmesTVkcaP7p4fzpa4cNy03,3.0,images/choice_trial_16.png,images/choice_trial_3.png,images/pattern_6.png,j,f,750.0,16.0,3.0,5.0,0.0,33.0,0.0,1.0,3.0,180.0,,,,,,5c63363b935c87000118a78a,09:06:13,27/02/2024
html-keyboard-response,185,368713,0.0-77.0-1.0,,"<div style=""display: flex; flex-direction: column; align-items: center; margin-top: -40px;""><img src=""images/pattern_6.png"" style=""width: 234px; height: 230px; margin-top: -50px;""><div style=""display: flex; justify-content: space-between; margin-top: 33px;""><img src=""images/choice_trial_3.png"" style=""width: 408px; height: 417px; margin-left:608px;""></div></div>",,delaylearn,learning,display_response,vAAyoEmesTVkcaP7p4fzpa4cNy03,vAAyoEmesTVkcaP7p4fzpa4cNy03,,,,,,,,,,,,,,,,,chosen stimuli: images/choice_trial_3.png,,,,,5c63363b935c87000118a78a,09:06:13,27/02/2024
html-keyboard-response,186,369466,0.0-77.0-2.0,,,,delaylearn,learning,feedback_duration_window,vAAyoEmesTVkcaP7p4fzpa4cNy03,vAAyoEmesTVkcaP7p4fzpa4cNy03,,,,,,,,,,,,,,,,,,750.0,,,,5c63363b935c87000118a78a,09:06:13,27/02/2024
html-keyboard-response,187,370968,0.0-77.0-3.0,,<div style='margin:auto;width: auto; font-size: 150%'><span style='font-weight: bold; font-size: 100px; color: green;'>+10 points!</span><br><br></div>,,delaylearn,learning,feedback_image_window,vAAyoEmesTVkcaP7p4fzpa4cNy03,vAAyoEmesTVkcaP7p4fzpa4cNy03,,,,,,,,,,,,,,,,,,,,,,5c63363b935c87000118a78a,09:06:13,27/02/2024
html-keyboard-response,188,373443,0.0-78.0,,"<div style=""font-size:100px;"">+</div>",,delaylearn,learning,ITI,vAAyoEmesTVkcaP7p4fzpa4cNy03,vAAyoEmesTVkcaP7p4fzpa4cNy03,,,,,,,,,,,,,,,,,,,2472.0,,,5c63363b935c87000118a78a,09:06:13,27/02/2024
html-keyboard-response,189,374695,0.0-79.0-0.0,1247.1999999997206,"<div style=""display: flex; flex-direction: column; align-items: center; margin-top: -40px;""><img src=""images/pattern_3.png"" style=""width: 234px; height: 230px; margin-top: -50px;""><div style=""display: flex; justify-content: space-between; margin-top: 33px;""><img src=""images/choice_trial_10.png"" style=""width: 408px; height: 417px; margin-right: 200px;""><img src=""images/choice_trial_13.png"" style=""width: 408px; height: 417px;""></div></div>",f,delaylearn,learning,trial,vAAyoEmesTVkcaP7p4fzpa4cNy03,vAAyoEmesTVkcaP7p4fzpa4cNy03,3.0,images/choice_trial_10.png,images/choice_trial_13.png,images/pattern_3.png,j,j,7000.0,10.0,13.0,2.0,1.0,34.0,0.0,0.0,10.0,180.0,,,,,,5c63363b935c87000118a78a,09:06:13,27/02/2024
html-keyboard-response,190,375701,0.0-79.0-1.0,,"<div style=""display: flex; flex-direction: column; align-items: center; margin-top: -40px;""><img src=""images/pattern_3.png"" style=""width: 234px; height: 230px; margin-top: -50px;""><div style=""display: flex; justify-content: space-between; margin-top: 33px;""><img src=""images/choice_trial_10.png"" style=""width: 408px; height: 417px; margin-right: 608px;""></div></div>",,delaylearn,learning,display_response,vAAyoEmesTVkcaP7p4fzpa4cNy03,vAAyoEmesTVkcaP7p4fzpa4cNy03,,,,,,,,,,,,,,,,,chosen stimuli: images/choice_trial_10.png,,,,,5c63363b935c87000118a78a,09:06:13,27/02/2024
html-keyboard-response,191,382703,0.0-79.0-2.0,,,,delaylearn,learning,feedback_duration_window,vAAyoEmesTVkcaP7p4fzpa4cNy03,vAAyoEmesTVkcaP7p4fzpa4cNy03,,,,,,,,,,,,,,,,,,7000.0,,,,5c63363b935c87000118a78a,09:06:13,27/02/2024
html-keyboard-response,192,384207,0.0-79.0-3.0,,<div style='margin:auto;width: auto; font-size: 150%'><span style='font-weight: bold; font-size: 100px; color: red;'>0 points!</span><br><br></div>,,delaylearn,learning,feedback_image_window,vAAyoEmesTVkcaP7p4fzpa4cNy03,vAAyoEmesTVkcaP7p4fzpa4cNy03,,,,,,,,,,,,,,,,,,,,,,5c63363b935c87000118a78a,09:06:13,27/02/2024
html-keyboard-response,193,386686,0.0-80.0,,"<div style=""font-size:100px;"">+</div>",,delaylearn,learning,ITI,vAAyoEmesTVkcaP7p4fzpa4cNy03,vAAyoEmesTVkcaP7p4fzpa4cNy03,,,,,,,,,,,,,,,,,,,2477.0,,,5c63363b935c87000118a78a,09:06:13,27/02/2024
html-keyboard-response,194,387907,0.0-81.0-0.0,1214.5,"<div style=""display: flex; flex-direction: column; align-items: center; margin-top: -40px;""><img src=""images/pattern_4.png"" style=""width: 234px; height: 230px; margin-top: -50px;""><div style=""display: flex; justify-content: space-between; margin-top: 33px;""><img src=""images/choice_trial_9.png"" style=""width: 408px; height: 417px; margin-right: 200px;""><img src=""images/choice_trial_15.png"" style=""width: 408px; height: 417px;""></div></div>",f,delaylearn,learning,trial,vAAyoEmesTVkcaP7p4fzpa4cNy03,vAAyoEmesTVkcaP7p4fzpa4cNy03,3.0,images/choice_trial_9.png,images/choice_trial_15.png,images/pattern_4.png,f,j,7000.0,9.0,15.0,3.0,1.0,35.0,0.0,1.0,9.0,190.0,,,,,,5c63363b935c87000118a78a,09:06:13,27/02/2024
html-keyboard-response,195,388912,0.0-81.0-1.0,,"<div style=""display: flex; flex-direction: column; align-items: center; margin-top: -40px;""><img src=""images/pattern_4.png"" style=""width: 234px; height: 230px; margin-top: -50px;""><div style=""display: flex; justify-content: space-between; margin-top: 33px;""><img src=""images/choice_trial_9.png"" style=""width: 408px; height: 417px; margin-right: 608px;""></div></div>",,delaylearn,learning,display_response,vAAyoEmesTVkcaP7p4fzpa4cNy03,vAAyoEmesTVkcaP7p4fzpa4cNy03,,,,,,,,,,,,,,,,,chosen stimuli: images/choice_trial_9.png,,,,,5c63363b935c87000118a78a,09:06:13,27/02/2024
html-keyboard-response,196,395914,0.0-81.0-2.0,,,,delaylearn,learning,feedback_duration_window,vAAyoEmesTVkcaP7p4fzpa4cNy03,vAAyoEmesTVkcaP7p4fzpa4cNy03,,,,,,,,,,,,,,,,,,7000.0,,,,5c63363b935c87000118a78a,09:06:13,27/02/2024
html-keyboard-response,197,397418,0.0-81.0-3.0,,<div style='margin:auto;width: auto; font-size: 150%'><span style='font-weight: bold; font-size: 100px; color: green;'>+10 points!</span><br><br></div>,,delaylearn,learning,feedback_image_window,vAAyoEmesTVkcaP7p4fzpa4cNy03,vAAyoEmesTVkcaP7p4fzpa4cNy03,,,,,,,,,,,,,,,,,,,,,,5c63363b935c87000118a78a,09:06:13,27/02/2024
html-keyboard-response,198,399816,0.0-82.0,,"<div style=""font-size:100px;"">+</div>",,delaylearn,learning,ITI,vAAyoEmesTVkcaP7p4fzpa4cNy03,vAAyoEmesTVkcaP7p4fzpa4cNy03,,,,,,,,,,,,,,,,,,,2396.0,,,5c63363b935c87000118a78a,09:06:13,27/02/2024
html-keyboard-response,199,401180,0.0-83.0-0.0,1357.8000000002794,"<div style=""display: flex; flex-direction: column; align-items: center; margin-top: -40px;""><img src=""images/pattern_7.png"" style=""width: 234px; height: 230px; margin-top: -50px;""><div style=""display: flex; justify-content: space-between; margin-top: 33px;""><img src=""images/choice_trial_6.png"" style=""width: 408px; height: 417px; margin-right: 200px;""><img src=""images/choice_trial_12.png"" style=""width: 408px; height: 417px;""></div></div>",f,delaylearn,learning,trial,vAAyoEmesTVkcaP7p4fzpa4cNy03,vAAyoEmesTVkcaP7p4fzpa4cNy03,3.0,images/choice_trial_6.png,images/choice_trial_12.png,images/pattern_7.png,f,f,750.0,6.0,12.0,6.0,0.0,36.0,1.0,1.0,6.0,200.0,,,,,,5c63363b935c87000118a78a,09:06:13,27/02/2024
html-keyboard-response,200,402183,0.0-83.0-1.0,,"<div style=""display: flex; flex-direction: column; align-items: center; margin-top: -40px;""><img src=""images/pattern_7.png"" style=""width: 234px; height: 230px; margin-top: -50px;""><div style=""display: flex; justify-content: space-between; margin-top: 33px;""><img src=""images/choice_trial_6.png"" style=""width: 408px; height: 417px; margin-right: 608px;""></div></div>",,delaylearn,learning,display_response,vAAyoEmesTVkcaP7p4fzpa4cNy03,vAAyoEmesTVkcaP7p4fzpa4cNy03,,,,,,,,,,,,,,,,,chosen stimuli: images/choice_trial_6.png,,,,,5c63363b935c87000118a78a,09:06:13,27/02/2024
html-keyboard-response,201,402935,0.0-83.0-2.0,,,,delaylearn,learning,feedback_duration_window,vAAyoEmesTVkcaP7p4fzpa4cNy03,vAAyoEmesTVkcaP7p4fzpa4cNy03,,,,,,,,,,,,,,,,,,750.0,,,,5c63363b935c87000118a78a,09:06:13,27/02/2024
html-keyboard-response,202,404438,0.0-83.0-3.0,,<div style='margin:auto;width: auto; font-size: 150%'><span style='font-weight: bold; font-size: 100px; color: green;'>+10 points!</span><br><br></div>,,delaylearn,learning,feedback_image_window,vAAyoEmesTVkcaP7p4fzpa4cNy03,vAAyoEmesTVkcaP7p4fzpa4cNy03,,,,,,,,,,,,,,,,,,,,,,5c63363b935c87000118a78a,09:06:13,27/02/2024
html-keyboard-response,203,406354,0.0-84.0,,"<div style=""font-size:100px;"">+</div>",,delaylearn,learning,ITI,vAAyoEmesTVkcaP7p4fzpa4cNy03,vAAyoEmesTVkcaP7p4fzpa4cNy03,,,,,,,,,,,,,,,,,,,1913.0,,,5c63363b935c87000118a78a,09:06:13,27/02/2024
html-keyboard-response,204,407729,0.0-85.0-0.0,1369.6000000000931,"<div style=""display: flex; flex-direction: column; align-items: center; margin-top: -40px;""><img src=""images/pattern_1.png"" style=""width: 234px; height: 230px; margin-top: -50px;""><div style=""display: flex; justify-content: space-between; margin-top: 33px;""><img src=""images/choice_trial_14.png"" style=""width: 408px; height: 417px; margin-right: 200px;""><img src=""images/choice_trial_8.png"" style=""width: 408px; height: 417px;""></div></div>",f,delaylearn,learning,trial,vAAyoEmesTVkcaP7p4fzpa4cNy03,vAAyoEmesTVkcaP7p4fzpa4cNy03,3.0,images/choice_trial_14.png,images/choice_trial_8.png,images/pattern_1.png,f,f,7000.0,14.0,8.0,1.0,0.0,37.0,1.0,1.0,14.0,210.0,,,,,,5c63363b935c87000118a78a,09:06:13,27/02/2024
html-keyboard-response,205,408733,0.0-85.0-1.0,,"<div style=""display: flex; flex-direction: column; align-items: center; margin-top: -40px;""><img src=""images/pattern_1.png"" style=""width: 234px; height: 230px; margin-top: -50px;""><div style=""display: flex; justify-content: space-between; margin-top: 33px;""><img src=""images/choice_trial_14.png"" style=""width: 408px; height: 417px; margin-right: 608px;""></div></div>",,delaylearn,learning,display_response,vAAyoEmesTVkcaP7p4fzpa4cNy03,vAAyoEmesTVkcaP7p4fzpa4cNy03,,,,,,,,,,,,,,,,,chosen stimuli: images/choice_trial_14.png,,,,,5c63363b935c87000118a78a,09:06:13,27/02/2024
html-keyboard-response,206,415735,0.0-85.0-2.0,,,,delaylearn,learning,feedback_duration_window,vAAyoEmesTVkcaP7p4fzpa4cNy03,vAAyoEmesTVkcaP7p4fzpa4cNy03,,,,,,,,,,,,,,,,,,7000.0,,,,5c63363b935c87000118a78a,09:06:13,27/02/2024
html-keyboard-response,207,417239,0.0-85.0-3.0,,<div style='margin:auto;width: auto; font-size: 150%'><span style='font-weight: bold; font-size: 100px; color: green;'>+10 points!</span><br><br></div>,,delaylearn,learning,feedback_image_window,vAAyoEmesTVkcaP7p4fzpa4cNy03,vAAyoEmesTVkcaP7p4fzpa4cNy03,,,,,,,,,,,,,,,,,,,,,,5c63363b935c87000118a78a,09:06:13,27/02/2024
html-keyboard-response,208,417740,0.0-86.0-0.0,,,,,,mood_trial_fixation,vAAyoEmesTVkcaP7p4fzpa4cNy03,,,,,,,,,,,,,,,,,,,,,,,5c63363b935c87000118a78a,09:06:13,27/02/2024
lmdlab-html-vas-response,209,423182,0.0-86.0-1.0,4432.0,How happy are you right now?,0.3241030092592593,delaylearn,learning,mood_trial,vAAyoEmesTVkcaP7p4fzpa4cNy03,vAAyoEmesTVkcaP7p4fzpa4cNy03,,,,,,,,,,,,,,,,,,,,"['Very unhappy', 'Very happy']",,5c63363b935c87000118a78a,09:06:13,27/02/2024
html-keyboard-response,210,424844,0.0-87.0,,"<div style=""font-size:100px;"">+</div>",,delaylearn,learning,ITI,vAAyoEmesTVkcaP7p4fzpa4cNy03,vAAyoEmesTVkcaP7p4fzpa4cNy03,,,,,,,,,,,,,,,,,,,1658.0,,,5c63363b935c87000118a78a,09:06:13,27/02/2024
html-keyboard-response,211,426680,0.0-88.0-0.0,1831.2000000001863,"<div style=""display: flex; flex-direction: column; align-items: center; margin-top: -40px;""><img src=""images/pattern_3.png"" style=""width: 234px; height: 230px; margin-top: -50px;""><div style=""display: flex; justify-content: space-between; margin-top: 33px;""><img src=""images/choice_trial_13.png"" style=""width: 408px; height: 417px; margin-right: 200px;""><img src=""images/choice_trial_10.png"" style=""width: 408px; height: 417px;""></div></div>",j,delaylearn,learning,trial,vAAyoEmesTVkcaP7p4fzpa4cNy03,vAAyoEmesTVkcaP7p4fzpa4cNy03,3.0,images/choice_trial_13.png,images/choice_trial_10.png,images/pattern_3.png,j,f,7000.0,13.0,10.0,2.0,0.0,38.0,0.0,1.0,10.0,220.0,,,,,,5c63363b935c87000118a78a,09:06:13,27/02/2024
html-keyboard-response,212,427683,0.0-88.0-1.0,,"<div style=""display: flex; flex-direction: column; align-items: center; margin-top: -40px;""><img src=""images/pattern_3.png"" style=""width: 234px; height: 230px; margin-top: -50px;""><div style=""display: flex; justify-content: space-between; margin-top: 33px;""><img src=""images/choice_trial_10.png"" style=""width: 408px; height: 417px; margin-left:608px;""></div></div>",,delaylearn,learning,display_response,vAAyoEmesTVkcaP7p4fzpa4cNy03,vAAyoEmesTVkcaP7p4fzpa4cNy03,,,,,,,,,,,,,,,,,chosen stimuli: images/choice_trial_10.png,,,,,5c63363b935c87000118a78a,09:06:13,27/02/2024
html-keyboard-response,213,434685,0.0-88.0-2.0,,,,delaylearn,learning,feedback_duration_window,vAAyoEmesTVkcaP7p4fzpa4cNy03,vAAyoEmesTVkcaP7p4fzpa4cNy03,,,,,,,,,,,,,,,,,,7000.0,,,,5c63363b935c87000118a78a,09:06:13,27/02/2024
html-keyboard-response,214,436189,0.0-88.0-3.0,,<div style='margin:auto;width: auto; font-size: 150%'><span style='font-weight: bold; font-size: 100px; color: green;'>+10 points!</span><br><br></div>,,delaylearn,learning,feedback_image_window,vAAyoEmesTVkcaP7p4fzpa4cNy03,vAAyoEmesTVkcaP7p4fzpa4cNy03,,,,,,,,,,,,,,,,,,,,,,5c63363b935c87000118a78a,09:06:13,27/02/2024
html-keyboard-response,215,438072,0.0-89.0,,"<div style=""font-size:100px;"">+</div>",,delaylearn,learning,ITI,vAAyoEmesTVkcaP7p4fzpa4cNy03,vAAyoEmesTVkcaP7p4fzpa4cNy03,,,,,,,,,,,,,,,,,,,1881.0,,,5c63363b935c87000118a78a,09:06:13,27/02/2024
html-keyboard-response,216,439246,0.0-90.0-0.0,1168.0,"<div style=""display: flex; flex-direction: column; align-items: center; margin-top: -40px;""><img src=""images/pattern_7.png"" style=""width: 234px; height: 230px; margin-top: -50px;""><div style=""display: flex; justify-content: space-between; margin-top: 33px;""><img src=""images/choice_trial_12.png"" style=""width: 408px; height: 417px; margin-right: 200px;""><img src=""images/choice_trial_6.png"" style=""width: 408px; height: 417px;""></div></div>",j,delaylearn,learning,trial,vAAyoEmesTVkcaP7p4fzpa4cNy03,vAAyoEmesTVkcaP7p4fzpa4cNy03,3.0,images/choice_trial_12.png,images/choice_trial_6.png,images/pattern_7.png,j,j,750.0,12.0,6.0,6.0,1.0,39.0,1.0,1.0,6.0,230.0,,,,,,5c63363b935c87000118a78a,09:06:13,27/02/2024
html-keyboard-response,217,440250,0.0-90.0-1.0,,"<div style=""display: flex; flex-direction: column; align-items: center; margin-top: -40px;""><img src=""images/pattern_7.png"" style=""width: 234px; height: 230px; margin-top: -50px;""><div style=""display: flex; justify-content: space-between; margin-top: 33px;""><img src=""images/choice_trial_6.png"" style=""width: 408px; height: 417px; margin-left:608px;""></div></div>",,delaylearn,learning,display_response,vAAyoEmesTVkcaP7p4fzpa4cNy03,vAAyoEmesTVkcaP7p4fzpa4cNy03,,,,,,,,,,,,,,,,,chosen stimuli: images/choice_trial_6.png,,,,,5c63363b935c87000118a78a,09:06:13,27/02/2024
html-keyboard-response,218,441003,0.0-90.0-2.0,,,,delaylearn,learning,feedback_duration_window,vAAyoEmesTVkcaP7p4fzpa4cNy03,vAAyoEmesTVkcaP7p4fzpa4cNy03,,,,,,,,,,,,,,,,,,750.0,,,,5c63363b935c87000118a78a,09:06:13,27/02/2024
html-keyboard-response,219,442506,0.0-90.0-3.0,,<div style='margin:auto;width: auto; font-size: 150%'><span style='font-weight: bold; font-size: 100px; color: green;'>+10 points!</span><br><br></div>,,delaylearn,learning,feedback_image_window,vAAyoEmesTVkcaP7p4fzpa4cNy03,vAAyoEmesTVkcaP7p4fzpa4cNy03,,,,,,,,,,,,,,,,,,,,,,5c63363b935c87000118a78a,09:06:13,27/02/2024
html-keyboard-response,220,444214,0.0-91.0,,"<div style=""font-size:100px;"">+</div>",,delaylearn,learning,ITI,vAAyoEmesTVkcaP7p4fzpa4cNy03,vAAyoEmesTVkcaP7p4fzpa4cNy03,,,,,,,,,,,,,,,,,,,1705.0,,,5c63363b935c87000118a78a,09:06:13,27/02/2024
html-keyboard-response,221,445099,0.0-92.0-0.0,878.7999999998137,"<div style=""display: flex; flex-direction: column; align-items: center; margin-top: -40px;""><img src=""images/pattern_5.png"" style=""width: 234px; height: 230px; margin-top: -50px;""><div style=""display: flex; justify-content: space-between; margin-top: 33px;""><img src=""images/choice_trial_2.png"" style=""width: 408px; height: 417px; margin-right: 200px;""><img src=""images/choice_trial_11.png"" style=""width: 408px; height: 417px;""></div></div>",j,delaylearn,learning,trial,vAAyoEmesTVkcaP7p4fzpa4cNy03,vAAyoEmesTVkcaP7p4fzpa4cNy03,3.0,images/choice_trial_2.png,images/choice_trial_11.png,images/pattern_5.png,j,j,750.0,2.0,11.0,4.0,1.0,40.0,1.0,1.0,11.0,240.0,,,,,,5c63363b935c87000118a78a,09:06:13,27/02/2024
html-keyboard-response,222,446103,0.0-92.0-1.0,,"<div style=""display: flex; flex-direction: column; align-items: center; margin-top: -40px;""><img src=""images/pattern_5.png"" style=""width: 234px; height: 230px; margin-top: -50px;""><div style=""display: flex; justify-content: space-between; margin-top: 33px;""><img src=""images/choice_trial_11.png"" style=""width: 408px; height: 417px; margin-left:608px;""></div></div>",,delaylearn,learning,display_response,vAAyoEmesTVkcaP7p4fzpa4cNy03,vAAyoEmesTVkcaP7p4fzpa4cNy03,,,,,,,,,,,,,,,,,chosen stimuli: images/choice_trial_11.png,,,,,5c63363b935c87000118a78a,09:06:13,27/02/2024
html-keyboard-response,223,446855,0.0-92.0-2.0,,,,delaylearn,learning,feedback_duration_window,vAAyoEmesTVkcaP7p4fzpa4cNy03,vAAyoEmesTVkcaP7p4fzpa4cNy03,,,,,,,,,,,,,,,,,,750.0,,,,5c63363b935c87000118a78a,09:06:13,27/02/2024
html-keyboard-response,224,448358,0.0-92.0-3.0,,<div style='margin:auto;width: auto; font-size: 150%'><span style='font-weight: bold; font-size: 100px; color: green;'>+10 points!</span><br><br></div>,,delaylearn,learning,feedback_image_window,vAAyoEmesTVkcaP7p4fzpa4cNy03,vAAyoEmesTVkcaP7p4fzpa4cNy03,,,,,,,,,,,,,,,,,,,,,,5c63363b935c87000118a78a,09:06:13,27/02/2024
html-keyboard-response,225,448861,0.0-93.0-0.0,,,,,,mood_trial_fixation,vAAyoEmesTVkcaP7p4fzpa4cNy03,,,,,,,,,,,,,,,,,,,,,,,5c63363b935c87000118a78a,09:06:13,27/02/2024
lmdlab-html-vas-response,226,453677,0.0-93.0-1.0,3807.0,How happy are you right now?,0.4407696759259259,delaylearn,learning,mood_trial,vAAyoEmesTVkcaP7p4fzpa4cNy03,vAAyoEmesTVkcaP7p4fzpa4cNy03,,,,,,,,,,,,,,,,,,,,"['Very unhappy', 'Very happy']",,5c63363b935c87000118a78a,09:06:13,27/02/2024
html-keyboard-response,227,456009,0.0-94.0,,"<div style=""font-size:100px;"">+</div>",,delaylearn,learning,ITI,vAAyoEmesTVkcaP7p4fzpa4cNy03,vAAyoEmesTVkcaP7p4fzpa4cNy03,,,,,,,,,,,,,,,,,,,2327.0,,,5c63363b935c87000118a78a,09:06:13,27/02/2024
html-keyboard-response,228,456784,0.0-95.0-0.0,768.8000000002794,"<div style=""display: flex; flex-direction: column; align-items: center; margin-top: -40px;""><img src=""images/pattern_4.png"" style=""width: 234px; height: 230px; margin-top: -50px;""><div style=""display: flex; justify-content: space-between; margin-top: 33px;""><img src=""images/choice_trial_15.png"" style=""width: 408px; height: 417px; margin-right: 200px;""><img src=""images/choice_trial_9.png"" style=""width: 408px; height: 417px;""></div></div>",j,delaylearn,learning,trial,vAAyoEmesTVkcaP7p4fzpa4cNy03,vAAyoEmesTVkcaP7p4fzpa4cNy03,3.0,images/choice_trial_15.png,images/choice_trial_9.png,images/pattern_4.png,f,f,7000.0,15.0,9.0,3.0,0.0,41.0,0.0,0.0,9.0,240.0,,,,,,5c63363b935c87000118a78a,09:06:13,27/02/2024
html-keyboard-response,229,457788,0.0-95.0-1.0,,"<div style=""display: flex; flex-direction: column; align-items: center; margin-top: -40px;""><img src=""images/pattern_4.png"" style=""width: 234px; height: 230px; margin-top: -50px;""><div style=""display: flex; justify-content: space-between; margin-top: 33px;""><img src=""images/choice_trial_9.png"" style=""width: 408px; height: 417px; margin-left:608px;""></div></div>",,delaylearn,learning,display_response,vAAyoEmesTVkcaP7p4fzpa4cNy03,vAAyoEmesTVkcaP7p4fzpa4cNy03,,,,,,,,,,,,,,,,,chosen stimuli: images/choice_trial_9.png,,,,,5c63363b935c87000118a78a,09:06:13,27/02/2024
html-keyboard-response,230,464790,0.0-95.0-2.0,,,,delaylearn,learning,feedback_duration_window,vAAyoEmesTVkcaP7p4fzpa4cNy03,vAAyoEmesTVkcaP7p4fzpa4cNy03,,,,,,,,,,,,,,,,,,7000.0,,,,5c63363b935c87000118a78a,09:06:13,27/02/2024
html-keyboard-response,231,466294,0.0-95.0-3.0,,<div style='margin:auto;width: auto; font-size: 150%'><span style='font-weight: bold; font-size: 100px; color: red;'>0 points!</span><br><br></div>,,delaylearn,learning,feedback_image_window,vAAyoEmesTVkcaP7p4fzpa4cNy03,vAAyoEmesTVkcaP7p4fzpa4cNy03,,,,,,,,,,,,,,,,,,,,,,5c63363b935c87000118a78a,09:06:13,27/02/2024
