trial_type,trial_index,time_elapsed,internal_node_id,rt,stimulus,response,exp_name,exp_stage,test_part,subjectID,databaseID,counterbal,choice_stimuli_1,choice_stimuli_2,pattern_stimuli,rewarded_answer,correct_answer,feedback_duration_times,stim_left,stim_right,pair,leftright_counter,trial,response_correct,response_rewarded,chosen_stim,counter,displayed_choice,feedback_durations,ITI_duration,labels,rest_warning,prolificID,start_time,date
pavlovia,0,532,0.0-0.0,,,,,,,IJVbsvJBcHYUPSekod73AXY7tD42,,,,,,,,,,,,,,,,,,,,,,,63d193a08edec060ac4c8e2c,16:50:55,27/03/2024
html-keyboard-response,1,3535,0.0-1.0,,"<div style=""font-size:100px;"">+</div>",,delaylearn,learning,pre_fixation,IJVbsvJBcHYUPSekod73AXY7tD42,,,,,,,,,,,,,,,,,,,,,,,63d193a08edec060ac4c8e2c,16:50:55,27/03/2024
html-keyboard-response,2,4597,0.0-2.0-0.0,1058.8000000715256,"<div style=""display: flex; flex-direction: column; align-items: center; margin-top: -40px;""><img src=""images/demo_images/pattern_1.png"" style=""width: 234px; height: 230px; margin-top: -50px;""><div style=""display: flex; justify-content: space-between; margin-top: 33px;""><img src=""images/demo_images/choice_trial_2.png"" style=""width: 408px; height: 417px; margin-right: 200px;""><img src=""images/demo_images/choice_trial_1.png"" style=""width: 408px; height: 417px;""></div></div>",f,delaylearn,learning,trial,IJVbsvJBcHYUPSekod73AXY7tD42,IJVbsvJBcHYUPSekod73AXY7tD42,5.0,images/demo_images/choice_trial_2.png,images/demo_images/choice_trial_1.png,images/demo_images/pattern_1.png,j,j,3000.0,2.0,1.0,20.0,1.0,1.0,0.0,0.0,2.0,0.0,,,,,,63d193a08edec060ac4c8e2c,16:50:55,27/03/2024
html-keyboard-response,3,5603,0.0-2.0-1.0,,"<div style=""display: flex; flex-direction: column; align-items: center; margin-top: -40px;""><img src=""images/demo_images/pattern_1.png"" style=""width: 234px; height: 230px; margin-top: -50px;""><div style=""display: flex; justify-content: space-between; margin-top: 33px;""><img src=""images/demo_images/choice_trial_2.png"" style=""width: 408px; height: 417px; margin-right: 608px;""></div></div>",,delaylearn,learning,display_response,IJVbsvJBcHYUPSekod73AXY7tD42,IJVbsvJBcHYUPSekod73AXY7tD42,,,,,,,,,,,,,,,,,chosen stimuli: images/demo_images/choice_trial_2.png,,,,,63d193a08edec060ac4c8e2c,16:50:55,27/03/2024
html-keyboard-response,4,8607,0.0-2.0-2.0,,,,delaylearn,learning,feedback_duration_window,IJVbsvJBcHYUPSekod73AXY7tD42,IJVbsvJBcHYUPSekod73AXY7tD42,,,,,,,,,,,,,,,,,,3000.0,,,,63d193a08edec060ac4c8e2c,16:50:55,27/03/2024
html-keyboard-response,5,10112,0.0-2.0-3.0,,<div style='margin:auto;width: auto; font-size: 150%'><span style='font-weight: bold; font-size: 100px; color: red;'>0 points!</span><br><br></div>,,delaylearn,learning,feedback_image_window,IJVbsvJBcHYUPSekod73AXY7tD42,IJVbsvJBcHYUPSekod73AXY7tD42,,,,,,,,,,,,,,,,,,,,,,63d193a08edec060ac4c8e2c,16:50:55,27/03/2024
html-keyboard-response,6,12487,0.0-3.0,,"<div style=""font-size:100px;"">+</div>",,delaylearn,learning,ITI,IJVbsvJBcHYUPSekod73AXY7tD42,IJVbsvJBcHYUPSekod73AXY7tD42,,,,,,,,,,,,,,,,,,,2372.0,,,63d193a08edec060ac4c8e2c,16:50:55,27/03/2024
html-keyboard-response,7,13618,0.0-4.0-0.0,1126.2000000476837,"<div style=""display: flex; flex-direction: column; align-items: center; margin-top: -40px;""><img src=""images/demo_images/pattern_1.png"" style=""width: 234px; height: 230px; margin-top: -50px;""><div style=""display: flex; justify-content: space-between; margin-top: 33px;""><img src=""images/demo_images/choice_trial_2.png"" style=""width: 408px; height: 417px; margin-right: 200px;""><img src=""images/demo_images/choice_trial_1.png"" style=""width: 408px; height: 417px;""></div></div>",j,delaylearn,learning,trial,IJVbsvJBcHYUPSekod73AXY7tD42,IJVbsvJBcHYUPSekod73AXY7tD42,5.0,images/demo_images/choice_trial_2.png,images/demo_images/choice_trial_1.png,images/demo_images/pattern_1.png,j,j,3000.0,2.0,1.0,20.0,1.0,2.0,1.0,1.0,1.0,10.0,,,,,,63d193a08edec060ac4c8e2c,16:50:55,27/03/2024
html-keyboard-response,8,14623,0.0-4.0-1.0,,"<div style=""display: flex; flex-direction: column; align-items: center; margin-top: -40px;""><img src=""images/demo_images/pattern_1.png"" style=""width: 234px; height: 230px; margin-top: -50px;""><div style=""display: flex; justify-content: space-between; margin-top: 33px;""><img src=""images/demo_images/choice_trial_1.png"" style=""width: 408px; height: 417px; margin-left:608px;""></div></div>",,delaylearn,learning,display_response,IJVbsvJBcHYUPSekod73AXY7tD42,IJVbsvJBcHYUPSekod73AXY7tD42,,,,,,,,,,,,,,,,,chosen stimuli: images/demo_images/choice_trial_1.png,,,,,63d193a08edec060ac4c8e2c,16:50:55,27/03/2024
html-keyboard-response,9,17627,0.0-4.0-2.0,,,,delaylearn,learning,feedback_duration_window,IJVbsvJBcHYUPSekod73AXY7tD42,IJVbsvJBcHYUPSekod73AXY7tD42,,,,,,,,,,,,,,,,,,3000.0,,,,63d193a08edec060ac4c8e2c,16:50:55,27/03/2024
html-keyboard-response,10,19132,0.0-4.0-3.0,,<div style='margin:auto;width: auto; font-size: 150%'><span style='font-weight: bold; font-size: 100px; color: green;'>+10 points!</span><br><br></div>,,delaylearn,learning,feedback_image_window,IJVbsvJBcHYUPSekod73AXY7tD42,IJVbsvJBcHYUPSekod73AXY7tD42,,,,,,,,,,,,,,,,,,,,,,63d193a08edec060ac4c8e2c,16:50:55,27/03/2024
html-keyboard-response,11,20695,0.0-5.0,,"<div style=""font-size:100px;"">+</div>",,delaylearn,learning,ITI,IJVbsvJBcHYUPSekod73AXY7tD42,IJVbsvJBcHYUPSekod73AXY7tD42,,,,,,,,,,,,,,,,,,,1560.0,,,63d193a08edec060ac4c8e2c,16:50:55,27/03/2024
html-keyboard-response,12,21659,0.0-6.0-0.0,960.8000000715256,"<div style=""display: flex; flex-direction: column; align-items: center; margin-top: -40px;""><img src=""images/demo_images/pattern_1.png"" style=""width: 234px; height: 230px; margin-top: -50px;""><div style=""display: flex; justify-content: space-between; margin-top: 33px;""><img src=""images/demo_images/choice_trial_1.png"" style=""width: 408px; height: 417px; margin-right: 200px;""><img src=""images/demo_images/choice_trial_2.png"" style=""width: 408px; height: 417px;""></div></div>",f,delaylearn,learning,trial,IJVbsvJBcHYUPSekod73AXY7tD42,IJVbsvJBcHYUPSekod73AXY7tD42,5.0,images/demo_images/choice_trial_1.png,images/demo_images/choice_trial_2.png,images/demo_images/pattern_1.png,j,f,3000.0,1.0,2.0,20.0,0.0,3.0,1.0,0.0,1.0,10.0,,,,,,63d193a08edec060ac4c8e2c,16:50:55,27/03/2024
html-keyboard-response,13,22663,0.0-6.0-1.0,,"<div style=""display: flex; flex-direction: column; align-items: center; margin-top: -40px;""><img src=""images/demo_images/pattern_1.png"" style=""width: 234px; height: 230px; margin-top: -50px;""><div style=""display: flex; justify-content: space-between; margin-top: 33px;""><img src=""images/demo_images/choice_trial_1.png"" style=""width: 408px; height: 417px; margin-right: 608px;""></div></div>",,delaylearn,learning,display_response,IJVbsvJBcHYUPSekod73AXY7tD42,IJVbsvJBcHYUPSekod73AXY7tD42,,,,,,,,,,,,,,,,,chosen stimuli: images/demo_images/choice_trial_1.png,,,,,63d193a08edec060ac4c8e2c,16:50:55,27/03/2024
html-keyboard-response,14,25666,0.0-6.0-2.0,,,,delaylearn,learning,feedback_duration_window,IJVbsvJBcHYUPSekod73AXY7tD42,IJVbsvJBcHYUPSekod73AXY7tD42,,,,,,,,,,,,,,,,,,3000.0,,,,63d193a08edec060ac4c8e2c,16:50:55,27/03/2024
html-keyboard-response,15,27171,0.0-6.0-3.0,,<div style='margin:auto;width: auto; font-size: 150%'><span style='font-weight: bold; font-size: 100px; color: red;'>0 points!</span><br><br></div>,,delaylearn,learning,feedback_image_window,IJVbsvJBcHYUPSekod73AXY7tD42,IJVbsvJBcHYUPSekod73AXY7tD42,,,,,,,,,,,,,,,,,,,,,,63d193a08edec060ac4c8e2c,16:50:55,27/03/2024
html-keyboard-response,16,29101,0.0-7.0,,"<div style=""font-size:100px;"">+</div>",,delaylearn,learning,ITI,IJVbsvJBcHYUPSekod73AXY7tD42,IJVbsvJBcHYUPSekod73AXY7tD42,,,,,,,,,,,,,,,,,,,1927.0,,,63d193a08edec060ac4c8e2c,16:50:55,27/03/2024
html-keyboard-response,17,30474,0.0-8.0-0.0,1369.4000000953674,"<div style=""display: flex; flex-direction: column; align-items: center; margin-top: -40px;""><img src=""images/demo_images/pattern_1.png"" style=""width: 234px; height: 230px; margin-top: -50px;""><div style=""display: flex; justify-content: space-between; margin-top: 33px;""><img src=""images/demo_images/choice_trial_1.png"" style=""width: 408px; height: 417px; margin-right: 200px;""><img src=""images/demo_images/choice_trial_2.png"" style=""width: 408px; height: 417px;""></div></div>",f,delaylearn,learning,trial,IJVbsvJBcHYUPSekod73AXY7tD42,IJVbsvJBcHYUPSekod73AXY7tD42,5.0,images/demo_images/choice_trial_1.png,images/demo_images/choice_trial_2.png,images/demo_images/pattern_1.png,f,f,3000.0,1.0,2.0,20.0,0.0,4.0,1.0,1.0,1.0,20.0,,,,,,63d193a08edec060ac4c8e2c,16:50:55,27/03/2024
html-keyboard-response,18,31480,0.0-8.0-1.0,,"<div style=""display: flex; flex-direction: column; align-items: center; margin-top: -40px;""><img src=""images/demo_images/pattern_1.png"" style=""width: 234px; height: 230px; margin-top: -50px;""><div style=""display: flex; justify-content: space-between; margin-top: 33px;""><img src=""images/demo_images/choice_trial_1.png"" style=""width: 408px; height: 417px; margin-right: 608px;""></div></div>",,delaylearn,learning,display_response,IJVbsvJBcHYUPSekod73AXY7tD42,IJVbsvJBcHYUPSekod73AXY7tD42,,,,,,,,,,,,,,,,,chosen stimuli: images/demo_images/choice_trial_1.png,,,,,63d193a08edec060ac4c8e2c,16:50:55,27/03/2024
html-keyboard-response,19,34483,0.0-8.0-2.0,,,,delaylearn,learning,feedback_duration_window,IJVbsvJBcHYUPSekod73AXY7tD42,IJVbsvJBcHYUPSekod73AXY7tD42,,,,,,,,,,,,,,,,,,3000.0,,,,63d193a08edec060ac4c8e2c,16:50:55,27/03/2024
html-keyboard-response,20,35987,0.0-8.0-3.0,,<div style='margin:auto;width: auto; font-size: 150%'><span style='font-weight: bold; font-size: 100px; color: green;'>+10 points!</span><br><br></div>,,delaylearn,learning,feedback_image_window,IJVbsvJBcHYUPSekod73AXY7tD42,IJVbsvJBcHYUPSekod73AXY7tD42,,,,,,,,,,,,,,,,,,,,,,63d193a08edec060ac4c8e2c,16:50:55,27/03/2024
html-keyboard-response,21,36489,0.0-9.0-0.0,,,,,,mood_trial_fixation,IJVbsvJBcHYUPSekod73AXY7tD42,,,,,,,,,,,,,,,,,,,,,,,63d193a08edec060ac4c8e2c,16:50:55,27/03/2024
lmdlab-html-vas-response,22,42055,0.0-9.0-1.0,4553.0,How happy are you right now?,0.3814814814814815,delaylearn,learning,mood_trial,IJVbsvJBcHYUPSekod73AXY7tD42,IJVbsvJBcHYUPSekod73AXY7tD42,,,,,,,,,,,,,,,,,,,,"['Very unhappy', 'Very happy']",,63d193a08edec060ac4c8e2c,16:50:55,27/03/2024
html-keyboard-response,23,43633,0.0-10.0,,"<div style=""font-size:100px;"">+</div>",,delaylearn,learning,ITI,IJVbsvJBcHYUPSekod73AXY7tD42,IJVbsvJBcHYUPSekod73AXY7tD42,,,,,,,,,,,,,,,,,,,1574.0,,,63d193a08edec060ac4c8e2c,16:50:55,27/03/2024
html-keyboard-response,24,45363,0.0-11.0-0.0,1726.2000000476837,"<div style=""display: flex; flex-direction: column; align-items: center; margin-top: -40px;""><img src=""images/demo_images/pattern_1.png"" style=""width: 234px; height: 230px; margin-top: -50px;""><div style=""display: flex; justify-content: space-between; margin-top: 33px;""><img src=""images/demo_images/choice_trial_2.png"" style=""width: 408px; height: 417px; margin-right: 200px;""><img src=""images/demo_images/choice_trial_1.png"" style=""width: 408px; height: 417px;""></div></div>",j,delaylearn,learning,trial,IJVbsvJBcHYUPSekod73AXY7tD42,IJVbsvJBcHYUPSekod73AXY7tD42,5.0,images/demo_images/choice_trial_2.png,images/demo_images/choice_trial_1.png,images/demo_images/pattern_1.png,j,j,3000.0,2.0,1.0,20.0,1.0,5.0,1.0,1.0,1.0,30.0,,,,,,63d193a08edec060ac4c8e2c,16:50:55,27/03/2024
html-keyboard-response,25,46368,0.0-11.0-1.0,,"<div style=""display: flex; flex-direction: column; align-items: center; margin-top: -40px;""><img src=""images/demo_images/pattern_1.png"" style=""width: 234px; height: 230px; margin-top: -50px;""><div style=""display: flex; justify-content: space-between; margin-top: 33px;""><img src=""images/demo_images/choice_trial_1.png"" style=""width: 408px; height: 417px; margin-left:608px;""></div></div>",,delaylearn,learning,display_response,IJVbsvJBcHYUPSekod73AXY7tD42,IJVbsvJBcHYUPSekod73AXY7tD42,,,,,,,,,,,,,,,,,chosen stimuli: images/demo_images/choice_trial_1.png,,,,,63d193a08edec060ac4c8e2c,16:50:55,27/03/2024
html-keyboard-response,26,49371,0.0-11.0-2.0,,,,delaylearn,learning,feedback_duration_window,IJVbsvJBcHYUPSekod73AXY7tD42,IJVbsvJBcHYUPSekod73AXY7tD42,,,,,,,,,,,,,,,,,,3000.0,,,,63d193a08edec060ac4c8e2c,16:50:55,27/03/2024
html-keyboard-response,27,50877,0.0-11.0-3.0,,<div style='margin:auto;width: auto; font-size: 150%'><span style='font-weight: bold; font-size: 100px; color: green;'>+10 points!</span><br><br></div>,,delaylearn,learning,feedback_image_window,IJVbsvJBcHYUPSekod73AXY7tD42,IJVbsvJBcHYUPSekod73AXY7tD42,,,,,,,,,,,,,,,,,,,,,,63d193a08edec060ac4c8e2c,16:50:55,27/03/2024
html-keyboard-response,28,52636,0.0-12.0,,"<div style=""font-size:100px;"">+</div>",,delaylearn,learning,ITI,IJVbsvJBcHYUPSekod73AXY7tD42,IJVbsvJBcHYUPSekod73AXY7tD42,,,,,,,,,,,,,,,,,,,1756.0,,,63d193a08edec060ac4c8e2c,16:50:55,27/03/2024
html-keyboard-response,29,54210,0.0-13.0-0.0,1570.5,"<div style=""display: flex; flex-direction: column; align-items: center; margin-top: -40px;""><img src=""images/demo_images/pattern_1.png"" style=""width: 234px; height: 230px; margin-top: -50px;""><div style=""display: flex; justify-content: space-between; margin-top: 33px;""><img src=""images/demo_images/choice_trial_1.png"" style=""width: 408px; height: 417px; margin-right: 200px;""><img src=""images/demo_images/choice_trial_2.png"" style=""width: 408px; height: 417px;""></div></div>",f,delaylearn,learning,trial,IJVbsvJBcHYUPSekod73AXY7tD42,IJVbsvJBcHYUPSekod73AXY7tD42,5.0,images/demo_images/choice_trial_1.png,images/demo_images/choice_trial_2.png,images/demo_images/pattern_1.png,f,f,3000.0,1.0,2.0,20.0,0.0,6.0,1.0,1.0,1.0,40.0,,,,,,63d193a08edec060ac4c8e2c,16:50:55,27/03/2024
html-keyboard-response,30,55215,0.0-13.0-1.0,,"<div style=""display: flex; flex-direction: column; align-items: center; margin-top: -40px;""><img src=""images/demo_images/pattern_1.png"" style=""width: 234px; height: 230px; margin-top: -50px;""><div style=""display: flex; justify-content: space-between; margin-top: 33px;""><img src=""images/demo_images/choice_trial_1.png"" style=""width: 408px; height: 417px; margin-right: 608px;""></div></div>",,delaylearn,learning,display_response,IJVbsvJBcHYUPSekod73AXY7tD42,IJVbsvJBcHYUPSekod73AXY7tD42,,,,,,,,,,,,,,,,,chosen stimuli: images/demo_images/choice_trial_1.png,,,,,63d193a08edec060ac4c8e2c,16:50:55,27/03/2024
html-keyboard-response,31,58218,0.0-13.0-2.0,,,,delaylearn,learning,feedback_duration_window,IJVbsvJBcHYUPSekod73AXY7tD42,IJVbsvJBcHYUPSekod73AXY7tD42,,,,,,,,,,,,,,,,,,3000.0,,,,63d193a08edec060ac4c8e2c,16:50:55,27/03/2024
html-keyboard-response,32,59723,0.0-13.0-3.0,,<div style='margin:auto;width: auto; font-size: 150%'><span style='font-weight: bold; font-size: 100px; color: green;'>+10 points!</span><br><br></div>,,delaylearn,learning,feedback_image_window,IJVbsvJBcHYUPSekod73AXY7tD42,IJVbsvJBcHYUPSekod73AXY7tD42,,,,,,,,,,,,,,,,,,,,,,63d193a08edec060ac4c8e2c,16:50:55,27/03/2024
html-keyboard-response,33,61274,0.0-14.0,,"<div style=""font-size:100px;"">+</div>",,delaylearn,learning,ITI,IJVbsvJBcHYUPSekod73AXY7tD42,IJVbsvJBcHYUPSekod73AXY7tD42,,,,,,,,,,,,,,,,,,,1549.0,,,63d193a08edec060ac4c8e2c,16:50:55,27/03/2024
html-keyboard-response,34,62555,0.0-15.0-0.0,1276.8999999761581,"<div style=""display: flex; flex-direction: column; align-items: center; margin-top: -40px;""><img src=""images/demo_images/pattern_1.png"" style=""width: 234px; height: 230px; margin-top: -50px;""><div style=""display: flex; justify-content: space-between; margin-top: 33px;""><img src=""images/demo_images/choice_trial_2.png"" style=""width: 408px; height: 417px; margin-right: 200px;""><img src=""images/demo_images/choice_trial_1.png"" style=""width: 408px; height: 417px;""></div></div>",j,delaylearn,learning,trial,IJVbsvJBcHYUPSekod73AXY7tD42,IJVbsvJBcHYUPSekod73AXY7tD42,5.0,images/demo_images/choice_trial_2.png,images/demo_images/choice_trial_1.png,images/demo_images/pattern_1.png,j,j,3000.0,2.0,1.0,20.0,1.0,7.0,1.0,1.0,1.0,50.0,,,,,,63d193a08edec060ac4c8e2c,16:50:55,27/03/2024
html-keyboard-response,35,63559,0.0-15.0-1.0,,"<div style=""display: flex; flex-direction: column; align-items: center; margin-top: -40px;""><img src=""images/demo_images/pattern_1.png"" style=""width: 234px; height: 230px; margin-top: -50px;""><div style=""display: flex; justify-content: space-between; margin-top: 33px;""><img src=""images/demo_images/choice_trial_1.png"" style=""width: 408px; height: 417px; margin-left:608px;""></div></div>",,delaylearn,learning,display_response,IJVbsvJBcHYUPSekod73AXY7tD42,IJVbsvJBcHYUPSekod73AXY7tD42,,,,,,,,,,,,,,,,,chosen stimuli: images/demo_images/choice_trial_1.png,,,,,63d193a08edec060ac4c8e2c,16:50:55,27/03/2024
html-keyboard-response,36,66562,0.0-15.0-2.0,,,,delaylearn,learning,feedback_duration_window,IJVbsvJBcHYUPSekod73AXY7tD42,IJVbsvJBcHYUPSekod73AXY7tD42,,,,,,,,,,,,,,,,,,3000.0,,,,63d193a08edec060ac4c8e2c,16:50:55,27/03/2024
html-keyboard-response,37,68067,0.0-15.0-3.0,,<div style='margin:auto;width: auto; font-size: 150%'><span style='font-weight: bold; font-size: 100px; color: green;'>+10 points!</span><br><br></div>,,delaylearn,learning,feedback_image_window,IJVbsvJBcHYUPSekod73AXY7tD42,IJVbsvJBcHYUPSekod73AXY7tD42,,,,,,,,,,,,,,,,,,,,,,63d193a08edec060ac4c8e2c,16:50:55,27/03/2024
html-keyboard-response,38,70262,0.0-16.0,,"<div style=""font-size:100px;"">+</div>",,delaylearn,learning,ITI,IJVbsvJBcHYUPSekod73AXY7tD42,IJVbsvJBcHYUPSekod73AXY7tD42,,,,,,,,,,,,,,,,,,,2191.0,,,63d193a08edec060ac4c8e2c,16:50:55,27/03/2024
html-keyboard-response,39,71707,0.0-17.0-0.0,1442.0,"<div style=""display: flex; flex-direction: column; align-items: center; margin-top: -40px;""><img src=""images/demo_images/pattern_1.png"" style=""width: 234px; height: 230px; margin-top: -50px;""><div style=""display: flex; justify-content: space-between; margin-top: 33px;""><img src=""images/demo_images/choice_trial_1.png"" style=""width: 408px; height: 417px; margin-right: 200px;""><img src=""images/demo_images/choice_trial_2.png"" style=""width: 408px; height: 417px;""></div></div>",f,delaylearn,learning,trial,IJVbsvJBcHYUPSekod73AXY7tD42,IJVbsvJBcHYUPSekod73AXY7tD42,5.0,images/demo_images/choice_trial_1.png,images/demo_images/choice_trial_2.png,images/demo_images/pattern_1.png,f,f,3000.0,1.0,2.0,20.0,0.0,8.0,1.0,1.0,1.0,60.0,,,,,,63d193a08edec060ac4c8e2c,16:50:55,27/03/2024
html-keyboard-response,40,72711,0.0-17.0-1.0,,"<div style=""display: flex; flex-direction: column; align-items: center; margin-top: -40px;""><img src=""images/demo_images/pattern_1.png"" style=""width: 234px; height: 230px; margin-top: -50px;""><div style=""display: flex; justify-content: space-between; margin-top: 33px;""><img src=""images/demo_images/choice_trial_1.png"" style=""width: 408px; height: 417px; margin-right: 608px;""></div></div>",,delaylearn,learning,display_response,IJVbsvJBcHYUPSekod73AXY7tD42,IJVbsvJBcHYUPSekod73AXY7tD42,,,,,,,,,,,,,,,,,chosen stimuli: images/demo_images/choice_trial_1.png,,,,,63d193a08edec060ac4c8e2c,16:50:55,27/03/2024
html-keyboard-response,41,75714,0.0-17.0-2.0,,,,delaylearn,learning,feedback_duration_window,IJVbsvJBcHYUPSekod73AXY7tD42,IJVbsvJBcHYUPSekod73AXY7tD42,,,,,,,,,,,,,,,,,,3000.0,,,,63d193a08edec060ac4c8e2c,16:50:55,27/03/2024
html-keyboard-response,42,77219,0.0-17.0-3.0,,<div style='margin:auto;width: auto; font-size: 150%'><span style='font-weight: bold; font-size: 100px; color: green;'>+10 points!</span><br><br></div>,,delaylearn,learning,feedback_image_window,IJVbsvJBcHYUPSekod73AXY7tD42,IJVbsvJBcHYUPSekod73AXY7tD42,,,,,,,,,,,,,,,,,,,,,,63d193a08edec060ac4c8e2c,16:50:55,27/03/2024
html-button-response,43,80070,0.0-18.0,2849.399999976158,"
  <div style=""display: flex; align-items: center; justify-content: center; height: 80vh;"">
  <div>
          <img src=""images/inst_demo_finish.png"" style=""width: 80vw; height:auto;"">
          <br><br>
      </div>
      <br><br>
  </div>",0,,,,IJVbsvJBcHYUPSekod73AXY7tD42,,,,,,,,,,,,,,,,,,,,,,,63d193a08edec060ac4c8e2c,16:50:55,27/03/2024
html-keyboard-response,44,84074,0.0-19.0,4004.100000023842,"
  <div style=""display: flex; align-items: center; justify-content: center; height: 80vh;"">
  <div>
          <img src=""images/inst_6.png"" style=""width: 80vw; height:auto;"">
          <br><br>
      </div>
      <br><br>
  </div>",f,,,,IJVbsvJBcHYUPSekod73AXY7tD42,,,,,,,,,,,,,,,,,,,,,,,63d193a08edec060ac4c8e2c,16:50:55,27/03/2024
html-keyboard-response,45,87077,0.0-20.0,,"<div style=""font-size:100px;"">+</div>",,delaylearn,learning,pre_fixation,IJVbsvJBcHYUPSekod73AXY7tD42,,,,,,,,,,,,,,,,,,,,,,,63d193a08edec060ac4c8e2c,16:50:55,27/03/2024
html-keyboard-response,46,89038,0.0-21.0,,"<div style=""font-size:100px;"">+</div>",,delaylearn,learning,ITI,IJVbsvJBcHYUPSekod73AXY7tD42,IJVbsvJBcHYUPSekod73AXY7tD42,,,,,,,,,,,,,,,,,,,1957.0,,,63d193a08edec060ac4c8e2c,16:50:55,27/03/2024
html-keyboard-response,47,90574,0.0-22.0-0.0,1532.6000000238419,"<div style=""display: flex; flex-direction: column; align-items: center; margin-top: -40px;""><img src=""images/pattern_3.png"" style=""width: 234px; height: 230px; margin-top: -50px;""><div style=""display: flex; justify-content: space-between; margin-top: 33px;""><img src=""images/choice_trial_16.png"" style=""width: 408px; height: 417px; margin-right: 200px;""><img src=""images/choice_trial_2.png"" style=""width: 408px; height: 417px;""></div></div>",f,delaylearn,learning,trial,IJVbsvJBcHYUPSekod73AXY7tD42,IJVbsvJBcHYUPSekod73AXY7tD42,5.0,images/choice_trial_16.png,images/choice_trial_2.png,images/pattern_3.png,f,f,7000.0,16.0,2.0,2.0,0.0,9.0,1.0,1.0,16.0,70.0,,,,,,63d193a08edec060ac4c8e2c,16:50:55,27/03/2024
html-keyboard-response,48,91579,0.0-22.0-1.0,,"<div style=""display: flex; flex-direction: column; align-items: center; margin-top: -40px;""><img src=""images/pattern_3.png"" style=""width: 234px; height: 230px; margin-top: -50px;""><div style=""display: flex; justify-content: space-between; margin-top: 33px;""><img src=""images/choice_trial_16.png"" style=""width: 408px; height: 417px; margin-right: 608px;""></div></div>",,delaylearn,learning,display_response,IJVbsvJBcHYUPSekod73AXY7tD42,IJVbsvJBcHYUPSekod73AXY7tD42,,,,,,,,,,,,,,,,,chosen stimuli: images/choice_trial_16.png,,,,,63d193a08edec060ac4c8e2c,16:50:55,27/03/2024
html-keyboard-response,49,98582,0.0-22.0-2.0,,,,delaylearn,learning,feedback_duration_window,IJVbsvJBcHYUPSekod73AXY7tD42,IJVbsvJBcHYUPSekod73AXY7tD42,,,,,,,,,,,,,,,,,,7000.0,,,,63d193a08edec060ac4c8e2c,16:50:55,27/03/2024
html-keyboard-response,50,100087,0.0-22.0-3.0,,<div style='margin:auto;width: auto; font-size: 150%'><span style='font-weight: bold; font-size: 100px; color: green;'>+10 points!</span><br><br></div>,,delaylearn,learning,feedback_image_window,IJVbsvJBcHYUPSekod73AXY7tD42,IJVbsvJBcHYUPSekod73AXY7tD42,,,,,,,,,,,,,,,,,,,,,,63d193a08edec060ac4c8e2c,16:50:55,27/03/2024
html-keyboard-response,51,101926,0.0-23.0,,"<div style=""font-size:100px;"">+</div>",,delaylearn,learning,ITI,IJVbsvJBcHYUPSekod73AXY7tD42,IJVbsvJBcHYUPSekod73AXY7tD42,,,,,,,,,,,,,,,,,,,1836.0,,,63d193a08edec060ac4c8e2c,16:50:55,27/03/2024
html-keyboard-response,52,104184,0.0-24.0-0.0,2254.2999999523163,"<div style=""display: flex; flex-direction: column; align-items: center; margin-top: -40px;""><img src=""images/pattern_7.png"" style=""width: 234px; height: 230px; margin-top: -50px;""><div style=""display: flex; justify-content: space-between; margin-top: 33px;""><img src=""images/choice_trial_10.png"" style=""width: 408px; height: 417px; margin-right: 200px;""><img src=""images/choice_trial_8.png"" style=""width: 408px; height: 417px;""></div></div>",f,delaylearn,learning,trial,IJVbsvJBcHYUPSekod73AXY7tD42,IJVbsvJBcHYUPSekod73AXY7tD42,5.0,images/choice_trial_10.png,images/choice_trial_8.png,images/pattern_7.png,j,j,750.0,10.0,8.0,6.0,1.0,10.0,0.0,0.0,10.0,70.0,,,,,,63d193a08edec060ac4c8e2c,16:50:55,27/03/2024
html-keyboard-response,53,105188,0.0-24.0-1.0,,"<div style=""display: flex; flex-direction: column; align-items: center; margin-top: -40px;""><img src=""images/pattern_7.png"" style=""width: 234px; height: 230px; margin-top: -50px;""><div style=""display: flex; justify-content: space-between; margin-top: 33px;""><img src=""images/choice_trial_10.png"" style=""width: 408px; height: 417px; margin-right: 608px;""></div></div>",,delaylearn,learning,display_response,IJVbsvJBcHYUPSekod73AXY7tD42,IJVbsvJBcHYUPSekod73AXY7tD42,,,,,,,,,,,,,,,,,chosen stimuli: images/choice_trial_10.png,,,,,63d193a08edec060ac4c8e2c,16:50:55,27/03/2024
html-keyboard-response,54,105942,0.0-24.0-2.0,,,,delaylearn,learning,feedback_duration_window,IJVbsvJBcHYUPSekod73AXY7tD42,IJVbsvJBcHYUPSekod73AXY7tD42,,,,,,,,,,,,,,,,,,750.0,,,,63d193a08edec060ac4c8e2c,16:50:55,27/03/2024
html-keyboard-response,55,107446,0.0-24.0-3.0,,<div style='margin:auto;width: auto; font-size: 150%'><span style='font-weight: bold; font-size: 100px; color: red;'>0 points!</span><br><br></div>,,delaylearn,learning,feedback_image_window,IJVbsvJBcHYUPSekod73AXY7tD42,IJVbsvJBcHYUPSekod73AXY7tD42,,,,,,,,,,,,,,,,,,,,,,63d193a08edec060ac4c8e2c,16:50:55,27/03/2024
html-keyboard-response,56,109922,0.0-25.0,,"<div style=""font-size:100px;"">+</div>",,delaylearn,learning,ITI,IJVbsvJBcHYUPSekod73AXY7tD42,IJVbsvJBcHYUPSekod73AXY7tD42,,,,,,,,,,,,,,,,,,,2473.0,,,63d193a08edec060ac4c8e2c,16:50:55,27/03/2024
html-keyboard-response,57,111821,0.0-26.0-0.0,1895.0,"<div style=""display: flex; flex-direction: column; align-items: center; margin-top: -40px;""><img src=""images/pattern_4.png"" style=""width: 234px; height: 230px; margin-top: -50px;""><div style=""display: flex; justify-content: space-between; margin-top: 33px;""><img src=""images/choice_trial_11.png"" style=""width: 408px; height: 417px; margin-right: 200px;""><img src=""images/choice_trial_4.png"" style=""width: 408px; height: 417px;""></div></div>",f,delaylearn,learning,trial,IJVbsvJBcHYUPSekod73AXY7tD42,IJVbsvJBcHYUPSekod73AXY7tD42,5.0,images/choice_trial_11.png,images/choice_trial_4.png,images/pattern_4.png,f,f,7000.0,11.0,4.0,3.0,0.0,11.0,1.0,1.0,11.0,80.0,,,,,,63d193a08edec060ac4c8e2c,16:50:55,27/03/2024
html-keyboard-response,58,112826,0.0-26.0-1.0,,"<div style=""display: flex; flex-direction: column; align-items: center; margin-top: -40px;""><img src=""images/pattern_4.png"" style=""width: 234px; height: 230px; margin-top: -50px;""><div style=""display: flex; justify-content: space-between; margin-top: 33px;""><img src=""images/choice_trial_11.png"" style=""width: 408px; height: 417px; margin-right: 608px;""></div></div>",,delaylearn,learning,display_response,IJVbsvJBcHYUPSekod73AXY7tD42,IJVbsvJBcHYUPSekod73AXY7tD42,,,,,,,,,,,,,,,,,chosen stimuli: images/choice_trial_11.png,,,,,63d193a08edec060ac4c8e2c,16:50:55,27/03/2024
html-keyboard-response,59,119830,0.0-26.0-2.0,,,,delaylearn,learning,feedback_duration_window,IJVbsvJBcHYUPSekod73AXY7tD42,IJVbsvJBcHYUPSekod73AXY7tD42,,,,,,,,,,,,,,,,,,7000.0,,,,63d193a08edec060ac4c8e2c,16:50:55,27/03/2024
html-keyboard-response,60,121335,0.0-26.0-3.0,,<div style='margin:auto;width: auto; font-size: 150%'><span style='font-weight: bold; font-size: 100px; color: green;'>+10 points!</span><br><br></div>,,delaylearn,learning,feedback_image_window,IJVbsvJBcHYUPSekod73AXY7tD42,IJVbsvJBcHYUPSekod73AXY7tD42,,,,,,,,,,,,,,,,,,,,,,63d193a08edec060ac4c8e2c,16:50:55,27/03/2024
html-keyboard-response,61,123044,0.0-27.0,,"<div style=""font-size:100px;"">+</div>",,delaylearn,learning,ITI,IJVbsvJBcHYUPSekod73AXY7tD42,IJVbsvJBcHYUPSekod73AXY7tD42,,,,,,,,,,,,,,,,,,,1706.0,,,63d193a08edec060ac4c8e2c,16:50:55,27/03/2024
html-keyboard-response,62,125851,0.0-28.0-0.0,2803.2000000476837,"<div style=""display: flex; flex-direction: column; align-items: center; margin-top: -40px;""><img src=""images/pattern_5.png"" style=""width: 234px; height: 230px; margin-top: -50px;""><div style=""display: flex; justify-content: space-between; margin-top: 33px;""><img src=""images/choice_trial_13.png"" style=""width: 408px; height: 417px; margin-right: 200px;""><img src=""images/choice_trial_7.png"" style=""width: 408px; height: 417px;""></div></div>",j,delaylearn,learning,trial,IJVbsvJBcHYUPSekod73AXY7tD42,IJVbsvJBcHYUPSekod73AXY7tD42,5.0,images/choice_trial_13.png,images/choice_trial_7.png,images/pattern_5.png,j,j,750.0,13.0,7.0,4.0,1.0,12.0,1.0,1.0,7.0,90.0,,,,,,63d193a08edec060ac4c8e2c,16:50:55,27/03/2024
html-keyboard-response,63,126855,0.0-28.0-1.0,,"<div style=""display: flex; flex-direction: column; align-items: center; margin-top: -40px;""><img src=""images/pattern_5.png"" style=""width: 234px; height: 230px; margin-top: -50px;""><div style=""display: flex; justify-content: space-between; margin-top: 33px;""><img src=""images/choice_trial_7.png"" style=""width: 408px; height: 417px; margin-left:608px;""></div></div>",,delaylearn,learning,display_response,IJVbsvJBcHYUPSekod73AXY7tD42,IJVbsvJBcHYUPSekod73AXY7tD42,,,,,,,,,,,,,,,,,chosen stimuli: images/choice_trial_7.png,,,,,63d193a08edec060ac4c8e2c,16:50:55,27/03/2024
html-keyboard-response,64,127608,0.0-28.0-2.0,,,,delaylearn,learning,feedback_duration_window,IJVbsvJBcHYUPSekod73AXY7tD42,IJVbsvJBcHYUPSekod73AXY7tD42,,,,,,,,,,,,,,,,,,750.0,,,,63d193a08edec060ac4c8e2c,16:50:55,27/03/2024
html-keyboard-response,65,129112,0.0-28.0-3.0,,<div style='margin:auto;width: auto; font-size: 150%'><span style='font-weight: bold; font-size: 100px; color: green;'>+10 points!</span><br><br></div>,,delaylearn,learning,feedback_image_window,IJVbsvJBcHYUPSekod73AXY7tD42,IJVbsvJBcHYUPSekod73AXY7tD42,,,,,,,,,,,,,,,,,,,,,,63d193a08edec060ac4c8e2c,16:50:55,27/03/2024
html-keyboard-response,66,131539,0.0-29.0,,"<div style=""font-size:100px;"">+</div>",,delaylearn,learning,ITI,IJVbsvJBcHYUPSekod73AXY7tD42,IJVbsvJBcHYUPSekod73AXY7tD42,,,,,,,,,,,,,,,,,,,2424.0,,,63d193a08edec060ac4c8e2c,16:50:55,27/03/2024
html-keyboard-response,67,133665,0.0-30.0-0.0,2122.0999999046326,"<div style=""display: flex; flex-direction: column; align-items: center; margin-top: -40px;""><img src=""images/pattern_6.png"" style=""width: 234px; height: 230px; margin-top: -50px;""><div style=""display: flex; justify-content: space-between; margin-top: 33px;""><img src=""images/choice_trial_14.png"" style=""width: 408px; height: 417px; margin-right: 200px;""><img src=""images/choice_trial_9.png"" style=""width: 408px; height: 417px;""></div></div>",j,delaylearn,learning,trial,IJVbsvJBcHYUPSekod73AXY7tD42,IJVbsvJBcHYUPSekod73AXY7tD42,5.0,images/choice_trial_14.png,images/choice_trial_9.png,images/pattern_6.png,j,f,750.0,14.0,9.0,5.0,0.0,13.0,0.0,1.0,9.0,100.0,,,,,,63d193a08edec060ac4c8e2c,16:50:55,27/03/2024
html-keyboard-response,68,134670,0.0-30.0-1.0,,"<div style=""display: flex; flex-direction: column; align-items: center; margin-top: -40px;""><img src=""images/pattern_6.png"" style=""width: 234px; height: 230px; margin-top: -50px;""><div style=""display: flex; justify-content: space-between; margin-top: 33px;""><img src=""images/choice_trial_9.png"" style=""width: 408px; height: 417px; margin-left:608px;""></div></div>",,delaylearn,learning,display_response,IJVbsvJBcHYUPSekod73AXY7tD42,IJVbsvJBcHYUPSekod73AXY7tD42,,,,,,,,,,,,,,,,,chosen stimuli: images/choice_trial_9.png,,,,,63d193a08edec060ac4c8e2c,16:50:55,27/03/2024
html-keyboard-response,69,135424,0.0-30.0-2.0,,,,delaylearn,learning,feedback_duration_window,IJVbsvJBcHYUPSekod73AXY7tD42,IJVbsvJBcHYUPSekod73AXY7tD42,,,,,,,,,,,,,,,,,,750.0,,,,63d193a08edec060ac4c8e2c,16:50:55,27/03/2024
html-keyboard-response,70,136929,0.0-30.0-3.0,,<div style='margin:auto;width: auto; font-size: 150%'><span style='font-weight: bold; font-size: 100px; color: green;'>+10 points!</span><br><br></div>,,delaylearn,learning,feedback_image_window,IJVbsvJBcHYUPSekod73AXY7tD42,IJVbsvJBcHYUPSekod73AXY7tD42,,,,,,,,,,,,,,,,,,,,,,63d193a08edec060ac4c8e2c,16:50:55,27/03/2024
html-keyboard-response,71,137432,0.0-31.0-0.0,,,,,,mood_trial_fixation,IJVbsvJBcHYUPSekod73AXY7tD42,,,,,,,,,,,,,,,,,,,,,,,63d193a08edec060ac4c8e2c,16:50:55,27/03/2024
lmdlab-html-vas-response,72,142323,0.0-31.0-1.0,3885.0,How happy are you right now?,0.575925925925926,delaylearn,learning,mood_trial,IJVbsvJBcHYUPSekod73AXY7tD42,IJVbsvJBcHYUPSekod73AXY7tD42,,,,,,,,,,,,,,,,,,,,"['Very unhappy', 'Very happy']",,63d193a08edec060ac4c8e2c,16:50:55,27/03/2024
html-keyboard-response,73,144825,0.0-32.0,,"<div style=""font-size:100px;"">+</div>",,delaylearn,learning,ITI,IJVbsvJBcHYUPSekod73AXY7tD42,IJVbsvJBcHYUPSekod73AXY7tD42,,,,,,,,,,,,,,,,,,,2499.0,,,63d193a08edec060ac4c8e2c,16:50:55,27/03/2024
html-keyboard-response,74,147210,0.0-33.0-0.0,2381.0,"<div style=""display: flex; flex-direction: column; align-items: center; margin-top: -40px;""><img src=""images/pattern_1.png"" style=""width: 234px; height: 230px; margin-top: -50px;""><div style=""display: flex; justify-content: space-between; margin-top: 33px;""><img src=""images/choice_trial_15.png"" style=""width: 408px; height: 417px; margin-right: 200px;""><img src=""images/choice_trial_6.png"" style=""width: 408px; height: 417px;""></div></div>",f,delaylearn,learning,trial,IJVbsvJBcHYUPSekod73AXY7tD42,IJVbsvJBcHYUPSekod73AXY7tD42,5.0,images/choice_trial_15.png,images/choice_trial_6.png,images/pattern_1.png,j,j,7000.0,15.0,6.0,1.0,1.0,14.0,0.0,0.0,15.0,100.0,,,,,,63d193a08edec060ac4c8e2c,16:50:55,27/03/2024
html-keyboard-response,75,148216,0.0-33.0-1.0,,"<div style=""display: flex; flex-direction: column; align-items: center; margin-top: -40px;""><img src=""images/pattern_1.png"" style=""width: 234px; height: 230px; margin-top: -50px;""><div style=""display: flex; justify-content: space-between; margin-top: 33px;""><img src=""images/choice_trial_15.png"" style=""width: 408px; height: 417px; margin-right: 608px;""></div></div>",,delaylearn,learning,display_response,IJVbsvJBcHYUPSekod73AXY7tD42,IJVbsvJBcHYUPSekod73AXY7tD42,,,,,,,,,,,,,,,,,chosen stimuli: images/choice_trial_15.png,,,,,63d193a08edec060ac4c8e2c,16:50:55,27/03/2024
html-keyboard-response,76,155219,0.0-33.0-2.0,,,,delaylearn,learning,feedback_duration_window,IJVbsvJBcHYUPSekod73AXY7tD42,IJVbsvJBcHYUPSekod73AXY7tD42,,,,,,,,,,,,,,,,,,7000.0,,,,63d193a08edec060ac4c8e2c,16:50:55,27/03/2024
html-keyboard-response,77,156724,0.0-33.0-3.0,,<div style='margin:auto;width: auto; font-size: 150%'><span style='font-weight: bold; font-size: 100px; color: red;'>0 points!</span><br><br></div>,,delaylearn,learning,feedback_image_window,IJVbsvJBcHYUPSekod73AXY7tD42,IJVbsvJBcHYUPSekod73AXY7tD42,,,,,,,,,,,,,,,,,,,,,,63d193a08edec060ac4c8e2c,16:50:55,27/03/2024
html-keyboard-response,78,158458,0.0-34.0,,"<div style=""font-size:100px;"">+</div>",,delaylearn,learning,ITI,IJVbsvJBcHYUPSekod73AXY7tD42,IJVbsvJBcHYUPSekod73AXY7tD42,,,,,,,,,,,,,,,,,,,1730.0,,,63d193a08edec060ac4c8e2c,16:50:55,27/03/2024
html-keyboard-response,79,160049,0.0-35.0-0.0,1586.7000000476837,"<div style=""display: flex; flex-direction: column; align-items: center; margin-top: -40px;""><img src=""images/pattern_3.png"" style=""width: 234px; height: 230px; margin-top: -50px;""><div style=""display: flex; justify-content: space-between; margin-top: 33px;""><img src=""images/choice_trial_2.png"" style=""width: 408px; height: 417px; margin-right: 200px;""><img src=""images/choice_trial_16.png"" style=""width: 408px; height: 417px;""></div></div>",j,delaylearn,learning,trial,IJVbsvJBcHYUPSekod73AXY7tD42,IJVbsvJBcHYUPSekod73AXY7tD42,5.0,images/choice_trial_2.png,images/choice_trial_16.png,images/pattern_3.png,f,j,7000.0,2.0,16.0,2.0,1.0,15.0,1.0,0.0,16.0,100.0,,,,,,63d193a08edec060ac4c8e2c,16:50:55,27/03/2024
html-keyboard-response,80,161054,0.0-35.0-1.0,,"<div style=""display: flex; flex-direction: column; align-items: center; margin-top: -40px;""><img src=""images/pattern_3.png"" style=""width: 234px; height: 230px; margin-top: -50px;""><div style=""display: flex; justify-content: space-between; margin-top: 33px;""><img src=""images/choice_trial_16.png"" style=""width: 408px; height: 417px; margin-left:608px;""></div></div>",,delaylearn,learning,display_response,IJVbsvJBcHYUPSekod73AXY7tD42,IJVbsvJBcHYUPSekod73AXY7tD42,,,,,,,,,,,,,,,,,chosen stimuli: images/choice_trial_16.png,,,,,63d193a08edec060ac4c8e2c,16:50:55,27/03/2024
html-keyboard-response,81,168057,0.0-35.0-2.0,,,,delaylearn,learning,feedback_duration_window,IJVbsvJBcHYUPSekod73AXY7tD42,IJVbsvJBcHYUPSekod73AXY7tD42,,,,,,,,,,,,,,,,,,7000.0,,,,63d193a08edec060ac4c8e2c,16:50:55,27/03/2024
html-keyboard-response,82,169562,0.0-35.0-3.0,,<div style='margin:auto;width: auto; font-size: 150%'><span style='font-weight: bold; font-size: 100px; color: red;'>0 points!</span><br><br></div>,,delaylearn,learning,feedback_image_window,IJVbsvJBcHYUPSekod73AXY7tD42,IJVbsvJBcHYUPSekod73AXY7tD42,,,,,,,,,,,,,,,,,,,,,,63d193a08edec060ac4c8e2c,16:50:55,27/03/2024
html-keyboard-response,83,171442,0.0-36.0,,"<div style=""font-size:100px;"">+</div>",,delaylearn,learning,ITI,IJVbsvJBcHYUPSekod73AXY7tD42,IJVbsvJBcHYUPSekod73AXY7tD42,,,,,,,,,,,,,,,,,,,1877.0,,,63d193a08edec060ac4c8e2c,16:50:55,27/03/2024
html-keyboard-response,84,174448,0.0-37.0-0.0,,"<div style=""display: flex; flex-direction: column; align-items: center; margin-top: -40px;""><img src=""images/pattern_5.png"" style=""width: 234px; height: 230px; margin-top: -50px;""><div style=""display: flex; justify-content: space-between; margin-top: 33px;""><img src=""images/choice_trial_7.png"" style=""width: 408px; height: 417px; margin-right: 200px;""><img src=""images/choice_trial_13.png"" style=""width: 408px; height: 417px;""></div></div>",,delaylearn,learning,trial,IJVbsvJBcHYUPSekod73AXY7tD42,IJVbsvJBcHYUPSekod73AXY7tD42,5.0,images/choice_trial_7.png,images/choice_trial_13.png,images/pattern_5.png,f,f,750.0,7.0,13.0,4.0,0.0,16.0,0.0,0.0,0.0,100.0,,,,,,63d193a08edec060ac4c8e2c,16:50:55,27/03/2024
html-keyboard-response,85,175453,0.0-37.0-1.0,,<div style='font-weight: bold; font-size: 75px; color: red;'>Missed Trial <br><br><br><br> Please respond faster</div>,,delaylearn,learning,display_response,IJVbsvJBcHYUPSekod73AXY7tD42,IJVbsvJBcHYUPSekod73AXY7tD42,,,,,,,,,,,,,,,,,Missed trial,,,,,63d193a08edec060ac4c8e2c,16:50:55,27/03/2024
html-keyboard-response,86,175460,0.0-37.0-2.0,,,,delaylearn,learning,feedback_duration_window,IJVbsvJBcHYUPSekod73AXY7tD42,IJVbsvJBcHYUPSekod73AXY7tD42,,,,,,,,,,,,,,,,,,0.0,,,,63d193a08edec060ac4c8e2c,16:50:55,27/03/2024
html-keyboard-response,87,175466,0.0-37.0-3.0,,,,delaylearn,learning,feedback_image_window,IJVbsvJBcHYUPSekod73AXY7tD42,IJVbsvJBcHYUPSekod73AXY7tD42,,,,,,,,,,,,,,,,,,,,,,63d193a08edec060ac4c8e2c,16:50:55,27/03/2024
html-keyboard-response,88,175969,0.0-38.0-0.0,,,,,,mood_trial_fixation,IJVbsvJBcHYUPSekod73AXY7tD42,,,,,,,,,,,,,,,,,,,,,,,63d193a08edec060ac4c8e2c,16:50:55,27/03/2024
lmdlab-html-vas-response,89,180958,0.0-38.0-1.0,3982.0,How happy are you right now?,0.48333333333333334,delaylearn,learning,mood_trial,IJVbsvJBcHYUPSekod73AXY7tD42,IJVbsvJBcHYUPSekod73AXY7tD42,,,,,,,,,,,,,,,,,,,,"['Very unhappy', 'Very happy']",,63d193a08edec060ac4c8e2c,16:50:55,27/03/2024
html-keyboard-response,90,183145,0.0-39.0,,"<div style=""font-size:100px;"">+</div>",,delaylearn,learning,ITI,IJVbsvJBcHYUPSekod73AXY7tD42,IJVbsvJBcHYUPSekod73AXY7tD42,,,,,,,,,,,,,,,,,,,2184.0,,,63d193a08edec060ac4c8e2c,16:50:55,27/03/2024
html-keyboard-response,91,184149,0.0-40.0-0.0,1000.7999999523163,"<div style=""display: flex; flex-direction: column; align-items: center; margin-top: -40px;""><img src=""images/pattern_6.png"" style=""width: 234px; height: 230px; margin-top: -50px;""><div style=""display: flex; justify-content: space-between; margin-top: 33px;""><img src=""images/choice_trial_14.png"" style=""width: 408px; height: 417px; margin-right: 200px;""><img src=""images/choice_trial_9.png"" style=""width: 408px; height: 417px;""></div></div>",j,delaylearn,learning,trial,IJVbsvJBcHYUPSekod73AXY7tD42,IJVbsvJBcHYUPSekod73AXY7tD42,5.0,images/choice_trial_14.png,images/choice_trial_9.png,images/pattern_6.png,f,f,750.0,14.0,9.0,5.0,0.0,17.0,0.0,0.0,9.0,100.0,,,,,,63d193a08edec060ac4c8e2c,16:50:55,27/03/2024
html-keyboard-response,92,185153,0.0-40.0-1.0,,"<div style=""display: flex; flex-direction: column; align-items: center; margin-top: -40px;""><img src=""images/pattern_6.png"" style=""width: 234px; height: 230px; margin-top: -50px;""><div style=""display: flex; justify-content: space-between; margin-top: 33px;""><img src=""images/choice_trial_9.png"" style=""width: 408px; height: 417px; margin-left:608px;""></div></div>",,delaylearn,learning,display_response,IJVbsvJBcHYUPSekod73AXY7tD42,IJVbsvJBcHYUPSekod73AXY7tD42,,,,,,,,,,,,,,,,,chosen stimuli: images/choice_trial_9.png,,,,,63d193a08edec060ac4c8e2c,16:50:55,27/03/2024
html-keyboard-response,93,185907,0.0-40.0-2.0,,,,delaylearn,learning,feedback_duration_window,IJVbsvJBcHYUPSekod73AXY7tD42,IJVbsvJBcHYUPSekod73AXY7tD42,,,,,,,,,,,,,,,,,,750.0,,,,63d193a08edec060ac4c8e2c,16:50:55,27/03/2024
html-keyboard-response,94,187412,0.0-40.0-3.0,,<div style='margin:auto;width: auto; font-size: 150%'><span style='font-weight: bold; font-size: 100px; color: red;'>0 points!</span><br><br></div>,,delaylearn,learning,feedback_image_window,IJVbsvJBcHYUPSekod73AXY7tD42,IJVbsvJBcHYUPSekod73AXY7tD42,,,,,,,,,,,,,,,,,,,,,,63d193a08edec060ac4c8e2c,16:50:55,27/03/2024
html-keyboard-response,95,189712,0.0-41.0,,"<div style=""font-size:100px;"">+</div>",,delaylearn,learning,ITI,IJVbsvJBcHYUPSekod73AXY7tD42,IJVbsvJBcHYUPSekod73AXY7tD42,,,,,,,,,,,,,,,,,,,2297.0,,,63d193a08edec060ac4c8e2c,16:50:55,27/03/2024
html-keyboard-response,96,190965,0.0-42.0-0.0,1249.2999999523163,"<div style=""display: flex; flex-direction: column; align-items: center; margin-top: -40px;""><img src=""images/pattern_4.png"" style=""width: 234px; height: 230px; margin-top: -50px;""><div style=""display: flex; justify-content: space-between; margin-top: 33px;""><img src=""images/choice_trial_4.png"" style=""width: 408px; height: 417px; margin-right: 200px;""><img src=""images/choice_trial_11.png"" style=""width: 408px; height: 417px;""></div></div>",j,delaylearn,learning,trial,IJVbsvJBcHYUPSekod73AXY7tD42,IJVbsvJBcHYUPSekod73AXY7tD42,5.0,images/choice_trial_4.png,images/choice_trial_11.png,images/pattern_4.png,j,j,7000.0,4.0,11.0,3.0,1.0,18.0,1.0,1.0,11.0,110.0,,,,,,63d193a08edec060ac4c8e2c,16:50:55,27/03/2024
html-keyboard-response,97,191969,0.0-42.0-1.0,,"<div style=""display: flex; flex-direction: column; align-items: center; margin-top: -40px;""><img src=""images/pattern_4.png"" style=""width: 234px; height: 230px; margin-top: -50px;""><div style=""display: flex; justify-content: space-between; margin-top: 33px;""><img src=""images/choice_trial_11.png"" style=""width: 408px; height: 417px; margin-left:608px;""></div></div>",,delaylearn,learning,display_response,IJVbsvJBcHYUPSekod73AXY7tD42,IJVbsvJBcHYUPSekod73AXY7tD42,,,,,,,,,,,,,,,,,chosen stimuli: images/choice_trial_11.png,,,,,63d193a08edec060ac4c8e2c,16:50:55,27/03/2024
html-keyboard-response,98,198973,0.0-42.0-2.0,,,,delaylearn,learning,feedback_duration_window,IJVbsvJBcHYUPSekod73AXY7tD42,IJVbsvJBcHYUPSekod73AXY7tD42,,,,,,,,,,,,,,,,,,7000.0,,,,63d193a08edec060ac4c8e2c,16:50:55,27/03/2024
html-keyboard-response,99,200476,0.0-42.0-3.0,,<div style='margin:auto;width: auto; font-size: 150%'><span style='font-weight: bold; font-size: 100px; color: green;'>+10 points!</span><br><br></div>,,delaylearn,learning,feedback_image_window,IJVbsvJBcHYUPSekod73AXY7tD42,IJVbsvJBcHYUPSekod73AXY7tD42,,,,,,,,,,,,,,,,,,,,,,63d193a08edec060ac4c8e2c,16:50:55,27/03/2024
html-keyboard-response,100,202487,0.0-43.0,,"<div style=""font-size:100px;"">+</div>",,delaylearn,learning,ITI,IJVbsvJBcHYUPSekod73AXY7tD42,IJVbsvJBcHYUPSekod73AXY7tD42,,,,,,,,,,,,,,,,,,,2008.0,,,63d193a08edec060ac4c8e2c,16:50:55,27/03/2024
html-keyboard-response,101,203716,0.0-44.0-0.0,1224.5,"<div style=""display: flex; flex-direction: column; align-items: center; margin-top: -40px;""><img src=""images/pattern_7.png"" style=""width: 234px; height: 230px; margin-top: -50px;""><div style=""display: flex; justify-content: space-between; margin-top: 33px;""><img src=""images/choice_trial_8.png"" style=""width: 408px; height: 417px; margin-right: 200px;""><img src=""images/choice_trial_10.png"" style=""width: 408px; height: 417px;""></div></div>",f,delaylearn,learning,trial,IJVbsvJBcHYUPSekod73AXY7tD42,IJVbsvJBcHYUPSekod73AXY7tD42,5.0,images/choice_trial_8.png,images/choice_trial_10.png,images/pattern_7.png,j,f,750.0,8.0,10.0,6.0,0.0,19.0,1.0,0.0,8.0,110.0,,,,,,63d193a08edec060ac4c8e2c,16:50:55,27/03/2024
html-keyboard-response,102,204721,0.0-44.0-1.0,,"<div style=""display: flex; flex-direction: column; align-items: center; margin-top: -40px;""><img src=""images/pattern_7.png"" style=""width: 234px; height: 230px; margin-top: -50px;""><div style=""display: flex; justify-content: space-between; margin-top: 33px;""><img src=""images/choice_trial_8.png"" style=""width: 408px; height: 417px; margin-right: 608px;""></div></div>",,delaylearn,learning,display_response,IJVbsvJBcHYUPSekod73AXY7tD42,IJVbsvJBcHYUPSekod73AXY7tD42,,,,,,,,,,,,,,,,,chosen stimuli: images/choice_trial_8.png,,,,,63d193a08edec060ac4c8e2c,16:50:55,27/03/2024
html-keyboard-response,103,205474,0.0-44.0-2.0,,,,delaylearn,learning,feedback_duration_window,IJVbsvJBcHYUPSekod73AXY7tD42,IJVbsvJBcHYUPSekod73AXY7tD42,,,,,,,,,,,,,,,,,,750.0,,,,63d193a08edec060ac4c8e2c,16:50:55,27/03/2024
html-keyboard-response,104,206979,0.0-44.0-3.0,,<div style='margin:auto;width: auto; font-size: 150%'><span style='font-weight: bold; font-size: 100px; color: red;'>0 points!</span><br><br></div>,,delaylearn,learning,feedback_image_window,IJVbsvJBcHYUPSekod73AXY7tD42,IJVbsvJBcHYUPSekod73AXY7tD42,,,,,,,,,,,,,,,,,,,,,,63d193a08edec060ac4c8e2c,16:50:55,27/03/2024
html-keyboard-response,105,208521,0.0-45.0,,"<div style=""font-size:100px;"">+</div>",,delaylearn,learning,ITI,IJVbsvJBcHYUPSekod73AXY7tD42,IJVbsvJBcHYUPSekod73AXY7tD42,,,,,,,,,,,,,,,,,,,1539.0,,,63d193a08edec060ac4c8e2c,16:50:55,27/03/2024
html-keyboard-response,106,209906,0.0-46.0-0.0,1380.5,"<div style=""display: flex; flex-direction: column; align-items: center; margin-top: -40px;""><img src=""images/pattern_1.png"" style=""width: 234px; height: 230px; margin-top: -50px;""><div style=""display: flex; justify-content: space-between; margin-top: 33px;""><img src=""images/choice_trial_6.png"" style=""width: 408px; height: 417px; margin-right: 200px;""><img src=""images/choice_trial_15.png"" style=""width: 408px; height: 417px;""></div></div>",j,delaylearn,learning,trial,IJVbsvJBcHYUPSekod73AXY7tD42,IJVbsvJBcHYUPSekod73AXY7tD42,5.0,images/choice_trial_6.png,images/choice_trial_15.png,images/pattern_1.png,f,f,7000.0,6.0,15.0,1.0,0.0,20.0,0.0,0.0,15.0,110.0,,,,,,63d193a08edec060ac4c8e2c,16:50:55,27/03/2024
html-keyboard-response,107,210910,0.0-46.0-1.0,,"<div style=""display: flex; flex-direction: column; align-items: center; margin-top: -40px;""><img src=""images/pattern_1.png"" style=""width: 234px; height: 230px; margin-top: -50px;""><div style=""display: flex; justify-content: space-between; margin-top: 33px;""><img src=""images/choice_trial_15.png"" style=""width: 408px; height: 417px; margin-left:608px;""></div></div>",,delaylearn,learning,display_response,IJVbsvJBcHYUPSekod73AXY7tD42,IJVbsvJBcHYUPSekod73AXY7tD42,,,,,,,,,,,,,,,,,chosen stimuli: images/choice_trial_15.png,,,,,63d193a08edec060ac4c8e2c,16:50:55,27/03/2024
html-keyboard-response,108,217913,0.0-46.0-2.0,,,,delaylearn,learning,feedback_duration_window,IJVbsvJBcHYUPSekod73AXY7tD42,IJVbsvJBcHYUPSekod73AXY7tD42,,,,,,,,,,,,,,,,,,7000.0,,,,63d193a08edec060ac4c8e2c,16:50:55,27/03/2024
html-keyboard-response,109,219418,0.0-46.0-3.0,,<div style='margin:auto;width: auto; font-size: 150%'><span style='font-weight: bold; font-size: 100px; color: red;'>0 points!</span><br><br></div>,,delaylearn,learning,feedback_image_window,IJVbsvJBcHYUPSekod73AXY7tD42,IJVbsvJBcHYUPSekod73AXY7tD42,,,,,,,,,,,,,,,,,,,,,,63d193a08edec060ac4c8e2c,16:50:55,27/03/2024
html-keyboard-response,110,221451,0.0-47.0,,"<div style=""font-size:100px;"">+</div>",,delaylearn,learning,ITI,IJVbsvJBcHYUPSekod73AXY7tD42,IJVbsvJBcHYUPSekod73AXY7tD42,,,,,,,,,,,,,,,,,,,2030.0,,,63d193a08edec060ac4c8e2c,16:50:55,27/03/2024
html-keyboard-response,111,222773,0.0-48.0-0.0,1317.2000000476837,"<div style=""display: flex; flex-direction: column; align-items: center; margin-top: -40px;""><img src=""images/pattern_6.png"" style=""width: 234px; height: 230px; margin-top: -50px;""><div style=""display: flex; justify-content: space-between; margin-top: 33px;""><img src=""images/choice_trial_9.png"" style=""width: 408px; height: 417px; margin-right: 200px;""><img src=""images/choice_trial_14.png"" style=""width: 408px; height: 417px;""></div></div>",f,delaylearn,learning,trial,IJVbsvJBcHYUPSekod73AXY7tD42,IJVbsvJBcHYUPSekod73AXY7tD42,5.0,images/choice_trial_9.png,images/choice_trial_14.png,images/pattern_6.png,j,j,750.0,9.0,14.0,5.0,1.0,21.0,0.0,0.0,9.0,110.0,,,,,,63d193a08edec060ac4c8e2c,16:50:55,27/03/2024
html-keyboard-response,112,223778,0.0-48.0-1.0,,"<div style=""display: flex; flex-direction: column; align-items: center; margin-top: -40px;""><img src=""images/pattern_6.png"" style=""width: 234px; height: 230px; margin-top: -50px;""><div style=""display: flex; justify-content: space-between; margin-top: 33px;""><img src=""images/choice_trial_9.png"" style=""width: 408px; height: 417px; margin-right: 608px;""></div></div>",,delaylearn,learning,display_response,IJVbsvJBcHYUPSekod73AXY7tD42,IJVbsvJBcHYUPSekod73AXY7tD42,,,,,,,,,,,,,,,,,chosen stimuli: images/choice_trial_9.png,,,,,63d193a08edec060ac4c8e2c,16:50:55,27/03/2024
html-keyboard-response,113,224531,0.0-48.0-2.0,,,,delaylearn,learning,feedback_duration_window,IJVbsvJBcHYUPSekod73AXY7tD42,IJVbsvJBcHYUPSekod73AXY7tD42,,,,,,,,,,,,,,,,,,750.0,,,,63d193a08edec060ac4c8e2c,16:50:55,27/03/2024
html-keyboard-response,114,226036,0.0-48.0-3.0,,<div style='margin:auto;width: auto; font-size: 150%'><span style='font-weight: bold; font-size: 100px; color: red;'>0 points!</span><br><br></div>,,delaylearn,learning,feedback_image_window,IJVbsvJBcHYUPSekod73AXY7tD42,IJVbsvJBcHYUPSekod73AXY7tD42,,,,,,,,,,,,,,,,,,,,,,63d193a08edec060ac4c8e2c,16:50:55,27/03/2024
html-keyboard-response,115,227629,0.0-49.0,,"<div style=""font-size:100px;"">+</div>",,delaylearn,learning,ITI,IJVbsvJBcHYUPSekod73AXY7tD42,IJVbsvJBcHYUPSekod73AXY7tD42,,,,,,,,,,,,,,,,,,,1590.0,,,63d193a08edec060ac4c8e2c,16:50:55,27/03/2024
html-keyboard-response,116,229478,0.0-50.0-0.0,1844.8000000715256,"<div style=""display: flex; flex-direction: column; align-items: center; margin-top: -40px;""><img src=""images/pattern_4.png"" style=""width: 234px; height: 230px; margin-top: -50px;""><div style=""display: flex; justify-content: space-between; margin-top: 33px;""><img src=""images/choice_trial_11.png"" style=""width: 408px; height: 417px; margin-right: 200px;""><img src=""images/choice_trial_4.png"" style=""width: 408px; height: 417px;""></div></div>",f,delaylearn,learning,trial,IJVbsvJBcHYUPSekod73AXY7tD42,IJVbsvJBcHYUPSekod73AXY7tD42,5.0,images/choice_trial_11.png,images/choice_trial_4.png,images/pattern_4.png,f,f,7000.0,11.0,4.0,3.0,0.0,22.0,1.0,1.0,11.0,120.0,,,,,,63d193a08edec060ac4c8e2c,16:50:55,27/03/2024
html-keyboard-response,117,230482,0.0-50.0-1.0,,"<div style=""display: flex; flex-direction: column; align-items: center; margin-top: -40px;""><img src=""images/pattern_4.png"" style=""width: 234px; height: 230px; margin-top: -50px;""><div style=""display: flex; justify-content: space-between; margin-top: 33px;""><img src=""images/choice_trial_11.png"" style=""width: 408px; height: 417px; margin-right: 608px;""></div></div>",,delaylearn,learning,display_response,IJVbsvJBcHYUPSekod73AXY7tD42,IJVbsvJBcHYUPSekod73AXY7tD42,,,,,,,,,,,,,,,,,chosen stimuli: images/choice_trial_11.png,,,,,63d193a08edec060ac4c8e2c,16:50:55,27/03/2024
html-keyboard-response,118,237486,0.0-50.0-2.0,,,,delaylearn,learning,feedback_duration_window,IJVbsvJBcHYUPSekod73AXY7tD42,IJVbsvJBcHYUPSekod73AXY7tD42,,,,,,,,,,,,,,,,,,7000.0,,,,63d193a08edec060ac4c8e2c,16:50:55,27/03/2024
html-keyboard-response,119,238990,0.0-50.0-3.0,,<div style='margin:auto;width: auto; font-size: 150%'><span style='font-weight: bold; font-size: 100px; color: green;'>+10 points!</span><br><br></div>,,delaylearn,learning,feedback_image_window,IJVbsvJBcHYUPSekod73AXY7tD42,IJVbsvJBcHYUPSekod73AXY7tD42,,,,,,,,,,,,,,,,,,,,,,63d193a08edec060ac4c8e2c,16:50:55,27/03/2024
html-keyboard-response,120,239493,0.0-51.0-0.0,,,,,,mood_trial_fixation,IJVbsvJBcHYUPSekod73AXY7tD42,,,,,,,,,,,,,,,,,,,,,,,63d193a08edec060ac4c8e2c,16:50:55,27/03/2024
lmdlab-html-vas-response,121,243192,0.0-51.0-1.0,2693.0,How happy are you right now?,0.6259259259259259,delaylearn,learning,mood_trial,IJVbsvJBcHYUPSekod73AXY7tD42,IJVbsvJBcHYUPSekod73AXY7tD42,,,,,,,,,,,,,,,,,,,,"['Very unhappy', 'Very happy']",,63d193a08edec060ac4c8e2c,16:50:55,27/03/2024
html-keyboard-response,122,244819,0.0-52.0,,"<div style=""font-size:100px;"">+</div>",,delaylearn,learning,ITI,IJVbsvJBcHYUPSekod73AXY7tD42,IJVbsvJBcHYUPSekod73AXY7tD42,,,,,,,,,,,,,,,,,,,1625.0,,,63d193a08edec060ac4c8e2c,16:50:55,27/03/2024
html-keyboard-response,123,246200,0.0-53.0-0.0,1376.5,"<div style=""display: flex; flex-direction: column; align-items: center; margin-top: -40px;""><img src=""images/pattern_7.png"" style=""width: 234px; height: 230px; margin-top: -50px;""><div style=""display: flex; justify-content: space-between; margin-top: 33px;""><img src=""images/choice_trial_10.png"" style=""width: 408px; height: 417px; margin-right: 200px;""><img src=""images/choice_trial_8.png"" style=""width: 408px; height: 417px;""></div></div>",j,delaylearn,learning,trial,IJVbsvJBcHYUPSekod73AXY7tD42,IJVbsvJBcHYUPSekod73AXY7tD42,5.0,images/choice_trial_10.png,images/choice_trial_8.png,images/pattern_7.png,j,j,750.0,10.0,8.0,6.0,1.0,23.0,1.0,1.0,8.0,130.0,,,,,,63d193a08edec060ac4c8e2c,16:50:55,27/03/2024
html-keyboard-response,124,247204,0.0-53.0-1.0,,"<div style=""display: flex; flex-direction: column; align-items: center; margin-top: -40px;""><img src=""images/pattern_7.png"" style=""width: 234px; height: 230px; margin-top: -50px;""><div style=""display: flex; justify-content: space-between; margin-top: 33px;""><img src=""images/choice_trial_8.png"" style=""width: 408px; height: 417px; margin-left:608px;""></div></div>",,delaylearn,learning,display_response,IJVbsvJBcHYUPSekod73AXY7tD42,IJVbsvJBcHYUPSekod73AXY7tD42,,,,,,,,,,,,,,,,,chosen stimuli: images/choice_trial_8.png,,,,,63d193a08edec060ac4c8e2c,16:50:55,27/03/2024
html-keyboard-response,125,247958,0.0-53.0-2.0,,,,delaylearn,learning,feedback_duration_window,IJVbsvJBcHYUPSekod73AXY7tD42,IJVbsvJBcHYUPSekod73AXY7tD42,,,,,,,,,,,,,,,,,,750.0,,,,63d193a08edec060ac4c8e2c,16:50:55,27/03/2024
html-keyboard-response,126,249462,0.0-53.0-3.0,,<div style='margin:auto;width: auto; font-size: 150%'><span style='font-weight: bold; font-size: 100px; color: green;'>+10 points!</span><br><br></div>,,delaylearn,learning,feedback_image_window,IJVbsvJBcHYUPSekod73AXY7tD42,IJVbsvJBcHYUPSekod73AXY7tD42,,,,,,,,,,,,,,,,,,,,,,63d193a08edec060ac4c8e2c,16:50:55,27/03/2024
html-keyboard-response,127,251013,0.0-54.0,,"<div style=""font-size:100px;"">+</div>",,delaylearn,learning,ITI,IJVbsvJBcHYUPSekod73AXY7tD42,IJVbsvJBcHYUPSekod73AXY7tD42,,,,,,,,,,,,,,,,,,,1548.0,,,63d193a08edec060ac4c8e2c,16:50:55,27/03/2024
html-keyboard-response,128,252844,0.0-55.0-0.0,1827.3999999761581,"<div style=""display: flex; flex-direction: column; align-items: center; margin-top: -40px;""><img src=""images/pattern_1.png"" style=""width: 234px; height: 230px; margin-top: -50px;""><div style=""display: flex; justify-content: space-between; margin-top: 33px;""><img src=""images/choice_trial_15.png"" style=""width: 408px; height: 417px; margin-right: 200px;""><img src=""images/choice_trial_6.png"" style=""width: 408px; height: 417px;""></div></div>",f,delaylearn,learning,trial,IJVbsvJBcHYUPSekod73AXY7tD42,IJVbsvJBcHYUPSekod73AXY7tD42,5.0,images/choice_trial_15.png,images/choice_trial_6.png,images/pattern_1.png,f,j,7000.0,15.0,6.0,1.0,1.0,24.0,0.0,1.0,15.0,140.0,,,,,,63d193a08edec060ac4c8e2c,16:50:55,27/03/2024
html-keyboard-response,129,253849,0.0-55.0-1.0,,"<div style=""display: flex; flex-direction: column; align-items: center; margin-top: -40px;""><img src=""images/pattern_1.png"" style=""width: 234px; height: 230px; margin-top: -50px;""><div style=""display: flex; justify-content: space-between; margin-top: 33px;""><img src=""images/choice_trial_15.png"" style=""width: 408px; height: 417px; margin-right: 608px;""></div></div>",,delaylearn,learning,display_response,IJVbsvJBcHYUPSekod73AXY7tD42,IJVbsvJBcHYUPSekod73AXY7tD42,,,,,,,,,,,,,,,,,chosen stimuli: images/choice_trial_15.png,,,,,63d193a08edec060ac4c8e2c,16:50:55,27/03/2024
html-keyboard-response,130,260853,0.0-55.0-2.0,,,,delaylearn,learning,feedback_duration_window,IJVbsvJBcHYUPSekod73AXY7tD42,IJVbsvJBcHYUPSekod73AXY7tD42,,,,,,,,,,,,,,,,,,7000.0,,,,63d193a08edec060ac4c8e2c,16:50:55,27/03/2024
html-keyboard-response,131,262358,0.0-55.0-3.0,,<div style='margin:auto;width: auto; font-size: 150%'><span style='font-weight: bold; font-size: 100px; color: green;'>+10 points!</span><br><br></div>,,delaylearn,learning,feedback_image_window,IJVbsvJBcHYUPSekod73AXY7tD42,IJVbsvJBcHYUPSekod73AXY7tD42,,,,,,,,,,,,,,,,,,,,,,63d193a08edec060ac4c8e2c,16:50:55,27/03/2024
html-keyboard-response,132,264043,0.0-56.0,,"<div style=""font-size:100px;"">+</div>",,delaylearn,learning,ITI,IJVbsvJBcHYUPSekod73AXY7tD42,IJVbsvJBcHYUPSekod73AXY7tD42,,,,,,,,,,,,,,,,,,,1682.0,,,63d193a08edec060ac4c8e2c,16:50:55,27/03/2024
html-keyboard-response,133,265581,0.0-57.0-0.0,1534.0999999046326,"<div style=""display: flex; flex-direction: column; align-items: center; margin-top: -40px;""><img src=""images/pattern_5.png"" style=""width: 234px; height: 230px; margin-top: -50px;""><div style=""display: flex; justify-content: space-between; margin-top: 33px;""><img src=""images/choice_trial_13.png"" style=""width: 408px; height: 417px; margin-right: 200px;""><img src=""images/choice_trial_7.png"" style=""width: 408px; height: 417px;""></div></div>",j,delaylearn,learning,trial,IJVbsvJBcHYUPSekod73AXY7tD42,IJVbsvJBcHYUPSekod73AXY7tD42,5.0,images/choice_trial_13.png,images/choice_trial_7.png,images/pattern_5.png,j,j,750.0,13.0,7.0,4.0,1.0,25.0,1.0,1.0,7.0,150.0,,,,,,63d193a08edec060ac4c8e2c,16:50:55,27/03/2024
html-keyboard-response,134,266586,0.0-57.0-1.0,,"<div style=""display: flex; flex-direction: column; align-items: center; margin-top: -40px;""><img src=""images/pattern_5.png"" style=""width: 234px; height: 230px; margin-top: -50px;""><div style=""display: flex; justify-content: space-between; margin-top: 33px;""><img src=""images/choice_trial_7.png"" style=""width: 408px; height: 417px; margin-left:608px;""></div></div>",,delaylearn,learning,display_response,IJVbsvJBcHYUPSekod73AXY7tD42,IJVbsvJBcHYUPSekod73AXY7tD42,,,,,,,,,,,,,,,,,chosen stimuli: images/choice_trial_7.png,,,,,63d193a08edec060ac4c8e2c,16:50:55,27/03/2024
html-keyboard-response,135,267339,0.0-57.0-2.0,,,,delaylearn,learning,feedback_duration_window,IJVbsvJBcHYUPSekod73AXY7tD42,IJVbsvJBcHYUPSekod73AXY7tD42,,,,,,,,,,,,,,,,,,750.0,,,,63d193a08edec060ac4c8e2c,16:50:55,27/03/2024
html-keyboard-response,136,268844,0.0-57.0-3.0,,<div style='margin:auto;width: auto; font-size: 150%'><span style='font-weight: bold; font-size: 100px; color: green;'>+10 points!</span><br><br></div>,,delaylearn,learning,feedback_image_window,IJVbsvJBcHYUPSekod73AXY7tD42,IJVbsvJBcHYUPSekod73AXY7tD42,,,,,,,,,,,,,,,,,,,,,,63d193a08edec060ac4c8e2c,16:50:55,27/03/2024
html-keyboard-response,137,270752,0.0-58.0,,"<div style=""font-size:100px;"">+</div>",,delaylearn,learning,ITI,IJVbsvJBcHYUPSekod73AXY7tD42,IJVbsvJBcHYUPSekod73AXY7tD42,,,,,,,,,,,,,,,,,,,1906.0,,,63d193a08edec060ac4c8e2c,16:50:55,27/03/2024
html-keyboard-response,138,272396,0.0-59.0-0.0,1638.6999999284744,"<div style=""display: flex; flex-direction: column; align-items: center; margin-top: -40px;""><img src=""images/pattern_3.png"" style=""width: 234px; height: 230px; margin-top: -50px;""><div style=""display: flex; justify-content: space-between; margin-top: 33px;""><img src=""images/choice_trial_2.png"" style=""width: 408px; height: 417px; margin-right: 200px;""><img src=""images/choice_trial_16.png"" style=""width: 408px; height: 417px;""></div></div>",f,delaylearn,learning,trial,IJVbsvJBcHYUPSekod73AXY7tD42,IJVbsvJBcHYUPSekod73AXY7tD42,5.0,images/choice_trial_2.png,images/choice_trial_16.png,images/pattern_3.png,j,j,7000.0,2.0,16.0,2.0,1.0,26.0,0.0,0.0,2.0,150.0,,,,,,63d193a08edec060ac4c8e2c,16:50:55,27/03/2024
html-keyboard-response,139,273401,0.0-59.0-1.0,,"<div style=""display: flex; flex-direction: column; align-items: center; margin-top: -40px;""><img src=""images/pattern_3.png"" style=""width: 234px; height: 230px; margin-top: -50px;""><div style=""display: flex; justify-content: space-between; margin-top: 33px;""><img src=""images/choice_trial_2.png"" style=""width: 408px; height: 417px; margin-right: 608px;""></div></div>",,delaylearn,learning,display_response,IJVbsvJBcHYUPSekod73AXY7tD42,IJVbsvJBcHYUPSekod73AXY7tD42,,,,,,,,,,,,,,,,,chosen stimuli: images/choice_trial_2.png,,,,,63d193a08edec060ac4c8e2c,16:50:55,27/03/2024
html-keyboard-response,140,280405,0.0-59.0-2.0,,,,delaylearn,learning,feedback_duration_window,IJVbsvJBcHYUPSekod73AXY7tD42,IJVbsvJBcHYUPSekod73AXY7tD42,,,,,,,,,,,,,,,,,,7000.0,,,,63d193a08edec060ac4c8e2c,16:50:55,27/03/2024
html-keyboard-response,141,281910,0.0-59.0-3.0,,<div style='margin:auto;width: auto; font-size: 150%'><span style='font-weight: bold; font-size: 100px; color: red;'>0 points!</span><br><br></div>,,delaylearn,learning,feedback_image_window,IJVbsvJBcHYUPSekod73AXY7tD42,IJVbsvJBcHYUPSekod73AXY7tD42,,,,,,,,,,,,,,,,,,,,,,63d193a08edec060ac4c8e2c,16:50:55,27/03/2024
lmdlab-html-vas-response,142,290011,0.0-60.0-0.0,6588.0,*How <b><u>confident</u></b> are you feeling about your answers at this moment?*,0.32592592592592595,rewlearn,rate_confidence,,IJVbsvJBcHYUPSekod73AXY7tD42,IJVbsvJBcHYUPSekod73AXY7tD42,,,,,,,,,,,,,,,,,,,,"['No confidence', 'Complete confidence']",,63d193a08edec060ac4c8e2c,16:50:55,27/03/2024
lmdlab-rest-trial-limit,143,338395,0.0-60.0-1.0,46881.0,"<div style=""font-size:40px;""><b>Please take a break!</b><br><br><br><br><p>Great work: you earned 150 points.<br><br><br><p>You have completed part(s) 1 of 5.<br><br><br><br>When you are ready to continue<br><br><br>please click the button.</p><br><br>",0,delaylearn,learning,break,IJVbsvJBcHYUPSekod73AXY7tD42,IJVbsvJBcHYUPSekod73AXY7tD42,,,,,,,,,,,,,,,,,,,,,0.0,63d193a08edec060ac4c8e2c,16:50:55,27/03/2024
html-keyboard-response,144,341399,0.0-60.0-2.0,,"<div style=""font-size:100px;"">+</div>",,delaylearn,learning,pre_fixation,IJVbsvJBcHYUPSekod73AXY7tD42,,,,,,,,,,,,,,,,,,,,,,,63d193a08edec060ac4c8e2c,16:50:55,27/03/2024
lmdlab-html-vas-response,145,347211,0.0-60.0-3.0-0.0,4806.0,How happy are you right now?,0.725925925925926,delaylearn,learning,mood_baseline,IJVbsvJBcHYUPSekod73AXY7tD42,IJVbsvJBcHYUPSekod73AXY7tD42,,,,,,,,,,,,,,,,,,,,"['Very unhappy', 'Very happy']",,63d193a08edec060ac4c8e2c,16:50:55,27/03/2024
html-keyboard-response,146,348714,0.0-60.0-3.0-1.0,,,,,,mood_baseline_fixation,IJVbsvJBcHYUPSekod73AXY7tD42,,,,,,,,,,,,,,,,,,,,,,,63d193a08edec060ac4c8e2c,16:50:55,27/03/2024
html-keyboard-response,147,350653,0.0-61.0,,"<div style=""font-size:100px;"">+</div>",,delaylearn,learning,ITI,IJVbsvJBcHYUPSekod73AXY7tD42,IJVbsvJBcHYUPSekod73AXY7tD42,,,,,,,,,,,,,,,,,,,1936.0,,,63d193a08edec060ac4c8e2c,16:50:55,27/03/2024
html-keyboard-response,148,352032,0.0-62.0-0.0,1374.6000000238419,"<div style=""display: flex; flex-direction: column; align-items: center; margin-top: -40px;""><img src=""images/pattern_7.png"" style=""width: 234px; height: 230px; margin-top: -50px;""><div style=""display: flex; justify-content: space-between; margin-top: 33px;""><img src=""images/choice_trial_10.png"" style=""width: 408px; height: 417px; margin-right: 200px;""><img src=""images/choice_trial_8.png"" style=""width: 408px; height: 417px;""></div></div>",j,delaylearn,learning,trial,IJVbsvJBcHYUPSekod73AXY7tD42,IJVbsvJBcHYUPSekod73AXY7tD42,5.0,images/choice_trial_10.png,images/choice_trial_8.png,images/pattern_7.png,j,j,750.0,10.0,8.0,6.0,1.0,27.0,1.0,1.0,8.0,160.0,,,,,,63d193a08edec060ac4c8e2c,16:50:55,27/03/2024
html-keyboard-response,149,353037,0.0-62.0-1.0,,"<div style=""display: flex; flex-direction: column; align-items: center; margin-top: -40px;""><img src=""images/pattern_7.png"" style=""width: 234px; height: 230px; margin-top: -50px;""><div style=""display: flex; justify-content: space-between; margin-top: 33px;""><img src=""images/choice_trial_8.png"" style=""width: 408px; height: 417px; margin-left:608px;""></div></div>",,delaylearn,learning,display_response,IJVbsvJBcHYUPSekod73AXY7tD42,IJVbsvJBcHYUPSekod73AXY7tD42,,,,,,,,,,,,,,,,,chosen stimuli: images/choice_trial_8.png,,,,,63d193a08edec060ac4c8e2c,16:50:55,27/03/2024
html-keyboard-response,150,353791,0.0-62.0-2.0,,,,delaylearn,learning,feedback_duration_window,IJVbsvJBcHYUPSekod73AXY7tD42,IJVbsvJBcHYUPSekod73AXY7tD42,,,,,,,,,,,,,,,,,,750.0,,,,63d193a08edec060ac4c8e2c,16:50:55,27/03/2024
html-keyboard-response,151,355295,0.0-62.0-3.0,,<div style='margin:auto;width: auto; font-size: 150%'><span style='font-weight: bold; font-size: 100px; color: green;'>+10 points!</span><br><br></div>,,delaylearn,learning,feedback_image_window,IJVbsvJBcHYUPSekod73AXY7tD42,IJVbsvJBcHYUPSekod73AXY7tD42,,,,,,,,,,,,,,,,,,,,,,63d193a08edec060ac4c8e2c,16:50:55,27/03/2024
html-keyboard-response,152,355799,0.0-63.0-0.0,,,,,,mood_trial_fixation,IJVbsvJBcHYUPSekod73AXY7tD42,,,,,,,,,,,,,,,,,,,,,,,63d193a08edec060ac4c8e2c,16:50:55,27/03/2024
lmdlab-html-vas-response,153,359762,0.0-63.0-1.0,2958.0,How happy are you right now?,0.7537037037037037,delaylearn,learning,mood_trial,IJVbsvJBcHYUPSekod73AXY7tD42,IJVbsvJBcHYUPSekod73AXY7tD42,,,,,,,,,,,,,,,,,,,,"['Very unhappy', 'Very happy']",,63d193a08edec060ac4c8e2c,16:50:55,27/03/2024
html-keyboard-response,154,362035,0.0-64.0,,"<div style=""font-size:100px;"">+</div>",,delaylearn,learning,ITI,IJVbsvJBcHYUPSekod73AXY7tD42,IJVbsvJBcHYUPSekod73AXY7tD42,,,,,,,,,,,,,,,,,,,2270.0,,,63d193a08edec060ac4c8e2c,16:50:55,27/03/2024
html-keyboard-response,155,363286,0.0-65.0-0.0,1247.9000000953674,"<div style=""display: flex; flex-direction: column; align-items: center; margin-top: -40px;""><img src=""images/pattern_1.png"" style=""width: 234px; height: 230px; margin-top: -50px;""><div style=""display: flex; justify-content: space-between; margin-top: 33px;""><img src=""images/choice_trial_6.png"" style=""width: 408px; height: 417px; margin-right: 200px;""><img src=""images/choice_trial_15.png"" style=""width: 408px; height: 417px;""></div></div>",j,delaylearn,learning,trial,IJVbsvJBcHYUPSekod73AXY7tD42,IJVbsvJBcHYUPSekod73AXY7tD42,5.0,images/choice_trial_6.png,images/choice_trial_15.png,images/pattern_1.png,f,f,7000.0,6.0,15.0,1.0,0.0,28.0,0.0,0.0,15.0,160.0,,,,,,63d193a08edec060ac4c8e2c,16:50:55,27/03/2024
html-keyboard-response,156,364291,0.0-65.0-1.0,,"<div style=""display: flex; flex-direction: column; align-items: center; margin-top: -40px;""><img src=""images/pattern_1.png"" style=""width: 234px; height: 230px; margin-top: -50px;""><div style=""display: flex; justify-content: space-between; margin-top: 33px;""><img src=""images/choice_trial_15.png"" style=""width: 408px; height: 417px; margin-left:608px;""></div></div>",,delaylearn,learning,display_response,IJVbsvJBcHYUPSekod73AXY7tD42,IJVbsvJBcHYUPSekod73AXY7tD42,,,,,,,,,,,,,,,,,chosen stimuli: images/choice_trial_15.png,,,,,63d193a08edec060ac4c8e2c,16:50:55,27/03/2024
html-keyboard-response,157,371295,0.0-65.0-2.0,,,,delaylearn,learning,feedback_duration_window,IJVbsvJBcHYUPSekod73AXY7tD42,IJVbsvJBcHYUPSekod73AXY7tD42,,,,,,,,,,,,,,,,,,7000.0,,,,63d193a08edec060ac4c8e2c,16:50:55,27/03/2024
html-keyboard-response,158,372800,0.0-65.0-3.0,,<div style='margin:auto;width: auto; font-size: 150%'><span style='font-weight: bold; font-size: 100px; color: red;'>0 points!</span><br><br></div>,,delaylearn,learning,feedback_image_window,IJVbsvJBcHYUPSekod73AXY7tD42,IJVbsvJBcHYUPSekod73AXY7tD42,,,,,,,,,,,,,,,,,,,,,,63d193a08edec060ac4c8e2c,16:50:55,27/03/2024
html-keyboard-response,159,374578,0.0-66.0,,"<div style=""font-size:100px;"">+</div>",,delaylearn,learning,ITI,IJVbsvJBcHYUPSekod73AXY7tD42,IJVbsvJBcHYUPSekod73AXY7tD42,,,,,,,,,,,,,,,,,,,1775.0,,,63d193a08edec060ac4c8e2c,16:50:55,27/03/2024
html-keyboard-response,160,375883,0.0-67.0-0.0,1299.8999999761581,"<div style=""display: flex; flex-direction: column; align-items: center; margin-top: -40px;""><img src=""images/pattern_5.png"" style=""width: 234px; height: 230px; margin-top: -50px;""><div style=""display: flex; justify-content: space-between; margin-top: 33px;""><img src=""images/choice_trial_7.png"" style=""width: 408px; height: 417px; margin-right: 200px;""><img src=""images/choice_trial_13.png"" style=""width: 408px; height: 417px;""></div></div>",f,delaylearn,learning,trial,IJVbsvJBcHYUPSekod73AXY7tD42,IJVbsvJBcHYUPSekod73AXY7tD42,5.0,images/choice_trial_7.png,images/choice_trial_13.png,images/pattern_5.png,f,f,750.0,7.0,13.0,4.0,0.0,29.0,1.0,1.0,7.0,170.0,,,,,,63d193a08edec060ac4c8e2c,16:50:55,27/03/2024
html-keyboard-response,161,376888,0.0-67.0-1.0,,"<div style=""display: flex; flex-direction: column; align-items: center; margin-top: -40px;""><img src=""images/pattern_5.png"" style=""width: 234px; height: 230px; margin-top: -50px;""><div style=""display: flex; justify-content: space-between; margin-top: 33px;""><img src=""images/choice_trial_7.png"" style=""width: 408px; height: 417px; margin-right: 608px;""></div></div>",,delaylearn,learning,display_response,IJVbsvJBcHYUPSekod73AXY7tD42,IJVbsvJBcHYUPSekod73AXY7tD42,,,,,,,,,,,,,,,,,chosen stimuli: images/choice_trial_7.png,,,,,63d193a08edec060ac4c8e2c,16:50:55,27/03/2024
html-keyboard-response,162,377642,0.0-67.0-2.0,,,,delaylearn,learning,feedback_duration_window,IJVbsvJBcHYUPSekod73AXY7tD42,IJVbsvJBcHYUPSekod73AXY7tD42,,,,,,,,,,,,,,,,,,750.0,,,,63d193a08edec060ac4c8e2c,16:50:55,27/03/2024
html-keyboard-response,163,379147,0.0-67.0-3.0,,<div style='margin:auto;width: auto; font-size: 150%'><span style='font-weight: bold; font-size: 100px; color: green;'>+10 points!</span><br><br></div>,,delaylearn,learning,feedback_image_window,IJVbsvJBcHYUPSekod73AXY7tD42,IJVbsvJBcHYUPSekod73AXY7tD42,,,,,,,,,,,,,,,,,,,,,,63d193a08edec060ac4c8e2c,16:50:55,27/03/2024
html-keyboard-response,164,380798,0.0-68.0,,"<div style=""font-size:100px;"">+</div>",,delaylearn,learning,ITI,IJVbsvJBcHYUPSekod73AXY7tD42,IJVbsvJBcHYUPSekod73AXY7tD42,,,,,,,,,,,,,,,,,,,1648.0,,,63d193a08edec060ac4c8e2c,16:50:55,27/03/2024
html-keyboard-response,165,382464,0.0-69.0-0.0,1661.8999999761581,"<div style=""display: flex; flex-direction: column; align-items: center; margin-top: -40px;""><img src=""images/pattern_6.png"" style=""width: 234px; height: 230px; margin-top: -50px;""><div style=""display: flex; justify-content: space-between; margin-top: 33px;""><img src=""images/choice_trial_9.png"" style=""width: 408px; height: 417px; margin-right: 200px;""><img src=""images/choice_trial_14.png"" style=""width: 408px; height: 417px;""></div></div>",j,delaylearn,learning,trial,IJVbsvJBcHYUPSekod73AXY7tD42,IJVbsvJBcHYUPSekod73AXY7tD42,5.0,images/choice_trial_9.png,images/choice_trial_14.png,images/pattern_6.png,j,j,750.0,9.0,14.0,5.0,1.0,30.0,1.0,1.0,14.0,180.0,,,,,,63d193a08edec060ac4c8e2c,16:50:55,27/03/2024
html-keyboard-response,166,383468,0.0-69.0-1.0,,"<div style=""display: flex; flex-direction: column; align-items: center; margin-top: -40px;""><img src=""images/pattern_6.png"" style=""width: 234px; height: 230px; margin-top: -50px;""><div style=""display: flex; justify-content: space-between; margin-top: 33px;""><img src=""images/choice_trial_14.png"" style=""width: 408px; height: 417px; margin-left:608px;""></div></div>",,delaylearn,learning,display_response,IJVbsvJBcHYUPSekod73AXY7tD42,IJVbsvJBcHYUPSekod73AXY7tD42,,,,,,,,,,,,,,,,,chosen stimuli: images/choice_trial_14.png,,,,,63d193a08edec060ac4c8e2c,16:50:55,27/03/2024
html-keyboard-response,167,384221,0.0-69.0-2.0,,,,delaylearn,learning,feedback_duration_window,IJVbsvJBcHYUPSekod73AXY7tD42,IJVbsvJBcHYUPSekod73AXY7tD42,,,,,,,,,,,,,,,,,,750.0,,,,63d193a08edec060ac4c8e2c,16:50:55,27/03/2024
html-keyboard-response,168,385725,0.0-69.0-3.0,,<div style='margin:auto;width: auto; font-size: 150%'><span style='font-weight: bold; font-size: 100px; color: green;'>+10 points!</span><br><br></div>,,delaylearn,learning,feedback_image_window,IJVbsvJBcHYUPSekod73AXY7tD42,IJVbsvJBcHYUPSekod73AXY7tD42,,,,,,,,,,,,,,,,,,,,,,63d193a08edec060ac4c8e2c,16:50:55,27/03/2024
html-keyboard-response,169,386228,0.0-70.0-0.0,,,,,,mood_trial_fixation,IJVbsvJBcHYUPSekod73AXY7tD42,,,,,,,,,,,,,,,,,,,,,,,63d193a08edec060ac4c8e2c,16:50:55,27/03/2024
lmdlab-html-vas-response,170,391613,0.0-70.0-1.0,4378.0,How happy are you right now?,0.7277777777777777,delaylearn,learning,mood_trial,IJVbsvJBcHYUPSekod73AXY7tD42,IJVbsvJBcHYUPSekod73AXY7tD42,,,,,,,,,,,,,,,,,,,,"['Very unhappy', 'Very happy']",,63d193a08edec060ac4c8e2c,16:50:55,27/03/2024
html-keyboard-response,171,393546,0.0-71.0,,"<div style=""font-size:100px;"">+</div>",,delaylearn,learning,ITI,IJVbsvJBcHYUPSekod73AXY7tD42,IJVbsvJBcHYUPSekod73AXY7tD42,,,,,,,,,,,,,,,,,,,1930.0,,,63d193a08edec060ac4c8e2c,16:50:55,27/03/2024
html-keyboard-response,172,395484,0.0-72.0-0.0,1932.8000000715256,"<div style=""display: flex; flex-direction: column; align-items: center; margin-top: -40px;""><img src=""images/pattern_4.png"" style=""width: 234px; height: 230px; margin-top: -50px;""><div style=""display: flex; justify-content: space-between; margin-top: 33px;""><img src=""images/choice_trial_4.png"" style=""width: 408px; height: 417px; margin-right: 200px;""><img src=""images/choice_trial_11.png"" style=""width: 408px; height: 417px;""></div></div>",f,delaylearn,learning,trial,IJVbsvJBcHYUPSekod73AXY7tD42,IJVbsvJBcHYUPSekod73AXY7tD42,5.0,images/choice_trial_4.png,images/choice_trial_11.png,images/pattern_4.png,j,j,7000.0,4.0,11.0,3.0,1.0,31.0,0.0,0.0,4.0,180.0,,,,,,63d193a08edec060ac4c8e2c,16:50:55,27/03/2024
html-keyboard-response,173,396488,0.0-72.0-1.0,,"<div style=""display: flex; flex-direction: column; align-items: center; margin-top: -40px;""><img src=""images/pattern_4.png"" style=""width: 234px; height: 230px; margin-top: -50px;""><div style=""display: flex; justify-content: space-between; margin-top: 33px;""><img src=""images/choice_trial_4.png"" style=""width: 408px; height: 417px; margin-right: 608px;""></div></div>",,delaylearn,learning,display_response,IJVbsvJBcHYUPSekod73AXY7tD42,IJVbsvJBcHYUPSekod73AXY7tD42,,,,,,,,,,,,,,,,,chosen stimuli: images/choice_trial_4.png,,,,,63d193a08edec060ac4c8e2c,16:50:55,27/03/2024
html-keyboard-response,174,403487,0.0-72.0-2.0,,,,delaylearn,learning,feedback_duration_window,IJVbsvJBcHYUPSekod73AXY7tD42,IJVbsvJBcHYUPSekod73AXY7tD42,,,,,,,,,,,,,,,,,,7000.0,,,,63d193a08edec060ac4c8e2c,16:50:55,27/03/2024
html-keyboard-response,175,404990,0.0-72.0-3.0,,<div style='margin:auto;width: auto; font-size: 150%'><span style='font-weight: bold; font-size: 100px; color: red;'>0 points!</span><br><br></div>,,delaylearn,learning,feedback_image_window,IJVbsvJBcHYUPSekod73AXY7tD42,IJVbsvJBcHYUPSekod73AXY7tD42,,,,,,,,,,,,,,,,,,,,,,63d193a08edec060ac4c8e2c,16:50:55,27/03/2024
html-keyboard-response,176,407276,0.0-73.0,,"<div style=""font-size:100px;"">+</div>",,delaylearn,learning,ITI,IJVbsvJBcHYUPSekod73AXY7tD42,IJVbsvJBcHYUPSekod73AXY7tD42,,,,,,,,,,,,,,,,,,,2285.0,,,63d193a08edec060ac4c8e2c,16:50:55,27/03/2024
html-keyboard-response,177,409154,0.0-74.0-0.0,1875.7000000476837,"<div style=""display: flex; flex-direction: column; align-items: center; margin-top: -40px;""><img src=""images/pattern_3.png"" style=""width: 234px; height: 230px; margin-top: -50px;""><div style=""display: flex; justify-content: space-between; margin-top: 33px;""><img src=""images/choice_trial_2.png"" style=""width: 408px; height: 417px; margin-right: 200px;""><img src=""images/choice_trial_16.png"" style=""width: 408px; height: 417px;""></div></div>",f,delaylearn,learning,trial,IJVbsvJBcHYUPSekod73AXY7tD42,IJVbsvJBcHYUPSekod73AXY7tD42,5.0,images/choice_trial_2.png,images/choice_trial_16.png,images/pattern_3.png,j,j,7000.0,2.0,16.0,2.0,1.0,32.0,0.0,0.0,2.0,180.0,,,,,,63d193a08edec060ac4c8e2c,16:50:55,27/03/2024
html-keyboard-response,178,410158,0.0-74.0-1.0,,"<div style=""display: flex; flex-direction: column; align-items: center; margin-top: -40px;""><img src=""images/pattern_3.png"" style=""width: 234px; height: 230px; margin-top: -50px;""><div style=""display: flex; justify-content: space-between; margin-top: 33px;""><img src=""images/choice_trial_2.png"" style=""width: 408px; height: 417px; margin-right: 608px;""></div></div>",,delaylearn,learning,display_response,IJVbsvJBcHYUPSekod73AXY7tD42,IJVbsvJBcHYUPSekod73AXY7tD42,,,,,,,,,,,,,,,,,chosen stimuli: images/choice_trial_2.png,,,,,63d193a08edec060ac4c8e2c,16:50:55,27/03/2024
html-keyboard-response,179,417156,0.0-74.0-2.0,,,,delaylearn,learning,feedback_duration_window,IJVbsvJBcHYUPSekod73AXY7tD42,IJVbsvJBcHYUPSekod73AXY7tD42,,,,,,,,,,,,,,,,,,7000.0,,,,63d193a08edec060ac4c8e2c,16:50:55,27/03/2024
html-keyboard-response,180,418660,0.0-74.0-3.0,,<div style='margin:auto;width: auto; font-size: 150%'><span style='font-weight: bold; font-size: 100px; color: red;'>0 points!</span><br><br></div>,,delaylearn,learning,feedback_image_window,IJVbsvJBcHYUPSekod73AXY7tD42,IJVbsvJBcHYUPSekod73AXY7tD42,,,,,,,,,,,,,,,,,,,,,,63d193a08edec060ac4c8e2c,16:50:55,27/03/2024
html-keyboard-response,181,420566,0.0-75.0,,"<div style=""font-size:100px;"">+</div>",,delaylearn,learning,ITI,IJVbsvJBcHYUPSekod73AXY7tD42,IJVbsvJBcHYUPSekod73AXY7tD42,,,,,,,,,,,,,,,,,,,1904.0,,,63d193a08edec060ac4c8e2c,16:50:55,27/03/2024
html-keyboard-response,182,422280,0.0-76.0-0.0,1709.7000000476837,"<div style=""display: flex; flex-direction: column; align-items: center; margin-top: -40px;""><img src=""images/pattern_5.png"" style=""width: 234px; height: 230px; margin-top: -50px;""><div style=""display: flex; justify-content: space-between; margin-top: 33px;""><img src=""images/choice_trial_7.png"" style=""width: 408px; height: 417px; margin-right: 200px;""><img src=""images/choice_trial_13.png"" style=""width: 408px; height: 417px;""></div></div>",f,delaylearn,learning,trial,IJVbsvJBcHYUPSekod73AXY7tD42,IJVbsvJBcHYUPSekod73AXY7tD42,5.0,images/choice_trial_7.png,images/choice_trial_13.png,images/pattern_5.png,j,f,750.0,7.0,13.0,4.0,0.0,33.0,1.0,0.0,7.0,180.0,,,,,,63d193a08edec060ac4c8e2c,16:50:55,27/03/2024
html-keyboard-response,183,423284,0.0-76.0-1.0,,"<div style=""display: flex; flex-direction: column; align-items: center; margin-top: -40px;""><img src=""images/pattern_5.png"" style=""width: 234px; height: 230px; margin-top: -50px;""><div style=""display: flex; justify-content: space-between; margin-top: 33px;""><img src=""images/choice_trial_7.png"" style=""width: 408px; height: 417px; margin-right: 608px;""></div></div>",,delaylearn,learning,display_response,IJVbsvJBcHYUPSekod73AXY7tD42,IJVbsvJBcHYUPSekod73AXY7tD42,,,,,,,,,,,,,,,,,chosen stimuli: images/choice_trial_7.png,,,,,63d193a08edec060ac4c8e2c,16:50:55,27/03/2024
html-keyboard-response,184,424037,0.0-76.0-2.0,,,,delaylearn,learning,feedback_duration_window,IJVbsvJBcHYUPSekod73AXY7tD42,IJVbsvJBcHYUPSekod73AXY7tD42,,,,,,,,,,,,,,,,,,750.0,,,,63d193a08edec060ac4c8e2c,16:50:55,27/03/2024
html-keyboard-response,185,425541,0.0-76.0-3.0,,<div style='margin:auto;width: auto; font-size: 150%'><span style='font-weight: bold; font-size: 100px; color: red;'>0 points!</span><br><br></div>,,delaylearn,learning,feedback_image_window,IJVbsvJBcHYUPSekod73AXY7tD42,IJVbsvJBcHYUPSekod73AXY7tD42,,,,,,,,,,,,,,,,,,,,,,63d193a08edec060ac4c8e2c,16:50:55,27/03/2024
html-keyboard-response,186,427241,0.0-77.0,,"<div style=""font-size:100px;"">+</div>",,delaylearn,learning,ITI,IJVbsvJBcHYUPSekod73AXY7tD42,IJVbsvJBcHYUPSekod73AXY7tD42,,,,,,,,,,,,,,,,,,,1698.0,,,63d193a08edec060ac4c8e2c,16:50:55,27/03/2024
html-keyboard-response,187,428330,0.0-78.0-0.0,1084.5,"<div style=""display: flex; flex-direction: column; align-items: center; margin-top: -40px;""><img src=""images/pattern_1.png"" style=""width: 234px; height: 230px; margin-top: -50px;""><div style=""display: flex; justify-content: space-between; margin-top: 33px;""><img src=""images/choice_trial_6.png"" style=""width: 408px; height: 417px; margin-right: 200px;""><img src=""images/choice_trial_15.png"" style=""width: 408px; height: 417px;""></div></div>",j,delaylearn,learning,trial,IJVbsvJBcHYUPSekod73AXY7tD42,IJVbsvJBcHYUPSekod73AXY7tD42,5.0,images/choice_trial_6.png,images/choice_trial_15.png,images/pattern_1.png,f,f,7000.0,6.0,15.0,1.0,0.0,34.0,0.0,0.0,15.0,180.0,,,,,,63d193a08edec060ac4c8e2c,16:50:55,27/03/2024
html-keyboard-response,188,429334,0.0-78.0-1.0,,"<div style=""display: flex; flex-direction: column; align-items: center; margin-top: -40px;""><img src=""images/pattern_1.png"" style=""width: 234px; height: 230px; margin-top: -50px;""><div style=""display: flex; justify-content: space-between; margin-top: 33px;""><img src=""images/choice_trial_15.png"" style=""width: 408px; height: 417px; margin-left:608px;""></div></div>",,delaylearn,learning,display_response,IJVbsvJBcHYUPSekod73AXY7tD42,IJVbsvJBcHYUPSekod73AXY7tD42,,,,,,,,,,,,,,,,,chosen stimuli: images/choice_trial_15.png,,,,,63d193a08edec060ac4c8e2c,16:50:55,27/03/2024
html-keyboard-response,189,436336,0.0-78.0-2.0,,,,delaylearn,learning,feedback_duration_window,IJVbsvJBcHYUPSekod73AXY7tD42,IJVbsvJBcHYUPSekod73AXY7tD42,,,,,,,,,,,,,,,,,,7000.0,,,,63d193a08edec060ac4c8e2c,16:50:55,27/03/2024
html-keyboard-response,190,437841,0.0-78.0-3.0,,<div style='margin:auto;width: auto; font-size: 150%'><span style='font-weight: bold; font-size: 100px; color: red;'>0 points!</span><br><br></div>,,delaylearn,learning,feedback_image_window,IJVbsvJBcHYUPSekod73AXY7tD42,IJVbsvJBcHYUPSekod73AXY7tD42,,,,,,,,,,,,,,,,,,,,,,63d193a08edec060ac4c8e2c,16:50:55,27/03/2024
html-keyboard-response,191,438344,0.0-79.0-0.0,,,,,,mood_trial_fixation,IJVbsvJBcHYUPSekod73AXY7tD42,,,,,,,,,,,,,,,,,,,,,,,63d193a08edec060ac4c8e2c,16:50:55,27/03/2024
lmdlab-html-vas-response,192,442274,0.0-79.0-1.0,2924.0,How happy are you right now?,0.65,delaylearn,learning,mood_trial,IJVbsvJBcHYUPSekod73AXY7tD42,IJVbsvJBcHYUPSekod73AXY7tD42,,,,,,,,,,,,,,,,,,,,"['Very unhappy', 'Very happy']",,63d193a08edec060ac4c8e2c,16:50:55,27/03/2024
html-keyboard-response,193,444126,0.0-80.0,,"<div style=""font-size:100px;"">+</div>",,delaylearn,learning,ITI,IJVbsvJBcHYUPSekod73AXY7tD42,IJVbsvJBcHYUPSekod73AXY7tD42,,,,,,,,,,,,,,,,,,,1850.0,,,63d193a08edec060ac4c8e2c,16:50:55,27/03/2024
html-keyboard-response,194,446096,0.0-81.0-0.0,1965.2000000476837,"<div style=""display: flex; flex-direction: column; align-items: center; margin-top: -40px;""><img src=""images/pattern_6.png"" style=""width: 234px; height: 230px; margin-top: -50px;""><div style=""display: flex; justify-content: space-between; margin-top: 33px;""><img src=""images/choice_trial_14.png"" style=""width: 408px; height: 417px; margin-right: 200px;""><img src=""images/choice_trial_9.png"" style=""width: 408px; height: 417px;""></div></div>",f,delaylearn,learning,trial,IJVbsvJBcHYUPSekod73AXY7tD42,IJVbsvJBcHYUPSekod73AXY7tD42,5.0,images/choice_trial_14.png,images/choice_trial_9.png,images/pattern_6.png,j,f,750.0,14.0,9.0,5.0,0.0,35.0,1.0,0.0,14.0,180.0,,,,,,63d193a08edec060ac4c8e2c,16:50:55,27/03/2024
html-keyboard-response,195,447101,0.0-81.0-1.0,,"<div style=""display: flex; flex-direction: column; align-items: center; margin-top: -40px;""><img src=""images/pattern_6.png"" style=""width: 234px; height: 230px; margin-top: -50px;""><div style=""display: flex; justify-content: space-between; margin-top: 33px;""><img src=""images/choice_trial_14.png"" style=""width: 408px; height: 417px; margin-right: 608px;""></div></div>",,delaylearn,learning,display_response,IJVbsvJBcHYUPSekod73AXY7tD42,IJVbsvJBcHYUPSekod73AXY7tD42,,,,,,,,,,,,,,,,,chosen stimuli: images/choice_trial_14.png,,,,,63d193a08edec060ac4c8e2c,16:50:55,27/03/2024
html-keyboard-response,196,447855,0.0-81.0-2.0,,,,delaylearn,learning,feedback_duration_window,IJVbsvJBcHYUPSekod73AXY7tD42,IJVbsvJBcHYUPSekod73AXY7tD42,,,,,,,,,,,,,,,,,,750.0,,,,63d193a08edec060ac4c8e2c,16:50:55,27/03/2024
html-keyboard-response,197,449360,0.0-81.0-3.0,,<div style='margin:auto;width: auto; font-size: 150%'><span style='font-weight: bold; font-size: 100px; color: red;'>0 points!</span><br><br></div>,,delaylearn,learning,feedback_image_window,IJVbsvJBcHYUPSekod73AXY7tD42,IJVbsvJBcHYUPSekod73AXY7tD42,,,,,,,,,,,,,,,,,,,,,,63d193a08edec060ac4c8e2c,16:50:55,27/03/2024
html-keyboard-response,198,451445,0.0-82.0,,"<div style=""font-size:100px;"">+</div>",,delaylearn,learning,ITI,IJVbsvJBcHYUPSekod73AXY7tD42,IJVbsvJBcHYUPSekod73AXY7tD42,,,,,,,,,,,,,,,,,,,2082.0,,,63d193a08edec060ac4c8e2c,16:50:55,27/03/2024
html-keyboard-response,199,453094,0.0-83.0-0.0,1645.0,"<div style=""display: flex; flex-direction: column; align-items: center; margin-top: -40px;""><img src=""images/pattern_3.png"" style=""width: 234px; height: 230px; margin-top: -50px;""><div style=""display: flex; justify-content: space-between; margin-top: 33px;""><img src=""images/choice_trial_2.png"" style=""width: 408px; height: 417px; margin-right: 200px;""><img src=""images/choice_trial_16.png"" style=""width: 408px; height: 417px;""></div></div>",f,delaylearn,learning,trial,IJVbsvJBcHYUPSekod73AXY7tD42,IJVbsvJBcHYUPSekod73AXY7tD42,5.0,images/choice_trial_2.png,images/choice_trial_16.png,images/pattern_3.png,j,j,7000.0,2.0,16.0,2.0,1.0,36.0,0.0,0.0,2.0,180.0,,,,,,63d193a08edec060ac4c8e2c,16:50:55,27/03/2024
html-keyboard-response,200,454099,0.0-83.0-1.0,,"<div style=""display: flex; flex-direction: column; align-items: center; margin-top: -40px;""><img src=""images/pattern_3.png"" style=""width: 234px; height: 230px; margin-top: -50px;""><div style=""display: flex; justify-content: space-between; margin-top: 33px;""><img src=""images/choice_trial_2.png"" style=""width: 408px; height: 417px; margin-right: 608px;""></div></div>",,delaylearn,learning,display_response,IJVbsvJBcHYUPSekod73AXY7tD42,IJVbsvJBcHYUPSekod73AXY7tD42,,,,,,,,,,,,,,,,,chosen stimuli: images/choice_trial_2.png,,,,,63d193a08edec060ac4c8e2c,16:50:55,27/03/2024
html-keyboard-response,201,461102,0.0-83.0-2.0,,,,delaylearn,learning,feedback_duration_window,IJVbsvJBcHYUPSekod73AXY7tD42,IJVbsvJBcHYUPSekod73AXY7tD42,,,,,,,,,,,,,,,,,,7000.0,,,,63d193a08edec060ac4c8e2c,16:50:55,27/03/2024
html-keyboard-response,202,462607,0.0-83.0-3.0,,<div style='margin:auto;width: auto; font-size: 150%'><span style='font-weight: bold; font-size: 100px; color: red;'>0 points!</span><br><br></div>,,delaylearn,learning,feedback_image_window,IJVbsvJBcHYUPSekod73AXY7tD42,IJVbsvJBcHYUPSekod73AXY7tD42,,,,,,,,,,,,,,,,,,,,,,63d193a08edec060ac4c8e2c,16:50:55,27/03/2024
html-keyboard-response,203,464585,0.0-84.0,,"<div style=""font-size:100px;"">+</div>",,delaylearn,learning,ITI,IJVbsvJBcHYUPSekod73AXY7tD42,IJVbsvJBcHYUPSekod73AXY7tD42,,,,,,,,,,,,,,,,,,,1976.0,,,63d193a08edec060ac4c8e2c,16:50:55,27/03/2024
html-keyboard-response,204,466482,0.0-85.0-0.0,1891.5,"<div style=""display: flex; flex-direction: column; align-items: center; margin-top: -40px;""><img src=""images/pattern_4.png"" style=""width: 234px; height: 230px; margin-top: -50px;""><div style=""display: flex; justify-content: space-between; margin-top: 33px;""><img src=""images/choice_trial_4.png"" style=""width: 408px; height: 417px; margin-right: 200px;""><img src=""images/choice_trial_11.png"" style=""width: 408px; height: 417px;""></div></div>",f,delaylearn,learning,trial,IJVbsvJBcHYUPSekod73AXY7tD42,IJVbsvJBcHYUPSekod73AXY7tD42,5.0,images/choice_trial_4.png,images/choice_trial_11.png,images/pattern_4.png,f,j,7000.0,4.0,11.0,3.0,1.0,37.0,0.0,1.0,4.0,190.0,,,,,,63d193a08edec060ac4c8e2c,16:50:55,27/03/2024
html-keyboard-response,205,467486,0.0-85.0-1.0,,"<div style=""display: flex; flex-direction: column; align-items: center; margin-top: -40px;""><img src=""images/pattern_4.png"" style=""width: 234px; height: 230px; margin-top: -50px;""><div style=""display: flex; justify-content: space-between; margin-top: 33px;""><img src=""images/choice_trial_4.png"" style=""width: 408px; height: 417px; margin-right: 608px;""></div></div>",,delaylearn,learning,display_response,IJVbsvJBcHYUPSekod73AXY7tD42,IJVbsvJBcHYUPSekod73AXY7tD42,,,,,,,,,,,,,,,,,chosen stimuli: images/choice_trial_4.png,,,,,63d193a08edec060ac4c8e2c,16:50:55,27/03/2024
html-keyboard-response,206,474489,0.0-85.0-2.0,,,,delaylearn,learning,feedback_duration_window,IJVbsvJBcHYUPSekod73AXY7tD42,IJVbsvJBcHYUPSekod73AXY7tD42,,,,,,,,,,,,,,,,,,7000.0,,,,63d193a08edec060ac4c8e2c,16:50:55,27/03/2024
html-keyboard-response,207,475994,0.0-85.0-3.0,,<div style='margin:auto;width: auto; font-size: 150%'><span style='font-weight: bold; font-size: 100px; color: green;'>+10 points!</span><br><br></div>,,delaylearn,learning,feedback_image_window,IJVbsvJBcHYUPSekod73AXY7tD42,IJVbsvJBcHYUPSekod73AXY7tD42,,,,,,,,,,,,,,,,,,,,,,63d193a08edec060ac4c8e2c,16:50:55,27/03/2024
html-keyboard-response,208,477883,0.0-86.0,,"<div style=""font-size:100px;"">+</div>",,delaylearn,learning,ITI,IJVbsvJBcHYUPSekod73AXY7tD42,IJVbsvJBcHYUPSekod73AXY7tD42,,,,,,,,,,,,,,,,,,,1886.0,,,63d193a08edec060ac4c8e2c,16:50:55,27/03/2024
html-keyboard-response,209,479761,0.0-87.0-0.0,1872.6999999284744,"<div style=""display: flex; flex-direction: column; align-items: center; margin-top: -40px;""><img src=""images/pattern_7.png"" style=""width: 234px; height: 230px; margin-top: -50px;""><div style=""display: flex; justify-content: space-between; margin-top: 33px;""><img src=""images/choice_trial_8.png"" style=""width: 408px; height: 417px; margin-right: 200px;""><img src=""images/choice_trial_10.png"" style=""width: 408px; height: 417px;""></div></div>",f,delaylearn,learning,trial,IJVbsvJBcHYUPSekod73AXY7tD42,IJVbsvJBcHYUPSekod73AXY7tD42,5.0,images/choice_trial_8.png,images/choice_trial_10.png,images/pattern_7.png,f,f,750.0,8.0,10.0,6.0,0.0,38.0,1.0,1.0,8.0,200.0,,,,,,63d193a08edec060ac4c8e2c,16:50:55,27/03/2024
html-keyboard-response,210,480765,0.0-87.0-1.0,,"<div style=""display: flex; flex-direction: column; align-items: center; margin-top: -40px;""><img src=""images/pattern_7.png"" style=""width: 234px; height: 230px; margin-top: -50px;""><div style=""display: flex; justify-content: space-between; margin-top: 33px;""><img src=""images/choice_trial_8.png"" style=""width: 408px; height: 417px; margin-right: 608px;""></div></div>",,delaylearn,learning,display_response,IJVbsvJBcHYUPSekod73AXY7tD42,IJVbsvJBcHYUPSekod73AXY7tD42,,,,,,,,,,,,,,,,,chosen stimuli: images/choice_trial_8.png,,,,,63d193a08edec060ac4c8e2c,16:50:55,27/03/2024
html-keyboard-response,211,481519,0.0-87.0-2.0,,,,delaylearn,learning,feedback_duration_window,IJVbsvJBcHYUPSekod73AXY7tD42,IJVbsvJBcHYUPSekod73AXY7tD42,,,,,,,,,,,,,,,,,,750.0,,,,63d193a08edec060ac4c8e2c,16:50:55,27/03/2024
html-keyboard-response,212,483024,0.0-87.0-3.0,,<div style='margin:auto;width: auto; font-size: 150%'><span style='font-weight: bold; font-size: 100px; color: green;'>+10 points!</span><br><br></div>,,delaylearn,learning,feedback_image_window,IJVbsvJBcHYUPSekod73AXY7tD42,IJVbsvJBcHYUPSekod73AXY7tD42,,,,,,,,,,,,,,,,,,,,,,63d193a08edec060ac4c8e2c,16:50:55,27/03/2024
html-keyboard-response,213,485026,0.0-88.0,,"<div style=""font-size:100px;"">+</div>",,delaylearn,learning,ITI,IJVbsvJBcHYUPSekod73AXY7tD42,IJVbsvJBcHYUPSekod73AXY7tD42,,,,,,,,,,,,,,,,,,,1999.0,,,63d193a08edec060ac4c8e2c,16:50:55,27/03/2024
html-keyboard-response,214,486439,0.0-89.0-0.0,1410.2999999523163,"<div style=""display: flex; flex-direction: column; align-items: center; margin-top: -40px;""><img src=""images/pattern_1.png"" style=""width: 234px; height: 230px; margin-top: -50px;""><div style=""display: flex; justify-content: space-between; margin-top: 33px;""><img src=""images/choice_trial_6.png"" style=""width: 408px; height: 417px; margin-right: 200px;""><img src=""images/choice_trial_15.png"" style=""width: 408px; height: 417px;""></div></div>",j,delaylearn,learning,trial,IJVbsvJBcHYUPSekod73AXY7tD42,IJVbsvJBcHYUPSekod73AXY7tD42,5.0,images/choice_trial_6.png,images/choice_trial_15.png,images/pattern_1.png,f,f,7000.0,6.0,15.0,1.0,0.0,39.0,0.0,0.0,15.0,200.0,,,,,,63d193a08edec060ac4c8e2c,16:50:55,27/03/2024
html-keyboard-response,215,487444,0.0-89.0-1.0,,"<div style=""display: flex; flex-direction: column; align-items: center; margin-top: -40px;""><img src=""images/pattern_1.png"" style=""width: 234px; height: 230px; margin-top: -50px;""><div style=""display: flex; justify-content: space-between; margin-top: 33px;""><img src=""images/choice_trial_15.png"" style=""width: 408px; height: 417px; margin-left:608px;""></div></div>",,delaylearn,learning,display_response,IJVbsvJBcHYUPSekod73AXY7tD42,IJVbsvJBcHYUPSekod73AXY7tD42,,,,,,,,,,,,,,,,,chosen stimuli: images/choice_trial_15.png,,,,,63d193a08edec060ac4c8e2c,16:50:55,27/03/2024
html-keyboard-response,216,494448,0.0-89.0-2.0,,,,delaylearn,learning,feedback_duration_window,IJVbsvJBcHYUPSekod73AXY7tD42,IJVbsvJBcHYUPSekod73AXY7tD42,,,,,,,,,,,,,,,,,,7000.0,,,,63d193a08edec060ac4c8e2c,16:50:55,27/03/2024
html-keyboard-response,217,495952,0.0-89.0-3.0,,<div style='margin:auto;width: auto; font-size: 150%'><span style='font-weight: bold; font-size: 100px; color: red;'>0 points!</span><br><br></div>,,delaylearn,learning,feedback_image_window,IJVbsvJBcHYUPSekod73AXY7tD42,IJVbsvJBcHYUPSekod73AXY7tD42,,,,,,,,,,,,,,,,,,,,,,63d193a08edec060ac4c8e2c,16:50:55,27/03/2024
html-keyboard-response,218,496456,0.0-90.0-0.0,,,,,,mood_trial_fixation,IJVbsvJBcHYUPSekod73AXY7tD42,,,,,,,,,,,,,,,,,,,,,,,63d193a08edec060ac4c8e2c,16:50:55,27/03/2024
lmdlab-html-vas-response,219,500590,0.0-90.0-1.0,3128.0,How happy are you right now?,0.6833333333333333,delaylearn,learning,mood_trial,IJVbsvJBcHYUPSekod73AXY7tD42,IJVbsvJBcHYUPSekod73AXY7tD42,,,,,,,,,,,,,,,,,,,,"['Very unhappy', 'Very happy']",,63d193a08edec060ac4c8e2c,16:50:55,27/03/2024
html-keyboard-response,220,502712,0.0-91.0,,"<div style=""font-size:100px;"">+</div>",,delaylearn,learning,ITI,IJVbsvJBcHYUPSekod73AXY7tD42,IJVbsvJBcHYUPSekod73AXY7tD42,,,,,,,,,,,,,,,,,,,2119.0,,,63d193a08edec060ac4c8e2c,16:50:55,27/03/2024
html-keyboard-response,221,504751,0.0-92.0-0.0,2034.2000000476837,"<div style=""display: flex; flex-direction: column; align-items: center; margin-top: -40px;""><img src=""images/pattern_3.png"" style=""width: 234px; height: 230px; margin-top: -50px;""><div style=""display: flex; justify-content: space-between; margin-top: 33px;""><img src=""images/choice_trial_16.png"" style=""width: 408px; height: 417px; margin-right: 200px;""><img src=""images/choice_trial_2.png"" style=""width: 408px; height: 417px;""></div></div>",f,delaylearn,learning,trial,IJVbsvJBcHYUPSekod73AXY7tD42,IJVbsvJBcHYUPSekod73AXY7tD42,5.0,images/choice_trial_16.png,images/choice_trial_2.png,images/pattern_3.png,j,f,7000.0,16.0,2.0,2.0,0.0,40.0,1.0,0.0,16.0,200.0,,,,,,63d193a08edec060ac4c8e2c,16:50:55,27/03/2024
html-keyboard-response,222,505756,0.0-92.0-1.0,,"<div style=""display: flex; flex-direction: column; align-items: center; margin-top: -40px;""><img src=""images/pattern_3.png"" style=""width: 234px; height: 230px; margin-top: -50px;""><div style=""display: flex; justify-content: space-between; margin-top: 33px;""><img src=""images/choice_trial_16.png"" style=""width: 408px; height: 417px; margin-right: 608px;""></div></div>",,delaylearn,learning,display_response,IJVbsvJBcHYUPSekod73AXY7tD42,IJVbsvJBcHYUPSekod73AXY7tD42,,,,,,,,,,,,,,,,,chosen stimuli: images/choice_trial_16.png,,,,,63d193a08edec060ac4c8e2c,16:50:55,27/03/2024
html-keyboard-response,223,512759,0.0-92.0-2.0,,,,delaylearn,learning,feedback_duration_window,IJVbsvJBcHYUPSekod73AXY7tD42,IJVbsvJBcHYUPSekod73AXY7tD42,,,,,,,,,,,,,,,,,,7000.0,,,,63d193a08edec060ac4c8e2c,16:50:55,27/03/2024
html-keyboard-response,224,514263,0.0-92.0-3.0,,<div style='margin:auto;width: auto; font-size: 150%'><span style='font-weight: bold; font-size: 100px; color: red;'>0 points!</span><br><br></div>,,delaylearn,learning,feedback_image_window,IJVbsvJBcHYUPSekod73AXY7tD42,IJVbsvJBcHYUPSekod73AXY7tD42,,,,,,,,,,,,,,,,,,,,,,63d193a08edec060ac4c8e2c,16:50:55,27/03/2024
html-keyboard-response,225,515931,0.0-93.0,,"<div style=""font-size:100px;"">+</div>",,delaylearn,learning,ITI,IJVbsvJBcHYUPSekod73AXY7tD42,IJVbsvJBcHYUPSekod73AXY7tD42,,,,,,,,,,,,,,,,,,,1665.0,,,63d193a08edec060ac4c8e2c,16:50:55,27/03/2024
html-keyboard-response,226,517793,0.0-94.0-0.0,1856.5,"<div style=""display: flex; flex-direction: column; align-items: center; margin-top: -40px;""><img src=""images/pattern_7.png"" style=""width: 234px; height: 230px; margin-top: -50px;""><div style=""display: flex; justify-content: space-between; margin-top: 33px;""><img src=""images/choice_trial_10.png"" style=""width: 408px; height: 417px; margin-right: 200px;""><img src=""images/choice_trial_8.png"" style=""width: 408px; height: 417px;""></div></div>",f,delaylearn,learning,trial,IJVbsvJBcHYUPSekod73AXY7tD42,IJVbsvJBcHYUPSekod73AXY7tD42,5.0,images/choice_trial_10.png,images/choice_trial_8.png,images/pattern_7.png,j,j,750.0,10.0,8.0,6.0,1.0,41.0,0.0,0.0,10.0,200.0,,,,,,63d193a08edec060ac4c8e2c,16:50:55,27/03/2024
html-keyboard-response,227,518797,0.0-94.0-1.0,,"<div style=""display: flex; flex-direction: column; align-items: center; margin-top: -40px;""><img src=""images/pattern_7.png"" style=""width: 234px; height: 230px; margin-top: -50px;""><div style=""display: flex; justify-content: space-between; margin-top: 33px;""><img src=""images/choice_trial_10.png"" style=""width: 408px; height: 417px; margin-right: 608px;""></div></div>",,delaylearn,learning,display_response,IJVbsvJBcHYUPSekod73AXY7tD42,IJVbsvJBcHYUPSekod73AXY7tD42,,,,,,,,,,,,,,,,,chosen stimuli: images/choice_trial_10.png,,,,,63d193a08edec060ac4c8e2c,16:50:55,27/03/2024
html-keyboard-response,228,519550,0.0-94.0-2.0,,,,delaylearn,learning,feedback_duration_window,IJVbsvJBcHYUPSekod73AXY7tD42,IJVbsvJBcHYUPSekod73AXY7tD42,,,,,,,,,,,,,,,,,,750.0,,,,63d193a08edec060ac4c8e2c,16:50:55,27/03/2024
html-keyboard-response,229,521055,0.0-94.0-3.0,,<div style='margin:auto;width: auto; font-size: 150%'><span style='font-weight: bold; font-size: 100px; color: red;'>0 points!</span><br><br></div>,,delaylearn,learning,feedback_image_window,IJVbsvJBcHYUPSekod73AXY7tD42,IJVbsvJBcHYUPSekod73AXY7tD42,,,,,,,,,,,,,,,,,,,,,,63d193a08edec060ac4c8e2c,16:50:55,27/03/2024
html-keyboard-response,230,523006,0.0-95.0,,"<div style=""font-size:100px;"">+</div>",,delaylearn,learning,ITI,IJVbsvJBcHYUPSekod73AXY7tD42,IJVbsvJBcHYUPSekod73AXY7tD42,,,,,,,,,,,,,,,,,,,1948.0,,,63d193a08edec060ac4c8e2c,16:50:55,27/03/2024
