trial_type,trial_index,time_elapsed,internal_node_id,rt,stimulus,response,exp_name,exp_stage,test_part,subjectID,databaseID,counterbal,choice_stimuli_1,choice_stimuli_2,pattern_stimuli,rewarded_answer,correct_answer,feedback_duration_times,stim_left,stim_right,pair,leftright_counter,trial,response_correct,response_rewarded,chosen_stim,counter,displayed_choice,feedback_durations,ITI_duration,labels,rest_warning,prolificID,start_time,date
pavlovia,0,494,0.0-0.0,,,,,,,z0hltGsWycaNSsd7fakCb3NwOLt1,,,,,,,,,,,,,,,,,,,,,,,65bbae0c9be9bb4d76ae2c18,09:06:16,27/02/2024
html-keyboard-response,1,3510,0.0-1.0,,"<div style=""font-size:100px;"">+</div>",,delaylearn,learning,pre_fixation,z0hltGsWycaNSsd7fakCb3NwOLt1,,,,,,,,,,,,,,,,,,,,,,,65bbae0c9be9bb4d76ae2c18,09:06:16,27/02/2024
html-keyboard-response,2,4411,0.0-2.0-0.0,901.0,"<div style=""display: flex; flex-direction: column; align-items: center; margin-top: -40px;""><img src=""images/demo_images/pattern_1.png"" style=""width: 234px; height: 230px; margin-top: -50px;""><div style=""display: flex; justify-content: space-between; margin-top: 33px;""><img src=""images/demo_images/choice_trial_2.png"" style=""width: 408px; height: 417px; margin-right: 200px;""><img src=""images/demo_images/choice_trial_1.png"" style=""width: 408px; height: 417px;""></div></div>",f,delaylearn,learning,trial,z0hltGsWycaNSsd7fakCb3NwOLt1,z0hltGsWycaNSsd7fakCb3NwOLt1,2.0,images/demo_images/choice_trial_2.png,images/demo_images/choice_trial_1.png,images/demo_images/pattern_1.png,j,j,3000.0,2.0,1.0,20.0,1.0,1.0,0.0,0.0,2.0,0.0,,,,,,65bbae0c9be9bb4d76ae2c18,09:06:16,27/02/2024
html-keyboard-response,3,5421,0.0-2.0-1.0,,"<div style=""display: flex; flex-direction: column; align-items: center; margin-top: -40px;""><img src=""images/demo_images/pattern_1.png"" style=""width: 234px; height: 230px; margin-top: -50px;""><div style=""display: flex; justify-content: space-between; margin-top: 33px;""><img src=""images/demo_images/choice_trial_2.png"" style=""width: 408px; height: 417px; margin-right: 608px;""></div></div>",,delaylearn,learning,display_response,z0hltGsWycaNSsd7fakCb3NwOLt1,z0hltGsWycaNSsd7fakCb3NwOLt1,,,,,,,,,,,,,,,,,chosen stimuli: images/demo_images/choice_trial_2.png,,,,,65bbae0c9be9bb4d76ae2c18,09:06:16,27/02/2024
html-keyboard-response,4,8430,0.0-2.0-2.0,,,,delaylearn,learning,feedback_duration_window,z0hltGsWycaNSsd7fakCb3NwOLt1,z0hltGsWycaNSsd7fakCb3NwOLt1,,,,,,,,,,,,,,,,,,3000.0,,,,65bbae0c9be9bb4d76ae2c18,09:06:16,27/02/2024
html-keyboard-response,5,9939,0.0-2.0-3.0,,<div style='margin:auto;width: auto; font-size: 150%'><span style='font-weight: bold; font-size: 100px; color: red;'>0 points!</span><br><br></div>,,delaylearn,learning,feedback_image_window,z0hltGsWycaNSsd7fakCb3NwOLt1,z0hltGsWycaNSsd7fakCb3NwOLt1,,,,,,,,,,,,,,,,,,,,,,65bbae0c9be9bb4d76ae2c18,09:06:16,27/02/2024
html-keyboard-response,6,11493,0.0-3.0,,"<div style=""font-size:100px;"">+</div>",,delaylearn,learning,ITI,z0hltGsWycaNSsd7fakCb3NwOLt1,z0hltGsWycaNSsd7fakCb3NwOLt1,,,,,,,,,,,,,,,,,,,1543.0,,,65bbae0c9be9bb4d76ae2c18,09:06:16,27/02/2024
html-keyboard-response,7,13118,0.0-4.0-0.0,1623.0,"<div style=""display: flex; flex-direction: column; align-items: center; margin-top: -40px;""><img src=""images/demo_images/pattern_1.png"" style=""width: 234px; height: 230px; margin-top: -50px;""><div style=""display: flex; justify-content: space-between; margin-top: 33px;""><img src=""images/demo_images/choice_trial_2.png"" style=""width: 408px; height: 417px; margin-right: 200px;""><img src=""images/demo_images/choice_trial_1.png"" style=""width: 408px; height: 417px;""></div></div>",j,delaylearn,learning,trial,z0hltGsWycaNSsd7fakCb3NwOLt1,z0hltGsWycaNSsd7fakCb3NwOLt1,2.0,images/demo_images/choice_trial_2.png,images/demo_images/choice_trial_1.png,images/demo_images/pattern_1.png,j,j,3000.0,2.0,1.0,20.0,1.0,2.0,1.0,1.0,1.0,10.0,,,,,,65bbae0c9be9bb4d76ae2c18,09:06:16,27/02/2024
html-keyboard-response,8,14122,0.0-4.0-1.0,,"<div style=""display: flex; flex-direction: column; align-items: center; margin-top: -40px;""><img src=""images/demo_images/pattern_1.png"" style=""width: 234px; height: 230px; margin-top: -50px;""><div style=""display: flex; justify-content: space-between; margin-top: 33px;""><img src=""images/demo_images/choice_trial_1.png"" style=""width: 408px; height: 417px; margin-left:608px;""></div></div>",,delaylearn,learning,display_response,z0hltGsWycaNSsd7fakCb3NwOLt1,z0hltGsWycaNSsd7fakCb3NwOLt1,,,,,,,,,,,,,,,,,chosen stimuli: images/demo_images/choice_trial_1.png,,,,,65bbae0c9be9bb4d76ae2c18,09:06:16,27/02/2024
html-keyboard-response,9,17128,0.0-4.0-2.0,,,,delaylearn,learning,feedback_duration_window,z0hltGsWycaNSsd7fakCb3NwOLt1,z0hltGsWycaNSsd7fakCb3NwOLt1,,,,,,,,,,,,,,,,,,3000.0,,,,65bbae0c9be9bb4d76ae2c18,09:06:16,27/02/2024
html-keyboard-response,10,18633,0.0-4.0-3.0,,<div style='margin:auto;width: auto; font-size: 150%'><span style='font-weight: bold; font-size: 100px; color: green;'>+10 points!</span><br><br></div>,,delaylearn,learning,feedback_image_window,z0hltGsWycaNSsd7fakCb3NwOLt1,z0hltGsWycaNSsd7fakCb3NwOLt1,,,,,,,,,,,,,,,,,,,,,,65bbae0c9be9bb4d76ae2c18,09:06:16,27/02/2024
html-keyboard-response,11,20583,0.0-5.0,,"<div style=""font-size:100px;"">+</div>",,delaylearn,learning,ITI,z0hltGsWycaNSsd7fakCb3NwOLt1,z0hltGsWycaNSsd7fakCb3NwOLt1,,,,,,,,,,,,,,,,,,,1934.0,,,65bbae0c9be9bb4d76ae2c18,09:06:16,27/02/2024
html-keyboard-response,12,21839,0.0-6.0-0.0,1255.0,"<div style=""display: flex; flex-direction: column; align-items: center; margin-top: -40px;""><img src=""images/demo_images/pattern_1.png"" style=""width: 234px; height: 230px; margin-top: -50px;""><div style=""display: flex; justify-content: space-between; margin-top: 33px;""><img src=""images/demo_images/choice_trial_1.png"" style=""width: 408px; height: 417px; margin-right: 200px;""><img src=""images/demo_images/choice_trial_2.png"" style=""width: 408px; height: 417px;""></div></div>",f,delaylearn,learning,trial,z0hltGsWycaNSsd7fakCb3NwOLt1,z0hltGsWycaNSsd7fakCb3NwOLt1,2.0,images/demo_images/choice_trial_1.png,images/demo_images/choice_trial_2.png,images/demo_images/pattern_1.png,j,f,3000.0,1.0,2.0,20.0,0.0,3.0,1.0,0.0,1.0,10.0,,,,,,65bbae0c9be9bb4d76ae2c18,09:06:16,27/02/2024
html-keyboard-response,13,22847,0.0-6.0-1.0,,"<div style=""display: flex; flex-direction: column; align-items: center; margin-top: -40px;""><img src=""images/demo_images/pattern_1.png"" style=""width: 234px; height: 230px; margin-top: -50px;""><div style=""display: flex; justify-content: space-between; margin-top: 33px;""><img src=""images/demo_images/choice_trial_1.png"" style=""width: 408px; height: 417px; margin-right: 608px;""></div></div>",,delaylearn,learning,display_response,z0hltGsWycaNSsd7fakCb3NwOLt1,z0hltGsWycaNSsd7fakCb3NwOLt1,,,,,,,,,,,,,,,,,chosen stimuli: images/demo_images/choice_trial_1.png,,,,,65bbae0c9be9bb4d76ae2c18,09:06:16,27/02/2024
html-keyboard-response,14,25874,0.0-6.0-2.0,,,,delaylearn,learning,feedback_duration_window,z0hltGsWycaNSsd7fakCb3NwOLt1,z0hltGsWycaNSsd7fakCb3NwOLt1,,,,,,,,,,,,,,,,,,3000.0,,,,65bbae0c9be9bb4d76ae2c18,09:06:16,27/02/2024
html-keyboard-response,15,27383,0.0-6.0-3.0,,<div style='margin:auto;width: auto; font-size: 150%'><span style='font-weight: bold; font-size: 100px; color: red;'>0 points!</span><br><br></div>,,delaylearn,learning,feedback_image_window,z0hltGsWycaNSsd7fakCb3NwOLt1,z0hltGsWycaNSsd7fakCb3NwOLt1,,,,,,,,,,,,,,,,,,,,,,65bbae0c9be9bb4d76ae2c18,09:06:16,27/02/2024
html-keyboard-response,16,29732,0.0-7.0,,"<div style=""font-size:100px;"">+</div>",,delaylearn,learning,ITI,z0hltGsWycaNSsd7fakCb3NwOLt1,z0hltGsWycaNSsd7fakCb3NwOLt1,,,,,,,,,,,,,,,,,,,2346.0,,,65bbae0c9be9bb4d76ae2c18,09:06:16,27/02/2024
html-keyboard-response,17,32188,0.0-8.0-0.0,2454.0,"<div style=""display: flex; flex-direction: column; align-items: center; margin-top: -40px;""><img src=""images/demo_images/pattern_1.png"" style=""width: 234px; height: 230px; margin-top: -50px;""><div style=""display: flex; justify-content: space-between; margin-top: 33px;""><img src=""images/demo_images/choice_trial_1.png"" style=""width: 408px; height: 417px; margin-right: 200px;""><img src=""images/demo_images/choice_trial_2.png"" style=""width: 408px; height: 417px;""></div></div>",f,delaylearn,learning,trial,z0hltGsWycaNSsd7fakCb3NwOLt1,z0hltGsWycaNSsd7fakCb3NwOLt1,2.0,images/demo_images/choice_trial_1.png,images/demo_images/choice_trial_2.png,images/demo_images/pattern_1.png,f,f,3000.0,1.0,2.0,20.0,0.0,4.0,1.0,1.0,1.0,20.0,,,,,,65bbae0c9be9bb4d76ae2c18,09:06:16,27/02/2024
html-keyboard-response,18,33193,0.0-8.0-1.0,,"<div style=""display: flex; flex-direction: column; align-items: center; margin-top: -40px;""><img src=""images/demo_images/pattern_1.png"" style=""width: 234px; height: 230px; margin-top: -50px;""><div style=""display: flex; justify-content: space-between; margin-top: 33px;""><img src=""images/demo_images/choice_trial_1.png"" style=""width: 408px; height: 417px; margin-right: 608px;""></div></div>",,delaylearn,learning,display_response,z0hltGsWycaNSsd7fakCb3NwOLt1,z0hltGsWycaNSsd7fakCb3NwOLt1,,,,,,,,,,,,,,,,,chosen stimuli: images/demo_images/choice_trial_1.png,,,,,65bbae0c9be9bb4d76ae2c18,09:06:16,27/02/2024
html-keyboard-response,19,36207,0.0-8.0-2.0,,,,delaylearn,learning,feedback_duration_window,z0hltGsWycaNSsd7fakCb3NwOLt1,z0hltGsWycaNSsd7fakCb3NwOLt1,,,,,,,,,,,,,,,,,,3000.0,,,,65bbae0c9be9bb4d76ae2c18,09:06:16,27/02/2024
html-keyboard-response,20,37723,0.0-8.0-3.0,,<div style='margin:auto;width: auto; font-size: 150%'><span style='font-weight: bold; font-size: 100px; color: green;'>+10 points!</span><br><br></div>,,delaylearn,learning,feedback_image_window,z0hltGsWycaNSsd7fakCb3NwOLt1,z0hltGsWycaNSsd7fakCb3NwOLt1,,,,,,,,,,,,,,,,,,,,,,65bbae0c9be9bb4d76ae2c18,09:06:16,27/02/2024
html-keyboard-response,21,38224,0.0-9.0-0.0,,,,,,mood_trial_fixation,z0hltGsWycaNSsd7fakCb3NwOLt1,,,,,,,,,,,,,,,,,,,,,,,65bbae0c9be9bb4d76ae2c18,09:06:16,27/02/2024
lmdlab-html-vas-response,22,43465,0.0-9.0-1.0,4238.0,How happy are you right now?,0.5138888888888888,delaylearn,learning,mood_trial,z0hltGsWycaNSsd7fakCb3NwOLt1,z0hltGsWycaNSsd7fakCb3NwOLt1,,,,,,,,,,,,,,,,,,,,"['Very unhappy', 'Very happy']",,65bbae0c9be9bb4d76ae2c18,09:06:16,27/02/2024
html-keyboard-response,23,45778,0.0-10.0,,"<div style=""font-size:100px;"">+</div>",,delaylearn,learning,ITI,z0hltGsWycaNSsd7fakCb3NwOLt1,z0hltGsWycaNSsd7fakCb3NwOLt1,,,,,,,,,,,,,,,,,,,2299.0,,,65bbae0c9be9bb4d76ae2c18,09:06:16,27/02/2024
html-keyboard-response,24,46825,0.0-11.0-0.0,1046.0,"<div style=""display: flex; flex-direction: column; align-items: center; margin-top: -40px;""><img src=""images/demo_images/pattern_1.png"" style=""width: 234px; height: 230px; margin-top: -50px;""><div style=""display: flex; justify-content: space-between; margin-top: 33px;""><img src=""images/demo_images/choice_trial_2.png"" style=""width: 408px; height: 417px; margin-right: 200px;""><img src=""images/demo_images/choice_trial_1.png"" style=""width: 408px; height: 417px;""></div></div>",j,delaylearn,learning,trial,z0hltGsWycaNSsd7fakCb3NwOLt1,z0hltGsWycaNSsd7fakCb3NwOLt1,2.0,images/demo_images/choice_trial_2.png,images/demo_images/choice_trial_1.png,images/demo_images/pattern_1.png,j,j,3000.0,2.0,1.0,20.0,1.0,5.0,1.0,1.0,1.0,30.0,,,,,,65bbae0c9be9bb4d76ae2c18,09:06:16,27/02/2024
html-keyboard-response,25,47834,0.0-11.0-1.0,,"<div style=""display: flex; flex-direction: column; align-items: center; margin-top: -40px;""><img src=""images/demo_images/pattern_1.png"" style=""width: 234px; height: 230px; margin-top: -50px;""><div style=""display: flex; justify-content: space-between; margin-top: 33px;""><img src=""images/demo_images/choice_trial_1.png"" style=""width: 408px; height: 417px; margin-left:608px;""></div></div>",,delaylearn,learning,display_response,z0hltGsWycaNSsd7fakCb3NwOLt1,z0hltGsWycaNSsd7fakCb3NwOLt1,,,,,,,,,,,,,,,,,chosen stimuli: images/demo_images/choice_trial_1.png,,,,,65bbae0c9be9bb4d76ae2c18,09:06:16,27/02/2024
html-keyboard-response,26,50844,0.0-11.0-2.0,,,,delaylearn,learning,feedback_duration_window,z0hltGsWycaNSsd7fakCb3NwOLt1,z0hltGsWycaNSsd7fakCb3NwOLt1,,,,,,,,,,,,,,,,,,3000.0,,,,65bbae0c9be9bb4d76ae2c18,09:06:16,27/02/2024
html-keyboard-response,27,52352,0.0-11.0-3.0,,<div style='margin:auto;width: auto; font-size: 150%'><span style='font-weight: bold; font-size: 100px; color: green;'>+10 points!</span><br><br></div>,,delaylearn,learning,feedback_image_window,z0hltGsWycaNSsd7fakCb3NwOLt1,z0hltGsWycaNSsd7fakCb3NwOLt1,,,,,,,,,,,,,,,,,,,,,,65bbae0c9be9bb4d76ae2c18,09:06:16,27/02/2024
html-keyboard-response,28,54710,0.0-12.0,,"<div style=""font-size:100px;"">+</div>",,delaylearn,learning,ITI,z0hltGsWycaNSsd7fakCb3NwOLt1,z0hltGsWycaNSsd7fakCb3NwOLt1,,,,,,,,,,,,,,,,,,,2353.0,,,65bbae0c9be9bb4d76ae2c18,09:06:16,27/02/2024
html-keyboard-response,29,55682,0.0-13.0-0.0,971.0,"<div style=""display: flex; flex-direction: column; align-items: center; margin-top: -40px;""><img src=""images/demo_images/pattern_1.png"" style=""width: 234px; height: 230px; margin-top: -50px;""><div style=""display: flex; justify-content: space-between; margin-top: 33px;""><img src=""images/demo_images/choice_trial_1.png"" style=""width: 408px; height: 417px; margin-right: 200px;""><img src=""images/demo_images/choice_trial_2.png"" style=""width: 408px; height: 417px;""></div></div>",f,delaylearn,learning,trial,z0hltGsWycaNSsd7fakCb3NwOLt1,z0hltGsWycaNSsd7fakCb3NwOLt1,2.0,images/demo_images/choice_trial_1.png,images/demo_images/choice_trial_2.png,images/demo_images/pattern_1.png,f,f,3000.0,1.0,2.0,20.0,0.0,6.0,1.0,1.0,1.0,40.0,,,,,,65bbae0c9be9bb4d76ae2c18,09:06:16,27/02/2024
html-keyboard-response,30,56691,0.0-13.0-1.0,,"<div style=""display: flex; flex-direction: column; align-items: center; margin-top: -40px;""><img src=""images/demo_images/pattern_1.png"" style=""width: 234px; height: 230px; margin-top: -50px;""><div style=""display: flex; justify-content: space-between; margin-top: 33px;""><img src=""images/demo_images/choice_trial_1.png"" style=""width: 408px; height: 417px; margin-right: 608px;""></div></div>",,delaylearn,learning,display_response,z0hltGsWycaNSsd7fakCb3NwOLt1,z0hltGsWycaNSsd7fakCb3NwOLt1,,,,,,,,,,,,,,,,,chosen stimuli: images/demo_images/choice_trial_1.png,,,,,65bbae0c9be9bb4d76ae2c18,09:06:16,27/02/2024
html-keyboard-response,31,59694,0.0-13.0-2.0,,,,delaylearn,learning,feedback_duration_window,z0hltGsWycaNSsd7fakCb3NwOLt1,z0hltGsWycaNSsd7fakCb3NwOLt1,,,,,,,,,,,,,,,,,,3000.0,,,,65bbae0c9be9bb4d76ae2c18,09:06:16,27/02/2024
html-keyboard-response,32,61199,0.0-13.0-3.0,,<div style='margin:auto;width: auto; font-size: 150%'><span style='font-weight: bold; font-size: 100px; color: green;'>+10 points!</span><br><br></div>,,delaylearn,learning,feedback_image_window,z0hltGsWycaNSsd7fakCb3NwOLt1,z0hltGsWycaNSsd7fakCb3NwOLt1,,,,,,,,,,,,,,,,,,,,,,65bbae0c9be9bb4d76ae2c18,09:06:16,27/02/2024
html-button-response,33,1148225,0.0-14.0,1087025.0,"
  <div style=""display: flex; align-items: center; justify-content: center; height: 80vh;"">
  <div>
          <img src=""images/inst_demo_finish.png"" style=""width: 80vw; height:auto;"">
          <br><br>
      </div>
      <br><br>
  </div>",0,,,,z0hltGsWycaNSsd7fakCb3NwOLt1,,,,,,,,,,,,,,,,,,,,,,,65bbae0c9be9bb4d76ae2c18,09:06:16,27/02/2024
html-keyboard-response,34,1151429,0.0-15.0,3202.0,"
  <div style=""display: flex; align-items: center; justify-content: center; height: 80vh;"">
  <div>
          <img src=""images/inst_6.png"" style=""width: 80vw; height:auto;"">
          <br><br>
      </div>
      <br><br>
  </div>",f,,,,z0hltGsWycaNSsd7fakCb3NwOLt1,,,,,,,,,,,,,,,,,,,,,,,65bbae0c9be9bb4d76ae2c18,09:06:16,27/02/2024
html-keyboard-response,35,1154432,0.0-16.0,,"<div style=""font-size:100px;"">+</div>",,delaylearn,learning,pre_fixation,z0hltGsWycaNSsd7fakCb3NwOLt1,,,,,,,,,,,,,,,,,,,,,,,65bbae0c9be9bb4d76ae2c18,09:06:16,27/02/2024
html-keyboard-response,36,1156686,0.0-17.0,,"<div style=""font-size:100px;"">+</div>",,delaylearn,learning,ITI,z0hltGsWycaNSsd7fakCb3NwOLt1,z0hltGsWycaNSsd7fakCb3NwOLt1,,,,,,,,,,,,,,,,,,,2238.0,,,65bbae0c9be9bb4d76ae2c18,09:06:16,27/02/2024
html-keyboard-response,37,1157441,0.0-18.0-0.0,754.0,"<div style=""display: flex; flex-direction: column; align-items: center; margin-top: -40px;""><img src=""images/pattern_3.png"" style=""width: 234px; height: 230px; margin-top: -50px;""><div style=""display: flex; justify-content: space-between; margin-top: 33px;""><img src=""images/choice_trial_12.png"" style=""width: 408px; height: 417px; margin-right: 200px;""><img src=""images/choice_trial_14.png"" style=""width: 408px; height: 417px;""></div></div>",f,delaylearn,learning,trial,z0hltGsWycaNSsd7fakCb3NwOLt1,z0hltGsWycaNSsd7fakCb3NwOLt1,2.0,images/choice_trial_12.png,images/choice_trial_14.png,images/pattern_3.png,f,f,7000.0,12.0,14.0,2.0,0.0,7.0,1.0,1.0,12.0,50.0,,,,,,65bbae0c9be9bb4d76ae2c18,09:06:16,27/02/2024
html-keyboard-response,38,1158456,0.0-18.0-1.0,,"<div style=""display: flex; flex-direction: column; align-items: center; margin-top: -40px;""><img src=""images/pattern_3.png"" style=""width: 234px; height: 230px; margin-top: -50px;""><div style=""display: flex; justify-content: space-between; margin-top: 33px;""><img src=""images/choice_trial_12.png"" style=""width: 408px; height: 417px; margin-right: 608px;""></div></div>",,delaylearn,learning,display_response,z0hltGsWycaNSsd7fakCb3NwOLt1,z0hltGsWycaNSsd7fakCb3NwOLt1,,,,,,,,,,,,,,,,,chosen stimuli: images/choice_trial_12.png,,,,,65bbae0c9be9bb4d76ae2c18,09:06:16,27/02/2024
html-keyboard-response,39,1165467,0.0-18.0-2.0,,,,delaylearn,learning,feedback_duration_window,z0hltGsWycaNSsd7fakCb3NwOLt1,z0hltGsWycaNSsd7fakCb3NwOLt1,,,,,,,,,,,,,,,,,,7000.0,,,,65bbae0c9be9bb4d76ae2c18,09:06:16,27/02/2024
html-keyboard-response,40,1166974,0.0-18.0-3.0,,<div style='margin:auto;width: auto; font-size: 150%'><span style='font-weight: bold; font-size: 100px; color: green;'>+10 points!</span><br><br></div>,,delaylearn,learning,feedback_image_window,z0hltGsWycaNSsd7fakCb3NwOLt1,z0hltGsWycaNSsd7fakCb3NwOLt1,,,,,,,,,,,,,,,,,,,,,,65bbae0c9be9bb4d76ae2c18,09:06:16,27/02/2024
html-keyboard-response,41,1169236,0.0-19.0,,"<div style=""font-size:100px;"">+</div>",,delaylearn,learning,ITI,z0hltGsWycaNSsd7fakCb3NwOLt1,z0hltGsWycaNSsd7fakCb3NwOLt1,,,,,,,,,,,,,,,,,,,2256.0,,,65bbae0c9be9bb4d76ae2c18,09:06:16,27/02/2024
html-keyboard-response,42,1171379,0.0-20.0-0.0,2141.0,"<div style=""display: flex; flex-direction: column; align-items: center; margin-top: -40px;""><img src=""images/pattern_7.png"" style=""width: 234px; height: 230px; margin-top: -50px;""><div style=""display: flex; justify-content: space-between; margin-top: 33px;""><img src=""images/choice_trial_15.png"" style=""width: 408px; height: 417px; margin-right: 200px;""><img src=""images/choice_trial_8.png"" style=""width: 408px; height: 417px;""></div></div>",f,delaylearn,learning,trial,z0hltGsWycaNSsd7fakCb3NwOLt1,z0hltGsWycaNSsd7fakCb3NwOLt1,2.0,images/choice_trial_15.png,images/choice_trial_8.png,images/pattern_7.png,j,j,750.0,15.0,8.0,6.0,1.0,8.0,0.0,0.0,15.0,50.0,,,,,,65bbae0c9be9bb4d76ae2c18,09:06:16,27/02/2024
html-keyboard-response,43,1172388,0.0-20.0-1.0,,"<div style=""display: flex; flex-direction: column; align-items: center; margin-top: -40px;""><img src=""images/pattern_7.png"" style=""width: 234px; height: 230px; margin-top: -50px;""><div style=""display: flex; justify-content: space-between; margin-top: 33px;""><img src=""images/choice_trial_15.png"" style=""width: 408px; height: 417px; margin-right: 608px;""></div></div>",,delaylearn,learning,display_response,z0hltGsWycaNSsd7fakCb3NwOLt1,z0hltGsWycaNSsd7fakCb3NwOLt1,,,,,,,,,,,,,,,,,chosen stimuli: images/choice_trial_15.png,,,,,65bbae0c9be9bb4d76ae2c18,09:06:16,27/02/2024
html-keyboard-response,44,1173150,0.0-20.0-2.0,,,,delaylearn,learning,feedback_duration_window,z0hltGsWycaNSsd7fakCb3NwOLt1,z0hltGsWycaNSsd7fakCb3NwOLt1,,,,,,,,,,,,,,,,,,750.0,,,,65bbae0c9be9bb4d76ae2c18,09:06:16,27/02/2024
html-keyboard-response,45,1174664,0.0-20.0-3.0,,<div style='margin:auto;width: auto; font-size: 150%'><span style='font-weight: bold; font-size: 100px; color: red;'>0 points!</span><br><br></div>,,delaylearn,learning,feedback_image_window,z0hltGsWycaNSsd7fakCb3NwOLt1,z0hltGsWycaNSsd7fakCb3NwOLt1,,,,,,,,,,,,,,,,,,,,,,65bbae0c9be9bb4d76ae2c18,09:06:16,27/02/2024
html-keyboard-response,46,1177024,0.0-21.0,,"<div style=""font-size:100px;"">+</div>",,delaylearn,learning,ITI,z0hltGsWycaNSsd7fakCb3NwOLt1,z0hltGsWycaNSsd7fakCb3NwOLt1,,,,,,,,,,,,,,,,,,,2358.0,,,65bbae0c9be9bb4d76ae2c18,09:06:16,27/02/2024
html-keyboard-response,47,1179068,0.0-22.0-0.0,2044.0,"<div style=""display: flex; flex-direction: column; align-items: center; margin-top: -40px;""><img src=""images/pattern_4.png"" style=""width: 234px; height: 230px; margin-top: -50px;""><div style=""display: flex; justify-content: space-between; margin-top: 33px;""><img src=""images/choice_trial_4.png"" style=""width: 408px; height: 417px; margin-right: 200px;""><img src=""images/choice_trial_16.png"" style=""width: 408px; height: 417px;""></div></div>",j,delaylearn,learning,trial,z0hltGsWycaNSsd7fakCb3NwOLt1,z0hltGsWycaNSsd7fakCb3NwOLt1,2.0,images/choice_trial_4.png,images/choice_trial_16.png,images/pattern_4.png,f,f,7000.0,4.0,16.0,3.0,0.0,9.0,0.0,0.0,16.0,50.0,,,,,,65bbae0c9be9bb4d76ae2c18,09:06:16,27/02/2024
html-keyboard-response,48,1180073,0.0-22.0-1.0,,"<div style=""display: flex; flex-direction: column; align-items: center; margin-top: -40px;""><img src=""images/pattern_4.png"" style=""width: 234px; height: 230px; margin-top: -50px;""><div style=""display: flex; justify-content: space-between; margin-top: 33px;""><img src=""images/choice_trial_16.png"" style=""width: 408px; height: 417px; margin-left:608px;""></div></div>",,delaylearn,learning,display_response,z0hltGsWycaNSsd7fakCb3NwOLt1,z0hltGsWycaNSsd7fakCb3NwOLt1,,,,,,,,,,,,,,,,,chosen stimuli: images/choice_trial_16.png,,,,,65bbae0c9be9bb4d76ae2c18,09:06:16,27/02/2024
html-keyboard-response,49,1187088,0.0-22.0-2.0,,,,delaylearn,learning,feedback_duration_window,z0hltGsWycaNSsd7fakCb3NwOLt1,z0hltGsWycaNSsd7fakCb3NwOLt1,,,,,,,,,,,,,,,,,,7000.0,,,,65bbae0c9be9bb4d76ae2c18,09:06:16,27/02/2024
html-keyboard-response,50,1188591,0.0-22.0-3.0,,<div style='margin:auto;width: auto; font-size: 150%'><span style='font-weight: bold; font-size: 100px; color: red;'>0 points!</span><br><br></div>,,delaylearn,learning,feedback_image_window,z0hltGsWycaNSsd7fakCb3NwOLt1,z0hltGsWycaNSsd7fakCb3NwOLt1,,,,,,,,,,,,,,,,,,,,,,65bbae0c9be9bb4d76ae2c18,09:06:16,27/02/2024
html-keyboard-response,51,1190785,0.0-23.0,,"<div style=""font-size:100px;"">+</div>",,delaylearn,learning,ITI,z0hltGsWycaNSsd7fakCb3NwOLt1,z0hltGsWycaNSsd7fakCb3NwOLt1,,,,,,,,,,,,,,,,,,,2189.0,,,65bbae0c9be9bb4d76ae2c18,09:06:16,27/02/2024
html-keyboard-response,52,1193416,0.0-24.0-0.0,2629.0,"<div style=""display: flex; flex-direction: column; align-items: center; margin-top: -40px;""><img src=""images/pattern_5.png"" style=""width: 234px; height: 230px; margin-top: -50px;""><div style=""display: flex; justify-content: space-between; margin-top: 33px;""><img src=""images/choice_trial_9.png"" style=""width: 408px; height: 417px; margin-right: 200px;""><img src=""images/choice_trial_2.png"" style=""width: 408px; height: 417px;""></div></div>",j,delaylearn,learning,trial,z0hltGsWycaNSsd7fakCb3NwOLt1,z0hltGsWycaNSsd7fakCb3NwOLt1,2.0,images/choice_trial_9.png,images/choice_trial_2.png,images/pattern_5.png,j,j,750.0,9.0,2.0,4.0,1.0,10.0,1.0,1.0,2.0,60.0,,,,,,65bbae0c9be9bb4d76ae2c18,09:06:16,27/02/2024
html-keyboard-response,53,1194423,0.0-24.0-1.0,,"<div style=""display: flex; flex-direction: column; align-items: center; margin-top: -40px;""><img src=""images/pattern_5.png"" style=""width: 234px; height: 230px; margin-top: -50px;""><div style=""display: flex; justify-content: space-between; margin-top: 33px;""><img src=""images/choice_trial_2.png"" style=""width: 408px; height: 417px; margin-left:608px;""></div></div>",,delaylearn,learning,display_response,z0hltGsWycaNSsd7fakCb3NwOLt1,z0hltGsWycaNSsd7fakCb3NwOLt1,,,,,,,,,,,,,,,,,chosen stimuli: images/choice_trial_2.png,,,,,65bbae0c9be9bb4d76ae2c18,09:06:16,27/02/2024
html-keyboard-response,54,1195185,0.0-24.0-2.0,,,,delaylearn,learning,feedback_duration_window,z0hltGsWycaNSsd7fakCb3NwOLt1,z0hltGsWycaNSsd7fakCb3NwOLt1,,,,,,,,,,,,,,,,,,750.0,,,,65bbae0c9be9bb4d76ae2c18,09:06:16,27/02/2024
html-keyboard-response,55,1196690,0.0-24.0-3.0,,<div style='margin:auto;width: auto; font-size: 150%'><span style='font-weight: bold; font-size: 100px; color: green;'>+10 points!</span><br><br></div>,,delaylearn,learning,feedback_image_window,z0hltGsWycaNSsd7fakCb3NwOLt1,z0hltGsWycaNSsd7fakCb3NwOLt1,,,,,,,,,,,,,,,,,,,,,,65bbae0c9be9bb4d76ae2c18,09:06:16,27/02/2024
html-keyboard-response,56,1198340,0.0-25.0,,"<div style=""font-size:100px;"">+</div>",,delaylearn,learning,ITI,z0hltGsWycaNSsd7fakCb3NwOLt1,z0hltGsWycaNSsd7fakCb3NwOLt1,,,,,,,,,,,,,,,,,,,1642.0,,,65bbae0c9be9bb4d76ae2c18,09:06:16,27/02/2024
html-keyboard-response,57,1200983,0.0-26.0-0.0,2642.0,"<div style=""display: flex; flex-direction: column; align-items: center; margin-top: -40px;""><img src=""images/pattern_6.png"" style=""width: 234px; height: 230px; margin-top: -50px;""><div style=""display: flex; justify-content: space-between; margin-top: 33px;""><img src=""images/choice_trial_11.png"" style=""width: 408px; height: 417px; margin-right: 200px;""><img src=""images/choice_trial_5.png"" style=""width: 408px; height: 417px;""></div></div>",f,delaylearn,learning,trial,z0hltGsWycaNSsd7fakCb3NwOLt1,z0hltGsWycaNSsd7fakCb3NwOLt1,2.0,images/choice_trial_11.png,images/choice_trial_5.png,images/pattern_6.png,j,f,750.0,11.0,5.0,5.0,0.0,11.0,1.0,0.0,11.0,60.0,,,,,,65bbae0c9be9bb4d76ae2c18,09:06:16,27/02/2024
html-keyboard-response,58,1201996,0.0-26.0-1.0,,"<div style=""display: flex; flex-direction: column; align-items: center; margin-top: -40px;""><img src=""images/pattern_6.png"" style=""width: 234px; height: 230px; margin-top: -50px;""><div style=""display: flex; justify-content: space-between; margin-top: 33px;""><img src=""images/choice_trial_11.png"" style=""width: 408px; height: 417px; margin-right: 608px;""></div></div>",,delaylearn,learning,display_response,z0hltGsWycaNSsd7fakCb3NwOLt1,z0hltGsWycaNSsd7fakCb3NwOLt1,,,,,,,,,,,,,,,,,chosen stimuli: images/choice_trial_11.png,,,,,65bbae0c9be9bb4d76ae2c18,09:06:16,27/02/2024
html-keyboard-response,59,1202746,0.0-26.0-2.0,,,,delaylearn,learning,feedback_duration_window,z0hltGsWycaNSsd7fakCb3NwOLt1,z0hltGsWycaNSsd7fakCb3NwOLt1,,,,,,,,,,,,,,,,,,750.0,,,,65bbae0c9be9bb4d76ae2c18,09:06:16,27/02/2024
html-keyboard-response,60,1204260,0.0-26.0-3.0,,<div style='margin:auto;width: auto; font-size: 150%'><span style='font-weight: bold; font-size: 100px; color: red;'>0 points!</span><br><br></div>,,delaylearn,learning,feedback_image_window,z0hltGsWycaNSsd7fakCb3NwOLt1,z0hltGsWycaNSsd7fakCb3NwOLt1,,,,,,,,,,,,,,,,,,,,,,65bbae0c9be9bb4d76ae2c18,09:06:16,27/02/2024
html-keyboard-response,61,1204766,0.0-27.0-0.0,,,,,,mood_trial_fixation,z0hltGsWycaNSsd7fakCb3NwOLt1,,,,,,,,,,,,,,,,,,,,,,,65bbae0c9be9bb4d76ae2c18,09:06:16,27/02/2024
lmdlab-html-vas-response,62,1209874,0.0-27.0-1.0,4105.0,How happy are you right now?,0.5,delaylearn,learning,mood_trial,z0hltGsWycaNSsd7fakCb3NwOLt1,z0hltGsWycaNSsd7fakCb3NwOLt1,,,,,,,,,,,,,,,,,,,,"['Very unhappy', 'Very happy']",,65bbae0c9be9bb4d76ae2c18,09:06:16,27/02/2024
html-keyboard-response,63,1211590,0.0-28.0,,"<div style=""font-size:100px;"">+</div>",,delaylearn,learning,ITI,z0hltGsWycaNSsd7fakCb3NwOLt1,z0hltGsWycaNSsd7fakCb3NwOLt1,,,,,,,,,,,,,,,,,,,1712.0,,,65bbae0c9be9bb4d76ae2c18,09:06:16,27/02/2024
html-keyboard-response,64,1213627,0.0-29.0-0.0,2036.0,"<div style=""display: flex; flex-direction: column; align-items: center; margin-top: -40px;""><img src=""images/pattern_1.png"" style=""width: 234px; height: 230px; margin-top: -50px;""><div style=""display: flex; justify-content: space-between; margin-top: 33px;""><img src=""images/choice_trial_10.png"" style=""width: 408px; height: 417px; margin-right: 200px;""><img src=""images/choice_trial_3.png"" style=""width: 408px; height: 417px;""></div></div>",f,delaylearn,learning,trial,z0hltGsWycaNSsd7fakCb3NwOLt1,z0hltGsWycaNSsd7fakCb3NwOLt1,2.0,images/choice_trial_10.png,images/choice_trial_3.png,images/pattern_1.png,j,j,7000.0,10.0,3.0,1.0,1.0,12.0,0.0,0.0,10.0,60.0,,,,,,65bbae0c9be9bb4d76ae2c18,09:06:16,27/02/2024
html-keyboard-response,65,1214642,0.0-29.0-1.0,,"<div style=""display: flex; flex-direction: column; align-items: center; margin-top: -40px;""><img src=""images/pattern_1.png"" style=""width: 234px; height: 230px; margin-top: -50px;""><div style=""display: flex; justify-content: space-between; margin-top: 33px;""><img src=""images/choice_trial_10.png"" style=""width: 408px; height: 417px; margin-right: 608px;""></div></div>",,delaylearn,learning,display_response,z0hltGsWycaNSsd7fakCb3NwOLt1,z0hltGsWycaNSsd7fakCb3NwOLt1,,,,,,,,,,,,,,,,,chosen stimuli: images/choice_trial_10.png,,,,,65bbae0c9be9bb4d76ae2c18,09:06:16,27/02/2024
html-keyboard-response,66,1221643,0.0-29.0-2.0,,,,delaylearn,learning,feedback_duration_window,z0hltGsWycaNSsd7fakCb3NwOLt1,z0hltGsWycaNSsd7fakCb3NwOLt1,,,,,,,,,,,,,,,,,,7000.0,,,,65bbae0c9be9bb4d76ae2c18,09:06:16,27/02/2024
html-keyboard-response,67,1223158,0.0-29.0-3.0,,<div style='margin:auto;width: auto; font-size: 150%'><span style='font-weight: bold; font-size: 100px; color: red;'>0 points!</span><br><br></div>,,delaylearn,learning,feedback_image_window,z0hltGsWycaNSsd7fakCb3NwOLt1,z0hltGsWycaNSsd7fakCb3NwOLt1,,,,,,,,,,,,,,,,,,,,,,65bbae0c9be9bb4d76ae2c18,09:06:16,27/02/2024
html-keyboard-response,68,1225208,0.0-30.0,,"<div style=""font-size:100px;"">+</div>",,delaylearn,learning,ITI,z0hltGsWycaNSsd7fakCb3NwOLt1,z0hltGsWycaNSsd7fakCb3NwOLt1,,,,,,,,,,,,,,,,,,,2039.0,,,65bbae0c9be9bb4d76ae2c18,09:06:16,27/02/2024
html-keyboard-response,69,1227474,0.0-31.0-0.0,2261.0,"<div style=""display: flex; flex-direction: column; align-items: center; margin-top: -40px;""><img src=""images/pattern_3.png"" style=""width: 234px; height: 230px; margin-top: -50px;""><div style=""display: flex; justify-content: space-between; margin-top: 33px;""><img src=""images/choice_trial_14.png"" style=""width: 408px; height: 417px; margin-right: 200px;""><img src=""images/choice_trial_12.png"" style=""width: 408px; height: 417px;""></div></div>",f,delaylearn,learning,trial,z0hltGsWycaNSsd7fakCb3NwOLt1,z0hltGsWycaNSsd7fakCb3NwOLt1,2.0,images/choice_trial_14.png,images/choice_trial_12.png,images/pattern_3.png,f,j,7000.0,14.0,12.0,2.0,1.0,13.0,0.0,1.0,14.0,70.0,,,,,,65bbae0c9be9bb4d76ae2c18,09:06:16,27/02/2024
html-keyboard-response,70,1228482,0.0-31.0-1.0,,"<div style=""display: flex; flex-direction: column; align-items: center; margin-top: -40px;""><img src=""images/pattern_3.png"" style=""width: 234px; height: 230px; margin-top: -50px;""><div style=""display: flex; justify-content: space-between; margin-top: 33px;""><img src=""images/choice_trial_14.png"" style=""width: 408px; height: 417px; margin-right: 608px;""></div></div>",,delaylearn,learning,display_response,z0hltGsWycaNSsd7fakCb3NwOLt1,z0hltGsWycaNSsd7fakCb3NwOLt1,,,,,,,,,,,,,,,,,chosen stimuli: images/choice_trial_14.png,,,,,65bbae0c9be9bb4d76ae2c18,09:06:16,27/02/2024
html-keyboard-response,71,1235561,0.0-31.0-2.0,,,,delaylearn,learning,feedback_duration_window,z0hltGsWycaNSsd7fakCb3NwOLt1,z0hltGsWycaNSsd7fakCb3NwOLt1,,,,,,,,,,,,,,,,,,7000.0,,,,65bbae0c9be9bb4d76ae2c18,09:06:16,27/02/2024
html-keyboard-response,72,1237077,0.0-31.0-3.0,,<div style='margin:auto;width: auto; font-size: 150%'><span style='font-weight: bold; font-size: 100px; color: green;'>+10 points!</span><br><br></div>,,delaylearn,learning,feedback_image_window,z0hltGsWycaNSsd7fakCb3NwOLt1,z0hltGsWycaNSsd7fakCb3NwOLt1,,,,,,,,,,,,,,,,,,,,,,65bbae0c9be9bb4d76ae2c18,09:06:16,27/02/2024
html-keyboard-response,73,1238642,0.0-32.0,,"<div style=""font-size:100px;"">+</div>",,delaylearn,learning,ITI,z0hltGsWycaNSsd7fakCb3NwOLt1,z0hltGsWycaNSsd7fakCb3NwOLt1,,,,,,,,,,,,,,,,,,,1552.0,,,65bbae0c9be9bb4d76ae2c18,09:06:16,27/02/2024
html-keyboard-response,74,1240947,0.0-33.0-0.0,2304.0,"<div style=""display: flex; flex-direction: column; align-items: center; margin-top: -40px;""><img src=""images/pattern_5.png"" style=""width: 234px; height: 230px; margin-top: -50px;""><div style=""display: flex; justify-content: space-between; margin-top: 33px;""><img src=""images/choice_trial_2.png"" style=""width: 408px; height: 417px; margin-right: 200px;""><img src=""images/choice_trial_9.png"" style=""width: 408px; height: 417px;""></div></div>",j,delaylearn,learning,trial,z0hltGsWycaNSsd7fakCb3NwOLt1,z0hltGsWycaNSsd7fakCb3NwOLt1,2.0,images/choice_trial_2.png,images/choice_trial_9.png,images/pattern_5.png,f,f,750.0,2.0,9.0,4.0,0.0,14.0,0.0,0.0,9.0,70.0,,,,,,65bbae0c9be9bb4d76ae2c18,09:06:16,27/02/2024
html-keyboard-response,75,1241953,0.0-33.0-1.0,,"<div style=""display: flex; flex-direction: column; align-items: center; margin-top: -40px;""><img src=""images/pattern_5.png"" style=""width: 234px; height: 230px; margin-top: -50px;""><div style=""display: flex; justify-content: space-between; margin-top: 33px;""><img src=""images/choice_trial_9.png"" style=""width: 408px; height: 417px; margin-left:608px;""></div></div>",,delaylearn,learning,display_response,z0hltGsWycaNSsd7fakCb3NwOLt1,z0hltGsWycaNSsd7fakCb3NwOLt1,,,,,,,,,,,,,,,,,chosen stimuli: images/choice_trial_9.png,,,,,65bbae0c9be9bb4d76ae2c18,09:06:16,27/02/2024
html-keyboard-response,76,1242706,0.0-33.0-2.0,,,,delaylearn,learning,feedback_duration_window,z0hltGsWycaNSsd7fakCb3NwOLt1,z0hltGsWycaNSsd7fakCb3NwOLt1,,,,,,,,,,,,,,,,,,750.0,,,,65bbae0c9be9bb4d76ae2c18,09:06:16,27/02/2024
html-keyboard-response,77,1244218,0.0-33.0-3.0,,<div style='margin:auto;width: auto; font-size: 150%'><span style='font-weight: bold; font-size: 100px; color: red;'>0 points!</span><br><br></div>,,delaylearn,learning,feedback_image_window,z0hltGsWycaNSsd7fakCb3NwOLt1,z0hltGsWycaNSsd7fakCb3NwOLt1,,,,,,,,,,,,,,,,,,,,,,65bbae0c9be9bb4d76ae2c18,09:06:16,27/02/2024
html-keyboard-response,78,1244724,0.0-34.0-0.0,,,,,,mood_trial_fixation,z0hltGsWycaNSsd7fakCb3NwOLt1,,,,,,,,,,,,,,,,,,,,,,,65bbae0c9be9bb4d76ae2c18,09:06:16,27/02/2024
lmdlab-html-vas-response,79,1248471,0.0-34.0-1.0,2740.0,How happy are you right now?,0.5,delaylearn,learning,mood_trial,z0hltGsWycaNSsd7fakCb3NwOLt1,z0hltGsWycaNSsd7fakCb3NwOLt1,,,,,,,,,,,,,,,,,,,,"['Very unhappy', 'Very happy']",,65bbae0c9be9bb4d76ae2c18,09:06:16,27/02/2024
html-keyboard-response,80,1250384,0.0-35.0,,"<div style=""font-size:100px;"">+</div>",,delaylearn,learning,ITI,z0hltGsWycaNSsd7fakCb3NwOLt1,z0hltGsWycaNSsd7fakCb3NwOLt1,,,,,,,,,,,,,,,,,,,1900.0,,,65bbae0c9be9bb4d76ae2c18,09:06:16,27/02/2024
html-keyboard-response,81,1252362,0.0-36.0-0.0,1974.0,"<div style=""display: flex; flex-direction: column; align-items: center; margin-top: -40px;""><img src=""images/pattern_6.png"" style=""width: 234px; height: 230px; margin-top: -50px;""><div style=""display: flex; justify-content: space-between; margin-top: 33px;""><img src=""images/choice_trial_11.png"" style=""width: 408px; height: 417px; margin-right: 200px;""><img src=""images/choice_trial_5.png"" style=""width: 408px; height: 417px;""></div></div>",j,delaylearn,learning,trial,z0hltGsWycaNSsd7fakCb3NwOLt1,z0hltGsWycaNSsd7fakCb3NwOLt1,2.0,images/choice_trial_11.png,images/choice_trial_5.png,images/pattern_6.png,f,f,750.0,11.0,5.0,5.0,0.0,15.0,0.0,0.0,5.0,70.0,,,,,,65bbae0c9be9bb4d76ae2c18,09:06:16,27/02/2024
html-keyboard-response,82,1253371,0.0-36.0-1.0,,"<div style=""display: flex; flex-direction: column; align-items: center; margin-top: -40px;""><img src=""images/pattern_6.png"" style=""width: 234px; height: 230px; margin-top: -50px;""><div style=""display: flex; justify-content: space-between; margin-top: 33px;""><img src=""images/choice_trial_5.png"" style=""width: 408px; height: 417px; margin-left:608px;""></div></div>",,delaylearn,learning,display_response,z0hltGsWycaNSsd7fakCb3NwOLt1,z0hltGsWycaNSsd7fakCb3NwOLt1,,,,,,,,,,,,,,,,,chosen stimuli: images/choice_trial_5.png,,,,,65bbae0c9be9bb4d76ae2c18,09:06:16,27/02/2024
html-keyboard-response,83,1254136,0.0-36.0-2.0,,,,delaylearn,learning,feedback_duration_window,z0hltGsWycaNSsd7fakCb3NwOLt1,z0hltGsWycaNSsd7fakCb3NwOLt1,,,,,,,,,,,,,,,,,,750.0,,,,65bbae0c9be9bb4d76ae2c18,09:06:16,27/02/2024
html-keyboard-response,84,1255650,0.0-36.0-3.0,,<div style='margin:auto;width: auto; font-size: 150%'><span style='font-weight: bold; font-size: 100px; color: red;'>0 points!</span><br><br></div>,,delaylearn,learning,feedback_image_window,z0hltGsWycaNSsd7fakCb3NwOLt1,z0hltGsWycaNSsd7fakCb3NwOLt1,,,,,,,,,,,,,,,,,,,,,,65bbae0c9be9bb4d76ae2c18,09:06:16,27/02/2024
html-keyboard-response,85,1257931,0.0-37.0,,"<div style=""font-size:100px;"">+</div>",,delaylearn,learning,ITI,z0hltGsWycaNSsd7fakCb3NwOLt1,z0hltGsWycaNSsd7fakCb3NwOLt1,,,,,,,,,,,,,,,,,,,2277.0,,,65bbae0c9be9bb4d76ae2c18,09:06:16,27/02/2024
html-keyboard-response,86,1259650,0.0-38.0-0.0,1719.0,"<div style=""display: flex; flex-direction: column; align-items: center; margin-top: -40px;""><img src=""images/pattern_4.png"" style=""width: 234px; height: 230px; margin-top: -50px;""><div style=""display: flex; justify-content: space-between; margin-top: 33px;""><img src=""images/choice_trial_16.png"" style=""width: 408px; height: 417px; margin-right: 200px;""><img src=""images/choice_trial_4.png"" style=""width: 408px; height: 417px;""></div></div>",j,delaylearn,learning,trial,z0hltGsWycaNSsd7fakCb3NwOLt1,z0hltGsWycaNSsd7fakCb3NwOLt1,2.0,images/choice_trial_16.png,images/choice_trial_4.png,images/pattern_4.png,j,j,7000.0,16.0,4.0,3.0,1.0,16.0,1.0,1.0,4.0,80.0,,,,,,65bbae0c9be9bb4d76ae2c18,09:06:16,27/02/2024
html-keyboard-response,87,1260658,0.0-38.0-1.0,,"<div style=""display: flex; flex-direction: column; align-items: center; margin-top: -40px;""><img src=""images/pattern_4.png"" style=""width: 234px; height: 230px; margin-top: -50px;""><div style=""display: flex; justify-content: space-between; margin-top: 33px;""><img src=""images/choice_trial_4.png"" style=""width: 408px; height: 417px; margin-left:608px;""></div></div>",,delaylearn,learning,display_response,z0hltGsWycaNSsd7fakCb3NwOLt1,z0hltGsWycaNSsd7fakCb3NwOLt1,,,,,,,,,,,,,,,,,chosen stimuli: images/choice_trial_4.png,,,,,65bbae0c9be9bb4d76ae2c18,09:06:16,27/02/2024
html-keyboard-response,88,1267670,0.0-38.0-2.0,,,,delaylearn,learning,feedback_duration_window,z0hltGsWycaNSsd7fakCb3NwOLt1,z0hltGsWycaNSsd7fakCb3NwOLt1,,,,,,,,,,,,,,,,,,7000.0,,,,65bbae0c9be9bb4d76ae2c18,09:06:16,27/02/2024
html-keyboard-response,89,1269176,0.0-38.0-3.0,,<div style='margin:auto;width: auto; font-size: 150%'><span style='font-weight: bold; font-size: 100px; color: green;'>+10 points!</span><br><br></div>,,delaylearn,learning,feedback_image_window,z0hltGsWycaNSsd7fakCb3NwOLt1,z0hltGsWycaNSsd7fakCb3NwOLt1,,,,,,,,,,,,,,,,,,,,,,65bbae0c9be9bb4d76ae2c18,09:06:16,27/02/2024
html-keyboard-response,90,1271504,0.0-39.0,,"<div style=""font-size:100px;"">+</div>",,delaylearn,learning,ITI,z0hltGsWycaNSsd7fakCb3NwOLt1,z0hltGsWycaNSsd7fakCb3NwOLt1,,,,,,,,,,,,,,,,,,,2320.0,,,65bbae0c9be9bb4d76ae2c18,09:06:16,27/02/2024
html-keyboard-response,91,1273867,0.0-40.0-0.0,2360.0,"<div style=""display: flex; flex-direction: column; align-items: center; margin-top: -40px;""><img src=""images/pattern_7.png"" style=""width: 234px; height: 230px; margin-top: -50px;""><div style=""display: flex; justify-content: space-between; margin-top: 33px;""><img src=""images/choice_trial_8.png"" style=""width: 408px; height: 417px; margin-right: 200px;""><img src=""images/choice_trial_15.png"" style=""width: 408px; height: 417px;""></div></div>",f,delaylearn,learning,trial,z0hltGsWycaNSsd7fakCb3NwOLt1,z0hltGsWycaNSsd7fakCb3NwOLt1,2.0,images/choice_trial_8.png,images/choice_trial_15.png,images/pattern_7.png,j,f,750.0,8.0,15.0,6.0,0.0,17.0,1.0,0.0,8.0,80.0,,,,,,65bbae0c9be9bb4d76ae2c18,09:06:16,27/02/2024
html-keyboard-response,92,1274877,0.0-40.0-1.0,,"<div style=""display: flex; flex-direction: column; align-items: center; margin-top: -40px;""><img src=""images/pattern_7.png"" style=""width: 234px; height: 230px; margin-top: -50px;""><div style=""display: flex; justify-content: space-between; margin-top: 33px;""><img src=""images/choice_trial_8.png"" style=""width: 408px; height: 417px; margin-right: 608px;""></div></div>",,delaylearn,learning,display_response,z0hltGsWycaNSsd7fakCb3NwOLt1,z0hltGsWycaNSsd7fakCb3NwOLt1,,,,,,,,,,,,,,,,,chosen stimuli: images/choice_trial_8.png,,,,,65bbae0c9be9bb4d76ae2c18,09:06:16,27/02/2024
html-keyboard-response,93,1275638,0.0-40.0-2.0,,,,delaylearn,learning,feedback_duration_window,z0hltGsWycaNSsd7fakCb3NwOLt1,z0hltGsWycaNSsd7fakCb3NwOLt1,,,,,,,,,,,,,,,,,,750.0,,,,65bbae0c9be9bb4d76ae2c18,09:06:16,27/02/2024
html-keyboard-response,94,1277147,0.0-40.0-3.0,,<div style='margin:auto;width: auto; font-size: 150%'><span style='font-weight: bold; font-size: 100px; color: red;'>0 points!</span><br><br></div>,,delaylearn,learning,feedback_image_window,z0hltGsWycaNSsd7fakCb3NwOLt1,z0hltGsWycaNSsd7fakCb3NwOLt1,,,,,,,,,,,,,,,,,,,,,,65bbae0c9be9bb4d76ae2c18,09:06:16,27/02/2024
html-keyboard-response,95,1279576,0.0-41.0,,"<div style=""font-size:100px;"">+</div>",,delaylearn,learning,ITI,z0hltGsWycaNSsd7fakCb3NwOLt1,z0hltGsWycaNSsd7fakCb3NwOLt1,,,,,,,,,,,,,,,,,,,2425.0,,,65bbae0c9be9bb4d76ae2c18,09:06:16,27/02/2024
html-keyboard-response,96,1282222,0.0-42.0-0.0,2644.0,"<div style=""display: flex; flex-direction: column; align-items: center; margin-top: -40px;""><img src=""images/pattern_1.png"" style=""width: 234px; height: 230px; margin-top: -50px;""><div style=""display: flex; justify-content: space-between; margin-top: 33px;""><img src=""images/choice_trial_3.png"" style=""width: 408px; height: 417px; margin-right: 200px;""><img src=""images/choice_trial_10.png"" style=""width: 408px; height: 417px;""></div></div>",f,delaylearn,learning,trial,z0hltGsWycaNSsd7fakCb3NwOLt1,z0hltGsWycaNSsd7fakCb3NwOLt1,2.0,images/choice_trial_3.png,images/choice_trial_10.png,images/pattern_1.png,f,f,7000.0,3.0,10.0,1.0,0.0,18.0,1.0,1.0,3.0,90.0,,,,,,65bbae0c9be9bb4d76ae2c18,09:06:16,27/02/2024
html-keyboard-response,97,1283229,0.0-42.0-1.0,,"<div style=""display: flex; flex-direction: column; align-items: center; margin-top: -40px;""><img src=""images/pattern_1.png"" style=""width: 234px; height: 230px; margin-top: -50px;""><div style=""display: flex; justify-content: space-between; margin-top: 33px;""><img src=""images/choice_trial_3.png"" style=""width: 408px; height: 417px; margin-right: 608px;""></div></div>",,delaylearn,learning,display_response,z0hltGsWycaNSsd7fakCb3NwOLt1,z0hltGsWycaNSsd7fakCb3NwOLt1,,,,,,,,,,,,,,,,,chosen stimuli: images/choice_trial_3.png,,,,,65bbae0c9be9bb4d76ae2c18,09:06:16,27/02/2024
html-keyboard-response,98,1290234,0.0-42.0-2.0,,,,delaylearn,learning,feedback_duration_window,z0hltGsWycaNSsd7fakCb3NwOLt1,z0hltGsWycaNSsd7fakCb3NwOLt1,,,,,,,,,,,,,,,,,,7000.0,,,,65bbae0c9be9bb4d76ae2c18,09:06:16,27/02/2024
html-keyboard-response,99,1291744,0.0-42.0-3.0,,<div style='margin:auto;width: auto; font-size: 150%'><span style='font-weight: bold; font-size: 100px; color: green;'>+10 points!</span><br><br></div>,,delaylearn,learning,feedback_image_window,z0hltGsWycaNSsd7fakCb3NwOLt1,z0hltGsWycaNSsd7fakCb3NwOLt1,,,,,,,,,,,,,,,,,,,,,,65bbae0c9be9bb4d76ae2c18,09:06:16,27/02/2024
html-keyboard-response,100,1293753,0.0-43.0,,"<div style=""font-size:100px;"">+</div>",,delaylearn,learning,ITI,z0hltGsWycaNSsd7fakCb3NwOLt1,z0hltGsWycaNSsd7fakCb3NwOLt1,,,,,,,,,,,,,,,,,,,1999.0,,,65bbae0c9be9bb4d76ae2c18,09:06:16,27/02/2024
html-keyboard-response,101,1296239,0.0-44.0-0.0,2483.0,"<div style=""display: flex; flex-direction: column; align-items: center; margin-top: -40px;""><img src=""images/pattern_6.png"" style=""width: 234px; height: 230px; margin-top: -50px;""><div style=""display: flex; justify-content: space-between; margin-top: 33px;""><img src=""images/choice_trial_5.png"" style=""width: 408px; height: 417px; margin-right: 200px;""><img src=""images/choice_trial_11.png"" style=""width: 408px; height: 417px;""></div></div>",f,delaylearn,learning,trial,z0hltGsWycaNSsd7fakCb3NwOLt1,z0hltGsWycaNSsd7fakCb3NwOLt1,2.0,images/choice_trial_5.png,images/choice_trial_11.png,images/pattern_6.png,j,j,750.0,5.0,11.0,5.0,1.0,19.0,0.0,0.0,5.0,90.0,,,,,,65bbae0c9be9bb4d76ae2c18,09:06:16,27/02/2024
html-keyboard-response,102,1297248,0.0-44.0-1.0,,"<div style=""display: flex; flex-direction: column; align-items: center; margin-top: -40px;""><img src=""images/pattern_6.png"" style=""width: 234px; height: 230px; margin-top: -50px;""><div style=""display: flex; justify-content: space-between; margin-top: 33px;""><img src=""images/choice_trial_5.png"" style=""width: 408px; height: 417px; margin-right: 608px;""></div></div>",,delaylearn,learning,display_response,z0hltGsWycaNSsd7fakCb3NwOLt1,z0hltGsWycaNSsd7fakCb3NwOLt1,,,,,,,,,,,,,,,,,chosen stimuli: images/choice_trial_5.png,,,,,65bbae0c9be9bb4d76ae2c18,09:06:16,27/02/2024
html-keyboard-response,103,1298010,0.0-44.0-2.0,,,,delaylearn,learning,feedback_duration_window,z0hltGsWycaNSsd7fakCb3NwOLt1,z0hltGsWycaNSsd7fakCb3NwOLt1,,,,,,,,,,,,,,,,,,750.0,,,,65bbae0c9be9bb4d76ae2c18,09:06:16,27/02/2024
html-keyboard-response,104,1299511,0.0-44.0-3.0,,<div style='margin:auto;width: auto; font-size: 150%'><span style='font-weight: bold; font-size: 100px; color: red;'>0 points!</span><br><br></div>,,delaylearn,learning,feedback_image_window,z0hltGsWycaNSsd7fakCb3NwOLt1,z0hltGsWycaNSsd7fakCb3NwOLt1,,,,,,,,,,,,,,,,,,,,,,65bbae0c9be9bb4d76ae2c18,09:06:16,27/02/2024
html-keyboard-response,105,1301735,0.0-45.0,,"<div style=""font-size:100px;"">+</div>",,delaylearn,learning,ITI,z0hltGsWycaNSsd7fakCb3NwOLt1,z0hltGsWycaNSsd7fakCb3NwOLt1,,,,,,,,,,,,,,,,,,,2212.0,,,65bbae0c9be9bb4d76ae2c18,09:06:16,27/02/2024
html-keyboard-response,106,1304080,0.0-46.0-0.0,2344.0,"<div style=""display: flex; flex-direction: column; align-items: center; margin-top: -40px;""><img src=""images/pattern_4.png"" style=""width: 234px; height: 230px; margin-top: -50px;""><div style=""display: flex; justify-content: space-between; margin-top: 33px;""><img src=""images/choice_trial_4.png"" style=""width: 408px; height: 417px; margin-right: 200px;""><img src=""images/choice_trial_16.png"" style=""width: 408px; height: 417px;""></div></div>",f,delaylearn,learning,trial,z0hltGsWycaNSsd7fakCb3NwOLt1,z0hltGsWycaNSsd7fakCb3NwOLt1,2.0,images/choice_trial_4.png,images/choice_trial_16.png,images/pattern_4.png,f,f,7000.0,4.0,16.0,3.0,0.0,20.0,1.0,1.0,4.0,100.0,,,,,,65bbae0c9be9bb4d76ae2c18,09:06:16,27/02/2024
html-keyboard-response,107,1305089,0.0-46.0-1.0,,"<div style=""display: flex; flex-direction: column; align-items: center; margin-top: -40px;""><img src=""images/pattern_4.png"" style=""width: 234px; height: 230px; margin-top: -50px;""><div style=""display: flex; justify-content: space-between; margin-top: 33px;""><img src=""images/choice_trial_4.png"" style=""width: 408px; height: 417px; margin-right: 608px;""></div></div>",,delaylearn,learning,display_response,z0hltGsWycaNSsd7fakCb3NwOLt1,z0hltGsWycaNSsd7fakCb3NwOLt1,,,,,,,,,,,,,,,,,chosen stimuli: images/choice_trial_4.png,,,,,65bbae0c9be9bb4d76ae2c18,09:06:16,27/02/2024
html-keyboard-response,108,1312100,0.0-46.0-2.0,,,,delaylearn,learning,feedback_duration_window,z0hltGsWycaNSsd7fakCb3NwOLt1,z0hltGsWycaNSsd7fakCb3NwOLt1,,,,,,,,,,,,,,,,,,7000.0,,,,65bbae0c9be9bb4d76ae2c18,09:06:16,27/02/2024
html-keyboard-response,109,1313608,0.0-46.0-3.0,,<div style='margin:auto;width: auto; font-size: 150%'><span style='font-weight: bold; font-size: 100px; color: green;'>+10 points!</span><br><br></div>,,delaylearn,learning,feedback_image_window,z0hltGsWycaNSsd7fakCb3NwOLt1,z0hltGsWycaNSsd7fakCb3NwOLt1,,,,,,,,,,,,,,,,,,,,,,65bbae0c9be9bb4d76ae2c18,09:06:16,27/02/2024
html-keyboard-response,110,1314115,0.0-47.0-0.0,,,,,,mood_trial_fixation,z0hltGsWycaNSsd7fakCb3NwOLt1,,,,,,,,,,,,,,,,,,,,,,,65bbae0c9be9bb4d76ae2c18,09:06:16,27/02/2024
lmdlab-html-vas-response,111,1317733,0.0-47.0-1.0,2602.0,How happy are you right now?,0.5015432098765432,delaylearn,learning,mood_trial,z0hltGsWycaNSsd7fakCb3NwOLt1,z0hltGsWycaNSsd7fakCb3NwOLt1,,,,,,,,,,,,,,,,,,,,"['Very unhappy', 'Very happy']",,65bbae0c9be9bb4d76ae2c18,09:06:16,27/02/2024
html-keyboard-response,112,1320120,0.0-48.0,,"<div style=""font-size:100px;"">+</div>",,delaylearn,learning,ITI,z0hltGsWycaNSsd7fakCb3NwOLt1,z0hltGsWycaNSsd7fakCb3NwOLt1,,,,,,,,,,,,,,,,,,,2381.0,,,65bbae0c9be9bb4d76ae2c18,09:06:16,27/02/2024
html-keyboard-response,113,1322930,0.0-49.0-0.0,2809.0,"<div style=""display: flex; flex-direction: column; align-items: center; margin-top: -40px;""><img src=""images/pattern_7.png"" style=""width: 234px; height: 230px; margin-top: -50px;""><div style=""display: flex; justify-content: space-between; margin-top: 33px;""><img src=""images/choice_trial_15.png"" style=""width: 408px; height: 417px; margin-right: 200px;""><img src=""images/choice_trial_8.png"" style=""width: 408px; height: 417px;""></div></div>",f,delaylearn,learning,trial,z0hltGsWycaNSsd7fakCb3NwOLt1,z0hltGsWycaNSsd7fakCb3NwOLt1,2.0,images/choice_trial_15.png,images/choice_trial_8.png,images/pattern_7.png,j,j,750.0,15.0,8.0,6.0,1.0,21.0,0.0,0.0,15.0,100.0,,,,,,65bbae0c9be9bb4d76ae2c18,09:06:16,27/02/2024
html-keyboard-response,114,1323934,0.0-49.0-1.0,,"<div style=""display: flex; flex-direction: column; align-items: center; margin-top: -40px;""><img src=""images/pattern_7.png"" style=""width: 234px; height: 230px; margin-top: -50px;""><div style=""display: flex; justify-content: space-between; margin-top: 33px;""><img src=""images/choice_trial_15.png"" style=""width: 408px; height: 417px; margin-right: 608px;""></div></div>",,delaylearn,learning,display_response,z0hltGsWycaNSsd7fakCb3NwOLt1,z0hltGsWycaNSsd7fakCb3NwOLt1,,,,,,,,,,,,,,,,,chosen stimuli: images/choice_trial_15.png,,,,,65bbae0c9be9bb4d76ae2c18,09:06:16,27/02/2024
html-keyboard-response,115,1324694,0.0-49.0-2.0,,,,delaylearn,learning,feedback_duration_window,z0hltGsWycaNSsd7fakCb3NwOLt1,z0hltGsWycaNSsd7fakCb3NwOLt1,,,,,,,,,,,,,,,,,,750.0,,,,65bbae0c9be9bb4d76ae2c18,09:06:16,27/02/2024
html-keyboard-response,116,1326208,0.0-49.0-3.0,,<div style='margin:auto;width: auto; font-size: 150%'><span style='font-weight: bold; font-size: 100px; color: red;'>0 points!</span><br><br></div>,,delaylearn,learning,feedback_image_window,z0hltGsWycaNSsd7fakCb3NwOLt1,z0hltGsWycaNSsd7fakCb3NwOLt1,,,,,,,,,,,,,,,,,,,,,,65bbae0c9be9bb4d76ae2c18,09:06:16,27/02/2024
html-keyboard-response,117,1328346,0.0-50.0,,"<div style=""font-size:100px;"">+</div>",,delaylearn,learning,ITI,z0hltGsWycaNSsd7fakCb3NwOLt1,z0hltGsWycaNSsd7fakCb3NwOLt1,,,,,,,,,,,,,,,,,,,2135.0,,,65bbae0c9be9bb4d76ae2c18,09:06:16,27/02/2024
html-keyboard-response,118,1329619,0.0-51.0-0.0,1273.0,"<div style=""display: flex; flex-direction: column; align-items: center; margin-top: -40px;""><img src=""images/pattern_1.png"" style=""width: 234px; height: 230px; margin-top: -50px;""><div style=""display: flex; justify-content: space-between; margin-top: 33px;""><img src=""images/choice_trial_10.png"" style=""width: 408px; height: 417px; margin-right: 200px;""><img src=""images/choice_trial_3.png"" style=""width: 408px; height: 417px;""></div></div>",j,delaylearn,learning,trial,z0hltGsWycaNSsd7fakCb3NwOLt1,z0hltGsWycaNSsd7fakCb3NwOLt1,2.0,images/choice_trial_10.png,images/choice_trial_3.png,images/pattern_1.png,f,j,7000.0,10.0,3.0,1.0,1.0,22.0,1.0,0.0,3.0,100.0,,,,,,65bbae0c9be9bb4d76ae2c18,09:06:16,27/02/2024
html-keyboard-response,119,1330621,0.0-51.0-1.0,,"<div style=""display: flex; flex-direction: column; align-items: center; margin-top: -40px;""><img src=""images/pattern_1.png"" style=""width: 234px; height: 230px; margin-top: -50px;""><div style=""display: flex; justify-content: space-between; margin-top: 33px;""><img src=""images/choice_trial_3.png"" style=""width: 408px; height: 417px; margin-left:608px;""></div></div>",,delaylearn,learning,display_response,z0hltGsWycaNSsd7fakCb3NwOLt1,z0hltGsWycaNSsd7fakCb3NwOLt1,,,,,,,,,,,,,,,,,chosen stimuli: images/choice_trial_3.png,,,,,65bbae0c9be9bb4d76ae2c18,09:06:16,27/02/2024
html-keyboard-response,120,1337625,0.0-51.0-2.0,,,,delaylearn,learning,feedback_duration_window,z0hltGsWycaNSsd7fakCb3NwOLt1,z0hltGsWycaNSsd7fakCb3NwOLt1,,,,,,,,,,,,,,,,,,7000.0,,,,65bbae0c9be9bb4d76ae2c18,09:06:16,27/02/2024
html-keyboard-response,121,1339136,0.0-51.0-3.0,,<div style='margin:auto;width: auto; font-size: 150%'><span style='font-weight: bold; font-size: 100px; color: red;'>0 points!</span><br><br></div>,,delaylearn,learning,feedback_image_window,z0hltGsWycaNSsd7fakCb3NwOLt1,z0hltGsWycaNSsd7fakCb3NwOLt1,,,,,,,,,,,,,,,,,,,,,,65bbae0c9be9bb4d76ae2c18,09:06:16,27/02/2024
html-keyboard-response,122,1341095,0.0-52.0,,"<div style=""font-size:100px;"">+</div>",,delaylearn,learning,ITI,z0hltGsWycaNSsd7fakCb3NwOLt1,z0hltGsWycaNSsd7fakCb3NwOLt1,,,,,,,,,,,,,,,,,,,1947.0,,,65bbae0c9be9bb4d76ae2c18,09:06:16,27/02/2024
html-keyboard-response,123,1343239,0.0-53.0-0.0,2140.0,"<div style=""display: flex; flex-direction: column; align-items: center; margin-top: -40px;""><img src=""images/pattern_5.png"" style=""width: 234px; height: 230px; margin-top: -50px;""><div style=""display: flex; justify-content: space-between; margin-top: 33px;""><img src=""images/choice_trial_9.png"" style=""width: 408px; height: 417px; margin-right: 200px;""><img src=""images/choice_trial_2.png"" style=""width: 408px; height: 417px;""></div></div>",f,delaylearn,learning,trial,z0hltGsWycaNSsd7fakCb3NwOLt1,z0hltGsWycaNSsd7fakCb3NwOLt1,2.0,images/choice_trial_9.png,images/choice_trial_2.png,images/pattern_5.png,j,j,750.0,9.0,2.0,4.0,1.0,23.0,0.0,0.0,9.0,100.0,,,,,,65bbae0c9be9bb4d76ae2c18,09:06:16,27/02/2024
html-keyboard-response,124,1344250,0.0-53.0-1.0,,"<div style=""display: flex; flex-direction: column; align-items: center; margin-top: -40px;""><img src=""images/pattern_5.png"" style=""width: 234px; height: 230px; margin-top: -50px;""><div style=""display: flex; justify-content: space-between; margin-top: 33px;""><img src=""images/choice_trial_9.png"" style=""width: 408px; height: 417px; margin-right: 608px;""></div></div>",,delaylearn,learning,display_response,z0hltGsWycaNSsd7fakCb3NwOLt1,z0hltGsWycaNSsd7fakCb3NwOLt1,,,,,,,,,,,,,,,,,chosen stimuli: images/choice_trial_9.png,,,,,65bbae0c9be9bb4d76ae2c18,09:06:16,27/02/2024
html-keyboard-response,125,1345013,0.0-53.0-2.0,,,,delaylearn,learning,feedback_duration_window,z0hltGsWycaNSsd7fakCb3NwOLt1,z0hltGsWycaNSsd7fakCb3NwOLt1,,,,,,,,,,,,,,,,,,750.0,,,,65bbae0c9be9bb4d76ae2c18,09:06:16,27/02/2024
html-keyboard-response,126,1346528,0.0-53.0-3.0,,<div style='margin:auto;width: auto; font-size: 150%'><span style='font-weight: bold; font-size: 100px; color: red;'>0 points!</span><br><br></div>,,delaylearn,learning,feedback_image_window,z0hltGsWycaNSsd7fakCb3NwOLt1,z0hltGsWycaNSsd7fakCb3NwOLt1,,,,,,,,,,,,,,,,,,,,,,65bbae0c9be9bb4d76ae2c18,09:06:16,27/02/2024
html-keyboard-response,127,1348912,0.0-54.0,,"<div style=""font-size:100px;"">+</div>",,delaylearn,learning,ITI,z0hltGsWycaNSsd7fakCb3NwOLt1,z0hltGsWycaNSsd7fakCb3NwOLt1,,,,,,,,,,,,,,,,,,,2368.0,,,65bbae0c9be9bb4d76ae2c18,09:06:16,27/02/2024
html-keyboard-response,128,1351494,0.0-55.0-0.0,2580.0,"<div style=""display: flex; flex-direction: column; align-items: center; margin-top: -40px;""><img src=""images/pattern_3.png"" style=""width: 234px; height: 230px; margin-top: -50px;""><div style=""display: flex; justify-content: space-between; margin-top: 33px;""><img src=""images/choice_trial_14.png"" style=""width: 408px; height: 417px; margin-right: 200px;""><img src=""images/choice_trial_12.png"" style=""width: 408px; height: 417px;""></div></div>",f,delaylearn,learning,trial,z0hltGsWycaNSsd7fakCb3NwOLt1,z0hltGsWycaNSsd7fakCb3NwOLt1,2.0,images/choice_trial_14.png,images/choice_trial_12.png,images/pattern_3.png,j,j,7000.0,14.0,12.0,2.0,1.0,24.0,0.0,0.0,14.0,100.0,,,,,,65bbae0c9be9bb4d76ae2c18,09:06:16,27/02/2024
html-keyboard-response,129,1352510,0.0-55.0-1.0,,"<div style=""display: flex; flex-direction: column; align-items: center; margin-top: -40px;""><img src=""images/pattern_3.png"" style=""width: 234px; height: 230px; margin-top: -50px;""><div style=""display: flex; justify-content: space-between; margin-top: 33px;""><img src=""images/choice_trial_14.png"" style=""width: 408px; height: 417px; margin-right: 608px;""></div></div>",,delaylearn,learning,display_response,z0hltGsWycaNSsd7fakCb3NwOLt1,z0hltGsWycaNSsd7fakCb3NwOLt1,,,,,,,,,,,,,,,,,chosen stimuli: images/choice_trial_14.png,,,,,65bbae0c9be9bb4d76ae2c18,09:06:16,27/02/2024
html-keyboard-response,130,1359525,0.0-55.0-2.0,,,,delaylearn,learning,feedback_duration_window,z0hltGsWycaNSsd7fakCb3NwOLt1,z0hltGsWycaNSsd7fakCb3NwOLt1,,,,,,,,,,,,,,,,,,7000.0,,,,65bbae0c9be9bb4d76ae2c18,09:06:16,27/02/2024
html-keyboard-response,131,1361033,0.0-55.0-3.0,,<div style='margin:auto;width: auto; font-size: 150%'><span style='font-weight: bold; font-size: 100px; color: red;'>0 points!</span><br><br></div>,,delaylearn,learning,feedback_image_window,z0hltGsWycaNSsd7fakCb3NwOLt1,z0hltGsWycaNSsd7fakCb3NwOLt1,,,,,,,,,,,,,,,,,,,,,,65bbae0c9be9bb4d76ae2c18,09:06:16,27/02/2024
lmdlab-html-vas-response,132,1368205,0.0-56.0-0.0,5656.0,*How <b><u>confident</u></b> are you feeling about your answers at this moment?*,0.4783950617283951,rewlearn,rate_confidence,,z0hltGsWycaNSsd7fakCb3NwOLt1,z0hltGsWycaNSsd7fakCb3NwOLt1,,,,,,,,,,,,,,,,,,,,"['No confidence', 'Complete confidence']",,65bbae0c9be9bb4d76ae2c18,09:06:16,27/02/2024
lmdlab-rest-trial-limit,133,1376461,0.0-56.0-1.0,6748.0,"<div style=""font-size:40px;""><b>Please take a break!</b><br><br><br><br><p>Great work: you earned undefined points.<br><br><br><p>You have completed part(s) 1 of 6.<br><br><br><br>When you are ready to continue<br><br><br>please click the button.</p><br><br>",0,delaylearn,learning,break,z0hltGsWycaNSsd7fakCb3NwOLt1,z0hltGsWycaNSsd7fakCb3NwOLt1,,,,,,,,,,,,,,,,,,,,,0.0,65bbae0c9be9bb4d76ae2c18,09:06:16,27/02/2024
html-keyboard-response,134,1379474,0.0-56.0-2.0,,"<div style=""font-size:100px;"">+</div>",,delaylearn,learning,pre_fixation,z0hltGsWycaNSsd7fakCb3NwOLt1,,,,,,,,,,,,,,,,,,,,,,,65bbae0c9be9bb4d76ae2c18,09:06:16,27/02/2024
lmdlab-html-vas-response,135,1383109,0.0-56.0-3.0-0.0,2627.0,How happy are you right now?,0.48919753086419754,delaylearn,learning,mood_baseline,z0hltGsWycaNSsd7fakCb3NwOLt1,z0hltGsWycaNSsd7fakCb3NwOLt1,,,,,,,,,,,,,,,,,,,,"['Very unhappy', 'Very happy']",,65bbae0c9be9bb4d76ae2c18,09:06:16,27/02/2024
html-keyboard-response,136,1384618,0.0-56.0-3.0-1.0,,,,,,mood_baseline_fixation,z0hltGsWycaNSsd7fakCb3NwOLt1,,,,,,,,,,,,,,,,,,,,,,,65bbae0c9be9bb4d76ae2c18,09:06:16,27/02/2024
html-keyboard-response,137,1386843,0.0-57.0,,"<div style=""font-size:100px;"">+</div>",,delaylearn,learning,ITI,z0hltGsWycaNSsd7fakCb3NwOLt1,z0hltGsWycaNSsd7fakCb3NwOLt1,,,,,,,,,,,,,,,,,,,2214.0,,,65bbae0c9be9bb4d76ae2c18,09:06:16,27/02/2024
html-keyboard-response,138,1387884,0.0-58.0-0.0,1037.0,"<div style=""display: flex; flex-direction: column; align-items: center; margin-top: -40px;""><img src=""images/pattern_7.png"" style=""width: 234px; height: 230px; margin-top: -50px;""><div style=""display: flex; justify-content: space-between; margin-top: 33px;""><img src=""images/choice_trial_15.png"" style=""width: 408px; height: 417px; margin-right: 200px;""><img src=""images/choice_trial_8.png"" style=""width: 408px; height: 417px;""></div></div>",j,delaylearn,learning,trial,z0hltGsWycaNSsd7fakCb3NwOLt1,z0hltGsWycaNSsd7fakCb3NwOLt1,2.0,images/choice_trial_15.png,images/choice_trial_8.png,images/pattern_7.png,j,j,750.0,15.0,8.0,6.0,1.0,25.0,1.0,1.0,8.0,110.0,,,,,,65bbae0c9be9bb4d76ae2c18,09:06:16,27/02/2024
html-keyboard-response,139,1388887,0.0-58.0-1.0,,"<div style=""display: flex; flex-direction: column; align-items: center; margin-top: -40px;""><img src=""images/pattern_7.png"" style=""width: 234px; height: 230px; margin-top: -50px;""><div style=""display: flex; justify-content: space-between; margin-top: 33px;""><img src=""images/choice_trial_8.png"" style=""width: 408px; height: 417px; margin-left:608px;""></div></div>",,delaylearn,learning,display_response,z0hltGsWycaNSsd7fakCb3NwOLt1,z0hltGsWycaNSsd7fakCb3NwOLt1,,,,,,,,,,,,,,,,,chosen stimuli: images/choice_trial_8.png,,,,,65bbae0c9be9bb4d76ae2c18,09:06:16,27/02/2024
html-keyboard-response,140,1389650,0.0-58.0-2.0,,,,delaylearn,learning,feedback_duration_window,z0hltGsWycaNSsd7fakCb3NwOLt1,z0hltGsWycaNSsd7fakCb3NwOLt1,,,,,,,,,,,,,,,,,,750.0,,,,65bbae0c9be9bb4d76ae2c18,09:06:16,27/02/2024
html-keyboard-response,141,1391158,0.0-58.0-3.0,,<div style='margin:auto;width: auto; font-size: 150%'><span style='font-weight: bold; font-size: 100px; color: green;'>+10 points!</span><br><br></div>,,delaylearn,learning,feedback_image_window,z0hltGsWycaNSsd7fakCb3NwOLt1,z0hltGsWycaNSsd7fakCb3NwOLt1,,,,,,,,,,,,,,,,,,,,,,65bbae0c9be9bb4d76ae2c18,09:06:16,27/02/2024
html-keyboard-response,142,1391674,0.0-59.0-0.0,,,,,,mood_trial_fixation,z0hltGsWycaNSsd7fakCb3NwOLt1,,,,,,,,,,,,,,,,,,,,,,,65bbae0c9be9bb4d76ae2c18,09:06:16,27/02/2024
lmdlab-html-vas-response,143,1394865,0.0-59.0-1.0,2181.0,How happy are you right now?,0.49382716049382713,delaylearn,learning,mood_trial,z0hltGsWycaNSsd7fakCb3NwOLt1,z0hltGsWycaNSsd7fakCb3NwOLt1,,,,,,,,,,,,,,,,,,,,"['Very unhappy', 'Very happy']",,65bbae0c9be9bb4d76ae2c18,09:06:16,27/02/2024
html-keyboard-response,144,1396605,0.0-60.0,,"<div style=""font-size:100px;"">+</div>",,delaylearn,learning,ITI,z0hltGsWycaNSsd7fakCb3NwOLt1,z0hltGsWycaNSsd7fakCb3NwOLt1,,,,,,,,,,,,,,,,,,,1685.0,,,65bbae0c9be9bb4d76ae2c18,09:06:16,27/02/2024
html-keyboard-response,145,1398315,0.0-61.0-0.0,1709.0,"<div style=""display: flex; flex-direction: column; align-items: center; margin-top: -40px;""><img src=""images/pattern_1.png"" style=""width: 234px; height: 230px; margin-top: -50px;""><div style=""display: flex; justify-content: space-between; margin-top: 33px;""><img src=""images/choice_trial_3.png"" style=""width: 408px; height: 417px; margin-right: 200px;""><img src=""images/choice_trial_10.png"" style=""width: 408px; height: 417px;""></div></div>",j,delaylearn,learning,trial,z0hltGsWycaNSsd7fakCb3NwOLt1,z0hltGsWycaNSsd7fakCb3NwOLt1,2.0,images/choice_trial_3.png,images/choice_trial_10.png,images/pattern_1.png,f,f,7000.0,3.0,10.0,1.0,0.0,26.0,0.0,0.0,10.0,110.0,,,,,,65bbae0c9be9bb4d76ae2c18,09:06:16,27/02/2024
html-keyboard-response,146,1399319,0.0-61.0-1.0,,"<div style=""display: flex; flex-direction: column; align-items: center; margin-top: -40px;""><img src=""images/pattern_1.png"" style=""width: 234px; height: 230px; margin-top: -50px;""><div style=""display: flex; justify-content: space-between; margin-top: 33px;""><img src=""images/choice_trial_10.png"" style=""width: 408px; height: 417px; margin-left:608px;""></div></div>",,delaylearn,learning,display_response,z0hltGsWycaNSsd7fakCb3NwOLt1,z0hltGsWycaNSsd7fakCb3NwOLt1,,,,,,,,,,,,,,,,,chosen stimuli: images/choice_trial_10.png,,,,,65bbae0c9be9bb4d76ae2c18,09:06:16,27/02/2024
html-keyboard-response,147,1406327,0.0-61.0-2.0,,,,delaylearn,learning,feedback_duration_window,z0hltGsWycaNSsd7fakCb3NwOLt1,z0hltGsWycaNSsd7fakCb3NwOLt1,,,,,,,,,,,,,,,,,,7000.0,,,,65bbae0c9be9bb4d76ae2c18,09:06:16,27/02/2024
html-keyboard-response,148,1407829,0.0-61.0-3.0,,<div style='margin:auto;width: auto; font-size: 150%'><span style='font-weight: bold; font-size: 100px; color: red;'>0 points!</span><br><br></div>,,delaylearn,learning,feedback_image_window,z0hltGsWycaNSsd7fakCb3NwOLt1,z0hltGsWycaNSsd7fakCb3NwOLt1,,,,,,,,,,,,,,,,,,,,,,65bbae0c9be9bb4d76ae2c18,09:06:16,27/02/2024
html-keyboard-response,149,1410292,0.0-62.0,,"<div style=""font-size:100px;"">+</div>",,delaylearn,learning,ITI,z0hltGsWycaNSsd7fakCb3NwOLt1,z0hltGsWycaNSsd7fakCb3NwOLt1,,,,,,,,,,,,,,,,,,,2452.0,,,65bbae0c9be9bb4d76ae2c18,09:06:16,27/02/2024
html-keyboard-response,150,1412056,0.0-63.0-0.0,1761.0,"<div style=""display: flex; flex-direction: column; align-items: center; margin-top: -40px;""><img src=""images/pattern_5.png"" style=""width: 234px; height: 230px; margin-top: -50px;""><div style=""display: flex; justify-content: space-between; margin-top: 33px;""><img src=""images/choice_trial_2.png"" style=""width: 408px; height: 417px; margin-right: 200px;""><img src=""images/choice_trial_9.png"" style=""width: 408px; height: 417px;""></div></div>",f,delaylearn,learning,trial,z0hltGsWycaNSsd7fakCb3NwOLt1,z0hltGsWycaNSsd7fakCb3NwOLt1,2.0,images/choice_trial_2.png,images/choice_trial_9.png,images/pattern_5.png,f,f,750.0,2.0,9.0,4.0,0.0,27.0,1.0,1.0,2.0,120.0,,,,,,65bbae0c9be9bb4d76ae2c18,09:06:16,27/02/2024
html-keyboard-response,151,1413153,0.0-63.0-1.0,,"<div style=""display: flex; flex-direction: column; align-items: center; margin-top: -40px;""><img src=""images/pattern_5.png"" style=""width: 234px; height: 230px; margin-top: -50px;""><div style=""display: flex; justify-content: space-between; margin-top: 33px;""><img src=""images/choice_trial_2.png"" style=""width: 408px; height: 417px; margin-right: 608px;""></div></div>",,delaylearn,learning,display_response,z0hltGsWycaNSsd7fakCb3NwOLt1,z0hltGsWycaNSsd7fakCb3NwOLt1,,,,,,,,,,,,,,,,,chosen stimuli: images/choice_trial_2.png,,,,,65bbae0c9be9bb4d76ae2c18,09:06:16,27/02/2024
html-keyboard-response,152,1413913,0.0-63.0-2.0,,,,delaylearn,learning,feedback_duration_window,z0hltGsWycaNSsd7fakCb3NwOLt1,z0hltGsWycaNSsd7fakCb3NwOLt1,,,,,,,,,,,,,,,,,,750.0,,,,65bbae0c9be9bb4d76ae2c18,09:06:16,27/02/2024
html-keyboard-response,153,1415416,0.0-63.0-3.0,,<div style='margin:auto;width: auto; font-size: 150%'><span style='font-weight: bold; font-size: 100px; color: green;'>+10 points!</span><br><br></div>,,delaylearn,learning,feedback_image_window,z0hltGsWycaNSsd7fakCb3NwOLt1,z0hltGsWycaNSsd7fakCb3NwOLt1,,,,,,,,,,,,,,,,,,,,,,65bbae0c9be9bb4d76ae2c18,09:06:16,27/02/2024
html-keyboard-response,154,1417380,0.0-64.0,,"<div style=""font-size:100px;"">+</div>",,delaylearn,learning,ITI,z0hltGsWycaNSsd7fakCb3NwOLt1,z0hltGsWycaNSsd7fakCb3NwOLt1,,,,,,,,,,,,,,,,,,,1962.0,,,65bbae0c9be9bb4d76ae2c18,09:06:16,27/02/2024
html-keyboard-response,155,1419941,0.0-65.0-0.0,2558.0,"<div style=""display: flex; flex-direction: column; align-items: center; margin-top: -40px;""><img src=""images/pattern_6.png"" style=""width: 234px; height: 230px; margin-top: -50px;""><div style=""display: flex; justify-content: space-between; margin-top: 33px;""><img src=""images/choice_trial_5.png"" style=""width: 408px; height: 417px; margin-right: 200px;""><img src=""images/choice_trial_11.png"" style=""width: 408px; height: 417px;""></div></div>",j,delaylearn,learning,trial,z0hltGsWycaNSsd7fakCb3NwOLt1,z0hltGsWycaNSsd7fakCb3NwOLt1,2.0,images/choice_trial_5.png,images/choice_trial_11.png,images/pattern_6.png,j,j,750.0,5.0,11.0,5.0,1.0,28.0,1.0,1.0,11.0,130.0,,,,,,65bbae0c9be9bb4d76ae2c18,09:06:16,27/02/2024
html-keyboard-response,156,1420958,0.0-65.0-1.0,,"<div style=""display: flex; flex-direction: column; align-items: center; margin-top: -40px;""><img src=""images/pattern_6.png"" style=""width: 234px; height: 230px; margin-top: -50px;""><div style=""display: flex; justify-content: space-between; margin-top: 33px;""><img src=""images/choice_trial_11.png"" style=""width: 408px; height: 417px; margin-left:608px;""></div></div>",,delaylearn,learning,display_response,z0hltGsWycaNSsd7fakCb3NwOLt1,z0hltGsWycaNSsd7fakCb3NwOLt1,,,,,,,,,,,,,,,,,chosen stimuli: images/choice_trial_11.png,,,,,65bbae0c9be9bb4d76ae2c18,09:06:16,27/02/2024
html-keyboard-response,157,1421717,0.0-65.0-2.0,,,,delaylearn,learning,feedback_duration_window,z0hltGsWycaNSsd7fakCb3NwOLt1,z0hltGsWycaNSsd7fakCb3NwOLt1,,,,,,,,,,,,,,,,,,750.0,,,,65bbae0c9be9bb4d76ae2c18,09:06:16,27/02/2024
html-keyboard-response,158,1423221,0.0-65.0-3.0,,<div style='margin:auto;width: auto; font-size: 150%'><span style='font-weight: bold; font-size: 100px; color: green;'>+10 points!</span><br><br></div>,,delaylearn,learning,feedback_image_window,z0hltGsWycaNSsd7fakCb3NwOLt1,z0hltGsWycaNSsd7fakCb3NwOLt1,,,,,,,,,,,,,,,,,,,,,,65bbae0c9be9bb4d76ae2c18,09:06:16,27/02/2024
html-keyboard-response,159,1423728,0.0-66.0-0.0,,,,,,mood_trial_fixation,z0hltGsWycaNSsd7fakCb3NwOLt1,,,,,,,,,,,,,,,,,,,,,,,65bbae0c9be9bb4d76ae2c18,09:06:16,27/02/2024
lmdlab-html-vas-response,160,1427778,0.0-66.0-1.0,3047.0,How happy are you right now?,0.49537037037037035,delaylearn,learning,mood_trial,z0hltGsWycaNSsd7fakCb3NwOLt1,z0hltGsWycaNSsd7fakCb3NwOLt1,,,,,,,,,,,,,,,,,,,,"['Very unhappy', 'Very happy']",,65bbae0c9be9bb4d76ae2c18,09:06:16,27/02/2024
html-keyboard-response,161,1429686,0.0-67.0,,"<div style=""font-size:100px;"">+</div>",,delaylearn,learning,ITI,z0hltGsWycaNSsd7fakCb3NwOLt1,z0hltGsWycaNSsd7fakCb3NwOLt1,,,,,,,,,,,,,,,,,,,1879.0,,,65bbae0c9be9bb4d76ae2c18,09:06:16,27/02/2024
html-keyboard-response,162,1430825,0.0-68.0-0.0,1136.0,"<div style=""display: flex; flex-direction: column; align-items: center; margin-top: -40px;""><img src=""images/pattern_4.png"" style=""width: 234px; height: 230px; margin-top: -50px;""><div style=""display: flex; justify-content: space-between; margin-top: 33px;""><img src=""images/choice_trial_16.png"" style=""width: 408px; height: 417px; margin-right: 200px;""><img src=""images/choice_trial_4.png"" style=""width: 408px; height: 417px;""></div></div>",j,delaylearn,learning,trial,z0hltGsWycaNSsd7fakCb3NwOLt1,z0hltGsWycaNSsd7fakCb3NwOLt1,2.0,images/choice_trial_16.png,images/choice_trial_4.png,images/pattern_4.png,j,j,7000.0,16.0,4.0,3.0,1.0,29.0,1.0,1.0,4.0,140.0,,,,,,65bbae0c9be9bb4d76ae2c18,09:06:16,27/02/2024
html-keyboard-response,163,1431827,0.0-68.0-1.0,,"<div style=""display: flex; flex-direction: column; align-items: center; margin-top: -40px;""><img src=""images/pattern_4.png"" style=""width: 234px; height: 230px; margin-top: -50px;""><div style=""display: flex; justify-content: space-between; margin-top: 33px;""><img src=""images/choice_trial_4.png"" style=""width: 408px; height: 417px; margin-left:608px;""></div></div>",,delaylearn,learning,display_response,z0hltGsWycaNSsd7fakCb3NwOLt1,z0hltGsWycaNSsd7fakCb3NwOLt1,,,,,,,,,,,,,,,,,chosen stimuli: images/choice_trial_4.png,,,,,65bbae0c9be9bb4d76ae2c18,09:06:16,27/02/2024
html-keyboard-response,164,1438838,0.0-68.0-2.0,,,,delaylearn,learning,feedback_duration_window,z0hltGsWycaNSsd7fakCb3NwOLt1,z0hltGsWycaNSsd7fakCb3NwOLt1,,,,,,,,,,,,,,,,,,7000.0,,,,65bbae0c9be9bb4d76ae2c18,09:06:16,27/02/2024
html-keyboard-response,165,1440346,0.0-68.0-3.0,,<div style='margin:auto;width: auto; font-size: 150%'><span style='font-weight: bold; font-size: 100px; color: green;'>+10 points!</span><br><br></div>,,delaylearn,learning,feedback_image_window,z0hltGsWycaNSsd7fakCb3NwOLt1,z0hltGsWycaNSsd7fakCb3NwOLt1,,,,,,,,,,,,,,,,,,,,,,65bbae0c9be9bb4d76ae2c18,09:06:16,27/02/2024
html-keyboard-response,166,1442042,0.0-69.0,,"<div style=""font-size:100px;"">+</div>",,delaylearn,learning,ITI,z0hltGsWycaNSsd7fakCb3NwOLt1,z0hltGsWycaNSsd7fakCb3NwOLt1,,,,,,,,,,,,,,,,,,,1683.0,,,65bbae0c9be9bb4d76ae2c18,09:06:16,27/02/2024
html-keyboard-response,167,1443423,0.0-70.0-0.0,1380.0,"<div style=""display: flex; flex-direction: column; align-items: center; margin-top: -40px;""><img src=""images/pattern_3.png"" style=""width: 234px; height: 230px; margin-top: -50px;""><div style=""display: flex; justify-content: space-between; margin-top: 33px;""><img src=""images/choice_trial_14.png"" style=""width: 408px; height: 417px; margin-right: 200px;""><img src=""images/choice_trial_12.png"" style=""width: 408px; height: 417px;""></div></div>",f,delaylearn,learning,trial,z0hltGsWycaNSsd7fakCb3NwOLt1,z0hltGsWycaNSsd7fakCb3NwOLt1,2.0,images/choice_trial_14.png,images/choice_trial_12.png,images/pattern_3.png,j,j,7000.0,14.0,12.0,2.0,1.0,30.0,0.0,0.0,14.0,140.0,,,,,,65bbae0c9be9bb4d76ae2c18,09:06:16,27/02/2024
html-keyboard-response,168,1444438,0.0-70.0-1.0,,"<div style=""display: flex; flex-direction: column; align-items: center; margin-top: -40px;""><img src=""images/pattern_3.png"" style=""width: 234px; height: 230px; margin-top: -50px;""><div style=""display: flex; justify-content: space-between; margin-top: 33px;""><img src=""images/choice_trial_14.png"" style=""width: 408px; height: 417px; margin-right: 608px;""></div></div>",,delaylearn,learning,display_response,z0hltGsWycaNSsd7fakCb3NwOLt1,z0hltGsWycaNSsd7fakCb3NwOLt1,,,,,,,,,,,,,,,,,chosen stimuli: images/choice_trial_14.png,,,,,65bbae0c9be9bb4d76ae2c18,09:06:16,27/02/2024
html-keyboard-response,169,1451443,0.0-70.0-2.0,,,,delaylearn,learning,feedback_duration_window,z0hltGsWycaNSsd7fakCb3NwOLt1,z0hltGsWycaNSsd7fakCb3NwOLt1,,,,,,,,,,,,,,,,,,7000.0,,,,65bbae0c9be9bb4d76ae2c18,09:06:16,27/02/2024
html-keyboard-response,170,1452958,0.0-70.0-3.0,,<div style='margin:auto;width: auto; font-size: 150%'><span style='font-weight: bold; font-size: 100px; color: red;'>0 points!</span><br><br></div>,,delaylearn,learning,feedback_image_window,z0hltGsWycaNSsd7fakCb3NwOLt1,z0hltGsWycaNSsd7fakCb3NwOLt1,,,,,,,,,,,,,,,,,,,,,,65bbae0c9be9bb4d76ae2c18,09:06:16,27/02/2024
html-keyboard-response,171,1455427,0.0-71.0,,"<div style=""font-size:100px;"">+</div>",,delaylearn,learning,ITI,z0hltGsWycaNSsd7fakCb3NwOLt1,z0hltGsWycaNSsd7fakCb3NwOLt1,,,,,,,,,,,,,,,,,,,2464.0,,,65bbae0c9be9bb4d76ae2c18,09:06:16,27/02/2024
html-keyboard-response,172,1457316,0.0-72.0-0.0,1885.0,"<div style=""display: flex; flex-direction: column; align-items: center; margin-top: -40px;""><img src=""images/pattern_5.png"" style=""width: 234px; height: 230px; margin-top: -50px;""><div style=""display: flex; justify-content: space-between; margin-top: 33px;""><img src=""images/choice_trial_2.png"" style=""width: 408px; height: 417px; margin-right: 200px;""><img src=""images/choice_trial_9.png"" style=""width: 408px; height: 417px;""></div></div>",f,delaylearn,learning,trial,z0hltGsWycaNSsd7fakCb3NwOLt1,z0hltGsWycaNSsd7fakCb3NwOLt1,2.0,images/choice_trial_2.png,images/choice_trial_9.png,images/pattern_5.png,j,f,750.0,2.0,9.0,4.0,0.0,31.0,1.0,0.0,2.0,140.0,,,,,,65bbae0c9be9bb4d76ae2c18,09:06:16,27/02/2024
html-keyboard-response,173,1458322,0.0-72.0-1.0,,"<div style=""display: flex; flex-direction: column; align-items: center; margin-top: -40px;""><img src=""images/pattern_5.png"" style=""width: 234px; height: 230px; margin-top: -50px;""><div style=""display: flex; justify-content: space-between; margin-top: 33px;""><img src=""images/choice_trial_2.png"" style=""width: 408px; height: 417px; margin-right: 608px;""></div></div>",,delaylearn,learning,display_response,z0hltGsWycaNSsd7fakCb3NwOLt1,z0hltGsWycaNSsd7fakCb3NwOLt1,,,,,,,,,,,,,,,,,chosen stimuli: images/choice_trial_2.png,,,,,65bbae0c9be9bb4d76ae2c18,09:06:16,27/02/2024
html-keyboard-response,174,1459084,0.0-72.0-2.0,,,,delaylearn,learning,feedback_duration_window,z0hltGsWycaNSsd7fakCb3NwOLt1,z0hltGsWycaNSsd7fakCb3NwOLt1,,,,,,,,,,,,,,,,,,750.0,,,,65bbae0c9be9bb4d76ae2c18,09:06:16,27/02/2024
html-keyboard-response,175,1460599,0.0-72.0-3.0,,<div style='margin:auto;width: auto; font-size: 150%'><span style='font-weight: bold; font-size: 100px; color: red;'>0 points!</span><br><br></div>,,delaylearn,learning,feedback_image_window,z0hltGsWycaNSsd7fakCb3NwOLt1,z0hltGsWycaNSsd7fakCb3NwOLt1,,,,,,,,,,,,,,,,,,,,,,65bbae0c9be9bb4d76ae2c18,09:06:16,27/02/2024
html-keyboard-response,176,1462814,0.0-73.0,,"<div style=""font-size:100px;"">+</div>",,delaylearn,learning,ITI,z0hltGsWycaNSsd7fakCb3NwOLt1,z0hltGsWycaNSsd7fakCb3NwOLt1,,,,,,,,,,,,,,,,,,,2210.0,,,65bbae0c9be9bb4d76ae2c18,09:06:16,27/02/2024
html-keyboard-response,177,1464847,0.0-74.0-0.0,2033.0,"<div style=""display: flex; flex-direction: column; align-items: center; margin-top: -40px;""><img src=""images/pattern_1.png"" style=""width: 234px; height: 230px; margin-top: -50px;""><div style=""display: flex; justify-content: space-between; margin-top: 33px;""><img src=""images/choice_trial_3.png"" style=""width: 408px; height: 417px; margin-right: 200px;""><img src=""images/choice_trial_10.png"" style=""width: 408px; height: 417px;""></div></div>",j,delaylearn,learning,trial,z0hltGsWycaNSsd7fakCb3NwOLt1,z0hltGsWycaNSsd7fakCb3NwOLt1,2.0,images/choice_trial_3.png,images/choice_trial_10.png,images/pattern_1.png,f,f,7000.0,3.0,10.0,1.0,0.0,32.0,0.0,0.0,10.0,140.0,,,,,,65bbae0c9be9bb4d76ae2c18,09:06:16,27/02/2024
html-keyboard-response,178,1465859,0.0-74.0-1.0,,"<div style=""display: flex; flex-direction: column; align-items: center; margin-top: -40px;""><img src=""images/pattern_1.png"" style=""width: 234px; height: 230px; margin-top: -50px;""><div style=""display: flex; justify-content: space-between; margin-top: 33px;""><img src=""images/choice_trial_10.png"" style=""width: 408px; height: 417px; margin-left:608px;""></div></div>",,delaylearn,learning,display_response,z0hltGsWycaNSsd7fakCb3NwOLt1,z0hltGsWycaNSsd7fakCb3NwOLt1,,,,,,,,,,,,,,,,,chosen stimuli: images/choice_trial_10.png,,,,,65bbae0c9be9bb4d76ae2c18,09:06:16,27/02/2024
html-keyboard-response,179,1472862,0.0-74.0-2.0,,,,delaylearn,learning,feedback_duration_window,z0hltGsWycaNSsd7fakCb3NwOLt1,z0hltGsWycaNSsd7fakCb3NwOLt1,,,,,,,,,,,,,,,,,,7000.0,,,,65bbae0c9be9bb4d76ae2c18,09:06:16,27/02/2024
html-keyboard-response,180,1474366,0.0-74.0-3.0,,<div style='margin:auto;width: auto; font-size: 150%'><span style='font-weight: bold; font-size: 100px; color: red;'>0 points!</span><br><br></div>,,delaylearn,learning,feedback_image_window,z0hltGsWycaNSsd7fakCb3NwOLt1,z0hltGsWycaNSsd7fakCb3NwOLt1,,,,,,,,,,,,,,,,,,,,,,65bbae0c9be9bb4d76ae2c18,09:06:16,27/02/2024
html-keyboard-response,181,1474878,0.0-75.0-0.0,,,,,,mood_trial_fixation,z0hltGsWycaNSsd7fakCb3NwOLt1,,,,,,,,,,,,,,,,,,,,,,,65bbae0c9be9bb4d76ae2c18,09:06:16,27/02/2024
lmdlab-html-vas-response,182,1478427,0.0-75.0-1.0,2535.0,How happy are you right now?,0.4876543209876543,delaylearn,learning,mood_trial,z0hltGsWycaNSsd7fakCb3NwOLt1,z0hltGsWycaNSsd7fakCb3NwOLt1,,,,,,,,,,,,,,,,,,,,"['Very unhappy', 'Very happy']",,65bbae0c9be9bb4d76ae2c18,09:06:16,27/02/2024
html-keyboard-response,183,1480174,0.0-76.0,,"<div style=""font-size:100px;"">+</div>",,delaylearn,learning,ITI,z0hltGsWycaNSsd7fakCb3NwOLt1,z0hltGsWycaNSsd7fakCb3NwOLt1,,,,,,,,,,,,,,,,,,,1745.0,,,65bbae0c9be9bb4d76ae2c18,09:06:16,27/02/2024
html-keyboard-response,184,1481430,0.0-77.0-0.0,1254.0,"<div style=""display: flex; flex-direction: column; align-items: center; margin-top: -40px;""><img src=""images/pattern_6.png"" style=""width: 234px; height: 230px; margin-top: -50px;""><div style=""display: flex; justify-content: space-between; margin-top: 33px;""><img src=""images/choice_trial_11.png"" style=""width: 408px; height: 417px; margin-right: 200px;""><img src=""images/choice_trial_5.png"" style=""width: 408px; height: 417px;""></div></div>",f,delaylearn,learning,trial,z0hltGsWycaNSsd7fakCb3NwOLt1,z0hltGsWycaNSsd7fakCb3NwOLt1,2.0,images/choice_trial_11.png,images/choice_trial_5.png,images/pattern_6.png,j,f,750.0,11.0,5.0,5.0,0.0,33.0,1.0,0.0,11.0,140.0,,,,,,65bbae0c9be9bb4d76ae2c18,09:06:16,27/02/2024
html-keyboard-response,185,1482478,0.0-77.0-1.0,,"<div style=""display: flex; flex-direction: column; align-items: center; margin-top: -40px;""><img src=""images/pattern_6.png"" style=""width: 234px; height: 230px; margin-top: -50px;""><div style=""display: flex; justify-content: space-between; margin-top: 33px;""><img src=""images/choice_trial_11.png"" style=""width: 408px; height: 417px; margin-right: 608px;""></div></div>",,delaylearn,learning,display_response,z0hltGsWycaNSsd7fakCb3NwOLt1,z0hltGsWycaNSsd7fakCb3NwOLt1,,,,,,,,,,,,,,,,,chosen stimuli: images/choice_trial_11.png,,,,,65bbae0c9be9bb4d76ae2c18,09:06:16,27/02/2024
html-keyboard-response,186,1483239,0.0-77.0-2.0,,,,delaylearn,learning,feedback_duration_window,z0hltGsWycaNSsd7fakCb3NwOLt1,z0hltGsWycaNSsd7fakCb3NwOLt1,,,,,,,,,,,,,,,,,,750.0,,,,65bbae0c9be9bb4d76ae2c18,09:06:16,27/02/2024
html-keyboard-response,187,1484744,0.0-77.0-3.0,,<div style='margin:auto;width: auto; font-size: 150%'><span style='font-weight: bold; font-size: 100px; color: red;'>0 points!</span><br><br></div>,,delaylearn,learning,feedback_image_window,z0hltGsWycaNSsd7fakCb3NwOLt1,z0hltGsWycaNSsd7fakCb3NwOLt1,,,,,,,,,,,,,,,,,,,,,,65bbae0c9be9bb4d76ae2c18,09:06:16,27/02/2024
html-keyboard-response,188,1486686,0.0-78.0,,"<div style=""font-size:100px;"">+</div>",,delaylearn,learning,ITI,z0hltGsWycaNSsd7fakCb3NwOLt1,z0hltGsWycaNSsd7fakCb3NwOLt1,,,,,,,,,,,,,,,,,,,1934.0,,,65bbae0c9be9bb4d76ae2c18,09:06:16,27/02/2024
html-keyboard-response,189,1488150,0.0-79.0-0.0,1461.0,"<div style=""display: flex; flex-direction: column; align-items: center; margin-top: -40px;""><img src=""images/pattern_3.png"" style=""width: 234px; height: 230px; margin-top: -50px;""><div style=""display: flex; justify-content: space-between; margin-top: 33px;""><img src=""images/choice_trial_14.png"" style=""width: 408px; height: 417px; margin-right: 200px;""><img src=""images/choice_trial_12.png"" style=""width: 408px; height: 417px;""></div></div>",f,delaylearn,learning,trial,z0hltGsWycaNSsd7fakCb3NwOLt1,z0hltGsWycaNSsd7fakCb3NwOLt1,2.0,images/choice_trial_14.png,images/choice_trial_12.png,images/pattern_3.png,j,j,7000.0,14.0,12.0,2.0,1.0,34.0,0.0,0.0,14.0,140.0,,,,,,65bbae0c9be9bb4d76ae2c18,09:06:16,27/02/2024
html-keyboard-response,190,1489152,0.0-79.0-1.0,,"<div style=""display: flex; flex-direction: column; align-items: center; margin-top: -40px;""><img src=""images/pattern_3.png"" style=""width: 234px; height: 230px; margin-top: -50px;""><div style=""display: flex; justify-content: space-between; margin-top: 33px;""><img src=""images/choice_trial_14.png"" style=""width: 408px; height: 417px; margin-right: 608px;""></div></div>",,delaylearn,learning,display_response,z0hltGsWycaNSsd7fakCb3NwOLt1,z0hltGsWycaNSsd7fakCb3NwOLt1,,,,,,,,,,,,,,,,,chosen stimuli: images/choice_trial_14.png,,,,,65bbae0c9be9bb4d76ae2c18,09:06:16,27/02/2024
html-keyboard-response,191,1496154,0.0-79.0-2.0,,,,delaylearn,learning,feedback_duration_window,z0hltGsWycaNSsd7fakCb3NwOLt1,z0hltGsWycaNSsd7fakCb3NwOLt1,,,,,,,,,,,,,,,,,,7000.0,,,,65bbae0c9be9bb4d76ae2c18,09:06:16,27/02/2024
html-keyboard-response,192,1497657,0.0-79.0-3.0,,<div style='margin:auto;width: auto; font-size: 150%'><span style='font-weight: bold; font-size: 100px; color: red;'>0 points!</span><br><br></div>,,delaylearn,learning,feedback_image_window,z0hltGsWycaNSsd7fakCb3NwOLt1,z0hltGsWycaNSsd7fakCb3NwOLt1,,,,,,,,,,,,,,,,,,,,,,65bbae0c9be9bb4d76ae2c18,09:06:16,27/02/2024
html-keyboard-response,193,1500017,0.0-80.0,,"<div style=""font-size:100px;"">+</div>",,delaylearn,learning,ITI,z0hltGsWycaNSsd7fakCb3NwOLt1,z0hltGsWycaNSsd7fakCb3NwOLt1,,,,,,,,,,,,,,,,,,,2343.0,,,65bbae0c9be9bb4d76ae2c18,09:06:16,27/02/2024
html-keyboard-response,194,1501234,0.0-81.0-0.0,1215.0,"<div style=""display: flex; flex-direction: column; align-items: center; margin-top: -40px;""><img src=""images/pattern_4.png"" style=""width: 234px; height: 230px; margin-top: -50px;""><div style=""display: flex; justify-content: space-between; margin-top: 33px;""><img src=""images/choice_trial_16.png"" style=""width: 408px; height: 417px; margin-right: 200px;""><img src=""images/choice_trial_4.png"" style=""width: 408px; height: 417px;""></div></div>",j,delaylearn,learning,trial,z0hltGsWycaNSsd7fakCb3NwOLt1,z0hltGsWycaNSsd7fakCb3NwOLt1,2.0,images/choice_trial_16.png,images/choice_trial_4.png,images/pattern_4.png,f,j,7000.0,16.0,4.0,3.0,1.0,35.0,1.0,0.0,4.0,140.0,,,,,,65bbae0c9be9bb4d76ae2c18,09:06:16,27/02/2024
html-keyboard-response,195,1502239,0.0-81.0-1.0,,"<div style=""display: flex; flex-direction: column; align-items: center; margin-top: -40px;""><img src=""images/pattern_4.png"" style=""width: 234px; height: 230px; margin-top: -50px;""><div style=""display: flex; justify-content: space-between; margin-top: 33px;""><img src=""images/choice_trial_4.png"" style=""width: 408px; height: 417px; margin-left:608px;""></div></div>",,delaylearn,learning,display_response,z0hltGsWycaNSsd7fakCb3NwOLt1,z0hltGsWycaNSsd7fakCb3NwOLt1,,,,,,,,,,,,,,,,,chosen stimuli: images/choice_trial_4.png,,,,,65bbae0c9be9bb4d76ae2c18,09:06:16,27/02/2024
html-keyboard-response,196,1509243,0.0-81.0-2.0,,,,delaylearn,learning,feedback_duration_window,z0hltGsWycaNSsd7fakCb3NwOLt1,z0hltGsWycaNSsd7fakCb3NwOLt1,,,,,,,,,,,,,,,,,,7000.0,,,,65bbae0c9be9bb4d76ae2c18,09:06:16,27/02/2024
html-keyboard-response,197,1510748,0.0-81.0-3.0,,<div style='margin:auto;width: auto; font-size: 150%'><span style='font-weight: bold; font-size: 100px; color: red;'>0 points!</span><br><br></div>,,delaylearn,learning,feedback_image_window,z0hltGsWycaNSsd7fakCb3NwOLt1,z0hltGsWycaNSsd7fakCb3NwOLt1,,,,,,,,,,,,,,,,,,,,,,65bbae0c9be9bb4d76ae2c18,09:06:16,27/02/2024
html-keyboard-response,198,1512580,0.0-82.0,,"<div style=""font-size:100px;"">+</div>",,delaylearn,learning,ITI,z0hltGsWycaNSsd7fakCb3NwOLt1,z0hltGsWycaNSsd7fakCb3NwOLt1,,,,,,,,,,,,,,,,,,,1818.0,,,65bbae0c9be9bb4d76ae2c18,09:06:16,27/02/2024
html-keyboard-response,199,1514939,0.0-83.0-0.0,2358.0,"<div style=""display: flex; flex-direction: column; align-items: center; margin-top: -40px;""><img src=""images/pattern_7.png"" style=""width: 234px; height: 230px; margin-top: -50px;""><div style=""display: flex; justify-content: space-between; margin-top: 33px;""><img src=""images/choice_trial_8.png"" style=""width: 408px; height: 417px; margin-right: 200px;""><img src=""images/choice_trial_15.png"" style=""width: 408px; height: 417px;""></div></div>",f,delaylearn,learning,trial,z0hltGsWycaNSsd7fakCb3NwOLt1,z0hltGsWycaNSsd7fakCb3NwOLt1,2.0,images/choice_trial_8.png,images/choice_trial_15.png,images/pattern_7.png,f,f,750.0,8.0,15.0,6.0,0.0,36.0,1.0,1.0,8.0,150.0,,,,,,65bbae0c9be9bb4d76ae2c18,09:06:16,27/02/2024
html-keyboard-response,200,1515948,0.0-83.0-1.0,,"<div style=""display: flex; flex-direction: column; align-items: center; margin-top: -40px;""><img src=""images/pattern_7.png"" style=""width: 234px; height: 230px; margin-top: -50px;""><div style=""display: flex; justify-content: space-between; margin-top: 33px;""><img src=""images/choice_trial_8.png"" style=""width: 408px; height: 417px; margin-right: 608px;""></div></div>",,delaylearn,learning,display_response,z0hltGsWycaNSsd7fakCb3NwOLt1,z0hltGsWycaNSsd7fakCb3NwOLt1,,,,,,,,,,,,,,,,,chosen stimuli: images/choice_trial_8.png,,,,,65bbae0c9be9bb4d76ae2c18,09:06:16,27/02/2024
html-keyboard-response,201,1516701,0.0-83.0-2.0,,,,delaylearn,learning,feedback_duration_window,z0hltGsWycaNSsd7fakCb3NwOLt1,z0hltGsWycaNSsd7fakCb3NwOLt1,,,,,,,,,,,,,,,,,,750.0,,,,65bbae0c9be9bb4d76ae2c18,09:06:16,27/02/2024
html-keyboard-response,202,1518211,0.0-83.0-3.0,,<div style='margin:auto;width: auto; font-size: 150%'><span style='font-weight: bold; font-size: 100px; color: green;'>+10 points!</span><br><br></div>,,delaylearn,learning,feedback_image_window,z0hltGsWycaNSsd7fakCb3NwOLt1,z0hltGsWycaNSsd7fakCb3NwOLt1,,,,,,,,,,,,,,,,,,,,,,65bbae0c9be9bb4d76ae2c18,09:06:16,27/02/2024
html-keyboard-response,203,1520609,0.0-84.0,,"<div style=""font-size:100px;"">+</div>",,delaylearn,learning,ITI,z0hltGsWycaNSsd7fakCb3NwOLt1,z0hltGsWycaNSsd7fakCb3NwOLt1,,,,,,,,,,,,,,,,,,,2393.0,,,65bbae0c9be9bb4d76ae2c18,09:06:16,27/02/2024
html-keyboard-response,204,1523625,0.0-85.0-0.0,,"<div style=""display: flex; flex-direction: column; align-items: center; margin-top: -40px;""><img src=""images/pattern_1.png"" style=""width: 234px; height: 230px; margin-top: -50px;""><div style=""display: flex; justify-content: space-between; margin-top: 33px;""><img src=""images/choice_trial_3.png"" style=""width: 408px; height: 417px; margin-right: 200px;""><img src=""images/choice_trial_10.png"" style=""width: 408px; height: 417px;""></div></div>",,delaylearn,learning,trial,z0hltGsWycaNSsd7fakCb3NwOLt1,z0hltGsWycaNSsd7fakCb3NwOLt1,2.0,images/choice_trial_3.png,images/choice_trial_10.png,images/pattern_1.png,f,f,7000.0,3.0,10.0,1.0,0.0,37.0,0.0,0.0,0.0,150.0,,,,,,65bbae0c9be9bb4d76ae2c18,09:06:16,27/02/2024
html-keyboard-response,205,1524639,0.0-85.0-1.0,,<div style='font-weight: bold; font-size: 75px; color: red;'>Missed Trial <br><br><br><br> Please respond faster</div>,,delaylearn,learning,display_response,z0hltGsWycaNSsd7fakCb3NwOLt1,z0hltGsWycaNSsd7fakCb3NwOLt1,,,,,,,,,,,,,,,,,Missed trial,,,,,65bbae0c9be9bb4d76ae2c18,09:06:16,27/02/2024
html-keyboard-response,206,1524655,0.0-85.0-2.0,,,,delaylearn,learning,feedback_duration_window,z0hltGsWycaNSsd7fakCb3NwOLt1,z0hltGsWycaNSsd7fakCb3NwOLt1,,,,,,,,,,,,,,,,,,0.0,,,,65bbae0c9be9bb4d76ae2c18,09:06:16,27/02/2024
html-keyboard-response,207,1524671,0.0-85.0-3.0,,,,delaylearn,learning,feedback_image_window,z0hltGsWycaNSsd7fakCb3NwOLt1,z0hltGsWycaNSsd7fakCb3NwOLt1,,,,,,,,,,,,,,,,,,,,,,65bbae0c9be9bb4d76ae2c18,09:06:16,27/02/2024
html-keyboard-response,208,1525186,0.0-86.0-0.0,,,,,,mood_trial_fixation,z0hltGsWycaNSsd7fakCb3NwOLt1,,,,,,,,,,,,,,,,,,,,,,,65bbae0c9be9bb4d76ae2c18,09:06:16,27/02/2024
lmdlab-html-vas-response,209,1529168,0.0-86.0-1.0,2969.0,How happy are you right now?,0.5015432098765432,delaylearn,learning,mood_trial,z0hltGsWycaNSsd7fakCb3NwOLt1,z0hltGsWycaNSsd7fakCb3NwOLt1,,,,,,,,,,,,,,,,,,,,"['Very unhappy', 'Very happy']",,65bbae0c9be9bb4d76ae2c18,09:06:16,27/02/2024
html-keyboard-response,210,1530861,0.0-87.0,,"<div style=""font-size:100px;"">+</div>",,delaylearn,learning,ITI,z0hltGsWycaNSsd7fakCb3NwOLt1,z0hltGsWycaNSsd7fakCb3NwOLt1,,,,,,,,,,,,,,,,,,,1687.0,,,65bbae0c9be9bb4d76ae2c18,09:06:16,27/02/2024
html-keyboard-response,211,1531646,0.0-88.0-0.0,780.0,"<div style=""display: flex; flex-direction: column; align-items: center; margin-top: -40px;""><img src=""images/pattern_3.png"" style=""width: 234px; height: 230px; margin-top: -50px;""><div style=""display: flex; justify-content: space-between; margin-top: 33px;""><img src=""images/choice_trial_12.png"" style=""width: 408px; height: 417px; margin-right: 200px;""><img src=""images/choice_trial_14.png"" style=""width: 408px; height: 417px;""></div></div>",j,delaylearn,learning,trial,z0hltGsWycaNSsd7fakCb3NwOLt1,z0hltGsWycaNSsd7fakCb3NwOLt1,2.0,images/choice_trial_12.png,images/choice_trial_14.png,images/pattern_3.png,j,f,7000.0,12.0,14.0,2.0,0.0,38.0,0.0,1.0,14.0,160.0,,,,,,65bbae0c9be9bb4d76ae2c18,09:06:16,27/02/2024
html-keyboard-response,212,1532647,0.0-88.0-1.0,,"<div style=""display: flex; flex-direction: column; align-items: center; margin-top: -40px;""><img src=""images/pattern_3.png"" style=""width: 234px; height: 230px; margin-top: -50px;""><div style=""display: flex; justify-content: space-between; margin-top: 33px;""><img src=""images/choice_trial_14.png"" style=""width: 408px; height: 417px; margin-left:608px;""></div></div>",,delaylearn,learning,display_response,z0hltGsWycaNSsd7fakCb3NwOLt1,z0hltGsWycaNSsd7fakCb3NwOLt1,,,,,,,,,,,,,,,,,chosen stimuli: images/choice_trial_14.png,,,,,65bbae0c9be9bb4d76ae2c18,09:06:16,27/02/2024
html-keyboard-response,213,1539662,0.0-88.0-2.0,,,,delaylearn,learning,feedback_duration_window,z0hltGsWycaNSsd7fakCb3NwOLt1,z0hltGsWycaNSsd7fakCb3NwOLt1,,,,,,,,,,,,,,,,,,7000.0,,,,65bbae0c9be9bb4d76ae2c18,09:06:16,27/02/2024
html-keyboard-response,214,1541169,0.0-88.0-3.0,,<div style='margin:auto;width: auto; font-size: 150%'><span style='font-weight: bold; font-size: 100px; color: green;'>+10 points!</span><br><br></div>,,delaylearn,learning,feedback_image_window,z0hltGsWycaNSsd7fakCb3NwOLt1,z0hltGsWycaNSsd7fakCb3NwOLt1,,,,,,,,,,,,,,,,,,,,,,65bbae0c9be9bb4d76ae2c18,09:06:16,27/02/2024
html-keyboard-response,215,1543478,0.0-89.0,,"<div style=""font-size:100px;"">+</div>",,delaylearn,learning,ITI,z0hltGsWycaNSsd7fakCb3NwOLt1,z0hltGsWycaNSsd7fakCb3NwOLt1,,,,,,,,,,,,,,,,,,,2303.0,,,65bbae0c9be9bb4d76ae2c18,09:06:16,27/02/2024
html-keyboard-response,216,1544862,0.0-90.0-0.0,1380.0,"<div style=""display: flex; flex-direction: column; align-items: center; margin-top: -40px;""><img src=""images/pattern_7.png"" style=""width: 234px; height: 230px; margin-top: -50px;""><div style=""display: flex; justify-content: space-between; margin-top: 33px;""><img src=""images/choice_trial_15.png"" style=""width: 408px; height: 417px; margin-right: 200px;""><img src=""images/choice_trial_8.png"" style=""width: 408px; height: 417px;""></div></div>",f,delaylearn,learning,trial,z0hltGsWycaNSsd7fakCb3NwOLt1,z0hltGsWycaNSsd7fakCb3NwOLt1,2.0,images/choice_trial_15.png,images/choice_trial_8.png,images/pattern_7.png,j,j,750.0,15.0,8.0,6.0,1.0,39.0,0.0,0.0,15.0,160.0,,,,,,65bbae0c9be9bb4d76ae2c18,09:06:16,27/02/2024
html-keyboard-response,217,1545864,0.0-90.0-1.0,,"<div style=""display: flex; flex-direction: column; align-items: center; margin-top: -40px;""><img src=""images/pattern_7.png"" style=""width: 234px; height: 230px; margin-top: -50px;""><div style=""display: flex; justify-content: space-between; margin-top: 33px;""><img src=""images/choice_trial_15.png"" style=""width: 408px; height: 417px; margin-right: 608px;""></div></div>",,delaylearn,learning,display_response,z0hltGsWycaNSsd7fakCb3NwOLt1,z0hltGsWycaNSsd7fakCb3NwOLt1,,,,,,,,,,,,,,,,,chosen stimuli: images/choice_trial_15.png,,,,,65bbae0c9be9bb4d76ae2c18,09:06:16,27/02/2024
html-keyboard-response,218,1546622,0.0-90.0-2.0,,,,delaylearn,learning,feedback_duration_window,z0hltGsWycaNSsd7fakCb3NwOLt1,z0hltGsWycaNSsd7fakCb3NwOLt1,,,,,,,,,,,,,,,,,,750.0,,,,65bbae0c9be9bb4d76ae2c18,09:06:16,27/02/2024
html-keyboard-response,219,1548131,0.0-90.0-3.0,,<div style='margin:auto;width: auto; font-size: 150%'><span style='font-weight: bold; font-size: 100px; color: red;'>0 points!</span><br><br></div>,,delaylearn,learning,feedback_image_window,z0hltGsWycaNSsd7fakCb3NwOLt1,z0hltGsWycaNSsd7fakCb3NwOLt1,,,,,,,,,,,,,,,,,,,,,,65bbae0c9be9bb4d76ae2c18,09:06:16,27/02/2024
html-keyboard-response,220,1549999,0.0-91.0,,"<div style=""font-size:100px;"">+</div>",,delaylearn,learning,ITI,z0hltGsWycaNSsd7fakCb3NwOLt1,z0hltGsWycaNSsd7fakCb3NwOLt1,,,,,,,,,,,,,,,,,,,1862.0,,,65bbae0c9be9bb4d76ae2c18,09:06:16,27/02/2024
html-keyboard-response,221,1551126,0.0-92.0-0.0,1124.0,"<div style=""display: flex; flex-direction: column; align-items: center; margin-top: -40px;""><img src=""images/pattern_5.png"" style=""width: 234px; height: 230px; margin-top: -50px;""><div style=""display: flex; justify-content: space-between; margin-top: 33px;""><img src=""images/choice_trial_9.png"" style=""width: 408px; height: 417px; margin-right: 200px;""><img src=""images/choice_trial_2.png"" style=""width: 408px; height: 417px;""></div></div>",f,delaylearn,learning,trial,z0hltGsWycaNSsd7fakCb3NwOLt1,z0hltGsWycaNSsd7fakCb3NwOLt1,2.0,images/choice_trial_9.png,images/choice_trial_2.png,images/pattern_5.png,j,j,750.0,9.0,2.0,4.0,1.0,40.0,0.0,0.0,9.0,160.0,,,,,,65bbae0c9be9bb4d76ae2c18,09:06:16,27/02/2024
html-keyboard-response,222,1552135,0.0-92.0-1.0,,"<div style=""display: flex; flex-direction: column; align-items: center; margin-top: -40px;""><img src=""images/pattern_5.png"" style=""width: 234px; height: 230px; margin-top: -50px;""><div style=""display: flex; justify-content: space-between; margin-top: 33px;""><img src=""images/choice_trial_9.png"" style=""width: 408px; height: 417px; margin-right: 608px;""></div></div>",,delaylearn,learning,display_response,z0hltGsWycaNSsd7fakCb3NwOLt1,z0hltGsWycaNSsd7fakCb3NwOLt1,,,,,,,,,,,,,,,,,chosen stimuli: images/choice_trial_9.png,,,,,65bbae0c9be9bb4d76ae2c18,09:06:16,27/02/2024
html-keyboard-response,223,1552887,0.0-92.0-2.0,,,,delaylearn,learning,feedback_duration_window,z0hltGsWycaNSsd7fakCb3NwOLt1,z0hltGsWycaNSsd7fakCb3NwOLt1,,,,,,,,,,,,,,,,,,750.0,,,,65bbae0c9be9bb4d76ae2c18,09:06:16,27/02/2024
html-keyboard-response,224,1554392,0.0-92.0-3.0,,<div style='margin:auto;width: auto; font-size: 150%'><span style='font-weight: bold; font-size: 100px; color: red;'>0 points!</span><br><br></div>,,delaylearn,learning,feedback_image_window,z0hltGsWycaNSsd7fakCb3NwOLt1,z0hltGsWycaNSsd7fakCb3NwOLt1,,,,,,,,,,,,,,,,,,,,,,65bbae0c9be9bb4d76ae2c18,09:06:16,27/02/2024
html-keyboard-response,225,1554894,0.0-93.0-0.0,,,,,,mood_trial_fixation,z0hltGsWycaNSsd7fakCb3NwOLt1,,,,,,,,,,,,,,,,,,,,,,,65bbae0c9be9bb4d76ae2c18,09:06:16,27/02/2024
lmdlab-html-vas-response,226,1558311,0.0-93.0-1.0,2403.0,How happy are you right now?,0.5046296296296297,delaylearn,learning,mood_trial,z0hltGsWycaNSsd7fakCb3NwOLt1,z0hltGsWycaNSsd7fakCb3NwOLt1,,,,,,,,,,,,,,,,,,,,"['Very unhappy', 'Very happy']",,65bbae0c9be9bb4d76ae2c18,09:06:16,27/02/2024
html-keyboard-response,227,1560241,0.0-94.0,,"<div style=""font-size:100px;"">+</div>",,delaylearn,learning,ITI,z0hltGsWycaNSsd7fakCb3NwOLt1,z0hltGsWycaNSsd7fakCb3NwOLt1,,,,,,,,,,,,,,,,,,,1915.0,,,65bbae0c9be9bb4d76ae2c18,09:06:16,27/02/2024
html-keyboard-response,228,1561532,0.0-95.0-0.0,1289.0,"<div style=""display: flex; flex-direction: column; align-items: center; margin-top: -40px;""><img src=""images/pattern_4.png"" style=""width: 234px; height: 230px; margin-top: -50px;""><div style=""display: flex; justify-content: space-between; margin-top: 33px;""><img src=""images/choice_trial_4.png"" style=""width: 408px; height: 417px; margin-right: 200px;""><img src=""images/choice_trial_16.png"" style=""width: 408px; height: 417px;""></div></div>",f,delaylearn,learning,trial,z0hltGsWycaNSsd7fakCb3NwOLt1,z0hltGsWycaNSsd7fakCb3NwOLt1,2.0,images/choice_trial_4.png,images/choice_trial_16.png,images/pattern_4.png,f,f,7000.0,4.0,16.0,3.0,0.0,41.0,1.0,1.0,4.0,170.0,,,,,,65bbae0c9be9bb4d76ae2c18,09:06:16,27/02/2024
html-keyboard-response,229,1562543,0.0-95.0-1.0,,"<div style=""display: flex; flex-direction: column; align-items: center; margin-top: -40px;""><img src=""images/pattern_4.png"" style=""width: 234px; height: 230px; margin-top: -50px;""><div style=""display: flex; justify-content: space-between; margin-top: 33px;""><img src=""images/choice_trial_4.png"" style=""width: 408px; height: 417px; margin-right: 608px;""></div></div>",,delaylearn,learning,display_response,z0hltGsWycaNSsd7fakCb3NwOLt1,z0hltGsWycaNSsd7fakCb3NwOLt1,,,,,,,,,,,,,,,,,chosen stimuli: images/choice_trial_4.png,,,,,65bbae0c9be9bb4d76ae2c18,09:06:16,27/02/2024
html-keyboard-response,230,1569557,0.0-95.0-2.0,,,,delaylearn,learning,feedback_duration_window,z0hltGsWycaNSsd7fakCb3NwOLt1,z0hltGsWycaNSsd7fakCb3NwOLt1,,,,,,,,,,,,,,,,,,7000.0,,,,65bbae0c9be9bb4d76ae2c18,09:06:16,27/02/2024
html-keyboard-response,231,1571064,0.0-95.0-3.0,,<div style='margin:auto;width: auto; font-size: 150%'><span style='font-weight: bold; font-size: 100px; color: green;'>+10 points!</span><br><br></div>,,delaylearn,learning,feedback_image_window,z0hltGsWycaNSsd7fakCb3NwOLt1,z0hltGsWycaNSsd7fakCb3NwOLt1,,,,,,,,,,,,,,,,,,,,,,65bbae0c9be9bb4d76ae2c18,09:06:16,27/02/2024
html-keyboard-response,232,1573090,0.0-96.0,,"<div style=""font-size:100px;"">+</div>",,delaylearn,learning,ITI,z0hltGsWycaNSsd7fakCb3NwOLt1,z0hltGsWycaNSsd7fakCb3NwOLt1,,,,,,,,,,,,,,,,,,,2019.0,,,65bbae0c9be9bb4d76ae2c18,09:06:16,27/02/2024
