trial_type,trial_index,time_elapsed,internal_node_id,rt,stimulus,response,exp_name,exp_stage,test_part,subjectID,databaseID,counterbal,choice_stimuli_1,choice_stimuli_2,pattern_stimuli,rewarded_answer,correct_answer,feedback_duration_times,stim_left,stim_right,pair,leftright_counter,trial,response_correct,response_rewarded,chosen_stim,counter,displayed_choice,feedback_durations,ITI_duration,labels,rest_warning,prolificID,start_time,date
pavlovia,0,613,0.0-0.0,,,,,,,vrI6NxBw9pa5JWYYpNSPADUdALf1,,,,,,,,,,,,,,,,,,,,,,,65b5a5aa458275b5740acee4,10:09:13,27/02/2024
html-keyboard-response,1,3627,0.0-1.0,,"<div style=""font-size:100px;"">+</div>",,delaylearn,learning,pre_fixation,vrI6NxBw9pa5JWYYpNSPADUdALf1,,,,,,,,,,,,,,,,,,,,,,,65b5a5aa458275b5740acee4,10:09:13,27/02/2024
html-keyboard-response,2,5265,0.0-2.0-0.0,1634.9000000357628,"<div style=""display: flex; flex-direction: column; align-items: center; margin-top: -40px;""><img src=""images/demo_images/pattern_1.png"" style=""width: 234px; height: 230px; margin-top: -50px;""><div style=""display: flex; justify-content: space-between; margin-top: 33px;""><img src=""images/demo_images/choice_trial_2.png"" style=""width: 408px; height: 417px; margin-right: 200px;""><img src=""images/demo_images/choice_trial_1.png"" style=""width: 408px; height: 417px;""></div></div>",j,delaylearn,learning,trial,vrI6NxBw9pa5JWYYpNSPADUdALf1,vrI6NxBw9pa5JWYYpNSPADUdALf1,3.0,images/demo_images/choice_trial_2.png,images/demo_images/choice_trial_1.png,images/demo_images/pattern_1.png,j,j,3000.0,2.0,1.0,20.0,1.0,1.0,1.0,1.0,1.0,10.0,,,,,,65b5a5aa458275b5740acee4,10:09:13,27/02/2024
html-keyboard-response,3,6270,0.0-2.0-1.0,,"<div style=""display: flex; flex-direction: column; align-items: center; margin-top: -40px;""><img src=""images/demo_images/pattern_1.png"" style=""width: 234px; height: 230px; margin-top: -50px;""><div style=""display: flex; justify-content: space-between; margin-top: 33px;""><img src=""images/demo_images/choice_trial_1.png"" style=""width: 408px; height: 417px; margin-left:608px;""></div></div>",,delaylearn,learning,display_response,vrI6NxBw9pa5JWYYpNSPADUdALf1,vrI6NxBw9pa5JWYYpNSPADUdALf1,,,,,,,,,,,,,,,,,chosen stimuli: images/demo_images/choice_trial_1.png,,,,,65b5a5aa458275b5740acee4,10:09:13,27/02/2024
html-keyboard-response,4,9284,0.0-2.0-2.0,,,,delaylearn,learning,feedback_duration_window,vrI6NxBw9pa5JWYYpNSPADUdALf1,vrI6NxBw9pa5JWYYpNSPADUdALf1,,,,,,,,,,,,,,,,,,3000.0,,,,65b5a5aa458275b5740acee4,10:09:13,27/02/2024
html-keyboard-response,5,10800,0.0-2.0-3.0,,<div style='margin:auto;width: auto; font-size: 150%'><span style='font-weight: bold; font-size: 100px; color: green;'>+10 points!</span><br><br></div>,,delaylearn,learning,feedback_image_window,vrI6NxBw9pa5JWYYpNSPADUdALf1,vrI6NxBw9pa5JWYYpNSPADUdALf1,,,,,,,,,,,,,,,,,,,,,,65b5a5aa458275b5740acee4,10:09:13,27/02/2024
html-keyboard-response,6,13144,0.0-3.0,,"<div style=""font-size:100px;"">+</div>",,delaylearn,learning,ITI,vrI6NxBw9pa5JWYYpNSPADUdALf1,vrI6NxBw9pa5JWYYpNSPADUdALf1,,,,,,,,,,,,,,,,,,,2341.0,,,65b5a5aa458275b5740acee4,10:09:13,27/02/2024
html-keyboard-response,7,13930,0.0-4.0-0.0,782.9000000357628,"<div style=""display: flex; flex-direction: column; align-items: center; margin-top: -40px;""><img src=""images/demo_images/pattern_1.png"" style=""width: 234px; height: 230px; margin-top: -50px;""><div style=""display: flex; justify-content: space-between; margin-top: 33px;""><img src=""images/demo_images/choice_trial_2.png"" style=""width: 408px; height: 417px; margin-right: 200px;""><img src=""images/demo_images/choice_trial_1.png"" style=""width: 408px; height: 417px;""></div></div>",j,delaylearn,learning,trial,vrI6NxBw9pa5JWYYpNSPADUdALf1,vrI6NxBw9pa5JWYYpNSPADUdALf1,3.0,images/demo_images/choice_trial_2.png,images/demo_images/choice_trial_1.png,images/demo_images/pattern_1.png,j,j,3000.0,2.0,1.0,20.0,1.0,2.0,1.0,1.0,1.0,20.0,,,,,,65b5a5aa458275b5740acee4,10:09:13,27/02/2024
html-keyboard-response,8,14941,0.0-4.0-1.0,,"<div style=""display: flex; flex-direction: column; align-items: center; margin-top: -40px;""><img src=""images/demo_images/pattern_1.png"" style=""width: 234px; height: 230px; margin-top: -50px;""><div style=""display: flex; justify-content: space-between; margin-top: 33px;""><img src=""images/demo_images/choice_trial_1.png"" style=""width: 408px; height: 417px; margin-left:608px;""></div></div>",,delaylearn,learning,display_response,vrI6NxBw9pa5JWYYpNSPADUdALf1,vrI6NxBw9pa5JWYYpNSPADUdALf1,,,,,,,,,,,,,,,,,chosen stimuli: images/demo_images/choice_trial_1.png,,,,,65b5a5aa458275b5740acee4,10:09:13,27/02/2024
html-keyboard-response,9,17950,0.0-4.0-2.0,,,,delaylearn,learning,feedback_duration_window,vrI6NxBw9pa5JWYYpNSPADUdALf1,vrI6NxBw9pa5JWYYpNSPADUdALf1,,,,,,,,,,,,,,,,,,3000.0,,,,65b5a5aa458275b5740acee4,10:09:13,27/02/2024
html-keyboard-response,10,19467,0.0-4.0-3.0,,<div style='margin:auto;width: auto; font-size: 150%'><span style='font-weight: bold; font-size: 100px; color: green;'>+10 points!</span><br><br></div>,,delaylearn,learning,feedback_image_window,vrI6NxBw9pa5JWYYpNSPADUdALf1,vrI6NxBw9pa5JWYYpNSPADUdALf1,,,,,,,,,,,,,,,,,,,,,,65b5a5aa458275b5740acee4,10:09:13,27/02/2024
html-keyboard-response,11,21275,0.0-5.0,,"<div style=""font-size:100px;"">+</div>",,delaylearn,learning,ITI,vrI6NxBw9pa5JWYYpNSPADUdALf1,vrI6NxBw9pa5JWYYpNSPADUdALf1,,,,,,,,,,,,,,,,,,,1805.0,,,65b5a5aa458275b5740acee4,10:09:13,27/02/2024
html-keyboard-response,12,21818,0.0-6.0-0.0,540.6999999880791,"<div style=""display: flex; flex-direction: column; align-items: center; margin-top: -40px;""><img src=""images/demo_images/pattern_1.png"" style=""width: 234px; height: 230px; margin-top: -50px;""><div style=""display: flex; justify-content: space-between; margin-top: 33px;""><img src=""images/demo_images/choice_trial_1.png"" style=""width: 408px; height: 417px; margin-right: 200px;""><img src=""images/demo_images/choice_trial_2.png"" style=""width: 408px; height: 417px;""></div></div>",j,delaylearn,learning,trial,vrI6NxBw9pa5JWYYpNSPADUdALf1,vrI6NxBw9pa5JWYYpNSPADUdALf1,3.0,images/demo_images/choice_trial_1.png,images/demo_images/choice_trial_2.png,images/demo_images/pattern_1.png,j,f,3000.0,1.0,2.0,20.0,0.0,3.0,0.0,1.0,2.0,30.0,,,,,,65b5a5aa458275b5740acee4,10:09:13,27/02/2024
html-keyboard-response,13,22835,0.0-6.0-1.0,,"<div style=""display: flex; flex-direction: column; align-items: center; margin-top: -40px;""><img src=""images/demo_images/pattern_1.png"" style=""width: 234px; height: 230px; margin-top: -50px;""><div style=""display: flex; justify-content: space-between; margin-top: 33px;""><img src=""images/demo_images/choice_trial_2.png"" style=""width: 408px; height: 417px; margin-left:608px;""></div></div>",,delaylearn,learning,display_response,vrI6NxBw9pa5JWYYpNSPADUdALf1,vrI6NxBw9pa5JWYYpNSPADUdALf1,,,,,,,,,,,,,,,,,chosen stimuli: images/demo_images/choice_trial_2.png,,,,,65b5a5aa458275b5740acee4,10:09:13,27/02/2024
html-keyboard-response,14,25845,0.0-6.0-2.0,,,,delaylearn,learning,feedback_duration_window,vrI6NxBw9pa5JWYYpNSPADUdALf1,vrI6NxBw9pa5JWYYpNSPADUdALf1,,,,,,,,,,,,,,,,,,3000.0,,,,65b5a5aa458275b5740acee4,10:09:13,27/02/2024
html-keyboard-response,15,27361,0.0-6.0-3.0,,<div style='margin:auto;width: auto; font-size: 150%'><span style='font-weight: bold; font-size: 100px; color: green;'>+10 points!</span><br><br></div>,,delaylearn,learning,feedback_image_window,vrI6NxBw9pa5JWYYpNSPADUdALf1,vrI6NxBw9pa5JWYYpNSPADUdALf1,,,,,,,,,,,,,,,,,,,,,,65b5a5aa458275b5740acee4,10:09:13,27/02/2024
html-keyboard-response,16,29021,0.0-7.0,,"<div style=""font-size:100px;"">+</div>",,delaylearn,learning,ITI,vrI6NxBw9pa5JWYYpNSPADUdALf1,vrI6NxBw9pa5JWYYpNSPADUdALf1,,,,,,,,,,,,,,,,,,,1650.0,,,65b5a5aa458275b5740acee4,10:09:13,27/02/2024
html-keyboard-response,17,29581,0.0-8.0-0.0,558.5999999642372,"<div style=""display: flex; flex-direction: column; align-items: center; margin-top: -40px;""><img src=""images/demo_images/pattern_1.png"" style=""width: 234px; height: 230px; margin-top: -50px;""><div style=""display: flex; justify-content: space-between; margin-top: 33px;""><img src=""images/demo_images/choice_trial_1.png"" style=""width: 408px; height: 417px; margin-right: 200px;""><img src=""images/demo_images/choice_trial_2.png"" style=""width: 408px; height: 417px;""></div></div>",f,delaylearn,learning,trial,vrI6NxBw9pa5JWYYpNSPADUdALf1,vrI6NxBw9pa5JWYYpNSPADUdALf1,3.0,images/demo_images/choice_trial_1.png,images/demo_images/choice_trial_2.png,images/demo_images/pattern_1.png,f,f,3000.0,1.0,2.0,20.0,0.0,4.0,1.0,1.0,1.0,40.0,,,,,,65b5a5aa458275b5740acee4,10:09:13,27/02/2024
html-keyboard-response,18,30598,0.0-8.0-1.0,,"<div style=""display: flex; flex-direction: column; align-items: center; margin-top: -40px;""><img src=""images/demo_images/pattern_1.png"" style=""width: 234px; height: 230px; margin-top: -50px;""><div style=""display: flex; justify-content: space-between; margin-top: 33px;""><img src=""images/demo_images/choice_trial_1.png"" style=""width: 408px; height: 417px; margin-right: 608px;""></div></div>",,delaylearn,learning,display_response,vrI6NxBw9pa5JWYYpNSPADUdALf1,vrI6NxBw9pa5JWYYpNSPADUdALf1,,,,,,,,,,,,,,,,,chosen stimuli: images/demo_images/choice_trial_1.png,,,,,65b5a5aa458275b5740acee4,10:09:13,27/02/2024
html-keyboard-response,19,33604,0.0-8.0-2.0,,,,delaylearn,learning,feedback_duration_window,vrI6NxBw9pa5JWYYpNSPADUdALf1,vrI6NxBw9pa5JWYYpNSPADUdALf1,,,,,,,,,,,,,,,,,,3000.0,,,,65b5a5aa458275b5740acee4,10:09:13,27/02/2024
html-keyboard-response,20,35112,0.0-8.0-3.0,,<div style='margin:auto;width: auto; font-size: 150%'><span style='font-weight: bold; font-size: 100px; color: green;'>+10 points!</span><br><br></div>,,delaylearn,learning,feedback_image_window,vrI6NxBw9pa5JWYYpNSPADUdALf1,vrI6NxBw9pa5JWYYpNSPADUdALf1,,,,,,,,,,,,,,,,,,,,,,65b5a5aa458275b5740acee4,10:09:13,27/02/2024
html-keyboard-response,21,35614,0.0-9.0-0.0,,,,,,mood_trial_fixation,vrI6NxBw9pa5JWYYpNSPADUdALf1,,,,,,,,,,,,,,,,,,,,,,,65b5a5aa458275b5740acee4,10:09:13,27/02/2024
lmdlab-html-vas-response,22,40753,0.0-9.0-1.0,4112.0,How happy are you right now?,1,delaylearn,learning,mood_trial,vrI6NxBw9pa5JWYYpNSPADUdALf1,vrI6NxBw9pa5JWYYpNSPADUdALf1,,,,,,,,,,,,,,,,,,,,"['Very unhappy', 'Very happy']",,65b5a5aa458275b5740acee4,10:09:13,27/02/2024
html-keyboard-response,23,42831,0.0-10.0,,"<div style=""font-size:100px;"">+</div>",,delaylearn,learning,ITI,vrI6NxBw9pa5JWYYpNSPADUdALf1,vrI6NxBw9pa5JWYYpNSPADUdALf1,,,,,,,,,,,,,,,,,,,2073.0,,,65b5a5aa458275b5740acee4,10:09:13,27/02/2024
html-keyboard-response,24,43721,0.0-11.0-0.0,888.7999999523163,"<div style=""display: flex; flex-direction: column; align-items: center; margin-top: -40px;""><img src=""images/demo_images/pattern_1.png"" style=""width: 234px; height: 230px; margin-top: -50px;""><div style=""display: flex; justify-content: space-between; margin-top: 33px;""><img src=""images/demo_images/choice_trial_2.png"" style=""width: 408px; height: 417px; margin-right: 200px;""><img src=""images/demo_images/choice_trial_1.png"" style=""width: 408px; height: 417px;""></div></div>",j,delaylearn,learning,trial,vrI6NxBw9pa5JWYYpNSPADUdALf1,vrI6NxBw9pa5JWYYpNSPADUdALf1,3.0,images/demo_images/choice_trial_2.png,images/demo_images/choice_trial_1.png,images/demo_images/pattern_1.png,j,j,3000.0,2.0,1.0,20.0,1.0,5.0,1.0,1.0,1.0,50.0,,,,,,65b5a5aa458275b5740acee4,10:09:13,27/02/2024
html-keyboard-response,25,44737,0.0-11.0-1.0,,"<div style=""display: flex; flex-direction: column; align-items: center; margin-top: -40px;""><img src=""images/demo_images/pattern_1.png"" style=""width: 234px; height: 230px; margin-top: -50px;""><div style=""display: flex; justify-content: space-between; margin-top: 33px;""><img src=""images/demo_images/choice_trial_1.png"" style=""width: 408px; height: 417px; margin-left:608px;""></div></div>",,delaylearn,learning,display_response,vrI6NxBw9pa5JWYYpNSPADUdALf1,vrI6NxBw9pa5JWYYpNSPADUdALf1,,,,,,,,,,,,,,,,,chosen stimuli: images/demo_images/choice_trial_1.png,,,,,65b5a5aa458275b5740acee4,10:09:13,27/02/2024
html-keyboard-response,26,47749,0.0-11.0-2.0,,,,delaylearn,learning,feedback_duration_window,vrI6NxBw9pa5JWYYpNSPADUdALf1,vrI6NxBw9pa5JWYYpNSPADUdALf1,,,,,,,,,,,,,,,,,,3000.0,,,,65b5a5aa458275b5740acee4,10:09:13,27/02/2024
html-keyboard-response,27,49267,0.0-11.0-3.0,,<div style='margin:auto;width: auto; font-size: 150%'><span style='font-weight: bold; font-size: 100px; color: green;'>+10 points!</span><br><br></div>,,delaylearn,learning,feedback_image_window,vrI6NxBw9pa5JWYYpNSPADUdALf1,vrI6NxBw9pa5JWYYpNSPADUdALf1,,,,,,,,,,,,,,,,,,,,,,65b5a5aa458275b5740acee4,10:09:13,27/02/2024
html-keyboard-response,28,51221,0.0-12.0,,"<div style=""font-size:100px;"">+</div>",,delaylearn,learning,ITI,vrI6NxBw9pa5JWYYpNSPADUdALf1,vrI6NxBw9pa5JWYYpNSPADUdALf1,,,,,,,,,,,,,,,,,,,1946.0,,,65b5a5aa458275b5740acee4,10:09:13,27/02/2024
html-keyboard-response,29,51990,0.0-13.0-0.0,765.5,"<div style=""display: flex; flex-direction: column; align-items: center; margin-top: -40px;""><img src=""images/demo_images/pattern_1.png"" style=""width: 234px; height: 230px; margin-top: -50px;""><div style=""display: flex; justify-content: space-between; margin-top: 33px;""><img src=""images/demo_images/choice_trial_1.png"" style=""width: 408px; height: 417px; margin-right: 200px;""><img src=""images/demo_images/choice_trial_2.png"" style=""width: 408px; height: 417px;""></div></div>",f,delaylearn,learning,trial,vrI6NxBw9pa5JWYYpNSPADUdALf1,vrI6NxBw9pa5JWYYpNSPADUdALf1,3.0,images/demo_images/choice_trial_1.png,images/demo_images/choice_trial_2.png,images/demo_images/pattern_1.png,f,f,3000.0,1.0,2.0,20.0,0.0,6.0,1.0,1.0,1.0,60.0,,,,,,65b5a5aa458275b5740acee4,10:09:13,27/02/2024
html-keyboard-response,30,53003,0.0-13.0-1.0,,"<div style=""display: flex; flex-direction: column; align-items: center; margin-top: -40px;""><img src=""images/demo_images/pattern_1.png"" style=""width: 234px; height: 230px; margin-top: -50px;""><div style=""display: flex; justify-content: space-between; margin-top: 33px;""><img src=""images/demo_images/choice_trial_1.png"" style=""width: 408px; height: 417px; margin-right: 608px;""></div></div>",,delaylearn,learning,display_response,vrI6NxBw9pa5JWYYpNSPADUdALf1,vrI6NxBw9pa5JWYYpNSPADUdALf1,,,,,,,,,,,,,,,,,chosen stimuli: images/demo_images/choice_trial_1.png,,,,,65b5a5aa458275b5740acee4,10:09:13,27/02/2024
html-keyboard-response,31,56016,0.0-13.0-2.0,,,,delaylearn,learning,feedback_duration_window,vrI6NxBw9pa5JWYYpNSPADUdALf1,vrI6NxBw9pa5JWYYpNSPADUdALf1,,,,,,,,,,,,,,,,,,3000.0,,,,65b5a5aa458275b5740acee4,10:09:13,27/02/2024
html-keyboard-response,32,57520,0.0-13.0-3.0,,<div style='margin:auto;width: auto; font-size: 150%'><span style='font-weight: bold; font-size: 100px; color: green;'>+10 points!</span><br><br></div>,,delaylearn,learning,feedback_image_window,vrI6NxBw9pa5JWYYpNSPADUdALf1,vrI6NxBw9pa5JWYYpNSPADUdALf1,,,,,,,,,,,,,,,,,,,,,,65b5a5aa458275b5740acee4,10:09:13,27/02/2024
html-button-response,33,59637,0.0-14.0,2116.5,"
  <div style=""display: flex; align-items: center; justify-content: center; height: 80vh;"">
  <div>
          <img src=""images/inst_demo_finish.png"" style=""width: 80vw; height:auto;"">
          <br><br>
      </div>
      <br><br>
  </div>",0,,,,vrI6NxBw9pa5JWYYpNSPADUdALf1,,,,,,,,,,,,,,,,,,,,,,,65b5a5aa458275b5740acee4,10:09:13,27/02/2024
html-keyboard-response,34,65601,0.0-15.0,5962.400000035763,"
  <div style=""display: flex; align-items: center; justify-content: center; height: 80vh;"">
  <div>
          <img src=""images/inst_6.png"" style=""width: 80vw; height:auto;"">
          <br><br>
      </div>
      <br><br>
  </div>",f,,,,vrI6NxBw9pa5JWYYpNSPADUdALf1,,,,,,,,,,,,,,,,,,,,,,,65b5a5aa458275b5740acee4,10:09:13,27/02/2024
html-keyboard-response,35,68612,0.0-16.0,,"<div style=""font-size:100px;"">+</div>",,delaylearn,learning,pre_fixation,vrI6NxBw9pa5JWYYpNSPADUdALf1,,,,,,,,,,,,,,,,,,,,,,,65b5a5aa458275b5740acee4,10:09:13,27/02/2024
html-keyboard-response,36,70933,0.0-17.0,,"<div style=""font-size:100px;"">+</div>",,delaylearn,learning,ITI,vrI6NxBw9pa5JWYYpNSPADUdALf1,vrI6NxBw9pa5JWYYpNSPADUdALf1,,,,,,,,,,,,,,,,,,,2318.0,,,65b5a5aa458275b5740acee4,10:09:13,27/02/2024
html-keyboard-response,37,72249,0.0-18.0-0.0,1313.699999988079,"<div style=""display: flex; flex-direction: column; align-items: center; margin-top: -40px;""><img src=""images/pattern_3.png"" style=""width: 234px; height: 230px; margin-top: -50px;""><div style=""display: flex; justify-content: space-between; margin-top: 33px;""><img src=""images/choice_trial_13.png"" style=""width: 408px; height: 417px; margin-right: 200px;""><img src=""images/choice_trial_10.png"" style=""width: 408px; height: 417px;""></div></div>",j,delaylearn,learning,trial,vrI6NxBw9pa5JWYYpNSPADUdALf1,vrI6NxBw9pa5JWYYpNSPADUdALf1,3.0,images/choice_trial_13.png,images/choice_trial_10.png,images/pattern_3.png,f,f,7000.0,13.0,10.0,2.0,0.0,7.0,0.0,0.0,10.0,60.0,,,,,,65b5a5aa458275b5740acee4,10:09:13,27/02/2024
html-keyboard-response,38,73253,0.0-18.0-1.0,,"<div style=""display: flex; flex-direction: column; align-items: center; margin-top: -40px;""><img src=""images/pattern_3.png"" style=""width: 234px; height: 230px; margin-top: -50px;""><div style=""display: flex; justify-content: space-between; margin-top: 33px;""><img src=""images/choice_trial_10.png"" style=""width: 408px; height: 417px; margin-left:608px;""></div></div>",,delaylearn,learning,display_response,vrI6NxBw9pa5JWYYpNSPADUdALf1,vrI6NxBw9pa5JWYYpNSPADUdALf1,,,,,,,,,,,,,,,,,chosen stimuli: images/choice_trial_10.png,,,,,65b5a5aa458275b5740acee4,10:09:13,27/02/2024
html-keyboard-response,39,80257,0.0-18.0-2.0,,,,delaylearn,learning,feedback_duration_window,vrI6NxBw9pa5JWYYpNSPADUdALf1,vrI6NxBw9pa5JWYYpNSPADUdALf1,,,,,,,,,,,,,,,,,,7000.0,,,,65b5a5aa458275b5740acee4,10:09:13,27/02/2024
html-keyboard-response,40,81769,0.0-18.0-3.0,,<div style='margin:auto;width: auto; font-size: 150%'><span style='font-weight: bold; font-size: 100px; color: red;'>0 points!</span><br><br></div>,,delaylearn,learning,feedback_image_window,vrI6NxBw9pa5JWYYpNSPADUdALf1,vrI6NxBw9pa5JWYYpNSPADUdALf1,,,,,,,,,,,,,,,,,,,,,,65b5a5aa458275b5740acee4,10:09:13,27/02/2024
html-keyboard-response,41,83386,0.0-19.0,,"<div style=""font-size:100px;"">+</div>",,delaylearn,learning,ITI,vrI6NxBw9pa5JWYYpNSPADUdALf1,vrI6NxBw9pa5JWYYpNSPADUdALf1,,,,,,,,,,,,,,,,,,,1610.0,,,65b5a5aa458275b5740acee4,10:09:13,27/02/2024
html-keyboard-response,42,86395,0.0-20.0-0.0,,"<div style=""display: flex; flex-direction: column; align-items: center; margin-top: -40px;""><img src=""images/pattern_7.png"" style=""width: 234px; height: 230px; margin-top: -50px;""><div style=""display: flex; justify-content: space-between; margin-top: 33px;""><img src=""images/choice_trial_12.png"" style=""width: 408px; height: 417px; margin-right: 200px;""><img src=""images/choice_trial_6.png"" style=""width: 408px; height: 417px;""></div></div>",,delaylearn,learning,trial,vrI6NxBw9pa5JWYYpNSPADUdALf1,vrI6NxBw9pa5JWYYpNSPADUdALf1,3.0,images/choice_trial_12.png,images/choice_trial_6.png,images/pattern_7.png,j,j,750.0,12.0,6.0,6.0,1.0,8.0,0.0,0.0,0.0,60.0,,,,,,65b5a5aa458275b5740acee4,10:09:13,27/02/2024
html-keyboard-response,43,87408,0.0-20.0-1.0,,<div style='font-weight: bold; font-size: 75px; color: red;'>Missed Trial <br><br><br><br> Please respond faster</div>,,delaylearn,learning,display_response,vrI6NxBw9pa5JWYYpNSPADUdALf1,vrI6NxBw9pa5JWYYpNSPADUdALf1,,,,,,,,,,,,,,,,,Missed trial,,,,,65b5a5aa458275b5740acee4,10:09:13,27/02/2024
html-keyboard-response,44,87414,0.0-20.0-2.0,,,,delaylearn,learning,feedback_duration_window,vrI6NxBw9pa5JWYYpNSPADUdALf1,vrI6NxBw9pa5JWYYpNSPADUdALf1,,,,,,,,,,,,,,,,,,0.0,,,,65b5a5aa458275b5740acee4,10:09:13,27/02/2024
html-keyboard-response,45,87420,0.0-20.0-3.0,,,,delaylearn,learning,feedback_image_window,vrI6NxBw9pa5JWYYpNSPADUdALf1,vrI6NxBw9pa5JWYYpNSPADUdALf1,,,,,,,,,,,,,,,,,,,,,,65b5a5aa458275b5740acee4,10:09:13,27/02/2024
html-keyboard-response,46,89296,0.0-21.0,,"<div style=""font-size:100px;"">+</div>",,delaylearn,learning,ITI,vrI6NxBw9pa5JWYYpNSPADUdALf1,vrI6NxBw9pa5JWYYpNSPADUdALf1,,,,,,,,,,,,,,,,,,,1871.0,,,65b5a5aa458275b5740acee4,10:09:13,27/02/2024
html-keyboard-response,47,89783,0.0-22.0-0.0,485.2999999523163,"<div style=""display: flex; flex-direction: column; align-items: center; margin-top: -40px;""><img src=""images/pattern_4.png"" style=""width: 234px; height: 230px; margin-top: -50px;""><div style=""display: flex; justify-content: space-between; margin-top: 33px;""><img src=""images/choice_trial_15.png"" style=""width: 408px; height: 417px; margin-right: 200px;""><img src=""images/choice_trial_9.png"" style=""width: 408px; height: 417px;""></div></div>",j,delaylearn,learning,trial,vrI6NxBw9pa5JWYYpNSPADUdALf1,vrI6NxBw9pa5JWYYpNSPADUdALf1,3.0,images/choice_trial_15.png,images/choice_trial_9.png,images/pattern_4.png,f,f,7000.0,15.0,9.0,3.0,0.0,9.0,0.0,0.0,9.0,60.0,,,,,,65b5a5aa458275b5740acee4,10:09:13,27/02/2024
html-keyboard-response,48,90801,0.0-22.0-1.0,,"<div style=""display: flex; flex-direction: column; align-items: center; margin-top: -40px;""><img src=""images/pattern_4.png"" style=""width: 234px; height: 230px; margin-top: -50px;""><div style=""display: flex; justify-content: space-between; margin-top: 33px;""><img src=""images/choice_trial_9.png"" style=""width: 408px; height: 417px; margin-left:608px;""></div></div>",,delaylearn,learning,display_response,vrI6NxBw9pa5JWYYpNSPADUdALf1,vrI6NxBw9pa5JWYYpNSPADUdALf1,,,,,,,,,,,,,,,,,chosen stimuli: images/choice_trial_9.png,,,,,65b5a5aa458275b5740acee4,10:09:13,27/02/2024
html-keyboard-response,49,97806,0.0-22.0-2.0,,,,delaylearn,learning,feedback_duration_window,vrI6NxBw9pa5JWYYpNSPADUdALf1,vrI6NxBw9pa5JWYYpNSPADUdALf1,,,,,,,,,,,,,,,,,,7000.0,,,,65b5a5aa458275b5740acee4,10:09:13,27/02/2024
html-keyboard-response,50,99321,0.0-22.0-3.0,,<div style='margin:auto;width: auto; font-size: 150%'><span style='font-weight: bold; font-size: 100px; color: red;'>0 points!</span><br><br></div>,,delaylearn,learning,feedback_image_window,vrI6NxBw9pa5JWYYpNSPADUdALf1,vrI6NxBw9pa5JWYYpNSPADUdALf1,,,,,,,,,,,,,,,,,,,,,,65b5a5aa458275b5740acee4,10:09:13,27/02/2024
html-keyboard-response,51,100939,0.0-23.0,,"<div style=""font-size:100px;"">+</div>",,delaylearn,learning,ITI,vrI6NxBw9pa5JWYYpNSPADUdALf1,vrI6NxBw9pa5JWYYpNSPADUdALf1,,,,,,,,,,,,,,,,,,,1612.0,,,65b5a5aa458275b5740acee4,10:09:13,27/02/2024
html-keyboard-response,52,102111,0.0-24.0-0.0,1169.3999999761581,"<div style=""display: flex; flex-direction: column; align-items: center; margin-top: -40px;""><img src=""images/pattern_5.png"" style=""width: 234px; height: 230px; margin-top: -50px;""><div style=""display: flex; justify-content: space-between; margin-top: 33px;""><img src=""images/choice_trial_2.png"" style=""width: 408px; height: 417px; margin-right: 200px;""><img src=""images/choice_trial_11.png"" style=""width: 408px; height: 417px;""></div></div>",f,delaylearn,learning,trial,vrI6NxBw9pa5JWYYpNSPADUdALf1,vrI6NxBw9pa5JWYYpNSPADUdALf1,3.0,images/choice_trial_2.png,images/choice_trial_11.png,images/pattern_5.png,j,j,750.0,2.0,11.0,4.0,1.0,10.0,0.0,0.0,2.0,60.0,,,,,,65b5a5aa458275b5740acee4,10:09:13,27/02/2024
html-keyboard-response,53,103130,0.0-24.0-1.0,,"<div style=""display: flex; flex-direction: column; align-items: center; margin-top: -40px;""><img src=""images/pattern_5.png"" style=""width: 234px; height: 230px; margin-top: -50px;""><div style=""display: flex; justify-content: space-between; margin-top: 33px;""><img src=""images/choice_trial_2.png"" style=""width: 408px; height: 417px; margin-right: 608px;""></div></div>",,delaylearn,learning,display_response,vrI6NxBw9pa5JWYYpNSPADUdALf1,vrI6NxBw9pa5JWYYpNSPADUdALf1,,,,,,,,,,,,,,,,,chosen stimuli: images/choice_trial_2.png,,,,,65b5a5aa458275b5740acee4,10:09:13,27/02/2024
html-keyboard-response,54,103892,0.0-24.0-2.0,,,,delaylearn,learning,feedback_duration_window,vrI6NxBw9pa5JWYYpNSPADUdALf1,vrI6NxBw9pa5JWYYpNSPADUdALf1,,,,,,,,,,,,,,,,,,750.0,,,,65b5a5aa458275b5740acee4,10:09:13,27/02/2024
html-keyboard-response,55,105408,0.0-24.0-3.0,,<div style='margin:auto;width: auto; font-size: 150%'><span style='font-weight: bold; font-size: 100px; color: red;'>0 points!</span><br><br></div>,,delaylearn,learning,feedback_image_window,vrI6NxBw9pa5JWYYpNSPADUdALf1,vrI6NxBw9pa5JWYYpNSPADUdALf1,,,,,,,,,,,,,,,,,,,,,,65b5a5aa458275b5740acee4,10:09:13,27/02/2024
html-keyboard-response,56,107566,0.0-25.0,,"<div style=""font-size:100px;"">+</div>",,delaylearn,learning,ITI,vrI6NxBw9pa5JWYYpNSPADUdALf1,vrI6NxBw9pa5JWYYpNSPADUdALf1,,,,,,,,,,,,,,,,,,,2154.0,,,65b5a5aa458275b5740acee4,10:09:13,27/02/2024
html-keyboard-response,57,108492,0.0-26.0-0.0,923.9000000357628,"<div style=""display: flex; flex-direction: column; align-items: center; margin-top: -40px;""><img src=""images/pattern_6.png"" style=""width: 234px; height: 230px; margin-top: -50px;""><div style=""display: flex; justify-content: space-between; margin-top: 33px;""><img src=""images/choice_trial_16.png"" style=""width: 408px; height: 417px; margin-right: 200px;""><img src=""images/choice_trial_3.png"" style=""width: 408px; height: 417px;""></div></div>",j,delaylearn,learning,trial,vrI6NxBw9pa5JWYYpNSPADUdALf1,vrI6NxBw9pa5JWYYpNSPADUdALf1,3.0,images/choice_trial_16.png,images/choice_trial_3.png,images/pattern_6.png,j,f,750.0,16.0,3.0,5.0,0.0,11.0,0.0,1.0,3.0,70.0,,,,,,65b5a5aa458275b5740acee4,10:09:13,27/02/2024
html-keyboard-response,58,109497,0.0-26.0-1.0,,"<div style=""display: flex; flex-direction: column; align-items: center; margin-top: -40px;""><img src=""images/pattern_6.png"" style=""width: 234px; height: 230px; margin-top: -50px;""><div style=""display: flex; justify-content: space-between; margin-top: 33px;""><img src=""images/choice_trial_3.png"" style=""width: 408px; height: 417px; margin-left:608px;""></div></div>",,delaylearn,learning,display_response,vrI6NxBw9pa5JWYYpNSPADUdALf1,vrI6NxBw9pa5JWYYpNSPADUdALf1,,,,,,,,,,,,,,,,,chosen stimuli: images/choice_trial_3.png,,,,,65b5a5aa458275b5740acee4,10:09:13,27/02/2024
html-keyboard-response,59,110256,0.0-26.0-2.0,,,,delaylearn,learning,feedback_duration_window,vrI6NxBw9pa5JWYYpNSPADUdALf1,vrI6NxBw9pa5JWYYpNSPADUdALf1,,,,,,,,,,,,,,,,,,750.0,,,,65b5a5aa458275b5740acee4,10:09:13,27/02/2024
html-keyboard-response,60,111764,0.0-26.0-3.0,,<div style='margin:auto;width: auto; font-size: 150%'><span style='font-weight: bold; font-size: 100px; color: green;'>+10 points!</span><br><br></div>,,delaylearn,learning,feedback_image_window,vrI6NxBw9pa5JWYYpNSPADUdALf1,vrI6NxBw9pa5JWYYpNSPADUdALf1,,,,,,,,,,,,,,,,,,,,,,65b5a5aa458275b5740acee4,10:09:13,27/02/2024
html-keyboard-response,61,112268,0.0-27.0-0.0,,,,,,mood_trial_fixation,vrI6NxBw9pa5JWYYpNSPADUdALf1,,,,,,,,,,,,,,,,,,,,,,,65b5a5aa458275b5740acee4,10:09:13,27/02/2024
lmdlab-html-vas-response,62,115720,0.0-27.0-1.0,2437.0,How happy are you right now?,1,delaylearn,learning,mood_trial,vrI6NxBw9pa5JWYYpNSPADUdALf1,vrI6NxBw9pa5JWYYpNSPADUdALf1,,,,,,,,,,,,,,,,,,,,"['Very unhappy', 'Very happy']",,65b5a5aa458275b5740acee4,10:09:13,27/02/2024
html-keyboard-response,63,117370,0.0-28.0,,"<div style=""font-size:100px;"">+</div>",,delaylearn,learning,ITI,vrI6NxBw9pa5JWYYpNSPADUdALf1,vrI6NxBw9pa5JWYYpNSPADUdALf1,,,,,,,,,,,,,,,,,,,1642.0,,,65b5a5aa458275b5740acee4,10:09:13,27/02/2024
html-keyboard-response,64,120377,0.0-29.0-0.0,,"<div style=""display: flex; flex-direction: column; align-items: center; margin-top: -40px;""><img src=""images/pattern_1.png"" style=""width: 234px; height: 230px; margin-top: -50px;""><div style=""display: flex; justify-content: space-between; margin-top: 33px;""><img src=""images/choice_trial_8.png"" style=""width: 408px; height: 417px; margin-right: 200px;""><img src=""images/choice_trial_14.png"" style=""width: 408px; height: 417px;""></div></div>",,delaylearn,learning,trial,vrI6NxBw9pa5JWYYpNSPADUdALf1,vrI6NxBw9pa5JWYYpNSPADUdALf1,3.0,images/choice_trial_8.png,images/choice_trial_14.png,images/pattern_1.png,j,j,7000.0,8.0,14.0,1.0,1.0,12.0,0.0,0.0,0.0,70.0,,,,,,65b5a5aa458275b5740acee4,10:09:13,27/02/2024
html-keyboard-response,65,121392,0.0-29.0-1.0,,<div style='font-weight: bold; font-size: 75px; color: red;'>Missed Trial <br><br><br><br> Please respond faster</div>,,delaylearn,learning,display_response,vrI6NxBw9pa5JWYYpNSPADUdALf1,vrI6NxBw9pa5JWYYpNSPADUdALf1,,,,,,,,,,,,,,,,,Missed trial,,,,,65b5a5aa458275b5740acee4,10:09:13,27/02/2024
html-keyboard-response,66,121398,0.0-29.0-2.0,,,,delaylearn,learning,feedback_duration_window,vrI6NxBw9pa5JWYYpNSPADUdALf1,vrI6NxBw9pa5JWYYpNSPADUdALf1,,,,,,,,,,,,,,,,,,0.0,,,,65b5a5aa458275b5740acee4,10:09:13,27/02/2024
html-keyboard-response,67,121404,0.0-29.0-3.0,,,,delaylearn,learning,feedback_image_window,vrI6NxBw9pa5JWYYpNSPADUdALf1,vrI6NxBw9pa5JWYYpNSPADUdALf1,,,,,,,,,,,,,,,,,,,,,,65b5a5aa458275b5740acee4,10:09:13,27/02/2024
html-keyboard-response,68,123220,0.0-30.0,,"<div style=""font-size:100px;"">+</div>",,delaylearn,learning,ITI,vrI6NxBw9pa5JWYYpNSPADUdALf1,vrI6NxBw9pa5JWYYpNSPADUdALf1,,,,,,,,,,,,,,,,,,,1810.0,,,65b5a5aa458275b5740acee4,10:09:13,27/02/2024
html-keyboard-response,69,124074,0.0-31.0-0.0,852.5,"<div style=""display: flex; flex-direction: column; align-items: center; margin-top: -40px;""><img src=""images/pattern_3.png"" style=""width: 234px; height: 230px; margin-top: -50px;""><div style=""display: flex; justify-content: space-between; margin-top: 33px;""><img src=""images/choice_trial_10.png"" style=""width: 408px; height: 417px; margin-right: 200px;""><img src=""images/choice_trial_13.png"" style=""width: 408px; height: 417px;""></div></div>",j,delaylearn,learning,trial,vrI6NxBw9pa5JWYYpNSPADUdALf1,vrI6NxBw9pa5JWYYpNSPADUdALf1,3.0,images/choice_trial_10.png,images/choice_trial_13.png,images/pattern_3.png,f,j,7000.0,10.0,13.0,2.0,1.0,13.0,1.0,0.0,13.0,70.0,,,,,,65b5a5aa458275b5740acee4,10:09:13,27/02/2024
html-keyboard-response,70,125081,0.0-31.0-1.0,,"<div style=""display: flex; flex-direction: column; align-items: center; margin-top: -40px;""><img src=""images/pattern_3.png"" style=""width: 234px; height: 230px; margin-top: -50px;""><div style=""display: flex; justify-content: space-between; margin-top: 33px;""><img src=""images/choice_trial_13.png"" style=""width: 408px; height: 417px; margin-left:608px;""></div></div>",,delaylearn,learning,display_response,vrI6NxBw9pa5JWYYpNSPADUdALf1,vrI6NxBw9pa5JWYYpNSPADUdALf1,,,,,,,,,,,,,,,,,chosen stimuli: images/choice_trial_13.png,,,,,65b5a5aa458275b5740acee4,10:09:13,27/02/2024
html-keyboard-response,71,132084,0.0-31.0-2.0,,,,delaylearn,learning,feedback_duration_window,vrI6NxBw9pa5JWYYpNSPADUdALf1,vrI6NxBw9pa5JWYYpNSPADUdALf1,,,,,,,,,,,,,,,,,,7000.0,,,,65b5a5aa458275b5740acee4,10:09:13,27/02/2024
html-keyboard-response,72,133596,0.0-31.0-3.0,,<div style='margin:auto;width: auto; font-size: 150%'><span style='font-weight: bold; font-size: 100px; color: red;'>0 points!</span><br><br></div>,,delaylearn,learning,feedback_image_window,vrI6NxBw9pa5JWYYpNSPADUdALf1,vrI6NxBw9pa5JWYYpNSPADUdALf1,,,,,,,,,,,,,,,,,,,,,,65b5a5aa458275b5740acee4,10:09:13,27/02/2024
html-keyboard-response,73,135697,0.0-32.0,,"<div style=""font-size:100px;"">+</div>",,delaylearn,learning,ITI,vrI6NxBw9pa5JWYYpNSPADUdALf1,vrI6NxBw9pa5JWYYpNSPADUdALf1,,,,,,,,,,,,,,,,,,,2097.0,,,65b5a5aa458275b5740acee4,10:09:13,27/02/2024
html-keyboard-response,74,136603,0.0-33.0-0.0,901.8999999761581,"<div style=""display: flex; flex-direction: column; align-items: center; margin-top: -40px;""><img src=""images/pattern_5.png"" style=""width: 234px; height: 230px; margin-top: -50px;""><div style=""display: flex; justify-content: space-between; margin-top: 33px;""><img src=""images/choice_trial_11.png"" style=""width: 408px; height: 417px; margin-right: 200px;""><img src=""images/choice_trial_2.png"" style=""width: 408px; height: 417px;""></div></div>",f,delaylearn,learning,trial,vrI6NxBw9pa5JWYYpNSPADUdALf1,vrI6NxBw9pa5JWYYpNSPADUdALf1,3.0,images/choice_trial_11.png,images/choice_trial_2.png,images/pattern_5.png,f,f,750.0,11.0,2.0,4.0,0.0,14.0,1.0,1.0,11.0,80.0,,,,,,65b5a5aa458275b5740acee4,10:09:13,27/02/2024
html-keyboard-response,75,137617,0.0-33.0-1.0,,"<div style=""display: flex; flex-direction: column; align-items: center; margin-top: -40px;""><img src=""images/pattern_5.png"" style=""width: 234px; height: 230px; margin-top: -50px;""><div style=""display: flex; justify-content: space-between; margin-top: 33px;""><img src=""images/choice_trial_11.png"" style=""width: 408px; height: 417px; margin-right: 608px;""></div></div>",,delaylearn,learning,display_response,vrI6NxBw9pa5JWYYpNSPADUdALf1,vrI6NxBw9pa5JWYYpNSPADUdALf1,,,,,,,,,,,,,,,,,chosen stimuli: images/choice_trial_11.png,,,,,65b5a5aa458275b5740acee4,10:09:13,27/02/2024
html-keyboard-response,76,138376,0.0-33.0-2.0,,,,delaylearn,learning,feedback_duration_window,vrI6NxBw9pa5JWYYpNSPADUdALf1,vrI6NxBw9pa5JWYYpNSPADUdALf1,,,,,,,,,,,,,,,,,,750.0,,,,65b5a5aa458275b5740acee4,10:09:13,27/02/2024
html-keyboard-response,77,139893,0.0-33.0-3.0,,<div style='margin:auto;width: auto; font-size: 150%'><span style='font-weight: bold; font-size: 100px; color: green;'>+10 points!</span><br><br></div>,,delaylearn,learning,feedback_image_window,vrI6NxBw9pa5JWYYpNSPADUdALf1,vrI6NxBw9pa5JWYYpNSPADUdALf1,,,,,,,,,,,,,,,,,,,,,,65b5a5aa458275b5740acee4,10:09:13,27/02/2024
html-keyboard-response,78,140395,0.0-34.0-0.0,,,,,,mood_trial_fixation,vrI6NxBw9pa5JWYYpNSPADUdALf1,,,,,,,,,,,,,,,,,,,,,,,65b5a5aa458275b5740acee4,10:09:13,27/02/2024
lmdlab-html-vas-response,79,143158,0.0-34.0-1.0,1756.0,How happy are you right now?,1,delaylearn,learning,mood_trial,vrI6NxBw9pa5JWYYpNSPADUdALf1,vrI6NxBw9pa5JWYYpNSPADUdALf1,,,,,,,,,,,,,,,,,,,,"['Very unhappy', 'Very happy']",,65b5a5aa458275b5740acee4,10:09:13,27/02/2024
html-keyboard-response,80,144701,0.0-35.0,,"<div style=""font-size:100px;"">+</div>",,delaylearn,learning,ITI,vrI6NxBw9pa5JWYYpNSPADUdALf1,vrI6NxBw9pa5JWYYpNSPADUdALf1,,,,,,,,,,,,,,,,,,,1532.0,,,65b5a5aa458275b5740acee4,10:09:13,27/02/2024
html-keyboard-response,81,145547,0.0-36.0-0.0,843.8000000119209,"<div style=""display: flex; flex-direction: column; align-items: center; margin-top: -40px;""><img src=""images/pattern_6.png"" style=""width: 234px; height: 230px; margin-top: -50px;""><div style=""display: flex; justify-content: space-between; margin-top: 33px;""><img src=""images/choice_trial_16.png"" style=""width: 408px; height: 417px; margin-right: 200px;""><img src=""images/choice_trial_3.png"" style=""width: 408px; height: 417px;""></div></div>",j,delaylearn,learning,trial,vrI6NxBw9pa5JWYYpNSPADUdALf1,vrI6NxBw9pa5JWYYpNSPADUdALf1,3.0,images/choice_trial_16.png,images/choice_trial_3.png,images/pattern_6.png,f,f,750.0,16.0,3.0,5.0,0.0,15.0,0.0,0.0,3.0,80.0,,,,,,65b5a5aa458275b5740acee4,10:09:13,27/02/2024
html-keyboard-response,82,146565,0.0-36.0-1.0,,"<div style=""display: flex; flex-direction: column; align-items: center; margin-top: -40px;""><img src=""images/pattern_6.png"" style=""width: 234px; height: 230px; margin-top: -50px;""><div style=""display: flex; justify-content: space-between; margin-top: 33px;""><img src=""images/choice_trial_3.png"" style=""width: 408px; height: 417px; margin-left:608px;""></div></div>",,delaylearn,learning,display_response,vrI6NxBw9pa5JWYYpNSPADUdALf1,vrI6NxBw9pa5JWYYpNSPADUdALf1,,,,,,,,,,,,,,,,,chosen stimuli: images/choice_trial_3.png,,,,,65b5a5aa458275b5740acee4,10:09:13,27/02/2024
html-keyboard-response,83,147332,0.0-36.0-2.0,,,,delaylearn,learning,feedback_duration_window,vrI6NxBw9pa5JWYYpNSPADUdALf1,vrI6NxBw9pa5JWYYpNSPADUdALf1,,,,,,,,,,,,,,,,,,750.0,,,,65b5a5aa458275b5740acee4,10:09:13,27/02/2024
html-keyboard-response,84,148849,0.0-36.0-3.0,,<div style='margin:auto;width: auto; font-size: 150%'><span style='font-weight: bold; font-size: 100px; color: red;'>0 points!</span><br><br></div>,,delaylearn,learning,feedback_image_window,vrI6NxBw9pa5JWYYpNSPADUdALf1,vrI6NxBw9pa5JWYYpNSPADUdALf1,,,,,,,,,,,,,,,,,,,,,,65b5a5aa458275b5740acee4,10:09:13,27/02/2024
html-keyboard-response,85,151034,0.0-37.0,,"<div style=""font-size:100px;"">+</div>",,delaylearn,learning,ITI,vrI6NxBw9pa5JWYYpNSPADUdALf1,vrI6NxBw9pa5JWYYpNSPADUdALf1,,,,,,,,,,,,,,,,,,,2176.0,,,65b5a5aa458275b5740acee4,10:09:13,27/02/2024
html-keyboard-response,86,151972,0.0-38.0-0.0,935.9000000357628,"<div style=""display: flex; flex-direction: column; align-items: center; margin-top: -40px;""><img src=""images/pattern_4.png"" style=""width: 234px; height: 230px; margin-top: -50px;""><div style=""display: flex; justify-content: space-between; margin-top: 33px;""><img src=""images/choice_trial_9.png"" style=""width: 408px; height: 417px; margin-right: 200px;""><img src=""images/choice_trial_15.png"" style=""width: 408px; height: 417px;""></div></div>",f,delaylearn,learning,trial,vrI6NxBw9pa5JWYYpNSPADUdALf1,vrI6NxBw9pa5JWYYpNSPADUdALf1,3.0,images/choice_trial_9.png,images/choice_trial_15.png,images/pattern_4.png,j,j,7000.0,9.0,15.0,3.0,1.0,16.0,0.0,0.0,9.0,80.0,,,,,,65b5a5aa458275b5740acee4,10:09:13,27/02/2024
html-keyboard-response,87,152989,0.0-38.0-1.0,,"<div style=""display: flex; flex-direction: column; align-items: center; margin-top: -40px;""><img src=""images/pattern_4.png"" style=""width: 234px; height: 230px; margin-top: -50px;""><div style=""display: flex; justify-content: space-between; margin-top: 33px;""><img src=""images/choice_trial_9.png"" style=""width: 408px; height: 417px; margin-right: 608px;""></div></div>",,delaylearn,learning,display_response,vrI6NxBw9pa5JWYYpNSPADUdALf1,vrI6NxBw9pa5JWYYpNSPADUdALf1,,,,,,,,,,,,,,,,,chosen stimuli: images/choice_trial_9.png,,,,,65b5a5aa458275b5740acee4,10:09:13,27/02/2024
html-keyboard-response,88,159992,0.0-38.0-2.0,,,,delaylearn,learning,feedback_duration_window,vrI6NxBw9pa5JWYYpNSPADUdALf1,vrI6NxBw9pa5JWYYpNSPADUdALf1,,,,,,,,,,,,,,,,,,7000.0,,,,65b5a5aa458275b5740acee4,10:09:13,27/02/2024
html-keyboard-response,89,161500,0.0-38.0-3.0,,<div style='margin:auto;width: auto; font-size: 150%'><span style='font-weight: bold; font-size: 100px; color: red;'>0 points!</span><br><br></div>,,delaylearn,learning,feedback_image_window,vrI6NxBw9pa5JWYYpNSPADUdALf1,vrI6NxBw9pa5JWYYpNSPADUdALf1,,,,,,,,,,,,,,,,,,,,,,65b5a5aa458275b5740acee4,10:09:13,27/02/2024
html-keyboard-response,90,163039,0.0-39.0,,"<div style=""font-size:100px;"">+</div>",,delaylearn,learning,ITI,vrI6NxBw9pa5JWYYpNSPADUdALf1,vrI6NxBw9pa5JWYYpNSPADUdALf1,,,,,,,,,,,,,,,,,,,1537.0,,,65b5a5aa458275b5740acee4,10:09:13,27/02/2024
html-keyboard-response,91,164468,0.0-40.0-0.0,1425.7000000476837,"<div style=""display: flex; flex-direction: column; align-items: center; margin-top: -40px;""><img src=""images/pattern_7.png"" style=""width: 234px; height: 230px; margin-top: -50px;""><div style=""display: flex; justify-content: space-between; margin-top: 33px;""><img src=""images/choice_trial_6.png"" style=""width: 408px; height: 417px; margin-right: 200px;""><img src=""images/choice_trial_12.png"" style=""width: 408px; height: 417px;""></div></div>",j,delaylearn,learning,trial,vrI6NxBw9pa5JWYYpNSPADUdALf1,vrI6NxBw9pa5JWYYpNSPADUdALf1,3.0,images/choice_trial_6.png,images/choice_trial_12.png,images/pattern_7.png,j,f,750.0,6.0,12.0,6.0,0.0,17.0,0.0,1.0,12.0,90.0,,,,,,65b5a5aa458275b5740acee4,10:09:13,27/02/2024
html-keyboard-response,92,165480,0.0-40.0-1.0,,"<div style=""display: flex; flex-direction: column; align-items: center; margin-top: -40px;""><img src=""images/pattern_7.png"" style=""width: 234px; height: 230px; margin-top: -50px;""><div style=""display: flex; justify-content: space-between; margin-top: 33px;""><img src=""images/choice_trial_12.png"" style=""width: 408px; height: 417px; margin-left:608px;""></div></div>",,delaylearn,learning,display_response,vrI6NxBw9pa5JWYYpNSPADUdALf1,vrI6NxBw9pa5JWYYpNSPADUdALf1,,,,,,,,,,,,,,,,,chosen stimuli: images/choice_trial_12.png,,,,,65b5a5aa458275b5740acee4,10:09:13,27/02/2024
html-keyboard-response,93,166235,0.0-40.0-2.0,,,,delaylearn,learning,feedback_duration_window,vrI6NxBw9pa5JWYYpNSPADUdALf1,vrI6NxBw9pa5JWYYpNSPADUdALf1,,,,,,,,,,,,,,,,,,750.0,,,,65b5a5aa458275b5740acee4,10:09:13,27/02/2024
html-keyboard-response,94,167740,0.0-40.0-3.0,,<div style='margin:auto;width: auto; font-size: 150%'><span style='font-weight: bold; font-size: 100px; color: green;'>+10 points!</span><br><br></div>,,delaylearn,learning,feedback_image_window,vrI6NxBw9pa5JWYYpNSPADUdALf1,vrI6NxBw9pa5JWYYpNSPADUdALf1,,,,,,,,,,,,,,,,,,,,,,65b5a5aa458275b5740acee4,10:09:13,27/02/2024
html-keyboard-response,95,170234,0.0-41.0,,"<div style=""font-size:100px;"">+</div>",,delaylearn,learning,ITI,vrI6NxBw9pa5JWYYpNSPADUdALf1,vrI6NxBw9pa5JWYYpNSPADUdALf1,,,,,,,,,,,,,,,,,,,2487.0,,,65b5a5aa458275b5740acee4,10:09:13,27/02/2024
html-keyboard-response,96,171517,0.0-42.0-0.0,1280.6000000238419,"<div style=""display: flex; flex-direction: column; align-items: center; margin-top: -40px;""><img src=""images/pattern_1.png"" style=""width: 234px; height: 230px; margin-top: -50px;""><div style=""display: flex; justify-content: space-between; margin-top: 33px;""><img src=""images/choice_trial_14.png"" style=""width: 408px; height: 417px; margin-right: 200px;""><img src=""images/choice_trial_8.png"" style=""width: 408px; height: 417px;""></div></div>",f,delaylearn,learning,trial,vrI6NxBw9pa5JWYYpNSPADUdALf1,vrI6NxBw9pa5JWYYpNSPADUdALf1,3.0,images/choice_trial_14.png,images/choice_trial_8.png,images/pattern_1.png,f,f,7000.0,14.0,8.0,1.0,0.0,18.0,1.0,1.0,14.0,100.0,,,,,,65b5a5aa458275b5740acee4,10:09:13,27/02/2024
html-keyboard-response,97,172523,0.0-42.0-1.0,,"<div style=""display: flex; flex-direction: column; align-items: center; margin-top: -40px;""><img src=""images/pattern_1.png"" style=""width: 234px; height: 230px; margin-top: -50px;""><div style=""display: flex; justify-content: space-between; margin-top: 33px;""><img src=""images/choice_trial_14.png"" style=""width: 408px; height: 417px; margin-right: 608px;""></div></div>",,delaylearn,learning,display_response,vrI6NxBw9pa5JWYYpNSPADUdALf1,vrI6NxBw9pa5JWYYpNSPADUdALf1,,,,,,,,,,,,,,,,,chosen stimuli: images/choice_trial_14.png,,,,,65b5a5aa458275b5740acee4,10:09:13,27/02/2024
html-keyboard-response,98,179526,0.0-42.0-2.0,,,,delaylearn,learning,feedback_duration_window,vrI6NxBw9pa5JWYYpNSPADUdALf1,vrI6NxBw9pa5JWYYpNSPADUdALf1,,,,,,,,,,,,,,,,,,7000.0,,,,65b5a5aa458275b5740acee4,10:09:13,27/02/2024
html-keyboard-response,99,181034,0.0-42.0-3.0,,<div style='margin:auto;width: auto; font-size: 150%'><span style='font-weight: bold; font-size: 100px; color: green;'>+10 points!</span><br><br></div>,,delaylearn,learning,feedback_image_window,vrI6NxBw9pa5JWYYpNSPADUdALf1,vrI6NxBw9pa5JWYYpNSPADUdALf1,,,,,,,,,,,,,,,,,,,,,,65b5a5aa458275b5740acee4,10:09:13,27/02/2024
html-keyboard-response,100,182626,0.0-43.0,,"<div style=""font-size:100px;"">+</div>",,delaylearn,learning,ITI,vrI6NxBw9pa5JWYYpNSPADUdALf1,vrI6NxBw9pa5JWYYpNSPADUdALf1,,,,,,,,,,,,,,,,,,,1575.0,,,65b5a5aa458275b5740acee4,10:09:13,27/02/2024
html-keyboard-response,101,185034,0.0-44.0-0.0,2405.5,"<div style=""display: flex; flex-direction: column; align-items: center; margin-top: -40px;""><img src=""images/pattern_6.png"" style=""width: 234px; height: 230px; margin-top: -50px;""><div style=""display: flex; justify-content: space-between; margin-top: 33px;""><img src=""images/choice_trial_3.png"" style=""width: 408px; height: 417px; margin-right: 200px;""><img src=""images/choice_trial_16.png"" style=""width: 408px; height: 417px;""></div></div>",j,delaylearn,learning,trial,vrI6NxBw9pa5JWYYpNSPADUdALf1,vrI6NxBw9pa5JWYYpNSPADUdALf1,3.0,images/choice_trial_3.png,images/choice_trial_16.png,images/pattern_6.png,j,j,750.0,3.0,16.0,5.0,1.0,19.0,1.0,1.0,16.0,110.0,,,,,,65b5a5aa458275b5740acee4,10:09:13,27/02/2024
html-keyboard-response,102,186051,0.0-44.0-1.0,,"<div style=""display: flex; flex-direction: column; align-items: center; margin-top: -40px;""><img src=""images/pattern_6.png"" style=""width: 234px; height: 230px; margin-top: -50px;""><div style=""display: flex; justify-content: space-between; margin-top: 33px;""><img src=""images/choice_trial_16.png"" style=""width: 408px; height: 417px; margin-left:608px;""></div></div>",,delaylearn,learning,display_response,vrI6NxBw9pa5JWYYpNSPADUdALf1,vrI6NxBw9pa5JWYYpNSPADUdALf1,,,,,,,,,,,,,,,,,chosen stimuli: images/choice_trial_16.png,,,,,65b5a5aa458275b5740acee4,10:09:13,27/02/2024
html-keyboard-response,103,186816,0.0-44.0-2.0,,,,delaylearn,learning,feedback_duration_window,vrI6NxBw9pa5JWYYpNSPADUdALf1,vrI6NxBw9pa5JWYYpNSPADUdALf1,,,,,,,,,,,,,,,,,,750.0,,,,65b5a5aa458275b5740acee4,10:09:13,27/02/2024
html-keyboard-response,104,188332,0.0-44.0-3.0,,<div style='margin:auto;width: auto; font-size: 150%'><span style='font-weight: bold; font-size: 100px; color: green;'>+10 points!</span><br><br></div>,,delaylearn,learning,feedback_image_window,vrI6NxBw9pa5JWYYpNSPADUdALf1,vrI6NxBw9pa5JWYYpNSPADUdALf1,,,,,,,,,,,,,,,,,,,,,,65b5a5aa458275b5740acee4,10:09:13,27/02/2024
html-keyboard-response,105,190287,0.0-45.0,,"<div style=""font-size:100px;"">+</div>",,delaylearn,learning,ITI,vrI6NxBw9pa5JWYYpNSPADUdALf1,vrI6NxBw9pa5JWYYpNSPADUdALf1,,,,,,,,,,,,,,,,,,,1945.0,,,65b5a5aa458275b5740acee4,10:09:13,27/02/2024
html-keyboard-response,106,192566,0.0-46.0-0.0,2277.0,"<div style=""display: flex; flex-direction: column; align-items: center; margin-top: -40px;""><img src=""images/pattern_4.png"" style=""width: 234px; height: 230px; margin-top: -50px;""><div style=""display: flex; justify-content: space-between; margin-top: 33px;""><img src=""images/choice_trial_15.png"" style=""width: 408px; height: 417px; margin-right: 200px;""><img src=""images/choice_trial_9.png"" style=""width: 408px; height: 417px;""></div></div>",j,delaylearn,learning,trial,vrI6NxBw9pa5JWYYpNSPADUdALf1,vrI6NxBw9pa5JWYYpNSPADUdALf1,3.0,images/choice_trial_15.png,images/choice_trial_9.png,images/pattern_4.png,f,f,7000.0,15.0,9.0,3.0,0.0,20.0,0.0,0.0,9.0,110.0,,,,,,65b5a5aa458275b5740acee4,10:09:13,27/02/2024
html-keyboard-response,107,193579,0.0-46.0-1.0,,"<div style=""display: flex; flex-direction: column; align-items: center; margin-top: -40px;""><img src=""images/pattern_4.png"" style=""width: 234px; height: 230px; margin-top: -50px;""><div style=""display: flex; justify-content: space-between; margin-top: 33px;""><img src=""images/choice_trial_9.png"" style=""width: 408px; height: 417px; margin-left:608px;""></div></div>",,delaylearn,learning,display_response,vrI6NxBw9pa5JWYYpNSPADUdALf1,vrI6NxBw9pa5JWYYpNSPADUdALf1,,,,,,,,,,,,,,,,,chosen stimuli: images/choice_trial_9.png,,,,,65b5a5aa458275b5740acee4,10:09:13,27/02/2024
html-keyboard-response,108,200594,0.0-46.0-2.0,,,,delaylearn,learning,feedback_duration_window,vrI6NxBw9pa5JWYYpNSPADUdALf1,vrI6NxBw9pa5JWYYpNSPADUdALf1,,,,,,,,,,,,,,,,,,7000.0,,,,65b5a5aa458275b5740acee4,10:09:13,27/02/2024
html-keyboard-response,109,202099,0.0-46.0-3.0,,<div style='margin:auto;width: auto; font-size: 150%'><span style='font-weight: bold; font-size: 100px; color: red;'>0 points!</span><br><br></div>,,delaylearn,learning,feedback_image_window,vrI6NxBw9pa5JWYYpNSPADUdALf1,vrI6NxBw9pa5JWYYpNSPADUdALf1,,,,,,,,,,,,,,,,,,,,,,65b5a5aa458275b5740acee4,10:09:13,27/02/2024
html-keyboard-response,110,202613,0.0-47.0-0.0,,,,,,mood_trial_fixation,vrI6NxBw9pa5JWYYpNSPADUdALf1,,,,,,,,,,,,,,,,,,,,,,,65b5a5aa458275b5740acee4,10:09:13,27/02/2024
lmdlab-html-vas-response,111,207168,0.0-47.0-1.0,3547.0,How happy are you right now?,0.8842592592592593,delaylearn,learning,mood_trial,vrI6NxBw9pa5JWYYpNSPADUdALf1,vrI6NxBw9pa5JWYYpNSPADUdALf1,,,,,,,,,,,,,,,,,,,,"['Very unhappy', 'Very happy']",,65b5a5aa458275b5740acee4,10:09:13,27/02/2024
html-keyboard-response,112,209153,0.0-48.0,,"<div style=""font-size:100px;"">+</div>",,delaylearn,learning,ITI,vrI6NxBw9pa5JWYYpNSPADUdALf1,vrI6NxBw9pa5JWYYpNSPADUdALf1,,,,,,,,,,,,,,,,,,,1979.0,,,65b5a5aa458275b5740acee4,10:09:13,27/02/2024
html-keyboard-response,113,211607,0.0-49.0-0.0,2452.5,"<div style=""display: flex; flex-direction: column; align-items: center; margin-top: -40px;""><img src=""images/pattern_7.png"" style=""width: 234px; height: 230px; margin-top: -50px;""><div style=""display: flex; justify-content: space-between; margin-top: 33px;""><img src=""images/choice_trial_12.png"" style=""width: 408px; height: 417px; margin-right: 200px;""><img src=""images/choice_trial_6.png"" style=""width: 408px; height: 417px;""></div></div>",f,delaylearn,learning,trial,vrI6NxBw9pa5JWYYpNSPADUdALf1,vrI6NxBw9pa5JWYYpNSPADUdALf1,3.0,images/choice_trial_12.png,images/choice_trial_6.png,images/pattern_7.png,j,j,750.0,12.0,6.0,6.0,1.0,21.0,0.0,0.0,12.0,110.0,,,,,,65b5a5aa458275b5740acee4,10:09:13,27/02/2024
html-keyboard-response,114,212624,0.0-49.0-1.0,,"<div style=""display: flex; flex-direction: column; align-items: center; margin-top: -40px;""><img src=""images/pattern_7.png"" style=""width: 234px; height: 230px; margin-top: -50px;""><div style=""display: flex; justify-content: space-between; margin-top: 33px;""><img src=""images/choice_trial_12.png"" style=""width: 408px; height: 417px; margin-right: 608px;""></div></div>",,delaylearn,learning,display_response,vrI6NxBw9pa5JWYYpNSPADUdALf1,vrI6NxBw9pa5JWYYpNSPADUdALf1,,,,,,,,,,,,,,,,,chosen stimuli: images/choice_trial_12.png,,,,,65b5a5aa458275b5740acee4,10:09:13,27/02/2024
html-keyboard-response,115,213377,0.0-49.0-2.0,,,,delaylearn,learning,feedback_duration_window,vrI6NxBw9pa5JWYYpNSPADUdALf1,vrI6NxBw9pa5JWYYpNSPADUdALf1,,,,,,,,,,,,,,,,,,750.0,,,,65b5a5aa458275b5740acee4,10:09:13,27/02/2024
html-keyboard-response,116,214894,0.0-49.0-3.0,,<div style='margin:auto;width: auto; font-size: 150%'><span style='font-weight: bold; font-size: 100px; color: red;'>0 points!</span><br><br></div>,,delaylearn,learning,feedback_image_window,vrI6NxBw9pa5JWYYpNSPADUdALf1,vrI6NxBw9pa5JWYYpNSPADUdALf1,,,,,,,,,,,,,,,,,,,,,,65b5a5aa458275b5740acee4,10:09:13,27/02/2024
html-keyboard-response,117,216988,0.0-50.0,,"<div style=""font-size:100px;"">+</div>",,delaylearn,learning,ITI,vrI6NxBw9pa5JWYYpNSPADUdALf1,vrI6NxBw9pa5JWYYpNSPADUdALf1,,,,,,,,,,,,,,,,,,,2089.0,,,65b5a5aa458275b5740acee4,10:09:13,27/02/2024
html-keyboard-response,118,219000,0.0-51.0-0.0,2008.9000000357628,"<div style=""display: flex; flex-direction: column; align-items: center; margin-top: -40px;""><img src=""images/pattern_1.png"" style=""width: 234px; height: 230px; margin-top: -50px;""><div style=""display: flex; justify-content: space-between; margin-top: 33px;""><img src=""images/choice_trial_8.png"" style=""width: 408px; height: 417px; margin-right: 200px;""><img src=""images/choice_trial_14.png"" style=""width: 408px; height: 417px;""></div></div>",f,delaylearn,learning,trial,vrI6NxBw9pa5JWYYpNSPADUdALf1,vrI6NxBw9pa5JWYYpNSPADUdALf1,3.0,images/choice_trial_8.png,images/choice_trial_14.png,images/pattern_1.png,f,j,7000.0,8.0,14.0,1.0,1.0,22.0,0.0,1.0,8.0,120.0,,,,,,65b5a5aa458275b5740acee4,10:09:13,27/02/2024
html-keyboard-response,119,220004,0.0-51.0-1.0,,"<div style=""display: flex; flex-direction: column; align-items: center; margin-top: -40px;""><img src=""images/pattern_1.png"" style=""width: 234px; height: 230px; margin-top: -50px;""><div style=""display: flex; justify-content: space-between; margin-top: 33px;""><img src=""images/choice_trial_8.png"" style=""width: 408px; height: 417px; margin-right: 608px;""></div></div>",,delaylearn,learning,display_response,vrI6NxBw9pa5JWYYpNSPADUdALf1,vrI6NxBw9pa5JWYYpNSPADUdALf1,,,,,,,,,,,,,,,,,chosen stimuli: images/choice_trial_8.png,,,,,65b5a5aa458275b5740acee4,10:09:13,27/02/2024
html-keyboard-response,120,227014,0.0-51.0-2.0,,,,delaylearn,learning,feedback_duration_window,vrI6NxBw9pa5JWYYpNSPADUdALf1,vrI6NxBw9pa5JWYYpNSPADUdALf1,,,,,,,,,,,,,,,,,,7000.0,,,,65b5a5aa458275b5740acee4,10:09:13,27/02/2024
html-keyboard-response,121,228527,0.0-51.0-3.0,,<div style='margin:auto;width: auto; font-size: 150%'><span style='font-weight: bold; font-size: 100px; color: green;'>+10 points!</span><br><br></div>,,delaylearn,learning,feedback_image_window,vrI6NxBw9pa5JWYYpNSPADUdALf1,vrI6NxBw9pa5JWYYpNSPADUdALf1,,,,,,,,,,,,,,,,,,,,,,65b5a5aa458275b5740acee4,10:09:13,27/02/2024
html-keyboard-response,122,230907,0.0-52.0,,"<div style=""font-size:100px;"">+</div>",,delaylearn,learning,ITI,vrI6NxBw9pa5JWYYpNSPADUdALf1,vrI6NxBw9pa5JWYYpNSPADUdALf1,,,,,,,,,,,,,,,,,,,2368.0,,,65b5a5aa458275b5740acee4,10:09:13,27/02/2024
html-keyboard-response,123,232250,0.0-53.0-0.0,1340.5,"<div style=""display: flex; flex-direction: column; align-items: center; margin-top: -40px;""><img src=""images/pattern_5.png"" style=""width: 234px; height: 230px; margin-top: -50px;""><div style=""display: flex; justify-content: space-between; margin-top: 33px;""><img src=""images/choice_trial_2.png"" style=""width: 408px; height: 417px; margin-right: 200px;""><img src=""images/choice_trial_11.png"" style=""width: 408px; height: 417px;""></div></div>",f,delaylearn,learning,trial,vrI6NxBw9pa5JWYYpNSPADUdALf1,vrI6NxBw9pa5JWYYpNSPADUdALf1,3.0,images/choice_trial_2.png,images/choice_trial_11.png,images/pattern_5.png,j,j,750.0,2.0,11.0,4.0,1.0,23.0,0.0,0.0,2.0,120.0,,,,,,65b5a5aa458275b5740acee4,10:09:13,27/02/2024
html-keyboard-response,124,233253,0.0-53.0-1.0,,"<div style=""display: flex; flex-direction: column; align-items: center; margin-top: -40px;""><img src=""images/pattern_5.png"" style=""width: 234px; height: 230px; margin-top: -50px;""><div style=""display: flex; justify-content: space-between; margin-top: 33px;""><img src=""images/choice_trial_2.png"" style=""width: 408px; height: 417px; margin-right: 608px;""></div></div>",,delaylearn,learning,display_response,vrI6NxBw9pa5JWYYpNSPADUdALf1,vrI6NxBw9pa5JWYYpNSPADUdALf1,,,,,,,,,,,,,,,,,chosen stimuli: images/choice_trial_2.png,,,,,65b5a5aa458275b5740acee4,10:09:13,27/02/2024
html-keyboard-response,125,234016,0.0-53.0-2.0,,,,delaylearn,learning,feedback_duration_window,vrI6NxBw9pa5JWYYpNSPADUdALf1,vrI6NxBw9pa5JWYYpNSPADUdALf1,,,,,,,,,,,,,,,,,,750.0,,,,65b5a5aa458275b5740acee4,10:09:13,27/02/2024
html-keyboard-response,126,235521,0.0-53.0-3.0,,<div style='margin:auto;width: auto; font-size: 150%'><span style='font-weight: bold; font-size: 100px; color: red;'>0 points!</span><br><br></div>,,delaylearn,learning,feedback_image_window,vrI6NxBw9pa5JWYYpNSPADUdALf1,vrI6NxBw9pa5JWYYpNSPADUdALf1,,,,,,,,,,,,,,,,,,,,,,65b5a5aa458275b5740acee4,10:09:13,27/02/2024
html-keyboard-response,127,237956,0.0-54.0,,"<div style=""font-size:100px;"">+</div>",,delaylearn,learning,ITI,vrI6NxBw9pa5JWYYpNSPADUdALf1,vrI6NxBw9pa5JWYYpNSPADUdALf1,,,,,,,,,,,,,,,,,,,2421.0,,,65b5a5aa458275b5740acee4,10:09:13,27/02/2024
html-keyboard-response,128,239351,0.0-55.0-0.0,1393.1000000238419,"<div style=""display: flex; flex-direction: column; align-items: center; margin-top: -40px;""><img src=""images/pattern_3.png"" style=""width: 234px; height: 230px; margin-top: -50px;""><div style=""display: flex; justify-content: space-between; margin-top: 33px;""><img src=""images/choice_trial_10.png"" style=""width: 408px; height: 417px; margin-right: 200px;""><img src=""images/choice_trial_13.png"" style=""width: 408px; height: 417px;""></div></div>",j,delaylearn,learning,trial,vrI6NxBw9pa5JWYYpNSPADUdALf1,vrI6NxBw9pa5JWYYpNSPADUdALf1,3.0,images/choice_trial_10.png,images/choice_trial_13.png,images/pattern_3.png,j,j,7000.0,10.0,13.0,2.0,1.0,24.0,1.0,1.0,13.0,130.0,,,,,,65b5a5aa458275b5740acee4,10:09:13,27/02/2024
html-keyboard-response,129,240362,0.0-55.0-1.0,,"<div style=""display: flex; flex-direction: column; align-items: center; margin-top: -40px;""><img src=""images/pattern_3.png"" style=""width: 234px; height: 230px; margin-top: -50px;""><div style=""display: flex; justify-content: space-between; margin-top: 33px;""><img src=""images/choice_trial_13.png"" style=""width: 408px; height: 417px; margin-left:608px;""></div></div>",,delaylearn,learning,display_response,vrI6NxBw9pa5JWYYpNSPADUdALf1,vrI6NxBw9pa5JWYYpNSPADUdALf1,,,,,,,,,,,,,,,,,chosen stimuli: images/choice_trial_13.png,,,,,65b5a5aa458275b5740acee4,10:09:13,27/02/2024
html-keyboard-response,130,247379,0.0-55.0-2.0,,,,delaylearn,learning,feedback_duration_window,vrI6NxBw9pa5JWYYpNSPADUdALf1,vrI6NxBw9pa5JWYYpNSPADUdALf1,,,,,,,,,,,,,,,,,,7000.0,,,,65b5a5aa458275b5740acee4,10:09:13,27/02/2024
html-keyboard-response,131,248895,0.0-55.0-3.0,,<div style='margin:auto;width: auto; font-size: 150%'><span style='font-weight: bold; font-size: 100px; color: green;'>+10 points!</span><br><br></div>,,delaylearn,learning,feedback_image_window,vrI6NxBw9pa5JWYYpNSPADUdALf1,vrI6NxBw9pa5JWYYpNSPADUdALf1,,,,,,,,,,,,,,,,,,,,,,65b5a5aa458275b5740acee4,10:09:13,27/02/2024
lmdlab-html-vas-response,132,255672,0.0-56.0-0.0,5255.0,*How <b><u>confident</u></b> are you feeling about your answers at this moment?*,0.6388888888888888,rewlearn,rate_confidence,,vrI6NxBw9pa5JWYYpNSPADUdALf1,vrI6NxBw9pa5JWYYpNSPADUdALf1,,,,,,,,,,,,,,,,,,,,"['No confidence', 'Complete confidence']",,65b5a5aa458275b5740acee4,10:09:13,27/02/2024
lmdlab-rest-trial-limit,133,263378,0.0-56.0-1.0,6191.599999964237,"<div style=""font-size:40px;""><b>Please take a break!</b><br><br><br><br><p>Great work: you earned undefined points.<br><br><br><p>You have completed part(s) 1 of 6.<br><br><br><br>When you are ready to continue<br><br><br>please click the button.</p><br><br>",0,delaylearn,learning,break,vrI6NxBw9pa5JWYYpNSPADUdALf1,vrI6NxBw9pa5JWYYpNSPADUdALf1,,,,,,,,,,,,,,,,,,,,,0.0,65b5a5aa458275b5740acee4,10:09:13,27/02/2024
html-keyboard-response,134,266388,0.0-56.0-2.0,,"<div style=""font-size:100px;"">+</div>",,delaylearn,learning,pre_fixation,vrI6NxBw9pa5JWYYpNSPADUdALf1,,,,,,,,,,,,,,,,,,,,,,,65b5a5aa458275b5740acee4,10:09:13,27/02/2024
lmdlab-html-vas-response,135,270835,0.0-56.0-3.0-0.0,3439.0,How happy are you right now?,0.9467592592592593,delaylearn,learning,mood_baseline,vrI6NxBw9pa5JWYYpNSPADUdALf1,vrI6NxBw9pa5JWYYpNSPADUdALf1,,,,,,,,,,,,,,,,,,,,"['Very unhappy', 'Very happy']",,65b5a5aa458275b5740acee4,10:09:13,27/02/2024
html-keyboard-response,136,272347,0.0-56.0-3.0-1.0,,,,,,mood_baseline_fixation,vrI6NxBw9pa5JWYYpNSPADUdALf1,,,,,,,,,,,,,,,,,,,,,,,65b5a5aa458275b5740acee4,10:09:13,27/02/2024
html-keyboard-response,137,274842,0.0-57.0,,"<div style=""font-size:100px;"">+</div>",,delaylearn,learning,ITI,vrI6NxBw9pa5JWYYpNSPADUdALf1,vrI6NxBw9pa5JWYYpNSPADUdALf1,,,,,,,,,,,,,,,,,,,2483.0,,,65b5a5aa458275b5740acee4,10:09:13,27/02/2024
html-keyboard-response,138,276293,0.0-58.0-0.0,1448.3999999761581,"<div style=""display: flex; flex-direction: column; align-items: center; margin-top: -40px;""><img src=""images/pattern_7.png"" style=""width: 234px; height: 230px; margin-top: -50px;""><div style=""display: flex; justify-content: space-between; margin-top: 33px;""><img src=""images/choice_trial_12.png"" style=""width: 408px; height: 417px; margin-right: 200px;""><img src=""images/choice_trial_6.png"" style=""width: 408px; height: 417px;""></div></div>",j,delaylearn,learning,trial,vrI6NxBw9pa5JWYYpNSPADUdALf1,vrI6NxBw9pa5JWYYpNSPADUdALf1,3.0,images/choice_trial_12.png,images/choice_trial_6.png,images/pattern_7.png,j,j,750.0,12.0,6.0,6.0,1.0,25.0,1.0,1.0,6.0,140.0,,,,,,65b5a5aa458275b5740acee4,10:09:13,27/02/2024
html-keyboard-response,139,277302,0.0-58.0-1.0,,"<div style=""display: flex; flex-direction: column; align-items: center; margin-top: -40px;""><img src=""images/pattern_7.png"" style=""width: 234px; height: 230px; margin-top: -50px;""><div style=""display: flex; justify-content: space-between; margin-top: 33px;""><img src=""images/choice_trial_6.png"" style=""width: 408px; height: 417px; margin-left:608px;""></div></div>",,delaylearn,learning,display_response,vrI6NxBw9pa5JWYYpNSPADUdALf1,vrI6NxBw9pa5JWYYpNSPADUdALf1,,,,,,,,,,,,,,,,,chosen stimuli: images/choice_trial_6.png,,,,,65b5a5aa458275b5740acee4,10:09:13,27/02/2024
html-keyboard-response,140,278065,0.0-58.0-2.0,,,,delaylearn,learning,feedback_duration_window,vrI6NxBw9pa5JWYYpNSPADUdALf1,vrI6NxBw9pa5JWYYpNSPADUdALf1,,,,,,,,,,,,,,,,,,750.0,,,,65b5a5aa458275b5740acee4,10:09:13,27/02/2024
html-keyboard-response,141,279571,0.0-58.0-3.0,,<div style='margin:auto;width: auto; font-size: 150%'><span style='font-weight: bold; font-size: 100px; color: green;'>+10 points!</span><br><br></div>,,delaylearn,learning,feedback_image_window,vrI6NxBw9pa5JWYYpNSPADUdALf1,vrI6NxBw9pa5JWYYpNSPADUdALf1,,,,,,,,,,,,,,,,,,,,,,65b5a5aa458275b5740acee4,10:09:13,27/02/2024
html-keyboard-response,142,280087,0.0-59.0-0.0,,,,,,mood_trial_fixation,vrI6NxBw9pa5JWYYpNSPADUdALf1,,,,,,,,,,,,,,,,,,,,,,,65b5a5aa458275b5740acee4,10:09:13,27/02/2024
lmdlab-html-vas-response,143,282965,0.0-59.0-1.0,1864.0,How happy are you right now?,0.9907407407407407,delaylearn,learning,mood_trial,vrI6NxBw9pa5JWYYpNSPADUdALf1,vrI6NxBw9pa5JWYYpNSPADUdALf1,,,,,,,,,,,,,,,,,,,,"['Very unhappy', 'Very happy']",,65b5a5aa458275b5740acee4,10:09:13,27/02/2024
html-keyboard-response,144,284661,0.0-60.0,,"<div style=""font-size:100px;"">+</div>",,delaylearn,learning,ITI,vrI6NxBw9pa5JWYYpNSPADUdALf1,vrI6NxBw9pa5JWYYpNSPADUdALf1,,,,,,,,,,,,,,,,,,,1684.0,,,65b5a5aa458275b5740acee4,10:09:13,27/02/2024
html-keyboard-response,145,286157,0.0-61.0-0.0,1490.0,"<div style=""display: flex; flex-direction: column; align-items: center; margin-top: -40px;""><img src=""images/pattern_1.png"" style=""width: 234px; height: 230px; margin-top: -50px;""><div style=""display: flex; justify-content: space-between; margin-top: 33px;""><img src=""images/choice_trial_14.png"" style=""width: 408px; height: 417px; margin-right: 200px;""><img src=""images/choice_trial_8.png"" style=""width: 408px; height: 417px;""></div></div>",f,delaylearn,learning,trial,vrI6NxBw9pa5JWYYpNSPADUdALf1,vrI6NxBw9pa5JWYYpNSPADUdALf1,3.0,images/choice_trial_14.png,images/choice_trial_8.png,images/pattern_1.png,f,f,7000.0,14.0,8.0,1.0,0.0,26.0,1.0,1.0,14.0,150.0,,,,,,65b5a5aa458275b5740acee4,10:09:13,27/02/2024
html-keyboard-response,146,287175,0.0-61.0-1.0,,"<div style=""display: flex; flex-direction: column; align-items: center; margin-top: -40px;""><img src=""images/pattern_1.png"" style=""width: 234px; height: 230px; margin-top: -50px;""><div style=""display: flex; justify-content: space-between; margin-top: 33px;""><img src=""images/choice_trial_14.png"" style=""width: 408px; height: 417px; margin-right: 608px;""></div></div>",,delaylearn,learning,display_response,vrI6NxBw9pa5JWYYpNSPADUdALf1,vrI6NxBw9pa5JWYYpNSPADUdALf1,,,,,,,,,,,,,,,,,chosen stimuli: images/choice_trial_14.png,,,,,65b5a5aa458275b5740acee4,10:09:13,27/02/2024
html-keyboard-response,147,294192,0.0-61.0-2.0,,,,delaylearn,learning,feedback_duration_window,vrI6NxBw9pa5JWYYpNSPADUdALf1,vrI6NxBw9pa5JWYYpNSPADUdALf1,,,,,,,,,,,,,,,,,,7000.0,,,,65b5a5aa458275b5740acee4,10:09:13,27/02/2024
html-keyboard-response,148,295708,0.0-61.0-3.0,,<div style='margin:auto;width: auto; font-size: 150%'><span style='font-weight: bold; font-size: 100px; color: green;'>+10 points!</span><br><br></div>,,delaylearn,learning,feedback_image_window,vrI6NxBw9pa5JWYYpNSPADUdALf1,vrI6NxBw9pa5JWYYpNSPADUdALf1,,,,,,,,,,,,,,,,,,,,,,65b5a5aa458275b5740acee4,10:09:13,27/02/2024
html-keyboard-response,149,297833,0.0-62.0,,"<div style=""font-size:100px;"">+</div>",,delaylearn,learning,ITI,vrI6NxBw9pa5JWYYpNSPADUdALf1,vrI6NxBw9pa5JWYYpNSPADUdALf1,,,,,,,,,,,,,,,,,,,2109.0,,,65b5a5aa458275b5740acee4,10:09:13,27/02/2024
html-keyboard-response,150,299672,0.0-63.0-0.0,1837.0,"<div style=""display: flex; flex-direction: column; align-items: center; margin-top: -40px;""><img src=""images/pattern_5.png"" style=""width: 234px; height: 230px; margin-top: -50px;""><div style=""display: flex; justify-content: space-between; margin-top: 33px;""><img src=""images/choice_trial_11.png"" style=""width: 408px; height: 417px; margin-right: 200px;""><img src=""images/choice_trial_2.png"" style=""width: 408px; height: 417px;""></div></div>",j,delaylearn,learning,trial,vrI6NxBw9pa5JWYYpNSPADUdALf1,vrI6NxBw9pa5JWYYpNSPADUdALf1,3.0,images/choice_trial_11.png,images/choice_trial_2.png,images/pattern_5.png,f,f,750.0,11.0,2.0,4.0,0.0,27.0,0.0,0.0,2.0,150.0,,,,,,65b5a5aa458275b5740acee4,10:09:13,27/02/2024
html-keyboard-response,151,300676,0.0-63.0-1.0,,"<div style=""display: flex; flex-direction: column; align-items: center; margin-top: -40px;""><img src=""images/pattern_5.png"" style=""width: 234px; height: 230px; margin-top: -50px;""><div style=""display: flex; justify-content: space-between; margin-top: 33px;""><img src=""images/choice_trial_2.png"" style=""width: 408px; height: 417px; margin-left:608px;""></div></div>",,delaylearn,learning,display_response,vrI6NxBw9pa5JWYYpNSPADUdALf1,vrI6NxBw9pa5JWYYpNSPADUdALf1,,,,,,,,,,,,,,,,,chosen stimuli: images/choice_trial_2.png,,,,,65b5a5aa458275b5740acee4,10:09:13,27/02/2024
html-keyboard-response,152,301434,0.0-63.0-2.0,,,,delaylearn,learning,feedback_duration_window,vrI6NxBw9pa5JWYYpNSPADUdALf1,vrI6NxBw9pa5JWYYpNSPADUdALf1,,,,,,,,,,,,,,,,,,750.0,,,,65b5a5aa458275b5740acee4,10:09:13,27/02/2024
html-keyboard-response,153,302948,0.0-63.0-3.0,,<div style='margin:auto;width: auto; font-size: 150%'><span style='font-weight: bold; font-size: 100px; color: red;'>0 points!</span><br><br></div>,,delaylearn,learning,feedback_image_window,vrI6NxBw9pa5JWYYpNSPADUdALf1,vrI6NxBw9pa5JWYYpNSPADUdALf1,,,,,,,,,,,,,,,,,,,,,,65b5a5aa458275b5740acee4,10:09:13,27/02/2024
html-keyboard-response,154,304494,0.0-64.0,,"<div style=""font-size:100px;"">+</div>",,delaylearn,learning,ITI,vrI6NxBw9pa5JWYYpNSPADUdALf1,vrI6NxBw9pa5JWYYpNSPADUdALf1,,,,,,,,,,,,,,,,,,,1538.0,,,65b5a5aa458275b5740acee4,10:09:13,27/02/2024
html-keyboard-response,155,306096,0.0-65.0-0.0,1599.7999999523163,"<div style=""display: flex; flex-direction: column; align-items: center; margin-top: -40px;""><img src=""images/pattern_6.png"" style=""width: 234px; height: 230px; margin-top: -50px;""><div style=""display: flex; justify-content: space-between; margin-top: 33px;""><img src=""images/choice_trial_3.png"" style=""width: 408px; height: 417px; margin-right: 200px;""><img src=""images/choice_trial_16.png"" style=""width: 408px; height: 417px;""></div></div>",j,delaylearn,learning,trial,vrI6NxBw9pa5JWYYpNSPADUdALf1,vrI6NxBw9pa5JWYYpNSPADUdALf1,3.0,images/choice_trial_3.png,images/choice_trial_16.png,images/pattern_6.png,j,j,750.0,3.0,16.0,5.0,1.0,28.0,1.0,1.0,16.0,160.0,,,,,,65b5a5aa458275b5740acee4,10:09:13,27/02/2024
html-keyboard-response,156,307108,0.0-65.0-1.0,,"<div style=""display: flex; flex-direction: column; align-items: center; margin-top: -40px;""><img src=""images/pattern_6.png"" style=""width: 234px; height: 230px; margin-top: -50px;""><div style=""display: flex; justify-content: space-between; margin-top: 33px;""><img src=""images/choice_trial_16.png"" style=""width: 408px; height: 417px; margin-left:608px;""></div></div>",,delaylearn,learning,display_response,vrI6NxBw9pa5JWYYpNSPADUdALf1,vrI6NxBw9pa5JWYYpNSPADUdALf1,,,,,,,,,,,,,,,,,chosen stimuli: images/choice_trial_16.png,,,,,65b5a5aa458275b5740acee4,10:09:13,27/02/2024
html-keyboard-response,157,307873,0.0-65.0-2.0,,,,delaylearn,learning,feedback_duration_window,vrI6NxBw9pa5JWYYpNSPADUdALf1,vrI6NxBw9pa5JWYYpNSPADUdALf1,,,,,,,,,,,,,,,,,,750.0,,,,65b5a5aa458275b5740acee4,10:09:13,27/02/2024
html-keyboard-response,158,309379,0.0-65.0-3.0,,<div style='margin:auto;width: auto; font-size: 150%'><span style='font-weight: bold; font-size: 100px; color: green;'>+10 points!</span><br><br></div>,,delaylearn,learning,feedback_image_window,vrI6NxBw9pa5JWYYpNSPADUdALf1,vrI6NxBw9pa5JWYYpNSPADUdALf1,,,,,,,,,,,,,,,,,,,,,,65b5a5aa458275b5740acee4,10:09:13,27/02/2024
html-keyboard-response,159,309892,0.0-66.0-0.0,,,,,,mood_trial_fixation,vrI6NxBw9pa5JWYYpNSPADUdALf1,,,,,,,,,,,,,,,,,,,,,,,65b5a5aa458275b5740acee4,10:09:13,27/02/2024
lmdlab-html-vas-response,160,312957,0.0-66.0-1.0,2046.0,How happy are you right now?,1,delaylearn,learning,mood_trial,vrI6NxBw9pa5JWYYpNSPADUdALf1,vrI6NxBw9pa5JWYYpNSPADUdALf1,,,,,,,,,,,,,,,,,,,,"['Very unhappy', 'Very happy']",,65b5a5aa458275b5740acee4,10:09:13,27/02/2024
html-keyboard-response,161,314573,0.0-67.0,,"<div style=""font-size:100px;"">+</div>",,delaylearn,learning,ITI,vrI6NxBw9pa5JWYYpNSPADUdALf1,vrI6NxBw9pa5JWYYpNSPADUdALf1,,,,,,,,,,,,,,,,,,,1605.0,,,65b5a5aa458275b5740acee4,10:09:13,27/02/2024
html-keyboard-response,162,316010,0.0-68.0-0.0,1435.199999988079,"<div style=""display: flex; flex-direction: column; align-items: center; margin-top: -40px;""><img src=""images/pattern_4.png"" style=""width: 234px; height: 230px; margin-top: -50px;""><div style=""display: flex; justify-content: space-between; margin-top: 33px;""><img src=""images/choice_trial_9.png"" style=""width: 408px; height: 417px; margin-right: 200px;""><img src=""images/choice_trial_15.png"" style=""width: 408px; height: 417px;""></div></div>",j,delaylearn,learning,trial,vrI6NxBw9pa5JWYYpNSPADUdALf1,vrI6NxBw9pa5JWYYpNSPADUdALf1,3.0,images/choice_trial_9.png,images/choice_trial_15.png,images/pattern_4.png,j,j,7000.0,9.0,15.0,3.0,1.0,29.0,1.0,1.0,15.0,170.0,,,,,,65b5a5aa458275b5740acee4,10:09:13,27/02/2024
html-keyboard-response,163,317020,0.0-68.0-1.0,,"<div style=""display: flex; flex-direction: column; align-items: center; margin-top: -40px;""><img src=""images/pattern_4.png"" style=""width: 234px; height: 230px; margin-top: -50px;""><div style=""display: flex; justify-content: space-between; margin-top: 33px;""><img src=""images/choice_trial_15.png"" style=""width: 408px; height: 417px; margin-left:608px;""></div></div>",,delaylearn,learning,display_response,vrI6NxBw9pa5JWYYpNSPADUdALf1,vrI6NxBw9pa5JWYYpNSPADUdALf1,,,,,,,,,,,,,,,,,chosen stimuli: images/choice_trial_15.png,,,,,65b5a5aa458275b5740acee4,10:09:13,27/02/2024
html-keyboard-response,164,324025,0.0-68.0-2.0,,,,delaylearn,learning,feedback_duration_window,vrI6NxBw9pa5JWYYpNSPADUdALf1,vrI6NxBw9pa5JWYYpNSPADUdALf1,,,,,,,,,,,,,,,,,,7000.0,,,,65b5a5aa458275b5740acee4,10:09:13,27/02/2024
html-keyboard-response,165,325534,0.0-68.0-3.0,,<div style='margin:auto;width: auto; font-size: 150%'><span style='font-weight: bold; font-size: 100px; color: green;'>+10 points!</span><br><br></div>,,delaylearn,learning,feedback_image_window,vrI6NxBw9pa5JWYYpNSPADUdALf1,vrI6NxBw9pa5JWYYpNSPADUdALf1,,,,,,,,,,,,,,,,,,,,,,65b5a5aa458275b5740acee4,10:09:13,27/02/2024
html-keyboard-response,166,327241,0.0-69.0,,"<div style=""font-size:100px;"">+</div>",,delaylearn,learning,ITI,vrI6NxBw9pa5JWYYpNSPADUdALf1,vrI6NxBw9pa5JWYYpNSPADUdALf1,,,,,,,,,,,,,,,,,,,1699.0,,,65b5a5aa458275b5740acee4,10:09:13,27/02/2024
html-keyboard-response,167,328326,0.0-70.0-0.0,1082.699999988079,"<div style=""display: flex; flex-direction: column; align-items: center; margin-top: -40px;""><img src=""images/pattern_3.png"" style=""width: 234px; height: 230px; margin-top: -50px;""><div style=""display: flex; justify-content: space-between; margin-top: 33px;""><img src=""images/choice_trial_10.png"" style=""width: 408px; height: 417px; margin-right: 200px;""><img src=""images/choice_trial_13.png"" style=""width: 408px; height: 417px;""></div></div>",j,delaylearn,learning,trial,vrI6NxBw9pa5JWYYpNSPADUdALf1,vrI6NxBw9pa5JWYYpNSPADUdALf1,3.0,images/choice_trial_10.png,images/choice_trial_13.png,images/pattern_3.png,j,j,7000.0,10.0,13.0,2.0,1.0,30.0,1.0,1.0,13.0,180.0,,,,,,65b5a5aa458275b5740acee4,10:09:13,27/02/2024
html-keyboard-response,168,329333,0.0-70.0-1.0,,"<div style=""display: flex; flex-direction: column; align-items: center; margin-top: -40px;""><img src=""images/pattern_3.png"" style=""width: 234px; height: 230px; margin-top: -50px;""><div style=""display: flex; justify-content: space-between; margin-top: 33px;""><img src=""images/choice_trial_13.png"" style=""width: 408px; height: 417px; margin-left:608px;""></div></div>",,delaylearn,learning,display_response,vrI6NxBw9pa5JWYYpNSPADUdALf1,vrI6NxBw9pa5JWYYpNSPADUdALf1,,,,,,,,,,,,,,,,,chosen stimuli: images/choice_trial_13.png,,,,,65b5a5aa458275b5740acee4,10:09:13,27/02/2024
html-keyboard-response,169,336341,0.0-70.0-2.0,,,,delaylearn,learning,feedback_duration_window,vrI6NxBw9pa5JWYYpNSPADUdALf1,vrI6NxBw9pa5JWYYpNSPADUdALf1,,,,,,,,,,,,,,,,,,7000.0,,,,65b5a5aa458275b5740acee4,10:09:13,27/02/2024
html-keyboard-response,170,337848,0.0-70.0-3.0,,<div style='margin:auto;width: auto; font-size: 150%'><span style='font-weight: bold; font-size: 100px; color: green;'>+10 points!</span><br><br></div>,,delaylearn,learning,feedback_image_window,vrI6NxBw9pa5JWYYpNSPADUdALf1,vrI6NxBw9pa5JWYYpNSPADUdALf1,,,,,,,,,,,,,,,,,,,,,,65b5a5aa458275b5740acee4,10:09:13,27/02/2024
html-keyboard-response,171,339722,0.0-71.0,,"<div style=""font-size:100px;"">+</div>",,delaylearn,learning,ITI,vrI6NxBw9pa5JWYYpNSPADUdALf1,vrI6NxBw9pa5JWYYpNSPADUdALf1,,,,,,,,,,,,,,,,,,,1870.0,,,65b5a5aa458275b5740acee4,10:09:13,27/02/2024
html-keyboard-response,172,340863,0.0-72.0-0.0,1139.0,"<div style=""display: flex; flex-direction: column; align-items: center; margin-top: -40px;""><img src=""images/pattern_5.png"" style=""width: 234px; height: 230px; margin-top: -50px;""><div style=""display: flex; justify-content: space-between; margin-top: 33px;""><img src=""images/choice_trial_11.png"" style=""width: 408px; height: 417px; margin-right: 200px;""><img src=""images/choice_trial_2.png"" style=""width: 408px; height: 417px;""></div></div>",f,delaylearn,learning,trial,vrI6NxBw9pa5JWYYpNSPADUdALf1,vrI6NxBw9pa5JWYYpNSPADUdALf1,3.0,images/choice_trial_11.png,images/choice_trial_2.png,images/pattern_5.png,j,f,750.0,11.0,2.0,4.0,0.0,31.0,1.0,0.0,11.0,180.0,,,,,,65b5a5aa458275b5740acee4,10:09:13,27/02/2024
html-keyboard-response,173,341876,0.0-72.0-1.0,,"<div style=""display: flex; flex-direction: column; align-items: center; margin-top: -40px;""><img src=""images/pattern_5.png"" style=""width: 234px; height: 230px; margin-top: -50px;""><div style=""display: flex; justify-content: space-between; margin-top: 33px;""><img src=""images/choice_trial_11.png"" style=""width: 408px; height: 417px; margin-right: 608px;""></div></div>",,delaylearn,learning,display_response,vrI6NxBw9pa5JWYYpNSPADUdALf1,vrI6NxBw9pa5JWYYpNSPADUdALf1,,,,,,,,,,,,,,,,,chosen stimuli: images/choice_trial_11.png,,,,,65b5a5aa458275b5740acee4,10:09:13,27/02/2024
html-keyboard-response,174,342629,0.0-72.0-2.0,,,,delaylearn,learning,feedback_duration_window,vrI6NxBw9pa5JWYYpNSPADUdALf1,vrI6NxBw9pa5JWYYpNSPADUdALf1,,,,,,,,,,,,,,,,,,750.0,,,,65b5a5aa458275b5740acee4,10:09:13,27/02/2024
html-keyboard-response,175,344145,0.0-72.0-3.0,,<div style='margin:auto;width: auto; font-size: 150%'><span style='font-weight: bold; font-size: 100px; color: red;'>0 points!</span><br><br></div>,,delaylearn,learning,feedback_image_window,vrI6NxBw9pa5JWYYpNSPADUdALf1,vrI6NxBw9pa5JWYYpNSPADUdALf1,,,,,,,,,,,,,,,,,,,,,,65b5a5aa458275b5740acee4,10:09:13,27/02/2024
html-keyboard-response,176,346259,0.0-73.0,,"<div style=""font-size:100px;"">+</div>",,delaylearn,learning,ITI,vrI6NxBw9pa5JWYYpNSPADUdALf1,vrI6NxBw9pa5JWYYpNSPADUdALf1,,,,,,,,,,,,,,,,,,,2111.0,,,65b5a5aa458275b5740acee4,10:09:13,27/02/2024
html-keyboard-response,177,347503,0.0-74.0-0.0,1241.800000011921,"<div style=""display: flex; flex-direction: column; align-items: center; margin-top: -40px;""><img src=""images/pattern_1.png"" style=""width: 234px; height: 230px; margin-top: -50px;""><div style=""display: flex; justify-content: space-between; margin-top: 33px;""><img src=""images/choice_trial_14.png"" style=""width: 408px; height: 417px; margin-right: 200px;""><img src=""images/choice_trial_8.png"" style=""width: 408px; height: 417px;""></div></div>",f,delaylearn,learning,trial,vrI6NxBw9pa5JWYYpNSPADUdALf1,vrI6NxBw9pa5JWYYpNSPADUdALf1,3.0,images/choice_trial_14.png,images/choice_trial_8.png,images/pattern_1.png,f,f,7000.0,14.0,8.0,1.0,0.0,32.0,1.0,1.0,14.0,190.0,,,,,,65b5a5aa458275b5740acee4,10:09:13,27/02/2024
html-keyboard-response,178,348513,0.0-74.0-1.0,,"<div style=""display: flex; flex-direction: column; align-items: center; margin-top: -40px;""><img src=""images/pattern_1.png"" style=""width: 234px; height: 230px; margin-top: -50px;""><div style=""display: flex; justify-content: space-between; margin-top: 33px;""><img src=""images/choice_trial_14.png"" style=""width: 408px; height: 417px; margin-right: 608px;""></div></div>",,delaylearn,learning,display_response,vrI6NxBw9pa5JWYYpNSPADUdALf1,vrI6NxBw9pa5JWYYpNSPADUdALf1,,,,,,,,,,,,,,,,,chosen stimuli: images/choice_trial_14.png,,,,,65b5a5aa458275b5740acee4,10:09:13,27/02/2024
html-keyboard-response,179,355518,0.0-74.0-2.0,,,,delaylearn,learning,feedback_duration_window,vrI6NxBw9pa5JWYYpNSPADUdALf1,vrI6NxBw9pa5JWYYpNSPADUdALf1,,,,,,,,,,,,,,,,,,7000.0,,,,65b5a5aa458275b5740acee4,10:09:13,27/02/2024
html-keyboard-response,180,357036,0.0-74.0-3.0,,<div style='margin:auto;width: auto; font-size: 150%'><span style='font-weight: bold; font-size: 100px; color: green;'>+10 points!</span><br><br></div>,,delaylearn,learning,feedback_image_window,vrI6NxBw9pa5JWYYpNSPADUdALf1,vrI6NxBw9pa5JWYYpNSPADUdALf1,,,,,,,,,,,,,,,,,,,,,,65b5a5aa458275b5740acee4,10:09:13,27/02/2024
html-keyboard-response,181,357549,0.0-75.0-0.0,,,,,,mood_trial_fixation,vrI6NxBw9pa5JWYYpNSPADUdALf1,,,,,,,,,,,,,,,,,,,,,,,65b5a5aa458275b5740acee4,10:09:13,27/02/2024
lmdlab-html-vas-response,182,360732,0.0-75.0-1.0,2166.0,How happy are you right now?,1,delaylearn,learning,mood_trial,vrI6NxBw9pa5JWYYpNSPADUdALf1,vrI6NxBw9pa5JWYYpNSPADUdALf1,,,,,,,,,,,,,,,,,,,,"['Very unhappy', 'Very happy']",,65b5a5aa458275b5740acee4,10:09:13,27/02/2024
html-keyboard-response,183,362408,0.0-76.0,,"<div style=""font-size:100px;"">+</div>",,delaylearn,learning,ITI,vrI6NxBw9pa5JWYYpNSPADUdALf1,vrI6NxBw9pa5JWYYpNSPADUdALf1,,,,,,,,,,,,,,,,,,,1670.0,,,65b5a5aa458275b5740acee4,10:09:13,27/02/2024
html-keyboard-response,184,364146,0.0-77.0-0.0,1735.5,"<div style=""display: flex; flex-direction: column; align-items: center; margin-top: -40px;""><img src=""images/pattern_6.png"" style=""width: 234px; height: 230px; margin-top: -50px;""><div style=""display: flex; justify-content: space-between; margin-top: 33px;""><img src=""images/choice_trial_16.png"" style=""width: 408px; height: 417px; margin-right: 200px;""><img src=""images/choice_trial_3.png"" style=""width: 408px; height: 417px;""></div></div>",f,delaylearn,learning,trial,vrI6NxBw9pa5JWYYpNSPADUdALf1,vrI6NxBw9pa5JWYYpNSPADUdALf1,3.0,images/choice_trial_16.png,images/choice_trial_3.png,images/pattern_6.png,j,f,750.0,16.0,3.0,5.0,0.0,33.0,1.0,0.0,16.0,190.0,,,,,,65b5a5aa458275b5740acee4,10:09:13,27/02/2024
html-keyboard-response,185,365155,0.0-77.0-1.0,,"<div style=""display: flex; flex-direction: column; align-items: center; margin-top: -40px;""><img src=""images/pattern_6.png"" style=""width: 234px; height: 230px; margin-top: -50px;""><div style=""display: flex; justify-content: space-between; margin-top: 33px;""><img src=""images/choice_trial_16.png"" style=""width: 408px; height: 417px; margin-right: 608px;""></div></div>",,delaylearn,learning,display_response,vrI6NxBw9pa5JWYYpNSPADUdALf1,vrI6NxBw9pa5JWYYpNSPADUdALf1,,,,,,,,,,,,,,,,,chosen stimuli: images/choice_trial_16.png,,,,,65b5a5aa458275b5740acee4,10:09:13,27/02/2024
html-keyboard-response,186,365920,0.0-77.0-2.0,,,,delaylearn,learning,feedback_duration_window,vrI6NxBw9pa5JWYYpNSPADUdALf1,vrI6NxBw9pa5JWYYpNSPADUdALf1,,,,,,,,,,,,,,,,,,750.0,,,,65b5a5aa458275b5740acee4,10:09:13,27/02/2024
html-keyboard-response,187,367426,0.0-77.0-3.0,,<div style='margin:auto;width: auto; font-size: 150%'><span style='font-weight: bold; font-size: 100px; color: red;'>0 points!</span><br><br></div>,,delaylearn,learning,feedback_image_window,vrI6NxBw9pa5JWYYpNSPADUdALf1,vrI6NxBw9pa5JWYYpNSPADUdALf1,,,,,,,,,,,,,,,,,,,,,,65b5a5aa458275b5740acee4,10:09:13,27/02/2024
html-keyboard-response,188,369900,0.0-78.0,,"<div style=""font-size:100px;"">+</div>",,delaylearn,learning,ITI,vrI6NxBw9pa5JWYYpNSPADUdALf1,vrI6NxBw9pa5JWYYpNSPADUdALf1,,,,,,,,,,,,,,,,,,,2459.0,,,65b5a5aa458275b5740acee4,10:09:13,27/02/2024
html-keyboard-response,189,371197,0.0-79.0-0.0,1293.8999999761581,"<div style=""display: flex; flex-direction: column; align-items: center; margin-top: -40px;""><img src=""images/pattern_3.png"" style=""width: 234px; height: 230px; margin-top: -50px;""><div style=""display: flex; justify-content: space-between; margin-top: 33px;""><img src=""images/choice_trial_10.png"" style=""width: 408px; height: 417px; margin-right: 200px;""><img src=""images/choice_trial_13.png"" style=""width: 408px; height: 417px;""></div></div>",j,delaylearn,learning,trial,vrI6NxBw9pa5JWYYpNSPADUdALf1,vrI6NxBw9pa5JWYYpNSPADUdALf1,3.0,images/choice_trial_10.png,images/choice_trial_13.png,images/pattern_3.png,j,j,7000.0,10.0,13.0,2.0,1.0,34.0,1.0,1.0,13.0,200.0,,,,,,65b5a5aa458275b5740acee4,10:09:13,27/02/2024
html-keyboard-response,190,372204,0.0-79.0-1.0,,"<div style=""display: flex; flex-direction: column; align-items: center; margin-top: -40px;""><img src=""images/pattern_3.png"" style=""width: 234px; height: 230px; margin-top: -50px;""><div style=""display: flex; justify-content: space-between; margin-top: 33px;""><img src=""images/choice_trial_13.png"" style=""width: 408px; height: 417px; margin-left:608px;""></div></div>",,delaylearn,learning,display_response,vrI6NxBw9pa5JWYYpNSPADUdALf1,vrI6NxBw9pa5JWYYpNSPADUdALf1,,,,,,,,,,,,,,,,,chosen stimuli: images/choice_trial_13.png,,,,,65b5a5aa458275b5740acee4,10:09:13,27/02/2024
html-keyboard-response,191,379206,0.0-79.0-2.0,,,,delaylearn,learning,feedback_duration_window,vrI6NxBw9pa5JWYYpNSPADUdALf1,vrI6NxBw9pa5JWYYpNSPADUdALf1,,,,,,,,,,,,,,,,,,7000.0,,,,65b5a5aa458275b5740acee4,10:09:13,27/02/2024
html-keyboard-response,192,380724,0.0-79.0-3.0,,<div style='margin:auto;width: auto; font-size: 150%'><span style='font-weight: bold; font-size: 100px; color: green;'>+10 points!</span><br><br></div>,,delaylearn,learning,feedback_image_window,vrI6NxBw9pa5JWYYpNSPADUdALf1,vrI6NxBw9pa5JWYYpNSPADUdALf1,,,,,,,,,,,,,,,,,,,,,,65b5a5aa458275b5740acee4,10:09:13,27/02/2024
html-keyboard-response,193,382238,0.0-80.0,,"<div style=""font-size:100px;"">+</div>",,delaylearn,learning,ITI,vrI6NxBw9pa5JWYYpNSPADUdALf1,vrI6NxBw9pa5JWYYpNSPADUdALf1,,,,,,,,,,,,,,,,,,,1506.0,,,65b5a5aa458275b5740acee4,10:09:13,27/02/2024
html-keyboard-response,194,383647,0.0-81.0-0.0,1405.9000000357628,"<div style=""display: flex; flex-direction: column; align-items: center; margin-top: -40px;""><img src=""images/pattern_4.png"" style=""width: 234px; height: 230px; margin-top: -50px;""><div style=""display: flex; justify-content: space-between; margin-top: 33px;""><img src=""images/choice_trial_9.png"" style=""width: 408px; height: 417px; margin-right: 200px;""><img src=""images/choice_trial_15.png"" style=""width: 408px; height: 417px;""></div></div>",j,delaylearn,learning,trial,vrI6NxBw9pa5JWYYpNSPADUdALf1,vrI6NxBw9pa5JWYYpNSPADUdALf1,3.0,images/choice_trial_9.png,images/choice_trial_15.png,images/pattern_4.png,f,j,7000.0,9.0,15.0,3.0,1.0,35.0,1.0,0.0,15.0,200.0,,,,,,65b5a5aa458275b5740acee4,10:09:13,27/02/2024
html-keyboard-response,195,384660,0.0-81.0-1.0,,"<div style=""display: flex; flex-direction: column; align-items: center; margin-top: -40px;""><img src=""images/pattern_4.png"" style=""width: 234px; height: 230px; margin-top: -50px;""><div style=""display: flex; justify-content: space-between; margin-top: 33px;""><img src=""images/choice_trial_15.png"" style=""width: 408px; height: 417px; margin-left:608px;""></div></div>",,delaylearn,learning,display_response,vrI6NxBw9pa5JWYYpNSPADUdALf1,vrI6NxBw9pa5JWYYpNSPADUdALf1,,,,,,,,,,,,,,,,,chosen stimuli: images/choice_trial_15.png,,,,,65b5a5aa458275b5740acee4,10:09:13,27/02/2024
html-keyboard-response,196,391676,0.0-81.0-2.0,,,,delaylearn,learning,feedback_duration_window,vrI6NxBw9pa5JWYYpNSPADUdALf1,vrI6NxBw9pa5JWYYpNSPADUdALf1,,,,,,,,,,,,,,,,,,7000.0,,,,65b5a5aa458275b5740acee4,10:09:13,27/02/2024
html-keyboard-response,197,393191,0.0-81.0-3.0,,<div style='margin:auto;width: auto; font-size: 150%'><span style='font-weight: bold; font-size: 100px; color: red;'>0 points!</span><br><br></div>,,delaylearn,learning,feedback_image_window,vrI6NxBw9pa5JWYYpNSPADUdALf1,vrI6NxBw9pa5JWYYpNSPADUdALf1,,,,,,,,,,,,,,,,,,,,,,65b5a5aa458275b5740acee4,10:09:13,27/02/2024
html-keyboard-response,198,395251,0.0-82.0,,"<div style=""font-size:100px;"">+</div>",,delaylearn,learning,ITI,vrI6NxBw9pa5JWYYpNSPADUdALf1,vrI6NxBw9pa5JWYYpNSPADUdALf1,,,,,,,,,,,,,,,,,,,2052.0,,,65b5a5aa458275b5740acee4,10:09:13,27/02/2024
html-keyboard-response,199,396977,0.0-83.0-0.0,1722.199999988079,"<div style=""display: flex; flex-direction: column; align-items: center; margin-top: -40px;""><img src=""images/pattern_7.png"" style=""width: 234px; height: 230px; margin-top: -50px;""><div style=""display: flex; justify-content: space-between; margin-top: 33px;""><img src=""images/choice_trial_6.png"" style=""width: 408px; height: 417px; margin-right: 200px;""><img src=""images/choice_trial_12.png"" style=""width: 408px; height: 417px;""></div></div>",j,delaylearn,learning,trial,vrI6NxBw9pa5JWYYpNSPADUdALf1,vrI6NxBw9pa5JWYYpNSPADUdALf1,3.0,images/choice_trial_6.png,images/choice_trial_12.png,images/pattern_7.png,f,f,750.0,6.0,12.0,6.0,0.0,36.0,0.0,0.0,12.0,200.0,,,,,,65b5a5aa458275b5740acee4,10:09:13,27/02/2024
html-keyboard-response,200,397988,0.0-83.0-1.0,,"<div style=""display: flex; flex-direction: column; align-items: center; margin-top: -40px;""><img src=""images/pattern_7.png"" style=""width: 234px; height: 230px; margin-top: -50px;""><div style=""display: flex; justify-content: space-between; margin-top: 33px;""><img src=""images/choice_trial_12.png"" style=""width: 408px; height: 417px; margin-left:608px;""></div></div>",,delaylearn,learning,display_response,vrI6NxBw9pa5JWYYpNSPADUdALf1,vrI6NxBw9pa5JWYYpNSPADUdALf1,,,,,,,,,,,,,,,,,chosen stimuli: images/choice_trial_12.png,,,,,65b5a5aa458275b5740acee4,10:09:13,27/02/2024
html-keyboard-response,201,398753,0.0-83.0-2.0,,,,delaylearn,learning,feedback_duration_window,vrI6NxBw9pa5JWYYpNSPADUdALf1,vrI6NxBw9pa5JWYYpNSPADUdALf1,,,,,,,,,,,,,,,,,,750.0,,,,65b5a5aa458275b5740acee4,10:09:13,27/02/2024
html-keyboard-response,202,400268,0.0-83.0-3.0,,<div style='margin:auto;width: auto; font-size: 150%'><span style='font-weight: bold; font-size: 100px; color: red;'>0 points!</span><br><br></div>,,delaylearn,learning,feedback_image_window,vrI6NxBw9pa5JWYYpNSPADUdALf1,vrI6NxBw9pa5JWYYpNSPADUdALf1,,,,,,,,,,,,,,,,,,,,,,65b5a5aa458275b5740acee4,10:09:13,27/02/2024
html-keyboard-response,203,401975,0.0-84.0,,"<div style=""font-size:100px;"">+</div>",,delaylearn,learning,ITI,vrI6NxBw9pa5JWYYpNSPADUdALf1,vrI6NxBw9pa5JWYYpNSPADUdALf1,,,,,,,,,,,,,,,,,,,1695.0,,,65b5a5aa458275b5740acee4,10:09:13,27/02/2024
html-keyboard-response,204,403118,0.0-85.0-0.0,1139.3999999761581,"<div style=""display: flex; flex-direction: column; align-items: center; margin-top: -40px;""><img src=""images/pattern_1.png"" style=""width: 234px; height: 230px; margin-top: -50px;""><div style=""display: flex; justify-content: space-between; margin-top: 33px;""><img src=""images/choice_trial_14.png"" style=""width: 408px; height: 417px; margin-right: 200px;""><img src=""images/choice_trial_8.png"" style=""width: 408px; height: 417px;""></div></div>",f,delaylearn,learning,trial,vrI6NxBw9pa5JWYYpNSPADUdALf1,vrI6NxBw9pa5JWYYpNSPADUdALf1,3.0,images/choice_trial_14.png,images/choice_trial_8.png,images/pattern_1.png,f,f,7000.0,14.0,8.0,1.0,0.0,37.0,1.0,1.0,14.0,210.0,,,,,,65b5a5aa458275b5740acee4,10:09:13,27/02/2024
html-keyboard-response,205,404128,0.0-85.0-1.0,,"<div style=""display: flex; flex-direction: column; align-items: center; margin-top: -40px;""><img src=""images/pattern_1.png"" style=""width: 234px; height: 230px; margin-top: -50px;""><div style=""display: flex; justify-content: space-between; margin-top: 33px;""><img src=""images/choice_trial_14.png"" style=""width: 408px; height: 417px; margin-right: 608px;""></div></div>",,delaylearn,learning,display_response,vrI6NxBw9pa5JWYYpNSPADUdALf1,vrI6NxBw9pa5JWYYpNSPADUdALf1,,,,,,,,,,,,,,,,,chosen stimuli: images/choice_trial_14.png,,,,,65b5a5aa458275b5740acee4,10:09:13,27/02/2024
html-keyboard-response,206,411131,0.0-85.0-2.0,,,,delaylearn,learning,feedback_duration_window,vrI6NxBw9pa5JWYYpNSPADUdALf1,vrI6NxBw9pa5JWYYpNSPADUdALf1,,,,,,,,,,,,,,,,,,7000.0,,,,65b5a5aa458275b5740acee4,10:09:13,27/02/2024
html-keyboard-response,207,412643,0.0-85.0-3.0,,<div style='margin:auto;width: auto; font-size: 150%'><span style='font-weight: bold; font-size: 100px; color: green;'>+10 points!</span><br><br></div>,,delaylearn,learning,feedback_image_window,vrI6NxBw9pa5JWYYpNSPADUdALf1,vrI6NxBw9pa5JWYYpNSPADUdALf1,,,,,,,,,,,,,,,,,,,,,,65b5a5aa458275b5740acee4,10:09:13,27/02/2024
html-keyboard-response,208,413145,0.0-86.0-0.0,,,,,,mood_trial_fixation,vrI6NxBw9pa5JWYYpNSPADUdALf1,,,,,,,,,,,,,,,,,,,,,,,65b5a5aa458275b5740acee4,10:09:13,27/02/2024
lmdlab-html-vas-response,209,415871,0.0-86.0-1.0,1714.0,How happy are you right now?,0.7800925925925926,delaylearn,learning,mood_trial,vrI6NxBw9pa5JWYYpNSPADUdALf1,vrI6NxBw9pa5JWYYpNSPADUdALf1,,,,,,,,,,,,,,,,,,,,"['Very unhappy', 'Very happy']",,65b5a5aa458275b5740acee4,10:09:13,27/02/2024
html-keyboard-response,210,417697,0.0-87.0,,"<div style=""font-size:100px;"">+</div>",,delaylearn,learning,ITI,vrI6NxBw9pa5JWYYpNSPADUdALf1,vrI6NxBw9pa5JWYYpNSPADUdALf1,,,,,,,,,,,,,,,,,,,1823.0,,,65b5a5aa458275b5740acee4,10:09:13,27/02/2024
html-keyboard-response,211,418959,0.0-88.0-0.0,1244.4000000357628,"<div style=""display: flex; flex-direction: column; align-items: center; margin-top: -40px;""><img src=""images/pattern_3.png"" style=""width: 234px; height: 230px; margin-top: -50px;""><div style=""display: flex; justify-content: space-between; margin-top: 33px;""><img src=""images/choice_trial_13.png"" style=""width: 408px; height: 417px; margin-right: 200px;""><img src=""images/choice_trial_10.png"" style=""width: 408px; height: 417px;""></div></div>",f,delaylearn,learning,trial,vrI6NxBw9pa5JWYYpNSPADUdALf1,vrI6NxBw9pa5JWYYpNSPADUdALf1,3.0,images/choice_trial_13.png,images/choice_trial_10.png,images/pattern_3.png,j,f,7000.0,13.0,10.0,2.0,0.0,38.0,1.0,0.0,13.0,210.0,,,,,,65b5a5aa458275b5740acee4,10:09:13,27/02/2024
html-keyboard-response,212,419961,0.0-88.0-1.0,,"<div style=""display: flex; flex-direction: column; align-items: center; margin-top: -40px;""><img src=""images/pattern_3.png"" style=""width: 234px; height: 230px; margin-top: -50px;""><div style=""display: flex; justify-content: space-between; margin-top: 33px;""><img src=""images/choice_trial_13.png"" style=""width: 408px; height: 417px; margin-right: 608px;""></div></div>",,delaylearn,learning,display_response,vrI6NxBw9pa5JWYYpNSPADUdALf1,vrI6NxBw9pa5JWYYpNSPADUdALf1,,,,,,,,,,,,,,,,,chosen stimuli: images/choice_trial_13.png,,,,,65b5a5aa458275b5740acee4,10:09:13,27/02/2024
html-keyboard-response,213,426973,0.0-88.0-2.0,,,,delaylearn,learning,feedback_duration_window,vrI6NxBw9pa5JWYYpNSPADUdALf1,vrI6NxBw9pa5JWYYpNSPADUdALf1,,,,,,,,,,,,,,,,,,7000.0,,,,65b5a5aa458275b5740acee4,10:09:13,27/02/2024
html-keyboard-response,214,428480,0.0-88.0-3.0,,<div style='margin:auto;width: auto; font-size: 150%'><span style='font-weight: bold; font-size: 100px; color: red;'>0 points!</span><br><br></div>,,delaylearn,learning,feedback_image_window,vrI6NxBw9pa5JWYYpNSPADUdALf1,vrI6NxBw9pa5JWYYpNSPADUdALf1,,,,,,,,,,,,,,,,,,,,,,65b5a5aa458275b5740acee4,10:09:13,27/02/2024
html-keyboard-response,215,430875,0.0-89.0,,"<div style=""font-size:100px;"">+</div>",,delaylearn,learning,ITI,vrI6NxBw9pa5JWYYpNSPADUdALf1,vrI6NxBw9pa5JWYYpNSPADUdALf1,,,,,,,,,,,,,,,,,,,2390.0,,,65b5a5aa458275b5740acee4,10:09:13,27/02/2024
html-keyboard-response,216,433882,0.0-90.0-0.0,,"<div style=""display: flex; flex-direction: column; align-items: center; margin-top: -40px;""><img src=""images/pattern_7.png"" style=""width: 234px; height: 230px; margin-top: -50px;""><div style=""display: flex; justify-content: space-between; margin-top: 33px;""><img src=""images/choice_trial_12.png"" style=""width: 408px; height: 417px; margin-right: 200px;""><img src=""images/choice_trial_6.png"" style=""width: 408px; height: 417px;""></div></div>",,delaylearn,learning,trial,vrI6NxBw9pa5JWYYpNSPADUdALf1,vrI6NxBw9pa5JWYYpNSPADUdALf1,3.0,images/choice_trial_12.png,images/choice_trial_6.png,images/pattern_7.png,j,j,750.0,12.0,6.0,6.0,1.0,39.0,0.0,0.0,0.0,210.0,,,,,,65b5a5aa458275b5740acee4,10:09:13,27/02/2024
html-keyboard-response,217,434897,0.0-90.0-1.0,,<div style='font-weight: bold; font-size: 75px; color: red;'>Missed Trial <br><br><br><br> Please respond faster</div>,,delaylearn,learning,display_response,vrI6NxBw9pa5JWYYpNSPADUdALf1,vrI6NxBw9pa5JWYYpNSPADUdALf1,,,,,,,,,,,,,,,,,Missed trial,,,,,65b5a5aa458275b5740acee4,10:09:13,27/02/2024
html-keyboard-response,218,434903,0.0-90.0-2.0,,,,delaylearn,learning,feedback_duration_window,vrI6NxBw9pa5JWYYpNSPADUdALf1,vrI6NxBw9pa5JWYYpNSPADUdALf1,,,,,,,,,,,,,,,,,,0.0,,,,65b5a5aa458275b5740acee4,10:09:13,27/02/2024
html-keyboard-response,219,434909,0.0-90.0-3.0,,,,delaylearn,learning,feedback_image_window,vrI6NxBw9pa5JWYYpNSPADUdALf1,vrI6NxBw9pa5JWYYpNSPADUdALf1,,,,,,,,,,,,,,,,,,,,,,65b5a5aa458275b5740acee4,10:09:13,27/02/2024
html-keyboard-response,220,436745,0.0-91.0,,"<div style=""font-size:100px;"">+</div>",,delaylearn,learning,ITI,vrI6NxBw9pa5JWYYpNSPADUdALf1,vrI6NxBw9pa5JWYYpNSPADUdALf1,,,,,,,,,,,,,,,,,,,1827.0,,,65b5a5aa458275b5740acee4,10:09:13,27/02/2024
html-keyboard-response,221,437977,0.0-92.0-0.0,1227.199999988079,"<div style=""display: flex; flex-direction: column; align-items: center; margin-top: -40px;""><img src=""images/pattern_5.png"" style=""width: 234px; height: 230px; margin-top: -50px;""><div style=""display: flex; justify-content: space-between; margin-top: 33px;""><img src=""images/choice_trial_2.png"" style=""width: 408px; height: 417px; margin-right: 200px;""><img src=""images/choice_trial_11.png"" style=""width: 408px; height: 417px;""></div></div>",j,delaylearn,learning,trial,vrI6NxBw9pa5JWYYpNSPADUdALf1,vrI6NxBw9pa5JWYYpNSPADUdALf1,3.0,images/choice_trial_2.png,images/choice_trial_11.png,images/pattern_5.png,j,j,750.0,2.0,11.0,4.0,1.0,40.0,1.0,1.0,11.0,220.0,,,,,,65b5a5aa458275b5740acee4,10:09:13,27/02/2024
html-keyboard-response,222,438985,0.0-92.0-1.0,,"<div style=""display: flex; flex-direction: column; align-items: center; margin-top: -40px;""><img src=""images/pattern_5.png"" style=""width: 234px; height: 230px; margin-top: -50px;""><div style=""display: flex; justify-content: space-between; margin-top: 33px;""><img src=""images/choice_trial_11.png"" style=""width: 408px; height: 417px; margin-left:608px;""></div></div>",,delaylearn,learning,display_response,vrI6NxBw9pa5JWYYpNSPADUdALf1,vrI6NxBw9pa5JWYYpNSPADUdALf1,,,,,,,,,,,,,,,,,chosen stimuli: images/choice_trial_11.png,,,,,65b5a5aa458275b5740acee4,10:09:13,27/02/2024
html-keyboard-response,223,439746,0.0-92.0-2.0,,,,delaylearn,learning,feedback_duration_window,vrI6NxBw9pa5JWYYpNSPADUdALf1,vrI6NxBw9pa5JWYYpNSPADUdALf1,,,,,,,,,,,,,,,,,,750.0,,,,65b5a5aa458275b5740acee4,10:09:13,27/02/2024
html-keyboard-response,224,441261,0.0-92.0-3.0,,<div style='margin:auto;width: auto; font-size: 150%'><span style='font-weight: bold; font-size: 100px; color: green;'>+10 points!</span><br><br></div>,,delaylearn,learning,feedback_image_window,vrI6NxBw9pa5JWYYpNSPADUdALf1,vrI6NxBw9pa5JWYYpNSPADUdALf1,,,,,,,,,,,,,,,,,,,,,,65b5a5aa458275b5740acee4,10:09:13,27/02/2024
html-keyboard-response,225,441777,0.0-93.0-0.0,,,,,,mood_trial_fixation,vrI6NxBw9pa5JWYYpNSPADUdALf1,,,,,,,,,,,,,,,,,,,,,,,65b5a5aa458275b5740acee4,10:09:13,27/02/2024
lmdlab-html-vas-response,226,444618,0.0-93.0-1.0,1826.0,How happy are you right now?,0.9791666666666666,delaylearn,learning,mood_trial,vrI6NxBw9pa5JWYYpNSPADUdALf1,vrI6NxBw9pa5JWYYpNSPADUdALf1,,,,,,,,,,,,,,,,,,,,"['Very unhappy', 'Very happy']",,65b5a5aa458275b5740acee4,10:09:13,27/02/2024
html-keyboard-response,227,447030,0.0-94.0,,"<div style=""font-size:100px;"">+</div>",,delaylearn,learning,ITI,vrI6NxBw9pa5JWYYpNSPADUdALf1,vrI6NxBw9pa5JWYYpNSPADUdALf1,,,,,,,,,,,,,,,,,,,2401.0,,,65b5a5aa458275b5740acee4,10:09:13,27/02/2024
html-keyboard-response,228,448403,0.0-95.0-0.0,1370.0,"<div style=""display: flex; flex-direction: column; align-items: center; margin-top: -40px;""><img src=""images/pattern_4.png"" style=""width: 234px; height: 230px; margin-top: -50px;""><div style=""display: flex; justify-content: space-between; margin-top: 33px;""><img src=""images/choice_trial_15.png"" style=""width: 408px; height: 417px; margin-right: 200px;""><img src=""images/choice_trial_9.png"" style=""width: 408px; height: 417px;""></div></div>",f,delaylearn,learning,trial,vrI6NxBw9pa5JWYYpNSPADUdALf1,vrI6NxBw9pa5JWYYpNSPADUdALf1,3.0,images/choice_trial_15.png,images/choice_trial_9.png,images/pattern_4.png,f,f,7000.0,15.0,9.0,3.0,0.0,41.0,1.0,1.0,15.0,230.0,,,,,,65b5a5aa458275b5740acee4,10:09:13,27/02/2024
html-keyboard-response,229,449408,0.0-95.0-1.0,,"<div style=""display: flex; flex-direction: column; align-items: center; margin-top: -40px;""><img src=""images/pattern_4.png"" style=""width: 234px; height: 230px; margin-top: -50px;""><div style=""display: flex; justify-content: space-between; margin-top: 33px;""><img src=""images/choice_trial_15.png"" style=""width: 408px; height: 417px; margin-right: 608px;""></div></div>",,delaylearn,learning,display_response,vrI6NxBw9pa5JWYYpNSPADUdALf1,vrI6NxBw9pa5JWYYpNSPADUdALf1,,,,,,,,,,,,,,,,,chosen stimuli: images/choice_trial_15.png,,,,,65b5a5aa458275b5740acee4,10:09:13,27/02/2024
html-keyboard-response,230,456425,0.0-95.0-2.0,,,,delaylearn,learning,feedback_duration_window,vrI6NxBw9pa5JWYYpNSPADUdALf1,vrI6NxBw9pa5JWYYpNSPADUdALf1,,,,,,,,,,,,,,,,,,7000.0,,,,65b5a5aa458275b5740acee4,10:09:13,27/02/2024
html-keyboard-response,231,457942,0.0-95.0-3.0,,<div style='margin:auto;width: auto; font-size: 150%'><span style='font-weight: bold; font-size: 100px; color: green;'>+10 points!</span><br><br></div>,,delaylearn,learning,feedback_image_window,vrI6NxBw9pa5JWYYpNSPADUdALf1,vrI6NxBw9pa5JWYYpNSPADUdALf1,,,,,,,,,,,,,,,,,,,,,,65b5a5aa458275b5740acee4,10:09:13,27/02/2024
html-keyboard-response,232,460368,0.0-96.0,,"<div style=""font-size:100px;"">+</div>",,delaylearn,learning,ITI,vrI6NxBw9pa5JWYYpNSPADUdALf1,vrI6NxBw9pa5JWYYpNSPADUdALf1,,,,,,,,,,,,,,,,,,,2417.0,,,65b5a5aa458275b5740acee4,10:09:13,27/02/2024
html-keyboard-response,233,462034,0.0-97.0-0.0,1663.0,"<div style=""display: flex; flex-direction: column; align-items: center; margin-top: -40px;""><img src=""images/pattern_6.png"" style=""width: 234px; height: 230px; margin-top: -50px;""><div style=""display: flex; justify-content: space-between; margin-top: 33px;""><img src=""images/choice_trial_3.png"" style=""width: 408px; height: 417px; margin-right: 200px;""><img src=""images/choice_trial_16.png"" style=""width: 408px; height: 417px;""></div></div>",j,delaylearn,learning,trial,vrI6NxBw9pa5JWYYpNSPADUdALf1,vrI6NxBw9pa5JWYYpNSPADUdALf1,3.0,images/choice_trial_3.png,images/choice_trial_16.png,images/pattern_6.png,j,j,750.0,3.0,16.0,5.0,1.0,42.0,1.0,1.0,16.0,240.0,,,,,,65b5a5aa458275b5740acee4,10:09:13,27/02/2024
