trial_type,trial_index,time_elapsed,internal_node_id,rt,stimulus,response,exp_name,exp_stage,test_part,subjectID,databaseID,counterbal,choice_stimuli_1,choice_stimuli_2,pattern_stimuli,rewarded_answer,correct_answer,feedback_duration_times,stim_left,stim_right,pair,leftright_counter,trial,response_correct,response_rewarded,chosen_stim,counter,displayed_choice,feedback_durations,ITI_duration,labels,rest_warning,prolificID,start_time,date
pavlovia,0,614,0.0-0.0,,,,,,,ILBtzczBgGVxysopdHEcBLZbusk2,,,,,,,,,,,,,,,,,,,,,,,63e4bb5f5db4ae5ba8d51578,16:54:40,27/03/2024
html-keyboard-response,1,3617,0.0-1.0,,"<div style=""font-size:100px;"">+</div>",,delaylearn,learning,pre_fixation,ILBtzczBgGVxysopdHEcBLZbusk2,,,,,,,,,,,,,,,,,,,,,,,63e4bb5f5db4ae5ba8d51578,16:54:40,27/03/2024
html-keyboard-response,2,4249,0.0-2.0-0.0,629.1000001430511,"<div style=""display: flex; flex-direction: column; align-items: center; margin-top: -40px;""><img src=""images/demo_images/pattern_1.png"" style=""width: 234px; height: 230px; margin-top: -50px;""><div style=""display: flex; justify-content: space-between; margin-top: 33px;""><img src=""images/demo_images/choice_trial_2.png"" style=""width: 408px; height: 417px; margin-right: 200px;""><img src=""images/demo_images/choice_trial_1.png"" style=""width: 408px; height: 417px;""></div></div>",f,delaylearn,learning,trial,ILBtzczBgGVxysopdHEcBLZbusk2,ILBtzczBgGVxysopdHEcBLZbusk2,2.0,images/demo_images/choice_trial_2.png,images/demo_images/choice_trial_1.png,images/demo_images/pattern_1.png,j,j,3000.0,2.0,1.0,20.0,1.0,1.0,0.0,0.0,2.0,0.0,,,,,,63e4bb5f5db4ae5ba8d51578,16:54:40,27/03/2024
html-keyboard-response,3,5263,0.0-2.0-1.0,,"<div style=""display: flex; flex-direction: column; align-items: center; margin-top: -40px;""><img src=""images/demo_images/pattern_1.png"" style=""width: 234px; height: 230px; margin-top: -50px;""><div style=""display: flex; justify-content: space-between; margin-top: 33px;""><img src=""images/demo_images/choice_trial_2.png"" style=""width: 408px; height: 417px; margin-right: 608px;""></div></div>",,delaylearn,learning,display_response,ILBtzczBgGVxysopdHEcBLZbusk2,ILBtzczBgGVxysopdHEcBLZbusk2,,,,,,,,,,,,,,,,,chosen stimuli: images/demo_images/choice_trial_2.png,,,,,63e4bb5f5db4ae5ba8d51578,16:54:40,27/03/2024
html-keyboard-response,4,8266,0.0-2.0-2.0,,,,delaylearn,learning,feedback_duration_window,ILBtzczBgGVxysopdHEcBLZbusk2,ILBtzczBgGVxysopdHEcBLZbusk2,,,,,,,,,,,,,,,,,,3000.0,,,,63e4bb5f5db4ae5ba8d51578,16:54:40,27/03/2024
html-keyboard-response,5,9781,0.0-2.0-3.0,,<div style='margin:auto;width: auto; font-size: 150%'><span style='font-weight: bold; font-size: 100px; color: red;'>0 points!</span><br><br></div>,,delaylearn,learning,feedback_image_window,ILBtzczBgGVxysopdHEcBLZbusk2,ILBtzczBgGVxysopdHEcBLZbusk2,,,,,,,,,,,,,,,,,,,,,,63e4bb5f5db4ae5ba8d51578,16:54:40,27/03/2024
html-keyboard-response,6,11891,0.0-3.0,,"<div style=""font-size:100px;"">+</div>",,delaylearn,learning,ITI,ILBtzczBgGVxysopdHEcBLZbusk2,ILBtzczBgGVxysopdHEcBLZbusk2,,,,,,,,,,,,,,,,,,,2103.0,,,63e4bb5f5db4ae5ba8d51578,16:54:40,27/03/2024
html-keyboard-response,7,12929,0.0-4.0-0.0,1035.6999998092651,"<div style=""display: flex; flex-direction: column; align-items: center; margin-top: -40px;""><img src=""images/demo_images/pattern_1.png"" style=""width: 234px; height: 230px; margin-top: -50px;""><div style=""display: flex; justify-content: space-between; margin-top: 33px;""><img src=""images/demo_images/choice_trial_2.png"" style=""width: 408px; height: 417px; margin-right: 200px;""><img src=""images/demo_images/choice_trial_1.png"" style=""width: 408px; height: 417px;""></div></div>",j,delaylearn,learning,trial,ILBtzczBgGVxysopdHEcBLZbusk2,ILBtzczBgGVxysopdHEcBLZbusk2,2.0,images/demo_images/choice_trial_2.png,images/demo_images/choice_trial_1.png,images/demo_images/pattern_1.png,j,j,3000.0,2.0,1.0,20.0,1.0,2.0,1.0,1.0,1.0,10.0,,,,,,63e4bb5f5db4ae5ba8d51578,16:54:40,27/03/2024
html-keyboard-response,8,13947,0.0-4.0-1.0,,"<div style=""display: flex; flex-direction: column; align-items: center; margin-top: -40px;""><img src=""images/demo_images/pattern_1.png"" style=""width: 234px; height: 230px; margin-top: -50px;""><div style=""display: flex; justify-content: space-between; margin-top: 33px;""><img src=""images/demo_images/choice_trial_1.png"" style=""width: 408px; height: 417px; margin-left:608px;""></div></div>",,delaylearn,learning,display_response,ILBtzczBgGVxysopdHEcBLZbusk2,ILBtzczBgGVxysopdHEcBLZbusk2,,,,,,,,,,,,,,,,,chosen stimuli: images/demo_images/choice_trial_1.png,,,,,63e4bb5f5db4ae5ba8d51578,16:54:40,27/03/2024
html-keyboard-response,9,16963,0.0-4.0-2.0,,,,delaylearn,learning,feedback_duration_window,ILBtzczBgGVxysopdHEcBLZbusk2,ILBtzczBgGVxysopdHEcBLZbusk2,,,,,,,,,,,,,,,,,,3000.0,,,,63e4bb5f5db4ae5ba8d51578,16:54:40,27/03/2024
html-keyboard-response,10,18479,0.0-4.0-3.0,,<div style='margin:auto;width: auto; font-size: 150%'><span style='font-weight: bold; font-size: 100px; color: green;'>+10 points!</span><br><br></div>,,delaylearn,learning,feedback_image_window,ILBtzczBgGVxysopdHEcBLZbusk2,ILBtzczBgGVxysopdHEcBLZbusk2,,,,,,,,,,,,,,,,,,,,,,63e4bb5f5db4ae5ba8d51578,16:54:40,27/03/2024
html-keyboard-response,11,20777,0.0-5.0,,"<div style=""font-size:100px;"">+</div>",,delaylearn,learning,ITI,ILBtzczBgGVxysopdHEcBLZbusk2,ILBtzczBgGVxysopdHEcBLZbusk2,,,,,,,,,,,,,,,,,,,2297.0,,,63e4bb5f5db4ae5ba8d51578,16:54:40,27/03/2024
html-keyboard-response,12,21904,0.0-6.0-0.0,1125.1000001430511,"<div style=""display: flex; flex-direction: column; align-items: center; margin-top: -40px;""><img src=""images/demo_images/pattern_1.png"" style=""width: 234px; height: 230px; margin-top: -50px;""><div style=""display: flex; justify-content: space-between; margin-top: 33px;""><img src=""images/demo_images/choice_trial_1.png"" style=""width: 408px; height: 417px; margin-right: 200px;""><img src=""images/demo_images/choice_trial_2.png"" style=""width: 408px; height: 417px;""></div></div>",j,delaylearn,learning,trial,ILBtzczBgGVxysopdHEcBLZbusk2,ILBtzczBgGVxysopdHEcBLZbusk2,2.0,images/demo_images/choice_trial_1.png,images/demo_images/choice_trial_2.png,images/demo_images/pattern_1.png,j,f,3000.0,1.0,2.0,20.0,0.0,3.0,0.0,1.0,2.0,20.0,,,,,,63e4bb5f5db4ae5ba8d51578,16:54:40,27/03/2024
html-keyboard-response,13,22913,0.0-6.0-1.0,,"<div style=""display: flex; flex-direction: column; align-items: center; margin-top: -40px;""><img src=""images/demo_images/pattern_1.png"" style=""width: 234px; height: 230px; margin-top: -50px;""><div style=""display: flex; justify-content: space-between; margin-top: 33px;""><img src=""images/demo_images/choice_trial_2.png"" style=""width: 408px; height: 417px; margin-left:608px;""></div></div>",,delaylearn,learning,display_response,ILBtzczBgGVxysopdHEcBLZbusk2,ILBtzczBgGVxysopdHEcBLZbusk2,,,,,,,,,,,,,,,,,chosen stimuli: images/demo_images/choice_trial_2.png,,,,,63e4bb5f5db4ae5ba8d51578,16:54:40,27/03/2024
html-keyboard-response,14,25915,0.0-6.0-2.0,,,,delaylearn,learning,feedback_duration_window,ILBtzczBgGVxysopdHEcBLZbusk2,ILBtzczBgGVxysopdHEcBLZbusk2,,,,,,,,,,,,,,,,,,3000.0,,,,63e4bb5f5db4ae5ba8d51578,16:54:40,27/03/2024
html-keyboard-response,15,27430,0.0-6.0-3.0,,<div style='margin:auto;width: auto; font-size: 150%'><span style='font-weight: bold; font-size: 100px; color: green;'>+10 points!</span><br><br></div>,,delaylearn,learning,feedback_image_window,ILBtzczBgGVxysopdHEcBLZbusk2,ILBtzczBgGVxysopdHEcBLZbusk2,,,,,,,,,,,,,,,,,,,,,,63e4bb5f5db4ae5ba8d51578,16:54:40,27/03/2024
html-keyboard-response,16,29338,0.0-7.0,,"<div style=""font-size:100px;"">+</div>",,delaylearn,learning,ITI,ILBtzczBgGVxysopdHEcBLZbusk2,ILBtzczBgGVxysopdHEcBLZbusk2,,,,,,,,,,,,,,,,,,,1895.0,,,63e4bb5f5db4ae5ba8d51578,16:54:40,27/03/2024
html-keyboard-response,17,31094,0.0-8.0-0.0,1755.1000001430511,"<div style=""display: flex; flex-direction: column; align-items: center; margin-top: -40px;""><img src=""images/demo_images/pattern_1.png"" style=""width: 234px; height: 230px; margin-top: -50px;""><div style=""display: flex; justify-content: space-between; margin-top: 33px;""><img src=""images/demo_images/choice_trial_1.png"" style=""width: 408px; height: 417px; margin-right: 200px;""><img src=""images/demo_images/choice_trial_2.png"" style=""width: 408px; height: 417px;""></div></div>",f,delaylearn,learning,trial,ILBtzczBgGVxysopdHEcBLZbusk2,ILBtzczBgGVxysopdHEcBLZbusk2,2.0,images/demo_images/choice_trial_1.png,images/demo_images/choice_trial_2.png,images/demo_images/pattern_1.png,f,f,3000.0,1.0,2.0,20.0,0.0,4.0,1.0,1.0,1.0,30.0,,,,,,63e4bb5f5db4ae5ba8d51578,16:54:40,27/03/2024
html-keyboard-response,18,32099,0.0-8.0-1.0,,"<div style=""display: flex; flex-direction: column; align-items: center; margin-top: -40px;""><img src=""images/demo_images/pattern_1.png"" style=""width: 234px; height: 230px; margin-top: -50px;""><div style=""display: flex; justify-content: space-between; margin-top: 33px;""><img src=""images/demo_images/choice_trial_1.png"" style=""width: 408px; height: 417px; margin-right: 608px;""></div></div>",,delaylearn,learning,display_response,ILBtzczBgGVxysopdHEcBLZbusk2,ILBtzczBgGVxysopdHEcBLZbusk2,,,,,,,,,,,,,,,,,chosen stimuli: images/demo_images/choice_trial_1.png,,,,,63e4bb5f5db4ae5ba8d51578,16:54:40,27/03/2024
html-keyboard-response,19,35114,0.0-8.0-2.0,,,,delaylearn,learning,feedback_duration_window,ILBtzczBgGVxysopdHEcBLZbusk2,ILBtzczBgGVxysopdHEcBLZbusk2,,,,,,,,,,,,,,,,,,3000.0,,,,63e4bb5f5db4ae5ba8d51578,16:54:40,27/03/2024
html-keyboard-response,20,36630,0.0-8.0-3.0,,<div style='margin:auto;width: auto; font-size: 150%'><span style='font-weight: bold; font-size: 100px; color: green;'>+10 points!</span><br><br></div>,,delaylearn,learning,feedback_image_window,ILBtzczBgGVxysopdHEcBLZbusk2,ILBtzczBgGVxysopdHEcBLZbusk2,,,,,,,,,,,,,,,,,,,,,,63e4bb5f5db4ae5ba8d51578,16:54:40,27/03/2024
html-keyboard-response,21,37146,0.0-9.0-0.0,,,,,,mood_trial_fixation,ILBtzczBgGVxysopdHEcBLZbusk2,,,,,,,,,,,,,,,,,,,,,,,63e4bb5f5db4ae5ba8d51578,16:54:40,27/03/2024
lmdlab-html-vas-response,22,42851,0.0-9.0-1.0,4680.0,How happy are you right now?,0.9814814814814815,delaylearn,learning,mood_trial,ILBtzczBgGVxysopdHEcBLZbusk2,ILBtzczBgGVxysopdHEcBLZbusk2,,,,,,,,,,,,,,,,,,,,"['Very unhappy', 'Very happy']",,63e4bb5f5db4ae5ba8d51578,16:54:40,27/03/2024
html-keyboard-response,23,44713,0.0-10.0,,"<div style=""font-size:100px;"">+</div>",,delaylearn,learning,ITI,ILBtzczBgGVxysopdHEcBLZbusk2,ILBtzczBgGVxysopdHEcBLZbusk2,,,,,,,,,,,,,,,,,,,1847.0,,,63e4bb5f5db4ae5ba8d51578,16:54:40,27/03/2024
html-keyboard-response,24,46477,0.0-11.0-0.0,1762.5,"<div style=""display: flex; flex-direction: column; align-items: center; margin-top: -40px;""><img src=""images/demo_images/pattern_1.png"" style=""width: 234px; height: 230px; margin-top: -50px;""><div style=""display: flex; justify-content: space-between; margin-top: 33px;""><img src=""images/demo_images/choice_trial_2.png"" style=""width: 408px; height: 417px; margin-right: 200px;""><img src=""images/demo_images/choice_trial_1.png"" style=""width: 408px; height: 417px;""></div></div>",f,delaylearn,learning,trial,ILBtzczBgGVxysopdHEcBLZbusk2,ILBtzczBgGVxysopdHEcBLZbusk2,2.0,images/demo_images/choice_trial_2.png,images/demo_images/choice_trial_1.png,images/demo_images/pattern_1.png,j,j,3000.0,2.0,1.0,20.0,1.0,5.0,0.0,0.0,2.0,30.0,,,,,,63e4bb5f5db4ae5ba8d51578,16:54:40,27/03/2024
html-keyboard-response,25,47482,0.0-11.0-1.0,,"<div style=""display: flex; flex-direction: column; align-items: center; margin-top: -40px;""><img src=""images/demo_images/pattern_1.png"" style=""width: 234px; height: 230px; margin-top: -50px;""><div style=""display: flex; justify-content: space-between; margin-top: 33px;""><img src=""images/demo_images/choice_trial_2.png"" style=""width: 408px; height: 417px; margin-right: 608px;""></div></div>",,delaylearn,learning,display_response,ILBtzczBgGVxysopdHEcBLZbusk2,ILBtzczBgGVxysopdHEcBLZbusk2,,,,,,,,,,,,,,,,,chosen stimuli: images/demo_images/choice_trial_2.png,,,,,63e4bb5f5db4ae5ba8d51578,16:54:40,27/03/2024
html-keyboard-response,26,50498,0.0-11.0-2.0,,,,delaylearn,learning,feedback_duration_window,ILBtzczBgGVxysopdHEcBLZbusk2,ILBtzczBgGVxysopdHEcBLZbusk2,,,,,,,,,,,,,,,,,,3000.0,,,,63e4bb5f5db4ae5ba8d51578,16:54:40,27/03/2024
html-keyboard-response,27,52014,0.0-11.0-3.0,,<div style='margin:auto;width: auto; font-size: 150%'><span style='font-weight: bold; font-size: 100px; color: red;'>0 points!</span><br><br></div>,,delaylearn,learning,feedback_image_window,ILBtzczBgGVxysopdHEcBLZbusk2,ILBtzczBgGVxysopdHEcBLZbusk2,,,,,,,,,,,,,,,,,,,,,,63e4bb5f5db4ae5ba8d51578,16:54:40,27/03/2024
html-keyboard-response,28,53579,0.0-12.0,,"<div style=""font-size:100px;"">+</div>",,delaylearn,learning,ITI,ILBtzczBgGVxysopdHEcBLZbusk2,ILBtzczBgGVxysopdHEcBLZbusk2,,,,,,,,,,,,,,,,,,,1550.0,,,63e4bb5f5db4ae5ba8d51578,16:54:40,27/03/2024
html-keyboard-response,29,55098,0.0-13.0-0.0,1516.5,"<div style=""display: flex; flex-direction: column; align-items: center; margin-top: -40px;""><img src=""images/demo_images/pattern_1.png"" style=""width: 234px; height: 230px; margin-top: -50px;""><div style=""display: flex; justify-content: space-between; margin-top: 33px;""><img src=""images/demo_images/choice_trial_1.png"" style=""width: 408px; height: 417px; margin-right: 200px;""><img src=""images/demo_images/choice_trial_2.png"" style=""width: 408px; height: 417px;""></div></div>",j,delaylearn,learning,trial,ILBtzczBgGVxysopdHEcBLZbusk2,ILBtzczBgGVxysopdHEcBLZbusk2,2.0,images/demo_images/choice_trial_1.png,images/demo_images/choice_trial_2.png,images/demo_images/pattern_1.png,f,f,3000.0,1.0,2.0,20.0,0.0,6.0,0.0,0.0,2.0,30.0,,,,,,63e4bb5f5db4ae5ba8d51578,16:54:40,27/03/2024
html-keyboard-response,30,56114,0.0-13.0-1.0,,"<div style=""display: flex; flex-direction: column; align-items: center; margin-top: -40px;""><img src=""images/demo_images/pattern_1.png"" style=""width: 234px; height: 230px; margin-top: -50px;""><div style=""display: flex; justify-content: space-between; margin-top: 33px;""><img src=""images/demo_images/choice_trial_2.png"" style=""width: 408px; height: 417px; margin-left:608px;""></div></div>",,delaylearn,learning,display_response,ILBtzczBgGVxysopdHEcBLZbusk2,ILBtzczBgGVxysopdHEcBLZbusk2,,,,,,,,,,,,,,,,,chosen stimuli: images/demo_images/choice_trial_2.png,,,,,63e4bb5f5db4ae5ba8d51578,16:54:40,27/03/2024
html-keyboard-response,31,59115,0.0-13.0-2.0,,,,delaylearn,learning,feedback_duration_window,ILBtzczBgGVxysopdHEcBLZbusk2,ILBtzczBgGVxysopdHEcBLZbusk2,,,,,,,,,,,,,,,,,,3000.0,,,,63e4bb5f5db4ae5ba8d51578,16:54:40,27/03/2024
html-keyboard-response,32,60630,0.0-13.0-3.0,,<div style='margin:auto;width: auto; font-size: 150%'><span style='font-weight: bold; font-size: 100px; color: red;'>0 points!</span><br><br></div>,,delaylearn,learning,feedback_image_window,ILBtzczBgGVxysopdHEcBLZbusk2,ILBtzczBgGVxysopdHEcBLZbusk2,,,,,,,,,,,,,,,,,,,,,,63e4bb5f5db4ae5ba8d51578,16:54:40,27/03/2024
html-keyboard-response,33,62211,0.0-14.0,,"<div style=""font-size:100px;"">+</div>",,delaylearn,learning,ITI,ILBtzczBgGVxysopdHEcBLZbusk2,ILBtzczBgGVxysopdHEcBLZbusk2,,,,,,,,,,,,,,,,,,,1568.0,,,63e4bb5f5db4ae5ba8d51578,16:54:40,27/03/2024
html-keyboard-response,34,63904,0.0-15.0-0.0,1690.5999999046326,"<div style=""display: flex; flex-direction: column; align-items: center; margin-top: -40px;""><img src=""images/demo_images/pattern_1.png"" style=""width: 234px; height: 230px; margin-top: -50px;""><div style=""display: flex; justify-content: space-between; margin-top: 33px;""><img src=""images/demo_images/choice_trial_2.png"" style=""width: 408px; height: 417px; margin-right: 200px;""><img src=""images/demo_images/choice_trial_1.png"" style=""width: 408px; height: 417px;""></div></div>",f,delaylearn,learning,trial,ILBtzczBgGVxysopdHEcBLZbusk2,ILBtzczBgGVxysopdHEcBLZbusk2,2.0,images/demo_images/choice_trial_2.png,images/demo_images/choice_trial_1.png,images/demo_images/pattern_1.png,j,j,3000.0,2.0,1.0,20.0,1.0,7.0,0.0,0.0,2.0,30.0,,,,,,63e4bb5f5db4ae5ba8d51578,16:54:40,27/03/2024
html-keyboard-response,35,64913,0.0-15.0-1.0,,"<div style=""display: flex; flex-direction: column; align-items: center; margin-top: -40px;""><img src=""images/demo_images/pattern_1.png"" style=""width: 234px; height: 230px; margin-top: -50px;""><div style=""display: flex; justify-content: space-between; margin-top: 33px;""><img src=""images/demo_images/choice_trial_2.png"" style=""width: 408px; height: 417px; margin-right: 608px;""></div></div>",,delaylearn,learning,display_response,ILBtzczBgGVxysopdHEcBLZbusk2,ILBtzczBgGVxysopdHEcBLZbusk2,,,,,,,,,,,,,,,,,chosen stimuli: images/demo_images/choice_trial_2.png,,,,,63e4bb5f5db4ae5ba8d51578,16:54:40,27/03/2024
html-keyboard-response,36,67917,0.0-15.0-2.0,,,,delaylearn,learning,feedback_duration_window,ILBtzczBgGVxysopdHEcBLZbusk2,ILBtzczBgGVxysopdHEcBLZbusk2,,,,,,,,,,,,,,,,,,3000.0,,,,63e4bb5f5db4ae5ba8d51578,16:54:40,27/03/2024
html-keyboard-response,37,69429,0.0-15.0-3.0,,<div style='margin:auto;width: auto; font-size: 150%'><span style='font-weight: bold; font-size: 100px; color: red;'>0 points!</span><br><br></div>,,delaylearn,learning,feedback_image_window,ILBtzczBgGVxysopdHEcBLZbusk2,ILBtzczBgGVxysopdHEcBLZbusk2,,,,,,,,,,,,,,,,,,,,,,63e4bb5f5db4ae5ba8d51578,16:54:40,27/03/2024
html-keyboard-response,38,71339,0.0-16.0,,"<div style=""font-size:100px;"">+</div>",,delaylearn,learning,ITI,ILBtzczBgGVxysopdHEcBLZbusk2,ILBtzczBgGVxysopdHEcBLZbusk2,,,,,,,,,,,,,,,,,,,1898.0,,,63e4bb5f5db4ae5ba8d51578,16:54:40,27/03/2024
html-keyboard-response,39,72176,0.0-17.0-0.0,835.7999999523163,"<div style=""display: flex; flex-direction: column; align-items: center; margin-top: -40px;""><img src=""images/demo_images/pattern_1.png"" style=""width: 234px; height: 230px; margin-top: -50px;""><div style=""display: flex; justify-content: space-between; margin-top: 33px;""><img src=""images/demo_images/choice_trial_1.png"" style=""width: 408px; height: 417px; margin-right: 200px;""><img src=""images/demo_images/choice_trial_2.png"" style=""width: 408px; height: 417px;""></div></div>",j,delaylearn,learning,trial,ILBtzczBgGVxysopdHEcBLZbusk2,ILBtzczBgGVxysopdHEcBLZbusk2,2.0,images/demo_images/choice_trial_1.png,images/demo_images/choice_trial_2.png,images/demo_images/pattern_1.png,f,f,3000.0,1.0,2.0,20.0,0.0,8.0,0.0,0.0,2.0,30.0,,,,,,63e4bb5f5db4ae5ba8d51578,16:54:40,27/03/2024
html-keyboard-response,40,73183,0.0-17.0-1.0,,"<div style=""display: flex; flex-direction: column; align-items: center; margin-top: -40px;""><img src=""images/demo_images/pattern_1.png"" style=""width: 234px; height: 230px; margin-top: -50px;""><div style=""display: flex; justify-content: space-between; margin-top: 33px;""><img src=""images/demo_images/choice_trial_2.png"" style=""width: 408px; height: 417px; margin-left:608px;""></div></div>",,delaylearn,learning,display_response,ILBtzczBgGVxysopdHEcBLZbusk2,ILBtzczBgGVxysopdHEcBLZbusk2,,,,,,,,,,,,,,,,,chosen stimuli: images/demo_images/choice_trial_2.png,,,,,63e4bb5f5db4ae5ba8d51578,16:54:40,27/03/2024
html-keyboard-response,41,76197,0.0-17.0-2.0,,,,delaylearn,learning,feedback_duration_window,ILBtzczBgGVxysopdHEcBLZbusk2,ILBtzczBgGVxysopdHEcBLZbusk2,,,,,,,,,,,,,,,,,,3000.0,,,,63e4bb5f5db4ae5ba8d51578,16:54:40,27/03/2024
html-keyboard-response,42,77712,0.0-17.0-3.0,,<div style='margin:auto;width: auto; font-size: 150%'><span style='font-weight: bold; font-size: 100px; color: red;'>0 points!</span><br><br></div>,,delaylearn,learning,feedback_image_window,ILBtzczBgGVxysopdHEcBLZbusk2,ILBtzczBgGVxysopdHEcBLZbusk2,,,,,,,,,,,,,,,,,,,,,,63e4bb5f5db4ae5ba8d51578,16:54:40,27/03/2024
html-button-response,43,80507,0.0-18.0,2793.4000000953674,"
  <div style=""display: flex; align-items: center; justify-content: center; height: 80vh;"">
  <div>
          <img src=""images/inst_demo_finish.png"" style=""width: 80vw; height:auto;"">
          <br><br>
      </div>
      <br><br>
  </div>",0,,,,ILBtzczBgGVxysopdHEcBLZbusk2,,,,,,,,,,,,,,,,,,,,,,,63e4bb5f5db4ae5ba8d51578,16:54:40,27/03/2024
html-keyboard-response,44,84184,0.0-19.0,3676.600000143051,"
  <div style=""display: flex; align-items: center; justify-content: center; height: 80vh;"">
  <div>
          <img src=""images/inst_6.png"" style=""width: 80vw; height:auto;"">
          <br><br>
      </div>
      <br><br>
  </div>",f,,,,ILBtzczBgGVxysopdHEcBLZbusk2,,,,,,,,,,,,,,,,,,,,,,,63e4bb5f5db4ae5ba8d51578,16:54:40,27/03/2024
html-keyboard-response,45,87197,0.0-20.0,,"<div style=""font-size:100px;"">+</div>",,delaylearn,learning,pre_fixation,ILBtzczBgGVxysopdHEcBLZbusk2,,,,,,,,,,,,,,,,,,,,,,,63e4bb5f5db4ae5ba8d51578,16:54:40,27/03/2024
html-keyboard-response,46,89590,0.0-21.0,,"<div style=""font-size:100px;"">+</div>",,delaylearn,learning,ITI,ILBtzczBgGVxysopdHEcBLZbusk2,ILBtzczBgGVxysopdHEcBLZbusk2,,,,,,,,,,,,,,,,,,,2382.0,,,63e4bb5f5db4ae5ba8d51578,16:54:40,27/03/2024
html-keyboard-response,47,91389,0.0-22.0-0.0,1796.8999998569489,"<div style=""display: flex; flex-direction: column; align-items: center; margin-top: -40px;""><img src=""images/pattern_3.png"" style=""width: 234px; height: 230px; margin-top: -50px;""><div style=""display: flex; justify-content: space-between; margin-top: 33px;""><img src=""images/choice_trial_12.png"" style=""width: 408px; height: 417px; margin-right: 200px;""><img src=""images/choice_trial_14.png"" style=""width: 408px; height: 417px;""></div></div>",j,delaylearn,learning,trial,ILBtzczBgGVxysopdHEcBLZbusk2,ILBtzczBgGVxysopdHEcBLZbusk2,2.0,images/choice_trial_12.png,images/choice_trial_14.png,images/pattern_3.png,f,f,7000.0,12.0,14.0,2.0,0.0,9.0,0.0,0.0,14.0,30.0,,,,,,63e4bb5f5db4ae5ba8d51578,16:54:40,27/03/2024
html-keyboard-response,48,92393,0.0-22.0-1.0,,"<div style=""display: flex; flex-direction: column; align-items: center; margin-top: -40px;""><img src=""images/pattern_3.png"" style=""width: 234px; height: 230px; margin-top: -50px;""><div style=""display: flex; justify-content: space-between; margin-top: 33px;""><img src=""images/choice_trial_14.png"" style=""width: 408px; height: 417px; margin-left:608px;""></div></div>",,delaylearn,learning,display_response,ILBtzczBgGVxysopdHEcBLZbusk2,ILBtzczBgGVxysopdHEcBLZbusk2,,,,,,,,,,,,,,,,,chosen stimuli: images/choice_trial_14.png,,,,,63e4bb5f5db4ae5ba8d51578,16:54:40,27/03/2024
html-keyboard-response,49,99401,0.0-22.0-2.0,,,,delaylearn,learning,feedback_duration_window,ILBtzczBgGVxysopdHEcBLZbusk2,ILBtzczBgGVxysopdHEcBLZbusk2,,,,,,,,,,,,,,,,,,7000.0,,,,63e4bb5f5db4ae5ba8d51578,16:54:40,27/03/2024
html-keyboard-response,50,100913,0.0-22.0-3.0,,<div style='margin:auto;width: auto; font-size: 150%'><span style='font-weight: bold; font-size: 100px; color: red;'>0 points!</span><br><br></div>,,delaylearn,learning,feedback_image_window,ILBtzczBgGVxysopdHEcBLZbusk2,ILBtzczBgGVxysopdHEcBLZbusk2,,,,,,,,,,,,,,,,,,,,,,63e4bb5f5db4ae5ba8d51578,16:54:40,27/03/2024
html-keyboard-response,51,102929,0.0-23.0,,"<div style=""font-size:100px;"">+</div>",,delaylearn,learning,ITI,ILBtzczBgGVxysopdHEcBLZbusk2,ILBtzczBgGVxysopdHEcBLZbusk2,,,,,,,,,,,,,,,,,,,2015.0,,,63e4bb5f5db4ae5ba8d51578,16:54:40,27/03/2024
html-keyboard-response,52,105575,0.0-24.0-0.0,2643.5,"<div style=""display: flex; flex-direction: column; align-items: center; margin-top: -40px;""><img src=""images/pattern_7.png"" style=""width: 234px; height: 230px; margin-top: -50px;""><div style=""display: flex; justify-content: space-between; margin-top: 33px;""><img src=""images/choice_trial_15.png"" style=""width: 408px; height: 417px; margin-right: 200px;""><img src=""images/choice_trial_8.png"" style=""width: 408px; height: 417px;""></div></div>",f,delaylearn,learning,trial,ILBtzczBgGVxysopdHEcBLZbusk2,ILBtzczBgGVxysopdHEcBLZbusk2,2.0,images/choice_trial_15.png,images/choice_trial_8.png,images/pattern_7.png,j,j,750.0,15.0,8.0,6.0,1.0,10.0,0.0,0.0,15.0,30.0,,,,,,63e4bb5f5db4ae5ba8d51578,16:54:40,27/03/2024
html-keyboard-response,53,106582,0.0-24.0-1.0,,"<div style=""display: flex; flex-direction: column; align-items: center; margin-top: -40px;""><img src=""images/pattern_7.png"" style=""width: 234px; height: 230px; margin-top: -50px;""><div style=""display: flex; justify-content: space-between; margin-top: 33px;""><img src=""images/choice_trial_15.png"" style=""width: 408px; height: 417px; margin-right: 608px;""></div></div>",,delaylearn,learning,display_response,ILBtzczBgGVxysopdHEcBLZbusk2,ILBtzczBgGVxysopdHEcBLZbusk2,,,,,,,,,,,,,,,,,chosen stimuli: images/choice_trial_15.png,,,,,63e4bb5f5db4ae5ba8d51578,16:54:40,27/03/2024
html-keyboard-response,54,107346,0.0-24.0-2.0,,,,delaylearn,learning,feedback_duration_window,ILBtzczBgGVxysopdHEcBLZbusk2,ILBtzczBgGVxysopdHEcBLZbusk2,,,,,,,,,,,,,,,,,,750.0,,,,63e4bb5f5db4ae5ba8d51578,16:54:40,27/03/2024
html-keyboard-response,55,108849,0.0-24.0-3.0,,<div style='margin:auto;width: auto; font-size: 150%'><span style='font-weight: bold; font-size: 100px; color: red;'>0 points!</span><br><br></div>,,delaylearn,learning,feedback_image_window,ILBtzczBgGVxysopdHEcBLZbusk2,ILBtzczBgGVxysopdHEcBLZbusk2,,,,,,,,,,,,,,,,,,,,,,63e4bb5f5db4ae5ba8d51578,16:54:40,27/03/2024
html-keyboard-response,56,111333,0.0-25.0,,"<div style=""font-size:100px;"">+</div>",,delaylearn,learning,ITI,ILBtzczBgGVxysopdHEcBLZbusk2,ILBtzczBgGVxysopdHEcBLZbusk2,,,,,,,,,,,,,,,,,,,2472.0,,,63e4bb5f5db4ae5ba8d51578,16:54:40,27/03/2024
html-keyboard-response,57,113456,0.0-26.0-0.0,2120.7999999523163,"<div style=""display: flex; flex-direction: column; align-items: center; margin-top: -40px;""><img src=""images/pattern_4.png"" style=""width: 234px; height: 230px; margin-top: -50px;""><div style=""display: flex; justify-content: space-between; margin-top: 33px;""><img src=""images/choice_trial_4.png"" style=""width: 408px; height: 417px; margin-right: 200px;""><img src=""images/choice_trial_16.png"" style=""width: 408px; height: 417px;""></div></div>",f,delaylearn,learning,trial,ILBtzczBgGVxysopdHEcBLZbusk2,ILBtzczBgGVxysopdHEcBLZbusk2,2.0,images/choice_trial_4.png,images/choice_trial_16.png,images/pattern_4.png,f,f,7000.0,4.0,16.0,3.0,0.0,11.0,1.0,1.0,4.0,40.0,,,,,,63e4bb5f5db4ae5ba8d51578,16:54:40,27/03/2024
html-keyboard-response,58,114464,0.0-26.0-1.0,,"<div style=""display: flex; flex-direction: column; align-items: center; margin-top: -40px;""><img src=""images/pattern_4.png"" style=""width: 234px; height: 230px; margin-top: -50px;""><div style=""display: flex; justify-content: space-between; margin-top: 33px;""><img src=""images/choice_trial_4.png"" style=""width: 408px; height: 417px; margin-right: 608px;""></div></div>",,delaylearn,learning,display_response,ILBtzczBgGVxysopdHEcBLZbusk2,ILBtzczBgGVxysopdHEcBLZbusk2,,,,,,,,,,,,,,,,,chosen stimuli: images/choice_trial_4.png,,,,,63e4bb5f5db4ae5ba8d51578,16:54:40,27/03/2024
html-keyboard-response,59,121467,0.0-26.0-2.0,,,,delaylearn,learning,feedback_duration_window,ILBtzczBgGVxysopdHEcBLZbusk2,ILBtzczBgGVxysopdHEcBLZbusk2,,,,,,,,,,,,,,,,,,7000.0,,,,63e4bb5f5db4ae5ba8d51578,16:54:40,27/03/2024
html-keyboard-response,60,122981,0.0-26.0-3.0,,<div style='margin:auto;width: auto; font-size: 150%'><span style='font-weight: bold; font-size: 100px; color: green;'>+10 points!</span><br><br></div>,,delaylearn,learning,feedback_image_window,ILBtzczBgGVxysopdHEcBLZbusk2,ILBtzczBgGVxysopdHEcBLZbusk2,,,,,,,,,,,,,,,,,,,,,,63e4bb5f5db4ae5ba8d51578,16:54:40,27/03/2024
html-keyboard-response,61,124654,0.0-27.0,,"<div style=""font-size:100px;"">+</div>",,delaylearn,learning,ITI,ILBtzczBgGVxysopdHEcBLZbusk2,ILBtzczBgGVxysopdHEcBLZbusk2,,,,,,,,,,,,,,,,,,,1671.0,,,63e4bb5f5db4ae5ba8d51578,16:54:40,27/03/2024
html-keyboard-response,62,126766,0.0-28.0-0.0,2109.5,"<div style=""display: flex; flex-direction: column; align-items: center; margin-top: -40px;""><img src=""images/pattern_5.png"" style=""width: 234px; height: 230px; margin-top: -50px;""><div style=""display: flex; justify-content: space-between; margin-top: 33px;""><img src=""images/choice_trial_9.png"" style=""width: 408px; height: 417px; margin-right: 200px;""><img src=""images/choice_trial_2.png"" style=""width: 408px; height: 417px;""></div></div>",j,delaylearn,learning,trial,ILBtzczBgGVxysopdHEcBLZbusk2,ILBtzczBgGVxysopdHEcBLZbusk2,2.0,images/choice_trial_9.png,images/choice_trial_2.png,images/pattern_5.png,j,j,750.0,9.0,2.0,4.0,1.0,12.0,1.0,1.0,2.0,50.0,,,,,,63e4bb5f5db4ae5ba8d51578,16:54:40,27/03/2024
html-keyboard-response,63,127780,0.0-28.0-1.0,,"<div style=""display: flex; flex-direction: column; align-items: center; margin-top: -40px;""><img src=""images/pattern_5.png"" style=""width: 234px; height: 230px; margin-top: -50px;""><div style=""display: flex; justify-content: space-between; margin-top: 33px;""><img src=""images/choice_trial_2.png"" style=""width: 408px; height: 417px; margin-left:608px;""></div></div>",,delaylearn,learning,display_response,ILBtzczBgGVxysopdHEcBLZbusk2,ILBtzczBgGVxysopdHEcBLZbusk2,,,,,,,,,,,,,,,,,chosen stimuli: images/choice_trial_2.png,,,,,63e4bb5f5db4ae5ba8d51578,16:54:40,27/03/2024
html-keyboard-response,64,128534,0.0-28.0-2.0,,,,delaylearn,learning,feedback_duration_window,ILBtzczBgGVxysopdHEcBLZbusk2,ILBtzczBgGVxysopdHEcBLZbusk2,,,,,,,,,,,,,,,,,,750.0,,,,63e4bb5f5db4ae5ba8d51578,16:54:40,27/03/2024
html-keyboard-response,65,130048,0.0-28.0-3.0,,<div style='margin:auto;width: auto; font-size: 150%'><span style='font-weight: bold; font-size: 100px; color: green;'>+10 points!</span><br><br></div>,,delaylearn,learning,feedback_image_window,ILBtzczBgGVxysopdHEcBLZbusk2,ILBtzczBgGVxysopdHEcBLZbusk2,,,,,,,,,,,,,,,,,,,,,,63e4bb5f5db4ae5ba8d51578,16:54:40,27/03/2024
html-keyboard-response,66,131738,0.0-29.0,,"<div style=""font-size:100px;"">+</div>",,delaylearn,learning,ITI,ILBtzczBgGVxysopdHEcBLZbusk2,ILBtzczBgGVxysopdHEcBLZbusk2,,,,,,,,,,,,,,,,,,,1682.0,,,63e4bb5f5db4ae5ba8d51578,16:54:40,27/03/2024
html-keyboard-response,67,133485,0.0-30.0-0.0,1745.7000000476837,"<div style=""display: flex; flex-direction: column; align-items: center; margin-top: -40px;""><img src=""images/pattern_6.png"" style=""width: 234px; height: 230px; margin-top: -50px;""><div style=""display: flex; justify-content: space-between; margin-top: 33px;""><img src=""images/choice_trial_11.png"" style=""width: 408px; height: 417px; margin-right: 200px;""><img src=""images/choice_trial_5.png"" style=""width: 408px; height: 417px;""></div></div>",j,delaylearn,learning,trial,ILBtzczBgGVxysopdHEcBLZbusk2,ILBtzczBgGVxysopdHEcBLZbusk2,2.0,images/choice_trial_11.png,images/choice_trial_5.png,images/pattern_6.png,j,f,750.0,11.0,5.0,5.0,0.0,13.0,0.0,1.0,5.0,60.0,,,,,,63e4bb5f5db4ae5ba8d51578,16:54:40,27/03/2024
html-keyboard-response,68,134497,0.0-30.0-1.0,,"<div style=""display: flex; flex-direction: column; align-items: center; margin-top: -40px;""><img src=""images/pattern_6.png"" style=""width: 234px; height: 230px; margin-top: -50px;""><div style=""display: flex; justify-content: space-between; margin-top: 33px;""><img src=""images/choice_trial_5.png"" style=""width: 408px; height: 417px; margin-left:608px;""></div></div>",,delaylearn,learning,display_response,ILBtzczBgGVxysopdHEcBLZbusk2,ILBtzczBgGVxysopdHEcBLZbusk2,,,,,,,,,,,,,,,,,chosen stimuli: images/choice_trial_5.png,,,,,63e4bb5f5db4ae5ba8d51578,16:54:40,27/03/2024
html-keyboard-response,69,135264,0.0-30.0-2.0,,,,delaylearn,learning,feedback_duration_window,ILBtzczBgGVxysopdHEcBLZbusk2,ILBtzczBgGVxysopdHEcBLZbusk2,,,,,,,,,,,,,,,,,,750.0,,,,63e4bb5f5db4ae5ba8d51578,16:54:40,27/03/2024
html-keyboard-response,70,136765,0.0-30.0-3.0,,<div style='margin:auto;width: auto; font-size: 150%'><span style='font-weight: bold; font-size: 100px; color: green;'>+10 points!</span><br><br></div>,,delaylearn,learning,feedback_image_window,ILBtzczBgGVxysopdHEcBLZbusk2,ILBtzczBgGVxysopdHEcBLZbusk2,,,,,,,,,,,,,,,,,,,,,,63e4bb5f5db4ae5ba8d51578,16:54:40,27/03/2024
html-keyboard-response,71,137280,0.0-31.0-0.0,,,,,,mood_trial_fixation,ILBtzczBgGVxysopdHEcBLZbusk2,,,,,,,,,,,,,,,,,,,,,,,63e4bb5f5db4ae5ba8d51578,16:54:40,27/03/2024
lmdlab-html-vas-response,72,141395,0.0-31.0-1.0,3097.0,How happy are you right now?,0.6388888888888888,delaylearn,learning,mood_trial,ILBtzczBgGVxysopdHEcBLZbusk2,ILBtzczBgGVxysopdHEcBLZbusk2,,,,,,,,,,,,,,,,,,,,"['Very unhappy', 'Very happy']",,63e4bb5f5db4ae5ba8d51578,16:54:40,27/03/2024
html-keyboard-response,73,143724,0.0-32.0,,"<div style=""font-size:100px;"">+</div>",,delaylearn,learning,ITI,ILBtzczBgGVxysopdHEcBLZbusk2,ILBtzczBgGVxysopdHEcBLZbusk2,,,,,,,,,,,,,,,,,,,2325.0,,,63e4bb5f5db4ae5ba8d51578,16:54:40,27/03/2024
html-keyboard-response,74,145163,0.0-33.0-0.0,1437.4000000953674,"<div style=""display: flex; flex-direction: column; align-items: center; margin-top: -40px;""><img src=""images/pattern_1.png"" style=""width: 234px; height: 230px; margin-top: -50px;""><div style=""display: flex; justify-content: space-between; margin-top: 33px;""><img src=""images/choice_trial_10.png"" style=""width: 408px; height: 417px; margin-right: 200px;""><img src=""images/choice_trial_3.png"" style=""width: 408px; height: 417px;""></div></div>",f,delaylearn,learning,trial,ILBtzczBgGVxysopdHEcBLZbusk2,ILBtzczBgGVxysopdHEcBLZbusk2,2.0,images/choice_trial_10.png,images/choice_trial_3.png,images/pattern_1.png,j,j,7000.0,10.0,3.0,1.0,1.0,14.0,0.0,0.0,10.0,60.0,,,,,,63e4bb5f5db4ae5ba8d51578,16:54:40,27/03/2024
html-keyboard-response,75,146179,0.0-33.0-1.0,,"<div style=""display: flex; flex-direction: column; align-items: center; margin-top: -40px;""><img src=""images/pattern_1.png"" style=""width: 234px; height: 230px; margin-top: -50px;""><div style=""display: flex; justify-content: space-between; margin-top: 33px;""><img src=""images/choice_trial_10.png"" style=""width: 408px; height: 417px; margin-right: 608px;""></div></div>",,delaylearn,learning,display_response,ILBtzczBgGVxysopdHEcBLZbusk2,ILBtzczBgGVxysopdHEcBLZbusk2,,,,,,,,,,,,,,,,,chosen stimuli: images/choice_trial_10.png,,,,,63e4bb5f5db4ae5ba8d51578,16:54:40,27/03/2024
html-keyboard-response,76,153182,0.0-33.0-2.0,,,,delaylearn,learning,feedback_duration_window,ILBtzczBgGVxysopdHEcBLZbusk2,ILBtzczBgGVxysopdHEcBLZbusk2,,,,,,,,,,,,,,,,,,7000.0,,,,63e4bb5f5db4ae5ba8d51578,16:54:40,27/03/2024
html-keyboard-response,77,154697,0.0-33.0-3.0,,<div style='margin:auto;width: auto; font-size: 150%'><span style='font-weight: bold; font-size: 100px; color: red;'>0 points!</span><br><br></div>,,delaylearn,learning,feedback_image_window,ILBtzczBgGVxysopdHEcBLZbusk2,ILBtzczBgGVxysopdHEcBLZbusk2,,,,,,,,,,,,,,,,,,,,,,63e4bb5f5db4ae5ba8d51578,16:54:40,27/03/2024
html-keyboard-response,78,156682,0.0-34.0,,"<div style=""font-size:100px;"">+</div>",,delaylearn,learning,ITI,ILBtzczBgGVxysopdHEcBLZbusk2,ILBtzczBgGVxysopdHEcBLZbusk2,,,,,,,,,,,,,,,,,,,1980.0,,,63e4bb5f5db4ae5ba8d51578,16:54:40,27/03/2024
html-keyboard-response,79,157146,0.0-35.0-0.0,461.40000009536743,"<div style=""display: flex; flex-direction: column; align-items: center; margin-top: -40px;""><img src=""images/pattern_3.png"" style=""width: 234px; height: 230px; margin-top: -50px;""><div style=""display: flex; justify-content: space-between; margin-top: 33px;""><img src=""images/choice_trial_14.png"" style=""width: 408px; height: 417px; margin-right: 200px;""><img src=""images/choice_trial_12.png"" style=""width: 408px; height: 417px;""></div></div>",f,delaylearn,learning,trial,ILBtzczBgGVxysopdHEcBLZbusk2,ILBtzczBgGVxysopdHEcBLZbusk2,2.0,images/choice_trial_14.png,images/choice_trial_12.png,images/pattern_3.png,f,j,7000.0,14.0,12.0,2.0,1.0,15.0,0.0,1.0,14.0,70.0,,,,,,63e4bb5f5db4ae5ba8d51578,16:54:40,27/03/2024
html-keyboard-response,80,158148,0.0-35.0-1.0,,"<div style=""display: flex; flex-direction: column; align-items: center; margin-top: -40px;""><img src=""images/pattern_3.png"" style=""width: 234px; height: 230px; margin-top: -50px;""><div style=""display: flex; justify-content: space-between; margin-top: 33px;""><img src=""images/choice_trial_14.png"" style=""width: 408px; height: 417px; margin-right: 608px;""></div></div>",,delaylearn,learning,display_response,ILBtzczBgGVxysopdHEcBLZbusk2,ILBtzczBgGVxysopdHEcBLZbusk2,,,,,,,,,,,,,,,,,chosen stimuli: images/choice_trial_14.png,,,,,63e4bb5f5db4ae5ba8d51578,16:54:40,27/03/2024
html-keyboard-response,81,165164,0.0-35.0-2.0,,,,delaylearn,learning,feedback_duration_window,ILBtzczBgGVxysopdHEcBLZbusk2,ILBtzczBgGVxysopdHEcBLZbusk2,,,,,,,,,,,,,,,,,,7000.0,,,,63e4bb5f5db4ae5ba8d51578,16:54:40,27/03/2024
html-keyboard-response,82,166680,0.0-35.0-3.0,,<div style='margin:auto;width: auto; font-size: 150%'><span style='font-weight: bold; font-size: 100px; color: green;'>+10 points!</span><br><br></div>,,delaylearn,learning,feedback_image_window,ILBtzczBgGVxysopdHEcBLZbusk2,ILBtzczBgGVxysopdHEcBLZbusk2,,,,,,,,,,,,,,,,,,,,,,63e4bb5f5db4ae5ba8d51578,16:54:40,27/03/2024
html-keyboard-response,83,168775,0.0-36.0,,"<div style=""font-size:100px;"">+</div>",,delaylearn,learning,ITI,ILBtzczBgGVxysopdHEcBLZbusk2,ILBtzczBgGVxysopdHEcBLZbusk2,,,,,,,,,,,,,,,,,,,2083.0,,,63e4bb5f5db4ae5ba8d51578,16:54:40,27/03/2024
html-keyboard-response,84,169617,0.0-37.0-0.0,842.0,"<div style=""display: flex; flex-direction: column; align-items: center; margin-top: -40px;""><img src=""images/pattern_5.png"" style=""width: 234px; height: 230px; margin-top: -50px;""><div style=""display: flex; justify-content: space-between; margin-top: 33px;""><img src=""images/choice_trial_2.png"" style=""width: 408px; height: 417px; margin-right: 200px;""><img src=""images/choice_trial_9.png"" style=""width: 408px; height: 417px;""></div></div>",j,delaylearn,learning,trial,ILBtzczBgGVxysopdHEcBLZbusk2,ILBtzczBgGVxysopdHEcBLZbusk2,2.0,images/choice_trial_2.png,images/choice_trial_9.png,images/pattern_5.png,f,f,750.0,2.0,9.0,4.0,0.0,16.0,0.0,0.0,9.0,70.0,,,,,,63e4bb5f5db4ae5ba8d51578,16:54:40,27/03/2024
html-keyboard-response,85,170628,0.0-37.0-1.0,,"<div style=""display: flex; flex-direction: column; align-items: center; margin-top: -40px;""><img src=""images/pattern_5.png"" style=""width: 234px; height: 230px; margin-top: -50px;""><div style=""display: flex; justify-content: space-between; margin-top: 33px;""><img src=""images/choice_trial_9.png"" style=""width: 408px; height: 417px; margin-left:608px;""></div></div>",,delaylearn,learning,display_response,ILBtzczBgGVxysopdHEcBLZbusk2,ILBtzczBgGVxysopdHEcBLZbusk2,,,,,,,,,,,,,,,,,chosen stimuli: images/choice_trial_9.png,,,,,63e4bb5f5db4ae5ba8d51578,16:54:40,27/03/2024
html-keyboard-response,86,171394,0.0-37.0-2.0,,,,delaylearn,learning,feedback_duration_window,ILBtzczBgGVxysopdHEcBLZbusk2,ILBtzczBgGVxysopdHEcBLZbusk2,,,,,,,,,,,,,,,,,,750.0,,,,63e4bb5f5db4ae5ba8d51578,16:54:40,27/03/2024
html-keyboard-response,87,172896,0.0-37.0-3.0,,<div style='margin:auto;width: auto; font-size: 150%'><span style='font-weight: bold; font-size: 100px; color: red;'>0 points!</span><br><br></div>,,delaylearn,learning,feedback_image_window,ILBtzczBgGVxysopdHEcBLZbusk2,ILBtzczBgGVxysopdHEcBLZbusk2,,,,,,,,,,,,,,,,,,,,,,63e4bb5f5db4ae5ba8d51578,16:54:40,27/03/2024
html-keyboard-response,88,173410,0.0-38.0-0.0,,,,,,mood_trial_fixation,ILBtzczBgGVxysopdHEcBLZbusk2,,,,,,,,,,,,,,,,,,,,,,,63e4bb5f5db4ae5ba8d51578,16:54:40,27/03/2024
lmdlab-html-vas-response,89,177673,0.0-38.0-1.0,3244.0,How happy are you right now?,0.49074074074074076,delaylearn,learning,mood_trial,ILBtzczBgGVxysopdHEcBLZbusk2,ILBtzczBgGVxysopdHEcBLZbusk2,,,,,,,,,,,,,,,,,,,,"['Very unhappy', 'Very happy']",,63e4bb5f5db4ae5ba8d51578,16:54:40,27/03/2024
html-keyboard-response,90,179316,0.0-39.0,,"<div style=""font-size:100px;"">+</div>",,delaylearn,learning,ITI,ILBtzczBgGVxysopdHEcBLZbusk2,ILBtzczBgGVxysopdHEcBLZbusk2,,,,,,,,,,,,,,,,,,,1632.0,,,63e4bb5f5db4ae5ba8d51578,16:54:40,27/03/2024
html-keyboard-response,91,180216,0.0-40.0-0.0,897.5999999046326,"<div style=""display: flex; flex-direction: column; align-items: center; margin-top: -40px;""><img src=""images/pattern_6.png"" style=""width: 234px; height: 230px; margin-top: -50px;""><div style=""display: flex; justify-content: space-between; margin-top: 33px;""><img src=""images/choice_trial_11.png"" style=""width: 408px; height: 417px; margin-right: 200px;""><img src=""images/choice_trial_5.png"" style=""width: 408px; height: 417px;""></div></div>",j,delaylearn,learning,trial,ILBtzczBgGVxysopdHEcBLZbusk2,ILBtzczBgGVxysopdHEcBLZbusk2,2.0,images/choice_trial_11.png,images/choice_trial_5.png,images/pattern_6.png,f,f,750.0,11.0,5.0,5.0,0.0,17.0,0.0,0.0,5.0,70.0,,,,,,63e4bb5f5db4ae5ba8d51578,16:54:40,27/03/2024
html-keyboard-response,92,181229,0.0-40.0-1.0,,"<div style=""display: flex; flex-direction: column; align-items: center; margin-top: -40px;""><img src=""images/pattern_6.png"" style=""width: 234px; height: 230px; margin-top: -50px;""><div style=""display: flex; justify-content: space-between; margin-top: 33px;""><img src=""images/choice_trial_5.png"" style=""width: 408px; height: 417px; margin-left:608px;""></div></div>",,delaylearn,learning,display_response,ILBtzczBgGVxysopdHEcBLZbusk2,ILBtzczBgGVxysopdHEcBLZbusk2,,,,,,,,,,,,,,,,,chosen stimuli: images/choice_trial_5.png,,,,,63e4bb5f5db4ae5ba8d51578,16:54:40,27/03/2024
html-keyboard-response,93,181995,0.0-40.0-2.0,,,,delaylearn,learning,feedback_duration_window,ILBtzczBgGVxysopdHEcBLZbusk2,ILBtzczBgGVxysopdHEcBLZbusk2,,,,,,,,,,,,,,,,,,750.0,,,,63e4bb5f5db4ae5ba8d51578,16:54:40,27/03/2024
html-keyboard-response,94,183496,0.0-40.0-3.0,,<div style='margin:auto;width: auto; font-size: 150%'><span style='font-weight: bold; font-size: 100px; color: red;'>0 points!</span><br><br></div>,,delaylearn,learning,feedback_image_window,ILBtzczBgGVxysopdHEcBLZbusk2,ILBtzczBgGVxysopdHEcBLZbusk2,,,,,,,,,,,,,,,,,,,,,,63e4bb5f5db4ae5ba8d51578,16:54:40,27/03/2024
html-keyboard-response,95,185308,0.0-41.0,,"<div style=""font-size:100px;"">+</div>",,delaylearn,learning,ITI,ILBtzczBgGVxysopdHEcBLZbusk2,ILBtzczBgGVxysopdHEcBLZbusk2,,,,,,,,,,,,,,,,,,,1809.0,,,63e4bb5f5db4ae5ba8d51578,16:54:40,27/03/2024
html-keyboard-response,96,186146,0.0-42.0-0.0,836.0,"<div style=""display: flex; flex-direction: column; align-items: center; margin-top: -40px;""><img src=""images/pattern_4.png"" style=""width: 234px; height: 230px; margin-top: -50px;""><div style=""display: flex; justify-content: space-between; margin-top: 33px;""><img src=""images/choice_trial_16.png"" style=""width: 408px; height: 417px; margin-right: 200px;""><img src=""images/choice_trial_4.png"" style=""width: 408px; height: 417px;""></div></div>",f,delaylearn,learning,trial,ILBtzczBgGVxysopdHEcBLZbusk2,ILBtzczBgGVxysopdHEcBLZbusk2,2.0,images/choice_trial_16.png,images/choice_trial_4.png,images/pattern_4.png,j,j,7000.0,16.0,4.0,3.0,1.0,18.0,0.0,0.0,16.0,70.0,,,,,,63e4bb5f5db4ae5ba8d51578,16:54:40,27/03/2024
html-keyboard-response,97,187161,0.0-42.0-1.0,,"<div style=""display: flex; flex-direction: column; align-items: center; margin-top: -40px;""><img src=""images/pattern_4.png"" style=""width: 234px; height: 230px; margin-top: -50px;""><div style=""display: flex; justify-content: space-between; margin-top: 33px;""><img src=""images/choice_trial_16.png"" style=""width: 408px; height: 417px; margin-right: 608px;""></div></div>",,delaylearn,learning,display_response,ILBtzczBgGVxysopdHEcBLZbusk2,ILBtzczBgGVxysopdHEcBLZbusk2,,,,,,,,,,,,,,,,,chosen stimuli: images/choice_trial_16.png,,,,,63e4bb5f5db4ae5ba8d51578,16:54:40,27/03/2024
html-keyboard-response,98,194164,0.0-42.0-2.0,,,,delaylearn,learning,feedback_duration_window,ILBtzczBgGVxysopdHEcBLZbusk2,ILBtzczBgGVxysopdHEcBLZbusk2,,,,,,,,,,,,,,,,,,7000.0,,,,63e4bb5f5db4ae5ba8d51578,16:54:40,27/03/2024
html-keyboard-response,99,195677,0.0-42.0-3.0,,<div style='margin:auto;width: auto; font-size: 150%'><span style='font-weight: bold; font-size: 100px; color: red;'>0 points!</span><br><br></div>,,delaylearn,learning,feedback_image_window,ILBtzczBgGVxysopdHEcBLZbusk2,ILBtzczBgGVxysopdHEcBLZbusk2,,,,,,,,,,,,,,,,,,,,,,63e4bb5f5db4ae5ba8d51578,16:54:40,27/03/2024
html-keyboard-response,100,197929,0.0-43.0,,"<div style=""font-size:100px;"">+</div>",,delaylearn,learning,ITI,ILBtzczBgGVxysopdHEcBLZbusk2,ILBtzczBgGVxysopdHEcBLZbusk2,,,,,,,,,,,,,,,,,,,2238.0,,,63e4bb5f5db4ae5ba8d51578,16:54:40,27/03/2024
html-keyboard-response,101,198592,0.0-44.0-0.0,660.9000000953674,"<div style=""display: flex; flex-direction: column; align-items: center; margin-top: -40px;""><img src=""images/pattern_7.png"" style=""width: 234px; height: 230px; margin-top: -50px;""><div style=""display: flex; justify-content: space-between; margin-top: 33px;""><img src=""images/choice_trial_8.png"" style=""width: 408px; height: 417px; margin-right: 200px;""><img src=""images/choice_trial_15.png"" style=""width: 408px; height: 417px;""></div></div>",f,delaylearn,learning,trial,ILBtzczBgGVxysopdHEcBLZbusk2,ILBtzczBgGVxysopdHEcBLZbusk2,2.0,images/choice_trial_8.png,images/choice_trial_15.png,images/pattern_7.png,j,f,750.0,8.0,15.0,6.0,0.0,19.0,1.0,0.0,8.0,70.0,,,,,,63e4bb5f5db4ae5ba8d51578,16:54:40,27/03/2024
html-keyboard-response,102,199596,0.0-44.0-1.0,,"<div style=""display: flex; flex-direction: column; align-items: center; margin-top: -40px;""><img src=""images/pattern_7.png"" style=""width: 234px; height: 230px; margin-top: -50px;""><div style=""display: flex; justify-content: space-between; margin-top: 33px;""><img src=""images/choice_trial_8.png"" style=""width: 408px; height: 417px; margin-right: 608px;""></div></div>",,delaylearn,learning,display_response,ILBtzczBgGVxysopdHEcBLZbusk2,ILBtzczBgGVxysopdHEcBLZbusk2,,,,,,,,,,,,,,,,,chosen stimuli: images/choice_trial_8.png,,,,,63e4bb5f5db4ae5ba8d51578,16:54:40,27/03/2024
html-keyboard-response,103,200362,0.0-44.0-2.0,,,,delaylearn,learning,feedback_duration_window,ILBtzczBgGVxysopdHEcBLZbusk2,ILBtzczBgGVxysopdHEcBLZbusk2,,,,,,,,,,,,,,,,,,750.0,,,,63e4bb5f5db4ae5ba8d51578,16:54:40,27/03/2024
html-keyboard-response,104,201878,0.0-44.0-3.0,,<div style='margin:auto;width: auto; font-size: 150%'><span style='font-weight: bold; font-size: 100px; color: red;'>0 points!</span><br><br></div>,,delaylearn,learning,feedback_image_window,ILBtzczBgGVxysopdHEcBLZbusk2,ILBtzczBgGVxysopdHEcBLZbusk2,,,,,,,,,,,,,,,,,,,,,,63e4bb5f5db4ae5ba8d51578,16:54:40,27/03/2024
html-keyboard-response,105,203520,0.0-45.0,,"<div style=""font-size:100px;"">+</div>",,delaylearn,learning,ITI,ILBtzczBgGVxysopdHEcBLZbusk2,ILBtzczBgGVxysopdHEcBLZbusk2,,,,,,,,,,,,,,,,,,,1633.0,,,63e4bb5f5db4ae5ba8d51578,16:54:40,27/03/2024
html-keyboard-response,106,204162,0.0-46.0-0.0,639.7999999523163,"<div style=""display: flex; flex-direction: column; align-items: center; margin-top: -40px;""><img src=""images/pattern_1.png"" style=""width: 234px; height: 230px; margin-top: -50px;""><div style=""display: flex; justify-content: space-between; margin-top: 33px;""><img src=""images/choice_trial_3.png"" style=""width: 408px; height: 417px; margin-right: 200px;""><img src=""images/choice_trial_10.png"" style=""width: 408px; height: 417px;""></div></div>",j,delaylearn,learning,trial,ILBtzczBgGVxysopdHEcBLZbusk2,ILBtzczBgGVxysopdHEcBLZbusk2,2.0,images/choice_trial_3.png,images/choice_trial_10.png,images/pattern_1.png,f,f,7000.0,3.0,10.0,1.0,0.0,20.0,0.0,0.0,10.0,70.0,,,,,,63e4bb5f5db4ae5ba8d51578,16:54:40,27/03/2024
html-keyboard-response,107,205177,0.0-46.0-1.0,,"<div style=""display: flex; flex-direction: column; align-items: center; margin-top: -40px;""><img src=""images/pattern_1.png"" style=""width: 234px; height: 230px; margin-top: -50px;""><div style=""display: flex; justify-content: space-between; margin-top: 33px;""><img src=""images/choice_trial_10.png"" style=""width: 408px; height: 417px; margin-left:608px;""></div></div>",,delaylearn,learning,display_response,ILBtzczBgGVxysopdHEcBLZbusk2,ILBtzczBgGVxysopdHEcBLZbusk2,,,,,,,,,,,,,,,,,chosen stimuli: images/choice_trial_10.png,,,,,63e4bb5f5db4ae5ba8d51578,16:54:40,27/03/2024
html-keyboard-response,108,212181,0.0-46.0-2.0,,,,delaylearn,learning,feedback_duration_window,ILBtzczBgGVxysopdHEcBLZbusk2,ILBtzczBgGVxysopdHEcBLZbusk2,,,,,,,,,,,,,,,,,,7000.0,,,,63e4bb5f5db4ae5ba8d51578,16:54:40,27/03/2024
html-keyboard-response,109,213694,0.0-46.0-3.0,,<div style='margin:auto;width: auto; font-size: 150%'><span style='font-weight: bold; font-size: 100px; color: red;'>0 points!</span><br><br></div>,,delaylearn,learning,feedback_image_window,ILBtzczBgGVxysopdHEcBLZbusk2,ILBtzczBgGVxysopdHEcBLZbusk2,,,,,,,,,,,,,,,,,,,,,,63e4bb5f5db4ae5ba8d51578,16:54:40,27/03/2024
html-keyboard-response,110,215868,0.0-47.0,,"<div style=""font-size:100px;"">+</div>",,delaylearn,learning,ITI,ILBtzczBgGVxysopdHEcBLZbusk2,ILBtzczBgGVxysopdHEcBLZbusk2,,,,,,,,,,,,,,,,,,,2171.0,,,63e4bb5f5db4ae5ba8d51578,16:54:40,27/03/2024
html-keyboard-response,111,216802,0.0-48.0-0.0,931.8000001907349,"<div style=""display: flex; flex-direction: column; align-items: center; margin-top: -40px;""><img src=""images/pattern_6.png"" style=""width: 234px; height: 230px; margin-top: -50px;""><div style=""display: flex; justify-content: space-between; margin-top: 33px;""><img src=""images/choice_trial_5.png"" style=""width: 408px; height: 417px; margin-right: 200px;""><img src=""images/choice_trial_11.png"" style=""width: 408px; height: 417px;""></div></div>",j,delaylearn,learning,trial,ILBtzczBgGVxysopdHEcBLZbusk2,ILBtzczBgGVxysopdHEcBLZbusk2,2.0,images/choice_trial_5.png,images/choice_trial_11.png,images/pattern_6.png,j,j,750.0,5.0,11.0,5.0,1.0,21.0,1.0,1.0,11.0,80.0,,,,,,63e4bb5f5db4ae5ba8d51578,16:54:40,27/03/2024
html-keyboard-response,112,217810,0.0-48.0-1.0,,"<div style=""display: flex; flex-direction: column; align-items: center; margin-top: -40px;""><img src=""images/pattern_6.png"" style=""width: 234px; height: 230px; margin-top: -50px;""><div style=""display: flex; justify-content: space-between; margin-top: 33px;""><img src=""images/choice_trial_11.png"" style=""width: 408px; height: 417px; margin-left:608px;""></div></div>",,delaylearn,learning,display_response,ILBtzczBgGVxysopdHEcBLZbusk2,ILBtzczBgGVxysopdHEcBLZbusk2,,,,,,,,,,,,,,,,,chosen stimuli: images/choice_trial_11.png,,,,,63e4bb5f5db4ae5ba8d51578,16:54:40,27/03/2024
html-keyboard-response,113,218564,0.0-48.0-2.0,,,,delaylearn,learning,feedback_duration_window,ILBtzczBgGVxysopdHEcBLZbusk2,ILBtzczBgGVxysopdHEcBLZbusk2,,,,,,,,,,,,,,,,,,750.0,,,,63e4bb5f5db4ae5ba8d51578,16:54:40,27/03/2024
html-keyboard-response,114,220079,0.0-48.0-3.0,,<div style='margin:auto;width: auto; font-size: 150%'><span style='font-weight: bold; font-size: 100px; color: green;'>+10 points!</span><br><br></div>,,delaylearn,learning,feedback_image_window,ILBtzczBgGVxysopdHEcBLZbusk2,ILBtzczBgGVxysopdHEcBLZbusk2,,,,,,,,,,,,,,,,,,,,,,63e4bb5f5db4ae5ba8d51578,16:54:40,27/03/2024
html-keyboard-response,115,222330,0.0-49.0,,"<div style=""font-size:100px;"">+</div>",,delaylearn,learning,ITI,ILBtzczBgGVxysopdHEcBLZbusk2,ILBtzczBgGVxysopdHEcBLZbusk2,,,,,,,,,,,,,,,,,,,2243.0,,,63e4bb5f5db4ae5ba8d51578,16:54:40,27/03/2024
html-keyboard-response,116,222691,0.0-50.0-0.0,358.09999990463257,"<div style=""display: flex; flex-direction: column; align-items: center; margin-top: -40px;""><img src=""images/pattern_4.png"" style=""width: 234px; height: 230px; margin-top: -50px;""><div style=""display: flex; justify-content: space-between; margin-top: 33px;""><img src=""images/choice_trial_4.png"" style=""width: 408px; height: 417px; margin-right: 200px;""><img src=""images/choice_trial_16.png"" style=""width: 408px; height: 417px;""></div></div>",j,delaylearn,learning,trial,ILBtzczBgGVxysopdHEcBLZbusk2,ILBtzczBgGVxysopdHEcBLZbusk2,2.0,images/choice_trial_4.png,images/choice_trial_16.png,images/pattern_4.png,f,f,7000.0,4.0,16.0,3.0,0.0,22.0,0.0,0.0,16.0,80.0,,,,,,63e4bb5f5db4ae5ba8d51578,16:54:40,27/03/2024
html-keyboard-response,117,223696,0.0-50.0-1.0,,"<div style=""display: flex; flex-direction: column; align-items: center; margin-top: -40px;""><img src=""images/pattern_4.png"" style=""width: 234px; height: 230px; margin-top: -50px;""><div style=""display: flex; justify-content: space-between; margin-top: 33px;""><img src=""images/choice_trial_16.png"" style=""width: 408px; height: 417px; margin-left:608px;""></div></div>",,delaylearn,learning,display_response,ILBtzczBgGVxysopdHEcBLZbusk2,ILBtzczBgGVxysopdHEcBLZbusk2,,,,,,,,,,,,,,,,,chosen stimuli: images/choice_trial_16.png,,,,,63e4bb5f5db4ae5ba8d51578,16:54:40,27/03/2024
html-keyboard-response,118,230701,0.0-50.0-2.0,,,,delaylearn,learning,feedback_duration_window,ILBtzczBgGVxysopdHEcBLZbusk2,ILBtzczBgGVxysopdHEcBLZbusk2,,,,,,,,,,,,,,,,,,7000.0,,,,63e4bb5f5db4ae5ba8d51578,16:54:40,27/03/2024
html-keyboard-response,119,232213,0.0-50.0-3.0,,<div style='margin:auto;width: auto; font-size: 150%'><span style='font-weight: bold; font-size: 100px; color: red;'>0 points!</span><br><br></div>,,delaylearn,learning,feedback_image_window,ILBtzczBgGVxysopdHEcBLZbusk2,ILBtzczBgGVxysopdHEcBLZbusk2,,,,,,,,,,,,,,,,,,,,,,63e4bb5f5db4ae5ba8d51578,16:54:40,27/03/2024
html-keyboard-response,120,232715,0.0-51.0-0.0,,,,,,mood_trial_fixation,ILBtzczBgGVxysopdHEcBLZbusk2,,,,,,,,,,,,,,,,,,,,,,,63e4bb5f5db4ae5ba8d51578,16:54:40,27/03/2024
lmdlab-html-vas-response,121,237267,0.0-51.0-1.0,3536.0,How happy are you right now?,0.5046296296296297,delaylearn,learning,mood_trial,ILBtzczBgGVxysopdHEcBLZbusk2,ILBtzczBgGVxysopdHEcBLZbusk2,,,,,,,,,,,,,,,,,,,,"['Very unhappy', 'Very happy']",,63e4bb5f5db4ae5ba8d51578,16:54:40,27/03/2024
html-keyboard-response,122,239045,0.0-52.0,,"<div style=""font-size:100px;"">+</div>",,delaylearn,learning,ITI,ILBtzczBgGVxysopdHEcBLZbusk2,ILBtzczBgGVxysopdHEcBLZbusk2,,,,,,,,,,,,,,,,,,,1764.0,,,63e4bb5f5db4ae5ba8d51578,16:54:40,27/03/2024
html-keyboard-response,123,239798,0.0-53.0-0.0,751.1999998092651,"<div style=""display: flex; flex-direction: column; align-items: center; margin-top: -40px;""><img src=""images/pattern_7.png"" style=""width: 234px; height: 230px; margin-top: -50px;""><div style=""display: flex; justify-content: space-between; margin-top: 33px;""><img src=""images/choice_trial_15.png"" style=""width: 408px; height: 417px; margin-right: 200px;""><img src=""images/choice_trial_8.png"" style=""width: 408px; height: 417px;""></div></div>",f,delaylearn,learning,trial,ILBtzczBgGVxysopdHEcBLZbusk2,ILBtzczBgGVxysopdHEcBLZbusk2,2.0,images/choice_trial_15.png,images/choice_trial_8.png,images/pattern_7.png,j,j,750.0,15.0,8.0,6.0,1.0,23.0,0.0,0.0,15.0,80.0,,,,,,63e4bb5f5db4ae5ba8d51578,16:54:40,27/03/2024
html-keyboard-response,124,240813,0.0-53.0-1.0,,"<div style=""display: flex; flex-direction: column; align-items: center; margin-top: -40px;""><img src=""images/pattern_7.png"" style=""width: 234px; height: 230px; margin-top: -50px;""><div style=""display: flex; justify-content: space-between; margin-top: 33px;""><img src=""images/choice_trial_15.png"" style=""width: 408px; height: 417px; margin-right: 608px;""></div></div>",,delaylearn,learning,display_response,ILBtzczBgGVxysopdHEcBLZbusk2,ILBtzczBgGVxysopdHEcBLZbusk2,,,,,,,,,,,,,,,,,chosen stimuli: images/choice_trial_15.png,,,,,63e4bb5f5db4ae5ba8d51578,16:54:40,27/03/2024
html-keyboard-response,125,241565,0.0-53.0-2.0,,,,delaylearn,learning,feedback_duration_window,ILBtzczBgGVxysopdHEcBLZbusk2,ILBtzczBgGVxysopdHEcBLZbusk2,,,,,,,,,,,,,,,,,,750.0,,,,63e4bb5f5db4ae5ba8d51578,16:54:40,27/03/2024
html-keyboard-response,126,243080,0.0-53.0-3.0,,<div style='margin:auto;width: auto; font-size: 150%'><span style='font-weight: bold; font-size: 100px; color: red;'>0 points!</span><br><br></div>,,delaylearn,learning,feedback_image_window,ILBtzczBgGVxysopdHEcBLZbusk2,ILBtzczBgGVxysopdHEcBLZbusk2,,,,,,,,,,,,,,,,,,,,,,63e4bb5f5db4ae5ba8d51578,16:54:40,27/03/2024
html-keyboard-response,127,245284,0.0-54.0,,"<div style=""font-size:100px;"">+</div>",,delaylearn,learning,ITI,ILBtzczBgGVxysopdHEcBLZbusk2,ILBtzczBgGVxysopdHEcBLZbusk2,,,,,,,,,,,,,,,,,,,2193.0,,,63e4bb5f5db4ae5ba8d51578,16:54:40,27/03/2024
html-keyboard-response,128,245588,0.0-55.0-0.0,302.60000014305115,"<div style=""display: flex; flex-direction: column; align-items: center; margin-top: -40px;""><img src=""images/pattern_1.png"" style=""width: 234px; height: 230px; margin-top: -50px;""><div style=""display: flex; justify-content: space-between; margin-top: 33px;""><img src=""images/choice_trial_10.png"" style=""width: 408px; height: 417px; margin-right: 200px;""><img src=""images/choice_trial_3.png"" style=""width: 408px; height: 417px;""></div></div>",j,delaylearn,learning,trial,ILBtzczBgGVxysopdHEcBLZbusk2,ILBtzczBgGVxysopdHEcBLZbusk2,2.0,images/choice_trial_10.png,images/choice_trial_3.png,images/pattern_1.png,f,j,7000.0,10.0,3.0,1.0,1.0,24.0,1.0,0.0,3.0,80.0,,,,,,63e4bb5f5db4ae5ba8d51578,16:54:40,27/03/2024
html-keyboard-response,129,246597,0.0-55.0-1.0,,"<div style=""display: flex; flex-direction: column; align-items: center; margin-top: -40px;""><img src=""images/pattern_1.png"" style=""width: 234px; height: 230px; margin-top: -50px;""><div style=""display: flex; justify-content: space-between; margin-top: 33px;""><img src=""images/choice_trial_3.png"" style=""width: 408px; height: 417px; margin-left:608px;""></div></div>",,delaylearn,learning,display_response,ILBtzczBgGVxysopdHEcBLZbusk2,ILBtzczBgGVxysopdHEcBLZbusk2,,,,,,,,,,,,,,,,,chosen stimuli: images/choice_trial_3.png,,,,,63e4bb5f5db4ae5ba8d51578,16:54:40,27/03/2024
html-keyboard-response,130,253599,0.0-55.0-2.0,,,,delaylearn,learning,feedback_duration_window,ILBtzczBgGVxysopdHEcBLZbusk2,ILBtzczBgGVxysopdHEcBLZbusk2,,,,,,,,,,,,,,,,,,7000.0,,,,63e4bb5f5db4ae5ba8d51578,16:54:40,27/03/2024
html-keyboard-response,131,255114,0.0-55.0-3.0,,<div style='margin:auto;width: auto; font-size: 150%'><span style='font-weight: bold; font-size: 100px; color: red;'>0 points!</span><br><br></div>,,delaylearn,learning,feedback_image_window,ILBtzczBgGVxysopdHEcBLZbusk2,ILBtzczBgGVxysopdHEcBLZbusk2,,,,,,,,,,,,,,,,,,,,,,63e4bb5f5db4ae5ba8d51578,16:54:40,27/03/2024
html-keyboard-response,132,257410,0.0-56.0,,"<div style=""font-size:100px;"">+</div>",,delaylearn,learning,ITI,ILBtzczBgGVxysopdHEcBLZbusk2,ILBtzczBgGVxysopdHEcBLZbusk2,,,,,,,,,,,,,,,,,,,2294.0,,,63e4bb5f5db4ae5ba8d51578,16:54:40,27/03/2024
html-keyboard-response,133,259731,0.0-57.0-0.0,2318.7000000476837,"<div style=""display: flex; flex-direction: column; align-items: center; margin-top: -40px;""><img src=""images/pattern_5.png"" style=""width: 234px; height: 230px; margin-top: -50px;""><div style=""display: flex; justify-content: space-between; margin-top: 33px;""><img src=""images/choice_trial_9.png"" style=""width: 408px; height: 417px; margin-right: 200px;""><img src=""images/choice_trial_2.png"" style=""width: 408px; height: 417px;""></div></div>",j,delaylearn,learning,trial,ILBtzczBgGVxysopdHEcBLZbusk2,ILBtzczBgGVxysopdHEcBLZbusk2,2.0,images/choice_trial_9.png,images/choice_trial_2.png,images/pattern_5.png,j,j,750.0,9.0,2.0,4.0,1.0,25.0,1.0,1.0,2.0,90.0,,,,,,63e4bb5f5db4ae5ba8d51578,16:54:40,27/03/2024
html-keyboard-response,134,260747,0.0-57.0-1.0,,"<div style=""display: flex; flex-direction: column; align-items: center; margin-top: -40px;""><img src=""images/pattern_5.png"" style=""width: 234px; height: 230px; margin-top: -50px;""><div style=""display: flex; justify-content: space-between; margin-top: 33px;""><img src=""images/choice_trial_2.png"" style=""width: 408px; height: 417px; margin-left:608px;""></div></div>",,delaylearn,learning,display_response,ILBtzczBgGVxysopdHEcBLZbusk2,ILBtzczBgGVxysopdHEcBLZbusk2,,,,,,,,,,,,,,,,,chosen stimuli: images/choice_trial_2.png,,,,,63e4bb5f5db4ae5ba8d51578,16:54:40,27/03/2024
html-keyboard-response,135,261499,0.0-57.0-2.0,,,,delaylearn,learning,feedback_duration_window,ILBtzczBgGVxysopdHEcBLZbusk2,ILBtzczBgGVxysopdHEcBLZbusk2,,,,,,,,,,,,,,,,,,750.0,,,,63e4bb5f5db4ae5ba8d51578,16:54:40,27/03/2024
html-keyboard-response,136,263014,0.0-57.0-3.0,,<div style='margin:auto;width: auto; font-size: 150%'><span style='font-weight: bold; font-size: 100px; color: green;'>+10 points!</span><br><br></div>,,delaylearn,learning,feedback_image_window,ILBtzczBgGVxysopdHEcBLZbusk2,ILBtzczBgGVxysopdHEcBLZbusk2,,,,,,,,,,,,,,,,,,,,,,63e4bb5f5db4ae5ba8d51578,16:54:40,27/03/2024
html-keyboard-response,137,264531,0.0-58.0,,"<div style=""font-size:100px;"">+</div>",,delaylearn,learning,ITI,ILBtzczBgGVxysopdHEcBLZbusk2,ILBtzczBgGVxysopdHEcBLZbusk2,,,,,,,,,,,,,,,,,,,1503.0,,,63e4bb5f5db4ae5ba8d51578,16:54:40,27/03/2024
html-keyboard-response,138,265126,0.0-59.0-0.0,591.6999998092651,"<div style=""display: flex; flex-direction: column; align-items: center; margin-top: -40px;""><img src=""images/pattern_3.png"" style=""width: 234px; height: 230px; margin-top: -50px;""><div style=""display: flex; justify-content: space-between; margin-top: 33px;""><img src=""images/choice_trial_14.png"" style=""width: 408px; height: 417px; margin-right: 200px;""><img src=""images/choice_trial_12.png"" style=""width: 408px; height: 417px;""></div></div>",f,delaylearn,learning,trial,ILBtzczBgGVxysopdHEcBLZbusk2,ILBtzczBgGVxysopdHEcBLZbusk2,2.0,images/choice_trial_14.png,images/choice_trial_12.png,images/pattern_3.png,j,j,7000.0,14.0,12.0,2.0,1.0,26.0,0.0,0.0,14.0,90.0,,,,,,63e4bb5f5db4ae5ba8d51578,16:54:40,27/03/2024
html-keyboard-response,139,266132,0.0-59.0-1.0,,"<div style=""display: flex; flex-direction: column; align-items: center; margin-top: -40px;""><img src=""images/pattern_3.png"" style=""width: 234px; height: 230px; margin-top: -50px;""><div style=""display: flex; justify-content: space-between; margin-top: 33px;""><img src=""images/choice_trial_14.png"" style=""width: 408px; height: 417px; margin-right: 608px;""></div></div>",,delaylearn,learning,display_response,ILBtzczBgGVxysopdHEcBLZbusk2,ILBtzczBgGVxysopdHEcBLZbusk2,,,,,,,,,,,,,,,,,chosen stimuli: images/choice_trial_14.png,,,,,63e4bb5f5db4ae5ba8d51578,16:54:40,27/03/2024
html-keyboard-response,140,273147,0.0-59.0-2.0,,,,delaylearn,learning,feedback_duration_window,ILBtzczBgGVxysopdHEcBLZbusk2,ILBtzczBgGVxysopdHEcBLZbusk2,,,,,,,,,,,,,,,,,,7000.0,,,,63e4bb5f5db4ae5ba8d51578,16:54:40,27/03/2024
html-keyboard-response,141,274663,0.0-59.0-3.0,,<div style='margin:auto;width: auto; font-size: 150%'><span style='font-weight: bold; font-size: 100px; color: red;'>0 points!</span><br><br></div>,,delaylearn,learning,feedback_image_window,ILBtzczBgGVxysopdHEcBLZbusk2,ILBtzczBgGVxysopdHEcBLZbusk2,,,,,,,,,,,,,,,,,,,,,,63e4bb5f5db4ae5ba8d51578,16:54:40,27/03/2024
lmdlab-html-vas-response,142,281392,0.0-60.0-0.0,5211.0,*How <b><u>confident</u></b> are you feeling about your answers at this moment?*,0.23148148148148148,rewlearn,rate_confidence,,ILBtzczBgGVxysopdHEcBLZbusk2,ILBtzczBgGVxysopdHEcBLZbusk2,,,,,,,,,,,,,,,,,,,,"['No confidence', 'Complete confidence']",,63e4bb5f5db4ae5ba8d51578,16:54:40,27/03/2024
lmdlab-rest-trial-limit,143,291367,0.0-60.0-1.0,8464.600000143051,"<div style=""font-size:40px;""><b>Please take a break!</b><br><br><br><br><p>Great work: you earned 90 points.<br><br><br><p>You have completed part(s) 1 of 5.<br><br><br><br>When you are ready to continue<br><br><br>please click the button.</p><br><br>",0,delaylearn,learning,break,ILBtzczBgGVxysopdHEcBLZbusk2,ILBtzczBgGVxysopdHEcBLZbusk2,,,,,,,,,,,,,,,,,,,,,0.0,63e4bb5f5db4ae5ba8d51578,16:54:40,27/03/2024
html-keyboard-response,144,294381,0.0-60.0-2.0,,"<div style=""font-size:100px;"">+</div>",,delaylearn,learning,pre_fixation,ILBtzczBgGVxysopdHEcBLZbusk2,,,,,,,,,,,,,,,,,,,,,,,63e4bb5f5db4ae5ba8d51578,16:54:40,27/03/2024
lmdlab-html-vas-response,145,298587,0.0-60.0-3.0-0.0,3188.0,How happy are you right now?,0.7893518518518519,delaylearn,learning,mood_baseline,ILBtzczBgGVxysopdHEcBLZbusk2,ILBtzczBgGVxysopdHEcBLZbusk2,,,,,,,,,,,,,,,,,,,,"['Very unhappy', 'Very happy']",,63e4bb5f5db4ae5ba8d51578,16:54:40,27/03/2024
html-keyboard-response,146,300094,0.0-60.0-3.0-1.0,,,,,,mood_baseline_fixation,ILBtzczBgGVxysopdHEcBLZbusk2,,,,,,,,,,,,,,,,,,,,,,,63e4bb5f5db4ae5ba8d51578,16:54:40,27/03/2024
html-keyboard-response,147,301786,0.0-61.0,,"<div style=""font-size:100px;"">+</div>",,delaylearn,learning,ITI,ILBtzczBgGVxysopdHEcBLZbusk2,ILBtzczBgGVxysopdHEcBLZbusk2,,,,,,,,,,,,,,,,,,,1691.0,,,63e4bb5f5db4ae5ba8d51578,16:54:40,27/03/2024
html-keyboard-response,148,302590,0.0-62.0-0.0,801.7000000476837,"<div style=""display: flex; flex-direction: column; align-items: center; margin-top: -40px;""><img src=""images/pattern_7.png"" style=""width: 234px; height: 230px; margin-top: -50px;""><div style=""display: flex; justify-content: space-between; margin-top: 33px;""><img src=""images/choice_trial_15.png"" style=""width: 408px; height: 417px; margin-right: 200px;""><img src=""images/choice_trial_8.png"" style=""width: 408px; height: 417px;""></div></div>",j,delaylearn,learning,trial,ILBtzczBgGVxysopdHEcBLZbusk2,ILBtzczBgGVxysopdHEcBLZbusk2,2.0,images/choice_trial_15.png,images/choice_trial_8.png,images/pattern_7.png,j,j,750.0,15.0,8.0,6.0,1.0,27.0,1.0,1.0,8.0,100.0,,,,,,63e4bb5f5db4ae5ba8d51578,16:54:40,27/03/2024
html-keyboard-response,149,303599,0.0-62.0-1.0,,"<div style=""display: flex; flex-direction: column; align-items: center; margin-top: -40px;""><img src=""images/pattern_7.png"" style=""width: 234px; height: 230px; margin-top: -50px;""><div style=""display: flex; justify-content: space-between; margin-top: 33px;""><img src=""images/choice_trial_8.png"" style=""width: 408px; height: 417px; margin-left:608px;""></div></div>",,delaylearn,learning,display_response,ILBtzczBgGVxysopdHEcBLZbusk2,ILBtzczBgGVxysopdHEcBLZbusk2,,,,,,,,,,,,,,,,,chosen stimuli: images/choice_trial_8.png,,,,,63e4bb5f5db4ae5ba8d51578,16:54:40,27/03/2024
html-keyboard-response,150,304363,0.0-62.0-2.0,,,,delaylearn,learning,feedback_duration_window,ILBtzczBgGVxysopdHEcBLZbusk2,ILBtzczBgGVxysopdHEcBLZbusk2,,,,,,,,,,,,,,,,,,750.0,,,,63e4bb5f5db4ae5ba8d51578,16:54:40,27/03/2024
html-keyboard-response,151,305865,0.0-62.0-3.0,,<div style='margin:auto;width: auto; font-size: 150%'><span style='font-weight: bold; font-size: 100px; color: green;'>+10 points!</span><br><br></div>,,delaylearn,learning,feedback_image_window,ILBtzczBgGVxysopdHEcBLZbusk2,ILBtzczBgGVxysopdHEcBLZbusk2,,,,,,,,,,,,,,,,,,,,,,63e4bb5f5db4ae5ba8d51578,16:54:40,27/03/2024
html-keyboard-response,152,306366,0.0-63.0-0.0,,,,,,mood_trial_fixation,ILBtzczBgGVxysopdHEcBLZbusk2,,,,,,,,,,,,,,,,,,,,,,,63e4bb5f5db4ae5ba8d51578,16:54:40,27/03/2024
lmdlab-html-vas-response,153,310699,0.0-63.0-1.0,3318.0,How happy are you right now?,0.9722222222222222,delaylearn,learning,mood_trial,ILBtzczBgGVxysopdHEcBLZbusk2,ILBtzczBgGVxysopdHEcBLZbusk2,,,,,,,,,,,,,,,,,,,,"['Very unhappy', 'Very happy']",,63e4bb5f5db4ae5ba8d51578,16:54:40,27/03/2024
html-keyboard-response,154,313166,0.0-64.0,,"<div style=""font-size:100px;"">+</div>",,delaylearn,learning,ITI,ILBtzczBgGVxysopdHEcBLZbusk2,ILBtzczBgGVxysopdHEcBLZbusk2,,,,,,,,,,,,,,,,,,,2453.0,,,63e4bb5f5db4ae5ba8d51578,16:54:40,27/03/2024
html-keyboard-response,155,313596,0.0-65.0-0.0,427.0,"<div style=""display: flex; flex-direction: column; align-items: center; margin-top: -40px;""><img src=""images/pattern_1.png"" style=""width: 234px; height: 230px; margin-top: -50px;""><div style=""display: flex; justify-content: space-between; margin-top: 33px;""><img src=""images/choice_trial_3.png"" style=""width: 408px; height: 417px; margin-right: 200px;""><img src=""images/choice_trial_10.png"" style=""width: 408px; height: 417px;""></div></div>",f,delaylearn,learning,trial,ILBtzczBgGVxysopdHEcBLZbusk2,ILBtzczBgGVxysopdHEcBLZbusk2,2.0,images/choice_trial_3.png,images/choice_trial_10.png,images/pattern_1.png,f,f,7000.0,3.0,10.0,1.0,0.0,28.0,1.0,1.0,3.0,110.0,,,,,,63e4bb5f5db4ae5ba8d51578,16:54:40,27/03/2024
html-keyboard-response,156,314599,0.0-65.0-1.0,,"<div style=""display: flex; flex-direction: column; align-items: center; margin-top: -40px;""><img src=""images/pattern_1.png"" style=""width: 234px; height: 230px; margin-top: -50px;""><div style=""display: flex; justify-content: space-between; margin-top: 33px;""><img src=""images/choice_trial_3.png"" style=""width: 408px; height: 417px; margin-right: 608px;""></div></div>",,delaylearn,learning,display_response,ILBtzczBgGVxysopdHEcBLZbusk2,ILBtzczBgGVxysopdHEcBLZbusk2,,,,,,,,,,,,,,,,,chosen stimuli: images/choice_trial_3.png,,,,,63e4bb5f5db4ae5ba8d51578,16:54:40,27/03/2024
html-keyboard-response,157,321614,0.0-65.0-2.0,,,,delaylearn,learning,feedback_duration_window,ILBtzczBgGVxysopdHEcBLZbusk2,ILBtzczBgGVxysopdHEcBLZbusk2,,,,,,,,,,,,,,,,,,7000.0,,,,63e4bb5f5db4ae5ba8d51578,16:54:40,27/03/2024
html-keyboard-response,158,323131,0.0-65.0-3.0,,<div style='margin:auto;width: auto; font-size: 150%'><span style='font-weight: bold; font-size: 100px; color: green;'>+10 points!</span><br><br></div>,,delaylearn,learning,feedback_image_window,ILBtzczBgGVxysopdHEcBLZbusk2,ILBtzczBgGVxysopdHEcBLZbusk2,,,,,,,,,,,,,,,,,,,,,,63e4bb5f5db4ae5ba8d51578,16:54:40,27/03/2024
html-keyboard-response,159,324960,0.0-66.0,,"<div style=""font-size:100px;"">+</div>",,delaylearn,learning,ITI,ILBtzczBgGVxysopdHEcBLZbusk2,ILBtzczBgGVxysopdHEcBLZbusk2,,,,,,,,,,,,,,,,,,,1816.0,,,63e4bb5f5db4ae5ba8d51578,16:54:40,27/03/2024
html-keyboard-response,160,325549,0.0-67.0-0.0,586.5,"<div style=""display: flex; flex-direction: column; align-items: center; margin-top: -40px;""><img src=""images/pattern_5.png"" style=""width: 234px; height: 230px; margin-top: -50px;""><div style=""display: flex; justify-content: space-between; margin-top: 33px;""><img src=""images/choice_trial_2.png"" style=""width: 408px; height: 417px; margin-right: 200px;""><img src=""images/choice_trial_9.png"" style=""width: 408px; height: 417px;""></div></div>",j,delaylearn,learning,trial,ILBtzczBgGVxysopdHEcBLZbusk2,ILBtzczBgGVxysopdHEcBLZbusk2,2.0,images/choice_trial_2.png,images/choice_trial_9.png,images/pattern_5.png,f,f,750.0,2.0,9.0,4.0,0.0,29.0,0.0,0.0,9.0,110.0,,,,,,63e4bb5f5db4ae5ba8d51578,16:54:40,27/03/2024
html-keyboard-response,161,326563,0.0-67.0-1.0,,"<div style=""display: flex; flex-direction: column; align-items: center; margin-top: -40px;""><img src=""images/pattern_5.png"" style=""width: 234px; height: 230px; margin-top: -50px;""><div style=""display: flex; justify-content: space-between; margin-top: 33px;""><img src=""images/choice_trial_9.png"" style=""width: 408px; height: 417px; margin-left:608px;""></div></div>",,delaylearn,learning,display_response,ILBtzczBgGVxysopdHEcBLZbusk2,ILBtzczBgGVxysopdHEcBLZbusk2,,,,,,,,,,,,,,,,,chosen stimuli: images/choice_trial_9.png,,,,,63e4bb5f5db4ae5ba8d51578,16:54:40,27/03/2024
html-keyboard-response,162,327315,0.0-67.0-2.0,,,,delaylearn,learning,feedback_duration_window,ILBtzczBgGVxysopdHEcBLZbusk2,ILBtzczBgGVxysopdHEcBLZbusk2,,,,,,,,,,,,,,,,,,750.0,,,,63e4bb5f5db4ae5ba8d51578,16:54:40,27/03/2024
html-keyboard-response,163,328829,0.0-67.0-3.0,,<div style='margin:auto;width: auto; font-size: 150%'><span style='font-weight: bold; font-size: 100px; color: red;'>0 points!</span><br><br></div>,,delaylearn,learning,feedback_image_window,ILBtzczBgGVxysopdHEcBLZbusk2,ILBtzczBgGVxysopdHEcBLZbusk2,,,,,,,,,,,,,,,,,,,,,,63e4bb5f5db4ae5ba8d51578,16:54:40,27/03/2024
html-keyboard-response,164,330954,0.0-68.0,,"<div style=""font-size:100px;"">+</div>",,delaylearn,learning,ITI,ILBtzczBgGVxysopdHEcBLZbusk2,ILBtzczBgGVxysopdHEcBLZbusk2,,,,,,,,,,,,,,,,,,,2115.0,,,63e4bb5f5db4ae5ba8d51578,16:54:40,27/03/2024
html-keyboard-response,165,331885,0.0-69.0-0.0,928.3999998569489,"<div style=""display: flex; flex-direction: column; align-items: center; margin-top: -40px;""><img src=""images/pattern_6.png"" style=""width: 234px; height: 230px; margin-top: -50px;""><div style=""display: flex; justify-content: space-between; margin-top: 33px;""><img src=""images/choice_trial_5.png"" style=""width: 408px; height: 417px; margin-right: 200px;""><img src=""images/choice_trial_11.png"" style=""width: 408px; height: 417px;""></div></div>",j,delaylearn,learning,trial,ILBtzczBgGVxysopdHEcBLZbusk2,ILBtzczBgGVxysopdHEcBLZbusk2,2.0,images/choice_trial_5.png,images/choice_trial_11.png,images/pattern_6.png,j,j,750.0,5.0,11.0,5.0,1.0,30.0,1.0,1.0,11.0,120.0,,,,,,63e4bb5f5db4ae5ba8d51578,16:54:40,27/03/2024
html-keyboard-response,166,332897,0.0-69.0-1.0,,"<div style=""display: flex; flex-direction: column; align-items: center; margin-top: -40px;""><img src=""images/pattern_6.png"" style=""width: 234px; height: 230px; margin-top: -50px;""><div style=""display: flex; justify-content: space-between; margin-top: 33px;""><img src=""images/choice_trial_11.png"" style=""width: 408px; height: 417px; margin-left:608px;""></div></div>",,delaylearn,learning,display_response,ILBtzczBgGVxysopdHEcBLZbusk2,ILBtzczBgGVxysopdHEcBLZbusk2,,,,,,,,,,,,,,,,,chosen stimuli: images/choice_trial_11.png,,,,,63e4bb5f5db4ae5ba8d51578,16:54:40,27/03/2024
html-keyboard-response,167,333662,0.0-69.0-2.0,,,,delaylearn,learning,feedback_duration_window,ILBtzczBgGVxysopdHEcBLZbusk2,ILBtzczBgGVxysopdHEcBLZbusk2,,,,,,,,,,,,,,,,,,750.0,,,,63e4bb5f5db4ae5ba8d51578,16:54:40,27/03/2024
html-keyboard-response,168,335165,0.0-69.0-3.0,,<div style='margin:auto;width: auto; font-size: 150%'><span style='font-weight: bold; font-size: 100px; color: green;'>+10 points!</span><br><br></div>,,delaylearn,learning,feedback_image_window,ILBtzczBgGVxysopdHEcBLZbusk2,ILBtzczBgGVxysopdHEcBLZbusk2,,,,,,,,,,,,,,,,,,,,,,63e4bb5f5db4ae5ba8d51578,16:54:40,27/03/2024
html-keyboard-response,169,335681,0.0-70.0-0.0,,,,,,mood_trial_fixation,ILBtzczBgGVxysopdHEcBLZbusk2,,,,,,,,,,,,,,,,,,,,,,,63e4bb5f5db4ae5ba8d51578,16:54:40,27/03/2024
lmdlab-html-vas-response,170,339387,0.0-70.0-1.0,2689.0,How happy are you right now?,0.6944444444444444,delaylearn,learning,mood_trial,ILBtzczBgGVxysopdHEcBLZbusk2,ILBtzczBgGVxysopdHEcBLZbusk2,,,,,,,,,,,,,,,,,,,,"['Very unhappy', 'Very happy']",,63e4bb5f5db4ae5ba8d51578,16:54:40,27/03/2024
html-keyboard-response,171,341834,0.0-71.0,,"<div style=""font-size:100px;"">+</div>",,delaylearn,learning,ITI,ILBtzczBgGVxysopdHEcBLZbusk2,ILBtzczBgGVxysopdHEcBLZbusk2,,,,,,,,,,,,,,,,,,,2446.0,,,63e4bb5f5db4ae5ba8d51578,16:54:40,27/03/2024
html-keyboard-response,172,342615,0.0-72.0-0.0,778.2000000476837,"<div style=""display: flex; flex-direction: column; align-items: center; margin-top: -40px;""><img src=""images/pattern_4.png"" style=""width: 234px; height: 230px; margin-top: -50px;""><div style=""display: flex; justify-content: space-between; margin-top: 33px;""><img src=""images/choice_trial_16.png"" style=""width: 408px; height: 417px; margin-right: 200px;""><img src=""images/choice_trial_4.png"" style=""width: 408px; height: 417px;""></div></div>",f,delaylearn,learning,trial,ILBtzczBgGVxysopdHEcBLZbusk2,ILBtzczBgGVxysopdHEcBLZbusk2,2.0,images/choice_trial_16.png,images/choice_trial_4.png,images/pattern_4.png,j,j,7000.0,16.0,4.0,3.0,1.0,31.0,0.0,0.0,16.0,120.0,,,,,,63e4bb5f5db4ae5ba8d51578,16:54:40,27/03/2024
html-keyboard-response,173,343631,0.0-72.0-1.0,,"<div style=""display: flex; flex-direction: column; align-items: center; margin-top: -40px;""><img src=""images/pattern_4.png"" style=""width: 234px; height: 230px; margin-top: -50px;""><div style=""display: flex; justify-content: space-between; margin-top: 33px;""><img src=""images/choice_trial_16.png"" style=""width: 408px; height: 417px; margin-right: 608px;""></div></div>",,delaylearn,learning,display_response,ILBtzczBgGVxysopdHEcBLZbusk2,ILBtzczBgGVxysopdHEcBLZbusk2,,,,,,,,,,,,,,,,,chosen stimuli: images/choice_trial_16.png,,,,,63e4bb5f5db4ae5ba8d51578,16:54:40,27/03/2024
html-keyboard-response,174,350634,0.0-72.0-2.0,,,,delaylearn,learning,feedback_duration_window,ILBtzczBgGVxysopdHEcBLZbusk2,ILBtzczBgGVxysopdHEcBLZbusk2,,,,,,,,,,,,,,,,,,7000.0,,,,63e4bb5f5db4ae5ba8d51578,16:54:40,27/03/2024
html-keyboard-response,175,352147,0.0-72.0-3.0,,<div style='margin:auto;width: auto; font-size: 150%'><span style='font-weight: bold; font-size: 100px; color: red;'>0 points!</span><br><br></div>,,delaylearn,learning,feedback_image_window,ILBtzczBgGVxysopdHEcBLZbusk2,ILBtzczBgGVxysopdHEcBLZbusk2,,,,,,,,,,,,,,,,,,,,,,63e4bb5f5db4ae5ba8d51578,16:54:40,27/03/2024
html-keyboard-response,176,354352,0.0-73.0,,"<div style=""font-size:100px;"">+</div>",,delaylearn,learning,ITI,ILBtzczBgGVxysopdHEcBLZbusk2,ILBtzczBgGVxysopdHEcBLZbusk2,,,,,,,,,,,,,,,,,,,2192.0,,,63e4bb5f5db4ae5ba8d51578,16:54:40,27/03/2024
html-keyboard-response,177,354812,0.0-74.0-0.0,457.2999999523163,"<div style=""display: flex; flex-direction: column; align-items: center; margin-top: -40px;""><img src=""images/pattern_3.png"" style=""width: 234px; height: 230px; margin-top: -50px;""><div style=""display: flex; justify-content: space-between; margin-top: 33px;""><img src=""images/choice_trial_14.png"" style=""width: 408px; height: 417px; margin-right: 200px;""><img src=""images/choice_trial_12.png"" style=""width: 408px; height: 417px;""></div></div>",f,delaylearn,learning,trial,ILBtzczBgGVxysopdHEcBLZbusk2,ILBtzczBgGVxysopdHEcBLZbusk2,2.0,images/choice_trial_14.png,images/choice_trial_12.png,images/pattern_3.png,j,j,7000.0,14.0,12.0,2.0,1.0,32.0,0.0,0.0,14.0,120.0,,,,,,63e4bb5f5db4ae5ba8d51578,16:54:40,27/03/2024
html-keyboard-response,178,355815,0.0-74.0-1.0,,"<div style=""display: flex; flex-direction: column; align-items: center; margin-top: -40px;""><img src=""images/pattern_3.png"" style=""width: 234px; height: 230px; margin-top: -50px;""><div style=""display: flex; justify-content: space-between; margin-top: 33px;""><img src=""images/choice_trial_14.png"" style=""width: 408px; height: 417px; margin-right: 608px;""></div></div>",,delaylearn,learning,display_response,ILBtzczBgGVxysopdHEcBLZbusk2,ILBtzczBgGVxysopdHEcBLZbusk2,,,,,,,,,,,,,,,,,chosen stimuli: images/choice_trial_14.png,,,,,63e4bb5f5db4ae5ba8d51578,16:54:40,27/03/2024
html-keyboard-response,179,362831,0.0-74.0-2.0,,,,delaylearn,learning,feedback_duration_window,ILBtzczBgGVxysopdHEcBLZbusk2,ILBtzczBgGVxysopdHEcBLZbusk2,,,,,,,,,,,,,,,,,,7000.0,,,,63e4bb5f5db4ae5ba8d51578,16:54:40,27/03/2024
html-keyboard-response,180,364347,0.0-74.0-3.0,,<div style='margin:auto;width: auto; font-size: 150%'><span style='font-weight: bold; font-size: 100px; color: red;'>0 points!</span><br><br></div>,,delaylearn,learning,feedback_image_window,ILBtzczBgGVxysopdHEcBLZbusk2,ILBtzczBgGVxysopdHEcBLZbusk2,,,,,,,,,,,,,,,,,,,,,,63e4bb5f5db4ae5ba8d51578,16:54:40,27/03/2024
html-keyboard-response,181,366707,0.0-75.0,,"<div style=""font-size:100px;"">+</div>",,delaylearn,learning,ITI,ILBtzczBgGVxysopdHEcBLZbusk2,ILBtzczBgGVxysopdHEcBLZbusk2,,,,,,,,,,,,,,,,,,,2344.0,,,63e4bb5f5db4ae5ba8d51578,16:54:40,27/03/2024
html-keyboard-response,182,367085,0.0-76.0-0.0,374.60000014305115,"<div style=""display: flex; flex-direction: column; align-items: center; margin-top: -40px;""><img src=""images/pattern_5.png"" style=""width: 234px; height: 230px; margin-top: -50px;""><div style=""display: flex; justify-content: space-between; margin-top: 33px;""><img src=""images/choice_trial_2.png"" style=""width: 408px; height: 417px; margin-right: 200px;""><img src=""images/choice_trial_9.png"" style=""width: 408px; height: 417px;""></div></div>",f,delaylearn,learning,trial,ILBtzczBgGVxysopdHEcBLZbusk2,ILBtzczBgGVxysopdHEcBLZbusk2,2.0,images/choice_trial_2.png,images/choice_trial_9.png,images/pattern_5.png,j,f,750.0,2.0,9.0,4.0,0.0,33.0,1.0,0.0,2.0,120.0,,,,,,63e4bb5f5db4ae5ba8d51578,16:54:40,27/03/2024
html-keyboard-response,183,368097,0.0-76.0-1.0,,"<div style=""display: flex; flex-direction: column; align-items: center; margin-top: -40px;""><img src=""images/pattern_5.png"" style=""width: 234px; height: 230px; margin-top: -50px;""><div style=""display: flex; justify-content: space-between; margin-top: 33px;""><img src=""images/choice_trial_2.png"" style=""width: 408px; height: 417px; margin-right: 608px;""></div></div>",,delaylearn,learning,display_response,ILBtzczBgGVxysopdHEcBLZbusk2,ILBtzczBgGVxysopdHEcBLZbusk2,,,,,,,,,,,,,,,,,chosen stimuli: images/choice_trial_2.png,,,,,63e4bb5f5db4ae5ba8d51578,16:54:40,27/03/2024
html-keyboard-response,184,368862,0.0-76.0-2.0,,,,delaylearn,learning,feedback_duration_window,ILBtzczBgGVxysopdHEcBLZbusk2,ILBtzczBgGVxysopdHEcBLZbusk2,,,,,,,,,,,,,,,,,,750.0,,,,63e4bb5f5db4ae5ba8d51578,16:54:40,27/03/2024
html-keyboard-response,185,370366,0.0-76.0-3.0,,<div style='margin:auto;width: auto; font-size: 150%'><span style='font-weight: bold; font-size: 100px; color: red;'>0 points!</span><br><br></div>,,delaylearn,learning,feedback_image_window,ILBtzczBgGVxysopdHEcBLZbusk2,ILBtzczBgGVxysopdHEcBLZbusk2,,,,,,,,,,,,,,,,,,,,,,63e4bb5f5db4ae5ba8d51578,16:54:40,27/03/2024
html-keyboard-response,186,371959,0.0-77.0,,"<div style=""font-size:100px;"">+</div>",,delaylearn,learning,ITI,ILBtzczBgGVxysopdHEcBLZbusk2,ILBtzczBgGVxysopdHEcBLZbusk2,,,,,,,,,,,,,,,,,,,1576.0,,,63e4bb5f5db4ae5ba8d51578,16:54:40,27/03/2024
html-keyboard-response,187,372376,0.0-78.0-0.0,413.59999990463257,"<div style=""display: flex; flex-direction: column; align-items: center; margin-top: -40px;""><img src=""images/pattern_1.png"" style=""width: 234px; height: 230px; margin-top: -50px;""><div style=""display: flex; justify-content: space-between; margin-top: 33px;""><img src=""images/choice_trial_3.png"" style=""width: 408px; height: 417px; margin-right: 200px;""><img src=""images/choice_trial_10.png"" style=""width: 408px; height: 417px;""></div></div>",f,delaylearn,learning,trial,ILBtzczBgGVxysopdHEcBLZbusk2,ILBtzczBgGVxysopdHEcBLZbusk2,2.0,images/choice_trial_3.png,images/choice_trial_10.png,images/pattern_1.png,f,f,7000.0,3.0,10.0,1.0,0.0,34.0,1.0,1.0,3.0,130.0,,,,,,63e4bb5f5db4ae5ba8d51578,16:54:40,27/03/2024
html-keyboard-response,188,373383,0.0-78.0-1.0,,"<div style=""display: flex; flex-direction: column; align-items: center; margin-top: -40px;""><img src=""images/pattern_1.png"" style=""width: 234px; height: 230px; margin-top: -50px;""><div style=""display: flex; justify-content: space-between; margin-top: 33px;""><img src=""images/choice_trial_3.png"" style=""width: 408px; height: 417px; margin-right: 608px;""></div></div>",,delaylearn,learning,display_response,ILBtzczBgGVxysopdHEcBLZbusk2,ILBtzczBgGVxysopdHEcBLZbusk2,,,,,,,,,,,,,,,,,chosen stimuli: images/choice_trial_3.png,,,,,63e4bb5f5db4ae5ba8d51578,16:54:40,27/03/2024
html-keyboard-response,189,380396,0.0-78.0-2.0,,,,delaylearn,learning,feedback_duration_window,ILBtzczBgGVxysopdHEcBLZbusk2,ILBtzczBgGVxysopdHEcBLZbusk2,,,,,,,,,,,,,,,,,,7000.0,,,,63e4bb5f5db4ae5ba8d51578,16:54:40,27/03/2024
html-keyboard-response,190,381899,0.0-78.0-3.0,,<div style='margin:auto;width: auto; font-size: 150%'><span style='font-weight: bold; font-size: 100px; color: green;'>+10 points!</span><br><br></div>,,delaylearn,learning,feedback_image_window,ILBtzczBgGVxysopdHEcBLZbusk2,ILBtzczBgGVxysopdHEcBLZbusk2,,,,,,,,,,,,,,,,,,,,,,63e4bb5f5db4ae5ba8d51578,16:54:40,27/03/2024
html-keyboard-response,191,382413,0.0-79.0-0.0,,,,,,mood_trial_fixation,ILBtzczBgGVxysopdHEcBLZbusk2,,,,,,,,,,,,,,,,,,,,,,,63e4bb5f5db4ae5ba8d51578,16:54:40,27/03/2024
lmdlab-html-vas-response,192,386355,0.0-79.0-1.0,2924.0,How happy are you right now?,0.49537037037037035,delaylearn,learning,mood_trial,ILBtzczBgGVxysopdHEcBLZbusk2,ILBtzczBgGVxysopdHEcBLZbusk2,,,,,,,,,,,,,,,,,,,,"['Very unhappy', 'Very happy']",,63e4bb5f5db4ae5ba8d51578,16:54:40,27/03/2024
html-keyboard-response,193,387939,0.0-80.0,,"<div style=""font-size:100px;"">+</div>",,delaylearn,learning,ITI,ILBtzczBgGVxysopdHEcBLZbusk2,ILBtzczBgGVxysopdHEcBLZbusk2,,,,,,,,,,,,,,,,,,,1571.0,,,63e4bb5f5db4ae5ba8d51578,16:54:40,27/03/2024
html-keyboard-response,194,388980,0.0-81.0-0.0,1038.2000000476837,"<div style=""display: flex; flex-direction: column; align-items: center; margin-top: -40px;""><img src=""images/pattern_6.png"" style=""width: 234px; height: 230px; margin-top: -50px;""><div style=""display: flex; justify-content: space-between; margin-top: 33px;""><img src=""images/choice_trial_11.png"" style=""width: 408px; height: 417px; margin-right: 200px;""><img src=""images/choice_trial_5.png"" style=""width: 408px; height: 417px;""></div></div>",f,delaylearn,learning,trial,ILBtzczBgGVxysopdHEcBLZbusk2,ILBtzczBgGVxysopdHEcBLZbusk2,2.0,images/choice_trial_11.png,images/choice_trial_5.png,images/pattern_6.png,j,f,750.0,11.0,5.0,5.0,0.0,35.0,1.0,0.0,11.0,130.0,,,,,,63e4bb5f5db4ae5ba8d51578,16:54:40,27/03/2024
html-keyboard-response,195,389982,0.0-81.0-1.0,,"<div style=""display: flex; flex-direction: column; align-items: center; margin-top: -40px;""><img src=""images/pattern_6.png"" style=""width: 234px; height: 230px; margin-top: -50px;""><div style=""display: flex; justify-content: space-between; margin-top: 33px;""><img src=""images/choice_trial_11.png"" style=""width: 408px; height: 417px; margin-right: 608px;""></div></div>",,delaylearn,learning,display_response,ILBtzczBgGVxysopdHEcBLZbusk2,ILBtzczBgGVxysopdHEcBLZbusk2,,,,,,,,,,,,,,,,,chosen stimuli: images/choice_trial_11.png,,,,,63e4bb5f5db4ae5ba8d51578,16:54:40,27/03/2024
html-keyboard-response,196,390745,0.0-81.0-2.0,,,,delaylearn,learning,feedback_duration_window,ILBtzczBgGVxysopdHEcBLZbusk2,ILBtzczBgGVxysopdHEcBLZbusk2,,,,,,,,,,,,,,,,,,750.0,,,,63e4bb5f5db4ae5ba8d51578,16:54:40,27/03/2024
html-keyboard-response,197,392249,0.0-81.0-3.0,,<div style='margin:auto;width: auto; font-size: 150%'><span style='font-weight: bold; font-size: 100px; color: red;'>0 points!</span><br><br></div>,,delaylearn,learning,feedback_image_window,ILBtzczBgGVxysopdHEcBLZbusk2,ILBtzczBgGVxysopdHEcBLZbusk2,,,,,,,,,,,,,,,,,,,,,,63e4bb5f5db4ae5ba8d51578,16:54:40,27/03/2024
html-keyboard-response,198,393998,0.0-82.0,,"<div style=""font-size:100px;"">+</div>",,delaylearn,learning,ITI,ILBtzczBgGVxysopdHEcBLZbusk2,ILBtzczBgGVxysopdHEcBLZbusk2,,,,,,,,,,,,,,,,,,,1739.0,,,63e4bb5f5db4ae5ba8d51578,16:54:40,27/03/2024
html-keyboard-response,199,394496,0.0-83.0-0.0,494.89999985694885,"<div style=""display: flex; flex-direction: column; align-items: center; margin-top: -40px;""><img src=""images/pattern_3.png"" style=""width: 234px; height: 230px; margin-top: -50px;""><div style=""display: flex; justify-content: space-between; margin-top: 33px;""><img src=""images/choice_trial_14.png"" style=""width: 408px; height: 417px; margin-right: 200px;""><img src=""images/choice_trial_12.png"" style=""width: 408px; height: 417px;""></div></div>",j,delaylearn,learning,trial,ILBtzczBgGVxysopdHEcBLZbusk2,ILBtzczBgGVxysopdHEcBLZbusk2,2.0,images/choice_trial_14.png,images/choice_trial_12.png,images/pattern_3.png,j,j,7000.0,14.0,12.0,2.0,1.0,36.0,1.0,1.0,12.0,140.0,,,,,,63e4bb5f5db4ae5ba8d51578,16:54:40,27/03/2024
html-keyboard-response,200,395498,0.0-83.0-1.0,,"<div style=""display: flex; flex-direction: column; align-items: center; margin-top: -40px;""><img src=""images/pattern_3.png"" style=""width: 234px; height: 230px; margin-top: -50px;""><div style=""display: flex; justify-content: space-between; margin-top: 33px;""><img src=""images/choice_trial_12.png"" style=""width: 408px; height: 417px; margin-left:608px;""></div></div>",,delaylearn,learning,display_response,ILBtzczBgGVxysopdHEcBLZbusk2,ILBtzczBgGVxysopdHEcBLZbusk2,,,,,,,,,,,,,,,,,chosen stimuli: images/choice_trial_12.png,,,,,63e4bb5f5db4ae5ba8d51578,16:54:40,27/03/2024
html-keyboard-response,201,402515,0.0-83.0-2.0,,,,delaylearn,learning,feedback_duration_window,ILBtzczBgGVxysopdHEcBLZbusk2,ILBtzczBgGVxysopdHEcBLZbusk2,,,,,,,,,,,,,,,,,,7000.0,,,,63e4bb5f5db4ae5ba8d51578,16:54:40,27/03/2024
html-keyboard-response,202,404030,0.0-83.0-3.0,,<div style='margin:auto;width: auto; font-size: 150%'><span style='font-weight: bold; font-size: 100px; color: green;'>+10 points!</span><br><br></div>,,delaylearn,learning,feedback_image_window,ILBtzczBgGVxysopdHEcBLZbusk2,ILBtzczBgGVxysopdHEcBLZbusk2,,,,,,,,,,,,,,,,,,,,,,63e4bb5f5db4ae5ba8d51578,16:54:40,27/03/2024
html-keyboard-response,203,405657,0.0-84.0,,"<div style=""font-size:100px;"">+</div>",,delaylearn,learning,ITI,ILBtzczBgGVxysopdHEcBLZbusk2,ILBtzczBgGVxysopdHEcBLZbusk2,,,,,,,,,,,,,,,,,,,1615.0,,,63e4bb5f5db4ae5ba8d51578,16:54:40,27/03/2024
html-keyboard-response,204,406080,0.0-85.0-0.0,420.7999999523163,"<div style=""display: flex; flex-direction: column; align-items: center; margin-top: -40px;""><img src=""images/pattern_4.png"" style=""width: 234px; height: 230px; margin-top: -50px;""><div style=""display: flex; justify-content: space-between; margin-top: 33px;""><img src=""images/choice_trial_16.png"" style=""width: 408px; height: 417px; margin-right: 200px;""><img src=""images/choice_trial_4.png"" style=""width: 408px; height: 417px;""></div></div>",j,delaylearn,learning,trial,ILBtzczBgGVxysopdHEcBLZbusk2,ILBtzczBgGVxysopdHEcBLZbusk2,2.0,images/choice_trial_16.png,images/choice_trial_4.png,images/pattern_4.png,f,j,7000.0,16.0,4.0,3.0,1.0,37.0,1.0,0.0,4.0,140.0,,,,,,63e4bb5f5db4ae5ba8d51578,16:54:40,27/03/2024
html-keyboard-response,205,407082,0.0-85.0-1.0,,"<div style=""display: flex; flex-direction: column; align-items: center; margin-top: -40px;""><img src=""images/pattern_4.png"" style=""width: 234px; height: 230px; margin-top: -50px;""><div style=""display: flex; justify-content: space-between; margin-top: 33px;""><img src=""images/choice_trial_4.png"" style=""width: 408px; height: 417px; margin-left:608px;""></div></div>",,delaylearn,learning,display_response,ILBtzczBgGVxysopdHEcBLZbusk2,ILBtzczBgGVxysopdHEcBLZbusk2,,,,,,,,,,,,,,,,,chosen stimuli: images/choice_trial_4.png,,,,,63e4bb5f5db4ae5ba8d51578,16:54:40,27/03/2024
html-keyboard-response,206,414083,0.0-85.0-2.0,,,,delaylearn,learning,feedback_duration_window,ILBtzczBgGVxysopdHEcBLZbusk2,ILBtzczBgGVxysopdHEcBLZbusk2,,,,,,,,,,,,,,,,,,7000.0,,,,63e4bb5f5db4ae5ba8d51578,16:54:40,27/03/2024
html-keyboard-response,207,415598,0.0-85.0-3.0,,<div style='margin:auto;width: auto; font-size: 150%'><span style='font-weight: bold; font-size: 100px; color: red;'>0 points!</span><br><br></div>,,delaylearn,learning,feedback_image_window,ILBtzczBgGVxysopdHEcBLZbusk2,ILBtzczBgGVxysopdHEcBLZbusk2,,,,,,,,,,,,,,,,,,,,,,63e4bb5f5db4ae5ba8d51578,16:54:40,27/03/2024
html-keyboard-response,208,417833,0.0-86.0,,"<div style=""font-size:100px;"">+</div>",,delaylearn,learning,ITI,ILBtzczBgGVxysopdHEcBLZbusk2,ILBtzczBgGVxysopdHEcBLZbusk2,,,,,,,,,,,,,,,,,,,2220.0,,,63e4bb5f5db4ae5ba8d51578,16:54:40,27/03/2024
html-keyboard-response,209,418470,0.0-87.0-0.0,634.6999998092651,"<div style=""display: flex; flex-direction: column; align-items: center; margin-top: -40px;""><img src=""images/pattern_7.png"" style=""width: 234px; height: 230px; margin-top: -50px;""><div style=""display: flex; justify-content: space-between; margin-top: 33px;""><img src=""images/choice_trial_8.png"" style=""width: 408px; height: 417px; margin-right: 200px;""><img src=""images/choice_trial_15.png"" style=""width: 408px; height: 417px;""></div></div>",j,delaylearn,learning,trial,ILBtzczBgGVxysopdHEcBLZbusk2,ILBtzczBgGVxysopdHEcBLZbusk2,2.0,images/choice_trial_8.png,images/choice_trial_15.png,images/pattern_7.png,f,f,750.0,8.0,15.0,6.0,0.0,38.0,0.0,0.0,15.0,140.0,,,,,,63e4bb5f5db4ae5ba8d51578,16:54:40,27/03/2024
html-keyboard-response,210,419487,0.0-87.0-1.0,,"<div style=""display: flex; flex-direction: column; align-items: center; margin-top: -40px;""><img src=""images/pattern_7.png"" style=""width: 234px; height: 230px; margin-top: -50px;""><div style=""display: flex; justify-content: space-between; margin-top: 33px;""><img src=""images/choice_trial_15.png"" style=""width: 408px; height: 417px; margin-left:608px;""></div></div>",,delaylearn,learning,display_response,ILBtzczBgGVxysopdHEcBLZbusk2,ILBtzczBgGVxysopdHEcBLZbusk2,,,,,,,,,,,,,,,,,chosen stimuli: images/choice_trial_15.png,,,,,63e4bb5f5db4ae5ba8d51578,16:54:40,27/03/2024
html-keyboard-response,211,420247,0.0-87.0-2.0,,,,delaylearn,learning,feedback_duration_window,ILBtzczBgGVxysopdHEcBLZbusk2,ILBtzczBgGVxysopdHEcBLZbusk2,,,,,,,,,,,,,,,,,,750.0,,,,63e4bb5f5db4ae5ba8d51578,16:54:40,27/03/2024
html-keyboard-response,212,421764,0.0-87.0-3.0,,<div style='margin:auto;width: auto; font-size: 150%'><span style='font-weight: bold; font-size: 100px; color: red;'>0 points!</span><br><br></div>,,delaylearn,learning,feedback_image_window,ILBtzczBgGVxysopdHEcBLZbusk2,ILBtzczBgGVxysopdHEcBLZbusk2,,,,,,,,,,,,,,,,,,,,,,63e4bb5f5db4ae5ba8d51578,16:54:40,27/03/2024
html-keyboard-response,213,423610,0.0-88.0,,"<div style=""font-size:100px;"">+</div>",,delaylearn,learning,ITI,ILBtzczBgGVxysopdHEcBLZbusk2,ILBtzczBgGVxysopdHEcBLZbusk2,,,,,,,,,,,,,,,,,,,1835.0,,,63e4bb5f5db4ae5ba8d51578,16:54:40,27/03/2024
html-keyboard-response,214,424135,0.0-89.0-0.0,522.2000000476837,"<div style=""display: flex; flex-direction: column; align-items: center; margin-top: -40px;""><img src=""images/pattern_1.png"" style=""width: 234px; height: 230px; margin-top: -50px;""><div style=""display: flex; justify-content: space-between; margin-top: 33px;""><img src=""images/choice_trial_3.png"" style=""width: 408px; height: 417px; margin-right: 200px;""><img src=""images/choice_trial_10.png"" style=""width: 408px; height: 417px;""></div></div>",j,delaylearn,learning,trial,ILBtzczBgGVxysopdHEcBLZbusk2,ILBtzczBgGVxysopdHEcBLZbusk2,2.0,images/choice_trial_3.png,images/choice_trial_10.png,images/pattern_1.png,f,f,7000.0,3.0,10.0,1.0,0.0,39.0,0.0,0.0,10.0,140.0,,,,,,63e4bb5f5db4ae5ba8d51578,16:54:40,27/03/2024
html-keyboard-response,215,425146,0.0-89.0-1.0,,"<div style=""display: flex; flex-direction: column; align-items: center; margin-top: -40px;""><img src=""images/pattern_1.png"" style=""width: 234px; height: 230px; margin-top: -50px;""><div style=""display: flex; justify-content: space-between; margin-top: 33px;""><img src=""images/choice_trial_10.png"" style=""width: 408px; height: 417px; margin-left:608px;""></div></div>",,delaylearn,learning,display_response,ILBtzczBgGVxysopdHEcBLZbusk2,ILBtzczBgGVxysopdHEcBLZbusk2,,,,,,,,,,,,,,,,,chosen stimuli: images/choice_trial_10.png,,,,,63e4bb5f5db4ae5ba8d51578,16:54:40,27/03/2024
html-keyboard-response,216,432152,0.0-89.0-2.0,,,,delaylearn,learning,feedback_duration_window,ILBtzczBgGVxysopdHEcBLZbusk2,ILBtzczBgGVxysopdHEcBLZbusk2,,,,,,,,,,,,,,,,,,7000.0,,,,63e4bb5f5db4ae5ba8d51578,16:54:40,27/03/2024
html-keyboard-response,217,433662,0.0-89.0-3.0,,<div style='margin:auto;width: auto; font-size: 150%'><span style='font-weight: bold; font-size: 100px; color: red;'>0 points!</span><br><br></div>,,delaylearn,learning,feedback_image_window,ILBtzczBgGVxysopdHEcBLZbusk2,ILBtzczBgGVxysopdHEcBLZbusk2,,,,,,,,,,,,,,,,,,,,,,63e4bb5f5db4ae5ba8d51578,16:54:40,27/03/2024
html-keyboard-response,218,434165,0.0-90.0-0.0,,,,,,mood_trial_fixation,ILBtzczBgGVxysopdHEcBLZbusk2,,,,,,,,,,,,,,,,,,,,,,,63e4bb5f5db4ae5ba8d51578,16:54:40,27/03/2024
lmdlab-html-vas-response,219,438371,0.0-90.0-1.0,3191.0,How happy are you right now?,0.2916666666666667,delaylearn,learning,mood_trial,ILBtzczBgGVxysopdHEcBLZbusk2,ILBtzczBgGVxysopdHEcBLZbusk2,,,,,,,,,,,,,,,,,,,,"['Very unhappy', 'Very happy']",,63e4bb5f5db4ae5ba8d51578,16:54:40,27/03/2024
html-keyboard-response,220,440377,0.0-91.0,,"<div style=""font-size:100px;"">+</div>",,delaylearn,learning,ITI,ILBtzczBgGVxysopdHEcBLZbusk2,ILBtzczBgGVxysopdHEcBLZbusk2,,,,,,,,,,,,,,,,,,,1998.0,,,63e4bb5f5db4ae5ba8d51578,16:54:40,27/03/2024
html-keyboard-response,221,440790,0.0-92.0-0.0,410.5,"<div style=""display: flex; flex-direction: column; align-items: center; margin-top: -40px;""><img src=""images/pattern_3.png"" style=""width: 234px; height: 230px; margin-top: -50px;""><div style=""display: flex; justify-content: space-between; margin-top: 33px;""><img src=""images/choice_trial_12.png"" style=""width: 408px; height: 417px; margin-right: 200px;""><img src=""images/choice_trial_14.png"" style=""width: 408px; height: 417px;""></div></div>",j,delaylearn,learning,trial,ILBtzczBgGVxysopdHEcBLZbusk2,ILBtzczBgGVxysopdHEcBLZbusk2,2.0,images/choice_trial_12.png,images/choice_trial_14.png,images/pattern_3.png,j,f,7000.0,12.0,14.0,2.0,0.0,40.0,0.0,1.0,14.0,150.0,,,,,,63e4bb5f5db4ae5ba8d51578,16:54:40,27/03/2024
html-keyboard-response,222,441799,0.0-92.0-1.0,,"<div style=""display: flex; flex-direction: column; align-items: center; margin-top: -40px;""><img src=""images/pattern_3.png"" style=""width: 234px; height: 230px; margin-top: -50px;""><div style=""display: flex; justify-content: space-between; margin-top: 33px;""><img src=""images/choice_trial_14.png"" style=""width: 408px; height: 417px; margin-left:608px;""></div></div>",,delaylearn,learning,display_response,ILBtzczBgGVxysopdHEcBLZbusk2,ILBtzczBgGVxysopdHEcBLZbusk2,,,,,,,,,,,,,,,,,chosen stimuli: images/choice_trial_14.png,,,,,63e4bb5f5db4ae5ba8d51578,16:54:40,27/03/2024
html-keyboard-response,223,448800,0.0-92.0-2.0,,,,delaylearn,learning,feedback_duration_window,ILBtzczBgGVxysopdHEcBLZbusk2,ILBtzczBgGVxysopdHEcBLZbusk2,,,,,,,,,,,,,,,,,,7000.0,,,,63e4bb5f5db4ae5ba8d51578,16:54:40,27/03/2024
html-keyboard-response,224,450313,0.0-92.0-3.0,,<div style='margin:auto;width: auto; font-size: 150%'><span style='font-weight: bold; font-size: 100px; color: green;'>+10 points!</span><br><br></div>,,delaylearn,learning,feedback_image_window,ILBtzczBgGVxysopdHEcBLZbusk2,ILBtzczBgGVxysopdHEcBLZbusk2,,,,,,,,,,,,,,,,,,,,,,63e4bb5f5db4ae5ba8d51578,16:54:40,27/03/2024
html-keyboard-response,225,452206,0.0-93.0,,"<div style=""font-size:100px;"">+</div>",,delaylearn,learning,ITI,ILBtzczBgGVxysopdHEcBLZbusk2,ILBtzczBgGVxysopdHEcBLZbusk2,,,,,,,,,,,,,,,,,,,1886.0,,,63e4bb5f5db4ae5ba8d51578,16:54:40,27/03/2024
html-keyboard-response,226,453212,0.0-94.0-0.0,1003.2999999523163,"<div style=""display: flex; flex-direction: column; align-items: center; margin-top: -40px;""><img src=""images/pattern_7.png"" style=""width: 234px; height: 230px; margin-top: -50px;""><div style=""display: flex; justify-content: space-between; margin-top: 33px;""><img src=""images/choice_trial_15.png"" style=""width: 408px; height: 417px; margin-right: 200px;""><img src=""images/choice_trial_8.png"" style=""width: 408px; height: 417px;""></div></div>",f,delaylearn,learning,trial,ILBtzczBgGVxysopdHEcBLZbusk2,ILBtzczBgGVxysopdHEcBLZbusk2,2.0,images/choice_trial_15.png,images/choice_trial_8.png,images/pattern_7.png,j,j,750.0,15.0,8.0,6.0,1.0,41.0,0.0,0.0,15.0,150.0,,,,,,63e4bb5f5db4ae5ba8d51578,16:54:40,27/03/2024
html-keyboard-response,227,454215,0.0-94.0-1.0,,"<div style=""display: flex; flex-direction: column; align-items: center; margin-top: -40px;""><img src=""images/pattern_7.png"" style=""width: 234px; height: 230px; margin-top: -50px;""><div style=""display: flex; justify-content: space-between; margin-top: 33px;""><img src=""images/choice_trial_15.png"" style=""width: 408px; height: 417px; margin-right: 608px;""></div></div>",,delaylearn,learning,display_response,ILBtzczBgGVxysopdHEcBLZbusk2,ILBtzczBgGVxysopdHEcBLZbusk2,,,,,,,,,,,,,,,,,chosen stimuli: images/choice_trial_15.png,,,,,63e4bb5f5db4ae5ba8d51578,16:54:40,27/03/2024
html-keyboard-response,228,454980,0.0-94.0-2.0,,,,delaylearn,learning,feedback_duration_window,ILBtzczBgGVxysopdHEcBLZbusk2,ILBtzczBgGVxysopdHEcBLZbusk2,,,,,,,,,,,,,,,,,,750.0,,,,63e4bb5f5db4ae5ba8d51578,16:54:40,27/03/2024
html-keyboard-response,229,456497,0.0-94.0-3.0,,<div style='margin:auto;width: auto; font-size: 150%'><span style='font-weight: bold; font-size: 100px; color: red;'>0 points!</span><br><br></div>,,delaylearn,learning,feedback_image_window,ILBtzczBgGVxysopdHEcBLZbusk2,ILBtzczBgGVxysopdHEcBLZbusk2,,,,,,,,,,,,,,,,,,,,,,63e4bb5f5db4ae5ba8d51578,16:54:40,27/03/2024
html-keyboard-response,230,458701,0.0-95.0,,"<div style=""font-size:100px;"">+</div>",,delaylearn,learning,ITI,ILBtzczBgGVxysopdHEcBLZbusk2,ILBtzczBgGVxysopdHEcBLZbusk2,,,,,,,,,,,,,,,,,,,2194.0,,,63e4bb5f5db4ae5ba8d51578,16:54:40,27/03/2024
