trial_type,trial_index,time_elapsed,internal_node_id,rt,stimulus,response,exp_name,exp_stage,test_part,subjectID,databaseID,counterbal,choice_stimuli_1,choice_stimuli_2,pattern_stimuli,rewarded_answer,correct_answer,feedback_duration_times,stim_left,stim_right,pair,leftright_counter,trial,response_correct,response_rewarded,chosen_stim,counter,displayed_choice,feedback_durations,ITI_duration,labels,rest_warning,prolificID,start_time,date
pavlovia,0,432,0.0-0.0,,,,,,,b91UXRcoLLhRNrDLu4ArCIoK8ID2,,,,,,,,,,,,,,,,,,,,,,,63d8c185bbfa79d8246dd97b,16:55:24,27/03/2024
html-keyboard-response,1,3443,0.0-1.0,,"<div style=""font-size:100px;"">+</div>",,delaylearn,learning,pre_fixation,b91UXRcoLLhRNrDLu4ArCIoK8ID2,,,,,,,,,,,,,,,,,,,,,,,63d8c185bbfa79d8246dd97b,16:55:24,27/03/2024
html-keyboard-response,2,4332,0.0-2.0-0.0,888.8999999999069,"<div style=""display: flex; flex-direction: column; align-items: center; margin-top: -40px;""><img src=""images/demo_images/pattern_1.png"" style=""width: 234px; height: 230px; margin-top: -50px;""><div style=""display: flex; justify-content: space-between; margin-top: 33px;""><img src=""images/demo_images/choice_trial_2.png"" style=""width: 408px; height: 417px; margin-right: 200px;""><img src=""images/demo_images/choice_trial_1.png"" style=""width: 408px; height: 417px;""></div></div>",j,delaylearn,learning,trial,b91UXRcoLLhRNrDLu4ArCIoK8ID2,b91UXRcoLLhRNrDLu4ArCIoK8ID2,4.0,images/demo_images/choice_trial_2.png,images/demo_images/choice_trial_1.png,images/demo_images/pattern_1.png,j,j,3000.0,2.0,1.0,20.0,1.0,1.0,1.0,1.0,1.0,10.0,,,,,,63d8c185bbfa79d8246dd97b,16:55:24,27/03/2024
html-keyboard-response,3,5337,0.0-2.0-1.0,,"<div style=""display: flex; flex-direction: column; align-items: center; margin-top: -40px;""><img src=""images/demo_images/pattern_1.png"" style=""width: 234px; height: 230px; margin-top: -50px;""><div style=""display: flex; justify-content: space-between; margin-top: 33px;""><img src=""images/demo_images/choice_trial_1.png"" style=""width: 408px; height: 417px; margin-left:608px;""></div></div>",,delaylearn,learning,display_response,b91UXRcoLLhRNrDLu4ArCIoK8ID2,b91UXRcoLLhRNrDLu4ArCIoK8ID2,,,,,,,,,,,,,,,,,chosen stimuli: images/demo_images/choice_trial_1.png,,,,,63d8c185bbfa79d8246dd97b,16:55:24,27/03/2024
html-keyboard-response,4,8352,0.0-2.0-2.0,,,,delaylearn,learning,feedback_duration_window,b91UXRcoLLhRNrDLu4ArCIoK8ID2,b91UXRcoLLhRNrDLu4ArCIoK8ID2,,,,,,,,,,,,,,,,,,3000.0,,,,63d8c185bbfa79d8246dd97b,16:55:24,27/03/2024
html-keyboard-response,5,9860,0.0-2.0-3.0,,<div style='margin:auto;width: auto; font-size: 150%'><span style='font-weight: bold; font-size: 100px; color: green;'>+10 points!</span><br><br></div>,,delaylearn,learning,feedback_image_window,b91UXRcoLLhRNrDLu4ArCIoK8ID2,b91UXRcoLLhRNrDLu4ArCIoK8ID2,,,,,,,,,,,,,,,,,,,,,,63d8c185bbfa79d8246dd97b,16:55:24,27/03/2024
html-keyboard-response,6,12308,0.0-3.0,,"<div style=""font-size:100px;"">+</div>",,delaylearn,learning,ITI,b91UXRcoLLhRNrDLu4ArCIoK8ID2,b91UXRcoLLhRNrDLu4ArCIoK8ID2,,,,,,,,,,,,,,,,,,,2440.0,,,63d8c185bbfa79d8246dd97b,16:55:24,27/03/2024
html-keyboard-response,7,13786,0.0-4.0-0.0,1476.7000000001863,"<div style=""display: flex; flex-direction: column; align-items: center; margin-top: -40px;""><img src=""images/demo_images/pattern_1.png"" style=""width: 234px; height: 230px; margin-top: -50px;""><div style=""display: flex; justify-content: space-between; margin-top: 33px;""><img src=""images/demo_images/choice_trial_2.png"" style=""width: 408px; height: 417px; margin-right: 200px;""><img src=""images/demo_images/choice_trial_1.png"" style=""width: 408px; height: 417px;""></div></div>",f,delaylearn,learning,trial,b91UXRcoLLhRNrDLu4ArCIoK8ID2,b91UXRcoLLhRNrDLu4ArCIoK8ID2,4.0,images/demo_images/choice_trial_2.png,images/demo_images/choice_trial_1.png,images/demo_images/pattern_1.png,j,j,3000.0,2.0,1.0,20.0,1.0,2.0,0.0,0.0,2.0,10.0,,,,,,63d8c185bbfa79d8246dd97b,16:55:24,27/03/2024
html-keyboard-response,8,14799,0.0-4.0-1.0,,"<div style=""display: flex; flex-direction: column; align-items: center; margin-top: -40px;""><img src=""images/demo_images/pattern_1.png"" style=""width: 234px; height: 230px; margin-top: -50px;""><div style=""display: flex; justify-content: space-between; margin-top: 33px;""><img src=""images/demo_images/choice_trial_2.png"" style=""width: 408px; height: 417px; margin-right: 608px;""></div></div>",,delaylearn,learning,display_response,b91UXRcoLLhRNrDLu4ArCIoK8ID2,b91UXRcoLLhRNrDLu4ArCIoK8ID2,,,,,,,,,,,,,,,,,chosen stimuli: images/demo_images/choice_trial_2.png,,,,,63d8c185bbfa79d8246dd97b,16:55:24,27/03/2024
html-keyboard-response,9,17815,0.0-4.0-2.0,,,,delaylearn,learning,feedback_duration_window,b91UXRcoLLhRNrDLu4ArCIoK8ID2,b91UXRcoLLhRNrDLu4ArCIoK8ID2,,,,,,,,,,,,,,,,,,3000.0,,,,63d8c185bbfa79d8246dd97b,16:55:24,27/03/2024
html-keyboard-response,10,19321,0.0-4.0-3.0,,<div style='margin:auto;width: auto; font-size: 150%'><span style='font-weight: bold; font-size: 100px; color: red;'>0 points!</span><br><br></div>,,delaylearn,learning,feedback_image_window,b91UXRcoLLhRNrDLu4ArCIoK8ID2,b91UXRcoLLhRNrDLu4ArCIoK8ID2,,,,,,,,,,,,,,,,,,,,,,63d8c185bbfa79d8246dd97b,16:55:24,27/03/2024
html-keyboard-response,11,20984,0.0-5.0,,"<div style=""font-size:100px;"">+</div>",,delaylearn,learning,ITI,b91UXRcoLLhRNrDLu4ArCIoK8ID2,b91UXRcoLLhRNrDLu4ArCIoK8ID2,,,,,,,,,,,,,,,,,,,1655.0,,,63d8c185bbfa79d8246dd97b,16:55:24,27/03/2024
html-keyboard-response,12,21708,0.0-6.0-0.0,723.1999999997206,"<div style=""display: flex; flex-direction: column; align-items: center; margin-top: -40px;""><img src=""images/demo_images/pattern_1.png"" style=""width: 234px; height: 230px; margin-top: -50px;""><div style=""display: flex; justify-content: space-between; margin-top: 33px;""><img src=""images/demo_images/choice_trial_1.png"" style=""width: 408px; height: 417px; margin-right: 200px;""><img src=""images/demo_images/choice_trial_2.png"" style=""width: 408px; height: 417px;""></div></div>",f,delaylearn,learning,trial,b91UXRcoLLhRNrDLu4ArCIoK8ID2,b91UXRcoLLhRNrDLu4ArCIoK8ID2,4.0,images/demo_images/choice_trial_1.png,images/demo_images/choice_trial_2.png,images/demo_images/pattern_1.png,j,f,3000.0,1.0,2.0,20.0,0.0,3.0,1.0,0.0,1.0,10.0,,,,,,63d8c185bbfa79d8246dd97b,16:55:24,27/03/2024
html-keyboard-response,13,22710,0.0-6.0-1.0,,"<div style=""display: flex; flex-direction: column; align-items: center; margin-top: -40px;""><img src=""images/demo_images/pattern_1.png"" style=""width: 234px; height: 230px; margin-top: -50px;""><div style=""display: flex; justify-content: space-between; margin-top: 33px;""><img src=""images/demo_images/choice_trial_1.png"" style=""width: 408px; height: 417px; margin-right: 608px;""></div></div>",,delaylearn,learning,display_response,b91UXRcoLLhRNrDLu4ArCIoK8ID2,b91UXRcoLLhRNrDLu4ArCIoK8ID2,,,,,,,,,,,,,,,,,chosen stimuli: images/demo_images/choice_trial_1.png,,,,,63d8c185bbfa79d8246dd97b,16:55:24,27/03/2024
html-keyboard-response,14,25711,0.0-6.0-2.0,,,,delaylearn,learning,feedback_duration_window,b91UXRcoLLhRNrDLu4ArCIoK8ID2,b91UXRcoLLhRNrDLu4ArCIoK8ID2,,,,,,,,,,,,,,,,,,3000.0,,,,63d8c185bbfa79d8246dd97b,16:55:24,27/03/2024
html-keyboard-response,15,27218,0.0-6.0-3.0,,<div style='margin:auto;width: auto; font-size: 150%'><span style='font-weight: bold; font-size: 100px; color: red;'>0 points!</span><br><br></div>,,delaylearn,learning,feedback_image_window,b91UXRcoLLhRNrDLu4ArCIoK8ID2,b91UXRcoLLhRNrDLu4ArCIoK8ID2,,,,,,,,,,,,,,,,,,,,,,63d8c185bbfa79d8246dd97b,16:55:24,27/03/2024
html-keyboard-response,16,29034,0.0-7.0,,"<div style=""font-size:100px;"">+</div>",,delaylearn,learning,ITI,b91UXRcoLLhRNrDLu4ArCIoK8ID2,b91UXRcoLLhRNrDLu4ArCIoK8ID2,,,,,,,,,,,,,,,,,,,1811.0,,,63d8c185bbfa79d8246dd97b,16:55:24,27/03/2024
html-keyboard-response,17,30028,0.0-8.0-0.0,993.8999999999069,"<div style=""display: flex; flex-direction: column; align-items: center; margin-top: -40px;""><img src=""images/demo_images/pattern_1.png"" style=""width: 234px; height: 230px; margin-top: -50px;""><div style=""display: flex; justify-content: space-between; margin-top: 33px;""><img src=""images/demo_images/choice_trial_1.png"" style=""width: 408px; height: 417px; margin-right: 200px;""><img src=""images/demo_images/choice_trial_2.png"" style=""width: 408px; height: 417px;""></div></div>",j,delaylearn,learning,trial,b91UXRcoLLhRNrDLu4ArCIoK8ID2,b91UXRcoLLhRNrDLu4ArCIoK8ID2,4.0,images/demo_images/choice_trial_1.png,images/demo_images/choice_trial_2.png,images/demo_images/pattern_1.png,f,f,3000.0,1.0,2.0,20.0,0.0,4.0,0.0,0.0,2.0,10.0,,,,,,63d8c185bbfa79d8246dd97b,16:55:24,27/03/2024
html-keyboard-response,18,31035,0.0-8.0-1.0,,"<div style=""display: flex; flex-direction: column; align-items: center; margin-top: -40px;""><img src=""images/demo_images/pattern_1.png"" style=""width: 234px; height: 230px; margin-top: -50px;""><div style=""display: flex; justify-content: space-between; margin-top: 33px;""><img src=""images/demo_images/choice_trial_2.png"" style=""width: 408px; height: 417px; margin-left:608px;""></div></div>",,delaylearn,learning,display_response,b91UXRcoLLhRNrDLu4ArCIoK8ID2,b91UXRcoLLhRNrDLu4ArCIoK8ID2,,,,,,,,,,,,,,,,,chosen stimuli: images/demo_images/choice_trial_2.png,,,,,63d8c185bbfa79d8246dd97b,16:55:24,27/03/2024
html-keyboard-response,19,34050,0.0-8.0-2.0,,,,delaylearn,learning,feedback_duration_window,b91UXRcoLLhRNrDLu4ArCIoK8ID2,b91UXRcoLLhRNrDLu4ArCIoK8ID2,,,,,,,,,,,,,,,,,,3000.0,,,,63d8c185bbfa79d8246dd97b,16:55:24,27/03/2024
html-keyboard-response,20,35556,0.0-8.0-3.0,,<div style='margin:auto;width: auto; font-size: 150%'><span style='font-weight: bold; font-size: 100px; color: red;'>0 points!</span><br><br></div>,,delaylearn,learning,feedback_image_window,b91UXRcoLLhRNrDLu4ArCIoK8ID2,b91UXRcoLLhRNrDLu4ArCIoK8ID2,,,,,,,,,,,,,,,,,,,,,,63d8c185bbfa79d8246dd97b,16:55:24,27/03/2024
html-keyboard-response,21,36064,0.0-9.0-0.0,,,,,,mood_trial_fixation,b91UXRcoLLhRNrDLu4ArCIoK8ID2,,,,,,,,,,,,,,,,,,,,,,,63d8c185bbfa79d8246dd97b,16:55:24,27/03/2024
lmdlab-html-vas-response,22,40516,0.0-9.0-1.0,3445.0,How happy are you right now?,0.4074074074074074,delaylearn,learning,mood_trial,b91UXRcoLLhRNrDLu4ArCIoK8ID2,b91UXRcoLLhRNrDLu4ArCIoK8ID2,,,,,,,,,,,,,,,,,,,,"['Very unhappy', 'Very happy']",,63d8c185bbfa79d8246dd97b,16:55:24,27/03/2024
html-keyboard-response,23,42208,0.0-10.0,,"<div style=""font-size:100px;"">+</div>",,delaylearn,learning,ITI,b91UXRcoLLhRNrDLu4ArCIoK8ID2,b91UXRcoLLhRNrDLu4ArCIoK8ID2,,,,,,,,,,,,,,,,,,,1684.0,,,63d8c185bbfa79d8246dd97b,16:55:24,27/03/2024
html-keyboard-response,24,43516,0.0-11.0-0.0,1307.6999999997206,"<div style=""display: flex; flex-direction: column; align-items: center; margin-top: -40px;""><img src=""images/demo_images/pattern_1.png"" style=""width: 234px; height: 230px; margin-top: -50px;""><div style=""display: flex; justify-content: space-between; margin-top: 33px;""><img src=""images/demo_images/choice_trial_2.png"" style=""width: 408px; height: 417px; margin-right: 200px;""><img src=""images/demo_images/choice_trial_1.png"" style=""width: 408px; height: 417px;""></div></div>",j,delaylearn,learning,trial,b91UXRcoLLhRNrDLu4ArCIoK8ID2,b91UXRcoLLhRNrDLu4ArCIoK8ID2,4.0,images/demo_images/choice_trial_2.png,images/demo_images/choice_trial_1.png,images/demo_images/pattern_1.png,j,j,3000.0,2.0,1.0,20.0,1.0,5.0,1.0,1.0,1.0,20.0,,,,,,63d8c185bbfa79d8246dd97b,16:55:24,27/03/2024
html-keyboard-response,25,44530,0.0-11.0-1.0,,"<div style=""display: flex; flex-direction: column; align-items: center; margin-top: -40px;""><img src=""images/demo_images/pattern_1.png"" style=""width: 234px; height: 230px; margin-top: -50px;""><div style=""display: flex; justify-content: space-between; margin-top: 33px;""><img src=""images/demo_images/choice_trial_1.png"" style=""width: 408px; height: 417px; margin-left:608px;""></div></div>",,delaylearn,learning,display_response,b91UXRcoLLhRNrDLu4ArCIoK8ID2,b91UXRcoLLhRNrDLu4ArCIoK8ID2,,,,,,,,,,,,,,,,,chosen stimuli: images/demo_images/choice_trial_1.png,,,,,63d8c185bbfa79d8246dd97b,16:55:24,27/03/2024
html-keyboard-response,26,47543,0.0-11.0-2.0,,,,delaylearn,learning,feedback_duration_window,b91UXRcoLLhRNrDLu4ArCIoK8ID2,b91UXRcoLLhRNrDLu4ArCIoK8ID2,,,,,,,,,,,,,,,,,,3000.0,,,,63d8c185bbfa79d8246dd97b,16:55:24,27/03/2024
html-keyboard-response,27,49048,0.0-11.0-3.0,,<div style='margin:auto;width: auto; font-size: 150%'><span style='font-weight: bold; font-size: 100px; color: green;'>+10 points!</span><br><br></div>,,delaylearn,learning,feedback_image_window,b91UXRcoLLhRNrDLu4ArCIoK8ID2,b91UXRcoLLhRNrDLu4ArCIoK8ID2,,,,,,,,,,,,,,,,,,,,,,63d8c185bbfa79d8246dd97b,16:55:24,27/03/2024
html-keyboard-response,28,51250,0.0-12.0,,"<div style=""font-size:100px;"">+</div>",,delaylearn,learning,ITI,b91UXRcoLLhRNrDLu4ArCIoK8ID2,b91UXRcoLLhRNrDLu4ArCIoK8ID2,,,,,,,,,,,,,,,,,,,2194.0,,,63d8c185bbfa79d8246dd97b,16:55:24,27/03/2024
html-keyboard-response,29,52424,0.0-13.0-0.0,1173.7000000001863,"<div style=""display: flex; flex-direction: column; align-items: center; margin-top: -40px;""><img src=""images/demo_images/pattern_1.png"" style=""width: 234px; height: 230px; margin-top: -50px;""><div style=""display: flex; justify-content: space-between; margin-top: 33px;""><img src=""images/demo_images/choice_trial_1.png"" style=""width: 408px; height: 417px; margin-right: 200px;""><img src=""images/demo_images/choice_trial_2.png"" style=""width: 408px; height: 417px;""></div></div>",f,delaylearn,learning,trial,b91UXRcoLLhRNrDLu4ArCIoK8ID2,b91UXRcoLLhRNrDLu4ArCIoK8ID2,4.0,images/demo_images/choice_trial_1.png,images/demo_images/choice_trial_2.png,images/demo_images/pattern_1.png,f,f,3000.0,1.0,2.0,20.0,0.0,6.0,1.0,1.0,1.0,30.0,,,,,,63d8c185bbfa79d8246dd97b,16:55:24,27/03/2024
html-keyboard-response,30,53431,0.0-13.0-1.0,,"<div style=""display: flex; flex-direction: column; align-items: center; margin-top: -40px;""><img src=""images/demo_images/pattern_1.png"" style=""width: 234px; height: 230px; margin-top: -50px;""><div style=""display: flex; justify-content: space-between; margin-top: 33px;""><img src=""images/demo_images/choice_trial_1.png"" style=""width: 408px; height: 417px; margin-right: 608px;""></div></div>",,delaylearn,learning,display_response,b91UXRcoLLhRNrDLu4ArCIoK8ID2,b91UXRcoLLhRNrDLu4ArCIoK8ID2,,,,,,,,,,,,,,,,,chosen stimuli: images/demo_images/choice_trial_1.png,,,,,63d8c185bbfa79d8246dd97b,16:55:24,27/03/2024
html-keyboard-response,31,56447,0.0-13.0-2.0,,,,delaylearn,learning,feedback_duration_window,b91UXRcoLLhRNrDLu4ArCIoK8ID2,b91UXRcoLLhRNrDLu4ArCIoK8ID2,,,,,,,,,,,,,,,,,,3000.0,,,,63d8c185bbfa79d8246dd97b,16:55:24,27/03/2024
html-keyboard-response,32,57955,0.0-13.0-3.0,,<div style='margin:auto;width: auto; font-size: 150%'><span style='font-weight: bold; font-size: 100px; color: green;'>+10 points!</span><br><br></div>,,delaylearn,learning,feedback_image_window,b91UXRcoLLhRNrDLu4ArCIoK8ID2,b91UXRcoLLhRNrDLu4ArCIoK8ID2,,,,,,,,,,,,,,,,,,,,,,63d8c185bbfa79d8246dd97b,16:55:24,27/03/2024
html-keyboard-response,33,59618,0.0-14.0,,"<div style=""font-size:100px;"">+</div>",,delaylearn,learning,ITI,b91UXRcoLLhRNrDLu4ArCIoK8ID2,b91UXRcoLLhRNrDLu4ArCIoK8ID2,,,,,,,,,,,,,,,,,,,1658.0,,,63d8c185bbfa79d8246dd97b,16:55:24,27/03/2024
html-keyboard-response,34,60387,0.0-15.0-0.0,768.2000000001863,"<div style=""display: flex; flex-direction: column; align-items: center; margin-top: -40px;""><img src=""images/demo_images/pattern_1.png"" style=""width: 234px; height: 230px; margin-top: -50px;""><div style=""display: flex; justify-content: space-between; margin-top: 33px;""><img src=""images/demo_images/choice_trial_2.png"" style=""width: 408px; height: 417px; margin-right: 200px;""><img src=""images/demo_images/choice_trial_1.png"" style=""width: 408px; height: 417px;""></div></div>",j,delaylearn,learning,trial,b91UXRcoLLhRNrDLu4ArCIoK8ID2,b91UXRcoLLhRNrDLu4ArCIoK8ID2,4.0,images/demo_images/choice_trial_2.png,images/demo_images/choice_trial_1.png,images/demo_images/pattern_1.png,j,j,3000.0,2.0,1.0,20.0,1.0,7.0,1.0,1.0,1.0,40.0,,,,,,63d8c185bbfa79d8246dd97b,16:55:24,27/03/2024
html-keyboard-response,35,61390,0.0-15.0-1.0,,"<div style=""display: flex; flex-direction: column; align-items: center; margin-top: -40px;""><img src=""images/demo_images/pattern_1.png"" style=""width: 234px; height: 230px; margin-top: -50px;""><div style=""display: flex; justify-content: space-between; margin-top: 33px;""><img src=""images/demo_images/choice_trial_1.png"" style=""width: 408px; height: 417px; margin-left:608px;""></div></div>",,delaylearn,learning,display_response,b91UXRcoLLhRNrDLu4ArCIoK8ID2,b91UXRcoLLhRNrDLu4ArCIoK8ID2,,,,,,,,,,,,,,,,,chosen stimuli: images/demo_images/choice_trial_1.png,,,,,63d8c185bbfa79d8246dd97b,16:55:24,27/03/2024
html-keyboard-response,36,64405,0.0-15.0-2.0,,,,delaylearn,learning,feedback_duration_window,b91UXRcoLLhRNrDLu4ArCIoK8ID2,b91UXRcoLLhRNrDLu4ArCIoK8ID2,,,,,,,,,,,,,,,,,,3000.0,,,,63d8c185bbfa79d8246dd97b,16:55:24,27/03/2024
html-keyboard-response,37,65908,0.0-15.0-3.0,,<div style='margin:auto;width: auto; font-size: 150%'><span style='font-weight: bold; font-size: 100px; color: green;'>+10 points!</span><br><br></div>,,delaylearn,learning,feedback_image_window,b91UXRcoLLhRNrDLu4ArCIoK8ID2,b91UXRcoLLhRNrDLu4ArCIoK8ID2,,,,,,,,,,,,,,,,,,,,,,63d8c185bbfa79d8246dd97b,16:55:24,27/03/2024
html-keyboard-response,38,67680,0.0-16.0,,"<div style=""font-size:100px;"">+</div>",,delaylearn,learning,ITI,b91UXRcoLLhRNrDLu4ArCIoK8ID2,b91UXRcoLLhRNrDLu4ArCIoK8ID2,,,,,,,,,,,,,,,,,,,1765.0,,,63d8c185bbfa79d8246dd97b,16:55:24,27/03/2024
html-keyboard-response,39,68119,0.0-17.0-0.0,438.5,"<div style=""display: flex; flex-direction: column; align-items: center; margin-top: -40px;""><img src=""images/demo_images/pattern_1.png"" style=""width: 234px; height: 230px; margin-top: -50px;""><div style=""display: flex; justify-content: space-between; margin-top: 33px;""><img src=""images/demo_images/choice_trial_1.png"" style=""width: 408px; height: 417px; margin-right: 200px;""><img src=""images/demo_images/choice_trial_2.png"" style=""width: 408px; height: 417px;""></div></div>",f,delaylearn,learning,trial,b91UXRcoLLhRNrDLu4ArCIoK8ID2,b91UXRcoLLhRNrDLu4ArCIoK8ID2,4.0,images/demo_images/choice_trial_1.png,images/demo_images/choice_trial_2.png,images/demo_images/pattern_1.png,f,f,3000.0,1.0,2.0,20.0,0.0,8.0,1.0,1.0,1.0,50.0,,,,,,63d8c185bbfa79d8246dd97b,16:55:24,27/03/2024
html-keyboard-response,40,69126,0.0-17.0-1.0,,"<div style=""display: flex; flex-direction: column; align-items: center; margin-top: -40px;""><img src=""images/demo_images/pattern_1.png"" style=""width: 234px; height: 230px; margin-top: -50px;""><div style=""display: flex; justify-content: space-between; margin-top: 33px;""><img src=""images/demo_images/choice_trial_1.png"" style=""width: 408px; height: 417px; margin-right: 608px;""></div></div>",,delaylearn,learning,display_response,b91UXRcoLLhRNrDLu4ArCIoK8ID2,b91UXRcoLLhRNrDLu4ArCIoK8ID2,,,,,,,,,,,,,,,,,chosen stimuli: images/demo_images/choice_trial_1.png,,,,,63d8c185bbfa79d8246dd97b,16:55:24,27/03/2024
html-keyboard-response,41,72142,0.0-17.0-2.0,,,,delaylearn,learning,feedback_duration_window,b91UXRcoLLhRNrDLu4ArCIoK8ID2,b91UXRcoLLhRNrDLu4ArCIoK8ID2,,,,,,,,,,,,,,,,,,3000.0,,,,63d8c185bbfa79d8246dd97b,16:55:24,27/03/2024
html-keyboard-response,42,73651,0.0-17.0-3.0,,<div style='margin:auto;width: auto; font-size: 150%'><span style='font-weight: bold; font-size: 100px; color: green;'>+10 points!</span><br><br></div>,,delaylearn,learning,feedback_image_window,b91UXRcoLLhRNrDLu4ArCIoK8ID2,b91UXRcoLLhRNrDLu4ArCIoK8ID2,,,,,,,,,,,,,,,,,,,,,,63d8c185bbfa79d8246dd97b,16:55:24,27/03/2024
html-button-response,43,76868,0.0-18.0,3216.100000000093,"
  <div style=""display: flex; align-items: center; justify-content: center; height: 80vh;"">
  <div>
          <img src=""images/inst_demo_finish.png"" style=""width: 80vw; height:auto;"">
          <br><br>
      </div>
      <br><br>
  </div>",0,,,,b91UXRcoLLhRNrDLu4ArCIoK8ID2,,,,,,,,,,,,,,,,,,,,,,,63d8c185bbfa79d8246dd97b,16:55:24,27/03/2024
html-keyboard-response,44,81902,0.0-19.0,5033.300000000279,"
  <div style=""display: flex; align-items: center; justify-content: center; height: 80vh;"">
  <div>
          <img src=""images/inst_6.png"" style=""width: 80vw; height:auto;"">
          <br><br>
      </div>
      <br><br>
  </div>",f,,,,b91UXRcoLLhRNrDLu4ArCIoK8ID2,,,,,,,,,,,,,,,,,,,,,,,63d8c185bbfa79d8246dd97b,16:55:24,27/03/2024
html-keyboard-response,45,84904,0.0-20.0,,"<div style=""font-size:100px;"">+</div>",,delaylearn,learning,pre_fixation,b91UXRcoLLhRNrDLu4ArCIoK8ID2,,,,,,,,,,,,,,,,,,,,,,,63d8c185bbfa79d8246dd97b,16:55:24,27/03/2024
html-keyboard-response,46,86449,0.0-21.0,,"<div style=""font-size:100px;"">+</div>",,delaylearn,learning,ITI,b91UXRcoLLhRNrDLu4ArCIoK8ID2,b91UXRcoLLhRNrDLu4ArCIoK8ID2,,,,,,,,,,,,,,,,,,,1533.0,,,63d8c185bbfa79d8246dd97b,16:55:24,27/03/2024
html-keyboard-response,47,87763,0.0-22.0-0.0,1313.8999999999069,"<div style=""display: flex; flex-direction: column; align-items: center; margin-top: -40px;""><img src=""images/pattern_3.png"" style=""width: 234px; height: 230px; margin-top: -50px;""><div style=""display: flex; justify-content: space-between; margin-top: 33px;""><img src=""images/choice_trial_16.png"" style=""width: 408px; height: 417px; margin-right: 200px;""><img src=""images/choice_trial_6.png"" style=""width: 408px; height: 417px;""></div></div>",f,delaylearn,learning,trial,b91UXRcoLLhRNrDLu4ArCIoK8ID2,b91UXRcoLLhRNrDLu4ArCIoK8ID2,4.0,images/choice_trial_16.png,images/choice_trial_6.png,images/pattern_3.png,f,f,7000.0,16.0,6.0,2.0,0.0,9.0,1.0,1.0,16.0,60.0,,,,,,63d8c185bbfa79d8246dd97b,16:55:24,27/03/2024
html-keyboard-response,48,88765,0.0-22.0-1.0,,"<div style=""display: flex; flex-direction: column; align-items: center; margin-top: -40px;""><img src=""images/pattern_3.png"" style=""width: 234px; height: 230px; margin-top: -50px;""><div style=""display: flex; justify-content: space-between; margin-top: 33px;""><img src=""images/choice_trial_16.png"" style=""width: 408px; height: 417px; margin-right: 608px;""></div></div>",,delaylearn,learning,display_response,b91UXRcoLLhRNrDLu4ArCIoK8ID2,b91UXRcoLLhRNrDLu4ArCIoK8ID2,,,,,,,,,,,,,,,,,chosen stimuli: images/choice_trial_16.png,,,,,63d8c185bbfa79d8246dd97b,16:55:24,27/03/2024
html-keyboard-response,49,95773,0.0-22.0-2.0,,,,delaylearn,learning,feedback_duration_window,b91UXRcoLLhRNrDLu4ArCIoK8ID2,b91UXRcoLLhRNrDLu4ArCIoK8ID2,,,,,,,,,,,,,,,,,,7000.0,,,,63d8c185bbfa79d8246dd97b,16:55:24,27/03/2024
html-keyboard-response,50,97284,0.0-22.0-3.0,,<div style='margin:auto;width: auto; font-size: 150%'><span style='font-weight: bold; font-size: 100px; color: green;'>+10 points!</span><br><br></div>,,delaylearn,learning,feedback_image_window,b91UXRcoLLhRNrDLu4ArCIoK8ID2,b91UXRcoLLhRNrDLu4ArCIoK8ID2,,,,,,,,,,,,,,,,,,,,,,63d8c185bbfa79d8246dd97b,16:55:24,27/03/2024
html-keyboard-response,51,99320,0.0-23.0,,"<div style=""font-size:100px;"">+</div>",,delaylearn,learning,ITI,b91UXRcoLLhRNrDLu4ArCIoK8ID2,b91UXRcoLLhRNrDLu4ArCIoK8ID2,,,,,,,,,,,,,,,,,,,2032.0,,,63d8c185bbfa79d8246dd97b,16:55:24,27/03/2024
html-keyboard-response,52,100643,0.0-24.0-0.0,1321.6000000000931,"<div style=""display: flex; flex-direction: column; align-items: center; margin-top: -40px;""><img src=""images/pattern_7.png"" style=""width: 234px; height: 230px; margin-top: -50px;""><div style=""display: flex; justify-content: space-between; margin-top: 33px;""><img src=""images/choice_trial_4.png"" style=""width: 408px; height: 417px; margin-right: 200px;""><img src=""images/choice_trial_13.png"" style=""width: 408px; height: 417px;""></div></div>",j,delaylearn,learning,trial,b91UXRcoLLhRNrDLu4ArCIoK8ID2,b91UXRcoLLhRNrDLu4ArCIoK8ID2,4.0,images/choice_trial_4.png,images/choice_trial_13.png,images/pattern_7.png,j,j,750.0,4.0,13.0,6.0,1.0,10.0,1.0,1.0,13.0,70.0,,,,,,63d8c185bbfa79d8246dd97b,16:55:24,27/03/2024
html-keyboard-response,53,101652,0.0-24.0-1.0,,"<div style=""display: flex; flex-direction: column; align-items: center; margin-top: -40px;""><img src=""images/pattern_7.png"" style=""width: 234px; height: 230px; margin-top: -50px;""><div style=""display: flex; justify-content: space-between; margin-top: 33px;""><img src=""images/choice_trial_13.png"" style=""width: 408px; height: 417px; margin-left:608px;""></div></div>",,delaylearn,learning,display_response,b91UXRcoLLhRNrDLu4ArCIoK8ID2,b91UXRcoLLhRNrDLu4ArCIoK8ID2,,,,,,,,,,,,,,,,,chosen stimuli: images/choice_trial_13.png,,,,,63d8c185bbfa79d8246dd97b,16:55:24,27/03/2024
html-keyboard-response,54,102409,0.0-24.0-2.0,,,,delaylearn,learning,feedback_duration_window,b91UXRcoLLhRNrDLu4ArCIoK8ID2,b91UXRcoLLhRNrDLu4ArCIoK8ID2,,,,,,,,,,,,,,,,,,750.0,,,,63d8c185bbfa79d8246dd97b,16:55:24,27/03/2024
html-keyboard-response,55,103924,0.0-24.0-3.0,,<div style='margin:auto;width: auto; font-size: 150%'><span style='font-weight: bold; font-size: 100px; color: green;'>+10 points!</span><br><br></div>,,delaylearn,learning,feedback_image_window,b91UXRcoLLhRNrDLu4ArCIoK8ID2,b91UXRcoLLhRNrDLu4ArCIoK8ID2,,,,,,,,,,,,,,,,,,,,,,63d8c185bbfa79d8246dd97b,16:55:24,27/03/2024
html-keyboard-response,56,106393,0.0-25.0,,"<div style=""font-size:100px;"">+</div>",,delaylearn,learning,ITI,b91UXRcoLLhRNrDLu4ArCIoK8ID2,b91UXRcoLLhRNrDLu4ArCIoK8ID2,,,,,,,,,,,,,,,,,,,2465.0,,,63d8c185bbfa79d8246dd97b,16:55:24,27/03/2024
html-keyboard-response,57,107365,0.0-26.0-0.0,971.1999999997206,"<div style=""display: flex; flex-direction: column; align-items: center; margin-top: -40px;""><img src=""images/pattern_4.png"" style=""width: 234px; height: 230px; margin-top: -50px;""><div style=""display: flex; justify-content: space-between; margin-top: 33px;""><img src=""images/choice_trial_8.png"" style=""width: 408px; height: 417px; margin-right: 200px;""><img src=""images/choice_trial_7.png"" style=""width: 408px; height: 417px;""></div></div>",f,delaylearn,learning,trial,b91UXRcoLLhRNrDLu4ArCIoK8ID2,b91UXRcoLLhRNrDLu4ArCIoK8ID2,4.0,images/choice_trial_8.png,images/choice_trial_7.png,images/pattern_4.png,f,f,7000.0,8.0,7.0,3.0,0.0,11.0,1.0,1.0,8.0,80.0,,,,,,63d8c185bbfa79d8246dd97b,16:55:24,27/03/2024
html-keyboard-response,58,108373,0.0-26.0-1.0,,"<div style=""display: flex; flex-direction: column; align-items: center; margin-top: -40px;""><img src=""images/pattern_4.png"" style=""width: 234px; height: 230px; margin-top: -50px;""><div style=""display: flex; justify-content: space-between; margin-top: 33px;""><img src=""images/choice_trial_8.png"" style=""width: 408px; height: 417px; margin-right: 608px;""></div></div>",,delaylearn,learning,display_response,b91UXRcoLLhRNrDLu4ArCIoK8ID2,b91UXRcoLLhRNrDLu4ArCIoK8ID2,,,,,,,,,,,,,,,,,chosen stimuli: images/choice_trial_8.png,,,,,63d8c185bbfa79d8246dd97b,16:55:24,27/03/2024
html-keyboard-response,59,115387,0.0-26.0-2.0,,,,delaylearn,learning,feedback_duration_window,b91UXRcoLLhRNrDLu4ArCIoK8ID2,b91UXRcoLLhRNrDLu4ArCIoK8ID2,,,,,,,,,,,,,,,,,,7000.0,,,,63d8c185bbfa79d8246dd97b,16:55:24,27/03/2024
html-keyboard-response,60,116900,0.0-26.0-3.0,,<div style='margin:auto;width: auto; font-size: 150%'><span style='font-weight: bold; font-size: 100px; color: green;'>+10 points!</span><br><br></div>,,delaylearn,learning,feedback_image_window,b91UXRcoLLhRNrDLu4ArCIoK8ID2,b91UXRcoLLhRNrDLu4ArCIoK8ID2,,,,,,,,,,,,,,,,,,,,,,63d8c185bbfa79d8246dd97b,16:55:24,27/03/2024
html-keyboard-response,61,118912,0.0-27.0,,"<div style=""font-size:100px;"">+</div>",,delaylearn,learning,ITI,b91UXRcoLLhRNrDLu4ArCIoK8ID2,b91UXRcoLLhRNrDLu4ArCIoK8ID2,,,,,,,,,,,,,,,,,,,1997.0,,,63d8c185bbfa79d8246dd97b,16:55:24,27/03/2024
html-keyboard-response,62,120140,0.0-28.0-0.0,1227.0,"<div style=""display: flex; flex-direction: column; align-items: center; margin-top: -40px;""><img src=""images/pattern_5.png"" style=""width: 234px; height: 230px; margin-top: -50px;""><div style=""display: flex; justify-content: space-between; margin-top: 33px;""><img src=""images/choice_trial_15.png"" style=""width: 408px; height: 417px; margin-right: 200px;""><img src=""images/choice_trial_5.png"" style=""width: 408px; height: 417px;""></div></div>",j,delaylearn,learning,trial,b91UXRcoLLhRNrDLu4ArCIoK8ID2,b91UXRcoLLhRNrDLu4ArCIoK8ID2,4.0,images/choice_trial_15.png,images/choice_trial_5.png,images/pattern_5.png,j,j,750.0,15.0,5.0,4.0,1.0,12.0,1.0,1.0,5.0,90.0,,,,,,63d8c185bbfa79d8246dd97b,16:55:24,27/03/2024
html-keyboard-response,63,121154,0.0-28.0-1.0,,"<div style=""display: flex; flex-direction: column; align-items: center; margin-top: -40px;""><img src=""images/pattern_5.png"" style=""width: 234px; height: 230px; margin-top: -50px;""><div style=""display: flex; justify-content: space-between; margin-top: 33px;""><img src=""images/choice_trial_5.png"" style=""width: 408px; height: 417px; margin-left:608px;""></div></div>",,delaylearn,learning,display_response,b91UXRcoLLhRNrDLu4ArCIoK8ID2,b91UXRcoLLhRNrDLu4ArCIoK8ID2,,,,,,,,,,,,,,,,,chosen stimuli: images/choice_trial_5.png,,,,,63d8c185bbfa79d8246dd97b,16:55:24,27/03/2024
html-keyboard-response,64,121913,0.0-28.0-2.0,,,,delaylearn,learning,feedback_duration_window,b91UXRcoLLhRNrDLu4ArCIoK8ID2,b91UXRcoLLhRNrDLu4ArCIoK8ID2,,,,,,,,,,,,,,,,,,750.0,,,,63d8c185bbfa79d8246dd97b,16:55:24,27/03/2024
html-keyboard-response,65,123415,0.0-28.0-3.0,,<div style='margin:auto;width: auto; font-size: 150%'><span style='font-weight: bold; font-size: 100px; color: green;'>+10 points!</span><br><br></div>,,delaylearn,learning,feedback_image_window,b91UXRcoLLhRNrDLu4ArCIoK8ID2,b91UXRcoLLhRNrDLu4ArCIoK8ID2,,,,,,,,,,,,,,,,,,,,,,63d8c185bbfa79d8246dd97b,16:55:24,27/03/2024
html-keyboard-response,66,125365,0.0-29.0,,"<div style=""font-size:100px;"">+</div>",,delaylearn,learning,ITI,b91UXRcoLLhRNrDLu4ArCIoK8ID2,b91UXRcoLLhRNrDLu4ArCIoK8ID2,,,,,,,,,,,,,,,,,,,1943.0,,,63d8c185bbfa79d8246dd97b,16:55:24,27/03/2024
html-keyboard-response,67,126316,0.0-30.0-0.0,950.3999999999069,"<div style=""display: flex; flex-direction: column; align-items: center; margin-top: -40px;""><img src=""images/pattern_6.png"" style=""width: 234px; height: 230px; margin-top: -50px;""><div style=""display: flex; justify-content: space-between; margin-top: 33px;""><img src=""images/choice_trial_10.png"" style=""width: 408px; height: 417px; margin-right: 200px;""><img src=""images/choice_trial_3.png"" style=""width: 408px; height: 417px;""></div></div>",j,delaylearn,learning,trial,b91UXRcoLLhRNrDLu4ArCIoK8ID2,b91UXRcoLLhRNrDLu4ArCIoK8ID2,4.0,images/choice_trial_10.png,images/choice_trial_3.png,images/pattern_6.png,j,f,750.0,10.0,3.0,5.0,0.0,13.0,0.0,1.0,3.0,100.0,,,,,,63d8c185bbfa79d8246dd97b,16:55:24,27/03/2024
html-keyboard-response,68,127331,0.0-30.0-1.0,,"<div style=""display: flex; flex-direction: column; align-items: center; margin-top: -40px;""><img src=""images/pattern_6.png"" style=""width: 234px; height: 230px; margin-top: -50px;""><div style=""display: flex; justify-content: space-between; margin-top: 33px;""><img src=""images/choice_trial_3.png"" style=""width: 408px; height: 417px; margin-left:608px;""></div></div>",,delaylearn,learning,display_response,b91UXRcoLLhRNrDLu4ArCIoK8ID2,b91UXRcoLLhRNrDLu4ArCIoK8ID2,,,,,,,,,,,,,,,,,chosen stimuli: images/choice_trial_3.png,,,,,63d8c185bbfa79d8246dd97b,16:55:24,27/03/2024
html-keyboard-response,69,128090,0.0-30.0-2.0,,,,delaylearn,learning,feedback_duration_window,b91UXRcoLLhRNrDLu4ArCIoK8ID2,b91UXRcoLLhRNrDLu4ArCIoK8ID2,,,,,,,,,,,,,,,,,,750.0,,,,63d8c185bbfa79d8246dd97b,16:55:24,27/03/2024
html-keyboard-response,70,129593,0.0-30.0-3.0,,<div style='margin:auto;width: auto; font-size: 150%'><span style='font-weight: bold; font-size: 100px; color: green;'>+10 points!</span><br><br></div>,,delaylearn,learning,feedback_image_window,b91UXRcoLLhRNrDLu4ArCIoK8ID2,b91UXRcoLLhRNrDLu4ArCIoK8ID2,,,,,,,,,,,,,,,,,,,,,,63d8c185bbfa79d8246dd97b,16:55:24,27/03/2024
html-keyboard-response,71,130104,0.0-31.0-0.0,,,,,,mood_trial_fixation,b91UXRcoLLhRNrDLu4ArCIoK8ID2,,,,,,,,,,,,,,,,,,,,,,,63d8c185bbfa79d8246dd97b,16:55:24,27/03/2024
lmdlab-html-vas-response,72,134108,0.0-31.0-1.0,2996.0,How happy are you right now?,0.5787037037037037,delaylearn,learning,mood_trial,b91UXRcoLLhRNrDLu4ArCIoK8ID2,b91UXRcoLLhRNrDLu4ArCIoK8ID2,,,,,,,,,,,,,,,,,,,,"['Very unhappy', 'Very happy']",,63d8c185bbfa79d8246dd97b,16:55:24,27/03/2024
html-keyboard-response,73,136091,0.0-32.0,,"<div style=""font-size:100px;"">+</div>",,delaylearn,learning,ITI,b91UXRcoLLhRNrDLu4ArCIoK8ID2,b91UXRcoLLhRNrDLu4ArCIoK8ID2,,,,,,,,,,,,,,,,,,,1973.0,,,63d8c185bbfa79d8246dd97b,16:55:24,27/03/2024
html-keyboard-response,74,137095,0.0-33.0-0.0,1003.7999999998137,"<div style=""display: flex; flex-direction: column; align-items: center; margin-top: -40px;""><img src=""images/pattern_1.png"" style=""width: 234px; height: 230px; margin-top: -50px;""><div style=""display: flex; justify-content: space-between; margin-top: 33px;""><img src=""images/choice_trial_9.png"" style=""width: 408px; height: 417px; margin-right: 200px;""><img src=""images/choice_trial_1.png"" style=""width: 408px; height: 417px;""></div></div>",f,delaylearn,learning,trial,b91UXRcoLLhRNrDLu4ArCIoK8ID2,b91UXRcoLLhRNrDLu4ArCIoK8ID2,4.0,images/choice_trial_9.png,images/choice_trial_1.png,images/pattern_1.png,j,j,7000.0,9.0,1.0,1.0,1.0,14.0,0.0,0.0,9.0,100.0,,,,,,63d8c185bbfa79d8246dd97b,16:55:24,27/03/2024
html-keyboard-response,75,138104,0.0-33.0-1.0,,"<div style=""display: flex; flex-direction: column; align-items: center; margin-top: -40px;""><img src=""images/pattern_1.png"" style=""width: 234px; height: 230px; margin-top: -50px;""><div style=""display: flex; justify-content: space-between; margin-top: 33px;""><img src=""images/choice_trial_9.png"" style=""width: 408px; height: 417px; margin-right: 608px;""></div></div>",,delaylearn,learning,display_response,b91UXRcoLLhRNrDLu4ArCIoK8ID2,b91UXRcoLLhRNrDLu4ArCIoK8ID2,,,,,,,,,,,,,,,,,chosen stimuli: images/choice_trial_9.png,,,,,63d8c185bbfa79d8246dd97b,16:55:24,27/03/2024
html-keyboard-response,76,145118,0.0-33.0-2.0,,,,delaylearn,learning,feedback_duration_window,b91UXRcoLLhRNrDLu4ArCIoK8ID2,b91UXRcoLLhRNrDLu4ArCIoK8ID2,,,,,,,,,,,,,,,,,,7000.0,,,,63d8c185bbfa79d8246dd97b,16:55:24,27/03/2024
html-keyboard-response,77,146633,0.0-33.0-3.0,,<div style='margin:auto;width: auto; font-size: 150%'><span style='font-weight: bold; font-size: 100px; color: red;'>0 points!</span><br><br></div>,,delaylearn,learning,feedback_image_window,b91UXRcoLLhRNrDLu4ArCIoK8ID2,b91UXRcoLLhRNrDLu4ArCIoK8ID2,,,,,,,,,,,,,,,,,,,,,,63d8c185bbfa79d8246dd97b,16:55:24,27/03/2024
html-keyboard-response,78,148709,0.0-34.0,,"<div style=""font-size:100px;"">+</div>",,delaylearn,learning,ITI,b91UXRcoLLhRNrDLu4ArCIoK8ID2,b91UXRcoLLhRNrDLu4ArCIoK8ID2,,,,,,,,,,,,,,,,,,,2060.0,,,63d8c185bbfa79d8246dd97b,16:55:24,27/03/2024
html-keyboard-response,79,149744,0.0-35.0-0.0,1034.0,"<div style=""display: flex; flex-direction: column; align-items: center; margin-top: -40px;""><img src=""images/pattern_3.png"" style=""width: 234px; height: 230px; margin-top: -50px;""><div style=""display: flex; justify-content: space-between; margin-top: 33px;""><img src=""images/choice_trial_6.png"" style=""width: 408px; height: 417px; margin-right: 200px;""><img src=""images/choice_trial_16.png"" style=""width: 408px; height: 417px;""></div></div>",j,delaylearn,learning,trial,b91UXRcoLLhRNrDLu4ArCIoK8ID2,b91UXRcoLLhRNrDLu4ArCIoK8ID2,4.0,images/choice_trial_6.png,images/choice_trial_16.png,images/pattern_3.png,f,j,7000.0,6.0,16.0,2.0,1.0,15.0,1.0,0.0,16.0,100.0,,,,,,63d8c185bbfa79d8246dd97b,16:55:24,27/03/2024
html-keyboard-response,80,150752,0.0-35.0-1.0,,"<div style=""display: flex; flex-direction: column; align-items: center; margin-top: -40px;""><img src=""images/pattern_3.png"" style=""width: 234px; height: 230px; margin-top: -50px;""><div style=""display: flex; justify-content: space-between; margin-top: 33px;""><img src=""images/choice_trial_16.png"" style=""width: 408px; height: 417px; margin-left:608px;""></div></div>",,delaylearn,learning,display_response,b91UXRcoLLhRNrDLu4ArCIoK8ID2,b91UXRcoLLhRNrDLu4ArCIoK8ID2,,,,,,,,,,,,,,,,,chosen stimuli: images/choice_trial_16.png,,,,,63d8c185bbfa79d8246dd97b,16:55:24,27/03/2024
html-keyboard-response,81,157753,0.0-35.0-2.0,,,,delaylearn,learning,feedback_duration_window,b91UXRcoLLhRNrDLu4ArCIoK8ID2,b91UXRcoLLhRNrDLu4ArCIoK8ID2,,,,,,,,,,,,,,,,,,7000.0,,,,63d8c185bbfa79d8246dd97b,16:55:24,27/03/2024
html-keyboard-response,82,159269,0.0-35.0-3.0,,<div style='margin:auto;width: auto; font-size: 150%'><span style='font-weight: bold; font-size: 100px; color: red;'>0 points!</span><br><br></div>,,delaylearn,learning,feedback_image_window,b91UXRcoLLhRNrDLu4ArCIoK8ID2,b91UXRcoLLhRNrDLu4ArCIoK8ID2,,,,,,,,,,,,,,,,,,,,,,63d8c185bbfa79d8246dd97b,16:55:24,27/03/2024
html-keyboard-response,83,161638,0.0-36.0,,"<div style=""font-size:100px;"">+</div>",,delaylearn,learning,ITI,b91UXRcoLLhRNrDLu4ArCIoK8ID2,b91UXRcoLLhRNrDLu4ArCIoK8ID2,,,,,,,,,,,,,,,,,,,2366.0,,,63d8c185bbfa79d8246dd97b,16:55:24,27/03/2024
html-keyboard-response,84,163631,0.0-37.0-0.0,1991.3999999999069,"<div style=""display: flex; flex-direction: column; align-items: center; margin-top: -40px;""><img src=""images/pattern_5.png"" style=""width: 234px; height: 230px; margin-top: -50px;""><div style=""display: flex; justify-content: space-between; margin-top: 33px;""><img src=""images/choice_trial_5.png"" style=""width: 408px; height: 417px; margin-right: 200px;""><img src=""images/choice_trial_15.png"" style=""width: 408px; height: 417px;""></div></div>",f,delaylearn,learning,trial,b91UXRcoLLhRNrDLu4ArCIoK8ID2,b91UXRcoLLhRNrDLu4ArCIoK8ID2,4.0,images/choice_trial_5.png,images/choice_trial_15.png,images/pattern_5.png,f,f,750.0,5.0,15.0,4.0,0.0,16.0,1.0,1.0,5.0,110.0,,,,,,63d8c185bbfa79d8246dd97b,16:55:24,27/03/2024
html-keyboard-response,85,164643,0.0-37.0-1.0,,"<div style=""display: flex; flex-direction: column; align-items: center; margin-top: -40px;""><img src=""images/pattern_5.png"" style=""width: 234px; height: 230px; margin-top: -50px;""><div style=""display: flex; justify-content: space-between; margin-top: 33px;""><img src=""images/choice_trial_5.png"" style=""width: 408px; height: 417px; margin-right: 608px;""></div></div>",,delaylearn,learning,display_response,b91UXRcoLLhRNrDLu4ArCIoK8ID2,b91UXRcoLLhRNrDLu4ArCIoK8ID2,,,,,,,,,,,,,,,,,chosen stimuli: images/choice_trial_5.png,,,,,63d8c185bbfa79d8246dd97b,16:55:24,27/03/2024
html-keyboard-response,86,165402,0.0-37.0-2.0,,,,delaylearn,learning,feedback_duration_window,b91UXRcoLLhRNrDLu4ArCIoK8ID2,b91UXRcoLLhRNrDLu4ArCIoK8ID2,,,,,,,,,,,,,,,,,,750.0,,,,63d8c185bbfa79d8246dd97b,16:55:24,27/03/2024
html-keyboard-response,87,166917,0.0-37.0-3.0,,<div style='margin:auto;width: auto; font-size: 150%'><span style='font-weight: bold; font-size: 100px; color: green;'>+10 points!</span><br><br></div>,,delaylearn,learning,feedback_image_window,b91UXRcoLLhRNrDLu4ArCIoK8ID2,b91UXRcoLLhRNrDLu4ArCIoK8ID2,,,,,,,,,,,,,,,,,,,,,,63d8c185bbfa79d8246dd97b,16:55:24,27/03/2024
html-keyboard-response,88,167427,0.0-38.0-0.0,,,,,,mood_trial_fixation,b91UXRcoLLhRNrDLu4ArCIoK8ID2,,,,,,,,,,,,,,,,,,,,,,,63d8c185bbfa79d8246dd97b,16:55:24,27/03/2024
lmdlab-html-vas-response,89,171124,0.0-38.0-1.0,2690.0,How happy are you right now?,0.5833333333333334,delaylearn,learning,mood_trial,b91UXRcoLLhRNrDLu4ArCIoK8ID2,b91UXRcoLLhRNrDLu4ArCIoK8ID2,,,,,,,,,,,,,,,,,,,,"['Very unhappy', 'Very happy']",,63d8c185bbfa79d8246dd97b,16:55:24,27/03/2024
html-keyboard-response,90,172804,0.0-39.0,,"<div style=""font-size:100px;"">+</div>",,delaylearn,learning,ITI,b91UXRcoLLhRNrDLu4ArCIoK8ID2,b91UXRcoLLhRNrDLu4ArCIoK8ID2,,,,,,,,,,,,,,,,,,,1671.0,,,63d8c185bbfa79d8246dd97b,16:55:24,27/03/2024
html-keyboard-response,91,174073,0.0-40.0-0.0,1267.8999999999069,"<div style=""display: flex; flex-direction: column; align-items: center; margin-top: -40px;""><img src=""images/pattern_6.png"" style=""width: 234px; height: 230px; margin-top: -50px;""><div style=""display: flex; justify-content: space-between; margin-top: 33px;""><img src=""images/choice_trial_10.png"" style=""width: 408px; height: 417px; margin-right: 200px;""><img src=""images/choice_trial_3.png"" style=""width: 408px; height: 417px;""></div></div>",f,delaylearn,learning,trial,b91UXRcoLLhRNrDLu4ArCIoK8ID2,b91UXRcoLLhRNrDLu4ArCIoK8ID2,4.0,images/choice_trial_10.png,images/choice_trial_3.png,images/pattern_6.png,f,f,750.0,10.0,3.0,5.0,0.0,17.0,1.0,1.0,10.0,120.0,,,,,,63d8c185bbfa79d8246dd97b,16:55:24,27/03/2024
html-keyboard-response,92,175076,0.0-40.0-1.0,,"<div style=""display: flex; flex-direction: column; align-items: center; margin-top: -40px;""><img src=""images/pattern_6.png"" style=""width: 234px; height: 230px; margin-top: -50px;""><div style=""display: flex; justify-content: space-between; margin-top: 33px;""><img src=""images/choice_trial_10.png"" style=""width: 408px; height: 417px; margin-right: 608px;""></div></div>",,delaylearn,learning,display_response,b91UXRcoLLhRNrDLu4ArCIoK8ID2,b91UXRcoLLhRNrDLu4ArCIoK8ID2,,,,,,,,,,,,,,,,,chosen stimuli: images/choice_trial_10.png,,,,,63d8c185bbfa79d8246dd97b,16:55:24,27/03/2024
html-keyboard-response,93,175834,0.0-40.0-2.0,,,,delaylearn,learning,feedback_duration_window,b91UXRcoLLhRNrDLu4ArCIoK8ID2,b91UXRcoLLhRNrDLu4ArCIoK8ID2,,,,,,,,,,,,,,,,,,750.0,,,,63d8c185bbfa79d8246dd97b,16:55:24,27/03/2024
html-keyboard-response,94,177349,0.0-40.0-3.0,,<div style='margin:auto;width: auto; font-size: 150%'><span style='font-weight: bold; font-size: 100px; color: green;'>+10 points!</span><br><br></div>,,delaylearn,learning,feedback_image_window,b91UXRcoLLhRNrDLu4ArCIoK8ID2,b91UXRcoLLhRNrDLu4ArCIoK8ID2,,,,,,,,,,,,,,,,,,,,,,63d8c185bbfa79d8246dd97b,16:55:24,27/03/2024
html-keyboard-response,95,179685,0.0-41.0,,"<div style=""font-size:100px;"">+</div>",,delaylearn,learning,ITI,b91UXRcoLLhRNrDLu4ArCIoK8ID2,b91UXRcoLLhRNrDLu4ArCIoK8ID2,,,,,,,,,,,,,,,,,,,2322.0,,,63d8c185bbfa79d8246dd97b,16:55:24,27/03/2024
html-keyboard-response,96,180669,0.0-42.0-0.0,983.5,"<div style=""display: flex; flex-direction: column; align-items: center; margin-top: -40px;""><img src=""images/pattern_4.png"" style=""width: 234px; height: 230px; margin-top: -50px;""><div style=""display: flex; justify-content: space-between; margin-top: 33px;""><img src=""images/choice_trial_7.png"" style=""width: 408px; height: 417px; margin-right: 200px;""><img src=""images/choice_trial_8.png"" style=""width: 408px; height: 417px;""></div></div>",j,delaylearn,learning,trial,b91UXRcoLLhRNrDLu4ArCIoK8ID2,b91UXRcoLLhRNrDLu4ArCIoK8ID2,4.0,images/choice_trial_7.png,images/choice_trial_8.png,images/pattern_4.png,j,j,7000.0,7.0,8.0,3.0,1.0,18.0,1.0,1.0,8.0,130.0,,,,,,63d8c185bbfa79d8246dd97b,16:55:24,27/03/2024
html-keyboard-response,97,181682,0.0-42.0-1.0,,"<div style=""display: flex; flex-direction: column; align-items: center; margin-top: -40px;""><img src=""images/pattern_4.png"" style=""width: 234px; height: 230px; margin-top: -50px;""><div style=""display: flex; justify-content: space-between; margin-top: 33px;""><img src=""images/choice_trial_8.png"" style=""width: 408px; height: 417px; margin-left:608px;""></div></div>",,delaylearn,learning,display_response,b91UXRcoLLhRNrDLu4ArCIoK8ID2,b91UXRcoLLhRNrDLu4ArCIoK8ID2,,,,,,,,,,,,,,,,,chosen stimuli: images/choice_trial_8.png,,,,,63d8c185bbfa79d8246dd97b,16:55:24,27/03/2024
html-keyboard-response,98,188685,0.0-42.0-2.0,,,,delaylearn,learning,feedback_duration_window,b91UXRcoLLhRNrDLu4ArCIoK8ID2,b91UXRcoLLhRNrDLu4ArCIoK8ID2,,,,,,,,,,,,,,,,,,7000.0,,,,63d8c185bbfa79d8246dd97b,16:55:24,27/03/2024
html-keyboard-response,99,190200,0.0-42.0-3.0,,<div style='margin:auto;width: auto; font-size: 150%'><span style='font-weight: bold; font-size: 100px; color: green;'>+10 points!</span><br><br></div>,,delaylearn,learning,feedback_image_window,b91UXRcoLLhRNrDLu4ArCIoK8ID2,b91UXRcoLLhRNrDLu4ArCIoK8ID2,,,,,,,,,,,,,,,,,,,,,,63d8c185bbfa79d8246dd97b,16:55:24,27/03/2024
html-keyboard-response,100,191793,0.0-43.0,,"<div style=""font-size:100px;"">+</div>",,delaylearn,learning,ITI,b91UXRcoLLhRNrDLu4ArCIoK8ID2,b91UXRcoLLhRNrDLu4ArCIoK8ID2,,,,,,,,,,,,,,,,,,,1582.0,,,63d8c185bbfa79d8246dd97b,16:55:24,27/03/2024
html-keyboard-response,101,192646,0.0-44.0-0.0,851.5,"<div style=""display: flex; flex-direction: column; align-items: center; margin-top: -40px;""><img src=""images/pattern_7.png"" style=""width: 234px; height: 230px; margin-top: -50px;""><div style=""display: flex; justify-content: space-between; margin-top: 33px;""><img src=""images/choice_trial_13.png"" style=""width: 408px; height: 417px; margin-right: 200px;""><img src=""images/choice_trial_4.png"" style=""width: 408px; height: 417px;""></div></div>",j,delaylearn,learning,trial,b91UXRcoLLhRNrDLu4ArCIoK8ID2,b91UXRcoLLhRNrDLu4ArCIoK8ID2,4.0,images/choice_trial_13.png,images/choice_trial_4.png,images/pattern_7.png,j,f,750.0,13.0,4.0,6.0,0.0,19.0,0.0,1.0,4.0,140.0,,,,,,63d8c185bbfa79d8246dd97b,16:55:24,27/03/2024
html-keyboard-response,102,193662,0.0-44.0-1.0,,"<div style=""display: flex; flex-direction: column; align-items: center; margin-top: -40px;""><img src=""images/pattern_7.png"" style=""width: 234px; height: 230px; margin-top: -50px;""><div style=""display: flex; justify-content: space-between; margin-top: 33px;""><img src=""images/choice_trial_4.png"" style=""width: 408px; height: 417px; margin-left:608px;""></div></div>",,delaylearn,learning,display_response,b91UXRcoLLhRNrDLu4ArCIoK8ID2,b91UXRcoLLhRNrDLu4ArCIoK8ID2,,,,,,,,,,,,,,,,,chosen stimuli: images/choice_trial_4.png,,,,,63d8c185bbfa79d8246dd97b,16:55:24,27/03/2024
html-keyboard-response,103,194419,0.0-44.0-2.0,,,,delaylearn,learning,feedback_duration_window,b91UXRcoLLhRNrDLu4ArCIoK8ID2,b91UXRcoLLhRNrDLu4ArCIoK8ID2,,,,,,,,,,,,,,,,,,750.0,,,,63d8c185bbfa79d8246dd97b,16:55:24,27/03/2024
html-keyboard-response,104,195931,0.0-44.0-3.0,,<div style='margin:auto;width: auto; font-size: 150%'><span style='font-weight: bold; font-size: 100px; color: green;'>+10 points!</span><br><br></div>,,delaylearn,learning,feedback_image_window,b91UXRcoLLhRNrDLu4ArCIoK8ID2,b91UXRcoLLhRNrDLu4ArCIoK8ID2,,,,,,,,,,,,,,,,,,,,,,63d8c185bbfa79d8246dd97b,16:55:24,27/03/2024
html-keyboard-response,105,198140,0.0-45.0,,"<div style=""font-size:100px;"">+</div>",,delaylearn,learning,ITI,b91UXRcoLLhRNrDLu4ArCIoK8ID2,b91UXRcoLLhRNrDLu4ArCIoK8ID2,,,,,,,,,,,,,,,,,,,2202.0,,,63d8c185bbfa79d8246dd97b,16:55:24,27/03/2024
html-keyboard-response,106,198822,0.0-46.0-0.0,680.3000000002794,"<div style=""display: flex; flex-direction: column; align-items: center; margin-top: -40px;""><img src=""images/pattern_1.png"" style=""width: 234px; height: 230px; margin-top: -50px;""><div style=""display: flex; justify-content: space-between; margin-top: 33px;""><img src=""images/choice_trial_1.png"" style=""width: 408px; height: 417px; margin-right: 200px;""><img src=""images/choice_trial_9.png"" style=""width: 408px; height: 417px;""></div></div>",f,delaylearn,learning,trial,b91UXRcoLLhRNrDLu4ArCIoK8ID2,b91UXRcoLLhRNrDLu4ArCIoK8ID2,4.0,images/choice_trial_1.png,images/choice_trial_9.png,images/pattern_1.png,f,f,7000.0,1.0,9.0,1.0,0.0,20.0,1.0,1.0,1.0,150.0,,,,,,63d8c185bbfa79d8246dd97b,16:55:24,27/03/2024
html-keyboard-response,107,199825,0.0-46.0-1.0,,"<div style=""display: flex; flex-direction: column; align-items: center; margin-top: -40px;""><img src=""images/pattern_1.png"" style=""width: 234px; height: 230px; margin-top: -50px;""><div style=""display: flex; justify-content: space-between; margin-top: 33px;""><img src=""images/choice_trial_1.png"" style=""width: 408px; height: 417px; margin-right: 608px;""></div></div>",,delaylearn,learning,display_response,b91UXRcoLLhRNrDLu4ArCIoK8ID2,b91UXRcoLLhRNrDLu4ArCIoK8ID2,,,,,,,,,,,,,,,,,chosen stimuli: images/choice_trial_1.png,,,,,63d8c185bbfa79d8246dd97b,16:55:24,27/03/2024
html-keyboard-response,108,206827,0.0-46.0-2.0,,,,delaylearn,learning,feedback_duration_window,b91UXRcoLLhRNrDLu4ArCIoK8ID2,b91UXRcoLLhRNrDLu4ArCIoK8ID2,,,,,,,,,,,,,,,,,,7000.0,,,,63d8c185bbfa79d8246dd97b,16:55:24,27/03/2024
html-keyboard-response,109,208340,0.0-46.0-3.0,,<div style='margin:auto;width: auto; font-size: 150%'><span style='font-weight: bold; font-size: 100px; color: green;'>+10 points!</span><br><br></div>,,delaylearn,learning,feedback_image_window,b91UXRcoLLhRNrDLu4ArCIoK8ID2,b91UXRcoLLhRNrDLu4ArCIoK8ID2,,,,,,,,,,,,,,,,,,,,,,63d8c185bbfa79d8246dd97b,16:55:24,27/03/2024
html-keyboard-response,110,210274,0.0-47.0,,"<div style=""font-size:100px;"">+</div>",,delaylearn,learning,ITI,b91UXRcoLLhRNrDLu4ArCIoK8ID2,b91UXRcoLLhRNrDLu4ArCIoK8ID2,,,,,,,,,,,,,,,,,,,1930.0,,,63d8c185bbfa79d8246dd97b,16:55:24,27/03/2024
html-keyboard-response,111,211933,0.0-48.0-0.0,1658.1999999997206,"<div style=""display: flex; flex-direction: column; align-items: center; margin-top: -40px;""><img src=""images/pattern_6.png"" style=""width: 234px; height: 230px; margin-top: -50px;""><div style=""display: flex; justify-content: space-between; margin-top: 33px;""><img src=""images/choice_trial_3.png"" style=""width: 408px; height: 417px; margin-right: 200px;""><img src=""images/choice_trial_10.png"" style=""width: 408px; height: 417px;""></div></div>",j,delaylearn,learning,trial,b91UXRcoLLhRNrDLu4ArCIoK8ID2,b91UXRcoLLhRNrDLu4ArCIoK8ID2,4.0,images/choice_trial_3.png,images/choice_trial_10.png,images/pattern_6.png,j,j,750.0,3.0,10.0,5.0,1.0,21.0,1.0,1.0,10.0,160.0,,,,,,63d8c185bbfa79d8246dd97b,16:55:24,27/03/2024
html-keyboard-response,112,212945,0.0-48.0-1.0,,"<div style=""display: flex; flex-direction: column; align-items: center; margin-top: -40px;""><img src=""images/pattern_6.png"" style=""width: 234px; height: 230px; margin-top: -50px;""><div style=""display: flex; justify-content: space-between; margin-top: 33px;""><img src=""images/choice_trial_10.png"" style=""width: 408px; height: 417px; margin-left:608px;""></div></div>",,delaylearn,learning,display_response,b91UXRcoLLhRNrDLu4ArCIoK8ID2,b91UXRcoLLhRNrDLu4ArCIoK8ID2,,,,,,,,,,,,,,,,,chosen stimuli: images/choice_trial_10.png,,,,,63d8c185bbfa79d8246dd97b,16:55:24,27/03/2024
html-keyboard-response,113,213701,0.0-48.0-2.0,,,,delaylearn,learning,feedback_duration_window,b91UXRcoLLhRNrDLu4ArCIoK8ID2,b91UXRcoLLhRNrDLu4ArCIoK8ID2,,,,,,,,,,,,,,,,,,750.0,,,,63d8c185bbfa79d8246dd97b,16:55:24,27/03/2024
html-keyboard-response,114,215216,0.0-48.0-3.0,,<div style='margin:auto;width: auto; font-size: 150%'><span style='font-weight: bold; font-size: 100px; color: green;'>+10 points!</span><br><br></div>,,delaylearn,learning,feedback_image_window,b91UXRcoLLhRNrDLu4ArCIoK8ID2,b91UXRcoLLhRNrDLu4ArCIoK8ID2,,,,,,,,,,,,,,,,,,,,,,63d8c185bbfa79d8246dd97b,16:55:24,27/03/2024
html-keyboard-response,115,217566,0.0-49.0,,"<div style=""font-size:100px;"">+</div>",,delaylearn,learning,ITI,b91UXRcoLLhRNrDLu4ArCIoK8ID2,b91UXRcoLLhRNrDLu4ArCIoK8ID2,,,,,,,,,,,,,,,,,,,2348.0,,,63d8c185bbfa79d8246dd97b,16:55:24,27/03/2024
html-keyboard-response,116,219098,0.0-50.0-0.0,1531.0,"<div style=""display: flex; flex-direction: column; align-items: center; margin-top: -40px;""><img src=""images/pattern_4.png"" style=""width: 234px; height: 230px; margin-top: -50px;""><div style=""display: flex; justify-content: space-between; margin-top: 33px;""><img src=""images/choice_trial_8.png"" style=""width: 408px; height: 417px; margin-right: 200px;""><img src=""images/choice_trial_7.png"" style=""width: 408px; height: 417px;""></div></div>",f,delaylearn,learning,trial,b91UXRcoLLhRNrDLu4ArCIoK8ID2,b91UXRcoLLhRNrDLu4ArCIoK8ID2,4.0,images/choice_trial_8.png,images/choice_trial_7.png,images/pattern_4.png,f,f,7000.0,8.0,7.0,3.0,0.0,22.0,1.0,1.0,8.0,170.0,,,,,,63d8c185bbfa79d8246dd97b,16:55:24,27/03/2024
html-keyboard-response,117,220100,0.0-50.0-1.0,,"<div style=""display: flex; flex-direction: column; align-items: center; margin-top: -40px;""><img src=""images/pattern_4.png"" style=""width: 234px; height: 230px; margin-top: -50px;""><div style=""display: flex; justify-content: space-between; margin-top: 33px;""><img src=""images/choice_trial_8.png"" style=""width: 408px; height: 417px; margin-right: 608px;""></div></div>",,delaylearn,learning,display_response,b91UXRcoLLhRNrDLu4ArCIoK8ID2,b91UXRcoLLhRNrDLu4ArCIoK8ID2,,,,,,,,,,,,,,,,,chosen stimuli: images/choice_trial_8.png,,,,,63d8c185bbfa79d8246dd97b,16:55:24,27/03/2024
html-keyboard-response,118,227116,0.0-50.0-2.0,,,,delaylearn,learning,feedback_duration_window,b91UXRcoLLhRNrDLu4ArCIoK8ID2,b91UXRcoLLhRNrDLu4ArCIoK8ID2,,,,,,,,,,,,,,,,,,7000.0,,,,63d8c185bbfa79d8246dd97b,16:55:24,27/03/2024
html-keyboard-response,119,228632,0.0-50.0-3.0,,<div style='margin:auto;width: auto; font-size: 150%'><span style='font-weight: bold; font-size: 100px; color: green;'>+10 points!</span><br><br></div>,,delaylearn,learning,feedback_image_window,b91UXRcoLLhRNrDLu4ArCIoK8ID2,b91UXRcoLLhRNrDLu4ArCIoK8ID2,,,,,,,,,,,,,,,,,,,,,,63d8c185bbfa79d8246dd97b,16:55:24,27/03/2024
html-keyboard-response,120,229142,0.0-51.0-0.0,,,,,,mood_trial_fixation,b91UXRcoLLhRNrDLu4ArCIoK8ID2,,,,,,,,,,,,,,,,,,,,,,,63d8c185bbfa79d8246dd97b,16:55:24,27/03/2024
lmdlab-html-vas-response,121,233252,0.0-51.0-1.0,3107.0,How happy are you right now?,0.5682870370370371,delaylearn,learning,mood_trial,b91UXRcoLLhRNrDLu4ArCIoK8ID2,b91UXRcoLLhRNrDLu4ArCIoK8ID2,,,,,,,,,,,,,,,,,,,,"['Very unhappy', 'Very happy']",,63d8c185bbfa79d8246dd97b,16:55:24,27/03/2024
html-keyboard-response,122,235321,0.0-52.0,,"<div style=""font-size:100px;"">+</div>",,delaylearn,learning,ITI,b91UXRcoLLhRNrDLu4ArCIoK8ID2,b91UXRcoLLhRNrDLu4ArCIoK8ID2,,,,,,,,,,,,,,,,,,,2055.0,,,63d8c185bbfa79d8246dd97b,16:55:24,27/03/2024
html-keyboard-response,123,236473,0.0-53.0-0.0,1150.8000000002794,"<div style=""display: flex; flex-direction: column; align-items: center; margin-top: -40px;""><img src=""images/pattern_7.png"" style=""width: 234px; height: 230px; margin-top: -50px;""><div style=""display: flex; justify-content: space-between; margin-top: 33px;""><img src=""images/choice_trial_4.png"" style=""width: 408px; height: 417px; margin-right: 200px;""><img src=""images/choice_trial_13.png"" style=""width: 408px; height: 417px;""></div></div>",j,delaylearn,learning,trial,b91UXRcoLLhRNrDLu4ArCIoK8ID2,b91UXRcoLLhRNrDLu4ArCIoK8ID2,4.0,images/choice_trial_4.png,images/choice_trial_13.png,images/pattern_7.png,j,j,750.0,4.0,13.0,6.0,1.0,23.0,1.0,1.0,13.0,180.0,,,,,,63d8c185bbfa79d8246dd97b,16:55:24,27/03/2024
html-keyboard-response,124,237483,0.0-53.0-1.0,,"<div style=""display: flex; flex-direction: column; align-items: center; margin-top: -40px;""><img src=""images/pattern_7.png"" style=""width: 234px; height: 230px; margin-top: -50px;""><div style=""display: flex; justify-content: space-between; margin-top: 33px;""><img src=""images/choice_trial_13.png"" style=""width: 408px; height: 417px; margin-left:608px;""></div></div>",,delaylearn,learning,display_response,b91UXRcoLLhRNrDLu4ArCIoK8ID2,b91UXRcoLLhRNrDLu4ArCIoK8ID2,,,,,,,,,,,,,,,,,chosen stimuli: images/choice_trial_13.png,,,,,63d8c185bbfa79d8246dd97b,16:55:24,27/03/2024
html-keyboard-response,125,238239,0.0-53.0-2.0,,,,delaylearn,learning,feedback_duration_window,b91UXRcoLLhRNrDLu4ArCIoK8ID2,b91UXRcoLLhRNrDLu4ArCIoK8ID2,,,,,,,,,,,,,,,,,,750.0,,,,63d8c185bbfa79d8246dd97b,16:55:24,27/03/2024
html-keyboard-response,126,239754,0.0-53.0-3.0,,<div style='margin:auto;width: auto; font-size: 150%'><span style='font-weight: bold; font-size: 100px; color: green;'>+10 points!</span><br><br></div>,,delaylearn,learning,feedback_image_window,b91UXRcoLLhRNrDLu4ArCIoK8ID2,b91UXRcoLLhRNrDLu4ArCIoK8ID2,,,,,,,,,,,,,,,,,,,,,,63d8c185bbfa79d8246dd97b,16:55:24,27/03/2024
html-keyboard-response,127,241514,0.0-54.0,,"<div style=""font-size:100px;"">+</div>",,delaylearn,learning,ITI,b91UXRcoLLhRNrDLu4ArCIoK8ID2,b91UXRcoLLhRNrDLu4ArCIoK8ID2,,,,,,,,,,,,,,,,,,,1756.0,,,63d8c185bbfa79d8246dd97b,16:55:24,27/03/2024
html-keyboard-response,128,242776,0.0-55.0-0.0,1260.7000000001863,"<div style=""display: flex; flex-direction: column; align-items: center; margin-top: -40px;""><img src=""images/pattern_1.png"" style=""width: 234px; height: 230px; margin-top: -50px;""><div style=""display: flex; justify-content: space-between; margin-top: 33px;""><img src=""images/choice_trial_9.png"" style=""width: 408px; height: 417px; margin-right: 200px;""><img src=""images/choice_trial_1.png"" style=""width: 408px; height: 417px;""></div></div>",j,delaylearn,learning,trial,b91UXRcoLLhRNrDLu4ArCIoK8ID2,b91UXRcoLLhRNrDLu4ArCIoK8ID2,4.0,images/choice_trial_9.png,images/choice_trial_1.png,images/pattern_1.png,f,j,7000.0,9.0,1.0,1.0,1.0,24.0,1.0,0.0,1.0,180.0,,,,,,63d8c185bbfa79d8246dd97b,16:55:24,27/03/2024
html-keyboard-response,129,243786,0.0-55.0-1.0,,"<div style=""display: flex; flex-direction: column; align-items: center; margin-top: -40px;""><img src=""images/pattern_1.png"" style=""width: 234px; height: 230px; margin-top: -50px;""><div style=""display: flex; justify-content: space-between; margin-top: 33px;""><img src=""images/choice_trial_1.png"" style=""width: 408px; height: 417px; margin-left:608px;""></div></div>",,delaylearn,learning,display_response,b91UXRcoLLhRNrDLu4ArCIoK8ID2,b91UXRcoLLhRNrDLu4ArCIoK8ID2,,,,,,,,,,,,,,,,,chosen stimuli: images/choice_trial_1.png,,,,,63d8c185bbfa79d8246dd97b,16:55:24,27/03/2024
html-keyboard-response,130,250789,0.0-55.0-2.0,,,,delaylearn,learning,feedback_duration_window,b91UXRcoLLhRNrDLu4ArCIoK8ID2,b91UXRcoLLhRNrDLu4ArCIoK8ID2,,,,,,,,,,,,,,,,,,7000.0,,,,63d8c185bbfa79d8246dd97b,16:55:24,27/03/2024
html-keyboard-response,131,252304,0.0-55.0-3.0,,<div style='margin:auto;width: auto; font-size: 150%'><span style='font-weight: bold; font-size: 100px; color: red;'>0 points!</span><br><br></div>,,delaylearn,learning,feedback_image_window,b91UXRcoLLhRNrDLu4ArCIoK8ID2,b91UXRcoLLhRNrDLu4ArCIoK8ID2,,,,,,,,,,,,,,,,,,,,,,63d8c185bbfa79d8246dd97b,16:55:24,27/03/2024
html-keyboard-response,132,253881,0.0-56.0,,"<div style=""font-size:100px;"">+</div>",,delaylearn,learning,ITI,b91UXRcoLLhRNrDLu4ArCIoK8ID2,b91UXRcoLLhRNrDLu4ArCIoK8ID2,,,,,,,,,,,,,,,,,,,1566.0,,,63d8c185bbfa79d8246dd97b,16:55:24,27/03/2024
html-keyboard-response,133,254667,0.0-57.0-0.0,784.6000000000931,"<div style=""display: flex; flex-direction: column; align-items: center; margin-top: -40px;""><img src=""images/pattern_5.png"" style=""width: 234px; height: 230px; margin-top: -50px;""><div style=""display: flex; justify-content: space-between; margin-top: 33px;""><img src=""images/choice_trial_15.png"" style=""width: 408px; height: 417px; margin-right: 200px;""><img src=""images/choice_trial_5.png"" style=""width: 408px; height: 417px;""></div></div>",f,delaylearn,learning,trial,b91UXRcoLLhRNrDLu4ArCIoK8ID2,b91UXRcoLLhRNrDLu4ArCIoK8ID2,4.0,images/choice_trial_15.png,images/choice_trial_5.png,images/pattern_5.png,j,j,750.0,15.0,5.0,4.0,1.0,25.0,0.0,0.0,15.0,180.0,,,,,,63d8c185bbfa79d8246dd97b,16:55:24,27/03/2024
html-keyboard-response,134,255674,0.0-57.0-1.0,,"<div style=""display: flex; flex-direction: column; align-items: center; margin-top: -40px;""><img src=""images/pattern_5.png"" style=""width: 234px; height: 230px; margin-top: -50px;""><div style=""display: flex; justify-content: space-between; margin-top: 33px;""><img src=""images/choice_trial_15.png"" style=""width: 408px; height: 417px; margin-right: 608px;""></div></div>",,delaylearn,learning,display_response,b91UXRcoLLhRNrDLu4ArCIoK8ID2,b91UXRcoLLhRNrDLu4ArCIoK8ID2,,,,,,,,,,,,,,,,,chosen stimuli: images/choice_trial_15.png,,,,,63d8c185bbfa79d8246dd97b,16:55:24,27/03/2024
html-keyboard-response,135,256430,0.0-57.0-2.0,,,,delaylearn,learning,feedback_duration_window,b91UXRcoLLhRNrDLu4ArCIoK8ID2,b91UXRcoLLhRNrDLu4ArCIoK8ID2,,,,,,,,,,,,,,,,,,750.0,,,,63d8c185bbfa79d8246dd97b,16:55:24,27/03/2024
html-keyboard-response,136,257945,0.0-57.0-3.0,,<div style='margin:auto;width: auto; font-size: 150%'><span style='font-weight: bold; font-size: 100px; color: red;'>0 points!</span><br><br></div>,,delaylearn,learning,feedback_image_window,b91UXRcoLLhRNrDLu4ArCIoK8ID2,b91UXRcoLLhRNrDLu4ArCIoK8ID2,,,,,,,,,,,,,,,,,,,,,,63d8c185bbfa79d8246dd97b,16:55:24,27/03/2024
html-keyboard-response,137,259783,0.0-58.0,,"<div style=""font-size:100px;"">+</div>",,delaylearn,learning,ITI,b91UXRcoLLhRNrDLu4ArCIoK8ID2,b91UXRcoLLhRNrDLu4ArCIoK8ID2,,,,,,,,,,,,,,,,,,,1834.0,,,63d8c185bbfa79d8246dd97b,16:55:24,27/03/2024
html-keyboard-response,138,260781,0.0-59.0-0.0,996.6999999997206,"<div style=""display: flex; flex-direction: column; align-items: center; margin-top: -40px;""><img src=""images/pattern_3.png"" style=""width: 234px; height: 230px; margin-top: -50px;""><div style=""display: flex; justify-content: space-between; margin-top: 33px;""><img src=""images/choice_trial_6.png"" style=""width: 408px; height: 417px; margin-right: 200px;""><img src=""images/choice_trial_16.png"" style=""width: 408px; height: 417px;""></div></div>",j,delaylearn,learning,trial,b91UXRcoLLhRNrDLu4ArCIoK8ID2,b91UXRcoLLhRNrDLu4ArCIoK8ID2,4.0,images/choice_trial_6.png,images/choice_trial_16.png,images/pattern_3.png,j,j,7000.0,6.0,16.0,2.0,1.0,26.0,1.0,1.0,16.0,190.0,,,,,,63d8c185bbfa79d8246dd97b,16:55:24,27/03/2024
html-keyboard-response,139,261792,0.0-59.0-1.0,,"<div style=""display: flex; flex-direction: column; align-items: center; margin-top: -40px;""><img src=""images/pattern_3.png"" style=""width: 234px; height: 230px; margin-top: -50px;""><div style=""display: flex; justify-content: space-between; margin-top: 33px;""><img src=""images/choice_trial_16.png"" style=""width: 408px; height: 417px; margin-left:608px;""></div></div>",,delaylearn,learning,display_response,b91UXRcoLLhRNrDLu4ArCIoK8ID2,b91UXRcoLLhRNrDLu4ArCIoK8ID2,,,,,,,,,,,,,,,,,chosen stimuli: images/choice_trial_16.png,,,,,63d8c185bbfa79d8246dd97b,16:55:24,27/03/2024
html-keyboard-response,140,268804,0.0-59.0-2.0,,,,delaylearn,learning,feedback_duration_window,b91UXRcoLLhRNrDLu4ArCIoK8ID2,b91UXRcoLLhRNrDLu4ArCIoK8ID2,,,,,,,,,,,,,,,,,,7000.0,,,,63d8c185bbfa79d8246dd97b,16:55:24,27/03/2024
html-keyboard-response,141,270319,0.0-59.0-3.0,,<div style='margin:auto;width: auto; font-size: 150%'><span style='font-weight: bold; font-size: 100px; color: green;'>+10 points!</span><br><br></div>,,delaylearn,learning,feedback_image_window,b91UXRcoLLhRNrDLu4ArCIoK8ID2,b91UXRcoLLhRNrDLu4ArCIoK8ID2,,,,,,,,,,,,,,,,,,,,,,63d8c185bbfa79d8246dd97b,16:55:24,27/03/2024
lmdlab-html-vas-response,142,277987,0.0-60.0-0.0,6161.0,*How <b><u>confident</u></b> are you feeling about your answers at this moment?*,0.36921296296296297,rewlearn,rate_confidence,,b91UXRcoLLhRNrDLu4ArCIoK8ID2,b91UXRcoLLhRNrDLu4ArCIoK8ID2,,,,,,,,,,,,,,,,,,,,"['No confidence', 'Complete confidence']",,63d8c185bbfa79d8246dd97b,16:55:24,27/03/2024
lmdlab-rest-trial-limit,143,313107,0.0-60.0-1.0,33616.10000000009,"<div style=""font-size:40px;""><b>Please take a break!</b><br><br><br><br><p>Great work: you earned 190 points.<br><br><br><p>You have completed part(s) 1 of 5.<br><br><br><br>When you are ready to continue<br><br><br>please click the button.</p><br><br>",0,delaylearn,learning,break,b91UXRcoLLhRNrDLu4ArCIoK8ID2,b91UXRcoLLhRNrDLu4ArCIoK8ID2,,,,,,,,,,,,,,,,,,,,,0.0,63d8c185bbfa79d8246dd97b,16:55:24,27/03/2024
html-keyboard-response,144,316120,0.0-60.0-2.0,,"<div style=""font-size:100px;"">+</div>",,delaylearn,learning,pre_fixation,b91UXRcoLLhRNrDLu4ArCIoK8ID2,,,,,,,,,,,,,,,,,,,,,,,63d8c185bbfa79d8246dd97b,16:55:24,27/03/2024
lmdlab-html-vas-response,145,321253,0.0-60.0-3.0-0.0,4129.0,How happy are you right now?,0.5532407407407407,delaylearn,learning,mood_baseline,b91UXRcoLLhRNrDLu4ArCIoK8ID2,b91UXRcoLLhRNrDLu4ArCIoK8ID2,,,,,,,,,,,,,,,,,,,,"['Very unhappy', 'Very happy']",,63d8c185bbfa79d8246dd97b,16:55:24,27/03/2024
html-keyboard-response,146,322765,0.0-60.0-3.0-1.0,,,,,,mood_baseline_fixation,b91UXRcoLLhRNrDLu4ArCIoK8ID2,,,,,,,,,,,,,,,,,,,,,,,63d8c185bbfa79d8246dd97b,16:55:24,27/03/2024
html-keyboard-response,147,324529,0.0-61.0,,"<div style=""font-size:100px;"">+</div>",,delaylearn,learning,ITI,b91UXRcoLLhRNrDLu4ArCIoK8ID2,b91UXRcoLLhRNrDLu4ArCIoK8ID2,,,,,,,,,,,,,,,,,,,1763.0,,,63d8c185bbfa79d8246dd97b,16:55:24,27/03/2024
html-keyboard-response,148,326099,0.0-62.0-0.0,1569.3000000002794,"<div style=""display: flex; flex-direction: column; align-items: center; margin-top: -40px;""><img src=""images/pattern_7.png"" style=""width: 234px; height: 230px; margin-top: -50px;""><div style=""display: flex; justify-content: space-between; margin-top: 33px;""><img src=""images/choice_trial_4.png"" style=""width: 408px; height: 417px; margin-right: 200px;""><img src=""images/choice_trial_13.png"" style=""width: 408px; height: 417px;""></div></div>",f,delaylearn,learning,trial,b91UXRcoLLhRNrDLu4ArCIoK8ID2,b91UXRcoLLhRNrDLu4ArCIoK8ID2,4.0,images/choice_trial_4.png,images/choice_trial_13.png,images/pattern_7.png,j,j,750.0,4.0,13.0,6.0,1.0,27.0,0.0,0.0,4.0,190.0,,,,,,63d8c185bbfa79d8246dd97b,16:55:24,27/03/2024
html-keyboard-response,149,327108,0.0-62.0-1.0,,"<div style=""display: flex; flex-direction: column; align-items: center; margin-top: -40px;""><img src=""images/pattern_7.png"" style=""width: 234px; height: 230px; margin-top: -50px;""><div style=""display: flex; justify-content: space-between; margin-top: 33px;""><img src=""images/choice_trial_4.png"" style=""width: 408px; height: 417px; margin-right: 608px;""></div></div>",,delaylearn,learning,display_response,b91UXRcoLLhRNrDLu4ArCIoK8ID2,b91UXRcoLLhRNrDLu4ArCIoK8ID2,,,,,,,,,,,,,,,,,chosen stimuli: images/choice_trial_4.png,,,,,63d8c185bbfa79d8246dd97b,16:55:24,27/03/2024
html-keyboard-response,150,327866,0.0-62.0-2.0,,,,delaylearn,learning,feedback_duration_window,b91UXRcoLLhRNrDLu4ArCIoK8ID2,b91UXRcoLLhRNrDLu4ArCIoK8ID2,,,,,,,,,,,,,,,,,,750.0,,,,63d8c185bbfa79d8246dd97b,16:55:24,27/03/2024
html-keyboard-response,151,329381,0.0-62.0-3.0,,<div style='margin:auto;width: auto; font-size: 150%'><span style='font-weight: bold; font-size: 100px; color: red;'>0 points!</span><br><br></div>,,delaylearn,learning,feedback_image_window,b91UXRcoLLhRNrDLu4ArCIoK8ID2,b91UXRcoLLhRNrDLu4ArCIoK8ID2,,,,,,,,,,,,,,,,,,,,,,63d8c185bbfa79d8246dd97b,16:55:24,27/03/2024
html-keyboard-response,152,329892,0.0-63.0-0.0,,,,,,mood_trial_fixation,b91UXRcoLLhRNrDLu4ArCIoK8ID2,,,,,,,,,,,,,,,,,,,,,,,63d8c185bbfa79d8246dd97b,16:55:24,27/03/2024
lmdlab-html-vas-response,153,334044,0.0-63.0-1.0,3147.0,How happy are you right now?,0.4930555555555556,delaylearn,learning,mood_trial,b91UXRcoLLhRNrDLu4ArCIoK8ID2,b91UXRcoLLhRNrDLu4ArCIoK8ID2,,,,,,,,,,,,,,,,,,,,"['Very unhappy', 'Very happy']",,63d8c185bbfa79d8246dd97b,16:55:24,27/03/2024
html-keyboard-response,154,336333,0.0-64.0,,"<div style=""font-size:100px;"">+</div>",,delaylearn,learning,ITI,b91UXRcoLLhRNrDLu4ArCIoK8ID2,b91UXRcoLLhRNrDLu4ArCIoK8ID2,,,,,,,,,,,,,,,,,,,2276.0,,,63d8c185bbfa79d8246dd97b,16:55:24,27/03/2024
html-keyboard-response,155,337613,0.0-65.0-0.0,1279.2000000001863,"<div style=""display: flex; flex-direction: column; align-items: center; margin-top: -40px;""><img src=""images/pattern_1.png"" style=""width: 234px; height: 230px; margin-top: -50px;""><div style=""display: flex; justify-content: space-between; margin-top: 33px;""><img src=""images/choice_trial_1.png"" style=""width: 408px; height: 417px; margin-right: 200px;""><img src=""images/choice_trial_9.png"" style=""width: 408px; height: 417px;""></div></div>",f,delaylearn,learning,trial,b91UXRcoLLhRNrDLu4ArCIoK8ID2,b91UXRcoLLhRNrDLu4ArCIoK8ID2,4.0,images/choice_trial_1.png,images/choice_trial_9.png,images/pattern_1.png,f,f,7000.0,1.0,9.0,1.0,0.0,28.0,1.0,1.0,1.0,200.0,,,,,,63d8c185bbfa79d8246dd97b,16:55:24,27/03/2024
html-keyboard-response,156,338617,0.0-65.0-1.0,,"<div style=""display: flex; flex-direction: column; align-items: center; margin-top: -40px;""><img src=""images/pattern_1.png"" style=""width: 234px; height: 230px; margin-top: -50px;""><div style=""display: flex; justify-content: space-between; margin-top: 33px;""><img src=""images/choice_trial_1.png"" style=""width: 408px; height: 417px; margin-right: 608px;""></div></div>",,delaylearn,learning,display_response,b91UXRcoLLhRNrDLu4ArCIoK8ID2,b91UXRcoLLhRNrDLu4ArCIoK8ID2,,,,,,,,,,,,,,,,,chosen stimuli: images/choice_trial_1.png,,,,,63d8c185bbfa79d8246dd97b,16:55:24,27/03/2024
html-keyboard-response,157,345630,0.0-65.0-2.0,,,,delaylearn,learning,feedback_duration_window,b91UXRcoLLhRNrDLu4ArCIoK8ID2,b91UXRcoLLhRNrDLu4ArCIoK8ID2,,,,,,,,,,,,,,,,,,7000.0,,,,63d8c185bbfa79d8246dd97b,16:55:24,27/03/2024
html-keyboard-response,158,347144,0.0-65.0-3.0,,<div style='margin:auto;width: auto; font-size: 150%'><span style='font-weight: bold; font-size: 100px; color: green;'>+10 points!</span><br><br></div>,,delaylearn,learning,feedback_image_window,b91UXRcoLLhRNrDLu4ArCIoK8ID2,b91UXRcoLLhRNrDLu4ArCIoK8ID2,,,,,,,,,,,,,,,,,,,,,,63d8c185bbfa79d8246dd97b,16:55:24,27/03/2024
html-keyboard-response,159,349613,0.0-66.0,,"<div style=""font-size:100px;"">+</div>",,delaylearn,learning,ITI,b91UXRcoLLhRNrDLu4ArCIoK8ID2,b91UXRcoLLhRNrDLu4ArCIoK8ID2,,,,,,,,,,,,,,,,,,,2459.0,,,63d8c185bbfa79d8246dd97b,16:55:24,27/03/2024
html-keyboard-response,160,350996,0.0-67.0-0.0,1382.3000000002794,"<div style=""display: flex; flex-direction: column; align-items: center; margin-top: -40px;""><img src=""images/pattern_5.png"" style=""width: 234px; height: 230px; margin-top: -50px;""><div style=""display: flex; justify-content: space-between; margin-top: 33px;""><img src=""images/choice_trial_5.png"" style=""width: 408px; height: 417px; margin-right: 200px;""><img src=""images/choice_trial_15.png"" style=""width: 408px; height: 417px;""></div></div>",f,delaylearn,learning,trial,b91UXRcoLLhRNrDLu4ArCIoK8ID2,b91UXRcoLLhRNrDLu4ArCIoK8ID2,4.0,images/choice_trial_5.png,images/choice_trial_15.png,images/pattern_5.png,f,f,750.0,5.0,15.0,4.0,0.0,29.0,1.0,1.0,5.0,210.0,,,,,,63d8c185bbfa79d8246dd97b,16:55:24,27/03/2024
html-keyboard-response,161,352002,0.0-67.0-1.0,,"<div style=""display: flex; flex-direction: column; align-items: center; margin-top: -40px;""><img src=""images/pattern_5.png"" style=""width: 234px; height: 230px; margin-top: -50px;""><div style=""display: flex; justify-content: space-between; margin-top: 33px;""><img src=""images/choice_trial_5.png"" style=""width: 408px; height: 417px; margin-right: 608px;""></div></div>",,delaylearn,learning,display_response,b91UXRcoLLhRNrDLu4ArCIoK8ID2,b91UXRcoLLhRNrDLu4ArCIoK8ID2,,,,,,,,,,,,,,,,,chosen stimuli: images/choice_trial_5.png,,,,,63d8c185bbfa79d8246dd97b,16:55:24,27/03/2024
html-keyboard-response,162,352756,0.0-67.0-2.0,,,,delaylearn,learning,feedback_duration_window,b91UXRcoLLhRNrDLu4ArCIoK8ID2,b91UXRcoLLhRNrDLu4ArCIoK8ID2,,,,,,,,,,,,,,,,,,750.0,,,,63d8c185bbfa79d8246dd97b,16:55:24,27/03/2024
html-keyboard-response,163,354272,0.0-67.0-3.0,,<div style='margin:auto;width: auto; font-size: 150%'><span style='font-weight: bold; font-size: 100px; color: green;'>+10 points!</span><br><br></div>,,delaylearn,learning,feedback_image_window,b91UXRcoLLhRNrDLu4ArCIoK8ID2,b91UXRcoLLhRNrDLu4ArCIoK8ID2,,,,,,,,,,,,,,,,,,,,,,63d8c185bbfa79d8246dd97b,16:55:24,27/03/2024
html-keyboard-response,164,355926,0.0-68.0,,"<div style=""font-size:100px;"">+</div>",,delaylearn,learning,ITI,b91UXRcoLLhRNrDLu4ArCIoK8ID2,b91UXRcoLLhRNrDLu4ArCIoK8ID2,,,,,,,,,,,,,,,,,,,1645.0,,,63d8c185bbfa79d8246dd97b,16:55:24,27/03/2024
html-keyboard-response,165,356879,0.0-69.0-0.0,951.6000000000931,"<div style=""display: flex; flex-direction: column; align-items: center; margin-top: -40px;""><img src=""images/pattern_6.png"" style=""width: 234px; height: 230px; margin-top: -50px;""><div style=""display: flex; justify-content: space-between; margin-top: 33px;""><img src=""images/choice_trial_3.png"" style=""width: 408px; height: 417px; margin-right: 200px;""><img src=""images/choice_trial_10.png"" style=""width: 408px; height: 417px;""></div></div>",j,delaylearn,learning,trial,b91UXRcoLLhRNrDLu4ArCIoK8ID2,b91UXRcoLLhRNrDLu4ArCIoK8ID2,4.0,images/choice_trial_3.png,images/choice_trial_10.png,images/pattern_6.png,j,j,750.0,3.0,10.0,5.0,1.0,30.0,1.0,1.0,10.0,220.0,,,,,,63d8c185bbfa79d8246dd97b,16:55:24,27/03/2024
html-keyboard-response,166,357888,0.0-69.0-1.0,,"<div style=""display: flex; flex-direction: column; align-items: center; margin-top: -40px;""><img src=""images/pattern_6.png"" style=""width: 234px; height: 230px; margin-top: -50px;""><div style=""display: flex; justify-content: space-between; margin-top: 33px;""><img src=""images/choice_trial_10.png"" style=""width: 408px; height: 417px; margin-left:608px;""></div></div>",,delaylearn,learning,display_response,b91UXRcoLLhRNrDLu4ArCIoK8ID2,b91UXRcoLLhRNrDLu4ArCIoK8ID2,,,,,,,,,,,,,,,,,chosen stimuli: images/choice_trial_10.png,,,,,63d8c185bbfa79d8246dd97b,16:55:24,27/03/2024
html-keyboard-response,167,358646,0.0-69.0-2.0,,,,delaylearn,learning,feedback_duration_window,b91UXRcoLLhRNrDLu4ArCIoK8ID2,b91UXRcoLLhRNrDLu4ArCIoK8ID2,,,,,,,,,,,,,,,,,,750.0,,,,63d8c185bbfa79d8246dd97b,16:55:24,27/03/2024
html-keyboard-response,168,360161,0.0-69.0-3.0,,<div style='margin:auto;width: auto; font-size: 150%'><span style='font-weight: bold; font-size: 100px; color: green;'>+10 points!</span><br><br></div>,,delaylearn,learning,feedback_image_window,b91UXRcoLLhRNrDLu4ArCIoK8ID2,b91UXRcoLLhRNrDLu4ArCIoK8ID2,,,,,,,,,,,,,,,,,,,,,,63d8c185bbfa79d8246dd97b,16:55:24,27/03/2024
html-keyboard-response,169,360672,0.0-70.0-0.0,,,,,,mood_trial_fixation,b91UXRcoLLhRNrDLu4ArCIoK8ID2,,,,,,,,,,,,,,,,,,,,,,,63d8c185bbfa79d8246dd97b,16:55:24,27/03/2024
lmdlab-html-vas-response,170,364812,0.0-70.0-1.0,3137.0,How happy are you right now?,0.5231481481481481,delaylearn,learning,mood_trial,b91UXRcoLLhRNrDLu4ArCIoK8ID2,b91UXRcoLLhRNrDLu4ArCIoK8ID2,,,,,,,,,,,,,,,,,,,,"['Very unhappy', 'Very happy']",,63d8c185bbfa79d8246dd97b,16:55:24,27/03/2024
html-keyboard-response,171,366460,0.0-71.0,,"<div style=""font-size:100px;"">+</div>",,delaylearn,learning,ITI,b91UXRcoLLhRNrDLu4ArCIoK8ID2,b91UXRcoLLhRNrDLu4ArCIoK8ID2,,,,,,,,,,,,,,,,,,,1638.0,,,63d8c185bbfa79d8246dd97b,16:55:24,27/03/2024
html-keyboard-response,172,367447,0.0-72.0-0.0,985.3999999999069,"<div style=""display: flex; flex-direction: column; align-items: center; margin-top: -40px;""><img src=""images/pattern_4.png"" style=""width: 234px; height: 230px; margin-top: -50px;""><div style=""display: flex; justify-content: space-between; margin-top: 33px;""><img src=""images/choice_trial_7.png"" style=""width: 408px; height: 417px; margin-right: 200px;""><img src=""images/choice_trial_8.png"" style=""width: 408px; height: 417px;""></div></div>",f,delaylearn,learning,trial,b91UXRcoLLhRNrDLu4ArCIoK8ID2,b91UXRcoLLhRNrDLu4ArCIoK8ID2,4.0,images/choice_trial_7.png,images/choice_trial_8.png,images/pattern_4.png,j,j,7000.0,7.0,8.0,3.0,1.0,31.0,0.0,0.0,7.0,220.0,,,,,,63d8c185bbfa79d8246dd97b,16:55:24,27/03/2024
html-keyboard-response,173,368453,0.0-72.0-1.0,,"<div style=""display: flex; flex-direction: column; align-items: center; margin-top: -40px;""><img src=""images/pattern_4.png"" style=""width: 234px; height: 230px; margin-top: -50px;""><div style=""display: flex; justify-content: space-between; margin-top: 33px;""><img src=""images/choice_trial_7.png"" style=""width: 408px; height: 417px; margin-right: 608px;""></div></div>",,delaylearn,learning,display_response,b91UXRcoLLhRNrDLu4ArCIoK8ID2,b91UXRcoLLhRNrDLu4ArCIoK8ID2,,,,,,,,,,,,,,,,,chosen stimuli: images/choice_trial_7.png,,,,,63d8c185bbfa79d8246dd97b,16:55:24,27/03/2024
html-keyboard-response,174,375465,0.0-72.0-2.0,,,,delaylearn,learning,feedback_duration_window,b91UXRcoLLhRNrDLu4ArCIoK8ID2,b91UXRcoLLhRNrDLu4ArCIoK8ID2,,,,,,,,,,,,,,,,,,7000.0,,,,63d8c185bbfa79d8246dd97b,16:55:24,27/03/2024
html-keyboard-response,175,376976,0.0-72.0-3.0,,<div style='margin:auto;width: auto; font-size: 150%'><span style='font-weight: bold; font-size: 100px; color: red;'>0 points!</span><br><br></div>,,delaylearn,learning,feedback_image_window,b91UXRcoLLhRNrDLu4ArCIoK8ID2,b91UXRcoLLhRNrDLu4ArCIoK8ID2,,,,,,,,,,,,,,,,,,,,,,63d8c185bbfa79d8246dd97b,16:55:24,27/03/2024
html-keyboard-response,176,379105,0.0-73.0,,"<div style=""font-size:100px;"">+</div>",,delaylearn,learning,ITI,b91UXRcoLLhRNrDLu4ArCIoK8ID2,b91UXRcoLLhRNrDLu4ArCIoK8ID2,,,,,,,,,,,,,,,,,,,2120.0,,,63d8c185bbfa79d8246dd97b,16:55:24,27/03/2024
html-keyboard-response,177,380157,0.0-74.0-0.0,1050.7999999998137,"<div style=""display: flex; flex-direction: column; align-items: center; margin-top: -40px;""><img src=""images/pattern_3.png"" style=""width: 234px; height: 230px; margin-top: -50px;""><div style=""display: flex; justify-content: space-between; margin-top: 33px;""><img src=""images/choice_trial_6.png"" style=""width: 408px; height: 417px; margin-right: 200px;""><img src=""images/choice_trial_16.png"" style=""width: 408px; height: 417px;""></div></div>",j,delaylearn,learning,trial,b91UXRcoLLhRNrDLu4ArCIoK8ID2,b91UXRcoLLhRNrDLu4ArCIoK8ID2,4.0,images/choice_trial_6.png,images/choice_trial_16.png,images/pattern_3.png,j,j,7000.0,6.0,16.0,2.0,1.0,32.0,1.0,1.0,16.0,230.0,,,,,,63d8c185bbfa79d8246dd97b,16:55:24,27/03/2024
html-keyboard-response,178,381169,0.0-74.0-1.0,,"<div style=""display: flex; flex-direction: column; align-items: center; margin-top: -40px;""><img src=""images/pattern_3.png"" style=""width: 234px; height: 230px; margin-top: -50px;""><div style=""display: flex; justify-content: space-between; margin-top: 33px;""><img src=""images/choice_trial_16.png"" style=""width: 408px; height: 417px; margin-left:608px;""></div></div>",,delaylearn,learning,display_response,b91UXRcoLLhRNrDLu4ArCIoK8ID2,b91UXRcoLLhRNrDLu4ArCIoK8ID2,,,,,,,,,,,,,,,,,chosen stimuli: images/choice_trial_16.png,,,,,63d8c185bbfa79d8246dd97b,16:55:24,27/03/2024
html-keyboard-response,179,388182,0.0-74.0-2.0,,,,delaylearn,learning,feedback_duration_window,b91UXRcoLLhRNrDLu4ArCIoK8ID2,b91UXRcoLLhRNrDLu4ArCIoK8ID2,,,,,,,,,,,,,,,,,,7000.0,,,,63d8c185bbfa79d8246dd97b,16:55:24,27/03/2024
html-keyboard-response,180,389695,0.0-74.0-3.0,,<div style='margin:auto;width: auto; font-size: 150%'><span style='font-weight: bold; font-size: 100px; color: green;'>+10 points!</span><br><br></div>,,delaylearn,learning,feedback_image_window,b91UXRcoLLhRNrDLu4ArCIoK8ID2,b91UXRcoLLhRNrDLu4ArCIoK8ID2,,,,,,,,,,,,,,,,,,,,,,63d8c185bbfa79d8246dd97b,16:55:24,27/03/2024
html-keyboard-response,181,391841,0.0-75.0,,"<div style=""font-size:100px;"">+</div>",,delaylearn,learning,ITI,b91UXRcoLLhRNrDLu4ArCIoK8ID2,b91UXRcoLLhRNrDLu4ArCIoK8ID2,,,,,,,,,,,,,,,,,,,2144.0,,,63d8c185bbfa79d8246dd97b,16:55:24,27/03/2024
html-keyboard-response,182,392553,0.0-76.0-0.0,710.7999999998137,"<div style=""display: flex; flex-direction: column; align-items: center; margin-top: -40px;""><img src=""images/pattern_5.png"" style=""width: 234px; height: 230px; margin-top: -50px;""><div style=""display: flex; justify-content: space-between; margin-top: 33px;""><img src=""images/choice_trial_5.png"" style=""width: 408px; height: 417px; margin-right: 200px;""><img src=""images/choice_trial_15.png"" style=""width: 408px; height: 417px;""></div></div>",f,delaylearn,learning,trial,b91UXRcoLLhRNrDLu4ArCIoK8ID2,b91UXRcoLLhRNrDLu4ArCIoK8ID2,4.0,images/choice_trial_5.png,images/choice_trial_15.png,images/pattern_5.png,j,f,750.0,5.0,15.0,4.0,0.0,33.0,1.0,0.0,5.0,230.0,,,,,,63d8c185bbfa79d8246dd97b,16:55:24,27/03/2024
html-keyboard-response,183,393567,0.0-76.0-1.0,,"<div style=""display: flex; flex-direction: column; align-items: center; margin-top: -40px;""><img src=""images/pattern_5.png"" style=""width: 234px; height: 230px; margin-top: -50px;""><div style=""display: flex; justify-content: space-between; margin-top: 33px;""><img src=""images/choice_trial_5.png"" style=""width: 408px; height: 417px; margin-right: 608px;""></div></div>",,delaylearn,learning,display_response,b91UXRcoLLhRNrDLu4ArCIoK8ID2,b91UXRcoLLhRNrDLu4ArCIoK8ID2,,,,,,,,,,,,,,,,,chosen stimuli: images/choice_trial_5.png,,,,,63d8c185bbfa79d8246dd97b,16:55:24,27/03/2024
html-keyboard-response,184,394325,0.0-76.0-2.0,,,,delaylearn,learning,feedback_duration_window,b91UXRcoLLhRNrDLu4ArCIoK8ID2,b91UXRcoLLhRNrDLu4ArCIoK8ID2,,,,,,,,,,,,,,,,,,750.0,,,,63d8c185bbfa79d8246dd97b,16:55:24,27/03/2024
html-keyboard-response,185,395840,0.0-76.0-3.0,,<div style='margin:auto;width: auto; font-size: 150%'><span style='font-weight: bold; font-size: 100px; color: red;'>0 points!</span><br><br></div>,,delaylearn,learning,feedback_image_window,b91UXRcoLLhRNrDLu4ArCIoK8ID2,b91UXRcoLLhRNrDLu4ArCIoK8ID2,,,,,,,,,,,,,,,,,,,,,,63d8c185bbfa79d8246dd97b,16:55:24,27/03/2024
html-keyboard-response,186,397736,0.0-77.0,,"<div style=""font-size:100px;"">+</div>",,delaylearn,learning,ITI,b91UXRcoLLhRNrDLu4ArCIoK8ID2,b91UXRcoLLhRNrDLu4ArCIoK8ID2,,,,,,,,,,,,,,,,,,,1890.0,,,63d8c185bbfa79d8246dd97b,16:55:24,27/03/2024
html-keyboard-response,187,398730,0.0-78.0-0.0,992.8000000002794,"<div style=""display: flex; flex-direction: column; align-items: center; margin-top: -40px;""><img src=""images/pattern_1.png"" style=""width: 234px; height: 230px; margin-top: -50px;""><div style=""display: flex; justify-content: space-between; margin-top: 33px;""><img src=""images/choice_trial_1.png"" style=""width: 408px; height: 417px; margin-right: 200px;""><img src=""images/choice_trial_9.png"" style=""width: 408px; height: 417px;""></div></div>",f,delaylearn,learning,trial,b91UXRcoLLhRNrDLu4ArCIoK8ID2,b91UXRcoLLhRNrDLu4ArCIoK8ID2,4.0,images/choice_trial_1.png,images/choice_trial_9.png,images/pattern_1.png,f,f,7000.0,1.0,9.0,1.0,0.0,34.0,1.0,1.0,1.0,240.0,,,,,,63d8c185bbfa79d8246dd97b,16:55:24,27/03/2024
html-keyboard-response,188,399740,0.0-78.0-1.0,,"<div style=""display: flex; flex-direction: column; align-items: center; margin-top: -40px;""><img src=""images/pattern_1.png"" style=""width: 234px; height: 230px; margin-top: -50px;""><div style=""display: flex; justify-content: space-between; margin-top: 33px;""><img src=""images/choice_trial_1.png"" style=""width: 408px; height: 417px; margin-right: 608px;""></div></div>",,delaylearn,learning,display_response,b91UXRcoLLhRNrDLu4ArCIoK8ID2,b91UXRcoLLhRNrDLu4ArCIoK8ID2,,,,,,,,,,,,,,,,,chosen stimuli: images/choice_trial_1.png,,,,,63d8c185bbfa79d8246dd97b,16:55:24,27/03/2024
html-keyboard-response,189,406747,0.0-78.0-2.0,,,,delaylearn,learning,feedback_duration_window,b91UXRcoLLhRNrDLu4ArCIoK8ID2,b91UXRcoLLhRNrDLu4ArCIoK8ID2,,,,,,,,,,,,,,,,,,7000.0,,,,63d8c185bbfa79d8246dd97b,16:55:24,27/03/2024
html-keyboard-response,190,408258,0.0-78.0-3.0,,<div style='margin:auto;width: auto; font-size: 150%'><span style='font-weight: bold; font-size: 100px; color: green;'>+10 points!</span><br><br></div>,,delaylearn,learning,feedback_image_window,b91UXRcoLLhRNrDLu4ArCIoK8ID2,b91UXRcoLLhRNrDLu4ArCIoK8ID2,,,,,,,,,,,,,,,,,,,,,,63d8c185bbfa79d8246dd97b,16:55:24,27/03/2024
html-keyboard-response,191,408766,0.0-79.0-0.0,,,,,,mood_trial_fixation,b91UXRcoLLhRNrDLu4ArCIoK8ID2,,,,,,,,,,,,,,,,,,,,,,,63d8c185bbfa79d8246dd97b,16:55:24,27/03/2024
lmdlab-html-vas-response,192,413157,0.0-79.0-1.0,3388.0,How happy are you right now?,0.49074074074074076,delaylearn,learning,mood_trial,b91UXRcoLLhRNrDLu4ArCIoK8ID2,b91UXRcoLLhRNrDLu4ArCIoK8ID2,,,,,,,,,,,,,,,,,,,,"['Very unhappy', 'Very happy']",,63d8c185bbfa79d8246dd97b,16:55:24,27/03/2024
html-keyboard-response,193,415175,0.0-80.0,,"<div style=""font-size:100px;"">+</div>",,delaylearn,learning,ITI,b91UXRcoLLhRNrDLu4ArCIoK8ID2,b91UXRcoLLhRNrDLu4ArCIoK8ID2,,,,,,,,,,,,,,,,,,,2013.0,,,63d8c185bbfa79d8246dd97b,16:55:24,27/03/2024
html-keyboard-response,194,416482,0.0-81.0-0.0,1306.4000000003725,"<div style=""display: flex; flex-direction: column; align-items: center; margin-top: -40px;""><img src=""images/pattern_6.png"" style=""width: 234px; height: 230px; margin-top: -50px;""><div style=""display: flex; justify-content: space-between; margin-top: 33px;""><img src=""images/choice_trial_10.png"" style=""width: 408px; height: 417px; margin-right: 200px;""><img src=""images/choice_trial_3.png"" style=""width: 408px; height: 417px;""></div></div>",f,delaylearn,learning,trial,b91UXRcoLLhRNrDLu4ArCIoK8ID2,b91UXRcoLLhRNrDLu4ArCIoK8ID2,4.0,images/choice_trial_10.png,images/choice_trial_3.png,images/pattern_6.png,j,f,750.0,10.0,3.0,5.0,0.0,35.0,1.0,0.0,10.0,240.0,,,,,,63d8c185bbfa79d8246dd97b,16:55:24,27/03/2024
html-keyboard-response,195,417490,0.0-81.0-1.0,,"<div style=""display: flex; flex-direction: column; align-items: center; margin-top: -40px;""><img src=""images/pattern_6.png"" style=""width: 234px; height: 230px; margin-top: -50px;""><div style=""display: flex; justify-content: space-between; margin-top: 33px;""><img src=""images/choice_trial_10.png"" style=""width: 408px; height: 417px; margin-right: 608px;""></div></div>",,delaylearn,learning,display_response,b91UXRcoLLhRNrDLu4ArCIoK8ID2,b91UXRcoLLhRNrDLu4ArCIoK8ID2,,,,,,,,,,,,,,,,,chosen stimuli: images/choice_trial_10.png,,,,,63d8c185bbfa79d8246dd97b,16:55:24,27/03/2024
html-keyboard-response,196,418245,0.0-81.0-2.0,,,,delaylearn,learning,feedback_duration_window,b91UXRcoLLhRNrDLu4ArCIoK8ID2,b91UXRcoLLhRNrDLu4ArCIoK8ID2,,,,,,,,,,,,,,,,,,750.0,,,,63d8c185bbfa79d8246dd97b,16:55:24,27/03/2024
html-keyboard-response,197,419756,0.0-81.0-3.0,,<div style='margin:auto;width: auto; font-size: 150%'><span style='font-weight: bold; font-size: 100px; color: red;'>0 points!</span><br><br></div>,,delaylearn,learning,feedback_image_window,b91UXRcoLLhRNrDLu4ArCIoK8ID2,b91UXRcoLLhRNrDLu4ArCIoK8ID2,,,,,,,,,,,,,,,,,,,,,,63d8c185bbfa79d8246dd97b,16:55:24,27/03/2024
html-keyboard-response,198,421575,0.0-82.0,,"<div style=""font-size:100px;"">+</div>",,delaylearn,learning,ITI,b91UXRcoLLhRNrDLu4ArCIoK8ID2,b91UXRcoLLhRNrDLu4ArCIoK8ID2,,,,,,,,,,,,,,,,,,,1806.0,,,63d8c185bbfa79d8246dd97b,16:55:24,27/03/2024
html-keyboard-response,199,422386,0.0-83.0-0.0,809.7999999998137,"<div style=""display: flex; flex-direction: column; align-items: center; margin-top: -40px;""><img src=""images/pattern_3.png"" style=""width: 234px; height: 230px; margin-top: -50px;""><div style=""display: flex; justify-content: space-between; margin-top: 33px;""><img src=""images/choice_trial_6.png"" style=""width: 408px; height: 417px; margin-right: 200px;""><img src=""images/choice_trial_16.png"" style=""width: 408px; height: 417px;""></div></div>",j,delaylearn,learning,trial,b91UXRcoLLhRNrDLu4ArCIoK8ID2,b91UXRcoLLhRNrDLu4ArCIoK8ID2,4.0,images/choice_trial_6.png,images/choice_trial_16.png,images/pattern_3.png,j,j,7000.0,6.0,16.0,2.0,1.0,36.0,1.0,1.0,16.0,250.0,,,,,,63d8c185bbfa79d8246dd97b,16:55:24,27/03/2024
html-keyboard-response,200,423393,0.0-83.0-1.0,,"<div style=""display: flex; flex-direction: column; align-items: center; margin-top: -40px;""><img src=""images/pattern_3.png"" style=""width: 234px; height: 230px; margin-top: -50px;""><div style=""display: flex; justify-content: space-between; margin-top: 33px;""><img src=""images/choice_trial_16.png"" style=""width: 408px; height: 417px; margin-left:608px;""></div></div>",,delaylearn,learning,display_response,b91UXRcoLLhRNrDLu4ArCIoK8ID2,b91UXRcoLLhRNrDLu4ArCIoK8ID2,,,,,,,,,,,,,,,,,chosen stimuli: images/choice_trial_16.png,,,,,63d8c185bbfa79d8246dd97b,16:55:24,27/03/2024
html-keyboard-response,201,430397,0.0-83.0-2.0,,,,delaylearn,learning,feedback_duration_window,b91UXRcoLLhRNrDLu4ArCIoK8ID2,b91UXRcoLLhRNrDLu4ArCIoK8ID2,,,,,,,,,,,,,,,,,,7000.0,,,,63d8c185bbfa79d8246dd97b,16:55:24,27/03/2024
html-keyboard-response,202,431905,0.0-83.0-3.0,,<div style='margin:auto;width: auto; font-size: 150%'><span style='font-weight: bold; font-size: 100px; color: green;'>+10 points!</span><br><br></div>,,delaylearn,learning,feedback_image_window,b91UXRcoLLhRNrDLu4ArCIoK8ID2,b91UXRcoLLhRNrDLu4ArCIoK8ID2,,,,,,,,,,,,,,,,,,,,,,63d8c185bbfa79d8246dd97b,16:55:24,27/03/2024
html-keyboard-response,203,433753,0.0-84.0,,"<div style=""font-size:100px;"">+</div>",,delaylearn,learning,ITI,b91UXRcoLLhRNrDLu4ArCIoK8ID2,b91UXRcoLLhRNrDLu4ArCIoK8ID2,,,,,,,,,,,,,,,,,,,1841.0,,,63d8c185bbfa79d8246dd97b,16:55:24,27/03/2024
html-keyboard-response,204,434740,0.0-85.0-0.0,986.3999999999069,"<div style=""display: flex; flex-direction: column; align-items: center; margin-top: -40px;""><img src=""images/pattern_4.png"" style=""width: 234px; height: 230px; margin-top: -50px;""><div style=""display: flex; justify-content: space-between; margin-top: 33px;""><img src=""images/choice_trial_7.png"" style=""width: 408px; height: 417px; margin-right: 200px;""><img src=""images/choice_trial_8.png"" style=""width: 408px; height: 417px;""></div></div>",j,delaylearn,learning,trial,b91UXRcoLLhRNrDLu4ArCIoK8ID2,b91UXRcoLLhRNrDLu4ArCIoK8ID2,4.0,images/choice_trial_7.png,images/choice_trial_8.png,images/pattern_4.png,f,j,7000.0,7.0,8.0,3.0,1.0,37.0,1.0,0.0,8.0,250.0,,,,,,63d8c185bbfa79d8246dd97b,16:55:24,27/03/2024
html-keyboard-response,205,435753,0.0-85.0-1.0,,"<div style=""display: flex; flex-direction: column; align-items: center; margin-top: -40px;""><img src=""images/pattern_4.png"" style=""width: 234px; height: 230px; margin-top: -50px;""><div style=""display: flex; justify-content: space-between; margin-top: 33px;""><img src=""images/choice_trial_8.png"" style=""width: 408px; height: 417px; margin-left:608px;""></div></div>",,delaylearn,learning,display_response,b91UXRcoLLhRNrDLu4ArCIoK8ID2,b91UXRcoLLhRNrDLu4ArCIoK8ID2,,,,,,,,,,,,,,,,,chosen stimuli: images/choice_trial_8.png,,,,,63d8c185bbfa79d8246dd97b,16:55:24,27/03/2024
html-keyboard-response,206,442761,0.0-85.0-2.0,,,,delaylearn,learning,feedback_duration_window,b91UXRcoLLhRNrDLu4ArCIoK8ID2,b91UXRcoLLhRNrDLu4ArCIoK8ID2,,,,,,,,,,,,,,,,,,7000.0,,,,63d8c185bbfa79d8246dd97b,16:55:24,27/03/2024
html-keyboard-response,207,444267,0.0-85.0-3.0,,<div style='margin:auto;width: auto; font-size: 150%'><span style='font-weight: bold; font-size: 100px; color: red;'>0 points!</span><br><br></div>,,delaylearn,learning,feedback_image_window,b91UXRcoLLhRNrDLu4ArCIoK8ID2,b91UXRcoLLhRNrDLu4ArCIoK8ID2,,,,,,,,,,,,,,,,,,,,,,63d8c185bbfa79d8246dd97b,16:55:24,27/03/2024
html-keyboard-response,208,445929,0.0-86.0,,"<div style=""font-size:100px;"">+</div>",,delaylearn,learning,ITI,b91UXRcoLLhRNrDLu4ArCIoK8ID2,b91UXRcoLLhRNrDLu4ArCIoK8ID2,,,,,,,,,,,,,,,,,,,1660.0,,,63d8c185bbfa79d8246dd97b,16:55:24,27/03/2024
html-keyboard-response,209,447199,0.0-87.0-0.0,1268.8999999999069,"<div style=""display: flex; flex-direction: column; align-items: center; margin-top: -40px;""><img src=""images/pattern_7.png"" style=""width: 234px; height: 230px; margin-top: -50px;""><div style=""display: flex; justify-content: space-between; margin-top: 33px;""><img src=""images/choice_trial_13.png"" style=""width: 408px; height: 417px; margin-right: 200px;""><img src=""images/choice_trial_4.png"" style=""width: 408px; height: 417px;""></div></div>",f,delaylearn,learning,trial,b91UXRcoLLhRNrDLu4ArCIoK8ID2,b91UXRcoLLhRNrDLu4ArCIoK8ID2,4.0,images/choice_trial_13.png,images/choice_trial_4.png,images/pattern_7.png,f,f,750.0,13.0,4.0,6.0,0.0,38.0,1.0,1.0,13.0,260.0,,,,,,63d8c185bbfa79d8246dd97b,16:55:24,27/03/2024
html-keyboard-response,210,448205,0.0-87.0-1.0,,"<div style=""display: flex; flex-direction: column; align-items: center; margin-top: -40px;""><img src=""images/pattern_7.png"" style=""width: 234px; height: 230px; margin-top: -50px;""><div style=""display: flex; justify-content: space-between; margin-top: 33px;""><img src=""images/choice_trial_13.png"" style=""width: 408px; height: 417px; margin-right: 608px;""></div></div>",,delaylearn,learning,display_response,b91UXRcoLLhRNrDLu4ArCIoK8ID2,b91UXRcoLLhRNrDLu4ArCIoK8ID2,,,,,,,,,,,,,,,,,chosen stimuli: images/choice_trial_13.png,,,,,63d8c185bbfa79d8246dd97b,16:55:24,27/03/2024
html-keyboard-response,211,448957,0.0-87.0-2.0,,,,delaylearn,learning,feedback_duration_window,b91UXRcoLLhRNrDLu4ArCIoK8ID2,b91UXRcoLLhRNrDLu4ArCIoK8ID2,,,,,,,,,,,,,,,,,,750.0,,,,63d8c185bbfa79d8246dd97b,16:55:24,27/03/2024
html-keyboard-response,212,450465,0.0-87.0-3.0,,<div style='margin:auto;width: auto; font-size: 150%'><span style='font-weight: bold; font-size: 100px; color: green;'>+10 points!</span><br><br></div>,,delaylearn,learning,feedback_image_window,b91UXRcoLLhRNrDLu4ArCIoK8ID2,b91UXRcoLLhRNrDLu4ArCIoK8ID2,,,,,,,,,,,,,,,,,,,,,,63d8c185bbfa79d8246dd97b,16:55:24,27/03/2024
html-keyboard-response,213,452621,0.0-88.0,,"<div style=""font-size:100px;"">+</div>",,delaylearn,learning,ITI,b91UXRcoLLhRNrDLu4ArCIoK8ID2,b91UXRcoLLhRNrDLu4ArCIoK8ID2,,,,,,,,,,,,,,,,,,,2147.0,,,63d8c185bbfa79d8246dd97b,16:55:24,27/03/2024
html-keyboard-response,214,453985,0.0-89.0-0.0,1363.2999999998137,"<div style=""display: flex; flex-direction: column; align-items: center; margin-top: -40px;""><img src=""images/pattern_1.png"" style=""width: 234px; height: 230px; margin-top: -50px;""><div style=""display: flex; justify-content: space-between; margin-top: 33px;""><img src=""images/choice_trial_1.png"" style=""width: 408px; height: 417px; margin-right: 200px;""><img src=""images/choice_trial_9.png"" style=""width: 408px; height: 417px;""></div></div>",j,delaylearn,learning,trial,b91UXRcoLLhRNrDLu4ArCIoK8ID2,b91UXRcoLLhRNrDLu4ArCIoK8ID2,4.0,images/choice_trial_1.png,images/choice_trial_9.png,images/pattern_1.png,f,f,7000.0,1.0,9.0,1.0,0.0,39.0,0.0,0.0,9.0,260.0,,,,,,63d8c185bbfa79d8246dd97b,16:55:24,27/03/2024
html-keyboard-response,215,454988,0.0-89.0-1.0,,"<div style=""display: flex; flex-direction: column; align-items: center; margin-top: -40px;""><img src=""images/pattern_1.png"" style=""width: 234px; height: 230px; margin-top: -50px;""><div style=""display: flex; justify-content: space-between; margin-top: 33px;""><img src=""images/choice_trial_9.png"" style=""width: 408px; height: 417px; margin-left:608px;""></div></div>",,delaylearn,learning,display_response,b91UXRcoLLhRNrDLu4ArCIoK8ID2,b91UXRcoLLhRNrDLu4ArCIoK8ID2,,,,,,,,,,,,,,,,,chosen stimuli: images/choice_trial_9.png,,,,,63d8c185bbfa79d8246dd97b,16:55:24,27/03/2024
html-keyboard-response,216,462000,0.0-89.0-2.0,,,,delaylearn,learning,feedback_duration_window,b91UXRcoLLhRNrDLu4ArCIoK8ID2,b91UXRcoLLhRNrDLu4ArCIoK8ID2,,,,,,,,,,,,,,,,,,7000.0,,,,63d8c185bbfa79d8246dd97b,16:55:24,27/03/2024
html-keyboard-response,217,463508,0.0-89.0-3.0,,<div style='margin:auto;width: auto; font-size: 150%'><span style='font-weight: bold; font-size: 100px; color: red;'>0 points!</span><br><br></div>,,delaylearn,learning,feedback_image_window,b91UXRcoLLhRNrDLu4ArCIoK8ID2,b91UXRcoLLhRNrDLu4ArCIoK8ID2,,,,,,,,,,,,,,,,,,,,,,63d8c185bbfa79d8246dd97b,16:55:24,27/03/2024
html-keyboard-response,218,464017,0.0-90.0-0.0,,,,,,mood_trial_fixation,b91UXRcoLLhRNrDLu4ArCIoK8ID2,,,,,,,,,,,,,,,,,,,,,,,63d8c185bbfa79d8246dd97b,16:55:24,27/03/2024
lmdlab-html-vas-response,219,467829,0.0-90.0-1.0,2798.0,How happy are you right now?,0.4537037037037037,delaylearn,learning,mood_trial,b91UXRcoLLhRNrDLu4ArCIoK8ID2,b91UXRcoLLhRNrDLu4ArCIoK8ID2,,,,,,,,,,,,,,,,,,,,"['Very unhappy', 'Very happy']",,63d8c185bbfa79d8246dd97b,16:55:24,27/03/2024
html-keyboard-response,220,469770,0.0-91.0,,"<div style=""font-size:100px;"">+</div>",,delaylearn,learning,ITI,b91UXRcoLLhRNrDLu4ArCIoK8ID2,b91UXRcoLLhRNrDLu4ArCIoK8ID2,,,,,,,,,,,,,,,,,,,1936.0,,,63d8c185bbfa79d8246dd97b,16:55:24,27/03/2024
html-keyboard-response,221,470877,0.0-92.0-0.0,1106.3000000002794,"<div style=""display: flex; flex-direction: column; align-items: center; margin-top: -40px;""><img src=""images/pattern_3.png"" style=""width: 234px; height: 230px; margin-top: -50px;""><div style=""display: flex; justify-content: space-between; margin-top: 33px;""><img src=""images/choice_trial_16.png"" style=""width: 408px; height: 417px; margin-right: 200px;""><img src=""images/choice_trial_6.png"" style=""width: 408px; height: 417px;""></div></div>",j,delaylearn,learning,trial,b91UXRcoLLhRNrDLu4ArCIoK8ID2,b91UXRcoLLhRNrDLu4ArCIoK8ID2,4.0,images/choice_trial_16.png,images/choice_trial_6.png,images/pattern_3.png,j,f,7000.0,16.0,6.0,2.0,0.0,40.0,0.0,1.0,6.0,270.0,,,,,,63d8c185bbfa79d8246dd97b,16:55:24,27/03/2024
html-keyboard-response,222,471892,0.0-92.0-1.0,,"<div style=""display: flex; flex-direction: column; align-items: center; margin-top: -40px;""><img src=""images/pattern_3.png"" style=""width: 234px; height: 230px; margin-top: -50px;""><div style=""display: flex; justify-content: space-between; margin-top: 33px;""><img src=""images/choice_trial_6.png"" style=""width: 408px; height: 417px; margin-left:608px;""></div></div>",,delaylearn,learning,display_response,b91UXRcoLLhRNrDLu4ArCIoK8ID2,b91UXRcoLLhRNrDLu4ArCIoK8ID2,,,,,,,,,,,,,,,,,chosen stimuli: images/choice_trial_6.png,,,,,63d8c185bbfa79d8246dd97b,16:55:24,27/03/2024
html-keyboard-response,223,478902,0.0-92.0-2.0,,,,delaylearn,learning,feedback_duration_window,b91UXRcoLLhRNrDLu4ArCIoK8ID2,b91UXRcoLLhRNrDLu4ArCIoK8ID2,,,,,,,,,,,,,,,,,,7000.0,,,,63d8c185bbfa79d8246dd97b,16:55:24,27/03/2024
html-keyboard-response,224,480411,0.0-92.0-3.0,,<div style='margin:auto;width: auto; font-size: 150%'><span style='font-weight: bold; font-size: 100px; color: green;'>+10 points!</span><br><br></div>,,delaylearn,learning,feedback_image_window,b91UXRcoLLhRNrDLu4ArCIoK8ID2,b91UXRcoLLhRNrDLu4ArCIoK8ID2,,,,,,,,,,,,,,,,,,,,,,63d8c185bbfa79d8246dd97b,16:55:24,27/03/2024
html-keyboard-response,225,482488,0.0-93.0,,"<div style=""font-size:100px;"">+</div>",,delaylearn,learning,ITI,b91UXRcoLLhRNrDLu4ArCIoK8ID2,b91UXRcoLLhRNrDLu4ArCIoK8ID2,,,,,,,,,,,,,,,,,,,2066.0,,,63d8c185bbfa79d8246dd97b,16:55:24,27/03/2024
html-keyboard-response,226,483713,0.0-94.0-0.0,1223.7999999998137,"<div style=""display: flex; flex-direction: column; align-items: center; margin-top: -40px;""><img src=""images/pattern_7.png"" style=""width: 234px; height: 230px; margin-top: -50px;""><div style=""display: flex; justify-content: space-between; margin-top: 33px;""><img src=""images/choice_trial_4.png"" style=""width: 408px; height: 417px; margin-right: 200px;""><img src=""images/choice_trial_13.png"" style=""width: 408px; height: 417px;""></div></div>",j,delaylearn,learning,trial,b91UXRcoLLhRNrDLu4ArCIoK8ID2,b91UXRcoLLhRNrDLu4ArCIoK8ID2,4.0,images/choice_trial_4.png,images/choice_trial_13.png,images/pattern_7.png,j,j,750.0,4.0,13.0,6.0,1.0,41.0,1.0,1.0,13.0,280.0,,,,,,63d8c185bbfa79d8246dd97b,16:55:24,27/03/2024
html-keyboard-response,227,484718,0.0-94.0-1.0,,"<div style=""display: flex; flex-direction: column; align-items: center; margin-top: -40px;""><img src=""images/pattern_7.png"" style=""width: 234px; height: 230px; margin-top: -50px;""><div style=""display: flex; justify-content: space-between; margin-top: 33px;""><img src=""images/choice_trial_13.png"" style=""width: 408px; height: 417px; margin-left:608px;""></div></div>",,delaylearn,learning,display_response,b91UXRcoLLhRNrDLu4ArCIoK8ID2,b91UXRcoLLhRNrDLu4ArCIoK8ID2,,,,,,,,,,,,,,,,,chosen stimuli: images/choice_trial_13.png,,,,,63d8c185bbfa79d8246dd97b,16:55:24,27/03/2024
html-keyboard-response,228,485470,0.0-94.0-2.0,,,,delaylearn,learning,feedback_duration_window,b91UXRcoLLhRNrDLu4ArCIoK8ID2,b91UXRcoLLhRNrDLu4ArCIoK8ID2,,,,,,,,,,,,,,,,,,750.0,,,,63d8c185bbfa79d8246dd97b,16:55:24,27/03/2024
html-keyboard-response,229,486976,0.0-94.0-3.0,,<div style='margin:auto;width: auto; font-size: 150%'><span style='font-weight: bold; font-size: 100px; color: green;'>+10 points!</span><br><br></div>,,delaylearn,learning,feedback_image_window,b91UXRcoLLhRNrDLu4ArCIoK8ID2,b91UXRcoLLhRNrDLu4ArCIoK8ID2,,,,,,,,,,,,,,,,,,,,,,63d8c185bbfa79d8246dd97b,16:55:24,27/03/2024
html-keyboard-response,230,489344,0.0-95.0,,"<div style=""font-size:100px;"">+</div>",,delaylearn,learning,ITI,b91UXRcoLLhRNrDLu4ArCIoK8ID2,b91UXRcoLLhRNrDLu4ArCIoK8ID2,,,,,,,,,,,,,,,,,,,2367.0,,,63d8c185bbfa79d8246dd97b,16:55:24,27/03/2024
