trial_type,trial_index,time_elapsed,internal_node_id,rt,stimulus,response,exp_name,exp_stage,test_part,subjectID,databaseID,counterbal,choice_stimuli_1,choice_stimuli_2,pattern_stimuli,rewarded_answer,correct_answer,feedback_duration_times,stim_left,stim_right,pair,leftright_counter,trial,response_correct,response_rewarded,chosen_stim,counter,displayed_choice,feedback_durations,ITI_duration,labels,rest_warning,prolificID,start_time,date
pavlovia,0,513,0.0-0.0,,,,,,,tyqy9h3b2xceYqUPIImTIZyZ5mF3,,,,,,,,,,,,,,,,,,,,,,,60cb358cae78471cdfa7a0a6,16:49:53,27/03/2024
html-keyboard-response,1,3519,0.0-1.0,,"<div style=""font-size:100px;"">+</div>",,delaylearn,learning,pre_fixation,tyqy9h3b2xceYqUPIImTIZyZ5mF3,,,,,,,,,,,,,,,,,,,,,,,60cb358cae78471cdfa7a0a6,16:49:53,27/03/2024
html-keyboard-response,2,5099,0.0-2.0-0.0,1575.1000000238419,"<div style=""display: flex; flex-direction: column; align-items: center; margin-top: -40px;""><img src=""images/demo_images/pattern_1.png"" style=""width: 234px; height: 230px; margin-top: -50px;""><div style=""display: flex; justify-content: space-between; margin-top: 33px;""><img src=""images/demo_images/choice_trial_2.png"" style=""width: 408px; height: 417px; margin-right: 200px;""><img src=""images/demo_images/choice_trial_1.png"" style=""width: 408px; height: 417px;""></div></div>",j,delaylearn,learning,trial,tyqy9h3b2xceYqUPIImTIZyZ5mF3,tyqy9h3b2xceYqUPIImTIZyZ5mF3,5.0,images/demo_images/choice_trial_2.png,images/demo_images/choice_trial_1.png,images/demo_images/pattern_1.png,j,j,3000.0,2.0,1.0,20.0,1.0,1.0,1.0,1.0,1.0,10.0,,,,,,60cb358cae78471cdfa7a0a6,16:49:53,27/03/2024
html-keyboard-response,3,6118,0.0-2.0-1.0,,"<div style=""display: flex; flex-direction: column; align-items: center; margin-top: -40px;""><img src=""images/demo_images/pattern_1.png"" style=""width: 234px; height: 230px; margin-top: -50px;""><div style=""display: flex; justify-content: space-between; margin-top: 33px;""><img src=""images/demo_images/choice_trial_1.png"" style=""width: 408px; height: 417px; margin-left:608px;""></div></div>",,delaylearn,learning,display_response,tyqy9h3b2xceYqUPIImTIZyZ5mF3,tyqy9h3b2xceYqUPIImTIZyZ5mF3,,,,,,,,,,,,,,,,,chosen stimuli: images/demo_images/choice_trial_1.png,,,,,60cb358cae78471cdfa7a0a6,16:49:53,27/03/2024
html-keyboard-response,4,9135,0.0-2.0-2.0,,,,delaylearn,learning,feedback_duration_window,tyqy9h3b2xceYqUPIImTIZyZ5mF3,tyqy9h3b2xceYqUPIImTIZyZ5mF3,,,,,,,,,,,,,,,,,,3000.0,,,,60cb358cae78471cdfa7a0a6,16:49:53,27/03/2024
html-keyboard-response,5,10641,0.0-2.0-3.0,,<div style='margin:auto;width: auto; font-size: 150%'><span style='font-weight: bold; font-size: 100px; color: green;'>+10 points!</span><br><br></div>,,delaylearn,learning,feedback_image_window,tyqy9h3b2xceYqUPIImTIZyZ5mF3,tyqy9h3b2xceYqUPIImTIZyZ5mF3,,,,,,,,,,,,,,,,,,,,,,60cb358cae78471cdfa7a0a6,16:49:53,27/03/2024
html-keyboard-response,6,12248,0.0-3.0,,"<div style=""font-size:100px;"">+</div>",,delaylearn,learning,ITI,tyqy9h3b2xceYqUPIImTIZyZ5mF3,tyqy9h3b2xceYqUPIImTIZyZ5mF3,,,,,,,,,,,,,,,,,,,1591.0,,,60cb358cae78471cdfa7a0a6,16:49:53,27/03/2024
html-keyboard-response,7,13913,0.0-4.0-0.0,1660.199999988079,"<div style=""display: flex; flex-direction: column; align-items: center; margin-top: -40px;""><img src=""images/demo_images/pattern_1.png"" style=""width: 234px; height: 230px; margin-top: -50px;""><div style=""display: flex; justify-content: space-between; margin-top: 33px;""><img src=""images/demo_images/choice_trial_2.png"" style=""width: 408px; height: 417px; margin-right: 200px;""><img src=""images/demo_images/choice_trial_1.png"" style=""width: 408px; height: 417px;""></div></div>",j,delaylearn,learning,trial,tyqy9h3b2xceYqUPIImTIZyZ5mF3,tyqy9h3b2xceYqUPIImTIZyZ5mF3,5.0,images/demo_images/choice_trial_2.png,images/demo_images/choice_trial_1.png,images/demo_images/pattern_1.png,j,j,3000.0,2.0,1.0,20.0,1.0,2.0,1.0,1.0,1.0,20.0,,,,,,60cb358cae78471cdfa7a0a6,16:49:53,27/03/2024
html-keyboard-response,8,14922,0.0-4.0-1.0,,"<div style=""display: flex; flex-direction: column; align-items: center; margin-top: -40px;""><img src=""images/demo_images/pattern_1.png"" style=""width: 234px; height: 230px; margin-top: -50px;""><div style=""display: flex; justify-content: space-between; margin-top: 33px;""><img src=""images/demo_images/choice_trial_1.png"" style=""width: 408px; height: 417px; margin-left:608px;""></div></div>",,delaylearn,learning,display_response,tyqy9h3b2xceYqUPIImTIZyZ5mF3,tyqy9h3b2xceYqUPIImTIZyZ5mF3,,,,,,,,,,,,,,,,,chosen stimuli: images/demo_images/choice_trial_1.png,,,,,60cb358cae78471cdfa7a0a6,16:49:53,27/03/2024
html-keyboard-response,9,17927,0.0-4.0-2.0,,,,delaylearn,learning,feedback_duration_window,tyqy9h3b2xceYqUPIImTIZyZ5mF3,tyqy9h3b2xceYqUPIImTIZyZ5mF3,,,,,,,,,,,,,,,,,,3000.0,,,,60cb358cae78471cdfa7a0a6,16:49:53,27/03/2024
html-keyboard-response,10,19445,0.0-4.0-3.0,,<div style='margin:auto;width: auto; font-size: 150%'><span style='font-weight: bold; font-size: 100px; color: green;'>+10 points!</span><br><br></div>,,delaylearn,learning,feedback_image_window,tyqy9h3b2xceYqUPIImTIZyZ5mF3,tyqy9h3b2xceYqUPIImTIZyZ5mF3,,,,,,,,,,,,,,,,,,,,,,60cb358cae78471cdfa7a0a6,16:49:53,27/03/2024
html-keyboard-response,11,21758,0.0-5.0,,"<div style=""font-size:100px;"">+</div>",,delaylearn,learning,ITI,tyqy9h3b2xceYqUPIImTIZyZ5mF3,tyqy9h3b2xceYqUPIImTIZyZ5mF3,,,,,,,,,,,,,,,,,,,2311.0,,,60cb358cae78471cdfa7a0a6,16:49:53,27/03/2024
html-keyboard-response,12,23767,0.0-6.0-0.0,2005.5999999642372,"<div style=""display: flex; flex-direction: column; align-items: center; margin-top: -40px;""><img src=""images/demo_images/pattern_1.png"" style=""width: 234px; height: 230px; margin-top: -50px;""><div style=""display: flex; justify-content: space-between; margin-top: 33px;""><img src=""images/demo_images/choice_trial_1.png"" style=""width: 408px; height: 417px; margin-right: 200px;""><img src=""images/demo_images/choice_trial_2.png"" style=""width: 408px; height: 417px;""></div></div>",f,delaylearn,learning,trial,tyqy9h3b2xceYqUPIImTIZyZ5mF3,tyqy9h3b2xceYqUPIImTIZyZ5mF3,5.0,images/demo_images/choice_trial_1.png,images/demo_images/choice_trial_2.png,images/demo_images/pattern_1.png,j,f,3000.0,1.0,2.0,20.0,0.0,3.0,1.0,0.0,1.0,20.0,,,,,,60cb358cae78471cdfa7a0a6,16:49:53,27/03/2024
html-keyboard-response,13,24785,0.0-6.0-1.0,,"<div style=""display: flex; flex-direction: column; align-items: center; margin-top: -40px;""><img src=""images/demo_images/pattern_1.png"" style=""width: 234px; height: 230px; margin-top: -50px;""><div style=""display: flex; justify-content: space-between; margin-top: 33px;""><img src=""images/demo_images/choice_trial_1.png"" style=""width: 408px; height: 417px; margin-right: 608px;""></div></div>",,delaylearn,learning,display_response,tyqy9h3b2xceYqUPIImTIZyZ5mF3,tyqy9h3b2xceYqUPIImTIZyZ5mF3,,,,,,,,,,,,,,,,,chosen stimuli: images/demo_images/choice_trial_1.png,,,,,60cb358cae78471cdfa7a0a6,16:49:53,27/03/2024
html-keyboard-response,14,27797,0.0-6.0-2.0,,,,delaylearn,learning,feedback_duration_window,tyqy9h3b2xceYqUPIImTIZyZ5mF3,tyqy9h3b2xceYqUPIImTIZyZ5mF3,,,,,,,,,,,,,,,,,,3000.0,,,,60cb358cae78471cdfa7a0a6,16:49:53,27/03/2024
html-keyboard-response,15,29312,0.0-6.0-3.0,,<div style='margin:auto;width: auto; font-size: 150%'><span style='font-weight: bold; font-size: 100px; color: red;'>0 points!</span><br><br></div>,,delaylearn,learning,feedback_image_window,tyqy9h3b2xceYqUPIImTIZyZ5mF3,tyqy9h3b2xceYqUPIImTIZyZ5mF3,,,,,,,,,,,,,,,,,,,,,,60cb358cae78471cdfa7a0a6,16:49:53,27/03/2024
html-keyboard-response,16,31510,0.0-7.0,,"<div style=""font-size:100px;"">+</div>",,delaylearn,learning,ITI,tyqy9h3b2xceYqUPIImTIZyZ5mF3,tyqy9h3b2xceYqUPIImTIZyZ5mF3,,,,,,,,,,,,,,,,,,,2183.0,,,60cb358cae78471cdfa7a0a6,16:49:53,27/03/2024
html-keyboard-response,17,33526,0.0-8.0-0.0,2012.699999988079,"<div style=""display: flex; flex-direction: column; align-items: center; margin-top: -40px;""><img src=""images/demo_images/pattern_1.png"" style=""width: 234px; height: 230px; margin-top: -50px;""><div style=""display: flex; justify-content: space-between; margin-top: 33px;""><img src=""images/demo_images/choice_trial_1.png"" style=""width: 408px; height: 417px; margin-right: 200px;""><img src=""images/demo_images/choice_trial_2.png"" style=""width: 408px; height: 417px;""></div></div>",j,delaylearn,learning,trial,tyqy9h3b2xceYqUPIImTIZyZ5mF3,tyqy9h3b2xceYqUPIImTIZyZ5mF3,5.0,images/demo_images/choice_trial_1.png,images/demo_images/choice_trial_2.png,images/demo_images/pattern_1.png,f,f,3000.0,1.0,2.0,20.0,0.0,4.0,0.0,0.0,2.0,20.0,,,,,,60cb358cae78471cdfa7a0a6,16:49:53,27/03/2024
html-keyboard-response,18,34544,0.0-8.0-1.0,,"<div style=""display: flex; flex-direction: column; align-items: center; margin-top: -40px;""><img src=""images/demo_images/pattern_1.png"" style=""width: 234px; height: 230px; margin-top: -50px;""><div style=""display: flex; justify-content: space-between; margin-top: 33px;""><img src=""images/demo_images/choice_trial_2.png"" style=""width: 408px; height: 417px; margin-left:608px;""></div></div>",,delaylearn,learning,display_response,tyqy9h3b2xceYqUPIImTIZyZ5mF3,tyqy9h3b2xceYqUPIImTIZyZ5mF3,,,,,,,,,,,,,,,,,chosen stimuli: images/demo_images/choice_trial_2.png,,,,,60cb358cae78471cdfa7a0a6,16:49:53,27/03/2024
html-keyboard-response,19,37558,0.0-8.0-2.0,,,,delaylearn,learning,feedback_duration_window,tyqy9h3b2xceYqUPIImTIZyZ5mF3,tyqy9h3b2xceYqUPIImTIZyZ5mF3,,,,,,,,,,,,,,,,,,3000.0,,,,60cb358cae78471cdfa7a0a6,16:49:53,27/03/2024
html-keyboard-response,20,39072,0.0-8.0-3.0,,<div style='margin:auto;width: auto; font-size: 150%'><span style='font-weight: bold; font-size: 100px; color: red;'>0 points!</span><br><br></div>,,delaylearn,learning,feedback_image_window,tyqy9h3b2xceYqUPIImTIZyZ5mF3,tyqy9h3b2xceYqUPIImTIZyZ5mF3,,,,,,,,,,,,,,,,,,,,,,60cb358cae78471cdfa7a0a6,16:49:53,27/03/2024
html-keyboard-response,21,39578,0.0-9.0-0.0,,,,,,mood_trial_fixation,tyqy9h3b2xceYqUPIImTIZyZ5mF3,,,,,,,,,,,,,,,,,,,,,,,60cb358cae78471cdfa7a0a6,16:49:53,27/03/2024
lmdlab-html-vas-response,22,44265,0.0-9.0-1.0,3660.0,How happy are you right now?,0.7067901234567902,delaylearn,learning,mood_trial,tyqy9h3b2xceYqUPIImTIZyZ5mF3,tyqy9h3b2xceYqUPIImTIZyZ5mF3,,,,,,,,,,,,,,,,,,,,"['Very unhappy', 'Very happy']",,60cb358cae78471cdfa7a0a6,16:49:53,27/03/2024
html-keyboard-response,23,46399,0.0-10.0,,"<div style=""font-size:100px;"">+</div>",,delaylearn,learning,ITI,tyqy9h3b2xceYqUPIImTIZyZ5mF3,tyqy9h3b2xceYqUPIImTIZyZ5mF3,,,,,,,,,,,,,,,,,,,2124.0,,,60cb358cae78471cdfa7a0a6,16:49:53,27/03/2024
html-keyboard-response,24,48084,0.0-11.0-0.0,1679.3999999761581,"<div style=""display: flex; flex-direction: column; align-items: center; margin-top: -40px;""><img src=""images/demo_images/pattern_1.png"" style=""width: 234px; height: 230px; margin-top: -50px;""><div style=""display: flex; justify-content: space-between; margin-top: 33px;""><img src=""images/demo_images/choice_trial_2.png"" style=""width: 408px; height: 417px; margin-right: 200px;""><img src=""images/demo_images/choice_trial_1.png"" style=""width: 408px; height: 417px;""></div></div>",f,delaylearn,learning,trial,tyqy9h3b2xceYqUPIImTIZyZ5mF3,tyqy9h3b2xceYqUPIImTIZyZ5mF3,5.0,images/demo_images/choice_trial_2.png,images/demo_images/choice_trial_1.png,images/demo_images/pattern_1.png,j,j,3000.0,2.0,1.0,20.0,1.0,5.0,0.0,0.0,2.0,20.0,,,,,,60cb358cae78471cdfa7a0a6,16:49:53,27/03/2024
html-keyboard-response,25,49101,0.0-11.0-1.0,,"<div style=""display: flex; flex-direction: column; align-items: center; margin-top: -40px;""><img src=""images/demo_images/pattern_1.png"" style=""width: 234px; height: 230px; margin-top: -50px;""><div style=""display: flex; justify-content: space-between; margin-top: 33px;""><img src=""images/demo_images/choice_trial_2.png"" style=""width: 408px; height: 417px; margin-right: 608px;""></div></div>",,delaylearn,learning,display_response,tyqy9h3b2xceYqUPIImTIZyZ5mF3,tyqy9h3b2xceYqUPIImTIZyZ5mF3,,,,,,,,,,,,,,,,,chosen stimuli: images/demo_images/choice_trial_2.png,,,,,60cb358cae78471cdfa7a0a6,16:49:53,27/03/2024
html-keyboard-response,26,52107,0.0-11.0-2.0,,,,delaylearn,learning,feedback_duration_window,tyqy9h3b2xceYqUPIImTIZyZ5mF3,tyqy9h3b2xceYqUPIImTIZyZ5mF3,,,,,,,,,,,,,,,,,,3000.0,,,,60cb358cae78471cdfa7a0a6,16:49:53,27/03/2024
html-keyboard-response,27,53618,0.0-11.0-3.0,,<div style='margin:auto;width: auto; font-size: 150%'><span style='font-weight: bold; font-size: 100px; color: red;'>0 points!</span><br><br></div>,,delaylearn,learning,feedback_image_window,tyqy9h3b2xceYqUPIImTIZyZ5mF3,tyqy9h3b2xceYqUPIImTIZyZ5mF3,,,,,,,,,,,,,,,,,,,,,,60cb358cae78471cdfa7a0a6,16:49:53,27/03/2024
html-keyboard-response,28,55821,0.0-12.0,,"<div style=""font-size:100px;"">+</div>",,delaylearn,learning,ITI,tyqy9h3b2xceYqUPIImTIZyZ5mF3,tyqy9h3b2xceYqUPIImTIZyZ5mF3,,,,,,,,,,,,,,,,,,,2191.0,,,60cb358cae78471cdfa7a0a6,16:49:53,27/03/2024
html-keyboard-response,29,57387,0.0-13.0-0.0,1562.0999999642372,"<div style=""display: flex; flex-direction: column; align-items: center; margin-top: -40px;""><img src=""images/demo_images/pattern_1.png"" style=""width: 234px; height: 230px; margin-top: -50px;""><div style=""display: flex; justify-content: space-between; margin-top: 33px;""><img src=""images/demo_images/choice_trial_1.png"" style=""width: 408px; height: 417px; margin-right: 200px;""><img src=""images/demo_images/choice_trial_2.png"" style=""width: 408px; height: 417px;""></div></div>",f,delaylearn,learning,trial,tyqy9h3b2xceYqUPIImTIZyZ5mF3,tyqy9h3b2xceYqUPIImTIZyZ5mF3,5.0,images/demo_images/choice_trial_1.png,images/demo_images/choice_trial_2.png,images/demo_images/pattern_1.png,f,f,3000.0,1.0,2.0,20.0,0.0,6.0,1.0,1.0,1.0,30.0,,,,,,60cb358cae78471cdfa7a0a6,16:49:53,27/03/2024
html-keyboard-response,30,58391,0.0-13.0-1.0,,"<div style=""display: flex; flex-direction: column; align-items: center; margin-top: -40px;""><img src=""images/demo_images/pattern_1.png"" style=""width: 234px; height: 230px; margin-top: -50px;""><div style=""display: flex; justify-content: space-between; margin-top: 33px;""><img src=""images/demo_images/choice_trial_1.png"" style=""width: 408px; height: 417px; margin-right: 608px;""></div></div>",,delaylearn,learning,display_response,tyqy9h3b2xceYqUPIImTIZyZ5mF3,tyqy9h3b2xceYqUPIImTIZyZ5mF3,,,,,,,,,,,,,,,,,chosen stimuli: images/demo_images/choice_trial_1.png,,,,,60cb358cae78471cdfa7a0a6,16:49:53,27/03/2024
html-keyboard-response,31,61397,0.0-13.0-2.0,,,,delaylearn,learning,feedback_duration_window,tyqy9h3b2xceYqUPIImTIZyZ5mF3,tyqy9h3b2xceYqUPIImTIZyZ5mF3,,,,,,,,,,,,,,,,,,3000.0,,,,60cb358cae78471cdfa7a0a6,16:49:53,27/03/2024
html-keyboard-response,32,62907,0.0-13.0-3.0,,<div style='margin:auto;width: auto; font-size: 150%'><span style='font-weight: bold; font-size: 100px; color: green;'>+10 points!</span><br><br></div>,,delaylearn,learning,feedback_image_window,tyqy9h3b2xceYqUPIImTIZyZ5mF3,tyqy9h3b2xceYqUPIImTIZyZ5mF3,,,,,,,,,,,,,,,,,,,,,,60cb358cae78471cdfa7a0a6,16:49:53,27/03/2024
html-keyboard-response,33,65406,0.0-14.0,,"<div style=""font-size:100px;"">+</div>",,delaylearn,learning,ITI,tyqy9h3b2xceYqUPIImTIZyZ5mF3,tyqy9h3b2xceYqUPIImTIZyZ5mF3,,,,,,,,,,,,,,,,,,,2496.0,,,60cb358cae78471cdfa7a0a6,16:49:53,27/03/2024
html-keyboard-response,34,66730,0.0-15.0-0.0,1318.8999999761581,"<div style=""display: flex; flex-direction: column; align-items: center; margin-top: -40px;""><img src=""images/demo_images/pattern_1.png"" style=""width: 234px; height: 230px; margin-top: -50px;""><div style=""display: flex; justify-content: space-between; margin-top: 33px;""><img src=""images/demo_images/choice_trial_2.png"" style=""width: 408px; height: 417px; margin-right: 200px;""><img src=""images/demo_images/choice_trial_1.png"" style=""width: 408px; height: 417px;""></div></div>",j,delaylearn,learning,trial,tyqy9h3b2xceYqUPIImTIZyZ5mF3,tyqy9h3b2xceYqUPIImTIZyZ5mF3,5.0,images/demo_images/choice_trial_2.png,images/demo_images/choice_trial_1.png,images/demo_images/pattern_1.png,j,j,3000.0,2.0,1.0,20.0,1.0,7.0,1.0,1.0,1.0,40.0,,,,,,60cb358cae78471cdfa7a0a6,16:49:53,27/03/2024
html-keyboard-response,35,67733,0.0-15.0-1.0,,"<div style=""display: flex; flex-direction: column; align-items: center; margin-top: -40px;""><img src=""images/demo_images/pattern_1.png"" style=""width: 234px; height: 230px; margin-top: -50px;""><div style=""display: flex; justify-content: space-between; margin-top: 33px;""><img src=""images/demo_images/choice_trial_1.png"" style=""width: 408px; height: 417px; margin-left:608px;""></div></div>",,delaylearn,learning,display_response,tyqy9h3b2xceYqUPIImTIZyZ5mF3,tyqy9h3b2xceYqUPIImTIZyZ5mF3,,,,,,,,,,,,,,,,,chosen stimuli: images/demo_images/choice_trial_1.png,,,,,60cb358cae78471cdfa7a0a6,16:49:53,27/03/2024
html-keyboard-response,36,70745,0.0-15.0-2.0,,,,delaylearn,learning,feedback_duration_window,tyqy9h3b2xceYqUPIImTIZyZ5mF3,tyqy9h3b2xceYqUPIImTIZyZ5mF3,,,,,,,,,,,,,,,,,,3000.0,,,,60cb358cae78471cdfa7a0a6,16:49:53,27/03/2024
html-keyboard-response,37,72263,0.0-15.0-3.0,,<div style='margin:auto;width: auto; font-size: 150%'><span style='font-weight: bold; font-size: 100px; color: green;'>+10 points!</span><br><br></div>,,delaylearn,learning,feedback_image_window,tyqy9h3b2xceYqUPIImTIZyZ5mF3,tyqy9h3b2xceYqUPIImTIZyZ5mF3,,,,,,,,,,,,,,,,,,,,,,60cb358cae78471cdfa7a0a6,16:49:53,27/03/2024
html-keyboard-response,38,74478,0.0-16.0,,"<div style=""font-size:100px;"">+</div>",,delaylearn,learning,ITI,tyqy9h3b2xceYqUPIImTIZyZ5mF3,tyqy9h3b2xceYqUPIImTIZyZ5mF3,,,,,,,,,,,,,,,,,,,2205.0,,,60cb358cae78471cdfa7a0a6,16:49:53,27/03/2024
html-keyboard-response,39,76785,0.0-17.0-0.0,2302.600000023842,"<div style=""display: flex; flex-direction: column; align-items: center; margin-top: -40px;""><img src=""images/demo_images/pattern_1.png"" style=""width: 234px; height: 230px; margin-top: -50px;""><div style=""display: flex; justify-content: space-between; margin-top: 33px;""><img src=""images/demo_images/choice_trial_1.png"" style=""width: 408px; height: 417px; margin-right: 200px;""><img src=""images/demo_images/choice_trial_2.png"" style=""width: 408px; height: 417px;""></div></div>",f,delaylearn,learning,trial,tyqy9h3b2xceYqUPIImTIZyZ5mF3,tyqy9h3b2xceYqUPIImTIZyZ5mF3,5.0,images/demo_images/choice_trial_1.png,images/demo_images/choice_trial_2.png,images/demo_images/pattern_1.png,f,f,3000.0,1.0,2.0,20.0,0.0,8.0,1.0,1.0,1.0,50.0,,,,,,60cb358cae78471cdfa7a0a6,16:49:53,27/03/2024
html-keyboard-response,40,77801,0.0-17.0-1.0,,"<div style=""display: flex; flex-direction: column; align-items: center; margin-top: -40px;""><img src=""images/demo_images/pattern_1.png"" style=""width: 234px; height: 230px; margin-top: -50px;""><div style=""display: flex; justify-content: space-between; margin-top: 33px;""><img src=""images/demo_images/choice_trial_1.png"" style=""width: 408px; height: 417px; margin-right: 608px;""></div></div>",,delaylearn,learning,display_response,tyqy9h3b2xceYqUPIImTIZyZ5mF3,tyqy9h3b2xceYqUPIImTIZyZ5mF3,,,,,,,,,,,,,,,,,chosen stimuli: images/demo_images/choice_trial_1.png,,,,,60cb358cae78471cdfa7a0a6,16:49:53,27/03/2024
html-keyboard-response,41,80812,0.0-17.0-2.0,,,,delaylearn,learning,feedback_duration_window,tyqy9h3b2xceYqUPIImTIZyZ5mF3,tyqy9h3b2xceYqUPIImTIZyZ5mF3,,,,,,,,,,,,,,,,,,3000.0,,,,60cb358cae78471cdfa7a0a6,16:49:53,27/03/2024
html-keyboard-response,42,82330,0.0-17.0-3.0,,<div style='margin:auto;width: auto; font-size: 150%'><span style='font-weight: bold; font-size: 100px; color: green;'>+10 points!</span><br><br></div>,,delaylearn,learning,feedback_image_window,tyqy9h3b2xceYqUPIImTIZyZ5mF3,tyqy9h3b2xceYqUPIImTIZyZ5mF3,,,,,,,,,,,,,,,,,,,,,,60cb358cae78471cdfa7a0a6,16:49:53,27/03/2024
html-button-response,43,84876,0.0-18.0,2542.699999988079,"
  <div style=""display: flex; align-items: center; justify-content: center; height: 80vh;"">
  <div>
          <img src=""images/inst_demo_finish.png"" style=""width: 80vw; height:auto;"">
          <br><br>
      </div>
      <br><br>
  </div>",0,,,,tyqy9h3b2xceYqUPIImTIZyZ5mF3,,,,,,,,,,,,,,,,,,,,,,,60cb358cae78471cdfa7a0a6,16:49:53,27/03/2024
html-keyboard-response,44,86431,0.0-19.0,1552.699999988079,"
  <div style=""display: flex; align-items: center; justify-content: center; height: 80vh;"">
  <div>
          <img src=""images/inst_6.png"" style=""width: 80vw; height:auto;"">
          <br><br>
      </div>
      <br><br>
  </div>",j,,,,tyqy9h3b2xceYqUPIImTIZyZ5mF3,,,,,,,,,,,,,,,,,,,,,,,60cb358cae78471cdfa7a0a6,16:49:53,27/03/2024
html-keyboard-response,45,89446,0.0-20.0,,"<div style=""font-size:100px;"">+</div>",,delaylearn,learning,pre_fixation,tyqy9h3b2xceYqUPIImTIZyZ5mF3,,,,,,,,,,,,,,,,,,,,,,,60cb358cae78471cdfa7a0a6,16:49:53,27/03/2024
html-keyboard-response,46,91251,0.0-21.0,,"<div style=""font-size:100px;"">+</div>",,delaylearn,learning,ITI,tyqy9h3b2xceYqUPIImTIZyZ5mF3,tyqy9h3b2xceYqUPIImTIZyZ5mF3,,,,,,,,,,,,,,,,,,,1794.0,,,60cb358cae78471cdfa7a0a6,16:49:53,27/03/2024
html-keyboard-response,47,93191,0.0-22.0-0.0,1935.800000011921,"<div style=""display: flex; flex-direction: column; align-items: center; margin-top: -40px;""><img src=""images/pattern_3.png"" style=""width: 234px; height: 230px; margin-top: -50px;""><div style=""display: flex; justify-content: space-between; margin-top: 33px;""><img src=""images/choice_trial_16.png"" style=""width: 408px; height: 417px; margin-right: 200px;""><img src=""images/choice_trial_2.png"" style=""width: 408px; height: 417px;""></div></div>",f,delaylearn,learning,trial,tyqy9h3b2xceYqUPIImTIZyZ5mF3,tyqy9h3b2xceYqUPIImTIZyZ5mF3,5.0,images/choice_trial_16.png,images/choice_trial_2.png,images/pattern_3.png,f,f,7000.0,16.0,2.0,2.0,0.0,9.0,1.0,1.0,16.0,60.0,,,,,,60cb358cae78471cdfa7a0a6,16:49:53,27/03/2024
html-keyboard-response,48,94203,0.0-22.0-1.0,,"<div style=""display: flex; flex-direction: column; align-items: center; margin-top: -40px;""><img src=""images/pattern_3.png"" style=""width: 234px; height: 230px; margin-top: -50px;""><div style=""display: flex; justify-content: space-between; margin-top: 33px;""><img src=""images/choice_trial_16.png"" style=""width: 408px; height: 417px; margin-right: 608px;""></div></div>",,delaylearn,learning,display_response,tyqy9h3b2xceYqUPIImTIZyZ5mF3,tyqy9h3b2xceYqUPIImTIZyZ5mF3,,,,,,,,,,,,,,,,,chosen stimuli: images/choice_trial_16.png,,,,,60cb358cae78471cdfa7a0a6,16:49:53,27/03/2024
html-keyboard-response,49,101215,0.0-22.0-2.0,,,,delaylearn,learning,feedback_duration_window,tyqy9h3b2xceYqUPIImTIZyZ5mF3,tyqy9h3b2xceYqUPIImTIZyZ5mF3,,,,,,,,,,,,,,,,,,7000.0,,,,60cb358cae78471cdfa7a0a6,16:49:53,27/03/2024
html-keyboard-response,50,102719,0.0-22.0-3.0,,<div style='margin:auto;width: auto; font-size: 150%'><span style='font-weight: bold; font-size: 100px; color: green;'>+10 points!</span><br><br></div>,,delaylearn,learning,feedback_image_window,tyqy9h3b2xceYqUPIImTIZyZ5mF3,tyqy9h3b2xceYqUPIImTIZyZ5mF3,,,,,,,,,,,,,,,,,,,,,,60cb358cae78471cdfa7a0a6,16:49:53,27/03/2024
html-keyboard-response,51,104268,0.0-23.0,,"<div style=""font-size:100px;"">+</div>",,delaylearn,learning,ITI,tyqy9h3b2xceYqUPIImTIZyZ5mF3,tyqy9h3b2xceYqUPIImTIZyZ5mF3,,,,,,,,,,,,,,,,,,,1542.0,,,60cb358cae78471cdfa7a0a6,16:49:53,27/03/2024
html-keyboard-response,52,105917,0.0-24.0-0.0,1645.2999999523163,"<div style=""display: flex; flex-direction: column; align-items: center; margin-top: -40px;""><img src=""images/pattern_7.png"" style=""width: 234px; height: 230px; margin-top: -50px;""><div style=""display: flex; justify-content: space-between; margin-top: 33px;""><img src=""images/choice_trial_10.png"" style=""width: 408px; height: 417px; margin-right: 200px;""><img src=""images/choice_trial_8.png"" style=""width: 408px; height: 417px;""></div></div>",j,delaylearn,learning,trial,tyqy9h3b2xceYqUPIImTIZyZ5mF3,tyqy9h3b2xceYqUPIImTIZyZ5mF3,5.0,images/choice_trial_10.png,images/choice_trial_8.png,images/pattern_7.png,j,j,750.0,10.0,8.0,6.0,1.0,10.0,1.0,1.0,8.0,70.0,,,,,,60cb358cae78471cdfa7a0a6,16:49:53,27/03/2024
html-keyboard-response,53,106933,0.0-24.0-1.0,,"<div style=""display: flex; flex-direction: column; align-items: center; margin-top: -40px;""><img src=""images/pattern_7.png"" style=""width: 234px; height: 230px; margin-top: -50px;""><div style=""display: flex; justify-content: space-between; margin-top: 33px;""><img src=""images/choice_trial_8.png"" style=""width: 408px; height: 417px; margin-left:608px;""></div></div>",,delaylearn,learning,display_response,tyqy9h3b2xceYqUPIImTIZyZ5mF3,tyqy9h3b2xceYqUPIImTIZyZ5mF3,,,,,,,,,,,,,,,,,chosen stimuli: images/choice_trial_8.png,,,,,60cb358cae78471cdfa7a0a6,16:49:53,27/03/2024
html-keyboard-response,54,107701,0.0-24.0-2.0,,,,delaylearn,learning,feedback_duration_window,tyqy9h3b2xceYqUPIImTIZyZ5mF3,tyqy9h3b2xceYqUPIImTIZyZ5mF3,,,,,,,,,,,,,,,,,,750.0,,,,60cb358cae78471cdfa7a0a6,16:49:53,27/03/2024
html-keyboard-response,55,109207,0.0-24.0-3.0,,<div style='margin:auto;width: auto; font-size: 150%'><span style='font-weight: bold; font-size: 100px; color: green;'>+10 points!</span><br><br></div>,,delaylearn,learning,feedback_image_window,tyqy9h3b2xceYqUPIImTIZyZ5mF3,tyqy9h3b2xceYqUPIImTIZyZ5mF3,,,,,,,,,,,,,,,,,,,,,,60cb358cae78471cdfa7a0a6,16:49:53,27/03/2024
html-keyboard-response,56,110729,0.0-25.0,,"<div style=""font-size:100px;"">+</div>",,delaylearn,learning,ITI,tyqy9h3b2xceYqUPIImTIZyZ5mF3,tyqy9h3b2xceYqUPIImTIZyZ5mF3,,,,,,,,,,,,,,,,,,,1504.0,,,60cb358cae78471cdfa7a0a6,16:49:53,27/03/2024
html-keyboard-response,57,112491,0.0-26.0-0.0,1758.699999988079,"<div style=""display: flex; flex-direction: column; align-items: center; margin-top: -40px;""><img src=""images/pattern_4.png"" style=""width: 234px; height: 230px; margin-top: -50px;""><div style=""display: flex; justify-content: space-between; margin-top: 33px;""><img src=""images/choice_trial_11.png"" style=""width: 408px; height: 417px; margin-right: 200px;""><img src=""images/choice_trial_4.png"" style=""width: 408px; height: 417px;""></div></div>",f,delaylearn,learning,trial,tyqy9h3b2xceYqUPIImTIZyZ5mF3,tyqy9h3b2xceYqUPIImTIZyZ5mF3,5.0,images/choice_trial_11.png,images/choice_trial_4.png,images/pattern_4.png,f,f,7000.0,11.0,4.0,3.0,0.0,11.0,1.0,1.0,11.0,80.0,,,,,,60cb358cae78471cdfa7a0a6,16:49:53,27/03/2024
html-keyboard-response,58,113497,0.0-26.0-1.0,,"<div style=""display: flex; flex-direction: column; align-items: center; margin-top: -40px;""><img src=""images/pattern_4.png"" style=""width: 234px; height: 230px; margin-top: -50px;""><div style=""display: flex; justify-content: space-between; margin-top: 33px;""><img src=""images/choice_trial_11.png"" style=""width: 408px; height: 417px; margin-right: 608px;""></div></div>",,delaylearn,learning,display_response,tyqy9h3b2xceYqUPIImTIZyZ5mF3,tyqy9h3b2xceYqUPIImTIZyZ5mF3,,,,,,,,,,,,,,,,,chosen stimuli: images/choice_trial_11.png,,,,,60cb358cae78471cdfa7a0a6,16:49:53,27/03/2024
html-keyboard-response,59,120507,0.0-26.0-2.0,,,,delaylearn,learning,feedback_duration_window,tyqy9h3b2xceYqUPIImTIZyZ5mF3,tyqy9h3b2xceYqUPIImTIZyZ5mF3,,,,,,,,,,,,,,,,,,7000.0,,,,60cb358cae78471cdfa7a0a6,16:49:53,27/03/2024
html-keyboard-response,60,122022,0.0-26.0-3.0,,<div style='margin:auto;width: auto; font-size: 150%'><span style='font-weight: bold; font-size: 100px; color: green;'>+10 points!</span><br><br></div>,,delaylearn,learning,feedback_image_window,tyqy9h3b2xceYqUPIImTIZyZ5mF3,tyqy9h3b2xceYqUPIImTIZyZ5mF3,,,,,,,,,,,,,,,,,,,,,,60cb358cae78471cdfa7a0a6,16:49:53,27/03/2024
html-keyboard-response,61,123920,0.0-27.0,,"<div style=""font-size:100px;"">+</div>",,delaylearn,learning,ITI,tyqy9h3b2xceYqUPIImTIZyZ5mF3,tyqy9h3b2xceYqUPIImTIZyZ5mF3,,,,,,,,,,,,,,,,,,,1883.0,,,60cb358cae78471cdfa7a0a6,16:49:53,27/03/2024
html-keyboard-response,62,125410,0.0-28.0-0.0,1485.3999999761581,"<div style=""display: flex; flex-direction: column; align-items: center; margin-top: -40px;""><img src=""images/pattern_5.png"" style=""width: 234px; height: 230px; margin-top: -50px;""><div style=""display: flex; justify-content: space-between; margin-top: 33px;""><img src=""images/choice_trial_13.png"" style=""width: 408px; height: 417px; margin-right: 200px;""><img src=""images/choice_trial_7.png"" style=""width: 408px; height: 417px;""></div></div>",j,delaylearn,learning,trial,tyqy9h3b2xceYqUPIImTIZyZ5mF3,tyqy9h3b2xceYqUPIImTIZyZ5mF3,5.0,images/choice_trial_13.png,images/choice_trial_7.png,images/pattern_5.png,j,j,750.0,13.0,7.0,4.0,1.0,12.0,1.0,1.0,7.0,90.0,,,,,,60cb358cae78471cdfa7a0a6,16:49:53,27/03/2024
html-keyboard-response,63,126421,0.0-28.0-1.0,,"<div style=""display: flex; flex-direction: column; align-items: center; margin-top: -40px;""><img src=""images/pattern_5.png"" style=""width: 234px; height: 230px; margin-top: -50px;""><div style=""display: flex; justify-content: space-between; margin-top: 33px;""><img src=""images/choice_trial_7.png"" style=""width: 408px; height: 417px; margin-left:608px;""></div></div>",,delaylearn,learning,display_response,tyqy9h3b2xceYqUPIImTIZyZ5mF3,tyqy9h3b2xceYqUPIImTIZyZ5mF3,,,,,,,,,,,,,,,,,chosen stimuli: images/choice_trial_7.png,,,,,60cb358cae78471cdfa7a0a6,16:49:53,27/03/2024
html-keyboard-response,64,127182,0.0-28.0-2.0,,,,delaylearn,learning,feedback_duration_window,tyqy9h3b2xceYqUPIImTIZyZ5mF3,tyqy9h3b2xceYqUPIImTIZyZ5mF3,,,,,,,,,,,,,,,,,,750.0,,,,60cb358cae78471cdfa7a0a6,16:49:53,27/03/2024
html-keyboard-response,65,128692,0.0-28.0-3.0,,<div style='margin:auto;width: auto; font-size: 150%'><span style='font-weight: bold; font-size: 100px; color: green;'>+10 points!</span><br><br></div>,,delaylearn,learning,feedback_image_window,tyqy9h3b2xceYqUPIImTIZyZ5mF3,tyqy9h3b2xceYqUPIImTIZyZ5mF3,,,,,,,,,,,,,,,,,,,,,,60cb358cae78471cdfa7a0a6,16:49:53,27/03/2024
html-keyboard-response,66,130715,0.0-29.0,,"<div style=""font-size:100px;"">+</div>",,delaylearn,learning,ITI,tyqy9h3b2xceYqUPIImTIZyZ5mF3,tyqy9h3b2xceYqUPIImTIZyZ5mF3,,,,,,,,,,,,,,,,,,,2015.0,,,60cb358cae78471cdfa7a0a6,16:49:53,27/03/2024
html-keyboard-response,67,132241,0.0-30.0-0.0,1521.5999999642372,"<div style=""display: flex; flex-direction: column; align-items: center; margin-top: -40px;""><img src=""images/pattern_6.png"" style=""width: 234px; height: 230px; margin-top: -50px;""><div style=""display: flex; justify-content: space-between; margin-top: 33px;""><img src=""images/choice_trial_14.png"" style=""width: 408px; height: 417px; margin-right: 200px;""><img src=""images/choice_trial_9.png"" style=""width: 408px; height: 417px;""></div></div>",j,delaylearn,learning,trial,tyqy9h3b2xceYqUPIImTIZyZ5mF3,tyqy9h3b2xceYqUPIImTIZyZ5mF3,5.0,images/choice_trial_14.png,images/choice_trial_9.png,images/pattern_6.png,j,f,750.0,14.0,9.0,5.0,0.0,13.0,0.0,1.0,9.0,100.0,,,,,,60cb358cae78471cdfa7a0a6,16:49:53,27/03/2024
html-keyboard-response,68,133252,0.0-30.0-1.0,,"<div style=""display: flex; flex-direction: column; align-items: center; margin-top: -40px;""><img src=""images/pattern_6.png"" style=""width: 234px; height: 230px; margin-top: -50px;""><div style=""display: flex; justify-content: space-between; margin-top: 33px;""><img src=""images/choice_trial_9.png"" style=""width: 408px; height: 417px; margin-left:608px;""></div></div>",,delaylearn,learning,display_response,tyqy9h3b2xceYqUPIImTIZyZ5mF3,tyqy9h3b2xceYqUPIImTIZyZ5mF3,,,,,,,,,,,,,,,,,chosen stimuli: images/choice_trial_9.png,,,,,60cb358cae78471cdfa7a0a6,16:49:53,27/03/2024
html-keyboard-response,69,134018,0.0-30.0-2.0,,,,delaylearn,learning,feedback_duration_window,tyqy9h3b2xceYqUPIImTIZyZ5mF3,tyqy9h3b2xceYqUPIImTIZyZ5mF3,,,,,,,,,,,,,,,,,,750.0,,,,60cb358cae78471cdfa7a0a6,16:49:53,27/03/2024
html-keyboard-response,70,135534,0.0-30.0-3.0,,<div style='margin:auto;width: auto; font-size: 150%'><span style='font-weight: bold; font-size: 100px; color: green;'>+10 points!</span><br><br></div>,,delaylearn,learning,feedback_image_window,tyqy9h3b2xceYqUPIImTIZyZ5mF3,tyqy9h3b2xceYqUPIImTIZyZ5mF3,,,,,,,,,,,,,,,,,,,,,,60cb358cae78471cdfa7a0a6,16:49:53,27/03/2024
html-keyboard-response,71,136040,0.0-31.0-0.0,,,,,,mood_trial_fixation,tyqy9h3b2xceYqUPIImTIZyZ5mF3,,,,,,,,,,,,,,,,,,,,,,,60cb358cae78471cdfa7a0a6,16:49:53,27/03/2024
lmdlab-html-vas-response,72,141028,0.0-31.0-1.0,3970.0,How happy are you right now?,0.6419753086419753,delaylearn,learning,mood_trial,tyqy9h3b2xceYqUPIImTIZyZ5mF3,tyqy9h3b2xceYqUPIImTIZyZ5mF3,,,,,,,,,,,,,,,,,,,,"['Very unhappy', 'Very happy']",,60cb358cae78471cdfa7a0a6,16:49:53,27/03/2024
html-keyboard-response,73,142730,0.0-32.0,,"<div style=""font-size:100px;"">+</div>",,delaylearn,learning,ITI,tyqy9h3b2xceYqUPIImTIZyZ5mF3,tyqy9h3b2xceYqUPIImTIZyZ5mF3,,,,,,,,,,,,,,,,,,,1686.0,,,60cb358cae78471cdfa7a0a6,16:49:53,27/03/2024
html-keyboard-response,74,143759,0.0-33.0-0.0,1024.6000000238419,"<div style=""display: flex; flex-direction: column; align-items: center; margin-top: -40px;""><img src=""images/pattern_1.png"" style=""width: 234px; height: 230px; margin-top: -50px;""><div style=""display: flex; justify-content: space-between; margin-top: 33px;""><img src=""images/choice_trial_15.png"" style=""width: 408px; height: 417px; margin-right: 200px;""><img src=""images/choice_trial_6.png"" style=""width: 408px; height: 417px;""></div></div>",f,delaylearn,learning,trial,tyqy9h3b2xceYqUPIImTIZyZ5mF3,tyqy9h3b2xceYqUPIImTIZyZ5mF3,5.0,images/choice_trial_15.png,images/choice_trial_6.png,images/pattern_1.png,j,j,7000.0,15.0,6.0,1.0,1.0,14.0,0.0,0.0,15.0,100.0,,,,,,60cb358cae78471cdfa7a0a6,16:49:53,27/03/2024
html-keyboard-response,75,144777,0.0-33.0-1.0,,"<div style=""display: flex; flex-direction: column; align-items: center; margin-top: -40px;""><img src=""images/pattern_1.png"" style=""width: 234px; height: 230px; margin-top: -50px;""><div style=""display: flex; justify-content: space-between; margin-top: 33px;""><img src=""images/choice_trial_15.png"" style=""width: 408px; height: 417px; margin-right: 608px;""></div></div>",,delaylearn,learning,display_response,tyqy9h3b2xceYqUPIImTIZyZ5mF3,tyqy9h3b2xceYqUPIImTIZyZ5mF3,,,,,,,,,,,,,,,,,chosen stimuli: images/choice_trial_15.png,,,,,60cb358cae78471cdfa7a0a6,16:49:53,27/03/2024
html-keyboard-response,76,151787,0.0-33.0-2.0,,,,delaylearn,learning,feedback_duration_window,tyqy9h3b2xceYqUPIImTIZyZ5mF3,tyqy9h3b2xceYqUPIImTIZyZ5mF3,,,,,,,,,,,,,,,,,,7000.0,,,,60cb358cae78471cdfa7a0a6,16:49:53,27/03/2024
html-keyboard-response,77,153295,0.0-33.0-3.0,,<div style='margin:auto;width: auto; font-size: 150%'><span style='font-weight: bold; font-size: 100px; color: red;'>0 points!</span><br><br></div>,,delaylearn,learning,feedback_image_window,tyqy9h3b2xceYqUPIImTIZyZ5mF3,tyqy9h3b2xceYqUPIImTIZyZ5mF3,,,,,,,,,,,,,,,,,,,,,,60cb358cae78471cdfa7a0a6,16:49:53,27/03/2024
html-keyboard-response,78,155349,0.0-34.0,,"<div style=""font-size:100px;"">+</div>",,delaylearn,learning,ITI,tyqy9h3b2xceYqUPIImTIZyZ5mF3,tyqy9h3b2xceYqUPIImTIZyZ5mF3,,,,,,,,,,,,,,,,,,,2052.0,,,60cb358cae78471cdfa7a0a6,16:49:53,27/03/2024
html-keyboard-response,79,158302,0.0-35.0-0.0,2948.899999976158,"<div style=""display: flex; flex-direction: column; align-items: center; margin-top: -40px;""><img src=""images/pattern_3.png"" style=""width: 234px; height: 230px; margin-top: -50px;""><div style=""display: flex; justify-content: space-between; margin-top: 33px;""><img src=""images/choice_trial_2.png"" style=""width: 408px; height: 417px; margin-right: 200px;""><img src=""images/choice_trial_16.png"" style=""width: 408px; height: 417px;""></div></div>",j,delaylearn,learning,trial,tyqy9h3b2xceYqUPIImTIZyZ5mF3,tyqy9h3b2xceYqUPIImTIZyZ5mF3,5.0,images/choice_trial_2.png,images/choice_trial_16.png,images/pattern_3.png,f,j,7000.0,2.0,16.0,2.0,1.0,15.0,1.0,0.0,16.0,100.0,,,,,,60cb358cae78471cdfa7a0a6,16:49:53,27/03/2024
html-keyboard-response,80,159313,0.0-35.0-1.0,,"<div style=""display: flex; flex-direction: column; align-items: center; margin-top: -40px;""><img src=""images/pattern_3.png"" style=""width: 234px; height: 230px; margin-top: -50px;""><div style=""display: flex; justify-content: space-between; margin-top: 33px;""><img src=""images/choice_trial_16.png"" style=""width: 408px; height: 417px; margin-left:608px;""></div></div>",,delaylearn,learning,display_response,tyqy9h3b2xceYqUPIImTIZyZ5mF3,tyqy9h3b2xceYqUPIImTIZyZ5mF3,,,,,,,,,,,,,,,,,chosen stimuli: images/choice_trial_16.png,,,,,60cb358cae78471cdfa7a0a6,16:49:53,27/03/2024
html-keyboard-response,81,166329,0.0-35.0-2.0,,,,delaylearn,learning,feedback_duration_window,tyqy9h3b2xceYqUPIImTIZyZ5mF3,tyqy9h3b2xceYqUPIImTIZyZ5mF3,,,,,,,,,,,,,,,,,,7000.0,,,,60cb358cae78471cdfa7a0a6,16:49:53,27/03/2024
html-keyboard-response,82,167840,0.0-35.0-3.0,,<div style='margin:auto;width: auto; font-size: 150%'><span style='font-weight: bold; font-size: 100px; color: red;'>0 points!</span><br><br></div>,,delaylearn,learning,feedback_image_window,tyqy9h3b2xceYqUPIImTIZyZ5mF3,tyqy9h3b2xceYqUPIImTIZyZ5mF3,,,,,,,,,,,,,,,,,,,,,,60cb358cae78471cdfa7a0a6,16:49:53,27/03/2024
html-keyboard-response,83,169489,0.0-36.0,,"<div style=""font-size:100px;"">+</div>",,delaylearn,learning,ITI,tyqy9h3b2xceYqUPIImTIZyZ5mF3,tyqy9h3b2xceYqUPIImTIZyZ5mF3,,,,,,,,,,,,,,,,,,,1636.0,,,60cb358cae78471cdfa7a0a6,16:49:53,27/03/2024
html-keyboard-response,84,172495,0.0-37.0-0.0,,"<div style=""display: flex; flex-direction: column; align-items: center; margin-top: -40px;""><img src=""images/pattern_5.png"" style=""width: 234px; height: 230px; margin-top: -50px;""><div style=""display: flex; justify-content: space-between; margin-top: 33px;""><img src=""images/choice_trial_7.png"" style=""width: 408px; height: 417px; margin-right: 200px;""><img src=""images/choice_trial_13.png"" style=""width: 408px; height: 417px;""></div></div>",,delaylearn,learning,trial,tyqy9h3b2xceYqUPIImTIZyZ5mF3,tyqy9h3b2xceYqUPIImTIZyZ5mF3,5.0,images/choice_trial_7.png,images/choice_trial_13.png,images/pattern_5.png,f,f,750.0,7.0,13.0,4.0,0.0,16.0,0.0,0.0,0.0,100.0,,,,,,60cb358cae78471cdfa7a0a6,16:49:53,27/03/2024
html-keyboard-response,85,173501,0.0-37.0-1.0,,<div style='font-weight: bold; font-size: 75px; color: red;'>Missed Trial <br><br><br><br> Please respond faster</div>,,delaylearn,learning,display_response,tyqy9h3b2xceYqUPIImTIZyZ5mF3,tyqy9h3b2xceYqUPIImTIZyZ5mF3,,,,,,,,,,,,,,,,,Missed trial,,,,,60cb358cae78471cdfa7a0a6,16:49:53,27/03/2024
html-keyboard-response,86,173508,0.0-37.0-2.0,,,,delaylearn,learning,feedback_duration_window,tyqy9h3b2xceYqUPIImTIZyZ5mF3,tyqy9h3b2xceYqUPIImTIZyZ5mF3,,,,,,,,,,,,,,,,,,0.0,,,,60cb358cae78471cdfa7a0a6,16:49:53,27/03/2024
html-keyboard-response,87,173515,0.0-37.0-3.0,,,,delaylearn,learning,feedback_image_window,tyqy9h3b2xceYqUPIImTIZyZ5mF3,tyqy9h3b2xceYqUPIImTIZyZ5mF3,,,,,,,,,,,,,,,,,,,,,,60cb358cae78471cdfa7a0a6,16:49:53,27/03/2024
html-keyboard-response,88,174026,0.0-38.0-0.0,,,,,,mood_trial_fixation,tyqy9h3b2xceYqUPIImTIZyZ5mF3,,,,,,,,,,,,,,,,,,,,,,,60cb358cae78471cdfa7a0a6,16:49:53,27/03/2024
lmdlab-html-vas-response,89,178249,0.0-38.0-1.0,3211.0,How happy are you right now?,0.4984567901234568,delaylearn,learning,mood_trial,tyqy9h3b2xceYqUPIImTIZyZ5mF3,tyqy9h3b2xceYqUPIImTIZyZ5mF3,,,,,,,,,,,,,,,,,,,,"['Very unhappy', 'Very happy']",,60cb358cae78471cdfa7a0a6,16:49:53,27/03/2024
html-keyboard-response,90,180647,0.0-39.0,,"<div style=""font-size:100px;"">+</div>",,delaylearn,learning,ITI,tyqy9h3b2xceYqUPIImTIZyZ5mF3,tyqy9h3b2xceYqUPIImTIZyZ5mF3,,,,,,,,,,,,,,,,,,,2393.0,,,60cb358cae78471cdfa7a0a6,16:49:53,27/03/2024
html-keyboard-response,91,181538,0.0-40.0-0.0,886.7000000476837,"<div style=""display: flex; flex-direction: column; align-items: center; margin-top: -40px;""><img src=""images/pattern_6.png"" style=""width: 234px; height: 230px; margin-top: -50px;""><div style=""display: flex; justify-content: space-between; margin-top: 33px;""><img src=""images/choice_trial_14.png"" style=""width: 408px; height: 417px; margin-right: 200px;""><img src=""images/choice_trial_9.png"" style=""width: 408px; height: 417px;""></div></div>",j,delaylearn,learning,trial,tyqy9h3b2xceYqUPIImTIZyZ5mF3,tyqy9h3b2xceYqUPIImTIZyZ5mF3,5.0,images/choice_trial_14.png,images/choice_trial_9.png,images/pattern_6.png,f,f,750.0,14.0,9.0,5.0,0.0,17.0,0.0,0.0,9.0,100.0,,,,,,60cb358cae78471cdfa7a0a6,16:49:53,27/03/2024
html-keyboard-response,92,182554,0.0-40.0-1.0,,"<div style=""display: flex; flex-direction: column; align-items: center; margin-top: -40px;""><img src=""images/pattern_6.png"" style=""width: 234px; height: 230px; margin-top: -50px;""><div style=""display: flex; justify-content: space-between; margin-top: 33px;""><img src=""images/choice_trial_9.png"" style=""width: 408px; height: 417px; margin-left:608px;""></div></div>",,delaylearn,learning,display_response,tyqy9h3b2xceYqUPIImTIZyZ5mF3,tyqy9h3b2xceYqUPIImTIZyZ5mF3,,,,,,,,,,,,,,,,,chosen stimuli: images/choice_trial_9.png,,,,,60cb358cae78471cdfa7a0a6,16:49:53,27/03/2024
html-keyboard-response,93,183309,0.0-40.0-2.0,,,,delaylearn,learning,feedback_duration_window,tyqy9h3b2xceYqUPIImTIZyZ5mF3,tyqy9h3b2xceYqUPIImTIZyZ5mF3,,,,,,,,,,,,,,,,,,750.0,,,,60cb358cae78471cdfa7a0a6,16:49:53,27/03/2024
html-keyboard-response,94,184812,0.0-40.0-3.0,,<div style='margin:auto;width: auto; font-size: 150%'><span style='font-weight: bold; font-size: 100px; color: red;'>0 points!</span><br><br></div>,,delaylearn,learning,feedback_image_window,tyqy9h3b2xceYqUPIImTIZyZ5mF3,tyqy9h3b2xceYqUPIImTIZyZ5mF3,,,,,,,,,,,,,,,,,,,,,,60cb358cae78471cdfa7a0a6,16:49:53,27/03/2024
html-keyboard-response,95,187267,0.0-41.0,,"<div style=""font-size:100px;"">+</div>",,delaylearn,learning,ITI,tyqy9h3b2xceYqUPIImTIZyZ5mF3,tyqy9h3b2xceYqUPIImTIZyZ5mF3,,,,,,,,,,,,,,,,,,,2452.0,,,60cb358cae78471cdfa7a0a6,16:49:53,27/03/2024
html-keyboard-response,96,188746,0.0-42.0-0.0,1475.0,"<div style=""display: flex; flex-direction: column; align-items: center; margin-top: -40px;""><img src=""images/pattern_4.png"" style=""width: 234px; height: 230px; margin-top: -50px;""><div style=""display: flex; justify-content: space-between; margin-top: 33px;""><img src=""images/choice_trial_4.png"" style=""width: 408px; height: 417px; margin-right: 200px;""><img src=""images/choice_trial_11.png"" style=""width: 408px; height: 417px;""></div></div>",j,delaylearn,learning,trial,tyqy9h3b2xceYqUPIImTIZyZ5mF3,tyqy9h3b2xceYqUPIImTIZyZ5mF3,5.0,images/choice_trial_4.png,images/choice_trial_11.png,images/pattern_4.png,j,j,7000.0,4.0,11.0,3.0,1.0,18.0,1.0,1.0,11.0,110.0,,,,,,60cb358cae78471cdfa7a0a6,16:49:53,27/03/2024
html-keyboard-response,97,189749,0.0-42.0-1.0,,"<div style=""display: flex; flex-direction: column; align-items: center; margin-top: -40px;""><img src=""images/pattern_4.png"" style=""width: 234px; height: 230px; margin-top: -50px;""><div style=""display: flex; justify-content: space-between; margin-top: 33px;""><img src=""images/choice_trial_11.png"" style=""width: 408px; height: 417px; margin-left:608px;""></div></div>",,delaylearn,learning,display_response,tyqy9h3b2xceYqUPIImTIZyZ5mF3,tyqy9h3b2xceYqUPIImTIZyZ5mF3,,,,,,,,,,,,,,,,,chosen stimuli: images/choice_trial_11.png,,,,,60cb358cae78471cdfa7a0a6,16:49:53,27/03/2024
html-keyboard-response,98,196767,0.0-42.0-2.0,,,,delaylearn,learning,feedback_duration_window,tyqy9h3b2xceYqUPIImTIZyZ5mF3,tyqy9h3b2xceYqUPIImTIZyZ5mF3,,,,,,,,,,,,,,,,,,7000.0,,,,60cb358cae78471cdfa7a0a6,16:49:53,27/03/2024
html-keyboard-response,99,198272,0.0-42.0-3.0,,<div style='margin:auto;width: auto; font-size: 150%'><span style='font-weight: bold; font-size: 100px; color: green;'>+10 points!</span><br><br></div>,,delaylearn,learning,feedback_image_window,tyqy9h3b2xceYqUPIImTIZyZ5mF3,tyqy9h3b2xceYqUPIImTIZyZ5mF3,,,,,,,,,,,,,,,,,,,,,,60cb358cae78471cdfa7a0a6,16:49:53,27/03/2024
html-keyboard-response,100,200373,0.0-43.0,,"<div style=""font-size:100px;"">+</div>",,delaylearn,learning,ITI,tyqy9h3b2xceYqUPIImTIZyZ5mF3,tyqy9h3b2xceYqUPIImTIZyZ5mF3,,,,,,,,,,,,,,,,,,,2098.0,,,60cb358cae78471cdfa7a0a6,16:49:53,27/03/2024
html-keyboard-response,101,201312,0.0-44.0-0.0,935.1000000238419,"<div style=""display: flex; flex-direction: column; align-items: center; margin-top: -40px;""><img src=""images/pattern_7.png"" style=""width: 234px; height: 230px; margin-top: -50px;""><div style=""display: flex; justify-content: space-between; margin-top: 33px;""><img src=""images/choice_trial_8.png"" style=""width: 408px; height: 417px; margin-right: 200px;""><img src=""images/choice_trial_10.png"" style=""width: 408px; height: 417px;""></div></div>",f,delaylearn,learning,trial,tyqy9h3b2xceYqUPIImTIZyZ5mF3,tyqy9h3b2xceYqUPIImTIZyZ5mF3,5.0,images/choice_trial_8.png,images/choice_trial_10.png,images/pattern_7.png,j,f,750.0,8.0,10.0,6.0,0.0,19.0,1.0,0.0,8.0,110.0,,,,,,60cb358cae78471cdfa7a0a6,16:49:53,27/03/2024
html-keyboard-response,102,202316,0.0-44.0-1.0,,"<div style=""display: flex; flex-direction: column; align-items: center; margin-top: -40px;""><img src=""images/pattern_7.png"" style=""width: 234px; height: 230px; margin-top: -50px;""><div style=""display: flex; justify-content: space-between; margin-top: 33px;""><img src=""images/choice_trial_8.png"" style=""width: 408px; height: 417px; margin-right: 608px;""></div></div>",,delaylearn,learning,display_response,tyqy9h3b2xceYqUPIImTIZyZ5mF3,tyqy9h3b2xceYqUPIImTIZyZ5mF3,,,,,,,,,,,,,,,,,chosen stimuli: images/choice_trial_8.png,,,,,60cb358cae78471cdfa7a0a6,16:49:53,27/03/2024
html-keyboard-response,103,203075,0.0-44.0-2.0,,,,delaylearn,learning,feedback_duration_window,tyqy9h3b2xceYqUPIImTIZyZ5mF3,tyqy9h3b2xceYqUPIImTIZyZ5mF3,,,,,,,,,,,,,,,,,,750.0,,,,60cb358cae78471cdfa7a0a6,16:49:53,27/03/2024
html-keyboard-response,104,204588,0.0-44.0-3.0,,<div style='margin:auto;width: auto; font-size: 150%'><span style='font-weight: bold; font-size: 100px; color: red;'>0 points!</span><br><br></div>,,delaylearn,learning,feedback_image_window,tyqy9h3b2xceYqUPIImTIZyZ5mF3,tyqy9h3b2xceYqUPIImTIZyZ5mF3,,,,,,,,,,,,,,,,,,,,,,60cb358cae78471cdfa7a0a6,16:49:53,27/03/2024
html-keyboard-response,105,206264,0.0-45.0,,"<div style=""font-size:100px;"">+</div>",,delaylearn,learning,ITI,tyqy9h3b2xceYqUPIImTIZyZ5mF3,tyqy9h3b2xceYqUPIImTIZyZ5mF3,,,,,,,,,,,,,,,,,,,1666.0,,,60cb358cae78471cdfa7a0a6,16:49:53,27/03/2024
html-keyboard-response,106,207311,0.0-46.0-0.0,1041.7000000476837,"<div style=""display: flex; flex-direction: column; align-items: center; margin-top: -40px;""><img src=""images/pattern_1.png"" style=""width: 234px; height: 230px; margin-top: -50px;""><div style=""display: flex; justify-content: space-between; margin-top: 33px;""><img src=""images/choice_trial_6.png"" style=""width: 408px; height: 417px; margin-right: 200px;""><img src=""images/choice_trial_15.png"" style=""width: 408px; height: 417px;""></div></div>",j,delaylearn,learning,trial,tyqy9h3b2xceYqUPIImTIZyZ5mF3,tyqy9h3b2xceYqUPIImTIZyZ5mF3,5.0,images/choice_trial_6.png,images/choice_trial_15.png,images/pattern_1.png,f,f,7000.0,6.0,15.0,1.0,0.0,20.0,0.0,0.0,15.0,110.0,,,,,,60cb358cae78471cdfa7a0a6,16:49:53,27/03/2024
html-keyboard-response,107,208324,0.0-46.0-1.0,,"<div style=""display: flex; flex-direction: column; align-items: center; margin-top: -40px;""><img src=""images/pattern_1.png"" style=""width: 234px; height: 230px; margin-top: -50px;""><div style=""display: flex; justify-content: space-between; margin-top: 33px;""><img src=""images/choice_trial_15.png"" style=""width: 408px; height: 417px; margin-left:608px;""></div></div>",,delaylearn,learning,display_response,tyqy9h3b2xceYqUPIImTIZyZ5mF3,tyqy9h3b2xceYqUPIImTIZyZ5mF3,,,,,,,,,,,,,,,,,chosen stimuli: images/choice_trial_15.png,,,,,60cb358cae78471cdfa7a0a6,16:49:53,27/03/2024
html-keyboard-response,108,215334,0.0-46.0-2.0,,,,delaylearn,learning,feedback_duration_window,tyqy9h3b2xceYqUPIImTIZyZ5mF3,tyqy9h3b2xceYqUPIImTIZyZ5mF3,,,,,,,,,,,,,,,,,,7000.0,,,,60cb358cae78471cdfa7a0a6,16:49:53,27/03/2024
html-keyboard-response,109,216840,0.0-46.0-3.0,,<div style='margin:auto;width: auto; font-size: 150%'><span style='font-weight: bold; font-size: 100px; color: red;'>0 points!</span><br><br></div>,,delaylearn,learning,feedback_image_window,tyqy9h3b2xceYqUPIImTIZyZ5mF3,tyqy9h3b2xceYqUPIImTIZyZ5mF3,,,,,,,,,,,,,,,,,,,,,,60cb358cae78471cdfa7a0a6,16:49:53,27/03/2024
html-keyboard-response,110,218414,0.0-47.0,,"<div style=""font-size:100px;"">+</div>",,delaylearn,learning,ITI,tyqy9h3b2xceYqUPIImTIZyZ5mF3,tyqy9h3b2xceYqUPIImTIZyZ5mF3,,,,,,,,,,,,,,,,,,,1558.0,,,60cb358cae78471cdfa7a0a6,16:49:53,27/03/2024
html-keyboard-response,111,219559,0.0-48.0-0.0,1139.0999999642372,"<div style=""display: flex; flex-direction: column; align-items: center; margin-top: -40px;""><img src=""images/pattern_6.png"" style=""width: 234px; height: 230px; margin-top: -50px;""><div style=""display: flex; justify-content: space-between; margin-top: 33px;""><img src=""images/choice_trial_9.png"" style=""width: 408px; height: 417px; margin-right: 200px;""><img src=""images/choice_trial_14.png"" style=""width: 408px; height: 417px;""></div></div>",f,delaylearn,learning,trial,tyqy9h3b2xceYqUPIImTIZyZ5mF3,tyqy9h3b2xceYqUPIImTIZyZ5mF3,5.0,images/choice_trial_9.png,images/choice_trial_14.png,images/pattern_6.png,j,j,750.0,9.0,14.0,5.0,1.0,21.0,0.0,0.0,9.0,110.0,,,,,,60cb358cae78471cdfa7a0a6,16:49:53,27/03/2024
html-keyboard-response,112,220573,0.0-48.0-1.0,,"<div style=""display: flex; flex-direction: column; align-items: center; margin-top: -40px;""><img src=""images/pattern_6.png"" style=""width: 234px; height: 230px; margin-top: -50px;""><div style=""display: flex; justify-content: space-between; margin-top: 33px;""><img src=""images/choice_trial_9.png"" style=""width: 408px; height: 417px; margin-right: 608px;""></div></div>",,delaylearn,learning,display_response,tyqy9h3b2xceYqUPIImTIZyZ5mF3,tyqy9h3b2xceYqUPIImTIZyZ5mF3,,,,,,,,,,,,,,,,,chosen stimuli: images/choice_trial_9.png,,,,,60cb358cae78471cdfa7a0a6,16:49:53,27/03/2024
html-keyboard-response,113,221340,0.0-48.0-2.0,,,,delaylearn,learning,feedback_duration_window,tyqy9h3b2xceYqUPIImTIZyZ5mF3,tyqy9h3b2xceYqUPIImTIZyZ5mF3,,,,,,,,,,,,,,,,,,750.0,,,,60cb358cae78471cdfa7a0a6,16:49:53,27/03/2024
html-keyboard-response,114,222845,0.0-48.0-3.0,,<div style='margin:auto;width: auto; font-size: 150%'><span style='font-weight: bold; font-size: 100px; color: red;'>0 points!</span><br><br></div>,,delaylearn,learning,feedback_image_window,tyqy9h3b2xceYqUPIImTIZyZ5mF3,tyqy9h3b2xceYqUPIImTIZyZ5mF3,,,,,,,,,,,,,,,,,,,,,,60cb358cae78471cdfa7a0a6,16:49:53,27/03/2024
html-keyboard-response,115,225164,0.0-49.0,,"<div style=""font-size:100px;"">+</div>",,delaylearn,learning,ITI,tyqy9h3b2xceYqUPIImTIZyZ5mF3,tyqy9h3b2xceYqUPIImTIZyZ5mF3,,,,,,,,,,,,,,,,,,,2303.0,,,60cb358cae78471cdfa7a0a6,16:49:53,27/03/2024
html-keyboard-response,116,226396,0.0-50.0-0.0,1226.800000011921,"<div style=""display: flex; flex-direction: column; align-items: center; margin-top: -40px;""><img src=""images/pattern_4.png"" style=""width: 234px; height: 230px; margin-top: -50px;""><div style=""display: flex; justify-content: space-between; margin-top: 33px;""><img src=""images/choice_trial_11.png"" style=""width: 408px; height: 417px; margin-right: 200px;""><img src=""images/choice_trial_4.png"" style=""width: 408px; height: 417px;""></div></div>",f,delaylearn,learning,trial,tyqy9h3b2xceYqUPIImTIZyZ5mF3,tyqy9h3b2xceYqUPIImTIZyZ5mF3,5.0,images/choice_trial_11.png,images/choice_trial_4.png,images/pattern_4.png,f,f,7000.0,11.0,4.0,3.0,0.0,22.0,1.0,1.0,11.0,120.0,,,,,,60cb358cae78471cdfa7a0a6,16:49:53,27/03/2024
html-keyboard-response,117,227414,0.0-50.0-1.0,,"<div style=""display: flex; flex-direction: column; align-items: center; margin-top: -40px;""><img src=""images/pattern_4.png"" style=""width: 234px; height: 230px; margin-top: -50px;""><div style=""display: flex; justify-content: space-between; margin-top: 33px;""><img src=""images/choice_trial_11.png"" style=""width: 408px; height: 417px; margin-right: 608px;""></div></div>",,delaylearn,learning,display_response,tyqy9h3b2xceYqUPIImTIZyZ5mF3,tyqy9h3b2xceYqUPIImTIZyZ5mF3,,,,,,,,,,,,,,,,,chosen stimuli: images/choice_trial_11.png,,,,,60cb358cae78471cdfa7a0a6,16:49:53,27/03/2024
html-keyboard-response,118,234431,0.0-50.0-2.0,,,,delaylearn,learning,feedback_duration_window,tyqy9h3b2xceYqUPIImTIZyZ5mF3,tyqy9h3b2xceYqUPIImTIZyZ5mF3,,,,,,,,,,,,,,,,,,7000.0,,,,60cb358cae78471cdfa7a0a6,16:49:53,27/03/2024
html-keyboard-response,119,235945,0.0-50.0-3.0,,<div style='margin:auto;width: auto; font-size: 150%'><span style='font-weight: bold; font-size: 100px; color: green;'>+10 points!</span><br><br></div>,,delaylearn,learning,feedback_image_window,tyqy9h3b2xceYqUPIImTIZyZ5mF3,tyqy9h3b2xceYqUPIImTIZyZ5mF3,,,,,,,,,,,,,,,,,,,,,,60cb358cae78471cdfa7a0a6,16:49:53,27/03/2024
html-keyboard-response,120,236460,0.0-51.0-0.0,,,,,,mood_trial_fixation,tyqy9h3b2xceYqUPIImTIZyZ5mF3,,,,,,,,,,,,,,,,,,,,,,,60cb358cae78471cdfa7a0a6,16:49:53,27/03/2024
lmdlab-html-vas-response,121,240937,0.0-51.0-1.0,3456.0,How happy are you right now?,0.5740740740740741,delaylearn,learning,mood_trial,tyqy9h3b2xceYqUPIImTIZyZ5mF3,tyqy9h3b2xceYqUPIImTIZyZ5mF3,,,,,,,,,,,,,,,,,,,,"['Very unhappy', 'Very happy']",,60cb358cae78471cdfa7a0a6,16:49:53,27/03/2024
html-keyboard-response,122,243033,0.0-52.0,,"<div style=""font-size:100px;"">+</div>",,delaylearn,learning,ITI,tyqy9h3b2xceYqUPIImTIZyZ5mF3,tyqy9h3b2xceYqUPIImTIZyZ5mF3,,,,,,,,,,,,,,,,,,,2079.0,,,60cb358cae78471cdfa7a0a6,16:49:53,27/03/2024
html-keyboard-response,123,244018,0.0-53.0-0.0,980.3000000119209,"<div style=""display: flex; flex-direction: column; align-items: center; margin-top: -40px;""><img src=""images/pattern_7.png"" style=""width: 234px; height: 230px; margin-top: -50px;""><div style=""display: flex; justify-content: space-between; margin-top: 33px;""><img src=""images/choice_trial_10.png"" style=""width: 408px; height: 417px; margin-right: 200px;""><img src=""images/choice_trial_8.png"" style=""width: 408px; height: 417px;""></div></div>",j,delaylearn,learning,trial,tyqy9h3b2xceYqUPIImTIZyZ5mF3,tyqy9h3b2xceYqUPIImTIZyZ5mF3,5.0,images/choice_trial_10.png,images/choice_trial_8.png,images/pattern_7.png,j,j,750.0,10.0,8.0,6.0,1.0,23.0,1.0,1.0,8.0,130.0,,,,,,60cb358cae78471cdfa7a0a6,16:49:53,27/03/2024
html-keyboard-response,124,245034,0.0-53.0-1.0,,"<div style=""display: flex; flex-direction: column; align-items: center; margin-top: -40px;""><img src=""images/pattern_7.png"" style=""width: 234px; height: 230px; margin-top: -50px;""><div style=""display: flex; justify-content: space-between; margin-top: 33px;""><img src=""images/choice_trial_8.png"" style=""width: 408px; height: 417px; margin-left:608px;""></div></div>",,delaylearn,learning,display_response,tyqy9h3b2xceYqUPIImTIZyZ5mF3,tyqy9h3b2xceYqUPIImTIZyZ5mF3,,,,,,,,,,,,,,,,,chosen stimuli: images/choice_trial_8.png,,,,,60cb358cae78471cdfa7a0a6,16:49:53,27/03/2024
html-keyboard-response,125,245796,0.0-53.0-2.0,,,,delaylearn,learning,feedback_duration_window,tyqy9h3b2xceYqUPIImTIZyZ5mF3,tyqy9h3b2xceYqUPIImTIZyZ5mF3,,,,,,,,,,,,,,,,,,750.0,,,,60cb358cae78471cdfa7a0a6,16:49:53,27/03/2024
html-keyboard-response,126,247312,0.0-53.0-3.0,,<div style='margin:auto;width: auto; font-size: 150%'><span style='font-weight: bold; font-size: 100px; color: green;'>+10 points!</span><br><br></div>,,delaylearn,learning,feedback_image_window,tyqy9h3b2xceYqUPIImTIZyZ5mF3,tyqy9h3b2xceYqUPIImTIZyZ5mF3,,,,,,,,,,,,,,,,,,,,,,60cb358cae78471cdfa7a0a6,16:49:53,27/03/2024
html-keyboard-response,127,249257,0.0-54.0,,"<div style=""font-size:100px;"">+</div>",,delaylearn,learning,ITI,tyqy9h3b2xceYqUPIImTIZyZ5mF3,tyqy9h3b2xceYqUPIImTIZyZ5mF3,,,,,,,,,,,,,,,,,,,1934.0,,,60cb358cae78471cdfa7a0a6,16:49:53,27/03/2024
html-keyboard-response,128,250097,0.0-55.0-0.0,836.0999999642372,"<div style=""display: flex; flex-direction: column; align-items: center; margin-top: -40px;""><img src=""images/pattern_1.png"" style=""width: 234px; height: 230px; margin-top: -50px;""><div style=""display: flex; justify-content: space-between; margin-top: 33px;""><img src=""images/choice_trial_15.png"" style=""width: 408px; height: 417px; margin-right: 200px;""><img src=""images/choice_trial_6.png"" style=""width: 408px; height: 417px;""></div></div>",f,delaylearn,learning,trial,tyqy9h3b2xceYqUPIImTIZyZ5mF3,tyqy9h3b2xceYqUPIImTIZyZ5mF3,5.0,images/choice_trial_15.png,images/choice_trial_6.png,images/pattern_1.png,f,j,7000.0,15.0,6.0,1.0,1.0,24.0,0.0,1.0,15.0,140.0,,,,,,60cb358cae78471cdfa7a0a6,16:49:53,27/03/2024
html-keyboard-response,129,251108,0.0-55.0-1.0,,"<div style=""display: flex; flex-direction: column; align-items: center; margin-top: -40px;""><img src=""images/pattern_1.png"" style=""width: 234px; height: 230px; margin-top: -50px;""><div style=""display: flex; justify-content: space-between; margin-top: 33px;""><img src=""images/choice_trial_15.png"" style=""width: 408px; height: 417px; margin-right: 608px;""></div></div>",,delaylearn,learning,display_response,tyqy9h3b2xceYqUPIImTIZyZ5mF3,tyqy9h3b2xceYqUPIImTIZyZ5mF3,,,,,,,,,,,,,,,,,chosen stimuli: images/choice_trial_15.png,,,,,60cb358cae78471cdfa7a0a6,16:49:53,27/03/2024
html-keyboard-response,130,258119,0.0-55.0-2.0,,,,delaylearn,learning,feedback_duration_window,tyqy9h3b2xceYqUPIImTIZyZ5mF3,tyqy9h3b2xceYqUPIImTIZyZ5mF3,,,,,,,,,,,,,,,,,,7000.0,,,,60cb358cae78471cdfa7a0a6,16:49:53,27/03/2024
html-keyboard-response,131,259635,0.0-55.0-3.0,,<div style='margin:auto;width: auto; font-size: 150%'><span style='font-weight: bold; font-size: 100px; color: green;'>+10 points!</span><br><br></div>,,delaylearn,learning,feedback_image_window,tyqy9h3b2xceYqUPIImTIZyZ5mF3,tyqy9h3b2xceYqUPIImTIZyZ5mF3,,,,,,,,,,,,,,,,,,,,,,60cb358cae78471cdfa7a0a6,16:49:53,27/03/2024
html-keyboard-response,132,262001,0.0-56.0,,"<div style=""font-size:100px;"">+</div>",,delaylearn,learning,ITI,tyqy9h3b2xceYqUPIImTIZyZ5mF3,tyqy9h3b2xceYqUPIImTIZyZ5mF3,,,,,,,,,,,,,,,,,,,2350.0,,,60cb358cae78471cdfa7a0a6,16:49:53,27/03/2024
html-keyboard-response,133,262848,0.0-57.0-0.0,841.8000000119209,"<div style=""display: flex; flex-direction: column; align-items: center; margin-top: -40px;""><img src=""images/pattern_5.png"" style=""width: 234px; height: 230px; margin-top: -50px;""><div style=""display: flex; justify-content: space-between; margin-top: 33px;""><img src=""images/choice_trial_13.png"" style=""width: 408px; height: 417px; margin-right: 200px;""><img src=""images/choice_trial_7.png"" style=""width: 408px; height: 417px;""></div></div>",j,delaylearn,learning,trial,tyqy9h3b2xceYqUPIImTIZyZ5mF3,tyqy9h3b2xceYqUPIImTIZyZ5mF3,5.0,images/choice_trial_13.png,images/choice_trial_7.png,images/pattern_5.png,j,j,750.0,13.0,7.0,4.0,1.0,25.0,1.0,1.0,7.0,150.0,,,,,,60cb358cae78471cdfa7a0a6,16:49:53,27/03/2024
html-keyboard-response,134,263860,0.0-57.0-1.0,,"<div style=""display: flex; flex-direction: column; align-items: center; margin-top: -40px;""><img src=""images/pattern_5.png"" style=""width: 234px; height: 230px; margin-top: -50px;""><div style=""display: flex; justify-content: space-between; margin-top: 33px;""><img src=""images/choice_trial_7.png"" style=""width: 408px; height: 417px; margin-left:608px;""></div></div>",,delaylearn,learning,display_response,tyqy9h3b2xceYqUPIImTIZyZ5mF3,tyqy9h3b2xceYqUPIImTIZyZ5mF3,,,,,,,,,,,,,,,,,chosen stimuli: images/choice_trial_7.png,,,,,60cb358cae78471cdfa7a0a6,16:49:53,27/03/2024
html-keyboard-response,135,264623,0.0-57.0-2.0,,,,delaylearn,learning,feedback_duration_window,tyqy9h3b2xceYqUPIImTIZyZ5mF3,tyqy9h3b2xceYqUPIImTIZyZ5mF3,,,,,,,,,,,,,,,,,,750.0,,,,60cb358cae78471cdfa7a0a6,16:49:53,27/03/2024
html-keyboard-response,136,266128,0.0-57.0-3.0,,<div style='margin:auto;width: auto; font-size: 150%'><span style='font-weight: bold; font-size: 100px; color: green;'>+10 points!</span><br><br></div>,,delaylearn,learning,feedback_image_window,tyqy9h3b2xceYqUPIImTIZyZ5mF3,tyqy9h3b2xceYqUPIImTIZyZ5mF3,,,,,,,,,,,,,,,,,,,,,,60cb358cae78471cdfa7a0a6,16:49:53,27/03/2024
html-keyboard-response,137,268123,0.0-58.0,,"<div style=""font-size:100px;"">+</div>",,delaylearn,learning,ITI,tyqy9h3b2xceYqUPIImTIZyZ5mF3,tyqy9h3b2xceYqUPIImTIZyZ5mF3,,,,,,,,,,,,,,,,,,,1979.0,,,60cb358cae78471cdfa7a0a6,16:49:53,27/03/2024
html-keyboard-response,138,269758,0.0-59.0-0.0,1631.1000000238419,"<div style=""display: flex; flex-direction: column; align-items: center; margin-top: -40px;""><img src=""images/pattern_3.png"" style=""width: 234px; height: 230px; margin-top: -50px;""><div style=""display: flex; justify-content: space-between; margin-top: 33px;""><img src=""images/choice_trial_2.png"" style=""width: 408px; height: 417px; margin-right: 200px;""><img src=""images/choice_trial_16.png"" style=""width: 408px; height: 417px;""></div></div>",f,delaylearn,learning,trial,tyqy9h3b2xceYqUPIImTIZyZ5mF3,tyqy9h3b2xceYqUPIImTIZyZ5mF3,5.0,images/choice_trial_2.png,images/choice_trial_16.png,images/pattern_3.png,j,j,7000.0,2.0,16.0,2.0,1.0,26.0,0.0,0.0,2.0,150.0,,,,,,60cb358cae78471cdfa7a0a6,16:49:53,27/03/2024
html-keyboard-response,139,270771,0.0-59.0-1.0,,"<div style=""display: flex; flex-direction: column; align-items: center; margin-top: -40px;""><img src=""images/pattern_3.png"" style=""width: 234px; height: 230px; margin-top: -50px;""><div style=""display: flex; justify-content: space-between; margin-top: 33px;""><img src=""images/choice_trial_2.png"" style=""width: 408px; height: 417px; margin-right: 608px;""></div></div>",,delaylearn,learning,display_response,tyqy9h3b2xceYqUPIImTIZyZ5mF3,tyqy9h3b2xceYqUPIImTIZyZ5mF3,,,,,,,,,,,,,,,,,chosen stimuli: images/choice_trial_2.png,,,,,60cb358cae78471cdfa7a0a6,16:49:53,27/03/2024
html-keyboard-response,140,277775,0.0-59.0-2.0,,,,delaylearn,learning,feedback_duration_window,tyqy9h3b2xceYqUPIImTIZyZ5mF3,tyqy9h3b2xceYqUPIImTIZyZ5mF3,,,,,,,,,,,,,,,,,,7000.0,,,,60cb358cae78471cdfa7a0a6,16:49:53,27/03/2024
html-keyboard-response,141,279286,0.0-59.0-3.0,,<div style='margin:auto;width: auto; font-size: 150%'><span style='font-weight: bold; font-size: 100px; color: red;'>0 points!</span><br><br></div>,,delaylearn,learning,feedback_image_window,tyqy9h3b2xceYqUPIImTIZyZ5mF3,tyqy9h3b2xceYqUPIImTIZyZ5mF3,,,,,,,,,,,,,,,,,,,,,,60cb358cae78471cdfa7a0a6,16:49:53,27/03/2024
lmdlab-html-vas-response,142,286356,0.0-60.0-0.0,5546.0,*How <b><u>confident</u></b> are you feeling about your answers at this moment?*,0.6898148148148148,rewlearn,rate_confidence,,tyqy9h3b2xceYqUPIImTIZyZ5mF3,tyqy9h3b2xceYqUPIImTIZyZ5mF3,,,,,,,,,,,,,,,,,,,,"['No confidence', 'Complete confidence']",,60cb358cae78471cdfa7a0a6,16:49:53,27/03/2024
lmdlab-rest-trial-limit,143,293038,0.0-60.0-1.0,5174.100000023842,"<div style=""font-size:40px;""><b>Please take a break!</b><br><br><br><br><p>Great work: you earned 150 points.<br><br><br><p>You have completed part(s) 1 of 5.<br><br><br><br>When you are ready to continue<br><br><br>please click the button.</p><br><br>",0,delaylearn,learning,break,tyqy9h3b2xceYqUPIImTIZyZ5mF3,tyqy9h3b2xceYqUPIImTIZyZ5mF3,,,,,,,,,,,,,,,,,,,,,0.0,60cb358cae78471cdfa7a0a6,16:49:53,27/03/2024
html-keyboard-response,144,296044,0.0-60.0-2.0,,"<div style=""font-size:100px;"">+</div>",,delaylearn,learning,pre_fixation,tyqy9h3b2xceYqUPIImTIZyZ5mF3,,,,,,,,,,,,,,,,,,,,,,,60cb358cae78471cdfa7a0a6,16:49:53,27/03/2024
lmdlab-html-vas-response,145,300105,0.0-60.0-3.0-0.0,3041.0,How happy are you right now?,0.7006172839506173,delaylearn,learning,mood_baseline,tyqy9h3b2xceYqUPIImTIZyZ5mF3,tyqy9h3b2xceYqUPIImTIZyZ5mF3,,,,,,,,,,,,,,,,,,,,"['Very unhappy', 'Very happy']",,60cb358cae78471cdfa7a0a6,16:49:53,27/03/2024
html-keyboard-response,146,301625,0.0-60.0-3.0-1.0,,,,,,mood_baseline_fixation,tyqy9h3b2xceYqUPIImTIZyZ5mF3,,,,,,,,,,,,,,,,,,,,,,,60cb358cae78471cdfa7a0a6,16:49:53,27/03/2024
html-keyboard-response,147,303575,0.0-61.0,,"<div style=""font-size:100px;"">+</div>",,delaylearn,learning,ITI,tyqy9h3b2xceYqUPIImTIZyZ5mF3,tyqy9h3b2xceYqUPIImTIZyZ5mF3,,,,,,,,,,,,,,,,,,,1945.0,,,60cb358cae78471cdfa7a0a6,16:49:53,27/03/2024
html-keyboard-response,148,304489,0.0-62.0-0.0,909.8000000119209,"<div style=""display: flex; flex-direction: column; align-items: center; margin-top: -40px;""><img src=""images/pattern_7.png"" style=""width: 234px; height: 230px; margin-top: -50px;""><div style=""display: flex; justify-content: space-between; margin-top: 33px;""><img src=""images/choice_trial_10.png"" style=""width: 408px; height: 417px; margin-right: 200px;""><img src=""images/choice_trial_8.png"" style=""width: 408px; height: 417px;""></div></div>",j,delaylearn,learning,trial,tyqy9h3b2xceYqUPIImTIZyZ5mF3,tyqy9h3b2xceYqUPIImTIZyZ5mF3,5.0,images/choice_trial_10.png,images/choice_trial_8.png,images/pattern_7.png,j,j,750.0,10.0,8.0,6.0,1.0,27.0,1.0,1.0,8.0,160.0,,,,,,60cb358cae78471cdfa7a0a6,16:49:53,27/03/2024
html-keyboard-response,149,305506,0.0-62.0-1.0,,"<div style=""display: flex; flex-direction: column; align-items: center; margin-top: -40px;""><img src=""images/pattern_7.png"" style=""width: 234px; height: 230px; margin-top: -50px;""><div style=""display: flex; justify-content: space-between; margin-top: 33px;""><img src=""images/choice_trial_8.png"" style=""width: 408px; height: 417px; margin-left:608px;""></div></div>",,delaylearn,learning,display_response,tyqy9h3b2xceYqUPIImTIZyZ5mF3,tyqy9h3b2xceYqUPIImTIZyZ5mF3,,,,,,,,,,,,,,,,,chosen stimuli: images/choice_trial_8.png,,,,,60cb358cae78471cdfa7a0a6,16:49:53,27/03/2024
html-keyboard-response,150,306261,0.0-62.0-2.0,,,,delaylearn,learning,feedback_duration_window,tyqy9h3b2xceYqUPIImTIZyZ5mF3,tyqy9h3b2xceYqUPIImTIZyZ5mF3,,,,,,,,,,,,,,,,,,750.0,,,,60cb358cae78471cdfa7a0a6,16:49:53,27/03/2024
html-keyboard-response,151,307773,0.0-62.0-3.0,,<div style='margin:auto;width: auto; font-size: 150%'><span style='font-weight: bold; font-size: 100px; color: green;'>+10 points!</span><br><br></div>,,delaylearn,learning,feedback_image_window,tyqy9h3b2xceYqUPIImTIZyZ5mF3,tyqy9h3b2xceYqUPIImTIZyZ5mF3,,,,,,,,,,,,,,,,,,,,,,60cb358cae78471cdfa7a0a6,16:49:53,27/03/2024
html-keyboard-response,152,308288,0.0-63.0-0.0,,,,,,mood_trial_fixation,tyqy9h3b2xceYqUPIImTIZyZ5mF3,,,,,,,,,,,,,,,,,,,,,,,60cb358cae78471cdfa7a0a6,16:49:53,27/03/2024
lmdlab-html-vas-response,153,313223,0.0-63.0-1.0,3917.0,How happy are you right now?,0.6265432098765432,delaylearn,learning,mood_trial,tyqy9h3b2xceYqUPIImTIZyZ5mF3,tyqy9h3b2xceYqUPIImTIZyZ5mF3,,,,,,,,,,,,,,,,,,,,"['Very unhappy', 'Very happy']",,60cb358cae78471cdfa7a0a6,16:49:53,27/03/2024
html-keyboard-response,154,315583,0.0-64.0,,"<div style=""font-size:100px;"">+</div>",,delaylearn,learning,ITI,tyqy9h3b2xceYqUPIImTIZyZ5mF3,tyqy9h3b2xceYqUPIImTIZyZ5mF3,,,,,,,,,,,,,,,,,,,2342.0,,,60cb358cae78471cdfa7a0a6,16:49:53,27/03/2024
html-keyboard-response,155,316688,0.0-65.0-0.0,1099.5,"<div style=""display: flex; flex-direction: column; align-items: center; margin-top: -40px;""><img src=""images/pattern_1.png"" style=""width: 234px; height: 230px; margin-top: -50px;""><div style=""display: flex; justify-content: space-between; margin-top: 33px;""><img src=""images/choice_trial_6.png"" style=""width: 408px; height: 417px; margin-right: 200px;""><img src=""images/choice_trial_15.png"" style=""width: 408px; height: 417px;""></div></div>",j,delaylearn,learning,trial,tyqy9h3b2xceYqUPIImTIZyZ5mF3,tyqy9h3b2xceYqUPIImTIZyZ5mF3,5.0,images/choice_trial_6.png,images/choice_trial_15.png,images/pattern_1.png,f,f,7000.0,6.0,15.0,1.0,0.0,28.0,0.0,0.0,15.0,160.0,,,,,,60cb358cae78471cdfa7a0a6,16:49:53,27/03/2024
html-keyboard-response,156,317693,0.0-65.0-1.0,,"<div style=""display: flex; flex-direction: column; align-items: center; margin-top: -40px;""><img src=""images/pattern_1.png"" style=""width: 234px; height: 230px; margin-top: -50px;""><div style=""display: flex; justify-content: space-between; margin-top: 33px;""><img src=""images/choice_trial_15.png"" style=""width: 408px; height: 417px; margin-left:608px;""></div></div>",,delaylearn,learning,display_response,tyqy9h3b2xceYqUPIImTIZyZ5mF3,tyqy9h3b2xceYqUPIImTIZyZ5mF3,,,,,,,,,,,,,,,,,chosen stimuli: images/choice_trial_15.png,,,,,60cb358cae78471cdfa7a0a6,16:49:53,27/03/2024
html-keyboard-response,157,324707,0.0-65.0-2.0,,,,delaylearn,learning,feedback_duration_window,tyqy9h3b2xceYqUPIImTIZyZ5mF3,tyqy9h3b2xceYqUPIImTIZyZ5mF3,,,,,,,,,,,,,,,,,,7000.0,,,,60cb358cae78471cdfa7a0a6,16:49:53,27/03/2024
html-keyboard-response,158,326222,0.0-65.0-3.0,,<div style='margin:auto;width: auto; font-size: 150%'><span style='font-weight: bold; font-size: 100px; color: red;'>0 points!</span><br><br></div>,,delaylearn,learning,feedback_image_window,tyqy9h3b2xceYqUPIImTIZyZ5mF3,tyqy9h3b2xceYqUPIImTIZyZ5mF3,,,,,,,,,,,,,,,,,,,,,,60cb358cae78471cdfa7a0a6,16:49:53,27/03/2024
html-keyboard-response,159,328688,0.0-66.0,,"<div style=""font-size:100px;"">+</div>",,delaylearn,learning,ITI,tyqy9h3b2xceYqUPIImTIZyZ5mF3,tyqy9h3b2xceYqUPIImTIZyZ5mF3,,,,,,,,,,,,,,,,,,,2457.0,,,60cb358cae78471cdfa7a0a6,16:49:53,27/03/2024
html-keyboard-response,160,330311,0.0-67.0-0.0,1617.7000000476837,"<div style=""display: flex; flex-direction: column; align-items: center; margin-top: -40px;""><img src=""images/pattern_5.png"" style=""width: 234px; height: 230px; margin-top: -50px;""><div style=""display: flex; justify-content: space-between; margin-top: 33px;""><img src=""images/choice_trial_7.png"" style=""width: 408px; height: 417px; margin-right: 200px;""><img src=""images/choice_trial_13.png"" style=""width: 408px; height: 417px;""></div></div>",j,delaylearn,learning,trial,tyqy9h3b2xceYqUPIImTIZyZ5mF3,tyqy9h3b2xceYqUPIImTIZyZ5mF3,5.0,images/choice_trial_7.png,images/choice_trial_13.png,images/pattern_5.png,f,f,750.0,7.0,13.0,4.0,0.0,29.0,0.0,0.0,13.0,160.0,,,,,,60cb358cae78471cdfa7a0a6,16:49:53,27/03/2024
html-keyboard-response,161,331326,0.0-67.0-1.0,,"<div style=""display: flex; flex-direction: column; align-items: center; margin-top: -40px;""><img src=""images/pattern_5.png"" style=""width: 234px; height: 230px; margin-top: -50px;""><div style=""display: flex; justify-content: space-between; margin-top: 33px;""><img src=""images/choice_trial_13.png"" style=""width: 408px; height: 417px; margin-left:608px;""></div></div>",,delaylearn,learning,display_response,tyqy9h3b2xceYqUPIImTIZyZ5mF3,tyqy9h3b2xceYqUPIImTIZyZ5mF3,,,,,,,,,,,,,,,,,chosen stimuli: images/choice_trial_13.png,,,,,60cb358cae78471cdfa7a0a6,16:49:53,27/03/2024
html-keyboard-response,162,332082,0.0-67.0-2.0,,,,delaylearn,learning,feedback_duration_window,tyqy9h3b2xceYqUPIImTIZyZ5mF3,tyqy9h3b2xceYqUPIImTIZyZ5mF3,,,,,,,,,,,,,,,,,,750.0,,,,60cb358cae78471cdfa7a0a6,16:49:53,27/03/2024
html-keyboard-response,163,333598,0.0-67.0-3.0,,<div style='margin:auto;width: auto; font-size: 150%'><span style='font-weight: bold; font-size: 100px; color: red;'>0 points!</span><br><br></div>,,delaylearn,learning,feedback_image_window,tyqy9h3b2xceYqUPIImTIZyZ5mF3,tyqy9h3b2xceYqUPIImTIZyZ5mF3,,,,,,,,,,,,,,,,,,,,,,60cb358cae78471cdfa7a0a6,16:49:53,27/03/2024
html-keyboard-response,164,335109,0.0-68.0,,"<div style=""font-size:100px;"">+</div>",,delaylearn,learning,ITI,tyqy9h3b2xceYqUPIImTIZyZ5mF3,tyqy9h3b2xceYqUPIImTIZyZ5mF3,,,,,,,,,,,,,,,,,,,1505.0,,,60cb358cae78471cdfa7a0a6,16:49:53,27/03/2024
html-keyboard-response,165,337213,0.0-69.0-0.0,2100.0,"<div style=""display: flex; flex-direction: column; align-items: center; margin-top: -40px;""><img src=""images/pattern_6.png"" style=""width: 234px; height: 230px; margin-top: -50px;""><div style=""display: flex; justify-content: space-between; margin-top: 33px;""><img src=""images/choice_trial_9.png"" style=""width: 408px; height: 417px; margin-right: 200px;""><img src=""images/choice_trial_14.png"" style=""width: 408px; height: 417px;""></div></div>",f,delaylearn,learning,trial,tyqy9h3b2xceYqUPIImTIZyZ5mF3,tyqy9h3b2xceYqUPIImTIZyZ5mF3,5.0,images/choice_trial_9.png,images/choice_trial_14.png,images/pattern_6.png,j,j,750.0,9.0,14.0,5.0,1.0,30.0,0.0,0.0,9.0,160.0,,,,,,60cb358cae78471cdfa7a0a6,16:49:53,27/03/2024
html-keyboard-response,166,338226,0.0-69.0-1.0,,"<div style=""display: flex; flex-direction: column; align-items: center; margin-top: -40px;""><img src=""images/pattern_6.png"" style=""width: 234px; height: 230px; margin-top: -50px;""><div style=""display: flex; justify-content: space-between; margin-top: 33px;""><img src=""images/choice_trial_9.png"" style=""width: 408px; height: 417px; margin-right: 608px;""></div></div>",,delaylearn,learning,display_response,tyqy9h3b2xceYqUPIImTIZyZ5mF3,tyqy9h3b2xceYqUPIImTIZyZ5mF3,,,,,,,,,,,,,,,,,chosen stimuli: images/choice_trial_9.png,,,,,60cb358cae78471cdfa7a0a6,16:49:53,27/03/2024
html-keyboard-response,167,338981,0.0-69.0-2.0,,,,delaylearn,learning,feedback_duration_window,tyqy9h3b2xceYqUPIImTIZyZ5mF3,tyqy9h3b2xceYqUPIImTIZyZ5mF3,,,,,,,,,,,,,,,,,,750.0,,,,60cb358cae78471cdfa7a0a6,16:49:53,27/03/2024
html-keyboard-response,168,340490,0.0-69.0-3.0,,<div style='margin:auto;width: auto; font-size: 150%'><span style='font-weight: bold; font-size: 100px; color: red;'>0 points!</span><br><br></div>,,delaylearn,learning,feedback_image_window,tyqy9h3b2xceYqUPIImTIZyZ5mF3,tyqy9h3b2xceYqUPIImTIZyZ5mF3,,,,,,,,,,,,,,,,,,,,,,60cb358cae78471cdfa7a0a6,16:49:53,27/03/2024
html-keyboard-response,169,341006,0.0-70.0-0.0,,,,,,mood_trial_fixation,tyqy9h3b2xceYqUPIImTIZyZ5mF3,,,,,,,,,,,,,,,,,,,,,,,60cb358cae78471cdfa7a0a6,16:49:53,27/03/2024
lmdlab-html-vas-response,170,345312,0.0-70.0-1.0,3288.0,How happy are you right now?,0.6265432098765432,delaylearn,learning,mood_trial,tyqy9h3b2xceYqUPIImTIZyZ5mF3,tyqy9h3b2xceYqUPIImTIZyZ5mF3,,,,,,,,,,,,,,,,,,,,"['Very unhappy', 'Very happy']",,60cb358cae78471cdfa7a0a6,16:49:53,27/03/2024
html-keyboard-response,171,346883,0.0-71.0,,"<div style=""font-size:100px;"">+</div>",,delaylearn,learning,ITI,tyqy9h3b2xceYqUPIImTIZyZ5mF3,tyqy9h3b2xceYqUPIImTIZyZ5mF3,,,,,,,,,,,,,,,,,,,1553.0,,,60cb358cae78471cdfa7a0a6,16:49:53,27/03/2024
html-keyboard-response,172,348028,0.0-72.0-0.0,1139.699999988079,"<div style=""display: flex; flex-direction: column; align-items: center; margin-top: -40px;""><img src=""images/pattern_4.png"" style=""width: 234px; height: 230px; margin-top: -50px;""><div style=""display: flex; justify-content: space-between; margin-top: 33px;""><img src=""images/choice_trial_4.png"" style=""width: 408px; height: 417px; margin-right: 200px;""><img src=""images/choice_trial_11.png"" style=""width: 408px; height: 417px;""></div></div>",j,delaylearn,learning,trial,tyqy9h3b2xceYqUPIImTIZyZ5mF3,tyqy9h3b2xceYqUPIImTIZyZ5mF3,5.0,images/choice_trial_4.png,images/choice_trial_11.png,images/pattern_4.png,j,j,7000.0,4.0,11.0,3.0,1.0,31.0,1.0,1.0,11.0,170.0,,,,,,60cb358cae78471cdfa7a0a6,16:49:53,27/03/2024
html-keyboard-response,173,349044,0.0-72.0-1.0,,"<div style=""display: flex; flex-direction: column; align-items: center; margin-top: -40px;""><img src=""images/pattern_4.png"" style=""width: 234px; height: 230px; margin-top: -50px;""><div style=""display: flex; justify-content: space-between; margin-top: 33px;""><img src=""images/choice_trial_11.png"" style=""width: 408px; height: 417px; margin-left:608px;""></div></div>",,delaylearn,learning,display_response,tyqy9h3b2xceYqUPIImTIZyZ5mF3,tyqy9h3b2xceYqUPIImTIZyZ5mF3,,,,,,,,,,,,,,,,,chosen stimuli: images/choice_trial_11.png,,,,,60cb358cae78471cdfa7a0a6,16:49:53,27/03/2024
html-keyboard-response,174,356059,0.0-72.0-2.0,,,,delaylearn,learning,feedback_duration_window,tyqy9h3b2xceYqUPIImTIZyZ5mF3,tyqy9h3b2xceYqUPIImTIZyZ5mF3,,,,,,,,,,,,,,,,,,7000.0,,,,60cb358cae78471cdfa7a0a6,16:49:53,27/03/2024
html-keyboard-response,175,357564,0.0-72.0-3.0,,<div style='margin:auto;width: auto; font-size: 150%'><span style='font-weight: bold; font-size: 100px; color: green;'>+10 points!</span><br><br></div>,,delaylearn,learning,feedback_image_window,tyqy9h3b2xceYqUPIImTIZyZ5mF3,tyqy9h3b2xceYqUPIImTIZyZ5mF3,,,,,,,,,,,,,,,,,,,,,,60cb358cae78471cdfa7a0a6,16:49:53,27/03/2024
html-keyboard-response,176,359668,0.0-73.0,,"<div style=""font-size:100px;"">+</div>",,delaylearn,learning,ITI,tyqy9h3b2xceYqUPIImTIZyZ5mF3,tyqy9h3b2xceYqUPIImTIZyZ5mF3,,,,,,,,,,,,,,,,,,,2098.0,,,60cb358cae78471cdfa7a0a6,16:49:53,27/03/2024
html-keyboard-response,177,361195,0.0-74.0-0.0,1521.1000000238419,"<div style=""display: flex; flex-direction: column; align-items: center; margin-top: -40px;""><img src=""images/pattern_3.png"" style=""width: 234px; height: 230px; margin-top: -50px;""><div style=""display: flex; justify-content: space-between; margin-top: 33px;""><img src=""images/choice_trial_2.png"" style=""width: 408px; height: 417px; margin-right: 200px;""><img src=""images/choice_trial_16.png"" style=""width: 408px; height: 417px;""></div></div>",j,delaylearn,learning,trial,tyqy9h3b2xceYqUPIImTIZyZ5mF3,tyqy9h3b2xceYqUPIImTIZyZ5mF3,5.0,images/choice_trial_2.png,images/choice_trial_16.png,images/pattern_3.png,j,j,7000.0,2.0,16.0,2.0,1.0,32.0,1.0,1.0,16.0,180.0,,,,,,60cb358cae78471cdfa7a0a6,16:49:53,27/03/2024
html-keyboard-response,178,362213,0.0-74.0-1.0,,"<div style=""display: flex; flex-direction: column; align-items: center; margin-top: -40px;""><img src=""images/pattern_3.png"" style=""width: 234px; height: 230px; margin-top: -50px;""><div style=""display: flex; justify-content: space-between; margin-top: 33px;""><img src=""images/choice_trial_16.png"" style=""width: 408px; height: 417px; margin-left:608px;""></div></div>",,delaylearn,learning,display_response,tyqy9h3b2xceYqUPIImTIZyZ5mF3,tyqy9h3b2xceYqUPIImTIZyZ5mF3,,,,,,,,,,,,,,,,,chosen stimuli: images/choice_trial_16.png,,,,,60cb358cae78471cdfa7a0a6,16:49:53,27/03/2024
html-keyboard-response,179,369215,0.0-74.0-2.0,,,,delaylearn,learning,feedback_duration_window,tyqy9h3b2xceYqUPIImTIZyZ5mF3,tyqy9h3b2xceYqUPIImTIZyZ5mF3,,,,,,,,,,,,,,,,,,7000.0,,,,60cb358cae78471cdfa7a0a6,16:49:53,27/03/2024
html-keyboard-response,180,370731,0.0-74.0-3.0,,<div style='margin:auto;width: auto; font-size: 150%'><span style='font-weight: bold; font-size: 100px; color: green;'>+10 points!</span><br><br></div>,,delaylearn,learning,feedback_image_window,tyqy9h3b2xceYqUPIImTIZyZ5mF3,tyqy9h3b2xceYqUPIImTIZyZ5mF3,,,,,,,,,,,,,,,,,,,,,,60cb358cae78471cdfa7a0a6,16:49:53,27/03/2024
html-keyboard-response,181,372517,0.0-75.0,,"<div style=""font-size:100px;"">+</div>",,delaylearn,learning,ITI,tyqy9h3b2xceYqUPIImTIZyZ5mF3,tyqy9h3b2xceYqUPIImTIZyZ5mF3,,,,,,,,,,,,,,,,,,,1780.0,,,60cb358cae78471cdfa7a0a6,16:49:53,27/03/2024
html-keyboard-response,182,373625,0.0-76.0-0.0,1100.9000000357628,"<div style=""display: flex; flex-direction: column; align-items: center; margin-top: -40px;""><img src=""images/pattern_5.png"" style=""width: 234px; height: 230px; margin-top: -50px;""><div style=""display: flex; justify-content: space-between; margin-top: 33px;""><img src=""images/choice_trial_7.png"" style=""width: 408px; height: 417px; margin-right: 200px;""><img src=""images/choice_trial_13.png"" style=""width: 408px; height: 417px;""></div></div>",f,delaylearn,learning,trial,tyqy9h3b2xceYqUPIImTIZyZ5mF3,tyqy9h3b2xceYqUPIImTIZyZ5mF3,5.0,images/choice_trial_7.png,images/choice_trial_13.png,images/pattern_5.png,j,f,750.0,7.0,13.0,4.0,0.0,33.0,1.0,0.0,7.0,180.0,,,,,,60cb358cae78471cdfa7a0a6,16:49:53,27/03/2024
html-keyboard-response,183,374637,0.0-76.0-1.0,,"<div style=""display: flex; flex-direction: column; align-items: center; margin-top: -40px;""><img src=""images/pattern_5.png"" style=""width: 234px; height: 230px; margin-top: -50px;""><div style=""display: flex; justify-content: space-between; margin-top: 33px;""><img src=""images/choice_trial_7.png"" style=""width: 408px; height: 417px; margin-right: 608px;""></div></div>",,delaylearn,learning,display_response,tyqy9h3b2xceYqUPIImTIZyZ5mF3,tyqy9h3b2xceYqUPIImTIZyZ5mF3,,,,,,,,,,,,,,,,,chosen stimuli: images/choice_trial_7.png,,,,,60cb358cae78471cdfa7a0a6,16:49:53,27/03/2024
html-keyboard-response,184,375390,0.0-76.0-2.0,,,,delaylearn,learning,feedback_duration_window,tyqy9h3b2xceYqUPIImTIZyZ5mF3,tyqy9h3b2xceYqUPIImTIZyZ5mF3,,,,,,,,,,,,,,,,,,750.0,,,,60cb358cae78471cdfa7a0a6,16:49:53,27/03/2024
html-keyboard-response,185,376896,0.0-76.0-3.0,,<div style='margin:auto;width: auto; font-size: 150%'><span style='font-weight: bold; font-size: 100px; color: red;'>0 points!</span><br><br></div>,,delaylearn,learning,feedback_image_window,tyqy9h3b2xceYqUPIImTIZyZ5mF3,tyqy9h3b2xceYqUPIImTIZyZ5mF3,,,,,,,,,,,,,,,,,,,,,,60cb358cae78471cdfa7a0a6,16:49:53,27/03/2024
html-keyboard-response,186,378848,0.0-77.0,,"<div style=""font-size:100px;"">+</div>",,delaylearn,learning,ITI,tyqy9h3b2xceYqUPIImTIZyZ5mF3,tyqy9h3b2xceYqUPIImTIZyZ5mF3,,,,,,,,,,,,,,,,,,,1938.0,,,60cb358cae78471cdfa7a0a6,16:49:53,27/03/2024
html-keyboard-response,187,380199,0.0-78.0-0.0,1346.300000011921,"<div style=""display: flex; flex-direction: column; align-items: center; margin-top: -40px;""><img src=""images/pattern_1.png"" style=""width: 234px; height: 230px; margin-top: -50px;""><div style=""display: flex; justify-content: space-between; margin-top: 33px;""><img src=""images/choice_trial_6.png"" style=""width: 408px; height: 417px; margin-right: 200px;""><img src=""images/choice_trial_15.png"" style=""width: 408px; height: 417px;""></div></div>",f,delaylearn,learning,trial,tyqy9h3b2xceYqUPIImTIZyZ5mF3,tyqy9h3b2xceYqUPIImTIZyZ5mF3,5.0,images/choice_trial_6.png,images/choice_trial_15.png,images/pattern_1.png,f,f,7000.0,6.0,15.0,1.0,0.0,34.0,1.0,1.0,6.0,190.0,,,,,,60cb358cae78471cdfa7a0a6,16:49:53,27/03/2024
html-keyboard-response,188,381217,0.0-78.0-1.0,,"<div style=""display: flex; flex-direction: column; align-items: center; margin-top: -40px;""><img src=""images/pattern_1.png"" style=""width: 234px; height: 230px; margin-top: -50px;""><div style=""display: flex; justify-content: space-between; margin-top: 33px;""><img src=""images/choice_trial_6.png"" style=""width: 408px; height: 417px; margin-right: 608px;""></div></div>",,delaylearn,learning,display_response,tyqy9h3b2xceYqUPIImTIZyZ5mF3,tyqy9h3b2xceYqUPIImTIZyZ5mF3,,,,,,,,,,,,,,,,,chosen stimuli: images/choice_trial_6.png,,,,,60cb358cae78471cdfa7a0a6,16:49:53,27/03/2024
html-keyboard-response,189,388223,0.0-78.0-2.0,,,,delaylearn,learning,feedback_duration_window,tyqy9h3b2xceYqUPIImTIZyZ5mF3,tyqy9h3b2xceYqUPIImTIZyZ5mF3,,,,,,,,,,,,,,,,,,7000.0,,,,60cb358cae78471cdfa7a0a6,16:49:53,27/03/2024
html-keyboard-response,190,389742,0.0-78.0-3.0,,<div style='margin:auto;width: auto; font-size: 150%'><span style='font-weight: bold; font-size: 100px; color: green;'>+10 points!</span><br><br></div>,,delaylearn,learning,feedback_image_window,tyqy9h3b2xceYqUPIImTIZyZ5mF3,tyqy9h3b2xceYqUPIImTIZyZ5mF3,,,,,,,,,,,,,,,,,,,,,,60cb358cae78471cdfa7a0a6,16:49:53,27/03/2024
html-keyboard-response,191,390255,0.0-79.0-0.0,,,,,,mood_trial_fixation,tyqy9h3b2xceYqUPIImTIZyZ5mF3,,,,,,,,,,,,,,,,,,,,,,,60cb358cae78471cdfa7a0a6,16:49:53,27/03/2024
lmdlab-html-vas-response,192,394864,0.0-79.0-1.0,3587.0,How happy are you right now?,0.6358024691358025,delaylearn,learning,mood_trial,tyqy9h3b2xceYqUPIImTIZyZ5mF3,tyqy9h3b2xceYqUPIImTIZyZ5mF3,,,,,,,,,,,,,,,,,,,,"['Very unhappy', 'Very happy']",,60cb358cae78471cdfa7a0a6,16:49:53,27/03/2024
html-keyboard-response,193,396726,0.0-80.0,,"<div style=""font-size:100px;"">+</div>",,delaylearn,learning,ITI,tyqy9h3b2xceYqUPIImTIZyZ5mF3,tyqy9h3b2xceYqUPIImTIZyZ5mF3,,,,,,,,,,,,,,,,,,,1853.0,,,60cb358cae78471cdfa7a0a6,16:49:53,27/03/2024
html-keyboard-response,194,397549,0.0-81.0-0.0,818.1999999880791,"<div style=""display: flex; flex-direction: column; align-items: center; margin-top: -40px;""><img src=""images/pattern_6.png"" style=""width: 234px; height: 230px; margin-top: -50px;""><div style=""display: flex; justify-content: space-between; margin-top: 33px;""><img src=""images/choice_trial_14.png"" style=""width: 408px; height: 417px; margin-right: 200px;""><img src=""images/choice_trial_9.png"" style=""width: 408px; height: 417px;""></div></div>",j,delaylearn,learning,trial,tyqy9h3b2xceYqUPIImTIZyZ5mF3,tyqy9h3b2xceYqUPIImTIZyZ5mF3,5.0,images/choice_trial_14.png,images/choice_trial_9.png,images/pattern_6.png,j,f,750.0,14.0,9.0,5.0,0.0,35.0,0.0,1.0,9.0,200.0,,,,,,60cb358cae78471cdfa7a0a6,16:49:53,27/03/2024
html-keyboard-response,195,398568,0.0-81.0-1.0,,"<div style=""display: flex; flex-direction: column; align-items: center; margin-top: -40px;""><img src=""images/pattern_6.png"" style=""width: 234px; height: 230px; margin-top: -50px;""><div style=""display: flex; justify-content: space-between; margin-top: 33px;""><img src=""images/choice_trial_9.png"" style=""width: 408px; height: 417px; margin-left:608px;""></div></div>",,delaylearn,learning,display_response,tyqy9h3b2xceYqUPIImTIZyZ5mF3,tyqy9h3b2xceYqUPIImTIZyZ5mF3,,,,,,,,,,,,,,,,,chosen stimuli: images/choice_trial_9.png,,,,,60cb358cae78471cdfa7a0a6,16:49:53,27/03/2024
html-keyboard-response,196,399323,0.0-81.0-2.0,,,,delaylearn,learning,feedback_duration_window,tyqy9h3b2xceYqUPIImTIZyZ5mF3,tyqy9h3b2xceYqUPIImTIZyZ5mF3,,,,,,,,,,,,,,,,,,750.0,,,,60cb358cae78471cdfa7a0a6,16:49:53,27/03/2024
html-keyboard-response,197,400838,0.0-81.0-3.0,,<div style='margin:auto;width: auto; font-size: 150%'><span style='font-weight: bold; font-size: 100px; color: green;'>+10 points!</span><br><br></div>,,delaylearn,learning,feedback_image_window,tyqy9h3b2xceYqUPIImTIZyZ5mF3,tyqy9h3b2xceYqUPIImTIZyZ5mF3,,,,,,,,,,,,,,,,,,,,,,60cb358cae78471cdfa7a0a6,16:49:53,27/03/2024
html-keyboard-response,198,402808,0.0-82.0,,"<div style=""font-size:100px;"">+</div>",,delaylearn,learning,ITI,tyqy9h3b2xceYqUPIImTIZyZ5mF3,tyqy9h3b2xceYqUPIImTIZyZ5mF3,,,,,,,,,,,,,,,,,,,1964.0,,,60cb358cae78471cdfa7a0a6,16:49:53,27/03/2024
html-keyboard-response,199,404773,0.0-83.0-0.0,1959.800000011921,"<div style=""display: flex; flex-direction: column; align-items: center; margin-top: -40px;""><img src=""images/pattern_3.png"" style=""width: 234px; height: 230px; margin-top: -50px;""><div style=""display: flex; justify-content: space-between; margin-top: 33px;""><img src=""images/choice_trial_2.png"" style=""width: 408px; height: 417px; margin-right: 200px;""><img src=""images/choice_trial_16.png"" style=""width: 408px; height: 417px;""></div></div>",j,delaylearn,learning,trial,tyqy9h3b2xceYqUPIImTIZyZ5mF3,tyqy9h3b2xceYqUPIImTIZyZ5mF3,5.0,images/choice_trial_2.png,images/choice_trial_16.png,images/pattern_3.png,j,j,7000.0,2.0,16.0,2.0,1.0,36.0,1.0,1.0,16.0,210.0,,,,,,60cb358cae78471cdfa7a0a6,16:49:53,27/03/2024
html-keyboard-response,200,405788,0.0-83.0-1.0,,"<div style=""display: flex; flex-direction: column; align-items: center; margin-top: -40px;""><img src=""images/pattern_3.png"" style=""width: 234px; height: 230px; margin-top: -50px;""><div style=""display: flex; justify-content: space-between; margin-top: 33px;""><img src=""images/choice_trial_16.png"" style=""width: 408px; height: 417px; margin-left:608px;""></div></div>",,delaylearn,learning,display_response,tyqy9h3b2xceYqUPIImTIZyZ5mF3,tyqy9h3b2xceYqUPIImTIZyZ5mF3,,,,,,,,,,,,,,,,,chosen stimuli: images/choice_trial_16.png,,,,,60cb358cae78471cdfa7a0a6,16:49:53,27/03/2024
html-keyboard-response,201,412799,0.0-83.0-2.0,,,,delaylearn,learning,feedback_duration_window,tyqy9h3b2xceYqUPIImTIZyZ5mF3,tyqy9h3b2xceYqUPIImTIZyZ5mF3,,,,,,,,,,,,,,,,,,7000.0,,,,60cb358cae78471cdfa7a0a6,16:49:53,27/03/2024
html-keyboard-response,202,414305,0.0-83.0-3.0,,<div style='margin:auto;width: auto; font-size: 150%'><span style='font-weight: bold; font-size: 100px; color: green;'>+10 points!</span><br><br></div>,,delaylearn,learning,feedback_image_window,tyqy9h3b2xceYqUPIImTIZyZ5mF3,tyqy9h3b2xceYqUPIImTIZyZ5mF3,,,,,,,,,,,,,,,,,,,,,,60cb358cae78471cdfa7a0a6,16:49:53,27/03/2024
html-keyboard-response,203,416424,0.0-84.0,,"<div style=""font-size:100px;"">+</div>",,delaylearn,learning,ITI,tyqy9h3b2xceYqUPIImTIZyZ5mF3,tyqy9h3b2xceYqUPIImTIZyZ5mF3,,,,,,,,,,,,,,,,,,,2113.0,,,60cb358cae78471cdfa7a0a6,16:49:53,27/03/2024
html-keyboard-response,204,417683,0.0-85.0-0.0,1253.4000000357628,"<div style=""display: flex; flex-direction: column; align-items: center; margin-top: -40px;""><img src=""images/pattern_4.png"" style=""width: 234px; height: 230px; margin-top: -50px;""><div style=""display: flex; justify-content: space-between; margin-top: 33px;""><img src=""images/choice_trial_4.png"" style=""width: 408px; height: 417px; margin-right: 200px;""><img src=""images/choice_trial_11.png"" style=""width: 408px; height: 417px;""></div></div>",j,delaylearn,learning,trial,tyqy9h3b2xceYqUPIImTIZyZ5mF3,tyqy9h3b2xceYqUPIImTIZyZ5mF3,5.0,images/choice_trial_4.png,images/choice_trial_11.png,images/pattern_4.png,f,j,7000.0,4.0,11.0,3.0,1.0,37.0,1.0,0.0,11.0,210.0,,,,,,60cb358cae78471cdfa7a0a6,16:49:53,27/03/2024
html-keyboard-response,205,418686,0.0-85.0-1.0,,"<div style=""display: flex; flex-direction: column; align-items: center; margin-top: -40px;""><img src=""images/pattern_4.png"" style=""width: 234px; height: 230px; margin-top: -50px;""><div style=""display: flex; justify-content: space-between; margin-top: 33px;""><img src=""images/choice_trial_11.png"" style=""width: 408px; height: 417px; margin-left:608px;""></div></div>",,delaylearn,learning,display_response,tyqy9h3b2xceYqUPIImTIZyZ5mF3,tyqy9h3b2xceYqUPIImTIZyZ5mF3,,,,,,,,,,,,,,,,,chosen stimuli: images/choice_trial_11.png,,,,,60cb358cae78471cdfa7a0a6,16:49:53,27/03/2024
html-keyboard-response,206,425703,0.0-85.0-2.0,,,,delaylearn,learning,feedback_duration_window,tyqy9h3b2xceYqUPIImTIZyZ5mF3,tyqy9h3b2xceYqUPIImTIZyZ5mF3,,,,,,,,,,,,,,,,,,7000.0,,,,60cb358cae78471cdfa7a0a6,16:49:53,27/03/2024
html-keyboard-response,207,427220,0.0-85.0-3.0,,<div style='margin:auto;width: auto; font-size: 150%'><span style='font-weight: bold; font-size: 100px; color: red;'>0 points!</span><br><br></div>,,delaylearn,learning,feedback_image_window,tyqy9h3b2xceYqUPIImTIZyZ5mF3,tyqy9h3b2xceYqUPIImTIZyZ5mF3,,,,,,,,,,,,,,,,,,,,,,60cb358cae78471cdfa7a0a6,16:49:53,27/03/2024
html-keyboard-response,208,428792,0.0-86.0,,"<div style=""font-size:100px;"">+</div>",,delaylearn,learning,ITI,tyqy9h3b2xceYqUPIImTIZyZ5mF3,tyqy9h3b2xceYqUPIImTIZyZ5mF3,,,,,,,,,,,,,,,,,,,1557.0,,,60cb358cae78471cdfa7a0a6,16:49:53,27/03/2024
html-keyboard-response,209,430177,0.0-87.0-0.0,1380.199999988079,"<div style=""display: flex; flex-direction: column; align-items: center; margin-top: -40px;""><img src=""images/pattern_7.png"" style=""width: 234px; height: 230px; margin-top: -50px;""><div style=""display: flex; justify-content: space-between; margin-top: 33px;""><img src=""images/choice_trial_8.png"" style=""width: 408px; height: 417px; margin-right: 200px;""><img src=""images/choice_trial_10.png"" style=""width: 408px; height: 417px;""></div></div>",j,delaylearn,learning,trial,tyqy9h3b2xceYqUPIImTIZyZ5mF3,tyqy9h3b2xceYqUPIImTIZyZ5mF3,5.0,images/choice_trial_8.png,images/choice_trial_10.png,images/pattern_7.png,f,f,750.0,8.0,10.0,6.0,0.0,38.0,0.0,0.0,10.0,210.0,,,,,,60cb358cae78471cdfa7a0a6,16:49:53,27/03/2024
html-keyboard-response,210,431193,0.0-87.0-1.0,,"<div style=""display: flex; flex-direction: column; align-items: center; margin-top: -40px;""><img src=""images/pattern_7.png"" style=""width: 234px; height: 230px; margin-top: -50px;""><div style=""display: flex; justify-content: space-between; margin-top: 33px;""><img src=""images/choice_trial_10.png"" style=""width: 408px; height: 417px; margin-left:608px;""></div></div>",,delaylearn,learning,display_response,tyqy9h3b2xceYqUPIImTIZyZ5mF3,tyqy9h3b2xceYqUPIImTIZyZ5mF3,,,,,,,,,,,,,,,,,chosen stimuli: images/choice_trial_10.png,,,,,60cb358cae78471cdfa7a0a6,16:49:53,27/03/2024
html-keyboard-response,211,431951,0.0-87.0-2.0,,,,delaylearn,learning,feedback_duration_window,tyqy9h3b2xceYqUPIImTIZyZ5mF3,tyqy9h3b2xceYqUPIImTIZyZ5mF3,,,,,,,,,,,,,,,,,,750.0,,,,60cb358cae78471cdfa7a0a6,16:49:53,27/03/2024
html-keyboard-response,212,433466,0.0-87.0-3.0,,<div style='margin:auto;width: auto; font-size: 150%'><span style='font-weight: bold; font-size: 100px; color: red;'>0 points!</span><br><br></div>,,delaylearn,learning,feedback_image_window,tyqy9h3b2xceYqUPIImTIZyZ5mF3,tyqy9h3b2xceYqUPIImTIZyZ5mF3,,,,,,,,,,,,,,,,,,,,,,60cb358cae78471cdfa7a0a6,16:49:53,27/03/2024
html-keyboard-response,213,435952,0.0-88.0,,"<div style=""font-size:100px;"">+</div>",,delaylearn,learning,ITI,tyqy9h3b2xceYqUPIImTIZyZ5mF3,tyqy9h3b2xceYqUPIImTIZyZ5mF3,,,,,,,,,,,,,,,,,,,2481.0,,,60cb358cae78471cdfa7a0a6,16:49:53,27/03/2024
html-keyboard-response,214,436960,0.0-89.0-0.0,1002.6999999880791,"<div style=""display: flex; flex-direction: column; align-items: center; margin-top: -40px;""><img src=""images/pattern_1.png"" style=""width: 234px; height: 230px; margin-top: -50px;""><div style=""display: flex; justify-content: space-between; margin-top: 33px;""><img src=""images/choice_trial_6.png"" style=""width: 408px; height: 417px; margin-right: 200px;""><img src=""images/choice_trial_15.png"" style=""width: 408px; height: 417px;""></div></div>",j,delaylearn,learning,trial,tyqy9h3b2xceYqUPIImTIZyZ5mF3,tyqy9h3b2xceYqUPIImTIZyZ5mF3,5.0,images/choice_trial_6.png,images/choice_trial_15.png,images/pattern_1.png,f,f,7000.0,6.0,15.0,1.0,0.0,39.0,0.0,0.0,15.0,210.0,,,,,,60cb358cae78471cdfa7a0a6,16:49:53,27/03/2024
html-keyboard-response,215,437963,0.0-89.0-1.0,,"<div style=""display: flex; flex-direction: column; align-items: center; margin-top: -40px;""><img src=""images/pattern_1.png"" style=""width: 234px; height: 230px; margin-top: -50px;""><div style=""display: flex; justify-content: space-between; margin-top: 33px;""><img src=""images/choice_trial_15.png"" style=""width: 408px; height: 417px; margin-left:608px;""></div></div>",,delaylearn,learning,display_response,tyqy9h3b2xceYqUPIImTIZyZ5mF3,tyqy9h3b2xceYqUPIImTIZyZ5mF3,,,,,,,,,,,,,,,,,chosen stimuli: images/choice_trial_15.png,,,,,60cb358cae78471cdfa7a0a6,16:49:53,27/03/2024
html-keyboard-response,216,444977,0.0-89.0-2.0,,,,delaylearn,learning,feedback_duration_window,tyqy9h3b2xceYqUPIImTIZyZ5mF3,tyqy9h3b2xceYqUPIImTIZyZ5mF3,,,,,,,,,,,,,,,,,,7000.0,,,,60cb358cae78471cdfa7a0a6,16:49:53,27/03/2024
html-keyboard-response,217,446482,0.0-89.0-3.0,,<div style='margin:auto;width: auto; font-size: 150%'><span style='font-weight: bold; font-size: 100px; color: red;'>0 points!</span><br><br></div>,,delaylearn,learning,feedback_image_window,tyqy9h3b2xceYqUPIImTIZyZ5mF3,tyqy9h3b2xceYqUPIImTIZyZ5mF3,,,,,,,,,,,,,,,,,,,,,,60cb358cae78471cdfa7a0a6,16:49:53,27/03/2024
html-keyboard-response,218,446987,0.0-90.0-0.0,,,,,,mood_trial_fixation,tyqy9h3b2xceYqUPIImTIZyZ5mF3,,,,,,,,,,,,,,,,,,,,,,,60cb358cae78471cdfa7a0a6,16:49:53,27/03/2024
lmdlab-html-vas-response,219,451337,0.0-90.0-1.0,3332.0,How happy are you right now?,0.6527777777777778,delaylearn,learning,mood_trial,tyqy9h3b2xceYqUPIImTIZyZ5mF3,tyqy9h3b2xceYqUPIImTIZyZ5mF3,,,,,,,,,,,,,,,,,,,,"['Very unhappy', 'Very happy']",,60cb358cae78471cdfa7a0a6,16:49:53,27/03/2024
html-keyboard-response,220,453532,0.0-91.0,,"<div style=""font-size:100px;"">+</div>",,delaylearn,learning,ITI,tyqy9h3b2xceYqUPIImTIZyZ5mF3,tyqy9h3b2xceYqUPIImTIZyZ5mF3,,,,,,,,,,,,,,,,,,,2186.0,,,60cb358cae78471cdfa7a0a6,16:49:53,27/03/2024
html-keyboard-response,221,454870,0.0-92.0-0.0,1332.4000000357628,"<div style=""display: flex; flex-direction: column; align-items: center; margin-top: -40px;""><img src=""images/pattern_3.png"" style=""width: 234px; height: 230px; margin-top: -50px;""><div style=""display: flex; justify-content: space-between; margin-top: 33px;""><img src=""images/choice_trial_16.png"" style=""width: 408px; height: 417px; margin-right: 200px;""><img src=""images/choice_trial_2.png"" style=""width: 408px; height: 417px;""></div></div>",f,delaylearn,learning,trial,tyqy9h3b2xceYqUPIImTIZyZ5mF3,tyqy9h3b2xceYqUPIImTIZyZ5mF3,5.0,images/choice_trial_16.png,images/choice_trial_2.png,images/pattern_3.png,j,f,7000.0,16.0,2.0,2.0,0.0,40.0,1.0,0.0,16.0,210.0,,,,,,60cb358cae78471cdfa7a0a6,16:49:53,27/03/2024
html-keyboard-response,222,455881,0.0-92.0-1.0,,"<div style=""display: flex; flex-direction: column; align-items: center; margin-top: -40px;""><img src=""images/pattern_3.png"" style=""width: 234px; height: 230px; margin-top: -50px;""><div style=""display: flex; justify-content: space-between; margin-top: 33px;""><img src=""images/choice_trial_16.png"" style=""width: 408px; height: 417px; margin-right: 608px;""></div></div>",,delaylearn,learning,display_response,tyqy9h3b2xceYqUPIImTIZyZ5mF3,tyqy9h3b2xceYqUPIImTIZyZ5mF3,,,,,,,,,,,,,,,,,chosen stimuli: images/choice_trial_16.png,,,,,60cb358cae78471cdfa7a0a6,16:49:53,27/03/2024
html-keyboard-response,223,462885,0.0-92.0-2.0,,,,delaylearn,learning,feedback_duration_window,tyqy9h3b2xceYqUPIImTIZyZ5mF3,tyqy9h3b2xceYqUPIImTIZyZ5mF3,,,,,,,,,,,,,,,,,,7000.0,,,,60cb358cae78471cdfa7a0a6,16:49:53,27/03/2024
html-keyboard-response,224,464403,0.0-92.0-3.0,,<div style='margin:auto;width: auto; font-size: 150%'><span style='font-weight: bold; font-size: 100px; color: red;'>0 points!</span><br><br></div>,,delaylearn,learning,feedback_image_window,tyqy9h3b2xceYqUPIImTIZyZ5mF3,tyqy9h3b2xceYqUPIImTIZyZ5mF3,,,,,,,,,,,,,,,,,,,,,,60cb358cae78471cdfa7a0a6,16:49:53,27/03/2024
html-keyboard-response,225,466497,0.0-93.0,,"<div style=""font-size:100px;"">+</div>",,delaylearn,learning,ITI,tyqy9h3b2xceYqUPIImTIZyZ5mF3,tyqy9h3b2xceYqUPIImTIZyZ5mF3,,,,,,,,,,,,,,,,,,,2082.0,,,60cb358cae78471cdfa7a0a6,16:49:53,27/03/2024
html-keyboard-response,226,467340,0.0-94.0-0.0,837.6999999880791,"<div style=""display: flex; flex-direction: column; align-items: center; margin-top: -40px;""><img src=""images/pattern_7.png"" style=""width: 234px; height: 230px; margin-top: -50px;""><div style=""display: flex; justify-content: space-between; margin-top: 33px;""><img src=""images/choice_trial_10.png"" style=""width: 408px; height: 417px; margin-right: 200px;""><img src=""images/choice_trial_8.png"" style=""width: 408px; height: 417px;""></div></div>",j,delaylearn,learning,trial,tyqy9h3b2xceYqUPIImTIZyZ5mF3,tyqy9h3b2xceYqUPIImTIZyZ5mF3,5.0,images/choice_trial_10.png,images/choice_trial_8.png,images/pattern_7.png,j,j,750.0,10.0,8.0,6.0,1.0,41.0,1.0,1.0,8.0,220.0,,,,,,60cb358cae78471cdfa7a0a6,16:49:53,27/03/2024
html-keyboard-response,227,468358,0.0-94.0-1.0,,"<div style=""display: flex; flex-direction: column; align-items: center; margin-top: -40px;""><img src=""images/pattern_7.png"" style=""width: 234px; height: 230px; margin-top: -50px;""><div style=""display: flex; justify-content: space-between; margin-top: 33px;""><img src=""images/choice_trial_8.png"" style=""width: 408px; height: 417px; margin-left:608px;""></div></div>",,delaylearn,learning,display_response,tyqy9h3b2xceYqUPIImTIZyZ5mF3,tyqy9h3b2xceYqUPIImTIZyZ5mF3,,,,,,,,,,,,,,,,,chosen stimuli: images/choice_trial_8.png,,,,,60cb358cae78471cdfa7a0a6,16:49:53,27/03/2024
html-keyboard-response,228,469115,0.0-94.0-2.0,,,,delaylearn,learning,feedback_duration_window,tyqy9h3b2xceYqUPIImTIZyZ5mF3,tyqy9h3b2xceYqUPIImTIZyZ5mF3,,,,,,,,,,,,,,,,,,750.0,,,,60cb358cae78471cdfa7a0a6,16:49:53,27/03/2024
html-keyboard-response,229,470621,0.0-94.0-3.0,,<div style='margin:auto;width: auto; font-size: 150%'><span style='font-weight: bold; font-size: 100px; color: green;'>+10 points!</span><br><br></div>,,delaylearn,learning,feedback_image_window,tyqy9h3b2xceYqUPIImTIZyZ5mF3,tyqy9h3b2xceYqUPIImTIZyZ5mF3,,,,,,,,,,,,,,,,,,,,,,60cb358cae78471cdfa7a0a6,16:49:53,27/03/2024
html-keyboard-response,230,472231,0.0-95.0,,"<div style=""font-size:100px;"">+</div>",,delaylearn,learning,ITI,tyqy9h3b2xceYqUPIImTIZyZ5mF3,tyqy9h3b2xceYqUPIImTIZyZ5mF3,,,,,,,,,,,,,,,,,,,1598.0,,,60cb358cae78471cdfa7a0a6,16:49:53,27/03/2024
