trial_type,trial_index,time_elapsed,internal_node_id,rt,stimulus,response,exp_name,exp_stage,test_part,subjectID,databaseID,counterbal,choice_stimuli_1,choice_stimuli_2,pattern_stimuli,rewarded_answer,correct_answer,feedback_duration_times,stim_left,stim_right,pair,leftright_counter,trial,response_correct,response_rewarded,chosen_stim,counter,displayed_choice,feedback_durations,ITI_duration,labels,rest_warning,prolificID,start_time,date
pavlovia,0,455,0.0-0.0,,,,,,,TZbuBvRpS9S403z5S6IxCWxW0Ja2,,,,,,,,,,,,,,,,,,,,,,,5c4765349afd7b000196f770,16:29:54,27/03/2024
html-keyboard-response,1,3464,0.0-1.0,,"<div style=""font-size:100px;"">+</div>",,delaylearn,learning,pre_fixation,TZbuBvRpS9S403z5S6IxCWxW0Ja2,,,,,,,,,,,,,,,,,,,,,,,5c4765349afd7b000196f770,16:29:54,27/03/2024
html-keyboard-response,2,4623,0.0-2.0-0.0,1157.5,"<div style=""display: flex; flex-direction: column; align-items: center; margin-top: -40px;""><img src=""images/demo_images/pattern_1.png"" style=""width: 234px; height: 230px; margin-top: -50px;""><div style=""display: flex; justify-content: space-between; margin-top: 33px;""><img src=""images/demo_images/choice_trial_2.png"" style=""width: 408px; height: 417px; margin-right: 200px;""><img src=""images/demo_images/choice_trial_1.png"" style=""width: 408px; height: 417px;""></div></div>",j,delaylearn,learning,trial,TZbuBvRpS9S403z5S6IxCWxW0Ja2,TZbuBvRpS9S403z5S6IxCWxW0Ja2,4.0,images/demo_images/choice_trial_2.png,images/demo_images/choice_trial_1.png,images/demo_images/pattern_1.png,j,j,3000.0,2.0,1.0,20.0,1.0,1.0,1.0,1.0,1.0,10.0,,,,,,5c4765349afd7b000196f770,16:29:54,27/03/2024
html-keyboard-response,3,5633,0.0-2.0-1.0,,"<div style=""display: flex; flex-direction: column; align-items: center; margin-top: -40px;""><img src=""images/demo_images/pattern_1.png"" style=""width: 234px; height: 230px; margin-top: -50px;""><div style=""display: flex; justify-content: space-between; margin-top: 33px;""><img src=""images/demo_images/choice_trial_1.png"" style=""width: 408px; height: 417px; margin-left:608px;""></div></div>",,delaylearn,learning,display_response,TZbuBvRpS9S403z5S6IxCWxW0Ja2,TZbuBvRpS9S403z5S6IxCWxW0Ja2,,,,,,,,,,,,,,,,,chosen stimuli: images/demo_images/choice_trial_1.png,,,,,5c4765349afd7b000196f770,16:29:54,27/03/2024
html-keyboard-response,4,8645,0.0-2.0-2.0,,,,delaylearn,learning,feedback_duration_window,TZbuBvRpS9S403z5S6IxCWxW0Ja2,TZbuBvRpS9S403z5S6IxCWxW0Ja2,,,,,,,,,,,,,,,,,,3000.0,,,,5c4765349afd7b000196f770,16:29:54,27/03/2024
html-keyboard-response,5,10150,0.0-2.0-3.0,,<div style='margin:auto;width: auto; font-size: 150%'><span style='font-weight: bold; font-size: 100px; color: green;'>+10 points!</span><br><br></div>,,delaylearn,learning,feedback_image_window,TZbuBvRpS9S403z5S6IxCWxW0Ja2,TZbuBvRpS9S403z5S6IxCWxW0Ja2,,,,,,,,,,,,,,,,,,,,,,5c4765349afd7b000196f770,16:29:54,27/03/2024
html-keyboard-response,6,12148,0.0-3.0,,"<div style=""font-size:100px;"">+</div>",,delaylearn,learning,ITI,TZbuBvRpS9S403z5S6IxCWxW0Ja2,TZbuBvRpS9S403z5S6IxCWxW0Ja2,,,,,,,,,,,,,,,,,,,1989.0,,,5c4765349afd7b000196f770,16:29:54,27/03/2024
html-keyboard-response,7,12891,0.0-4.0-0.0,738.4000000953674,"<div style=""display: flex; flex-direction: column; align-items: center; margin-top: -40px;""><img src=""images/demo_images/pattern_1.png"" style=""width: 234px; height: 230px; margin-top: -50px;""><div style=""display: flex; justify-content: space-between; margin-top: 33px;""><img src=""images/demo_images/choice_trial_2.png"" style=""width: 408px; height: 417px; margin-right: 200px;""><img src=""images/demo_images/choice_trial_1.png"" style=""width: 408px; height: 417px;""></div></div>",j,delaylearn,learning,trial,TZbuBvRpS9S403z5S6IxCWxW0Ja2,TZbuBvRpS9S403z5S6IxCWxW0Ja2,4.0,images/demo_images/choice_trial_2.png,images/demo_images/choice_trial_1.png,images/demo_images/pattern_1.png,j,j,3000.0,2.0,1.0,20.0,1.0,2.0,1.0,1.0,1.0,20.0,,,,,,5c4765349afd7b000196f770,16:29:54,27/03/2024
html-keyboard-response,8,13901,0.0-4.0-1.0,,"<div style=""display: flex; flex-direction: column; align-items: center; margin-top: -40px;""><img src=""images/demo_images/pattern_1.png"" style=""width: 234px; height: 230px; margin-top: -50px;""><div style=""display: flex; justify-content: space-between; margin-top: 33px;""><img src=""images/demo_images/choice_trial_1.png"" style=""width: 408px; height: 417px; margin-left:608px;""></div></div>",,delaylearn,learning,display_response,TZbuBvRpS9S403z5S6IxCWxW0Ja2,TZbuBvRpS9S403z5S6IxCWxW0Ja2,,,,,,,,,,,,,,,,,chosen stimuli: images/demo_images/choice_trial_1.png,,,,,5c4765349afd7b000196f770,16:29:54,27/03/2024
html-keyboard-response,9,16916,0.0-4.0-2.0,,,,delaylearn,learning,feedback_duration_window,TZbuBvRpS9S403z5S6IxCWxW0Ja2,TZbuBvRpS9S403z5S6IxCWxW0Ja2,,,,,,,,,,,,,,,,,,3000.0,,,,5c4765349afd7b000196f770,16:29:54,27/03/2024
html-keyboard-response,10,18420,0.0-4.0-3.0,,<div style='margin:auto;width: auto; font-size: 150%'><span style='font-weight: bold; font-size: 100px; color: green;'>+10 points!</span><br><br></div>,,delaylearn,learning,feedback_image_window,TZbuBvRpS9S403z5S6IxCWxW0Ja2,TZbuBvRpS9S403z5S6IxCWxW0Ja2,,,,,,,,,,,,,,,,,,,,,,5c4765349afd7b000196f770,16:29:54,27/03/2024
html-keyboard-response,11,20503,0.0-5.0,,"<div style=""font-size:100px;"">+</div>",,delaylearn,learning,ITI,TZbuBvRpS9S403z5S6IxCWxW0Ja2,TZbuBvRpS9S403z5S6IxCWxW0Ja2,,,,,,,,,,,,,,,,,,,2075.0,,,5c4765349afd7b000196f770,16:29:54,27/03/2024
html-keyboard-response,12,21382,0.0-6.0-0.0,876.2999999523163,"<div style=""display: flex; flex-direction: column; align-items: center; margin-top: -40px;""><img src=""images/demo_images/pattern_1.png"" style=""width: 234px; height: 230px; margin-top: -50px;""><div style=""display: flex; justify-content: space-between; margin-top: 33px;""><img src=""images/demo_images/choice_trial_1.png"" style=""width: 408px; height: 417px; margin-right: 200px;""><img src=""images/demo_images/choice_trial_2.png"" style=""width: 408px; height: 417px;""></div></div>",f,delaylearn,learning,trial,TZbuBvRpS9S403z5S6IxCWxW0Ja2,TZbuBvRpS9S403z5S6IxCWxW0Ja2,4.0,images/demo_images/choice_trial_1.png,images/demo_images/choice_trial_2.png,images/demo_images/pattern_1.png,j,f,3000.0,1.0,2.0,20.0,0.0,3.0,1.0,0.0,1.0,20.0,,,,,,5c4765349afd7b000196f770,16:29:54,27/03/2024
html-keyboard-response,13,22400,0.0-6.0-1.0,,"<div style=""display: flex; flex-direction: column; align-items: center; margin-top: -40px;""><img src=""images/demo_images/pattern_1.png"" style=""width: 234px; height: 230px; margin-top: -50px;""><div style=""display: flex; justify-content: space-between; margin-top: 33px;""><img src=""images/demo_images/choice_trial_1.png"" style=""width: 408px; height: 417px; margin-right: 608px;""></div></div>",,delaylearn,learning,display_response,TZbuBvRpS9S403z5S6IxCWxW0Ja2,TZbuBvRpS9S403z5S6IxCWxW0Ja2,,,,,,,,,,,,,,,,,chosen stimuli: images/demo_images/choice_trial_1.png,,,,,5c4765349afd7b000196f770,16:29:54,27/03/2024
html-keyboard-response,14,25411,0.0-6.0-2.0,,,,delaylearn,learning,feedback_duration_window,TZbuBvRpS9S403z5S6IxCWxW0Ja2,TZbuBvRpS9S403z5S6IxCWxW0Ja2,,,,,,,,,,,,,,,,,,3000.0,,,,5c4765349afd7b000196f770,16:29:54,27/03/2024
html-keyboard-response,15,26916,0.0-6.0-3.0,,<div style='margin:auto;width: auto; font-size: 150%'><span style='font-weight: bold; font-size: 100px; color: red;'>0 points!</span><br><br></div>,,delaylearn,learning,feedback_image_window,TZbuBvRpS9S403z5S6IxCWxW0Ja2,TZbuBvRpS9S403z5S6IxCWxW0Ja2,,,,,,,,,,,,,,,,,,,,,,5c4765349afd7b000196f770,16:29:54,27/03/2024
html-keyboard-response,16,29173,0.0-7.0,,"<div style=""font-size:100px;"">+</div>",,delaylearn,learning,ITI,TZbuBvRpS9S403z5S6IxCWxW0Ja2,TZbuBvRpS9S403z5S6IxCWxW0Ja2,,,,,,,,,,,,,,,,,,,2242.0,,,5c4765349afd7b000196f770,16:29:54,27/03/2024
html-keyboard-response,17,29826,0.0-8.0-0.0,649.7000000476837,"<div style=""display: flex; flex-direction: column; align-items: center; margin-top: -40px;""><img src=""images/demo_images/pattern_1.png"" style=""width: 234px; height: 230px; margin-top: -50px;""><div style=""display: flex; justify-content: space-between; margin-top: 33px;""><img src=""images/demo_images/choice_trial_1.png"" style=""width: 408px; height: 417px; margin-right: 200px;""><img src=""images/demo_images/choice_trial_2.png"" style=""width: 408px; height: 417px;""></div></div>",f,delaylearn,learning,trial,TZbuBvRpS9S403z5S6IxCWxW0Ja2,TZbuBvRpS9S403z5S6IxCWxW0Ja2,4.0,images/demo_images/choice_trial_1.png,images/demo_images/choice_trial_2.png,images/demo_images/pattern_1.png,f,f,3000.0,1.0,2.0,20.0,0.0,4.0,1.0,1.0,1.0,30.0,,,,,,5c4765349afd7b000196f770,16:29:54,27/03/2024
html-keyboard-response,18,30833,0.0-8.0-1.0,,"<div style=""display: flex; flex-direction: column; align-items: center; margin-top: -40px;""><img src=""images/demo_images/pattern_1.png"" style=""width: 234px; height: 230px; margin-top: -50px;""><div style=""display: flex; justify-content: space-between; margin-top: 33px;""><img src=""images/demo_images/choice_trial_1.png"" style=""width: 408px; height: 417px; margin-right: 608px;""></div></div>",,delaylearn,learning,display_response,TZbuBvRpS9S403z5S6IxCWxW0Ja2,TZbuBvRpS9S403z5S6IxCWxW0Ja2,,,,,,,,,,,,,,,,,chosen stimuli: images/demo_images/choice_trial_1.png,,,,,5c4765349afd7b000196f770,16:29:54,27/03/2024
html-keyboard-response,19,33847,0.0-8.0-2.0,,,,delaylearn,learning,feedback_duration_window,TZbuBvRpS9S403z5S6IxCWxW0Ja2,TZbuBvRpS9S403z5S6IxCWxW0Ja2,,,,,,,,,,,,,,,,,,3000.0,,,,5c4765349afd7b000196f770,16:29:54,27/03/2024
html-keyboard-response,20,35351,0.0-8.0-3.0,,<div style='margin:auto;width: auto; font-size: 150%'><span style='font-weight: bold; font-size: 100px; color: green;'>+10 points!</span><br><br></div>,,delaylearn,learning,feedback_image_window,TZbuBvRpS9S403z5S6IxCWxW0Ja2,TZbuBvRpS9S403z5S6IxCWxW0Ja2,,,,,,,,,,,,,,,,,,,,,,5c4765349afd7b000196f770,16:29:54,27/03/2024
html-keyboard-response,21,35858,0.0-9.0-0.0,,,,,,mood_trial_fixation,TZbuBvRpS9S403z5S6IxCWxW0Ja2,,,,,,,,,,,,,,,,,,,,,,,5c4765349afd7b000196f770,16:29:54,27/03/2024
lmdlab-html-vas-response,22,43492,0.0-9.0-1.0,6612.0,How happy are you right now?,0.3668981063472235,delaylearn,learning,mood_trial,TZbuBvRpS9S403z5S6IxCWxW0Ja2,TZbuBvRpS9S403z5S6IxCWxW0Ja2,,,,,,,,,,,,,,,,,,,,"['Very unhappy', 'Very happy']",,5c4765349afd7b000196f770,16:29:54,27/03/2024
html-keyboard-response,23,45884,0.0-10.0,,"<div style=""font-size:100px;"">+</div>",,delaylearn,learning,ITI,TZbuBvRpS9S403z5S6IxCWxW0Ja2,TZbuBvRpS9S403z5S6IxCWxW0Ja2,,,,,,,,,,,,,,,,,,,2379.0,,,5c4765349afd7b000196f770,16:29:54,27/03/2024
html-keyboard-response,24,46618,0.0-11.0-0.0,730.5,"<div style=""display: flex; flex-direction: column; align-items: center; margin-top: -40px;""><img src=""images/demo_images/pattern_1.png"" style=""width: 234px; height: 230px; margin-top: -50px;""><div style=""display: flex; justify-content: space-between; margin-top: 33px;""><img src=""images/demo_images/choice_trial_2.png"" style=""width: 408px; height: 417px; margin-right: 200px;""><img src=""images/demo_images/choice_trial_1.png"" style=""width: 408px; height: 417px;""></div></div>",j,delaylearn,learning,trial,TZbuBvRpS9S403z5S6IxCWxW0Ja2,TZbuBvRpS9S403z5S6IxCWxW0Ja2,4.0,images/demo_images/choice_trial_2.png,images/demo_images/choice_trial_1.png,images/demo_images/pattern_1.png,j,j,3000.0,2.0,1.0,20.0,1.0,5.0,1.0,1.0,1.0,40.0,,,,,,5c4765349afd7b000196f770,16:29:54,27/03/2024
html-keyboard-response,25,47625,0.0-11.0-1.0,,"<div style=""display: flex; flex-direction: column; align-items: center; margin-top: -40px;""><img src=""images/demo_images/pattern_1.png"" style=""width: 234px; height: 230px; margin-top: -50px;""><div style=""display: flex; justify-content: space-between; margin-top: 33px;""><img src=""images/demo_images/choice_trial_1.png"" style=""width: 408px; height: 417px; margin-left:608px;""></div></div>",,delaylearn,learning,display_response,TZbuBvRpS9S403z5S6IxCWxW0Ja2,TZbuBvRpS9S403z5S6IxCWxW0Ja2,,,,,,,,,,,,,,,,,chosen stimuli: images/demo_images/choice_trial_1.png,,,,,5c4765349afd7b000196f770,16:29:54,27/03/2024
html-keyboard-response,26,50637,0.0-11.0-2.0,,,,delaylearn,learning,feedback_duration_window,TZbuBvRpS9S403z5S6IxCWxW0Ja2,TZbuBvRpS9S403z5S6IxCWxW0Ja2,,,,,,,,,,,,,,,,,,3000.0,,,,5c4765349afd7b000196f770,16:29:54,27/03/2024
html-keyboard-response,27,52144,0.0-11.0-3.0,,<div style='margin:auto;width: auto; font-size: 150%'><span style='font-weight: bold; font-size: 100px; color: green;'>+10 points!</span><br><br></div>,,delaylearn,learning,feedback_image_window,TZbuBvRpS9S403z5S6IxCWxW0Ja2,TZbuBvRpS9S403z5S6IxCWxW0Ja2,,,,,,,,,,,,,,,,,,,,,,5c4765349afd7b000196f770,16:29:54,27/03/2024
html-keyboard-response,28,54324,0.0-12.0,,"<div style=""font-size:100px;"">+</div>",,delaylearn,learning,ITI,TZbuBvRpS9S403z5S6IxCWxW0Ja2,TZbuBvRpS9S403z5S6IxCWxW0Ja2,,,,,,,,,,,,,,,,,,,2165.0,,,5c4765349afd7b000196f770,16:29:54,27/03/2024
html-keyboard-response,29,54972,0.0-13.0-0.0,644.5,"<div style=""display: flex; flex-direction: column; align-items: center; margin-top: -40px;""><img src=""images/demo_images/pattern_1.png"" style=""width: 234px; height: 230px; margin-top: -50px;""><div style=""display: flex; justify-content: space-between; margin-top: 33px;""><img src=""images/demo_images/choice_trial_1.png"" style=""width: 408px; height: 417px; margin-right: 200px;""><img src=""images/demo_images/choice_trial_2.png"" style=""width: 408px; height: 417px;""></div></div>",f,delaylearn,learning,trial,TZbuBvRpS9S403z5S6IxCWxW0Ja2,TZbuBvRpS9S403z5S6IxCWxW0Ja2,4.0,images/demo_images/choice_trial_1.png,images/demo_images/choice_trial_2.png,images/demo_images/pattern_1.png,f,f,3000.0,1.0,2.0,20.0,0.0,6.0,1.0,1.0,1.0,50.0,,,,,,5c4765349afd7b000196f770,16:29:54,27/03/2024
html-keyboard-response,30,55982,0.0-13.0-1.0,,"<div style=""display: flex; flex-direction: column; align-items: center; margin-top: -40px;""><img src=""images/demo_images/pattern_1.png"" style=""width: 234px; height: 230px; margin-top: -50px;""><div style=""display: flex; justify-content: space-between; margin-top: 33px;""><img src=""images/demo_images/choice_trial_1.png"" style=""width: 408px; height: 417px; margin-right: 608px;""></div></div>",,delaylearn,learning,display_response,TZbuBvRpS9S403z5S6IxCWxW0Ja2,TZbuBvRpS9S403z5S6IxCWxW0Ja2,,,,,,,,,,,,,,,,,chosen stimuli: images/demo_images/choice_trial_1.png,,,,,5c4765349afd7b000196f770,16:29:54,27/03/2024
html-keyboard-response,31,58995,0.0-13.0-2.0,,,,delaylearn,learning,feedback_duration_window,TZbuBvRpS9S403z5S6IxCWxW0Ja2,TZbuBvRpS9S403z5S6IxCWxW0Ja2,,,,,,,,,,,,,,,,,,3000.0,,,,5c4765349afd7b000196f770,16:29:54,27/03/2024
html-keyboard-response,32,60498,0.0-13.0-3.0,,<div style='margin:auto;width: auto; font-size: 150%'><span style='font-weight: bold; font-size: 100px; color: green;'>+10 points!</span><br><br></div>,,delaylearn,learning,feedback_image_window,TZbuBvRpS9S403z5S6IxCWxW0Ja2,TZbuBvRpS9S403z5S6IxCWxW0Ja2,,,,,,,,,,,,,,,,,,,,,,5c4765349afd7b000196f770,16:29:54,27/03/2024
html-keyboard-response,33,62345,0.0-14.0,,"<div style=""font-size:100px;"">+</div>",,delaylearn,learning,ITI,TZbuBvRpS9S403z5S6IxCWxW0Ja2,TZbuBvRpS9S403z5S6IxCWxW0Ja2,,,,,,,,,,,,,,,,,,,1836.0,,,5c4765349afd7b000196f770,16:29:54,27/03/2024
html-keyboard-response,34,63413,0.0-15.0-0.0,1063.8999998569489,"<div style=""display: flex; flex-direction: column; align-items: center; margin-top: -40px;""><img src=""images/demo_images/pattern_1.png"" style=""width: 234px; height: 230px; margin-top: -50px;""><div style=""display: flex; justify-content: space-between; margin-top: 33px;""><img src=""images/demo_images/choice_trial_2.png"" style=""width: 408px; height: 417px; margin-right: 200px;""><img src=""images/demo_images/choice_trial_1.png"" style=""width: 408px; height: 417px;""></div></div>",j,delaylearn,learning,trial,TZbuBvRpS9S403z5S6IxCWxW0Ja2,TZbuBvRpS9S403z5S6IxCWxW0Ja2,4.0,images/demo_images/choice_trial_2.png,images/demo_images/choice_trial_1.png,images/demo_images/pattern_1.png,j,j,3000.0,2.0,1.0,20.0,1.0,7.0,1.0,1.0,1.0,60.0,,,,,,5c4765349afd7b000196f770,16:29:54,27/03/2024
html-keyboard-response,35,64424,0.0-15.0-1.0,,"<div style=""display: flex; flex-direction: column; align-items: center; margin-top: -40px;""><img src=""images/demo_images/pattern_1.png"" style=""width: 234px; height: 230px; margin-top: -50px;""><div style=""display: flex; justify-content: space-between; margin-top: 33px;""><img src=""images/demo_images/choice_trial_1.png"" style=""width: 408px; height: 417px; margin-left:608px;""></div></div>",,delaylearn,learning,display_response,TZbuBvRpS9S403z5S6IxCWxW0Ja2,TZbuBvRpS9S403z5S6IxCWxW0Ja2,,,,,,,,,,,,,,,,,chosen stimuli: images/demo_images/choice_trial_1.png,,,,,5c4765349afd7b000196f770,16:29:54,27/03/2024
html-keyboard-response,36,67429,0.0-15.0-2.0,,,,delaylearn,learning,feedback_duration_window,TZbuBvRpS9S403z5S6IxCWxW0Ja2,TZbuBvRpS9S403z5S6IxCWxW0Ja2,,,,,,,,,,,,,,,,,,3000.0,,,,5c4765349afd7b000196f770,16:29:54,27/03/2024
html-keyboard-response,37,68939,0.0-15.0-3.0,,<div style='margin:auto;width: auto; font-size: 150%'><span style='font-weight: bold; font-size: 100px; color: green;'>+10 points!</span><br><br></div>,,delaylearn,learning,feedback_image_window,TZbuBvRpS9S403z5S6IxCWxW0Ja2,TZbuBvRpS9S403z5S6IxCWxW0Ja2,,,,,,,,,,,,,,,,,,,,,,5c4765349afd7b000196f770,16:29:54,27/03/2024
html-keyboard-response,38,70495,0.0-16.0,,"<div style=""font-size:100px;"">+</div>",,delaylearn,learning,ITI,TZbuBvRpS9S403z5S6IxCWxW0Ja2,TZbuBvRpS9S403z5S6IxCWxW0Ja2,,,,,,,,,,,,,,,,,,,1548.0,,,5c4765349afd7b000196f770,16:29:54,27/03/2024
html-keyboard-response,39,71077,0.0-17.0-0.0,578.7999999523163,"<div style=""display: flex; flex-direction: column; align-items: center; margin-top: -40px;""><img src=""images/demo_images/pattern_1.png"" style=""width: 234px; height: 230px; margin-top: -50px;""><div style=""display: flex; justify-content: space-between; margin-top: 33px;""><img src=""images/demo_images/choice_trial_1.png"" style=""width: 408px; height: 417px; margin-right: 200px;""><img src=""images/demo_images/choice_trial_2.png"" style=""width: 408px; height: 417px;""></div></div>",f,delaylearn,learning,trial,TZbuBvRpS9S403z5S6IxCWxW0Ja2,TZbuBvRpS9S403z5S6IxCWxW0Ja2,4.0,images/demo_images/choice_trial_1.png,images/demo_images/choice_trial_2.png,images/demo_images/pattern_1.png,f,f,3000.0,1.0,2.0,20.0,0.0,8.0,1.0,1.0,1.0,70.0,,,,,,5c4765349afd7b000196f770,16:29:54,27/03/2024
html-keyboard-response,40,72094,0.0-17.0-1.0,,"<div style=""display: flex; flex-direction: column; align-items: center; margin-top: -40px;""><img src=""images/demo_images/pattern_1.png"" style=""width: 234px; height: 230px; margin-top: -50px;""><div style=""display: flex; justify-content: space-between; margin-top: 33px;""><img src=""images/demo_images/choice_trial_1.png"" style=""width: 408px; height: 417px; margin-right: 608px;""></div></div>",,delaylearn,learning,display_response,TZbuBvRpS9S403z5S6IxCWxW0Ja2,TZbuBvRpS9S403z5S6IxCWxW0Ja2,,,,,,,,,,,,,,,,,chosen stimuli: images/demo_images/choice_trial_1.png,,,,,5c4765349afd7b000196f770,16:29:54,27/03/2024
html-keyboard-response,41,75108,0.0-17.0-2.0,,,,delaylearn,learning,feedback_duration_window,TZbuBvRpS9S403z5S6IxCWxW0Ja2,TZbuBvRpS9S403z5S6IxCWxW0Ja2,,,,,,,,,,,,,,,,,,3000.0,,,,5c4765349afd7b000196f770,16:29:54,27/03/2024
html-keyboard-response,42,76611,0.0-17.0-3.0,,<div style='margin:auto;width: auto; font-size: 150%'><span style='font-weight: bold; font-size: 100px; color: green;'>+10 points!</span><br><br></div>,,delaylearn,learning,feedback_image_window,TZbuBvRpS9S403z5S6IxCWxW0Ja2,TZbuBvRpS9S403z5S6IxCWxW0Ja2,,,,,,,,,,,,,,,,,,,,,,5c4765349afd7b000196f770,16:29:54,27/03/2024
html-button-response,43,113889,0.0-18.0,37276.299999952316,"
  <div style=""display: flex; align-items: center; justify-content: center; height: 80vh;"">
  <div>
          <img src=""images/inst_demo_finish.png"" style=""width: 80vw; height:auto;"">
          <br><br>
      </div>
      <br><br>
  </div>",0,,,,TZbuBvRpS9S403z5S6IxCWxW0Ja2,,,,,,,,,,,,,,,,,,,,,,,5c4765349afd7b000196f770,16:29:54,27/03/2024
html-keyboard-response,44,116215,0.0-19.0,2324.699999809265,"
  <div style=""display: flex; align-items: center; justify-content: center; height: 80vh;"">
  <div>
          <img src=""images/inst_6.png"" style=""width: 80vw; height:auto;"">
          <br><br>
      </div>
      <br><br>
  </div>",j,,,,TZbuBvRpS9S403z5S6IxCWxW0Ja2,,,,,,,,,,,,,,,,,,,,,,,5c4765349afd7b000196f770,16:29:54,27/03/2024
html-keyboard-response,45,119230,0.0-20.0,,"<div style=""font-size:100px;"">+</div>",,delaylearn,learning,pre_fixation,TZbuBvRpS9S403z5S6IxCWxW0Ja2,,,,,,,,,,,,,,,,,,,,,,,5c4765349afd7b000196f770,16:29:54,27/03/2024
html-keyboard-response,46,121580,0.0-21.0,,"<div style=""font-size:100px;"">+</div>",,delaylearn,learning,ITI,TZbuBvRpS9S403z5S6IxCWxW0Ja2,TZbuBvRpS9S403z5S6IxCWxW0Ja2,,,,,,,,,,,,,,,,,,,2346.0,,,5c4765349afd7b000196f770,16:29:54,27/03/2024
html-keyboard-response,47,122377,0.0-22.0-0.0,793.2000000476837,"<div style=""display: flex; flex-direction: column; align-items: center; margin-top: -40px;""><img src=""images/pattern_3.png"" style=""width: 234px; height: 230px; margin-top: -50px;""><div style=""display: flex; justify-content: space-between; margin-top: 33px;""><img src=""images/choice_trial_16.png"" style=""width: 408px; height: 417px; margin-right: 200px;""><img src=""images/choice_trial_6.png"" style=""width: 408px; height: 417px;""></div></div>",f,delaylearn,learning,trial,TZbuBvRpS9S403z5S6IxCWxW0Ja2,TZbuBvRpS9S403z5S6IxCWxW0Ja2,4.0,images/choice_trial_16.png,images/choice_trial_6.png,images/pattern_3.png,f,f,7000.0,16.0,6.0,2.0,0.0,9.0,1.0,1.0,16.0,80.0,,,,,,5c4765349afd7b000196f770,16:29:54,27/03/2024
html-keyboard-response,48,123387,0.0-22.0-1.0,,"<div style=""display: flex; flex-direction: column; align-items: center; margin-top: -40px;""><img src=""images/pattern_3.png"" style=""width: 234px; height: 230px; margin-top: -50px;""><div style=""display: flex; justify-content: space-between; margin-top: 33px;""><img src=""images/choice_trial_16.png"" style=""width: 408px; height: 417px; margin-right: 608px;""></div></div>",,delaylearn,learning,display_response,TZbuBvRpS9S403z5S6IxCWxW0Ja2,TZbuBvRpS9S403z5S6IxCWxW0Ja2,,,,,,,,,,,,,,,,,chosen stimuli: images/choice_trial_16.png,,,,,5c4765349afd7b000196f770,16:29:54,27/03/2024
html-keyboard-response,49,130402,0.0-22.0-2.0,,,,delaylearn,learning,feedback_duration_window,TZbuBvRpS9S403z5S6IxCWxW0Ja2,TZbuBvRpS9S403z5S6IxCWxW0Ja2,,,,,,,,,,,,,,,,,,7000.0,,,,5c4765349afd7b000196f770,16:29:54,27/03/2024
html-keyboard-response,50,131917,0.0-22.0-3.0,,<div style='margin:auto;width: auto; font-size: 150%'><span style='font-weight: bold; font-size: 100px; color: green;'>+10 points!</span><br><br></div>,,delaylearn,learning,feedback_image_window,TZbuBvRpS9S403z5S6IxCWxW0Ja2,TZbuBvRpS9S403z5S6IxCWxW0Ja2,,,,,,,,,,,,,,,,,,,,,,5c4765349afd7b000196f770,16:29:54,27/03/2024
html-keyboard-response,51,134313,0.0-23.0,,"<div style=""font-size:100px;"">+</div>",,delaylearn,learning,ITI,TZbuBvRpS9S403z5S6IxCWxW0Ja2,TZbuBvRpS9S403z5S6IxCWxW0Ja2,,,,,,,,,,,,,,,,,,,2380.0,,,5c4765349afd7b000196f770,16:29:54,27/03/2024
html-keyboard-response,52,135518,0.0-24.0-0.0,1201.7000000476837,"<div style=""display: flex; flex-direction: column; align-items: center; margin-top: -40px;""><img src=""images/pattern_7.png"" style=""width: 234px; height: 230px; margin-top: -50px;""><div style=""display: flex; justify-content: space-between; margin-top: 33px;""><img src=""images/choice_trial_4.png"" style=""width: 408px; height: 417px; margin-right: 200px;""><img src=""images/choice_trial_13.png"" style=""width: 408px; height: 417px;""></div></div>",f,delaylearn,learning,trial,TZbuBvRpS9S403z5S6IxCWxW0Ja2,TZbuBvRpS9S403z5S6IxCWxW0Ja2,4.0,images/choice_trial_4.png,images/choice_trial_13.png,images/pattern_7.png,j,j,750.0,4.0,13.0,6.0,1.0,10.0,0.0,0.0,4.0,80.0,,,,,,5c4765349afd7b000196f770,16:29:54,27/03/2024
html-keyboard-response,53,136527,0.0-24.0-1.0,,"<div style=""display: flex; flex-direction: column; align-items: center; margin-top: -40px;""><img src=""images/pattern_7.png"" style=""width: 234px; height: 230px; margin-top: -50px;""><div style=""display: flex; justify-content: space-between; margin-top: 33px;""><img src=""images/choice_trial_4.png"" style=""width: 408px; height: 417px; margin-right: 608px;""></div></div>",,delaylearn,learning,display_response,TZbuBvRpS9S403z5S6IxCWxW0Ja2,TZbuBvRpS9S403z5S6IxCWxW0Ja2,,,,,,,,,,,,,,,,,chosen stimuli: images/choice_trial_4.png,,,,,5c4765349afd7b000196f770,16:29:54,27/03/2024
html-keyboard-response,54,137287,0.0-24.0-2.0,,,,delaylearn,learning,feedback_duration_window,TZbuBvRpS9S403z5S6IxCWxW0Ja2,TZbuBvRpS9S403z5S6IxCWxW0Ja2,,,,,,,,,,,,,,,,,,750.0,,,,5c4765349afd7b000196f770,16:29:54,27/03/2024
html-keyboard-response,55,138792,0.0-24.0-3.0,,<div style='margin:auto;width: auto; font-size: 150%'><span style='font-weight: bold; font-size: 100px; color: red;'>0 points!</span><br><br></div>,,delaylearn,learning,feedback_image_window,TZbuBvRpS9S403z5S6IxCWxW0Ja2,TZbuBvRpS9S403z5S6IxCWxW0Ja2,,,,,,,,,,,,,,,,,,,,,,5c4765349afd7b000196f770,16:29:54,27/03/2024
html-keyboard-response,56,140805,0.0-25.0,,"<div style=""font-size:100px;"">+</div>",,delaylearn,learning,ITI,TZbuBvRpS9S403z5S6IxCWxW0Ja2,TZbuBvRpS9S403z5S6IxCWxW0Ja2,,,,,,,,,,,,,,,,,,,2003.0,,,5c4765349afd7b000196f770,16:29:54,27/03/2024
html-keyboard-response,57,141699,0.0-26.0-0.0,890.7000000476837,"<div style=""display: flex; flex-direction: column; align-items: center; margin-top: -40px;""><img src=""images/pattern_4.png"" style=""width: 234px; height: 230px; margin-top: -50px;""><div style=""display: flex; justify-content: space-between; margin-top: 33px;""><img src=""images/choice_trial_8.png"" style=""width: 408px; height: 417px; margin-right: 200px;""><img src=""images/choice_trial_7.png"" style=""width: 408px; height: 417px;""></div></div>",f,delaylearn,learning,trial,TZbuBvRpS9S403z5S6IxCWxW0Ja2,TZbuBvRpS9S403z5S6IxCWxW0Ja2,4.0,images/choice_trial_8.png,images/choice_trial_7.png,images/pattern_4.png,f,f,7000.0,8.0,7.0,3.0,0.0,11.0,1.0,1.0,8.0,90.0,,,,,,5c4765349afd7b000196f770,16:29:54,27/03/2024
html-keyboard-response,58,142717,0.0-26.0-1.0,,"<div style=""display: flex; flex-direction: column; align-items: center; margin-top: -40px;""><img src=""images/pattern_4.png"" style=""width: 234px; height: 230px; margin-top: -50px;""><div style=""display: flex; justify-content: space-between; margin-top: 33px;""><img src=""images/choice_trial_8.png"" style=""width: 408px; height: 417px; margin-right: 608px;""></div></div>",,delaylearn,learning,display_response,TZbuBvRpS9S403z5S6IxCWxW0Ja2,TZbuBvRpS9S403z5S6IxCWxW0Ja2,,,,,,,,,,,,,,,,,chosen stimuli: images/choice_trial_8.png,,,,,5c4765349afd7b000196f770,16:29:54,27/03/2024
html-keyboard-response,59,149728,0.0-26.0-2.0,,,,delaylearn,learning,feedback_duration_window,TZbuBvRpS9S403z5S6IxCWxW0Ja2,TZbuBvRpS9S403z5S6IxCWxW0Ja2,,,,,,,,,,,,,,,,,,7000.0,,,,5c4765349afd7b000196f770,16:29:54,27/03/2024
html-keyboard-response,60,151234,0.0-26.0-3.0,,<div style='margin:auto;width: auto; font-size: 150%'><span style='font-weight: bold; font-size: 100px; color: green;'>+10 points!</span><br><br></div>,,delaylearn,learning,feedback_image_window,TZbuBvRpS9S403z5S6IxCWxW0Ja2,TZbuBvRpS9S403z5S6IxCWxW0Ja2,,,,,,,,,,,,,,,,,,,,,,5c4765349afd7b000196f770,16:29:54,27/03/2024
html-keyboard-response,61,153572,0.0-27.0,,"<div style=""font-size:100px;"">+</div>",,delaylearn,learning,ITI,TZbuBvRpS9S403z5S6IxCWxW0Ja2,TZbuBvRpS9S403z5S6IxCWxW0Ja2,,,,,,,,,,,,,,,,,,,2332.0,,,5c4765349afd7b000196f770,16:29:54,27/03/2024
html-keyboard-response,62,154699,0.0-28.0-0.0,1124.0999999046326,"<div style=""display: flex; flex-direction: column; align-items: center; margin-top: -40px;""><img src=""images/pattern_5.png"" style=""width: 234px; height: 230px; margin-top: -50px;""><div style=""display: flex; justify-content: space-between; margin-top: 33px;""><img src=""images/choice_trial_15.png"" style=""width: 408px; height: 417px; margin-right: 200px;""><img src=""images/choice_trial_5.png"" style=""width: 408px; height: 417px;""></div></div>",j,delaylearn,learning,trial,TZbuBvRpS9S403z5S6IxCWxW0Ja2,TZbuBvRpS9S403z5S6IxCWxW0Ja2,4.0,images/choice_trial_15.png,images/choice_trial_5.png,images/pattern_5.png,j,j,750.0,15.0,5.0,4.0,1.0,12.0,1.0,1.0,5.0,100.0,,,,,,5c4765349afd7b000196f770,16:29:54,27/03/2024
html-keyboard-response,63,155712,0.0-28.0-1.0,,"<div style=""display: flex; flex-direction: column; align-items: center; margin-top: -40px;""><img src=""images/pattern_5.png"" style=""width: 234px; height: 230px; margin-top: -50px;""><div style=""display: flex; justify-content: space-between; margin-top: 33px;""><img src=""images/choice_trial_5.png"" style=""width: 408px; height: 417px; margin-left:608px;""></div></div>",,delaylearn,learning,display_response,TZbuBvRpS9S403z5S6IxCWxW0Ja2,TZbuBvRpS9S403z5S6IxCWxW0Ja2,,,,,,,,,,,,,,,,,chosen stimuli: images/choice_trial_5.png,,,,,5c4765349afd7b000196f770,16:29:54,27/03/2024
html-keyboard-response,64,156464,0.0-28.0-2.0,,,,delaylearn,learning,feedback_duration_window,TZbuBvRpS9S403z5S6IxCWxW0Ja2,TZbuBvRpS9S403z5S6IxCWxW0Ja2,,,,,,,,,,,,,,,,,,750.0,,,,5c4765349afd7b000196f770,16:29:54,27/03/2024
html-keyboard-response,65,157978,0.0-28.0-3.0,,<div style='margin:auto;width: auto; font-size: 150%'><span style='font-weight: bold; font-size: 100px; color: green;'>+10 points!</span><br><br></div>,,delaylearn,learning,feedback_image_window,TZbuBvRpS9S403z5S6IxCWxW0Ja2,TZbuBvRpS9S403z5S6IxCWxW0Ja2,,,,,,,,,,,,,,,,,,,,,,5c4765349afd7b000196f770,16:29:54,27/03/2024
html-keyboard-response,66,160037,0.0-29.0,,"<div style=""font-size:100px;"">+</div>",,delaylearn,learning,ITI,TZbuBvRpS9S403z5S6IxCWxW0Ja2,TZbuBvRpS9S403z5S6IxCWxW0Ja2,,,,,,,,,,,,,,,,,,,2046.0,,,5c4765349afd7b000196f770,16:29:54,27/03/2024
html-keyboard-response,67,160934,0.0-30.0-0.0,893.4000000953674,"<div style=""display: flex; flex-direction: column; align-items: center; margin-top: -40px;""><img src=""images/pattern_6.png"" style=""width: 234px; height: 230px; margin-top: -50px;""><div style=""display: flex; justify-content: space-between; margin-top: 33px;""><img src=""images/choice_trial_10.png"" style=""width: 408px; height: 417px; margin-right: 200px;""><img src=""images/choice_trial_3.png"" style=""width: 408px; height: 417px;""></div></div>",f,delaylearn,learning,trial,TZbuBvRpS9S403z5S6IxCWxW0Ja2,TZbuBvRpS9S403z5S6IxCWxW0Ja2,4.0,images/choice_trial_10.png,images/choice_trial_3.png,images/pattern_6.png,j,f,750.0,10.0,3.0,5.0,0.0,13.0,1.0,0.0,10.0,100.0,,,,,,5c4765349afd7b000196f770,16:29:54,27/03/2024
html-keyboard-response,68,161947,0.0-30.0-1.0,,"<div style=""display: flex; flex-direction: column; align-items: center; margin-top: -40px;""><img src=""images/pattern_6.png"" style=""width: 234px; height: 230px; margin-top: -50px;""><div style=""display: flex; justify-content: space-between; margin-top: 33px;""><img src=""images/choice_trial_10.png"" style=""width: 408px; height: 417px; margin-right: 608px;""></div></div>",,delaylearn,learning,display_response,TZbuBvRpS9S403z5S6IxCWxW0Ja2,TZbuBvRpS9S403z5S6IxCWxW0Ja2,,,,,,,,,,,,,,,,,chosen stimuli: images/choice_trial_10.png,,,,,5c4765349afd7b000196f770,16:29:54,27/03/2024
html-keyboard-response,69,162700,0.0-30.0-2.0,,,,delaylearn,learning,feedback_duration_window,TZbuBvRpS9S403z5S6IxCWxW0Ja2,TZbuBvRpS9S403z5S6IxCWxW0Ja2,,,,,,,,,,,,,,,,,,750.0,,,,5c4765349afd7b000196f770,16:29:54,27/03/2024
html-keyboard-response,70,164215,0.0-30.0-3.0,,<div style='margin:auto;width: auto; font-size: 150%'><span style='font-weight: bold; font-size: 100px; color: red;'>0 points!</span><br><br></div>,,delaylearn,learning,feedback_image_window,TZbuBvRpS9S403z5S6IxCWxW0Ja2,TZbuBvRpS9S403z5S6IxCWxW0Ja2,,,,,,,,,,,,,,,,,,,,,,5c4765349afd7b000196f770,16:29:54,27/03/2024
html-keyboard-response,71,164723,0.0-31.0-0.0,,,,,,mood_trial_fixation,TZbuBvRpS9S403z5S6IxCWxW0Ja2,,,,,,,,,,,,,,,,,,,,,,,5c4765349afd7b000196f770,16:29:54,27/03/2024
lmdlab-html-vas-response,72,168743,0.0-31.0-1.0,3001.0,How happy are you right now?,0.3813656986843092,delaylearn,learning,mood_trial,TZbuBvRpS9S403z5S6IxCWxW0Ja2,TZbuBvRpS9S403z5S6IxCWxW0Ja2,,,,,,,,,,,,,,,,,,,,"['Very unhappy', 'Very happy']",,5c4765349afd7b000196f770,16:29:54,27/03/2024
html-keyboard-response,73,170946,0.0-32.0,,"<div style=""font-size:100px;"">+</div>",,delaylearn,learning,ITI,TZbuBvRpS9S403z5S6IxCWxW0Ja2,TZbuBvRpS9S403z5S6IxCWxW0Ja2,,,,,,,,,,,,,,,,,,,2198.0,,,5c4765349afd7b000196f770,16:29:54,27/03/2024
html-keyboard-response,74,171600,0.0-33.0-0.0,650.5,"<div style=""display: flex; flex-direction: column; align-items: center; margin-top: -40px;""><img src=""images/pattern_1.png"" style=""width: 234px; height: 230px; margin-top: -50px;""><div style=""display: flex; justify-content: space-between; margin-top: 33px;""><img src=""images/choice_trial_9.png"" style=""width: 408px; height: 417px; margin-right: 200px;""><img src=""images/choice_trial_1.png"" style=""width: 408px; height: 417px;""></div></div>",j,delaylearn,learning,trial,TZbuBvRpS9S403z5S6IxCWxW0Ja2,TZbuBvRpS9S403z5S6IxCWxW0Ja2,4.0,images/choice_trial_9.png,images/choice_trial_1.png,images/pattern_1.png,j,j,7000.0,9.0,1.0,1.0,1.0,14.0,1.0,1.0,1.0,110.0,,,,,,5c4765349afd7b000196f770,16:29:54,27/03/2024
html-keyboard-response,75,172606,0.0-33.0-1.0,,"<div style=""display: flex; flex-direction: column; align-items: center; margin-top: -40px;""><img src=""images/pattern_1.png"" style=""width: 234px; height: 230px; margin-top: -50px;""><div style=""display: flex; justify-content: space-between; margin-top: 33px;""><img src=""images/choice_trial_1.png"" style=""width: 408px; height: 417px; margin-left:608px;""></div></div>",,delaylearn,learning,display_response,TZbuBvRpS9S403z5S6IxCWxW0Ja2,TZbuBvRpS9S403z5S6IxCWxW0Ja2,,,,,,,,,,,,,,,,,chosen stimuli: images/choice_trial_1.png,,,,,5c4765349afd7b000196f770,16:29:54,27/03/2024
html-keyboard-response,76,179622,0.0-33.0-2.0,,,,delaylearn,learning,feedback_duration_window,TZbuBvRpS9S403z5S6IxCWxW0Ja2,TZbuBvRpS9S403z5S6IxCWxW0Ja2,,,,,,,,,,,,,,,,,,7000.0,,,,5c4765349afd7b000196f770,16:29:54,27/03/2024
html-keyboard-response,77,181125,0.0-33.0-3.0,,<div style='margin:auto;width: auto; font-size: 150%'><span style='font-weight: bold; font-size: 100px; color: green;'>+10 points!</span><br><br></div>,,delaylearn,learning,feedback_image_window,TZbuBvRpS9S403z5S6IxCWxW0Ja2,TZbuBvRpS9S403z5S6IxCWxW0Ja2,,,,,,,,,,,,,,,,,,,,,,5c4765349afd7b000196f770,16:29:54,27/03/2024
html-keyboard-response,78,183111,0.0-34.0,,"<div style=""font-size:100px;"">+</div>",,delaylearn,learning,ITI,TZbuBvRpS9S403z5S6IxCWxW0Ja2,TZbuBvRpS9S403z5S6IxCWxW0Ja2,,,,,,,,,,,,,,,,,,,1980.0,,,5c4765349afd7b000196f770,16:29:54,27/03/2024
html-keyboard-response,79,183741,0.0-35.0-0.0,627.5,"<div style=""display: flex; flex-direction: column; align-items: center; margin-top: -40px;""><img src=""images/pattern_3.png"" style=""width: 234px; height: 230px; margin-top: -50px;""><div style=""display: flex; justify-content: space-between; margin-top: 33px;""><img src=""images/choice_trial_6.png"" style=""width: 408px; height: 417px; margin-right: 200px;""><img src=""images/choice_trial_16.png"" style=""width: 408px; height: 417px;""></div></div>",f,delaylearn,learning,trial,TZbuBvRpS9S403z5S6IxCWxW0Ja2,TZbuBvRpS9S403z5S6IxCWxW0Ja2,4.0,images/choice_trial_6.png,images/choice_trial_16.png,images/pattern_3.png,f,j,7000.0,6.0,16.0,2.0,1.0,15.0,0.0,1.0,6.0,120.0,,,,,,5c4765349afd7b000196f770,16:29:54,27/03/2024
html-keyboard-response,80,184758,0.0-35.0-1.0,,"<div style=""display: flex; flex-direction: column; align-items: center; margin-top: -40px;""><img src=""images/pattern_3.png"" style=""width: 234px; height: 230px; margin-top: -50px;""><div style=""display: flex; justify-content: space-between; margin-top: 33px;""><img src=""images/choice_trial_6.png"" style=""width: 408px; height: 417px; margin-right: 608px;""></div></div>",,delaylearn,learning,display_response,TZbuBvRpS9S403z5S6IxCWxW0Ja2,TZbuBvRpS9S403z5S6IxCWxW0Ja2,,,,,,,,,,,,,,,,,chosen stimuli: images/choice_trial_6.png,,,,,5c4765349afd7b000196f770,16:29:54,27/03/2024
html-keyboard-response,81,191774,0.0-35.0-2.0,,,,delaylearn,learning,feedback_duration_window,TZbuBvRpS9S403z5S6IxCWxW0Ja2,TZbuBvRpS9S403z5S6IxCWxW0Ja2,,,,,,,,,,,,,,,,,,7000.0,,,,5c4765349afd7b000196f770,16:29:54,27/03/2024
html-keyboard-response,82,193285,0.0-35.0-3.0,,<div style='margin:auto;width: auto; font-size: 150%'><span style='font-weight: bold; font-size: 100px; color: green;'>+10 points!</span><br><br></div>,,delaylearn,learning,feedback_image_window,TZbuBvRpS9S403z5S6IxCWxW0Ja2,TZbuBvRpS9S403z5S6IxCWxW0Ja2,,,,,,,,,,,,,,,,,,,,,,5c4765349afd7b000196f770,16:29:54,27/03/2024
html-keyboard-response,83,195563,0.0-36.0,,"<div style=""font-size:100px;"">+</div>",,delaylearn,learning,ITI,TZbuBvRpS9S403z5S6IxCWxW0Ja2,TZbuBvRpS9S403z5S6IxCWxW0Ja2,,,,,,,,,,,,,,,,,,,2265.0,,,5c4765349afd7b000196f770,16:29:54,27/03/2024
html-keyboard-response,84,196356,0.0-37.0-0.0,789.6999998092651,"<div style=""display: flex; flex-direction: column; align-items: center; margin-top: -40px;""><img src=""images/pattern_5.png"" style=""width: 234px; height: 230px; margin-top: -50px;""><div style=""display: flex; justify-content: space-between; margin-top: 33px;""><img src=""images/choice_trial_5.png"" style=""width: 408px; height: 417px; margin-right: 200px;""><img src=""images/choice_trial_15.png"" style=""width: 408px; height: 417px;""></div></div>",f,delaylearn,learning,trial,TZbuBvRpS9S403z5S6IxCWxW0Ja2,TZbuBvRpS9S403z5S6IxCWxW0Ja2,4.0,images/choice_trial_5.png,images/choice_trial_15.png,images/pattern_5.png,f,f,750.0,5.0,15.0,4.0,0.0,16.0,1.0,1.0,5.0,130.0,,,,,,5c4765349afd7b000196f770,16:29:54,27/03/2024
html-keyboard-response,85,197367,0.0-37.0-1.0,,"<div style=""display: flex; flex-direction: column; align-items: center; margin-top: -40px;""><img src=""images/pattern_5.png"" style=""width: 234px; height: 230px; margin-top: -50px;""><div style=""display: flex; justify-content: space-between; margin-top: 33px;""><img src=""images/choice_trial_5.png"" style=""width: 408px; height: 417px; margin-right: 608px;""></div></div>",,delaylearn,learning,display_response,TZbuBvRpS9S403z5S6IxCWxW0Ja2,TZbuBvRpS9S403z5S6IxCWxW0Ja2,,,,,,,,,,,,,,,,,chosen stimuli: images/choice_trial_5.png,,,,,5c4765349afd7b000196f770,16:29:54,27/03/2024
html-keyboard-response,86,198133,0.0-37.0-2.0,,,,delaylearn,learning,feedback_duration_window,TZbuBvRpS9S403z5S6IxCWxW0Ja2,TZbuBvRpS9S403z5S6IxCWxW0Ja2,,,,,,,,,,,,,,,,,,750.0,,,,5c4765349afd7b000196f770,16:29:54,27/03/2024
html-keyboard-response,87,199644,0.0-37.0-3.0,,<div style='margin:auto;width: auto; font-size: 150%'><span style='font-weight: bold; font-size: 100px; color: green;'>+10 points!</span><br><br></div>,,delaylearn,learning,feedback_image_window,TZbuBvRpS9S403z5S6IxCWxW0Ja2,TZbuBvRpS9S403z5S6IxCWxW0Ja2,,,,,,,,,,,,,,,,,,,,,,5c4765349afd7b000196f770,16:29:54,27/03/2024
html-keyboard-response,88,200152,0.0-38.0-0.0,,,,,,mood_trial_fixation,TZbuBvRpS9S403z5S6IxCWxW0Ja2,,,,,,,,,,,,,,,,,,,,,,,5c4765349afd7b000196f770,16:29:54,27/03/2024
lmdlab-html-vas-response,89,204851,0.0-38.0-1.0,3696.0,How happy are you right now?,0.3668981063472235,delaylearn,learning,mood_trial,TZbuBvRpS9S403z5S6IxCWxW0Ja2,TZbuBvRpS9S403z5S6IxCWxW0Ja2,,,,,,,,,,,,,,,,,,,,"['Very unhappy', 'Very happy']",,5c4765349afd7b000196f770,16:29:54,27/03/2024
html-keyboard-response,90,206472,0.0-39.0,,"<div style=""font-size:100px;"">+</div>",,delaylearn,learning,ITI,TZbuBvRpS9S403z5S6IxCWxW0Ja2,TZbuBvRpS9S403z5S6IxCWxW0Ja2,,,,,,,,,,,,,,,,,,,1618.0,,,5c4765349afd7b000196f770,16:29:54,27/03/2024
html-keyboard-response,91,207459,0.0-40.0-0.0,983.7000000476837,"<div style=""display: flex; flex-direction: column; align-items: center; margin-top: -40px;""><img src=""images/pattern_6.png"" style=""width: 234px; height: 230px; margin-top: -50px;""><div style=""display: flex; justify-content: space-between; margin-top: 33px;""><img src=""images/choice_trial_10.png"" style=""width: 408px; height: 417px; margin-right: 200px;""><img src=""images/choice_trial_3.png"" style=""width: 408px; height: 417px;""></div></div>",j,delaylearn,learning,trial,TZbuBvRpS9S403z5S6IxCWxW0Ja2,TZbuBvRpS9S403z5S6IxCWxW0Ja2,4.0,images/choice_trial_10.png,images/choice_trial_3.png,images/pattern_6.png,f,f,750.0,10.0,3.0,5.0,0.0,17.0,0.0,0.0,3.0,130.0,,,,,,5c4765349afd7b000196f770,16:29:54,27/03/2024
html-keyboard-response,92,208471,0.0-40.0-1.0,,"<div style=""display: flex; flex-direction: column; align-items: center; margin-top: -40px;""><img src=""images/pattern_6.png"" style=""width: 234px; height: 230px; margin-top: -50px;""><div style=""display: flex; justify-content: space-between; margin-top: 33px;""><img src=""images/choice_trial_3.png"" style=""width: 408px; height: 417px; margin-left:608px;""></div></div>",,delaylearn,learning,display_response,TZbuBvRpS9S403z5S6IxCWxW0Ja2,TZbuBvRpS9S403z5S6IxCWxW0Ja2,,,,,,,,,,,,,,,,,chosen stimuli: images/choice_trial_3.png,,,,,5c4765349afd7b000196f770,16:29:54,27/03/2024
html-keyboard-response,93,209224,0.0-40.0-2.0,,,,delaylearn,learning,feedback_duration_window,TZbuBvRpS9S403z5S6IxCWxW0Ja2,TZbuBvRpS9S403z5S6IxCWxW0Ja2,,,,,,,,,,,,,,,,,,750.0,,,,5c4765349afd7b000196f770,16:29:54,27/03/2024
html-keyboard-response,94,210732,0.0-40.0-3.0,,<div style='margin:auto;width: auto; font-size: 150%'><span style='font-weight: bold; font-size: 100px; color: red;'>0 points!</span><br><br></div>,,delaylearn,learning,feedback_image_window,TZbuBvRpS9S403z5S6IxCWxW0Ja2,TZbuBvRpS9S403z5S6IxCWxW0Ja2,,,,,,,,,,,,,,,,,,,,,,5c4765349afd7b000196f770,16:29:54,27/03/2024
html-keyboard-response,95,212914,0.0-41.0,,"<div style=""font-size:100px;"">+</div>",,delaylearn,learning,ITI,TZbuBvRpS9S403z5S6IxCWxW0Ja2,TZbuBvRpS9S403z5S6IxCWxW0Ja2,,,,,,,,,,,,,,,,,,,2172.0,,,5c4765349afd7b000196f770,16:29:54,27/03/2024
html-keyboard-response,96,213719,0.0-42.0-0.0,801.1000001430511,"<div style=""display: flex; flex-direction: column; align-items: center; margin-top: -40px;""><img src=""images/pattern_4.png"" style=""width: 234px; height: 230px; margin-top: -50px;""><div style=""display: flex; justify-content: space-between; margin-top: 33px;""><img src=""images/choice_trial_7.png"" style=""width: 408px; height: 417px; margin-right: 200px;""><img src=""images/choice_trial_8.png"" style=""width: 408px; height: 417px;""></div></div>",j,delaylearn,learning,trial,TZbuBvRpS9S403z5S6IxCWxW0Ja2,TZbuBvRpS9S403z5S6IxCWxW0Ja2,4.0,images/choice_trial_7.png,images/choice_trial_8.png,images/pattern_4.png,j,j,7000.0,7.0,8.0,3.0,1.0,18.0,1.0,1.0,8.0,140.0,,,,,,5c4765349afd7b000196f770,16:29:54,27/03/2024
html-keyboard-response,97,214733,0.0-42.0-1.0,,"<div style=""display: flex; flex-direction: column; align-items: center; margin-top: -40px;""><img src=""images/pattern_4.png"" style=""width: 234px; height: 230px; margin-top: -50px;""><div style=""display: flex; justify-content: space-between; margin-top: 33px;""><img src=""images/choice_trial_8.png"" style=""width: 408px; height: 417px; margin-left:608px;""></div></div>",,delaylearn,learning,display_response,TZbuBvRpS9S403z5S6IxCWxW0Ja2,TZbuBvRpS9S403z5S6IxCWxW0Ja2,,,,,,,,,,,,,,,,,chosen stimuli: images/choice_trial_8.png,,,,,5c4765349afd7b000196f770,16:29:54,27/03/2024
html-keyboard-response,98,221743,0.0-42.0-2.0,,,,delaylearn,learning,feedback_duration_window,TZbuBvRpS9S403z5S6IxCWxW0Ja2,TZbuBvRpS9S403z5S6IxCWxW0Ja2,,,,,,,,,,,,,,,,,,7000.0,,,,5c4765349afd7b000196f770,16:29:54,27/03/2024
html-keyboard-response,99,223249,0.0-42.0-3.0,,<div style='margin:auto;width: auto; font-size: 150%'><span style='font-weight: bold; font-size: 100px; color: green;'>+10 points!</span><br><br></div>,,delaylearn,learning,feedback_image_window,TZbuBvRpS9S403z5S6IxCWxW0Ja2,TZbuBvRpS9S403z5S6IxCWxW0Ja2,,,,,,,,,,,,,,,,,,,,,,5c4765349afd7b000196f770,16:29:54,27/03/2024
html-keyboard-response,100,225371,0.0-43.0,,"<div style=""font-size:100px;"">+</div>",,delaylearn,learning,ITI,TZbuBvRpS9S403z5S6IxCWxW0Ja2,TZbuBvRpS9S403z5S6IxCWxW0Ja2,,,,,,,,,,,,,,,,,,,2114.0,,,5c4765349afd7b000196f770,16:29:54,27/03/2024
html-keyboard-response,101,225904,0.0-44.0-0.0,529.2999999523163,"<div style=""display: flex; flex-direction: column; align-items: center; margin-top: -40px;""><img src=""images/pattern_7.png"" style=""width: 234px; height: 230px; margin-top: -50px;""><div style=""display: flex; justify-content: space-between; margin-top: 33px;""><img src=""images/choice_trial_13.png"" style=""width: 408px; height: 417px; margin-right: 200px;""><img src=""images/choice_trial_4.png"" style=""width: 408px; height: 417px;""></div></div>",j,delaylearn,learning,trial,TZbuBvRpS9S403z5S6IxCWxW0Ja2,TZbuBvRpS9S403z5S6IxCWxW0Ja2,4.0,images/choice_trial_13.png,images/choice_trial_4.png,images/pattern_7.png,j,f,750.0,13.0,4.0,6.0,0.0,19.0,0.0,1.0,4.0,150.0,,,,,,5c4765349afd7b000196f770,16:29:54,27/03/2024
html-keyboard-response,102,226910,0.0-44.0-1.0,,"<div style=""display: flex; flex-direction: column; align-items: center; margin-top: -40px;""><img src=""images/pattern_7.png"" style=""width: 234px; height: 230px; margin-top: -50px;""><div style=""display: flex; justify-content: space-between; margin-top: 33px;""><img src=""images/choice_trial_4.png"" style=""width: 408px; height: 417px; margin-left:608px;""></div></div>",,delaylearn,learning,display_response,TZbuBvRpS9S403z5S6IxCWxW0Ja2,TZbuBvRpS9S403z5S6IxCWxW0Ja2,,,,,,,,,,,,,,,,,chosen stimuli: images/choice_trial_4.png,,,,,5c4765349afd7b000196f770,16:29:54,27/03/2024
html-keyboard-response,103,227663,0.0-44.0-2.0,,,,delaylearn,learning,feedback_duration_window,TZbuBvRpS9S403z5S6IxCWxW0Ja2,TZbuBvRpS9S403z5S6IxCWxW0Ja2,,,,,,,,,,,,,,,,,,750.0,,,,5c4765349afd7b000196f770,16:29:54,27/03/2024
html-keyboard-response,104,229170,0.0-44.0-3.0,,<div style='margin:auto;width: auto; font-size: 150%'><span style='font-weight: bold; font-size: 100px; color: green;'>+10 points!</span><br><br></div>,,delaylearn,learning,feedback_image_window,TZbuBvRpS9S403z5S6IxCWxW0Ja2,TZbuBvRpS9S403z5S6IxCWxW0Ja2,,,,,,,,,,,,,,,,,,,,,,5c4765349afd7b000196f770,16:29:54,27/03/2024
html-keyboard-response,105,231042,0.0-45.0,,"<div style=""font-size:100px;"">+</div>",,delaylearn,learning,ITI,TZbuBvRpS9S403z5S6IxCWxW0Ja2,TZbuBvRpS9S403z5S6IxCWxW0Ja2,,,,,,,,,,,,,,,,,,,1856.0,,,5c4765349afd7b000196f770,16:29:54,27/03/2024
html-keyboard-response,106,231935,0.0-46.0-0.0,891.4000000953674,"<div style=""display: flex; flex-direction: column; align-items: center; margin-top: -40px;""><img src=""images/pattern_1.png"" style=""width: 234px; height: 230px; margin-top: -50px;""><div style=""display: flex; justify-content: space-between; margin-top: 33px;""><img src=""images/choice_trial_1.png"" style=""width: 408px; height: 417px; margin-right: 200px;""><img src=""images/choice_trial_9.png"" style=""width: 408px; height: 417px;""></div></div>",f,delaylearn,learning,trial,TZbuBvRpS9S403z5S6IxCWxW0Ja2,TZbuBvRpS9S403z5S6IxCWxW0Ja2,4.0,images/choice_trial_1.png,images/choice_trial_9.png,images/pattern_1.png,f,f,7000.0,1.0,9.0,1.0,0.0,20.0,1.0,1.0,1.0,160.0,,,,,,5c4765349afd7b000196f770,16:29:54,27/03/2024
html-keyboard-response,107,232949,0.0-46.0-1.0,,"<div style=""display: flex; flex-direction: column; align-items: center; margin-top: -40px;""><img src=""images/pattern_1.png"" style=""width: 234px; height: 230px; margin-top: -50px;""><div style=""display: flex; justify-content: space-between; margin-top: 33px;""><img src=""images/choice_trial_1.png"" style=""width: 408px; height: 417px; margin-right: 608px;""></div></div>",,delaylearn,learning,display_response,TZbuBvRpS9S403z5S6IxCWxW0Ja2,TZbuBvRpS9S403z5S6IxCWxW0Ja2,,,,,,,,,,,,,,,,,chosen stimuli: images/choice_trial_1.png,,,,,5c4765349afd7b000196f770,16:29:54,27/03/2024
html-keyboard-response,108,239957,0.0-46.0-2.0,,,,delaylearn,learning,feedback_duration_window,TZbuBvRpS9S403z5S6IxCWxW0Ja2,TZbuBvRpS9S403z5S6IxCWxW0Ja2,,,,,,,,,,,,,,,,,,7000.0,,,,5c4765349afd7b000196f770,16:29:54,27/03/2024
html-keyboard-response,109,241463,0.0-46.0-3.0,,<div style='margin:auto;width: auto; font-size: 150%'><span style='font-weight: bold; font-size: 100px; color: green;'>+10 points!</span><br><br></div>,,delaylearn,learning,feedback_image_window,TZbuBvRpS9S403z5S6IxCWxW0Ja2,TZbuBvRpS9S403z5S6IxCWxW0Ja2,,,,,,,,,,,,,,,,,,,,,,5c4765349afd7b000196f770,16:29:54,27/03/2024
html-keyboard-response,110,243813,0.0-47.0,,"<div style=""font-size:100px;"">+</div>",,delaylearn,learning,ITI,TZbuBvRpS9S403z5S6IxCWxW0Ja2,TZbuBvRpS9S403z5S6IxCWxW0Ja2,,,,,,,,,,,,,,,,,,,2340.0,,,5c4765349afd7b000196f770,16:29:54,27/03/2024
html-keyboard-response,111,245475,0.0-48.0-0.0,1659.3999998569489,"<div style=""display: flex; flex-direction: column; align-items: center; margin-top: -40px;""><img src=""images/pattern_6.png"" style=""width: 234px; height: 230px; margin-top: -50px;""><div style=""display: flex; justify-content: space-between; margin-top: 33px;""><img src=""images/choice_trial_3.png"" style=""width: 408px; height: 417px; margin-right: 200px;""><img src=""images/choice_trial_10.png"" style=""width: 408px; height: 417px;""></div></div>",j,delaylearn,learning,trial,TZbuBvRpS9S403z5S6IxCWxW0Ja2,TZbuBvRpS9S403z5S6IxCWxW0Ja2,4.0,images/choice_trial_3.png,images/choice_trial_10.png,images/pattern_6.png,j,j,750.0,3.0,10.0,5.0,1.0,21.0,1.0,1.0,10.0,170.0,,,,,,5c4765349afd7b000196f770,16:29:54,27/03/2024
html-keyboard-response,112,246486,0.0-48.0-1.0,,"<div style=""display: flex; flex-direction: column; align-items: center; margin-top: -40px;""><img src=""images/pattern_6.png"" style=""width: 234px; height: 230px; margin-top: -50px;""><div style=""display: flex; justify-content: space-between; margin-top: 33px;""><img src=""images/choice_trial_10.png"" style=""width: 408px; height: 417px; margin-left:608px;""></div></div>",,delaylearn,learning,display_response,TZbuBvRpS9S403z5S6IxCWxW0Ja2,TZbuBvRpS9S403z5S6IxCWxW0Ja2,,,,,,,,,,,,,,,,,chosen stimuli: images/choice_trial_10.png,,,,,5c4765349afd7b000196f770,16:29:54,27/03/2024
html-keyboard-response,113,247239,0.0-48.0-2.0,,,,delaylearn,learning,feedback_duration_window,TZbuBvRpS9S403z5S6IxCWxW0Ja2,TZbuBvRpS9S403z5S6IxCWxW0Ja2,,,,,,,,,,,,,,,,,,750.0,,,,5c4765349afd7b000196f770,16:29:54,27/03/2024
html-keyboard-response,114,248747,0.0-48.0-3.0,,<div style='margin:auto;width: auto; font-size: 150%'><span style='font-weight: bold; font-size: 100px; color: green;'>+10 points!</span><br><br></div>,,delaylearn,learning,feedback_image_window,TZbuBvRpS9S403z5S6IxCWxW0Ja2,TZbuBvRpS9S403z5S6IxCWxW0Ja2,,,,,,,,,,,,,,,,,,,,,,5c4765349afd7b000196f770,16:29:54,27/03/2024
html-keyboard-response,115,250347,0.0-49.0,,"<div style=""font-size:100px;"">+</div>",,delaylearn,learning,ITI,TZbuBvRpS9S403z5S6IxCWxW0Ja2,TZbuBvRpS9S403z5S6IxCWxW0Ja2,,,,,,,,,,,,,,,,,,,1595.0,,,5c4765349afd7b000196f770,16:29:54,27/03/2024
html-keyboard-response,116,251815,0.0-50.0-0.0,1464.3999998569489,"<div style=""display: flex; flex-direction: column; align-items: center; margin-top: -40px;""><img src=""images/pattern_4.png"" style=""width: 234px; height: 230px; margin-top: -50px;""><div style=""display: flex; justify-content: space-between; margin-top: 33px;""><img src=""images/choice_trial_8.png"" style=""width: 408px; height: 417px; margin-right: 200px;""><img src=""images/choice_trial_7.png"" style=""width: 408px; height: 417px;""></div></div>",j,delaylearn,learning,trial,TZbuBvRpS9S403z5S6IxCWxW0Ja2,TZbuBvRpS9S403z5S6IxCWxW0Ja2,4.0,images/choice_trial_8.png,images/choice_trial_7.png,images/pattern_4.png,f,f,7000.0,8.0,7.0,3.0,0.0,22.0,0.0,0.0,7.0,170.0,,,,,,5c4765349afd7b000196f770,16:29:54,27/03/2024
html-keyboard-response,117,252820,0.0-50.0-1.0,,"<div style=""display: flex; flex-direction: column; align-items: center; margin-top: -40px;""><img src=""images/pattern_4.png"" style=""width: 234px; height: 230px; margin-top: -50px;""><div style=""display: flex; justify-content: space-between; margin-top: 33px;""><img src=""images/choice_trial_7.png"" style=""width: 408px; height: 417px; margin-left:608px;""></div></div>",,delaylearn,learning,display_response,TZbuBvRpS9S403z5S6IxCWxW0Ja2,TZbuBvRpS9S403z5S6IxCWxW0Ja2,,,,,,,,,,,,,,,,,chosen stimuli: images/choice_trial_7.png,,,,,5c4765349afd7b000196f770,16:29:54,27/03/2024
html-keyboard-response,118,259827,0.0-50.0-2.0,,,,delaylearn,learning,feedback_duration_window,TZbuBvRpS9S403z5S6IxCWxW0Ja2,TZbuBvRpS9S403z5S6IxCWxW0Ja2,,,,,,,,,,,,,,,,,,7000.0,,,,5c4765349afd7b000196f770,16:29:54,27/03/2024
html-keyboard-response,119,261333,0.0-50.0-3.0,,<div style='margin:auto;width: auto; font-size: 150%'><span style='font-weight: bold; font-size: 100px; color: red;'>0 points!</span><br><br></div>,,delaylearn,learning,feedback_image_window,TZbuBvRpS9S403z5S6IxCWxW0Ja2,TZbuBvRpS9S403z5S6IxCWxW0Ja2,,,,,,,,,,,,,,,,,,,,,,5c4765349afd7b000196f770,16:29:54,27/03/2024
html-keyboard-response,120,261841,0.0-51.0-0.0,,,,,,mood_trial_fixation,TZbuBvRpS9S403z5S6IxCWxW0Ja2,,,,,,,,,,,,,,,,,,,,,,,5c4765349afd7b000196f770,16:29:54,27/03/2024
lmdlab-html-vas-response,121,265515,0.0-51.0-1.0,2660.0,How happy are you right now?,0.38859949485285206,delaylearn,learning,mood_trial,TZbuBvRpS9S403z5S6IxCWxW0Ja2,TZbuBvRpS9S403z5S6IxCWxW0Ja2,,,,,,,,,,,,,,,,,,,,"['Very unhappy', 'Very happy']",,5c4765349afd7b000196f770,16:29:54,27/03/2024
html-keyboard-response,122,267311,0.0-52.0,,"<div style=""font-size:100px;"">+</div>",,delaylearn,learning,ITI,TZbuBvRpS9S403z5S6IxCWxW0Ja2,TZbuBvRpS9S403z5S6IxCWxW0Ja2,,,,,,,,,,,,,,,,,,,1794.0,,,5c4765349afd7b000196f770,16:29:54,27/03/2024
html-keyboard-response,123,268217,0.0-53.0-0.0,901.7999999523163,"<div style=""display: flex; flex-direction: column; align-items: center; margin-top: -40px;""><img src=""images/pattern_7.png"" style=""width: 234px; height: 230px; margin-top: -50px;""><div style=""display: flex; justify-content: space-between; margin-top: 33px;""><img src=""images/choice_trial_4.png"" style=""width: 408px; height: 417px; margin-right: 200px;""><img src=""images/choice_trial_13.png"" style=""width: 408px; height: 417px;""></div></div>",f,delaylearn,learning,trial,TZbuBvRpS9S403z5S6IxCWxW0Ja2,TZbuBvRpS9S403z5S6IxCWxW0Ja2,4.0,images/choice_trial_4.png,images/choice_trial_13.png,images/pattern_7.png,j,j,750.0,4.0,13.0,6.0,1.0,23.0,0.0,0.0,4.0,170.0,,,,,,5c4765349afd7b000196f770,16:29:54,27/03/2024
html-keyboard-response,124,269223,0.0-53.0-1.0,,"<div style=""display: flex; flex-direction: column; align-items: center; margin-top: -40px;""><img src=""images/pattern_7.png"" style=""width: 234px; height: 230px; margin-top: -50px;""><div style=""display: flex; justify-content: space-between; margin-top: 33px;""><img src=""images/choice_trial_4.png"" style=""width: 408px; height: 417px; margin-right: 608px;""></div></div>",,delaylearn,learning,display_response,TZbuBvRpS9S403z5S6IxCWxW0Ja2,TZbuBvRpS9S403z5S6IxCWxW0Ja2,,,,,,,,,,,,,,,,,chosen stimuli: images/choice_trial_4.png,,,,,5c4765349afd7b000196f770,16:29:54,27/03/2024
html-keyboard-response,125,269979,0.0-53.0-2.0,,,,delaylearn,learning,feedback_duration_window,TZbuBvRpS9S403z5S6IxCWxW0Ja2,TZbuBvRpS9S403z5S6IxCWxW0Ja2,,,,,,,,,,,,,,,,,,750.0,,,,5c4765349afd7b000196f770,16:29:54,27/03/2024
html-keyboard-response,126,271484,0.0-53.0-3.0,,<div style='margin:auto;width: auto; font-size: 150%'><span style='font-weight: bold; font-size: 100px; color: red;'>0 points!</span><br><br></div>,,delaylearn,learning,feedback_image_window,TZbuBvRpS9S403z5S6IxCWxW0Ja2,TZbuBvRpS9S403z5S6IxCWxW0Ja2,,,,,,,,,,,,,,,,,,,,,,5c4765349afd7b000196f770,16:29:54,27/03/2024
html-keyboard-response,127,273898,0.0-54.0,,"<div style=""font-size:100px;"">+</div>",,delaylearn,learning,ITI,TZbuBvRpS9S403z5S6IxCWxW0Ja2,TZbuBvRpS9S403z5S6IxCWxW0Ja2,,,,,,,,,,,,,,,,,,,2407.0,,,5c4765349afd7b000196f770,16:29:54,27/03/2024
html-keyboard-response,128,275146,0.0-55.0-0.0,1243.2999999523163,"<div style=""display: flex; flex-direction: column; align-items: center; margin-top: -40px;""><img src=""images/pattern_1.png"" style=""width: 234px; height: 230px; margin-top: -50px;""><div style=""display: flex; justify-content: space-between; margin-top: 33px;""><img src=""images/choice_trial_9.png"" style=""width: 408px; height: 417px; margin-right: 200px;""><img src=""images/choice_trial_1.png"" style=""width: 408px; height: 417px;""></div></div>",j,delaylearn,learning,trial,TZbuBvRpS9S403z5S6IxCWxW0Ja2,TZbuBvRpS9S403z5S6IxCWxW0Ja2,4.0,images/choice_trial_9.png,images/choice_trial_1.png,images/pattern_1.png,f,j,7000.0,9.0,1.0,1.0,1.0,24.0,1.0,0.0,1.0,170.0,,,,,,5c4765349afd7b000196f770,16:29:54,27/03/2024
html-keyboard-response,129,276161,0.0-55.0-1.0,,"<div style=""display: flex; flex-direction: column; align-items: center; margin-top: -40px;""><img src=""images/pattern_1.png"" style=""width: 234px; height: 230px; margin-top: -50px;""><div style=""display: flex; justify-content: space-between; margin-top: 33px;""><img src=""images/choice_trial_1.png"" style=""width: 408px; height: 417px; margin-left:608px;""></div></div>",,delaylearn,learning,display_response,TZbuBvRpS9S403z5S6IxCWxW0Ja2,TZbuBvRpS9S403z5S6IxCWxW0Ja2,,,,,,,,,,,,,,,,,chosen stimuli: images/choice_trial_1.png,,,,,5c4765349afd7b000196f770,16:29:54,27/03/2024
html-keyboard-response,130,283175,0.0-55.0-2.0,,,,delaylearn,learning,feedback_duration_window,TZbuBvRpS9S403z5S6IxCWxW0Ja2,TZbuBvRpS9S403z5S6IxCWxW0Ja2,,,,,,,,,,,,,,,,,,7000.0,,,,5c4765349afd7b000196f770,16:29:54,27/03/2024
html-keyboard-response,131,284687,0.0-55.0-3.0,,<div style='margin:auto;width: auto; font-size: 150%'><span style='font-weight: bold; font-size: 100px; color: red;'>0 points!</span><br><br></div>,,delaylearn,learning,feedback_image_window,TZbuBvRpS9S403z5S6IxCWxW0Ja2,TZbuBvRpS9S403z5S6IxCWxW0Ja2,,,,,,,,,,,,,,,,,,,,,,5c4765349afd7b000196f770,16:29:54,27/03/2024
html-keyboard-response,132,286845,0.0-56.0,,"<div style=""font-size:100px;"">+</div>",,delaylearn,learning,ITI,TZbuBvRpS9S403z5S6IxCWxW0Ja2,TZbuBvRpS9S403z5S6IxCWxW0Ja2,,,,,,,,,,,,,,,,,,,2146.0,,,5c4765349afd7b000196f770,16:29:54,27/03/2024
html-keyboard-response,133,287724,0.0-57.0-0.0,877.1000001430511,"<div style=""display: flex; flex-direction: column; align-items: center; margin-top: -40px;""><img src=""images/pattern_5.png"" style=""width: 234px; height: 230px; margin-top: -50px;""><div style=""display: flex; justify-content: space-between; margin-top: 33px;""><img src=""images/choice_trial_15.png"" style=""width: 408px; height: 417px; margin-right: 200px;""><img src=""images/choice_trial_5.png"" style=""width: 408px; height: 417px;""></div></div>",j,delaylearn,learning,trial,TZbuBvRpS9S403z5S6IxCWxW0Ja2,TZbuBvRpS9S403z5S6IxCWxW0Ja2,4.0,images/choice_trial_15.png,images/choice_trial_5.png,images/pattern_5.png,j,j,750.0,15.0,5.0,4.0,1.0,25.0,1.0,1.0,5.0,180.0,,,,,,5c4765349afd7b000196f770,16:29:54,27/03/2024
html-keyboard-response,134,288730,0.0-57.0-1.0,,"<div style=""display: flex; flex-direction: column; align-items: center; margin-top: -40px;""><img src=""images/pattern_5.png"" style=""width: 234px; height: 230px; margin-top: -50px;""><div style=""display: flex; justify-content: space-between; margin-top: 33px;""><img src=""images/choice_trial_5.png"" style=""width: 408px; height: 417px; margin-left:608px;""></div></div>",,delaylearn,learning,display_response,TZbuBvRpS9S403z5S6IxCWxW0Ja2,TZbuBvRpS9S403z5S6IxCWxW0Ja2,,,,,,,,,,,,,,,,,chosen stimuli: images/choice_trial_5.png,,,,,5c4765349afd7b000196f770,16:29:54,27/03/2024
html-keyboard-response,135,289485,0.0-57.0-2.0,,,,delaylearn,learning,feedback_duration_window,TZbuBvRpS9S403z5S6IxCWxW0Ja2,TZbuBvRpS9S403z5S6IxCWxW0Ja2,,,,,,,,,,,,,,,,,,750.0,,,,5c4765349afd7b000196f770,16:29:54,27/03/2024
html-keyboard-response,136,290994,0.0-57.0-3.0,,<div style='margin:auto;width: auto; font-size: 150%'><span style='font-weight: bold; font-size: 100px; color: green;'>+10 points!</span><br><br></div>,,delaylearn,learning,feedback_image_window,TZbuBvRpS9S403z5S6IxCWxW0Ja2,TZbuBvRpS9S403z5S6IxCWxW0Ja2,,,,,,,,,,,,,,,,,,,,,,5c4765349afd7b000196f770,16:29:54,27/03/2024
html-keyboard-response,137,293378,0.0-58.0,,"<div style=""font-size:100px;"">+</div>",,delaylearn,learning,ITI,TZbuBvRpS9S403z5S6IxCWxW0Ja2,TZbuBvRpS9S403z5S6IxCWxW0Ja2,,,,,,,,,,,,,,,,,,,2372.0,,,5c4765349afd7b000196f770,16:29:54,27/03/2024
html-keyboard-response,138,294453,0.0-59.0-0.0,1071.1000001430511,"<div style=""display: flex; flex-direction: column; align-items: center; margin-top: -40px;""><img src=""images/pattern_3.png"" style=""width: 234px; height: 230px; margin-top: -50px;""><div style=""display: flex; justify-content: space-between; margin-top: 33px;""><img src=""images/choice_trial_6.png"" style=""width: 408px; height: 417px; margin-right: 200px;""><img src=""images/choice_trial_16.png"" style=""width: 408px; height: 417px;""></div></div>",f,delaylearn,learning,trial,TZbuBvRpS9S403z5S6IxCWxW0Ja2,TZbuBvRpS9S403z5S6IxCWxW0Ja2,4.0,images/choice_trial_6.png,images/choice_trial_16.png,images/pattern_3.png,j,j,7000.0,6.0,16.0,2.0,1.0,26.0,0.0,0.0,6.0,180.0,,,,,,5c4765349afd7b000196f770,16:29:54,27/03/2024
html-keyboard-response,139,295462,0.0-59.0-1.0,,"<div style=""display: flex; flex-direction: column; align-items: center; margin-top: -40px;""><img src=""images/pattern_3.png"" style=""width: 234px; height: 230px; margin-top: -50px;""><div style=""display: flex; justify-content: space-between; margin-top: 33px;""><img src=""images/choice_trial_6.png"" style=""width: 408px; height: 417px; margin-right: 608px;""></div></div>",,delaylearn,learning,display_response,TZbuBvRpS9S403z5S6IxCWxW0Ja2,TZbuBvRpS9S403z5S6IxCWxW0Ja2,,,,,,,,,,,,,,,,,chosen stimuli: images/choice_trial_6.png,,,,,5c4765349afd7b000196f770,16:29:54,27/03/2024
html-keyboard-response,140,302470,0.0-59.0-2.0,,,,delaylearn,learning,feedback_duration_window,TZbuBvRpS9S403z5S6IxCWxW0Ja2,TZbuBvRpS9S403z5S6IxCWxW0Ja2,,,,,,,,,,,,,,,,,,7000.0,,,,5c4765349afd7b000196f770,16:29:54,27/03/2024
html-keyboard-response,141,303981,0.0-59.0-3.0,,<div style='margin:auto;width: auto; font-size: 150%'><span style='font-weight: bold; font-size: 100px; color: red;'>0 points!</span><br><br></div>,,delaylearn,learning,feedback_image_window,TZbuBvRpS9S403z5S6IxCWxW0Ja2,TZbuBvRpS9S403z5S6IxCWxW0Ja2,,,,,,,,,,,,,,,,,,,,,,5c4765349afd7b000196f770,16:29:54,27/03/2024
lmdlab-html-vas-response,142,311789,0.0-60.0-0.0,6299.0,*How <b><u>confident</u></b> are you feeling about your answers at this moment?*,0.005226311767961153,rewlearn,rate_confidence,,TZbuBvRpS9S403z5S6IxCWxW0Ja2,TZbuBvRpS9S403z5S6IxCWxW0Ja2,,,,,,,,,,,,,,,,,,,,"['No confidence', 'Complete confidence']",,5c4765349afd7b000196f770,16:29:54,27/03/2024
lmdlab-rest-trial-limit,143,334123,0.0-60.0-1.0,20821.0,"<div style=""font-size:40px;""><b>Please take a break!</b><br><br><br><br><p>Great work: you earned 180 points.<br><br><br><p>You have completed part(s) 1 of 5.<br><br><br><br>When you are ready to continue<br><br><br>please click the button.</p><br><br>",0,delaylearn,learning,break,TZbuBvRpS9S403z5S6IxCWxW0Ja2,TZbuBvRpS9S403z5S6IxCWxW0Ja2,,,,,,,,,,,,,,,,,,,,,0.0,5c4765349afd7b000196f770,16:29:54,27/03/2024
html-keyboard-response,144,337135,0.0-60.0-2.0,,"<div style=""font-size:100px;"">+</div>",,delaylearn,learning,pre_fixation,TZbuBvRpS9S403z5S6IxCWxW0Ja2,,,,,,,,,,,,,,,,,,,,,,,5c4765349afd7b000196f770,16:29:54,27/03/2024
lmdlab-html-vas-response,145,341190,0.0-60.0-3.0-0.0,3034.0,How happy are you right now?,0.3350694032056349,delaylearn,learning,mood_baseline,TZbuBvRpS9S403z5S6IxCWxW0Ja2,TZbuBvRpS9S403z5S6IxCWxW0Ja2,,,,,,,,,,,,,,,,,,,,"['Very unhappy', 'Very happy']",,5c4765349afd7b000196f770,16:29:54,27/03/2024
html-keyboard-response,146,342700,0.0-60.0-3.0-1.0,,,,,,mood_baseline_fixation,TZbuBvRpS9S403z5S6IxCWxW0Ja2,,,,,,,,,,,,,,,,,,,,,,,5c4765349afd7b000196f770,16:29:54,27/03/2024
html-keyboard-response,147,345012,0.0-61.0,,"<div style=""font-size:100px;"">+</div>",,delaylearn,learning,ITI,TZbuBvRpS9S403z5S6IxCWxW0Ja2,TZbuBvRpS9S403z5S6IxCWxW0Ja2,,,,,,,,,,,,,,,,,,,2297.0,,,5c4765349afd7b000196f770,16:29:54,27/03/2024
html-keyboard-response,148,345714,0.0-62.0-0.0,697.5,"<div style=""display: flex; flex-direction: column; align-items: center; margin-top: -40px;""><img src=""images/pattern_7.png"" style=""width: 234px; height: 230px; margin-top: -50px;""><div style=""display: flex; justify-content: space-between; margin-top: 33px;""><img src=""images/choice_trial_4.png"" style=""width: 408px; height: 417px; margin-right: 200px;""><img src=""images/choice_trial_13.png"" style=""width: 408px; height: 417px;""></div></div>",f,delaylearn,learning,trial,TZbuBvRpS9S403z5S6IxCWxW0Ja2,TZbuBvRpS9S403z5S6IxCWxW0Ja2,4.0,images/choice_trial_4.png,images/choice_trial_13.png,images/pattern_7.png,j,j,750.0,4.0,13.0,6.0,1.0,27.0,0.0,0.0,4.0,180.0,,,,,,5c4765349afd7b000196f770,16:29:54,27/03/2024
html-keyboard-response,149,346730,0.0-62.0-1.0,,"<div style=""display: flex; flex-direction: column; align-items: center; margin-top: -40px;""><img src=""images/pattern_7.png"" style=""width: 234px; height: 230px; margin-top: -50px;""><div style=""display: flex; justify-content: space-between; margin-top: 33px;""><img src=""images/choice_trial_4.png"" style=""width: 408px; height: 417px; margin-right: 608px;""></div></div>",,delaylearn,learning,display_response,TZbuBvRpS9S403z5S6IxCWxW0Ja2,TZbuBvRpS9S403z5S6IxCWxW0Ja2,,,,,,,,,,,,,,,,,chosen stimuli: images/choice_trial_4.png,,,,,5c4765349afd7b000196f770,16:29:54,27/03/2024
html-keyboard-response,150,347485,0.0-62.0-2.0,,,,delaylearn,learning,feedback_duration_window,TZbuBvRpS9S403z5S6IxCWxW0Ja2,TZbuBvRpS9S403z5S6IxCWxW0Ja2,,,,,,,,,,,,,,,,,,750.0,,,,5c4765349afd7b000196f770,16:29:54,27/03/2024
html-keyboard-response,151,348994,0.0-62.0-3.0,,<div style='margin:auto;width: auto; font-size: 150%'><span style='font-weight: bold; font-size: 100px; color: red;'>0 points!</span><br><br></div>,,delaylearn,learning,feedback_image_window,TZbuBvRpS9S403z5S6IxCWxW0Ja2,TZbuBvRpS9S403z5S6IxCWxW0Ja2,,,,,,,,,,,,,,,,,,,,,,5c4765349afd7b000196f770,16:29:54,27/03/2024
html-keyboard-response,152,349500,0.0-63.0-0.0,,,,,,mood_trial_fixation,TZbuBvRpS9S403z5S6IxCWxW0Ja2,,,,,,,,,,,,,,,,,,,,,,,5c4765349afd7b000196f770,16:29:54,27/03/2024
lmdlab-html-vas-response,153,353115,0.0-63.0-1.0,2599.0,How happy are you right now?,0.22800921991120057,delaylearn,learning,mood_trial,TZbuBvRpS9S403z5S6IxCWxW0Ja2,TZbuBvRpS9S403z5S6IxCWxW0Ja2,,,,,,,,,,,,,,,,,,,,"['Very unhappy', 'Very happy']",,5c4765349afd7b000196f770,16:29:54,27/03/2024
html-keyboard-response,154,355278,0.0-64.0,,"<div style=""font-size:100px;"">+</div>",,delaylearn,learning,ITI,TZbuBvRpS9S403z5S6IxCWxW0Ja2,TZbuBvRpS9S403z5S6IxCWxW0Ja2,,,,,,,,,,,,,,,,,,,2159.0,,,5c4765349afd7b000196f770,16:29:54,27/03/2024
html-keyboard-response,155,356494,0.0-65.0-0.0,1212.7000000476837,"<div style=""display: flex; flex-direction: column; align-items: center; margin-top: -40px;""><img src=""images/pattern_1.png"" style=""width: 234px; height: 230px; margin-top: -50px;""><div style=""display: flex; justify-content: space-between; margin-top: 33px;""><img src=""images/choice_trial_1.png"" style=""width: 408px; height: 417px; margin-right: 200px;""><img src=""images/choice_trial_9.png"" style=""width: 408px; height: 417px;""></div></div>",j,delaylearn,learning,trial,TZbuBvRpS9S403z5S6IxCWxW0Ja2,TZbuBvRpS9S403z5S6IxCWxW0Ja2,4.0,images/choice_trial_1.png,images/choice_trial_9.png,images/pattern_1.png,f,f,7000.0,1.0,9.0,1.0,0.0,28.0,0.0,0.0,9.0,180.0,,,,,,5c4765349afd7b000196f770,16:29:54,27/03/2024
html-keyboard-response,156,357511,0.0-65.0-1.0,,"<div style=""display: flex; flex-direction: column; align-items: center; margin-top: -40px;""><img src=""images/pattern_1.png"" style=""width: 234px; height: 230px; margin-top: -50px;""><div style=""display: flex; justify-content: space-between; margin-top: 33px;""><img src=""images/choice_trial_9.png"" style=""width: 408px; height: 417px; margin-left:608px;""></div></div>",,delaylearn,learning,display_response,TZbuBvRpS9S403z5S6IxCWxW0Ja2,TZbuBvRpS9S403z5S6IxCWxW0Ja2,,,,,,,,,,,,,,,,,chosen stimuli: images/choice_trial_9.png,,,,,5c4765349afd7b000196f770,16:29:54,27/03/2024
html-keyboard-response,157,364522,0.0-65.0-2.0,,,,delaylearn,learning,feedback_duration_window,TZbuBvRpS9S403z5S6IxCWxW0Ja2,TZbuBvRpS9S403z5S6IxCWxW0Ja2,,,,,,,,,,,,,,,,,,7000.0,,,,5c4765349afd7b000196f770,16:29:54,27/03/2024
html-keyboard-response,158,366028,0.0-65.0-3.0,,<div style='margin:auto;width: auto; font-size: 150%'><span style='font-weight: bold; font-size: 100px; color: red;'>0 points!</span><br><br></div>,,delaylearn,learning,feedback_image_window,TZbuBvRpS9S403z5S6IxCWxW0Ja2,TZbuBvRpS9S403z5S6IxCWxW0Ja2,,,,,,,,,,,,,,,,,,,,,,5c4765349afd7b000196f770,16:29:54,27/03/2024
html-keyboard-response,159,367752,0.0-66.0,,"<div style=""font-size:100px;"">+</div>",,delaylearn,learning,ITI,TZbuBvRpS9S403z5S6IxCWxW0Ja2,TZbuBvRpS9S403z5S6IxCWxW0Ja2,,,,,,,,,,,,,,,,,,,1715.0,,,5c4765349afd7b000196f770,16:29:54,27/03/2024
html-keyboard-response,160,368676,0.0-67.0-0.0,919.7000000476837,"<div style=""display: flex; flex-direction: column; align-items: center; margin-top: -40px;""><img src=""images/pattern_5.png"" style=""width: 234px; height: 230px; margin-top: -50px;""><div style=""display: flex; justify-content: space-between; margin-top: 33px;""><img src=""images/choice_trial_5.png"" style=""width: 408px; height: 417px; margin-right: 200px;""><img src=""images/choice_trial_15.png"" style=""width: 408px; height: 417px;""></div></div>",f,delaylearn,learning,trial,TZbuBvRpS9S403z5S6IxCWxW0Ja2,TZbuBvRpS9S403z5S6IxCWxW0Ja2,4.0,images/choice_trial_5.png,images/choice_trial_15.png,images/pattern_5.png,f,f,750.0,5.0,15.0,4.0,0.0,29.0,1.0,1.0,5.0,190.0,,,,,,5c4765349afd7b000196f770,16:29:54,27/03/2024
html-keyboard-response,161,369683,0.0-67.0-1.0,,"<div style=""display: flex; flex-direction: column; align-items: center; margin-top: -40px;""><img src=""images/pattern_5.png"" style=""width: 234px; height: 230px; margin-top: -50px;""><div style=""display: flex; justify-content: space-between; margin-top: 33px;""><img src=""images/choice_trial_5.png"" style=""width: 408px; height: 417px; margin-right: 608px;""></div></div>",,delaylearn,learning,display_response,TZbuBvRpS9S403z5S6IxCWxW0Ja2,TZbuBvRpS9S403z5S6IxCWxW0Ja2,,,,,,,,,,,,,,,,,chosen stimuli: images/choice_trial_5.png,,,,,5c4765349afd7b000196f770,16:29:54,27/03/2024
html-keyboard-response,162,370435,0.0-67.0-2.0,,,,delaylearn,learning,feedback_duration_window,TZbuBvRpS9S403z5S6IxCWxW0Ja2,TZbuBvRpS9S403z5S6IxCWxW0Ja2,,,,,,,,,,,,,,,,,,750.0,,,,5c4765349afd7b000196f770,16:29:54,27/03/2024
html-keyboard-response,163,371940,0.0-67.0-3.0,,<div style='margin:auto;width: auto; font-size: 150%'><span style='font-weight: bold; font-size: 100px; color: green;'>+10 points!</span><br><br></div>,,delaylearn,learning,feedback_image_window,TZbuBvRpS9S403z5S6IxCWxW0Ja2,TZbuBvRpS9S403z5S6IxCWxW0Ja2,,,,,,,,,,,,,,,,,,,,,,5c4765349afd7b000196f770,16:29:54,27/03/2024
html-keyboard-response,164,373555,0.0-68.0,,"<div style=""font-size:100px;"">+</div>",,delaylearn,learning,ITI,TZbuBvRpS9S403z5S6IxCWxW0Ja2,TZbuBvRpS9S403z5S6IxCWxW0Ja2,,,,,,,,,,,,,,,,,,,1608.0,,,5c4765349afd7b000196f770,16:29:54,27/03/2024
html-keyboard-response,165,374811,0.0-69.0-0.0,1252.4000000953674,"<div style=""display: flex; flex-direction: column; align-items: center; margin-top: -40px;""><img src=""images/pattern_6.png"" style=""width: 234px; height: 230px; margin-top: -50px;""><div style=""display: flex; justify-content: space-between; margin-top: 33px;""><img src=""images/choice_trial_3.png"" style=""width: 408px; height: 417px; margin-right: 200px;""><img src=""images/choice_trial_10.png"" style=""width: 408px; height: 417px;""></div></div>",j,delaylearn,learning,trial,TZbuBvRpS9S403z5S6IxCWxW0Ja2,TZbuBvRpS9S403z5S6IxCWxW0Ja2,4.0,images/choice_trial_3.png,images/choice_trial_10.png,images/pattern_6.png,j,j,750.0,3.0,10.0,5.0,1.0,30.0,1.0,1.0,10.0,200.0,,,,,,5c4765349afd7b000196f770,16:29:54,27/03/2024
html-keyboard-response,166,375825,0.0-69.0-1.0,,"<div style=""display: flex; flex-direction: column; align-items: center; margin-top: -40px;""><img src=""images/pattern_6.png"" style=""width: 234px; height: 230px; margin-top: -50px;""><div style=""display: flex; justify-content: space-between; margin-top: 33px;""><img src=""images/choice_trial_10.png"" style=""width: 408px; height: 417px; margin-left:608px;""></div></div>",,delaylearn,learning,display_response,TZbuBvRpS9S403z5S6IxCWxW0Ja2,TZbuBvRpS9S403z5S6IxCWxW0Ja2,,,,,,,,,,,,,,,,,chosen stimuli: images/choice_trial_10.png,,,,,5c4765349afd7b000196f770,16:29:54,27/03/2024
html-keyboard-response,167,376580,0.0-69.0-2.0,,,,delaylearn,learning,feedback_duration_window,TZbuBvRpS9S403z5S6IxCWxW0Ja2,TZbuBvRpS9S403z5S6IxCWxW0Ja2,,,,,,,,,,,,,,,,,,750.0,,,,5c4765349afd7b000196f770,16:29:54,27/03/2024
html-keyboard-response,168,378091,0.0-69.0-3.0,,<div style='margin:auto;width: auto; font-size: 150%'><span style='font-weight: bold; font-size: 100px; color: green;'>+10 points!</span><br><br></div>,,delaylearn,learning,feedback_image_window,TZbuBvRpS9S403z5S6IxCWxW0Ja2,TZbuBvRpS9S403z5S6IxCWxW0Ja2,,,,,,,,,,,,,,,,,,,,,,5c4765349afd7b000196f770,16:29:54,27/03/2024
html-keyboard-response,169,378598,0.0-70.0-0.0,,,,,,mood_trial_fixation,TZbuBvRpS9S403z5S6IxCWxW0Ja2,,,,,,,,,,,,,,,,,,,,,,,5c4765349afd7b000196f770,16:29:54,27/03/2024
lmdlab-html-vas-response,170,381937,0.0-70.0-1.0,2322.0,How happy are you right now?,0.3032407000640463,delaylearn,learning,mood_trial,TZbuBvRpS9S403z5S6IxCWxW0Ja2,TZbuBvRpS9S403z5S6IxCWxW0Ja2,,,,,,,,,,,,,,,,,,,,"['Very unhappy', 'Very happy']",,5c4765349afd7b000196f770,16:29:54,27/03/2024
html-keyboard-response,171,383903,0.0-71.0,,"<div style=""font-size:100px;"">+</div>",,delaylearn,learning,ITI,TZbuBvRpS9S403z5S6IxCWxW0Ja2,TZbuBvRpS9S403z5S6IxCWxW0Ja2,,,,,,,,,,,,,,,,,,,1962.0,,,5c4765349afd7b000196f770,16:29:54,27/03/2024
html-keyboard-response,172,385096,0.0-72.0-0.0,1188.6000001430511,"<div style=""display: flex; flex-direction: column; align-items: center; margin-top: -40px;""><img src=""images/pattern_4.png"" style=""width: 234px; height: 230px; margin-top: -50px;""><div style=""display: flex; justify-content: space-between; margin-top: 33px;""><img src=""images/choice_trial_7.png"" style=""width: 408px; height: 417px; margin-right: 200px;""><img src=""images/choice_trial_8.png"" style=""width: 408px; height: 417px;""></div></div>",f,delaylearn,learning,trial,TZbuBvRpS9S403z5S6IxCWxW0Ja2,TZbuBvRpS9S403z5S6IxCWxW0Ja2,4.0,images/choice_trial_7.png,images/choice_trial_8.png,images/pattern_4.png,j,j,7000.0,7.0,8.0,3.0,1.0,31.0,0.0,0.0,7.0,200.0,,,,,,5c4765349afd7b000196f770,16:29:54,27/03/2024
html-keyboard-response,173,386103,0.0-72.0-1.0,,"<div style=""display: flex; flex-direction: column; align-items: center; margin-top: -40px;""><img src=""images/pattern_4.png"" style=""width: 234px; height: 230px; margin-top: -50px;""><div style=""display: flex; justify-content: space-between; margin-top: 33px;""><img src=""images/choice_trial_7.png"" style=""width: 408px; height: 417px; margin-right: 608px;""></div></div>",,delaylearn,learning,display_response,TZbuBvRpS9S403z5S6IxCWxW0Ja2,TZbuBvRpS9S403z5S6IxCWxW0Ja2,,,,,,,,,,,,,,,,,chosen stimuli: images/choice_trial_7.png,,,,,5c4765349afd7b000196f770,16:29:54,27/03/2024
html-keyboard-response,174,393104,0.0-72.0-2.0,,,,delaylearn,learning,feedback_duration_window,TZbuBvRpS9S403z5S6IxCWxW0Ja2,TZbuBvRpS9S403z5S6IxCWxW0Ja2,,,,,,,,,,,,,,,,,,7000.0,,,,5c4765349afd7b000196f770,16:29:54,27/03/2024
html-keyboard-response,175,394608,0.0-72.0-3.0,,<div style='margin:auto;width: auto; font-size: 150%'><span style='font-weight: bold; font-size: 100px; color: red;'>0 points!</span><br><br></div>,,delaylearn,learning,feedback_image_window,TZbuBvRpS9S403z5S6IxCWxW0Ja2,TZbuBvRpS9S403z5S6IxCWxW0Ja2,,,,,,,,,,,,,,,,,,,,,,5c4765349afd7b000196f770,16:29:54,27/03/2024
html-keyboard-response,176,396465,0.0-73.0,,"<div style=""font-size:100px;"">+</div>",,delaylearn,learning,ITI,TZbuBvRpS9S403z5S6IxCWxW0Ja2,TZbuBvRpS9S403z5S6IxCWxW0Ja2,,,,,,,,,,,,,,,,,,,1844.0,,,5c4765349afd7b000196f770,16:29:54,27/03/2024
html-keyboard-response,177,397806,0.0-74.0-0.0,1336.2999999523163,"<div style=""display: flex; flex-direction: column; align-items: center; margin-top: -40px;""><img src=""images/pattern_3.png"" style=""width: 234px; height: 230px; margin-top: -50px;""><div style=""display: flex; justify-content: space-between; margin-top: 33px;""><img src=""images/choice_trial_6.png"" style=""width: 408px; height: 417px; margin-right: 200px;""><img src=""images/choice_trial_16.png"" style=""width: 408px; height: 417px;""></div></div>",j,delaylearn,learning,trial,TZbuBvRpS9S403z5S6IxCWxW0Ja2,TZbuBvRpS9S403z5S6IxCWxW0Ja2,4.0,images/choice_trial_6.png,images/choice_trial_16.png,images/pattern_3.png,j,j,7000.0,6.0,16.0,2.0,1.0,32.0,1.0,1.0,16.0,210.0,,,,,,5c4765349afd7b000196f770,16:29:54,27/03/2024
html-keyboard-response,178,398815,0.0-74.0-1.0,,"<div style=""display: flex; flex-direction: column; align-items: center; margin-top: -40px;""><img src=""images/pattern_3.png"" style=""width: 234px; height: 230px; margin-top: -50px;""><div style=""display: flex; justify-content: space-between; margin-top: 33px;""><img src=""images/choice_trial_16.png"" style=""width: 408px; height: 417px; margin-left:608px;""></div></div>",,delaylearn,learning,display_response,TZbuBvRpS9S403z5S6IxCWxW0Ja2,TZbuBvRpS9S403z5S6IxCWxW0Ja2,,,,,,,,,,,,,,,,,chosen stimuli: images/choice_trial_16.png,,,,,5c4765349afd7b000196f770,16:29:54,27/03/2024
html-keyboard-response,179,405822,0.0-74.0-2.0,,,,delaylearn,learning,feedback_duration_window,TZbuBvRpS9S403z5S6IxCWxW0Ja2,TZbuBvRpS9S403z5S6IxCWxW0Ja2,,,,,,,,,,,,,,,,,,7000.0,,,,5c4765349afd7b000196f770,16:29:54,27/03/2024
html-keyboard-response,180,407328,0.0-74.0-3.0,,<div style='margin:auto;width: auto; font-size: 150%'><span style='font-weight: bold; font-size: 100px; color: green;'>+10 points!</span><br><br></div>,,delaylearn,learning,feedback_image_window,TZbuBvRpS9S403z5S6IxCWxW0Ja2,TZbuBvRpS9S403z5S6IxCWxW0Ja2,,,,,,,,,,,,,,,,,,,,,,5c4765349afd7b000196f770,16:29:54,27/03/2024
html-keyboard-response,181,409560,0.0-75.0,,"<div style=""font-size:100px;"">+</div>",,delaylearn,learning,ITI,TZbuBvRpS9S403z5S6IxCWxW0Ja2,TZbuBvRpS9S403z5S6IxCWxW0Ja2,,,,,,,,,,,,,,,,,,,2228.0,,,5c4765349afd7b000196f770,16:29:54,27/03/2024
html-keyboard-response,182,410250,0.0-76.0-0.0,686.5,"<div style=""display: flex; flex-direction: column; align-items: center; margin-top: -40px;""><img src=""images/pattern_5.png"" style=""width: 234px; height: 230px; margin-top: -50px;""><div style=""display: flex; justify-content: space-between; margin-top: 33px;""><img src=""images/choice_trial_5.png"" style=""width: 408px; height: 417px; margin-right: 200px;""><img src=""images/choice_trial_15.png"" style=""width: 408px; height: 417px;""></div></div>",f,delaylearn,learning,trial,TZbuBvRpS9S403z5S6IxCWxW0Ja2,TZbuBvRpS9S403z5S6IxCWxW0Ja2,4.0,images/choice_trial_5.png,images/choice_trial_15.png,images/pattern_5.png,j,f,750.0,5.0,15.0,4.0,0.0,33.0,1.0,0.0,5.0,210.0,,,,,,5c4765349afd7b000196f770,16:29:54,27/03/2024
html-keyboard-response,183,411260,0.0-76.0-1.0,,"<div style=""display: flex; flex-direction: column; align-items: center; margin-top: -40px;""><img src=""images/pattern_5.png"" style=""width: 234px; height: 230px; margin-top: -50px;""><div style=""display: flex; justify-content: space-between; margin-top: 33px;""><img src=""images/choice_trial_5.png"" style=""width: 408px; height: 417px; margin-right: 608px;""></div></div>",,delaylearn,learning,display_response,TZbuBvRpS9S403z5S6IxCWxW0Ja2,TZbuBvRpS9S403z5S6IxCWxW0Ja2,,,,,,,,,,,,,,,,,chosen stimuli: images/choice_trial_5.png,,,,,5c4765349afd7b000196f770,16:29:54,27/03/2024
html-keyboard-response,184,412027,0.0-76.0-2.0,,,,delaylearn,learning,feedback_duration_window,TZbuBvRpS9S403z5S6IxCWxW0Ja2,TZbuBvRpS9S403z5S6IxCWxW0Ja2,,,,,,,,,,,,,,,,,,750.0,,,,5c4765349afd7b000196f770,16:29:54,27/03/2024
html-keyboard-response,185,413536,0.0-76.0-3.0,,<div style='margin:auto;width: auto; font-size: 150%'><span style='font-weight: bold; font-size: 100px; color: red;'>0 points!</span><br><br></div>,,delaylearn,learning,feedback_image_window,TZbuBvRpS9S403z5S6IxCWxW0Ja2,TZbuBvRpS9S403z5S6IxCWxW0Ja2,,,,,,,,,,,,,,,,,,,,,,5c4765349afd7b000196f770,16:29:54,27/03/2024
html-keyboard-response,186,415535,0.0-77.0,,"<div style=""font-size:100px;"">+</div>",,delaylearn,learning,ITI,TZbuBvRpS9S403z5S6IxCWxW0Ja2,TZbuBvRpS9S403z5S6IxCWxW0Ja2,,,,,,,,,,,,,,,,,,,1992.0,,,5c4765349afd7b000196f770,16:29:54,27/03/2024
html-keyboard-response,187,418546,0.0-78.0-0.0,,"<div style=""display: flex; flex-direction: column; align-items: center; margin-top: -40px;""><img src=""images/pattern_1.png"" style=""width: 234px; height: 230px; margin-top: -50px;""><div style=""display: flex; justify-content: space-between; margin-top: 33px;""><img src=""images/choice_trial_1.png"" style=""width: 408px; height: 417px; margin-right: 200px;""><img src=""images/choice_trial_9.png"" style=""width: 408px; height: 417px;""></div></div>",,delaylearn,learning,trial,TZbuBvRpS9S403z5S6IxCWxW0Ja2,TZbuBvRpS9S403z5S6IxCWxW0Ja2,4.0,images/choice_trial_1.png,images/choice_trial_9.png,images/pattern_1.png,f,f,7000.0,1.0,9.0,1.0,0.0,34.0,0.0,0.0,0.0,210.0,,,,,,5c4765349afd7b000196f770,16:29:54,27/03/2024
html-keyboard-response,188,419560,0.0-78.0-1.0,,<div style='font-weight: bold; font-size: 75px; color: red;'>Missed Trial <br><br><br><br> Please respond faster</div>,,delaylearn,learning,display_response,TZbuBvRpS9S403z5S6IxCWxW0Ja2,TZbuBvRpS9S403z5S6IxCWxW0Ja2,,,,,,,,,,,,,,,,,Missed trial,,,,,5c4765349afd7b000196f770,16:29:54,27/03/2024
html-keyboard-response,189,419566,0.0-78.0-2.0,,,,delaylearn,learning,feedback_duration_window,TZbuBvRpS9S403z5S6IxCWxW0Ja2,TZbuBvRpS9S403z5S6IxCWxW0Ja2,,,,,,,,,,,,,,,,,,0.0,,,,5c4765349afd7b000196f770,16:29:54,27/03/2024
html-keyboard-response,190,419570,0.0-78.0-3.0,,,,delaylearn,learning,feedback_image_window,TZbuBvRpS9S403z5S6IxCWxW0Ja2,TZbuBvRpS9S403z5S6IxCWxW0Ja2,,,,,,,,,,,,,,,,,,,,,,5c4765349afd7b000196f770,16:29:54,27/03/2024
html-keyboard-response,191,420086,0.0-79.0-0.0,,,,,,mood_trial_fixation,TZbuBvRpS9S403z5S6IxCWxW0Ja2,,,,,,,,,,,,,,,,,,,,,,,5c4765349afd7b000196f770,16:29:54,27/03/2024
lmdlab-html-vas-response,192,427328,0.0-79.0-1.0,6239.0,How happy are you right now?,0.08622681500776053,delaylearn,learning,mood_trial,TZbuBvRpS9S403z5S6IxCWxW0Ja2,TZbuBvRpS9S403z5S6IxCWxW0Ja2,,,,,,,,,,,,,,,,,,,,"['Very unhappy', 'Very happy']",,5c4765349afd7b000196f770,16:29:54,27/03/2024
html-keyboard-response,193,429423,0.0-80.0,,"<div style=""font-size:100px;"">+</div>",,delaylearn,learning,ITI,TZbuBvRpS9S403z5S6IxCWxW0Ja2,TZbuBvRpS9S403z5S6IxCWxW0Ja2,,,,,,,,,,,,,,,,,,,2085.0,,,5c4765349afd7b000196f770,16:29:54,27/03/2024
html-keyboard-response,194,430139,0.0-81.0-0.0,714.7999999523163,"<div style=""display: flex; flex-direction: column; align-items: center; margin-top: -40px;""><img src=""images/pattern_6.png"" style=""width: 234px; height: 230px; margin-top: -50px;""><div style=""display: flex; justify-content: space-between; margin-top: 33px;""><img src=""images/choice_trial_10.png"" style=""width: 408px; height: 417px; margin-right: 200px;""><img src=""images/choice_trial_3.png"" style=""width: 408px; height: 417px;""></div></div>",f,delaylearn,learning,trial,TZbuBvRpS9S403z5S6IxCWxW0Ja2,TZbuBvRpS9S403z5S6IxCWxW0Ja2,4.0,images/choice_trial_10.png,images/choice_trial_3.png,images/pattern_6.png,j,f,750.0,10.0,3.0,5.0,0.0,35.0,1.0,0.0,10.0,210.0,,,,,,5c4765349afd7b000196f770,16:29:54,27/03/2024
html-keyboard-response,195,431147,0.0-81.0-1.0,,"<div style=""display: flex; flex-direction: column; align-items: center; margin-top: -40px;""><img src=""images/pattern_6.png"" style=""width: 234px; height: 230px; margin-top: -50px;""><div style=""display: flex; justify-content: space-between; margin-top: 33px;""><img src=""images/choice_trial_10.png"" style=""width: 408px; height: 417px; margin-right: 608px;""></div></div>",,delaylearn,learning,display_response,TZbuBvRpS9S403z5S6IxCWxW0Ja2,TZbuBvRpS9S403z5S6IxCWxW0Ja2,,,,,,,,,,,,,,,,,chosen stimuli: images/choice_trial_10.png,,,,,5c4765349afd7b000196f770,16:29:54,27/03/2024
html-keyboard-response,196,431902,0.0-81.0-2.0,,,,delaylearn,learning,feedback_duration_window,TZbuBvRpS9S403z5S6IxCWxW0Ja2,TZbuBvRpS9S403z5S6IxCWxW0Ja2,,,,,,,,,,,,,,,,,,750.0,,,,5c4765349afd7b000196f770,16:29:54,27/03/2024
html-keyboard-response,197,433412,0.0-81.0-3.0,,<div style='margin:auto;width: auto; font-size: 150%'><span style='font-weight: bold; font-size: 100px; color: red;'>0 points!</span><br><br></div>,,delaylearn,learning,feedback_image_window,TZbuBvRpS9S403z5S6IxCWxW0Ja2,TZbuBvRpS9S403z5S6IxCWxW0Ja2,,,,,,,,,,,,,,,,,,,,,,5c4765349afd7b000196f770,16:29:54,27/03/2024
html-keyboard-response,198,435528,0.0-82.0,,"<div style=""font-size:100px;"">+</div>",,delaylearn,learning,ITI,TZbuBvRpS9S403z5S6IxCWxW0Ja2,TZbuBvRpS9S403z5S6IxCWxW0Ja2,,,,,,,,,,,,,,,,,,,2103.0,,,5c4765349afd7b000196f770,16:29:54,27/03/2024
html-keyboard-response,199,436254,0.0-83.0-0.0,722.0,"<div style=""display: flex; flex-direction: column; align-items: center; margin-top: -40px;""><img src=""images/pattern_3.png"" style=""width: 234px; height: 230px; margin-top: -50px;""><div style=""display: flex; justify-content: space-between; margin-top: 33px;""><img src=""images/choice_trial_6.png"" style=""width: 408px; height: 417px; margin-right: 200px;""><img src=""images/choice_trial_16.png"" style=""width: 408px; height: 417px;""></div></div>",j,delaylearn,learning,trial,TZbuBvRpS9S403z5S6IxCWxW0Ja2,TZbuBvRpS9S403z5S6IxCWxW0Ja2,4.0,images/choice_trial_6.png,images/choice_trial_16.png,images/pattern_3.png,j,j,7000.0,6.0,16.0,2.0,1.0,36.0,1.0,1.0,16.0,220.0,,,,,,5c4765349afd7b000196f770,16:29:54,27/03/2024
html-keyboard-response,200,437268,0.0-83.0-1.0,,"<div style=""display: flex; flex-direction: column; align-items: center; margin-top: -40px;""><img src=""images/pattern_3.png"" style=""width: 234px; height: 230px; margin-top: -50px;""><div style=""display: flex; justify-content: space-between; margin-top: 33px;""><img src=""images/choice_trial_16.png"" style=""width: 408px; height: 417px; margin-left:608px;""></div></div>",,delaylearn,learning,display_response,TZbuBvRpS9S403z5S6IxCWxW0Ja2,TZbuBvRpS9S403z5S6IxCWxW0Ja2,,,,,,,,,,,,,,,,,chosen stimuli: images/choice_trial_16.png,,,,,5c4765349afd7b000196f770,16:29:54,27/03/2024
html-keyboard-response,201,444281,0.0-83.0-2.0,,,,delaylearn,learning,feedback_duration_window,TZbuBvRpS9S403z5S6IxCWxW0Ja2,TZbuBvRpS9S403z5S6IxCWxW0Ja2,,,,,,,,,,,,,,,,,,7000.0,,,,5c4765349afd7b000196f770,16:29:54,27/03/2024
html-keyboard-response,202,445797,0.0-83.0-3.0,,<div style='margin:auto;width: auto; font-size: 150%'><span style='font-weight: bold; font-size: 100px; color: green;'>+10 points!</span><br><br></div>,,delaylearn,learning,feedback_image_window,TZbuBvRpS9S403z5S6IxCWxW0Ja2,TZbuBvRpS9S403z5S6IxCWxW0Ja2,,,,,,,,,,,,,,,,,,,,,,5c4765349afd7b000196f770,16:29:54,27/03/2024
html-keyboard-response,203,448181,0.0-84.0,,"<div style=""font-size:100px;"">+</div>",,delaylearn,learning,ITI,TZbuBvRpS9S403z5S6IxCWxW0Ja2,TZbuBvRpS9S403z5S6IxCWxW0Ja2,,,,,,,,,,,,,,,,,,,2370.0,,,5c4765349afd7b000196f770,16:29:54,27/03/2024
html-keyboard-response,204,448954,0.0-85.0-0.0,769.2999999523163,"<div style=""display: flex; flex-direction: column; align-items: center; margin-top: -40px;""><img src=""images/pattern_4.png"" style=""width: 234px; height: 230px; margin-top: -50px;""><div style=""display: flex; justify-content: space-between; margin-top: 33px;""><img src=""images/choice_trial_7.png"" style=""width: 408px; height: 417px; margin-right: 200px;""><img src=""images/choice_trial_8.png"" style=""width: 408px; height: 417px;""></div></div>",f,delaylearn,learning,trial,TZbuBvRpS9S403z5S6IxCWxW0Ja2,TZbuBvRpS9S403z5S6IxCWxW0Ja2,4.0,images/choice_trial_7.png,images/choice_trial_8.png,images/pattern_4.png,f,j,7000.0,7.0,8.0,3.0,1.0,37.0,0.0,1.0,7.0,230.0,,,,,,5c4765349afd7b000196f770,16:29:54,27/03/2024
html-keyboard-response,205,449958,0.0-85.0-1.0,,"<div style=""display: flex; flex-direction: column; align-items: center; margin-top: -40px;""><img src=""images/pattern_4.png"" style=""width: 234px; height: 230px; margin-top: -50px;""><div style=""display: flex; justify-content: space-between; margin-top: 33px;""><img src=""images/choice_trial_7.png"" style=""width: 408px; height: 417px; margin-right: 608px;""></div></div>",,delaylearn,learning,display_response,TZbuBvRpS9S403z5S6IxCWxW0Ja2,TZbuBvRpS9S403z5S6IxCWxW0Ja2,,,,,,,,,,,,,,,,,chosen stimuli: images/choice_trial_7.png,,,,,5c4765349afd7b000196f770,16:29:54,27/03/2024
html-keyboard-response,206,456963,0.0-85.0-2.0,,,,delaylearn,learning,feedback_duration_window,TZbuBvRpS9S403z5S6IxCWxW0Ja2,TZbuBvRpS9S403z5S6IxCWxW0Ja2,,,,,,,,,,,,,,,,,,7000.0,,,,5c4765349afd7b000196f770,16:29:54,27/03/2024
html-keyboard-response,207,458472,0.0-85.0-3.0,,<div style='margin:auto;width: auto; font-size: 150%'><span style='font-weight: bold; font-size: 100px; color: green;'>+10 points!</span><br><br></div>,,delaylearn,learning,feedback_image_window,TZbuBvRpS9S403z5S6IxCWxW0Ja2,TZbuBvRpS9S403z5S6IxCWxW0Ja2,,,,,,,,,,,,,,,,,,,,,,5c4765349afd7b000196f770,16:29:54,27/03/2024
html-keyboard-response,208,460075,0.0-86.0,,"<div style=""font-size:100px;"">+</div>",,delaylearn,learning,ITI,TZbuBvRpS9S403z5S6IxCWxW0Ja2,TZbuBvRpS9S403z5S6IxCWxW0Ja2,,,,,,,,,,,,,,,,,,,1590.0,,,5c4765349afd7b000196f770,16:29:54,27/03/2024
html-keyboard-response,209,461286,0.0-87.0-0.0,1206.8000001907349,"<div style=""display: flex; flex-direction: column; align-items: center; margin-top: -40px;""><img src=""images/pattern_7.png"" style=""width: 234px; height: 230px; margin-top: -50px;""><div style=""display: flex; justify-content: space-between; margin-top: 33px;""><img src=""images/choice_trial_13.png"" style=""width: 408px; height: 417px; margin-right: 200px;""><img src=""images/choice_trial_4.png"" style=""width: 408px; height: 417px;""></div></div>",j,delaylearn,learning,trial,TZbuBvRpS9S403z5S6IxCWxW0Ja2,TZbuBvRpS9S403z5S6IxCWxW0Ja2,4.0,images/choice_trial_13.png,images/choice_trial_4.png,images/pattern_7.png,f,f,750.0,13.0,4.0,6.0,0.0,38.0,0.0,0.0,4.0,230.0,,,,,,5c4765349afd7b000196f770,16:29:54,27/03/2024
html-keyboard-response,210,462293,0.0-87.0-1.0,,"<div style=""display: flex; flex-direction: column; align-items: center; margin-top: -40px;""><img src=""images/pattern_7.png"" style=""width: 234px; height: 230px; margin-top: -50px;""><div style=""display: flex; justify-content: space-between; margin-top: 33px;""><img src=""images/choice_trial_4.png"" style=""width: 408px; height: 417px; margin-left:608px;""></div></div>",,delaylearn,learning,display_response,TZbuBvRpS9S403z5S6IxCWxW0Ja2,TZbuBvRpS9S403z5S6IxCWxW0Ja2,,,,,,,,,,,,,,,,,chosen stimuli: images/choice_trial_4.png,,,,,5c4765349afd7b000196f770,16:29:54,27/03/2024
html-keyboard-response,211,463049,0.0-87.0-2.0,,,,delaylearn,learning,feedback_duration_window,TZbuBvRpS9S403z5S6IxCWxW0Ja2,TZbuBvRpS9S403z5S6IxCWxW0Ja2,,,,,,,,,,,,,,,,,,750.0,,,,5c4765349afd7b000196f770,16:29:54,27/03/2024
html-keyboard-response,212,464559,0.0-87.0-3.0,,<div style='margin:auto;width: auto; font-size: 150%'><span style='font-weight: bold; font-size: 100px; color: red;'>0 points!</span><br><br></div>,,delaylearn,learning,feedback_image_window,TZbuBvRpS9S403z5S6IxCWxW0Ja2,TZbuBvRpS9S403z5S6IxCWxW0Ja2,,,,,,,,,,,,,,,,,,,,,,5c4765349afd7b000196f770,16:29:54,27/03/2024
html-keyboard-response,213,466585,0.0-88.0,,"<div style=""font-size:100px;"">+</div>",,delaylearn,learning,ITI,TZbuBvRpS9S403z5S6IxCWxW0Ja2,TZbuBvRpS9S403z5S6IxCWxW0Ja2,,,,,,,,,,,,,,,,,,,2013.0,,,5c4765349afd7b000196f770,16:29:54,27/03/2024
html-keyboard-response,214,467584,0.0-89.0-0.0,994.1999998092651,"<div style=""display: flex; flex-direction: column; align-items: center; margin-top: -40px;""><img src=""images/pattern_1.png"" style=""width: 234px; height: 230px; margin-top: -50px;""><div style=""display: flex; justify-content: space-between; margin-top: 33px;""><img src=""images/choice_trial_1.png"" style=""width: 408px; height: 417px; margin-right: 200px;""><img src=""images/choice_trial_9.png"" style=""width: 408px; height: 417px;""></div></div>",j,delaylearn,learning,trial,TZbuBvRpS9S403z5S6IxCWxW0Ja2,TZbuBvRpS9S403z5S6IxCWxW0Ja2,4.0,images/choice_trial_1.png,images/choice_trial_9.png,images/pattern_1.png,f,f,7000.0,1.0,9.0,1.0,0.0,39.0,0.0,0.0,9.0,230.0,,,,,,5c4765349afd7b000196f770,16:29:54,27/03/2024
html-keyboard-response,215,468598,0.0-89.0-1.0,,"<div style=""display: flex; flex-direction: column; align-items: center; margin-top: -40px;""><img src=""images/pattern_1.png"" style=""width: 234px; height: 230px; margin-top: -50px;""><div style=""display: flex; justify-content: space-between; margin-top: 33px;""><img src=""images/choice_trial_9.png"" style=""width: 408px; height: 417px; margin-left:608px;""></div></div>",,delaylearn,learning,display_response,TZbuBvRpS9S403z5S6IxCWxW0Ja2,TZbuBvRpS9S403z5S6IxCWxW0Ja2,,,,,,,,,,,,,,,,,chosen stimuli: images/choice_trial_9.png,,,,,5c4765349afd7b000196f770,16:29:54,27/03/2024
html-keyboard-response,216,475606,0.0-89.0-2.0,,,,delaylearn,learning,feedback_duration_window,TZbuBvRpS9S403z5S6IxCWxW0Ja2,TZbuBvRpS9S403z5S6IxCWxW0Ja2,,,,,,,,,,,,,,,,,,7000.0,,,,5c4765349afd7b000196f770,16:29:54,27/03/2024
html-keyboard-response,217,477118,0.0-89.0-3.0,,<div style='margin:auto;width: auto; font-size: 150%'><span style='font-weight: bold; font-size: 100px; color: red;'>0 points!</span><br><br></div>,,delaylearn,learning,feedback_image_window,TZbuBvRpS9S403z5S6IxCWxW0Ja2,TZbuBvRpS9S403z5S6IxCWxW0Ja2,,,,,,,,,,,,,,,,,,,,,,5c4765349afd7b000196f770,16:29:54,27/03/2024
html-keyboard-response,218,477624,0.0-90.0-0.0,,,,,,mood_trial_fixation,TZbuBvRpS9S403z5S6IxCWxW0Ja2,,,,,,,,,,,,,,,,,,,,,,,5c4765349afd7b000196f770,16:29:54,27/03/2024
lmdlab-html-vas-response,219,482367,0.0-90.0-1.0,3727.0,How happy are you right now?,0.13541662895385195,delaylearn,learning,mood_trial,TZbuBvRpS9S403z5S6IxCWxW0Ja2,TZbuBvRpS9S403z5S6IxCWxW0Ja2,,,,,,,,,,,,,,,,,,,,"['Very unhappy', 'Very happy']",,5c4765349afd7b000196f770,16:29:54,27/03/2024
html-keyboard-response,220,484336,0.0-91.0,,"<div style=""font-size:100px;"">+</div>",,delaylearn,learning,ITI,TZbuBvRpS9S403z5S6IxCWxW0Ja2,TZbuBvRpS9S403z5S6IxCWxW0Ja2,,,,,,,,,,,,,,,,,,,1954.0,,,5c4765349afd7b000196f770,16:29:54,27/03/2024
html-keyboard-response,221,485122,0.0-92.0-0.0,782.0999999046326,"<div style=""display: flex; flex-direction: column; align-items: center; margin-top: -40px;""><img src=""images/pattern_3.png"" style=""width: 234px; height: 230px; margin-top: -50px;""><div style=""display: flex; justify-content: space-between; margin-top: 33px;""><img src=""images/choice_trial_16.png"" style=""width: 408px; height: 417px; margin-right: 200px;""><img src=""images/choice_trial_6.png"" style=""width: 408px; height: 417px;""></div></div>",f,delaylearn,learning,trial,TZbuBvRpS9S403z5S6IxCWxW0Ja2,TZbuBvRpS9S403z5S6IxCWxW0Ja2,4.0,images/choice_trial_16.png,images/choice_trial_6.png,images/pattern_3.png,j,f,7000.0,16.0,6.0,2.0,0.0,40.0,1.0,0.0,16.0,230.0,,,,,,5c4765349afd7b000196f770,16:29:54,27/03/2024
html-keyboard-response,222,486128,0.0-92.0-1.0,,"<div style=""display: flex; flex-direction: column; align-items: center; margin-top: -40px;""><img src=""images/pattern_3.png"" style=""width: 234px; height: 230px; margin-top: -50px;""><div style=""display: flex; justify-content: space-between; margin-top: 33px;""><img src=""images/choice_trial_16.png"" style=""width: 408px; height: 417px; margin-right: 608px;""></div></div>",,delaylearn,learning,display_response,TZbuBvRpS9S403z5S6IxCWxW0Ja2,TZbuBvRpS9S403z5S6IxCWxW0Ja2,,,,,,,,,,,,,,,,,chosen stimuli: images/choice_trial_16.png,,,,,5c4765349afd7b000196f770,16:29:54,27/03/2024
html-keyboard-response,223,493135,0.0-92.0-2.0,,,,delaylearn,learning,feedback_duration_window,TZbuBvRpS9S403z5S6IxCWxW0Ja2,TZbuBvRpS9S403z5S6IxCWxW0Ja2,,,,,,,,,,,,,,,,,,7000.0,,,,5c4765349afd7b000196f770,16:29:54,27/03/2024
html-keyboard-response,224,494643,0.0-92.0-3.0,,<div style='margin:auto;width: auto; font-size: 150%'><span style='font-weight: bold; font-size: 100px; color: red;'>0 points!</span><br><br></div>,,delaylearn,learning,feedback_image_window,TZbuBvRpS9S403z5S6IxCWxW0Ja2,TZbuBvRpS9S403z5S6IxCWxW0Ja2,,,,,,,,,,,,,,,,,,,,,,5c4765349afd7b000196f770,16:29:54,27/03/2024
html-keyboard-response,225,496610,0.0-93.0,,"<div style=""font-size:100px;"">+</div>",,delaylearn,learning,ITI,TZbuBvRpS9S403z5S6IxCWxW0Ja2,TZbuBvRpS9S403z5S6IxCWxW0Ja2,,,,,,,,,,,,,,,,,,,1960.0,,,5c4765349afd7b000196f770,16:29:54,27/03/2024
html-keyboard-response,226,497573,0.0-94.0-0.0,959.7000000476837,"<div style=""display: flex; flex-direction: column; align-items: center; margin-top: -40px;""><img src=""images/pattern_7.png"" style=""width: 234px; height: 230px; margin-top: -50px;""><div style=""display: flex; justify-content: space-between; margin-top: 33px;""><img src=""images/choice_trial_4.png"" style=""width: 408px; height: 417px; margin-right: 200px;""><img src=""images/choice_trial_13.png"" style=""width: 408px; height: 417px;""></div></div>",f,delaylearn,learning,trial,TZbuBvRpS9S403z5S6IxCWxW0Ja2,TZbuBvRpS9S403z5S6IxCWxW0Ja2,4.0,images/choice_trial_4.png,images/choice_trial_13.png,images/pattern_7.png,j,j,750.0,4.0,13.0,6.0,1.0,41.0,0.0,0.0,4.0,230.0,,,,,,5c4765349afd7b000196f770,16:29:54,27/03/2024
html-keyboard-response,227,498581,0.0-94.0-1.0,,"<div style=""display: flex; flex-direction: column; align-items: center; margin-top: -40px;""><img src=""images/pattern_7.png"" style=""width: 234px; height: 230px; margin-top: -50px;""><div style=""display: flex; justify-content: space-between; margin-top: 33px;""><img src=""images/choice_trial_4.png"" style=""width: 408px; height: 417px; margin-right: 608px;""></div></div>",,delaylearn,learning,display_response,TZbuBvRpS9S403z5S6IxCWxW0Ja2,TZbuBvRpS9S403z5S6IxCWxW0Ja2,,,,,,,,,,,,,,,,,chosen stimuli: images/choice_trial_4.png,,,,,5c4765349afd7b000196f770,16:29:54,27/03/2024
html-keyboard-response,228,499334,0.0-94.0-2.0,,,,delaylearn,learning,feedback_duration_window,TZbuBvRpS9S403z5S6IxCWxW0Ja2,TZbuBvRpS9S403z5S6IxCWxW0Ja2,,,,,,,,,,,,,,,,,,750.0,,,,5c4765349afd7b000196f770,16:29:54,27/03/2024
html-keyboard-response,229,500840,0.0-94.0-3.0,,<div style='margin:auto;width: auto; font-size: 150%'><span style='font-weight: bold; font-size: 100px; color: red;'>0 points!</span><br><br></div>,,delaylearn,learning,feedback_image_window,TZbuBvRpS9S403z5S6IxCWxW0Ja2,TZbuBvRpS9S403z5S6IxCWxW0Ja2,,,,,,,,,,,,,,,,,,,,,,5c4765349afd7b000196f770,16:29:54,27/03/2024
html-keyboard-response,230,502745,0.0-95.0,,"<div style=""font-size:100px;"">+</div>",,delaylearn,learning,ITI,TZbuBvRpS9S403z5S6IxCWxW0Ja2,TZbuBvRpS9S403z5S6IxCWxW0Ja2,,,,,,,,,,,,,,,,,,,1902.0,,,5c4765349afd7b000196f770,16:29:54,27/03/2024
