trial_type,trial_index,time_elapsed,internal_node_id,rt,stimulus,response,exp_name,exp_stage,test_part,subjectID,databaseID,counterbal,choice_stimuli_1,choice_stimuli_2,pattern_stimuli,rewarded_answer,correct_answer,feedback_duration_times,stim_left,stim_right,pair,leftright_counter,trial,response_correct,response_rewarded,chosen_stim,counter,displayed_choice,feedback_durations,ITI_duration,labels,rest_warning,prolificID,start_time,date
pavlovia,0,522,0.0-0.0,,,,,,,ghx5kYXeDuSeRew3q9mlvXR5juv2,,,,,,,,,,,,,,,,,,,,,,,654ceaf9bea6ff323bef327c,09:05:34,27/02/2024
html-keyboard-response,1,3531,0.0-1.0,,"<div style=""font-size:100px;"">+</div>",,delaylearn,learning,pre_fixation,ghx5kYXeDuSeRew3q9mlvXR5juv2,,,,,,,,,,,,,,,,,,,,,,,654ceaf9bea6ff323bef327c,09:05:34,27/02/2024
html-keyboard-response,2,5649,0.0-2.0-0.0,2111.0,"<div style=""display: flex; flex-direction: column; align-items: center; margin-top: -40px;""><img src=""images/demo_images/pattern_1.png"" style=""width: 234px; height: 230px; margin-top: -50px;""><div style=""display: flex; justify-content: space-between; margin-top: 33px;""><img src=""images/demo_images/choice_trial_2.png"" style=""width: 408px; height: 417px; margin-right: 200px;""><img src=""images/demo_images/choice_trial_1.png"" style=""width: 408px; height: 417px;""></div></div>",f,delaylearn,learning,trial,ghx5kYXeDuSeRew3q9mlvXR5juv2,ghx5kYXeDuSeRew3q9mlvXR5juv2,5.0,images/demo_images/choice_trial_2.png,images/demo_images/choice_trial_1.png,images/demo_images/pattern_1.png,j,j,3000.0,2.0,1.0,20.0,1.0,1.0,0.0,0.0,2.0,0.0,,,,,,654ceaf9bea6ff323bef327c,09:05:34,27/02/2024
html-keyboard-response,3,6667,0.0-2.0-1.0,,"<div style=""display: flex; flex-direction: column; align-items: center; margin-top: -40px;""><img src=""images/demo_images/pattern_1.png"" style=""width: 234px; height: 230px; margin-top: -50px;""><div style=""display: flex; justify-content: space-between; margin-top: 33px;""><img src=""images/demo_images/choice_trial_2.png"" style=""width: 408px; height: 417px; margin-right: 608px;""></div></div>",,delaylearn,learning,display_response,ghx5kYXeDuSeRew3q9mlvXR5juv2,ghx5kYXeDuSeRew3q9mlvXR5juv2,,,,,,,,,,,,,,,,,chosen stimuli: images/demo_images/choice_trial_2.png,,,,,654ceaf9bea6ff323bef327c,09:05:34,27/02/2024
html-keyboard-response,4,9671,0.0-2.0-2.0,,,,delaylearn,learning,feedback_duration_window,ghx5kYXeDuSeRew3q9mlvXR5juv2,ghx5kYXeDuSeRew3q9mlvXR5juv2,,,,,,,,,,,,,,,,,,3000.0,,,,654ceaf9bea6ff323bef327c,09:05:34,27/02/2024
html-keyboard-response,5,11196,0.0-2.0-3.0,,<div style='margin:auto;width: auto; font-size: 150%'><span style='font-weight: bold; font-size: 100px; color: red;'>0 points!</span><br><br></div>,,delaylearn,learning,feedback_image_window,ghx5kYXeDuSeRew3q9mlvXR5juv2,ghx5kYXeDuSeRew3q9mlvXR5juv2,,,,,,,,,,,,,,,,,,,,,,654ceaf9bea6ff323bef327c,09:05:34,27/02/2024
html-keyboard-response,6,13298,0.0-3.0,,"<div style=""font-size:100px;"">+</div>",,delaylearn,learning,ITI,ghx5kYXeDuSeRew3q9mlvXR5juv2,ghx5kYXeDuSeRew3q9mlvXR5juv2,,,,,,,,,,,,,,,,,,,2081.0,,,654ceaf9bea6ff323bef327c,09:05:34,27/02/2024
html-keyboard-response,7,15168,0.0-4.0-0.0,1863.5999999642372,"<div style=""display: flex; flex-direction: column; align-items: center; margin-top: -40px;""><img src=""images/demo_images/pattern_1.png"" style=""width: 234px; height: 230px; margin-top: -50px;""><div style=""display: flex; justify-content: space-between; margin-top: 33px;""><img src=""images/demo_images/choice_trial_2.png"" style=""width: 408px; height: 417px; margin-right: 200px;""><img src=""images/demo_images/choice_trial_1.png"" style=""width: 408px; height: 417px;""></div></div>",j,delaylearn,learning,trial,ghx5kYXeDuSeRew3q9mlvXR5juv2,ghx5kYXeDuSeRew3q9mlvXR5juv2,5.0,images/demo_images/choice_trial_2.png,images/demo_images/choice_trial_1.png,images/demo_images/pattern_1.png,j,j,3000.0,2.0,1.0,20.0,1.0,2.0,1.0,1.0,1.0,10.0,,,,,,654ceaf9bea6ff323bef327c,09:05:34,27/02/2024
html-keyboard-response,8,16180,0.0-4.0-1.0,,"<div style=""display: flex; flex-direction: column; align-items: center; margin-top: -40px;""><img src=""images/demo_images/pattern_1.png"" style=""width: 234px; height: 230px; margin-top: -50px;""><div style=""display: flex; justify-content: space-between; margin-top: 33px;""><img src=""images/demo_images/choice_trial_1.png"" style=""width: 408px; height: 417px; margin-left:608px;""></div></div>",,delaylearn,learning,display_response,ghx5kYXeDuSeRew3q9mlvXR5juv2,ghx5kYXeDuSeRew3q9mlvXR5juv2,,,,,,,,,,,,,,,,,chosen stimuli: images/demo_images/choice_trial_1.png,,,,,654ceaf9bea6ff323bef327c,09:05:34,27/02/2024
html-keyboard-response,9,19184,0.0-4.0-2.0,,,,delaylearn,learning,feedback_duration_window,ghx5kYXeDuSeRew3q9mlvXR5juv2,ghx5kYXeDuSeRew3q9mlvXR5juv2,,,,,,,,,,,,,,,,,,3000.0,,,,654ceaf9bea6ff323bef327c,09:05:34,27/02/2024
html-keyboard-response,10,20708,0.0-4.0-3.0,,<div style='margin:auto;width: auto; font-size: 150%'><span style='font-weight: bold; font-size: 100px; color: green;'>+10 points!</span><br><br></div>,,delaylearn,learning,feedback_image_window,ghx5kYXeDuSeRew3q9mlvXR5juv2,ghx5kYXeDuSeRew3q9mlvXR5juv2,,,,,,,,,,,,,,,,,,,,,,654ceaf9bea6ff323bef327c,09:05:34,27/02/2024
html-keyboard-response,11,22958,0.0-5.0,,"<div style=""font-size:100px;"">+</div>",,delaylearn,learning,ITI,ghx5kYXeDuSeRew3q9mlvXR5juv2,ghx5kYXeDuSeRew3q9mlvXR5juv2,,,,,,,,,,,,,,,,,,,2226.0,,,654ceaf9bea6ff323bef327c,09:05:34,27/02/2024
html-keyboard-response,12,25902,0.0-6.0-0.0,2940.400000035763,"<div style=""display: flex; flex-direction: column; align-items: center; margin-top: -40px;""><img src=""images/demo_images/pattern_1.png"" style=""width: 234px; height: 230px; margin-top: -50px;""><div style=""display: flex; justify-content: space-between; margin-top: 33px;""><img src=""images/demo_images/choice_trial_1.png"" style=""width: 408px; height: 417px; margin-right: 200px;""><img src=""images/demo_images/choice_trial_2.png"" style=""width: 408px; height: 417px;""></div></div>",f,delaylearn,learning,trial,ghx5kYXeDuSeRew3q9mlvXR5juv2,ghx5kYXeDuSeRew3q9mlvXR5juv2,5.0,images/demo_images/choice_trial_1.png,images/demo_images/choice_trial_2.png,images/demo_images/pattern_1.png,j,f,3000.0,1.0,2.0,20.0,0.0,3.0,1.0,0.0,1.0,10.0,,,,,,654ceaf9bea6ff323bef327c,09:05:34,27/02/2024
html-keyboard-response,13,26916,0.0-6.0-1.0,,"<div style=""display: flex; flex-direction: column; align-items: center; margin-top: -40px;""><img src=""images/demo_images/pattern_1.png"" style=""width: 234px; height: 230px; margin-top: -50px;""><div style=""display: flex; justify-content: space-between; margin-top: 33px;""><img src=""images/demo_images/choice_trial_1.png"" style=""width: 408px; height: 417px; margin-right: 608px;""></div></div>",,delaylearn,learning,display_response,ghx5kYXeDuSeRew3q9mlvXR5juv2,ghx5kYXeDuSeRew3q9mlvXR5juv2,,,,,,,,,,,,,,,,,chosen stimuli: images/demo_images/choice_trial_1.png,,,,,654ceaf9bea6ff323bef327c,09:05:34,27/02/2024
html-keyboard-response,14,29919,0.0-6.0-2.0,,,,delaylearn,learning,feedback_duration_window,ghx5kYXeDuSeRew3q9mlvXR5juv2,ghx5kYXeDuSeRew3q9mlvXR5juv2,,,,,,,,,,,,,,,,,,3000.0,,,,654ceaf9bea6ff323bef327c,09:05:34,27/02/2024
html-keyboard-response,15,31437,0.0-6.0-3.0,,<div style='margin:auto;width: auto; font-size: 150%'><span style='font-weight: bold; font-size: 100px; color: red;'>0 points!</span><br><br></div>,,delaylearn,learning,feedback_image_window,ghx5kYXeDuSeRew3q9mlvXR5juv2,ghx5kYXeDuSeRew3q9mlvXR5juv2,,,,,,,,,,,,,,,,,,,,,,654ceaf9bea6ff323bef327c,09:05:34,27/02/2024
html-keyboard-response,16,33640,0.0-7.0,,"<div style=""font-size:100px;"">+</div>",,delaylearn,learning,ITI,ghx5kYXeDuSeRew3q9mlvXR5juv2,ghx5kYXeDuSeRew3q9mlvXR5juv2,,,,,,,,,,,,,,,,,,,2174.0,,,654ceaf9bea6ff323bef327c,09:05:34,27/02/2024
html-keyboard-response,17,36659,0.0-8.0-0.0,,"<div style=""display: flex; flex-direction: column; align-items: center; margin-top: -40px;""><img src=""images/demo_images/pattern_1.png"" style=""width: 234px; height: 230px; margin-top: -50px;""><div style=""display: flex; justify-content: space-between; margin-top: 33px;""><img src=""images/demo_images/choice_trial_1.png"" style=""width: 408px; height: 417px; margin-right: 200px;""><img src=""images/demo_images/choice_trial_2.png"" style=""width: 408px; height: 417px;""></div></div>",,delaylearn,learning,trial,ghx5kYXeDuSeRew3q9mlvXR5juv2,ghx5kYXeDuSeRew3q9mlvXR5juv2,5.0,images/demo_images/choice_trial_1.png,images/demo_images/choice_trial_2.png,images/demo_images/pattern_1.png,f,f,3000.0,1.0,2.0,20.0,0.0,4.0,0.0,0.0,0.0,10.0,,,,,,654ceaf9bea6ff323bef327c,09:05:34,27/02/2024
html-keyboard-response,18,37676,0.0-8.0-1.0,,<div style='font-weight: bold; font-size: 75px; color: red;'>Missed Trial <br><br><br><br> Please respond faster</div>,,delaylearn,learning,display_response,ghx5kYXeDuSeRew3q9mlvXR5juv2,ghx5kYXeDuSeRew3q9mlvXR5juv2,,,,,,,,,,,,,,,,,Missed trial,,,,,654ceaf9bea6ff323bef327c,09:05:34,27/02/2024
html-keyboard-response,19,37692,0.0-8.0-2.0,,,,delaylearn,learning,feedback_duration_window,ghx5kYXeDuSeRew3q9mlvXR5juv2,ghx5kYXeDuSeRew3q9mlvXR5juv2,,,,,,,,,,,,,,,,,,0.0,,,,654ceaf9bea6ff323bef327c,09:05:34,27/02/2024
html-keyboard-response,20,37707,0.0-8.0-3.0,,,,delaylearn,learning,feedback_image_window,ghx5kYXeDuSeRew3q9mlvXR5juv2,ghx5kYXeDuSeRew3q9mlvXR5juv2,,,,,,,,,,,,,,,,,,,,,,654ceaf9bea6ff323bef327c,09:05:34,27/02/2024
html-keyboard-response,21,38230,0.0-9.0-0.0,,,,,,mood_trial_fixation,ghx5kYXeDuSeRew3q9mlvXR5juv2,,,,,,,,,,,,,,,,,,,,,,,654ceaf9bea6ff323bef327c,09:05:34,27/02/2024
lmdlab-html-vas-response,22,42906,0.0-9.0-1.0,3623.0,How happy are you right now?,0.9774507476857346,delaylearn,learning,mood_trial,ghx5kYXeDuSeRew3q9mlvXR5juv2,ghx5kYXeDuSeRew3q9mlvXR5juv2,,,,,,,,,,,,,,,,,,,,"['Very unhappy', 'Very happy']",,654ceaf9bea6ff323bef327c,09:05:34,27/02/2024
html-keyboard-response,23,44923,0.0-10.0,,"<div style=""font-size:100px;"">+</div>",,delaylearn,learning,ITI,ghx5kYXeDuSeRew3q9mlvXR5juv2,ghx5kYXeDuSeRew3q9mlvXR5juv2,,,,,,,,,,,,,,,,,,,2002.0,,,654ceaf9bea6ff323bef327c,09:05:34,27/02/2024
html-keyboard-response,24,46466,0.0-11.0-0.0,1538.699999988079,"<div style=""display: flex; flex-direction: column; align-items: center; margin-top: -40px;""><img src=""images/demo_images/pattern_1.png"" style=""width: 234px; height: 230px; margin-top: -50px;""><div style=""display: flex; justify-content: space-between; margin-top: 33px;""><img src=""images/demo_images/choice_trial_2.png"" style=""width: 408px; height: 417px; margin-right: 200px;""><img src=""images/demo_images/choice_trial_1.png"" style=""width: 408px; height: 417px;""></div></div>",j,delaylearn,learning,trial,ghx5kYXeDuSeRew3q9mlvXR5juv2,ghx5kYXeDuSeRew3q9mlvXR5juv2,5.0,images/demo_images/choice_trial_2.png,images/demo_images/choice_trial_1.png,images/demo_images/pattern_1.png,j,j,3000.0,2.0,1.0,20.0,1.0,5.0,1.0,1.0,1.0,20.0,,,,,,654ceaf9bea6ff323bef327c,09:05:34,27/02/2024
html-keyboard-response,25,47494,0.0-11.0-1.0,,"<div style=""display: flex; flex-direction: column; align-items: center; margin-top: -40px;""><img src=""images/demo_images/pattern_1.png"" style=""width: 234px; height: 230px; margin-top: -50px;""><div style=""display: flex; justify-content: space-between; margin-top: 33px;""><img src=""images/demo_images/choice_trial_1.png"" style=""width: 408px; height: 417px; margin-left:608px;""></div></div>",,delaylearn,learning,display_response,ghx5kYXeDuSeRew3q9mlvXR5juv2,ghx5kYXeDuSeRew3q9mlvXR5juv2,,,,,,,,,,,,,,,,,chosen stimuli: images/demo_images/choice_trial_1.png,,,,,654ceaf9bea6ff323bef327c,09:05:34,27/02/2024
html-keyboard-response,26,50499,0.0-11.0-2.0,,,,delaylearn,learning,feedback_duration_window,ghx5kYXeDuSeRew3q9mlvXR5juv2,ghx5kYXeDuSeRew3q9mlvXR5juv2,,,,,,,,,,,,,,,,,,3000.0,,,,654ceaf9bea6ff323bef327c,09:05:34,27/02/2024
html-keyboard-response,27,52018,0.0-11.0-3.0,,<div style='margin:auto;width: auto; font-size: 150%'><span style='font-weight: bold; font-size: 100px; color: green;'>+10 points!</span><br><br></div>,,delaylearn,learning,feedback_image_window,ghx5kYXeDuSeRew3q9mlvXR5juv2,ghx5kYXeDuSeRew3q9mlvXR5juv2,,,,,,,,,,,,,,,,,,,,,,654ceaf9bea6ff323bef327c,09:05:34,27/02/2024
html-keyboard-response,28,53712,0.0-12.0,,"<div style=""font-size:100px;"">+</div>",,delaylearn,learning,ITI,ghx5kYXeDuSeRew3q9mlvXR5juv2,ghx5kYXeDuSeRew3q9mlvXR5juv2,,,,,,,,,,,,,,,,,,,1678.0,,,654ceaf9bea6ff323bef327c,09:05:34,27/02/2024
html-keyboard-response,29,55206,0.0-13.0-0.0,1489.6000000238419,"<div style=""display: flex; flex-direction: column; align-items: center; margin-top: -40px;""><img src=""images/demo_images/pattern_1.png"" style=""width: 234px; height: 230px; margin-top: -50px;""><div style=""display: flex; justify-content: space-between; margin-top: 33px;""><img src=""images/demo_images/choice_trial_1.png"" style=""width: 408px; height: 417px; margin-right: 200px;""><img src=""images/demo_images/choice_trial_2.png"" style=""width: 408px; height: 417px;""></div></div>",f,delaylearn,learning,trial,ghx5kYXeDuSeRew3q9mlvXR5juv2,ghx5kYXeDuSeRew3q9mlvXR5juv2,5.0,images/demo_images/choice_trial_1.png,images/demo_images/choice_trial_2.png,images/demo_images/pattern_1.png,f,f,3000.0,1.0,2.0,20.0,0.0,6.0,1.0,1.0,1.0,30.0,,,,,,654ceaf9bea6ff323bef327c,09:05:34,27/02/2024
html-keyboard-response,30,56217,0.0-13.0-1.0,,"<div style=""display: flex; flex-direction: column; align-items: center; margin-top: -40px;""><img src=""images/demo_images/pattern_1.png"" style=""width: 234px; height: 230px; margin-top: -50px;""><div style=""display: flex; justify-content: space-between; margin-top: 33px;""><img src=""images/demo_images/choice_trial_1.png"" style=""width: 408px; height: 417px; margin-right: 608px;""></div></div>",,delaylearn,learning,display_response,ghx5kYXeDuSeRew3q9mlvXR5juv2,ghx5kYXeDuSeRew3q9mlvXR5juv2,,,,,,,,,,,,,,,,,chosen stimuli: images/demo_images/choice_trial_1.png,,,,,654ceaf9bea6ff323bef327c,09:05:34,27/02/2024
html-keyboard-response,31,59220,0.0-13.0-2.0,,,,delaylearn,learning,feedback_duration_window,ghx5kYXeDuSeRew3q9mlvXR5juv2,ghx5kYXeDuSeRew3q9mlvXR5juv2,,,,,,,,,,,,,,,,,,3000.0,,,,654ceaf9bea6ff323bef327c,09:05:34,27/02/2024
html-keyboard-response,32,60724,0.0-13.0-3.0,,<div style='margin:auto;width: auto; font-size: 150%'><span style='font-weight: bold; font-size: 100px; color: green;'>+10 points!</span><br><br></div>,,delaylearn,learning,feedback_image_window,ghx5kYXeDuSeRew3q9mlvXR5juv2,ghx5kYXeDuSeRew3q9mlvXR5juv2,,,,,,,,,,,,,,,,,,,,,,654ceaf9bea6ff323bef327c,09:05:34,27/02/2024
html-button-response,33,62649,0.0-14.0,1920.4000000357628,"
  <div style=""display: flex; align-items: center; justify-content: center; height: 80vh;"">
  <div>
          <img src=""images/inst_demo_finish.png"" style=""width: 80vw; height:auto;"">
          <br><br>
      </div>
      <br><br>
  </div>",0,,,,ghx5kYXeDuSeRew3q9mlvXR5juv2,,,,,,,,,,,,,,,,,,,,,,,654ceaf9bea6ff323bef327c,09:05:34,27/02/2024
html-keyboard-response,34,64996,0.0-15.0,2342.600000023842,"
  <div style=""display: flex; align-items: center; justify-content: center; height: 80vh;"">
  <div>
          <img src=""images/inst_6.png"" style=""width: 80vw; height:auto;"">
          <br><br>
      </div>
      <br><br>
  </div>",f,,,,ghx5kYXeDuSeRew3q9mlvXR5juv2,,,,,,,,,,,,,,,,,,,,,,,654ceaf9bea6ff323bef327c,09:05:34,27/02/2024
html-keyboard-response,35,68011,0.0-16.0,,"<div style=""font-size:100px;"">+</div>",,delaylearn,learning,pre_fixation,ghx5kYXeDuSeRew3q9mlvXR5juv2,,,,,,,,,,,,,,,,,,,,,,,654ceaf9bea6ff323bef327c,09:05:34,27/02/2024
html-keyboard-response,36,70098,0.0-17.0,,"<div style=""font-size:100px;"">+</div>",,delaylearn,learning,ITI,ghx5kYXeDuSeRew3q9mlvXR5juv2,ghx5kYXeDuSeRew3q9mlvXR5juv2,,,,,,,,,,,,,,,,,,,2066.0,,,654ceaf9bea6ff323bef327c,09:05:34,27/02/2024
html-keyboard-response,37,71862,0.0-18.0-0.0,1758.3999999761581,"<div style=""display: flex; flex-direction: column; align-items: center; margin-top: -40px;""><img src=""images/pattern_3.png"" style=""width: 234px; height: 230px; margin-top: -50px;""><div style=""display: flex; justify-content: space-between; margin-top: 33px;""><img src=""images/choice_trial_16.png"" style=""width: 408px; height: 417px; margin-right: 200px;""><img src=""images/choice_trial_2.png"" style=""width: 408px; height: 417px;""></div></div>",j,delaylearn,learning,trial,ghx5kYXeDuSeRew3q9mlvXR5juv2,ghx5kYXeDuSeRew3q9mlvXR5juv2,5.0,images/choice_trial_16.png,images/choice_trial_2.png,images/pattern_3.png,f,f,7000.0,16.0,2.0,2.0,0.0,7.0,0.0,0.0,2.0,30.0,,,,,,654ceaf9bea6ff323bef327c,09:05:34,27/02/2024
html-keyboard-response,38,72883,0.0-18.0-1.0,,"<div style=""display: flex; flex-direction: column; align-items: center; margin-top: -40px;""><img src=""images/pattern_3.png"" style=""width: 234px; height: 230px; margin-top: -50px;""><div style=""display: flex; justify-content: space-between; margin-top: 33px;""><img src=""images/choice_trial_2.png"" style=""width: 408px; height: 417px; margin-left:608px;""></div></div>",,delaylearn,learning,display_response,ghx5kYXeDuSeRew3q9mlvXR5juv2,ghx5kYXeDuSeRew3q9mlvXR5juv2,,,,,,,,,,,,,,,,,chosen stimuli: images/choice_trial_2.png,,,,,654ceaf9bea6ff323bef327c,09:05:34,27/02/2024
html-keyboard-response,39,79891,0.0-18.0-2.0,,,,delaylearn,learning,feedback_duration_window,ghx5kYXeDuSeRew3q9mlvXR5juv2,ghx5kYXeDuSeRew3q9mlvXR5juv2,,,,,,,,,,,,,,,,,,7000.0,,,,654ceaf9bea6ff323bef327c,09:05:34,27/02/2024
html-keyboard-response,40,81409,0.0-18.0-3.0,,<div style='margin:auto;width: auto; font-size: 150%'><span style='font-weight: bold; font-size: 100px; color: red;'>0 points!</span><br><br></div>,,delaylearn,learning,feedback_image_window,ghx5kYXeDuSeRew3q9mlvXR5juv2,ghx5kYXeDuSeRew3q9mlvXR5juv2,,,,,,,,,,,,,,,,,,,,,,654ceaf9bea6ff323bef327c,09:05:34,27/02/2024
html-keyboard-response,41,83844,0.0-19.0,,"<div style=""font-size:100px;"">+</div>",,delaylearn,learning,ITI,ghx5kYXeDuSeRew3q9mlvXR5juv2,ghx5kYXeDuSeRew3q9mlvXR5juv2,,,,,,,,,,,,,,,,,,,2419.0,,,654ceaf9bea6ff323bef327c,09:05:34,27/02/2024
html-keyboard-response,42,86838,0.0-20.0-0.0,2989.399999976158,"<div style=""display: flex; flex-direction: column; align-items: center; margin-top: -40px;""><img src=""images/pattern_7.png"" style=""width: 234px; height: 230px; margin-top: -50px;""><div style=""display: flex; justify-content: space-between; margin-top: 33px;""><img src=""images/choice_trial_10.png"" style=""width: 408px; height: 417px; margin-right: 200px;""><img src=""images/choice_trial_8.png"" style=""width: 408px; height: 417px;""></div></div>",f,delaylearn,learning,trial,ghx5kYXeDuSeRew3q9mlvXR5juv2,ghx5kYXeDuSeRew3q9mlvXR5juv2,5.0,images/choice_trial_10.png,images/choice_trial_8.png,images/pattern_7.png,j,j,750.0,10.0,8.0,6.0,1.0,8.0,0.0,0.0,10.0,30.0,,,,,,654ceaf9bea6ff323bef327c,09:05:34,27/02/2024
html-keyboard-response,43,87850,0.0-20.0-1.0,,"<div style=""display: flex; flex-direction: column; align-items: center; margin-top: -40px;""><img src=""images/pattern_7.png"" style=""width: 234px; height: 230px; margin-top: -50px;""><div style=""display: flex; justify-content: space-between; margin-top: 33px;""><img src=""images/choice_trial_10.png"" style=""width: 408px; height: 417px; margin-right: 608px;""></div></div>",,delaylearn,learning,display_response,ghx5kYXeDuSeRew3q9mlvXR5juv2,ghx5kYXeDuSeRew3q9mlvXR5juv2,,,,,,,,,,,,,,,,,chosen stimuli: images/choice_trial_10.png,,,,,654ceaf9bea6ff323bef327c,09:05:34,27/02/2024
html-keyboard-response,44,88603,0.0-20.0-2.0,,,,delaylearn,learning,feedback_duration_window,ghx5kYXeDuSeRew3q9mlvXR5juv2,ghx5kYXeDuSeRew3q9mlvXR5juv2,,,,,,,,,,,,,,,,,,750.0,,,,654ceaf9bea6ff323bef327c,09:05:34,27/02/2024
html-keyboard-response,45,90120,0.0-20.0-3.0,,<div style='margin:auto;width: auto; font-size: 150%'><span style='font-weight: bold; font-size: 100px; color: red;'>0 points!</span><br><br></div>,,delaylearn,learning,feedback_image_window,ghx5kYXeDuSeRew3q9mlvXR5juv2,ghx5kYXeDuSeRew3q9mlvXR5juv2,,,,,,,,,,,,,,,,,,,,,,654ceaf9bea6ff323bef327c,09:05:34,27/02/2024
html-keyboard-response,46,92022,0.0-21.0,,"<div style=""font-size:100px;"">+</div>",,delaylearn,learning,ITI,ghx5kYXeDuSeRew3q9mlvXR5juv2,ghx5kYXeDuSeRew3q9mlvXR5juv2,,,,,,,,,,,,,,,,,,,1889.0,,,654ceaf9bea6ff323bef327c,09:05:34,27/02/2024
html-keyboard-response,47,95019,0.0-22.0-0.0,2992.099999964237,"<div style=""display: flex; flex-direction: column; align-items: center; margin-top: -40px;""><img src=""images/pattern_4.png"" style=""width: 234px; height: 230px; margin-top: -50px;""><div style=""display: flex; justify-content: space-between; margin-top: 33px;""><img src=""images/choice_trial_11.png"" style=""width: 408px; height: 417px; margin-right: 200px;""><img src=""images/choice_trial_4.png"" style=""width: 408px; height: 417px;""></div></div>",f,delaylearn,learning,trial,ghx5kYXeDuSeRew3q9mlvXR5juv2,ghx5kYXeDuSeRew3q9mlvXR5juv2,5.0,images/choice_trial_11.png,images/choice_trial_4.png,images/pattern_4.png,f,f,7000.0,11.0,4.0,3.0,0.0,9.0,1.0,1.0,11.0,40.0,,,,,,654ceaf9bea6ff323bef327c,09:05:34,27/02/2024
html-keyboard-response,48,96028,0.0-22.0-1.0,,"<div style=""display: flex; flex-direction: column; align-items: center; margin-top: -40px;""><img src=""images/pattern_4.png"" style=""width: 234px; height: 230px; margin-top: -50px;""><div style=""display: flex; justify-content: space-between; margin-top: 33px;""><img src=""images/choice_trial_11.png"" style=""width: 408px; height: 417px; margin-right: 608px;""></div></div>",,delaylearn,learning,display_response,ghx5kYXeDuSeRew3q9mlvXR5juv2,ghx5kYXeDuSeRew3q9mlvXR5juv2,,,,,,,,,,,,,,,,,chosen stimuli: images/choice_trial_11.png,,,,,654ceaf9bea6ff323bef327c,09:05:34,27/02/2024
html-keyboard-response,49,103053,0.0-22.0-2.0,,,,delaylearn,learning,feedback_duration_window,ghx5kYXeDuSeRew3q9mlvXR5juv2,ghx5kYXeDuSeRew3q9mlvXR5juv2,,,,,,,,,,,,,,,,,,7000.0,,,,654ceaf9bea6ff323bef327c,09:05:34,27/02/2024
html-keyboard-response,50,104586,0.0-22.0-3.0,,<div style='margin:auto;width: auto; font-size: 150%'><span style='font-weight: bold; font-size: 100px; color: green;'>+10 points!</span><br><br></div>,,delaylearn,learning,feedback_image_window,ghx5kYXeDuSeRew3q9mlvXR5juv2,ghx5kYXeDuSeRew3q9mlvXR5juv2,,,,,,,,,,,,,,,,,,,,,,654ceaf9bea6ff323bef327c,09:05:34,27/02/2024
html-keyboard-response,51,106474,0.0-23.0,,"<div style=""font-size:100px;"">+</div>",,delaylearn,learning,ITI,ghx5kYXeDuSeRew3q9mlvXR5juv2,ghx5kYXeDuSeRew3q9mlvXR5juv2,,,,,,,,,,,,,,,,,,,1886.0,,,654ceaf9bea6ff323bef327c,09:05:34,27/02/2024
html-keyboard-response,52,108517,0.0-24.0-0.0,2038.300000011921,"<div style=""display: flex; flex-direction: column; align-items: center; margin-top: -40px;""><img src=""images/pattern_5.png"" style=""width: 234px; height: 230px; margin-top: -50px;""><div style=""display: flex; justify-content: space-between; margin-top: 33px;""><img src=""images/choice_trial_13.png"" style=""width: 408px; height: 417px; margin-right: 200px;""><img src=""images/choice_trial_7.png"" style=""width: 408px; height: 417px;""></div></div>",j,delaylearn,learning,trial,ghx5kYXeDuSeRew3q9mlvXR5juv2,ghx5kYXeDuSeRew3q9mlvXR5juv2,5.0,images/choice_trial_13.png,images/choice_trial_7.png,images/pattern_5.png,j,j,750.0,13.0,7.0,4.0,1.0,10.0,1.0,1.0,7.0,50.0,,,,,,654ceaf9bea6ff323bef327c,09:05:34,27/02/2024
html-keyboard-response,53,109531,0.0-24.0-1.0,,"<div style=""display: flex; flex-direction: column; align-items: center; margin-top: -40px;""><img src=""images/pattern_5.png"" style=""width: 234px; height: 230px; margin-top: -50px;""><div style=""display: flex; justify-content: space-between; margin-top: 33px;""><img src=""images/choice_trial_7.png"" style=""width: 408px; height: 417px; margin-left:608px;""></div></div>",,delaylearn,learning,display_response,ghx5kYXeDuSeRew3q9mlvXR5juv2,ghx5kYXeDuSeRew3q9mlvXR5juv2,,,,,,,,,,,,,,,,,chosen stimuli: images/choice_trial_7.png,,,,,654ceaf9bea6ff323bef327c,09:05:34,27/02/2024
html-keyboard-response,54,110310,0.0-24.0-2.0,,,,delaylearn,learning,feedback_duration_window,ghx5kYXeDuSeRew3q9mlvXR5juv2,ghx5kYXeDuSeRew3q9mlvXR5juv2,,,,,,,,,,,,,,,,,,750.0,,,,654ceaf9bea6ff323bef327c,09:05:34,27/02/2024
html-keyboard-response,55,111835,0.0-24.0-3.0,,<div style='margin:auto;width: auto; font-size: 150%'><span style='font-weight: bold; font-size: 100px; color: green;'>+10 points!</span><br><br></div>,,delaylearn,learning,feedback_image_window,ghx5kYXeDuSeRew3q9mlvXR5juv2,ghx5kYXeDuSeRew3q9mlvXR5juv2,,,,,,,,,,,,,,,,,,,,,,654ceaf9bea6ff323bef327c,09:05:34,27/02/2024
html-keyboard-response,56,114001,0.0-25.0,,"<div style=""font-size:100px;"">+</div>",,delaylearn,learning,ITI,ghx5kYXeDuSeRew3q9mlvXR5juv2,ghx5kYXeDuSeRew3q9mlvXR5juv2,,,,,,,,,,,,,,,,,,,2163.0,,,654ceaf9bea6ff323bef327c,09:05:34,27/02/2024
html-keyboard-response,57,116127,0.0-26.0-0.0,2121.599999964237,"<div style=""display: flex; flex-direction: column; align-items: center; margin-top: -40px;""><img src=""images/pattern_6.png"" style=""width: 234px; height: 230px; margin-top: -50px;""><div style=""display: flex; justify-content: space-between; margin-top: 33px;""><img src=""images/choice_trial_14.png"" style=""width: 408px; height: 417px; margin-right: 200px;""><img src=""images/choice_trial_9.png"" style=""width: 408px; height: 417px;""></div></div>",j,delaylearn,learning,trial,ghx5kYXeDuSeRew3q9mlvXR5juv2,ghx5kYXeDuSeRew3q9mlvXR5juv2,5.0,images/choice_trial_14.png,images/choice_trial_9.png,images/pattern_6.png,j,f,750.0,14.0,9.0,5.0,0.0,11.0,0.0,1.0,9.0,60.0,,,,,,654ceaf9bea6ff323bef327c,09:05:34,27/02/2024
html-keyboard-response,58,117143,0.0-26.0-1.0,,"<div style=""display: flex; flex-direction: column; align-items: center; margin-top: -40px;""><img src=""images/pattern_6.png"" style=""width: 234px; height: 230px; margin-top: -50px;""><div style=""display: flex; justify-content: space-between; margin-top: 33px;""><img src=""images/choice_trial_9.png"" style=""width: 408px; height: 417px; margin-left:608px;""></div></div>",,delaylearn,learning,display_response,ghx5kYXeDuSeRew3q9mlvXR5juv2,ghx5kYXeDuSeRew3q9mlvXR5juv2,,,,,,,,,,,,,,,,,chosen stimuli: images/choice_trial_9.png,,,,,654ceaf9bea6ff323bef327c,09:05:34,27/02/2024
html-keyboard-response,59,117906,0.0-26.0-2.0,,,,delaylearn,learning,feedback_duration_window,ghx5kYXeDuSeRew3q9mlvXR5juv2,ghx5kYXeDuSeRew3q9mlvXR5juv2,,,,,,,,,,,,,,,,,,750.0,,,,654ceaf9bea6ff323bef327c,09:05:34,27/02/2024
html-keyboard-response,60,119423,0.0-26.0-3.0,,<div style='margin:auto;width: auto; font-size: 150%'><span style='font-weight: bold; font-size: 100px; color: green;'>+10 points!</span><br><br></div>,,delaylearn,learning,feedback_image_window,ghx5kYXeDuSeRew3q9mlvXR5juv2,ghx5kYXeDuSeRew3q9mlvXR5juv2,,,,,,,,,,,,,,,,,,,,,,654ceaf9bea6ff323bef327c,09:05:34,27/02/2024
html-keyboard-response,61,119945,0.0-27.0-0.0,,,,,,mood_trial_fixation,ghx5kYXeDuSeRew3q9mlvXR5juv2,,,,,,,,,,,,,,,,,,,,,,,654ceaf9bea6ff323bef327c,09:05:34,27/02/2024
lmdlab-html-vas-response,62,124971,0.0-27.0-1.0,3997.0,How happy are you right now?,0.9817910548981045,delaylearn,learning,mood_trial,ghx5kYXeDuSeRew3q9mlvXR5juv2,ghx5kYXeDuSeRew3q9mlvXR5juv2,,,,,,,,,,,,,,,,,,,,"['Very unhappy', 'Very happy']",,654ceaf9bea6ff323bef327c,09:05:34,27/02/2024
html-keyboard-response,63,126521,0.0-28.0,,"<div style=""font-size:100px;"">+</div>",,delaylearn,learning,ITI,ghx5kYXeDuSeRew3q9mlvXR5juv2,ghx5kYXeDuSeRew3q9mlvXR5juv2,,,,,,,,,,,,,,,,,,,1539.0,,,654ceaf9bea6ff323bef327c,09:05:34,27/02/2024
html-keyboard-response,64,128548,0.0-29.0-0.0,2020.7000000476837,"<div style=""display: flex; flex-direction: column; align-items: center; margin-top: -40px;""><img src=""images/pattern_1.png"" style=""width: 234px; height: 230px; margin-top: -50px;""><div style=""display: flex; justify-content: space-between; margin-top: 33px;""><img src=""images/choice_trial_15.png"" style=""width: 408px; height: 417px; margin-right: 200px;""><img src=""images/choice_trial_6.png"" style=""width: 408px; height: 417px;""></div></div>",f,delaylearn,learning,trial,ghx5kYXeDuSeRew3q9mlvXR5juv2,ghx5kYXeDuSeRew3q9mlvXR5juv2,5.0,images/choice_trial_15.png,images/choice_trial_6.png,images/pattern_1.png,j,j,7000.0,15.0,6.0,1.0,1.0,12.0,0.0,0.0,15.0,60.0,,,,,,654ceaf9bea6ff323bef327c,09:05:34,27/02/2024
html-keyboard-response,65,129565,0.0-29.0-1.0,,"<div style=""display: flex; flex-direction: column; align-items: center; margin-top: -40px;""><img src=""images/pattern_1.png"" style=""width: 234px; height: 230px; margin-top: -50px;""><div style=""display: flex; justify-content: space-between; margin-top: 33px;""><img src=""images/choice_trial_15.png"" style=""width: 408px; height: 417px; margin-right: 608px;""></div></div>",,delaylearn,learning,display_response,ghx5kYXeDuSeRew3q9mlvXR5juv2,ghx5kYXeDuSeRew3q9mlvXR5juv2,,,,,,,,,,,,,,,,,chosen stimuli: images/choice_trial_15.png,,,,,654ceaf9bea6ff323bef327c,09:05:34,27/02/2024
html-keyboard-response,66,136574,0.0-29.0-2.0,,,,delaylearn,learning,feedback_duration_window,ghx5kYXeDuSeRew3q9mlvXR5juv2,ghx5kYXeDuSeRew3q9mlvXR5juv2,,,,,,,,,,,,,,,,,,7000.0,,,,654ceaf9bea6ff323bef327c,09:05:34,27/02/2024
html-keyboard-response,67,138092,0.0-29.0-3.0,,<div style='margin:auto;width: auto; font-size: 150%'><span style='font-weight: bold; font-size: 100px; color: red;'>0 points!</span><br><br></div>,,delaylearn,learning,feedback_image_window,ghx5kYXeDuSeRew3q9mlvXR5juv2,ghx5kYXeDuSeRew3q9mlvXR5juv2,,,,,,,,,,,,,,,,,,,,,,654ceaf9bea6ff323bef327c,09:05:34,27/02/2024
html-keyboard-response,68,140110,0.0-30.0,,"<div style=""font-size:100px;"">+</div>",,delaylearn,learning,ITI,ghx5kYXeDuSeRew3q9mlvXR5juv2,ghx5kYXeDuSeRew3q9mlvXR5juv2,,,,,,,,,,,,,,,,,,,2000.0,,,654ceaf9bea6ff323bef327c,09:05:34,27/02/2024
html-keyboard-response,69,141987,0.0-31.0-0.0,1872.0999999642372,"<div style=""display: flex; flex-direction: column; align-items: center; margin-top: -40px;""><img src=""images/pattern_3.png"" style=""width: 234px; height: 230px; margin-top: -50px;""><div style=""display: flex; justify-content: space-between; margin-top: 33px;""><img src=""images/choice_trial_2.png"" style=""width: 408px; height: 417px; margin-right: 200px;""><img src=""images/choice_trial_16.png"" style=""width: 408px; height: 417px;""></div></div>",f,delaylearn,learning,trial,ghx5kYXeDuSeRew3q9mlvXR5juv2,ghx5kYXeDuSeRew3q9mlvXR5juv2,5.0,images/choice_trial_2.png,images/choice_trial_16.png,images/pattern_3.png,f,j,7000.0,2.0,16.0,2.0,1.0,13.0,0.0,1.0,2.0,70.0,,,,,,654ceaf9bea6ff323bef327c,09:05:34,27/02/2024
html-keyboard-response,70,143014,0.0-31.0-1.0,,"<div style=""display: flex; flex-direction: column; align-items: center; margin-top: -40px;""><img src=""images/pattern_3.png"" style=""width: 234px; height: 230px; margin-top: -50px;""><div style=""display: flex; justify-content: space-between; margin-top: 33px;""><img src=""images/choice_trial_2.png"" style=""width: 408px; height: 417px; margin-right: 608px;""></div></div>",,delaylearn,learning,display_response,ghx5kYXeDuSeRew3q9mlvXR5juv2,ghx5kYXeDuSeRew3q9mlvXR5juv2,,,,,,,,,,,,,,,,,chosen stimuli: images/choice_trial_2.png,,,,,654ceaf9bea6ff323bef327c,09:05:34,27/02/2024
html-keyboard-response,71,150039,0.0-31.0-2.0,,,,delaylearn,learning,feedback_duration_window,ghx5kYXeDuSeRew3q9mlvXR5juv2,ghx5kYXeDuSeRew3q9mlvXR5juv2,,,,,,,,,,,,,,,,,,7000.0,,,,654ceaf9bea6ff323bef327c,09:05:34,27/02/2024
html-keyboard-response,72,151557,0.0-31.0-3.0,,<div style='margin:auto;width: auto; font-size: 150%'><span style='font-weight: bold; font-size: 100px; color: green;'>+10 points!</span><br><br></div>,,delaylearn,learning,feedback_image_window,ghx5kYXeDuSeRew3q9mlvXR5juv2,ghx5kYXeDuSeRew3q9mlvXR5juv2,,,,,,,,,,,,,,,,,,,,,,654ceaf9bea6ff323bef327c,09:05:34,27/02/2024
html-keyboard-response,73,154060,0.0-32.0,,"<div style=""font-size:100px;"">+</div>",,delaylearn,learning,ITI,ghx5kYXeDuSeRew3q9mlvXR5juv2,ghx5kYXeDuSeRew3q9mlvXR5juv2,,,,,,,,,,,,,,,,,,,2480.0,,,654ceaf9bea6ff323bef327c,09:05:34,27/02/2024
html-keyboard-response,74,156392,0.0-33.0-0.0,2327.199999988079,"<div style=""display: flex; flex-direction: column; align-items: center; margin-top: -40px;""><img src=""images/pattern_5.png"" style=""width: 234px; height: 230px; margin-top: -50px;""><div style=""display: flex; justify-content: space-between; margin-top: 33px;""><img src=""images/choice_trial_7.png"" style=""width: 408px; height: 417px; margin-right: 200px;""><img src=""images/choice_trial_13.png"" style=""width: 408px; height: 417px;""></div></div>",f,delaylearn,learning,trial,ghx5kYXeDuSeRew3q9mlvXR5juv2,ghx5kYXeDuSeRew3q9mlvXR5juv2,5.0,images/choice_trial_7.png,images/choice_trial_13.png,images/pattern_5.png,f,f,750.0,7.0,13.0,4.0,0.0,14.0,1.0,1.0,7.0,80.0,,,,,,654ceaf9bea6ff323bef327c,09:05:34,27/02/2024
html-keyboard-response,75,157401,0.0-33.0-1.0,,"<div style=""display: flex; flex-direction: column; align-items: center; margin-top: -40px;""><img src=""images/pattern_5.png"" style=""width: 234px; height: 230px; margin-top: -50px;""><div style=""display: flex; justify-content: space-between; margin-top: 33px;""><img src=""images/choice_trial_7.png"" style=""width: 408px; height: 417px; margin-right: 608px;""></div></div>",,delaylearn,learning,display_response,ghx5kYXeDuSeRew3q9mlvXR5juv2,ghx5kYXeDuSeRew3q9mlvXR5juv2,,,,,,,,,,,,,,,,,chosen stimuli: images/choice_trial_7.png,,,,,654ceaf9bea6ff323bef327c,09:05:34,27/02/2024
html-keyboard-response,76,158165,0.0-33.0-2.0,,,,delaylearn,learning,feedback_duration_window,ghx5kYXeDuSeRew3q9mlvXR5juv2,ghx5kYXeDuSeRew3q9mlvXR5juv2,,,,,,,,,,,,,,,,,,750.0,,,,654ceaf9bea6ff323bef327c,09:05:34,27/02/2024
html-keyboard-response,77,159683,0.0-33.0-3.0,,<div style='margin:auto;width: auto; font-size: 150%'><span style='font-weight: bold; font-size: 100px; color: green;'>+10 points!</span><br><br></div>,,delaylearn,learning,feedback_image_window,ghx5kYXeDuSeRew3q9mlvXR5juv2,ghx5kYXeDuSeRew3q9mlvXR5juv2,,,,,,,,,,,,,,,,,,,,,,654ceaf9bea6ff323bef327c,09:05:34,27/02/2024
html-keyboard-response,78,160206,0.0-34.0-0.0,,,,,,mood_trial_fixation,ghx5kYXeDuSeRew3q9mlvXR5juv2,,,,,,,,,,,,,,,,,,,,,,,654ceaf9bea6ff323bef327c,09:05:34,27/02/2024
lmdlab-html-vas-response,79,166291,0.0-34.0-1.0,5042.0,How happy are you right now?,0.9904716693228443,delaylearn,learning,mood_trial,ghx5kYXeDuSeRew3q9mlvXR5juv2,ghx5kYXeDuSeRew3q9mlvXR5juv2,,,,,,,,,,,,,,,,,,,,"['Very unhappy', 'Very happy']",,654ceaf9bea6ff323bef327c,09:05:34,27/02/2024
html-keyboard-response,80,168456,0.0-35.0,,"<div style=""font-size:100px;"">+</div>",,delaylearn,learning,ITI,ghx5kYXeDuSeRew3q9mlvXR5juv2,ghx5kYXeDuSeRew3q9mlvXR5juv2,,,,,,,,,,,,,,,,,,,2150.0,,,654ceaf9bea6ff323bef327c,09:05:34,27/02/2024
html-keyboard-response,81,169524,0.0-36.0-0.0,1062.2999999523163,"<div style=""display: flex; flex-direction: column; align-items: center; margin-top: -40px;""><img src=""images/pattern_6.png"" style=""width: 234px; height: 230px; margin-top: -50px;""><div style=""display: flex; justify-content: space-between; margin-top: 33px;""><img src=""images/choice_trial_14.png"" style=""width: 408px; height: 417px; margin-right: 200px;""><img src=""images/choice_trial_9.png"" style=""width: 408px; height: 417px;""></div></div>",j,delaylearn,learning,trial,ghx5kYXeDuSeRew3q9mlvXR5juv2,ghx5kYXeDuSeRew3q9mlvXR5juv2,5.0,images/choice_trial_14.png,images/choice_trial_9.png,images/pattern_6.png,f,f,750.0,14.0,9.0,5.0,0.0,15.0,0.0,0.0,9.0,80.0,,,,,,654ceaf9bea6ff323bef327c,09:05:34,27/02/2024
html-keyboard-response,82,170544,0.0-36.0-1.0,,"<div style=""display: flex; flex-direction: column; align-items: center; margin-top: -40px;""><img src=""images/pattern_6.png"" style=""width: 234px; height: 230px; margin-top: -50px;""><div style=""display: flex; justify-content: space-between; margin-top: 33px;""><img src=""images/choice_trial_9.png"" style=""width: 408px; height: 417px; margin-left:608px;""></div></div>",,delaylearn,learning,display_response,ghx5kYXeDuSeRew3q9mlvXR5juv2,ghx5kYXeDuSeRew3q9mlvXR5juv2,,,,,,,,,,,,,,,,,chosen stimuli: images/choice_trial_9.png,,,,,654ceaf9bea6ff323bef327c,09:05:34,27/02/2024
html-keyboard-response,83,171307,0.0-36.0-2.0,,,,delaylearn,learning,feedback_duration_window,ghx5kYXeDuSeRew3q9mlvXR5juv2,ghx5kYXeDuSeRew3q9mlvXR5juv2,,,,,,,,,,,,,,,,,,750.0,,,,654ceaf9bea6ff323bef327c,09:05:34,27/02/2024
html-keyboard-response,84,172831,0.0-36.0-3.0,,<div style='margin:auto;width: auto; font-size: 150%'><span style='font-weight: bold; font-size: 100px; color: red;'>0 points!</span><br><br></div>,,delaylearn,learning,feedback_image_window,ghx5kYXeDuSeRew3q9mlvXR5juv2,ghx5kYXeDuSeRew3q9mlvXR5juv2,,,,,,,,,,,,,,,,,,,,,,654ceaf9bea6ff323bef327c,09:05:34,27/02/2024
html-keyboard-response,85,174966,0.0-37.0,,"<div style=""font-size:100px;"">+</div>",,delaylearn,learning,ITI,ghx5kYXeDuSeRew3q9mlvXR5juv2,ghx5kYXeDuSeRew3q9mlvXR5juv2,,,,,,,,,,,,,,,,,,,2109.0,,,654ceaf9bea6ff323bef327c,09:05:34,27/02/2024
html-keyboard-response,86,177139,0.0-38.0-0.0,2168.5,"<div style=""display: flex; flex-direction: column; align-items: center; margin-top: -40px;""><img src=""images/pattern_4.png"" style=""width: 234px; height: 230px; margin-top: -50px;""><div style=""display: flex; justify-content: space-between; margin-top: 33px;""><img src=""images/choice_trial_4.png"" style=""width: 408px; height: 417px; margin-right: 200px;""><img src=""images/choice_trial_11.png"" style=""width: 408px; height: 417px;""></div></div>",j,delaylearn,learning,trial,ghx5kYXeDuSeRew3q9mlvXR5juv2,ghx5kYXeDuSeRew3q9mlvXR5juv2,5.0,images/choice_trial_4.png,images/choice_trial_11.png,images/pattern_4.png,j,j,7000.0,4.0,11.0,3.0,1.0,16.0,1.0,1.0,11.0,90.0,,,,,,654ceaf9bea6ff323bef327c,09:05:34,27/02/2024
html-keyboard-response,87,178154,0.0-38.0-1.0,,"<div style=""display: flex; flex-direction: column; align-items: center; margin-top: -40px;""><img src=""images/pattern_4.png"" style=""width: 234px; height: 230px; margin-top: -50px;""><div style=""display: flex; justify-content: space-between; margin-top: 33px;""><img src=""images/choice_trial_11.png"" style=""width: 408px; height: 417px; margin-left:608px;""></div></div>",,delaylearn,learning,display_response,ghx5kYXeDuSeRew3q9mlvXR5juv2,ghx5kYXeDuSeRew3q9mlvXR5juv2,,,,,,,,,,,,,,,,,chosen stimuli: images/choice_trial_11.png,,,,,654ceaf9bea6ff323bef327c,09:05:34,27/02/2024
html-keyboard-response,88,185164,0.0-38.0-2.0,,,,delaylearn,learning,feedback_duration_window,ghx5kYXeDuSeRew3q9mlvXR5juv2,ghx5kYXeDuSeRew3q9mlvXR5juv2,,,,,,,,,,,,,,,,,,7000.0,,,,654ceaf9bea6ff323bef327c,09:05:34,27/02/2024
html-keyboard-response,89,186697,0.0-38.0-3.0,,<div style='margin:auto;width: auto; font-size: 150%'><span style='font-weight: bold; font-size: 100px; color: green;'>+10 points!</span><br><br></div>,,delaylearn,learning,feedback_image_window,ghx5kYXeDuSeRew3q9mlvXR5juv2,ghx5kYXeDuSeRew3q9mlvXR5juv2,,,,,,,,,,,,,,,,,,,,,,654ceaf9bea6ff323bef327c,09:05:34,27/02/2024
html-keyboard-response,90,189185,0.0-39.0,,"<div style=""font-size:100px;"">+</div>",,delaylearn,learning,ITI,ghx5kYXeDuSeRew3q9mlvXR5juv2,ghx5kYXeDuSeRew3q9mlvXR5juv2,,,,,,,,,,,,,,,,,,,2468.0,,,654ceaf9bea6ff323bef327c,09:05:34,27/02/2024
html-keyboard-response,91,192222,0.0-40.0-0.0,,"<div style=""display: flex; flex-direction: column; align-items: center; margin-top: -40px;""><img src=""images/pattern_7.png"" style=""width: 234px; height: 230px; margin-top: -50px;""><div style=""display: flex; justify-content: space-between; margin-top: 33px;""><img src=""images/choice_trial_8.png"" style=""width: 408px; height: 417px; margin-right: 200px;""><img src=""images/choice_trial_10.png"" style=""width: 408px; height: 417px;""></div></div>",,delaylearn,learning,trial,ghx5kYXeDuSeRew3q9mlvXR5juv2,ghx5kYXeDuSeRew3q9mlvXR5juv2,5.0,images/choice_trial_8.png,images/choice_trial_10.png,images/pattern_7.png,j,f,750.0,8.0,10.0,6.0,0.0,17.0,0.0,0.0,0.0,90.0,,,,,,654ceaf9bea6ff323bef327c,09:05:34,27/02/2024
html-keyboard-response,92,193239,0.0-40.0-1.0,,<div style='font-weight: bold; font-size: 75px; color: red;'>Missed Trial <br><br><br><br> Please respond faster</div>,,delaylearn,learning,display_response,ghx5kYXeDuSeRew3q9mlvXR5juv2,ghx5kYXeDuSeRew3q9mlvXR5juv2,,,,,,,,,,,,,,,,,Missed trial,,,,,654ceaf9bea6ff323bef327c,09:05:34,27/02/2024
html-keyboard-response,93,193247,0.0-40.0-2.0,,,,delaylearn,learning,feedback_duration_window,ghx5kYXeDuSeRew3q9mlvXR5juv2,ghx5kYXeDuSeRew3q9mlvXR5juv2,,,,,,,,,,,,,,,,,,0.0,,,,654ceaf9bea6ff323bef327c,09:05:34,27/02/2024
html-keyboard-response,94,193256,0.0-40.0-3.0,,,,delaylearn,learning,feedback_image_window,ghx5kYXeDuSeRew3q9mlvXR5juv2,ghx5kYXeDuSeRew3q9mlvXR5juv2,,,,,,,,,,,,,,,,,,,,,,654ceaf9bea6ff323bef327c,09:05:34,27/02/2024
html-keyboard-response,95,195394,0.0-41.0,,"<div style=""font-size:100px;"">+</div>",,delaylearn,learning,ITI,ghx5kYXeDuSeRew3q9mlvXR5juv2,ghx5kYXeDuSeRew3q9mlvXR5juv2,,,,,,,,,,,,,,,,,,,2135.0,,,654ceaf9bea6ff323bef327c,09:05:34,27/02/2024
html-keyboard-response,96,197082,0.0-42.0-0.0,1682.300000011921,"<div style=""display: flex; flex-direction: column; align-items: center; margin-top: -40px;""><img src=""images/pattern_1.png"" style=""width: 234px; height: 230px; margin-top: -50px;""><div style=""display: flex; justify-content: space-between; margin-top: 33px;""><img src=""images/choice_trial_6.png"" style=""width: 408px; height: 417px; margin-right: 200px;""><img src=""images/choice_trial_15.png"" style=""width: 408px; height: 417px;""></div></div>",j,delaylearn,learning,trial,ghx5kYXeDuSeRew3q9mlvXR5juv2,ghx5kYXeDuSeRew3q9mlvXR5juv2,5.0,images/choice_trial_6.png,images/choice_trial_15.png,images/pattern_1.png,f,f,7000.0,6.0,15.0,1.0,0.0,18.0,0.0,0.0,15.0,90.0,,,,,,654ceaf9bea6ff323bef327c,09:05:34,27/02/2024
html-keyboard-response,97,198095,0.0-42.0-1.0,,"<div style=""display: flex; flex-direction: column; align-items: center; margin-top: -40px;""><img src=""images/pattern_1.png"" style=""width: 234px; height: 230px; margin-top: -50px;""><div style=""display: flex; justify-content: space-between; margin-top: 33px;""><img src=""images/choice_trial_15.png"" style=""width: 408px; height: 417px; margin-left:608px;""></div></div>",,delaylearn,learning,display_response,ghx5kYXeDuSeRew3q9mlvXR5juv2,ghx5kYXeDuSeRew3q9mlvXR5juv2,,,,,,,,,,,,,,,,,chosen stimuli: images/choice_trial_15.png,,,,,654ceaf9bea6ff323bef327c,09:05:34,27/02/2024
html-keyboard-response,98,205112,0.0-42.0-2.0,,,,delaylearn,learning,feedback_duration_window,ghx5kYXeDuSeRew3q9mlvXR5juv2,ghx5kYXeDuSeRew3q9mlvXR5juv2,,,,,,,,,,,,,,,,,,7000.0,,,,654ceaf9bea6ff323bef327c,09:05:34,27/02/2024
html-keyboard-response,99,206631,0.0-42.0-3.0,,<div style='margin:auto;width: auto; font-size: 150%'><span style='font-weight: bold; font-size: 100px; color: red;'>0 points!</span><br><br></div>,,delaylearn,learning,feedback_image_window,ghx5kYXeDuSeRew3q9mlvXR5juv2,ghx5kYXeDuSeRew3q9mlvXR5juv2,,,,,,,,,,,,,,,,,,,,,,654ceaf9bea6ff323bef327c,09:05:34,27/02/2024
html-keyboard-response,100,208410,0.0-43.0,,"<div style=""font-size:100px;"">+</div>",,delaylearn,learning,ITI,ghx5kYXeDuSeRew3q9mlvXR5juv2,ghx5kYXeDuSeRew3q9mlvXR5juv2,,,,,,,,,,,,,,,,,,,1766.0,,,654ceaf9bea6ff323bef327c,09:05:34,27/02/2024
html-keyboard-response,101,209475,0.0-44.0-0.0,1060.199999988079,"<div style=""display: flex; flex-direction: column; align-items: center; margin-top: -40px;""><img src=""images/pattern_6.png"" style=""width: 234px; height: 230px; margin-top: -50px;""><div style=""display: flex; justify-content: space-between; margin-top: 33px;""><img src=""images/choice_trial_9.png"" style=""width: 408px; height: 417px; margin-right: 200px;""><img src=""images/choice_trial_14.png"" style=""width: 408px; height: 417px;""></div></div>",f,delaylearn,learning,trial,ghx5kYXeDuSeRew3q9mlvXR5juv2,ghx5kYXeDuSeRew3q9mlvXR5juv2,5.0,images/choice_trial_9.png,images/choice_trial_14.png,images/pattern_6.png,j,j,750.0,9.0,14.0,5.0,1.0,19.0,0.0,0.0,9.0,90.0,,,,,,654ceaf9bea6ff323bef327c,09:05:34,27/02/2024
html-keyboard-response,102,210491,0.0-44.0-1.0,,"<div style=""display: flex; flex-direction: column; align-items: center; margin-top: -40px;""><img src=""images/pattern_6.png"" style=""width: 234px; height: 230px; margin-top: -50px;""><div style=""display: flex; justify-content: space-between; margin-top: 33px;""><img src=""images/choice_trial_9.png"" style=""width: 408px; height: 417px; margin-right: 608px;""></div></div>",,delaylearn,learning,display_response,ghx5kYXeDuSeRew3q9mlvXR5juv2,ghx5kYXeDuSeRew3q9mlvXR5juv2,,,,,,,,,,,,,,,,,chosen stimuli: images/choice_trial_9.png,,,,,654ceaf9bea6ff323bef327c,09:05:34,27/02/2024
html-keyboard-response,103,211260,0.0-44.0-2.0,,,,delaylearn,learning,feedback_duration_window,ghx5kYXeDuSeRew3q9mlvXR5juv2,ghx5kYXeDuSeRew3q9mlvXR5juv2,,,,,,,,,,,,,,,,,,750.0,,,,654ceaf9bea6ff323bef327c,09:05:34,27/02/2024
html-keyboard-response,104,212778,0.0-44.0-3.0,,<div style='margin:auto;width: auto; font-size: 150%'><span style='font-weight: bold; font-size: 100px; color: red;'>0 points!</span><br><br></div>,,delaylearn,learning,feedback_image_window,ghx5kYXeDuSeRew3q9mlvXR5juv2,ghx5kYXeDuSeRew3q9mlvXR5juv2,,,,,,,,,,,,,,,,,,,,,,654ceaf9bea6ff323bef327c,09:05:34,27/02/2024
html-keyboard-response,105,214680,0.0-45.0,,"<div style=""font-size:100px;"">+</div>",,delaylearn,learning,ITI,ghx5kYXeDuSeRew3q9mlvXR5juv2,ghx5kYXeDuSeRew3q9mlvXR5juv2,,,,,,,,,,,,,,,,,,,1880.0,,,654ceaf9bea6ff323bef327c,09:05:34,27/02/2024
html-keyboard-response,106,216507,0.0-46.0-0.0,1820.800000011921,"<div style=""display: flex; flex-direction: column; align-items: center; margin-top: -40px;""><img src=""images/pattern_4.png"" style=""width: 234px; height: 230px; margin-top: -50px;""><div style=""display: flex; justify-content: space-between; margin-top: 33px;""><img src=""images/choice_trial_11.png"" style=""width: 408px; height: 417px; margin-right: 200px;""><img src=""images/choice_trial_4.png"" style=""width: 408px; height: 417px;""></div></div>",f,delaylearn,learning,trial,ghx5kYXeDuSeRew3q9mlvXR5juv2,ghx5kYXeDuSeRew3q9mlvXR5juv2,5.0,images/choice_trial_11.png,images/choice_trial_4.png,images/pattern_4.png,f,f,7000.0,11.0,4.0,3.0,0.0,20.0,1.0,1.0,11.0,100.0,,,,,,654ceaf9bea6ff323bef327c,09:05:34,27/02/2024
html-keyboard-response,107,217517,0.0-46.0-1.0,,"<div style=""display: flex; flex-direction: column; align-items: center; margin-top: -40px;""><img src=""images/pattern_4.png"" style=""width: 234px; height: 230px; margin-top: -50px;""><div style=""display: flex; justify-content: space-between; margin-top: 33px;""><img src=""images/choice_trial_11.png"" style=""width: 408px; height: 417px; margin-right: 608px;""></div></div>",,delaylearn,learning,display_response,ghx5kYXeDuSeRew3q9mlvXR5juv2,ghx5kYXeDuSeRew3q9mlvXR5juv2,,,,,,,,,,,,,,,,,chosen stimuli: images/choice_trial_11.png,,,,,654ceaf9bea6ff323bef327c,09:05:34,27/02/2024
html-keyboard-response,108,224526,0.0-46.0-2.0,,,,delaylearn,learning,feedback_duration_window,ghx5kYXeDuSeRew3q9mlvXR5juv2,ghx5kYXeDuSeRew3q9mlvXR5juv2,,,,,,,,,,,,,,,,,,7000.0,,,,654ceaf9bea6ff323bef327c,09:05:34,27/02/2024
html-keyboard-response,109,226043,0.0-46.0-3.0,,<div style='margin:auto;width: auto; font-size: 150%'><span style='font-weight: bold; font-size: 100px; color: green;'>+10 points!</span><br><br></div>,,delaylearn,learning,feedback_image_window,ghx5kYXeDuSeRew3q9mlvXR5juv2,ghx5kYXeDuSeRew3q9mlvXR5juv2,,,,,,,,,,,,,,,,,,,,,,654ceaf9bea6ff323bef327c,09:05:34,27/02/2024
html-keyboard-response,110,226559,0.0-47.0-0.0,,,,,,mood_trial_fixation,ghx5kYXeDuSeRew3q9mlvXR5juv2,,,,,,,,,,,,,,,,,,,,,,,654ceaf9bea6ff323bef327c,09:05:34,27/02/2024
lmdlab-html-vas-response,111,232104,0.0-47.0-1.0,4508.0,How happy are you right now?,0.9839612085042895,delaylearn,learning,mood_trial,ghx5kYXeDuSeRew3q9mlvXR5juv2,ghx5kYXeDuSeRew3q9mlvXR5juv2,,,,,,,,,,,,,,,,,,,,"['Very unhappy', 'Very happy']",,654ceaf9bea6ff323bef327c,09:05:34,27/02/2024
html-keyboard-response,112,233624,0.0-48.0,,"<div style=""font-size:100px;"">+</div>",,delaylearn,learning,ITI,ghx5kYXeDuSeRew3q9mlvXR5juv2,ghx5kYXeDuSeRew3q9mlvXR5juv2,,,,,,,,,,,,,,,,,,,1508.0,,,654ceaf9bea6ff323bef327c,09:05:34,27/02/2024
html-keyboard-response,113,235435,0.0-49.0-0.0,1806.7000000476837,"<div style=""display: flex; flex-direction: column; align-items: center; margin-top: -40px;""><img src=""images/pattern_7.png"" style=""width: 234px; height: 230px; margin-top: -50px;""><div style=""display: flex; justify-content: space-between; margin-top: 33px;""><img src=""images/choice_trial_10.png"" style=""width: 408px; height: 417px; margin-right: 200px;""><img src=""images/choice_trial_8.png"" style=""width: 408px; height: 417px;""></div></div>",j,delaylearn,learning,trial,ghx5kYXeDuSeRew3q9mlvXR5juv2,ghx5kYXeDuSeRew3q9mlvXR5juv2,5.0,images/choice_trial_10.png,images/choice_trial_8.png,images/pattern_7.png,j,j,750.0,10.0,8.0,6.0,1.0,21.0,1.0,1.0,8.0,110.0,,,,,,654ceaf9bea6ff323bef327c,09:05:34,27/02/2024
html-keyboard-response,114,236444,0.0-49.0-1.0,,"<div style=""display: flex; flex-direction: column; align-items: center; margin-top: -40px;""><img src=""images/pattern_7.png"" style=""width: 234px; height: 230px; margin-top: -50px;""><div style=""display: flex; justify-content: space-between; margin-top: 33px;""><img src=""images/choice_trial_8.png"" style=""width: 408px; height: 417px; margin-left:608px;""></div></div>",,delaylearn,learning,display_response,ghx5kYXeDuSeRew3q9mlvXR5juv2,ghx5kYXeDuSeRew3q9mlvXR5juv2,,,,,,,,,,,,,,,,,chosen stimuli: images/choice_trial_8.png,,,,,654ceaf9bea6ff323bef327c,09:05:34,27/02/2024
html-keyboard-response,115,237198,0.0-49.0-2.0,,,,delaylearn,learning,feedback_duration_window,ghx5kYXeDuSeRew3q9mlvXR5juv2,ghx5kYXeDuSeRew3q9mlvXR5juv2,,,,,,,,,,,,,,,,,,750.0,,,,654ceaf9bea6ff323bef327c,09:05:34,27/02/2024
html-keyboard-response,116,238716,0.0-49.0-3.0,,<div style='margin:auto;width: auto; font-size: 150%'><span style='font-weight: bold; font-size: 100px; color: green;'>+10 points!</span><br><br></div>,,delaylearn,learning,feedback_image_window,ghx5kYXeDuSeRew3q9mlvXR5juv2,ghx5kYXeDuSeRew3q9mlvXR5juv2,,,,,,,,,,,,,,,,,,,,,,654ceaf9bea6ff323bef327c,09:05:34,27/02/2024
html-keyboard-response,117,240233,0.0-50.0,,"<div style=""font-size:100px;"">+</div>",,delaylearn,learning,ITI,ghx5kYXeDuSeRew3q9mlvXR5juv2,ghx5kYXeDuSeRew3q9mlvXR5juv2,,,,,,,,,,,,,,,,,,,1505.0,,,654ceaf9bea6ff323bef327c,09:05:34,27/02/2024
html-keyboard-response,118,241799,0.0-51.0-0.0,1560.0,"<div style=""display: flex; flex-direction: column; align-items: center; margin-top: -40px;""><img src=""images/pattern_1.png"" style=""width: 234px; height: 230px; margin-top: -50px;""><div style=""display: flex; justify-content: space-between; margin-top: 33px;""><img src=""images/choice_trial_15.png"" style=""width: 408px; height: 417px; margin-right: 200px;""><img src=""images/choice_trial_6.png"" style=""width: 408px; height: 417px;""></div></div>",f,delaylearn,learning,trial,ghx5kYXeDuSeRew3q9mlvXR5juv2,ghx5kYXeDuSeRew3q9mlvXR5juv2,5.0,images/choice_trial_15.png,images/choice_trial_6.png,images/pattern_1.png,f,j,7000.0,15.0,6.0,1.0,1.0,22.0,0.0,1.0,15.0,120.0,,,,,,654ceaf9bea6ff323bef327c,09:05:34,27/02/2024
html-keyboard-response,119,242805,0.0-51.0-1.0,,"<div style=""display: flex; flex-direction: column; align-items: center; margin-top: -40px;""><img src=""images/pattern_1.png"" style=""width: 234px; height: 230px; margin-top: -50px;""><div style=""display: flex; justify-content: space-between; margin-top: 33px;""><img src=""images/choice_trial_15.png"" style=""width: 408px; height: 417px; margin-right: 608px;""></div></div>",,delaylearn,learning,display_response,ghx5kYXeDuSeRew3q9mlvXR5juv2,ghx5kYXeDuSeRew3q9mlvXR5juv2,,,,,,,,,,,,,,,,,chosen stimuli: images/choice_trial_15.png,,,,,654ceaf9bea6ff323bef327c,09:05:34,27/02/2024
html-keyboard-response,120,249813,0.0-51.0-2.0,,,,delaylearn,learning,feedback_duration_window,ghx5kYXeDuSeRew3q9mlvXR5juv2,ghx5kYXeDuSeRew3q9mlvXR5juv2,,,,,,,,,,,,,,,,,,7000.0,,,,654ceaf9bea6ff323bef327c,09:05:34,27/02/2024
html-keyboard-response,121,251332,0.0-51.0-3.0,,<div style='margin:auto;width: auto; font-size: 150%'><span style='font-weight: bold; font-size: 100px; color: green;'>+10 points!</span><br><br></div>,,delaylearn,learning,feedback_image_window,ghx5kYXeDuSeRew3q9mlvXR5juv2,ghx5kYXeDuSeRew3q9mlvXR5juv2,,,,,,,,,,,,,,,,,,,,,,654ceaf9bea6ff323bef327c,09:05:34,27/02/2024
html-keyboard-response,122,253182,0.0-52.0,,"<div style=""font-size:100px;"">+</div>",,delaylearn,learning,ITI,ghx5kYXeDuSeRew3q9mlvXR5juv2,ghx5kYXeDuSeRew3q9mlvXR5juv2,,,,,,,,,,,,,,,,,,,1823.0,,,654ceaf9bea6ff323bef327c,09:05:34,27/02/2024
html-keyboard-response,123,254966,0.0-53.0-0.0,1779.0,"<div style=""display: flex; flex-direction: column; align-items: center; margin-top: -40px;""><img src=""images/pattern_5.png"" style=""width: 234px; height: 230px; margin-top: -50px;""><div style=""display: flex; justify-content: space-between; margin-top: 33px;""><img src=""images/choice_trial_13.png"" style=""width: 408px; height: 417px; margin-right: 200px;""><img src=""images/choice_trial_7.png"" style=""width: 408px; height: 417px;""></div></div>",j,delaylearn,learning,trial,ghx5kYXeDuSeRew3q9mlvXR5juv2,ghx5kYXeDuSeRew3q9mlvXR5juv2,5.0,images/choice_trial_13.png,images/choice_trial_7.png,images/pattern_5.png,j,j,750.0,13.0,7.0,4.0,1.0,23.0,1.0,1.0,7.0,130.0,,,,,,654ceaf9bea6ff323bef327c,09:05:34,27/02/2024
html-keyboard-response,124,255986,0.0-53.0-1.0,,"<div style=""display: flex; flex-direction: column; align-items: center; margin-top: -40px;""><img src=""images/pattern_5.png"" style=""width: 234px; height: 230px; margin-top: -50px;""><div style=""display: flex; justify-content: space-between; margin-top: 33px;""><img src=""images/choice_trial_7.png"" style=""width: 408px; height: 417px; margin-left:608px;""></div></div>",,delaylearn,learning,display_response,ghx5kYXeDuSeRew3q9mlvXR5juv2,ghx5kYXeDuSeRew3q9mlvXR5juv2,,,,,,,,,,,,,,,,,chosen stimuli: images/choice_trial_7.png,,,,,654ceaf9bea6ff323bef327c,09:05:34,27/02/2024
html-keyboard-response,125,256755,0.0-53.0-2.0,,,,delaylearn,learning,feedback_duration_window,ghx5kYXeDuSeRew3q9mlvXR5juv2,ghx5kYXeDuSeRew3q9mlvXR5juv2,,,,,,,,,,,,,,,,,,750.0,,,,654ceaf9bea6ff323bef327c,09:05:34,27/02/2024
html-keyboard-response,126,258273,0.0-53.0-3.0,,<div style='margin:auto;width: auto; font-size: 150%'><span style='font-weight: bold; font-size: 100px; color: green;'>+10 points!</span><br><br></div>,,delaylearn,learning,feedback_image_window,ghx5kYXeDuSeRew3q9mlvXR5juv2,ghx5kYXeDuSeRew3q9mlvXR5juv2,,,,,,,,,,,,,,,,,,,,,,654ceaf9bea6ff323bef327c,09:05:34,27/02/2024
html-keyboard-response,127,260044,0.0-54.0,,"<div style=""font-size:100px;"">+</div>",,delaylearn,learning,ITI,ghx5kYXeDuSeRew3q9mlvXR5juv2,ghx5kYXeDuSeRew3q9mlvXR5juv2,,,,,,,,,,,,,,,,,,,1757.0,,,654ceaf9bea6ff323bef327c,09:05:34,27/02/2024
html-keyboard-response,128,262013,0.0-55.0-0.0,1962.4000000357628,"<div style=""display: flex; flex-direction: column; align-items: center; margin-top: -40px;""><img src=""images/pattern_3.png"" style=""width: 234px; height: 230px; margin-top: -50px;""><div style=""display: flex; justify-content: space-between; margin-top: 33px;""><img src=""images/choice_trial_2.png"" style=""width: 408px; height: 417px; margin-right: 200px;""><img src=""images/choice_trial_16.png"" style=""width: 408px; height: 417px;""></div></div>",f,delaylearn,learning,trial,ghx5kYXeDuSeRew3q9mlvXR5juv2,ghx5kYXeDuSeRew3q9mlvXR5juv2,5.0,images/choice_trial_2.png,images/choice_trial_16.png,images/pattern_3.png,j,j,7000.0,2.0,16.0,2.0,1.0,24.0,0.0,0.0,2.0,130.0,,,,,,654ceaf9bea6ff323bef327c,09:05:34,27/02/2024
html-keyboard-response,129,263034,0.0-55.0-1.0,,"<div style=""display: flex; flex-direction: column; align-items: center; margin-top: -40px;""><img src=""images/pattern_3.png"" style=""width: 234px; height: 230px; margin-top: -50px;""><div style=""display: flex; justify-content: space-between; margin-top: 33px;""><img src=""images/choice_trial_2.png"" style=""width: 408px; height: 417px; margin-right: 608px;""></div></div>",,delaylearn,learning,display_response,ghx5kYXeDuSeRew3q9mlvXR5juv2,ghx5kYXeDuSeRew3q9mlvXR5juv2,,,,,,,,,,,,,,,,,chosen stimuli: images/choice_trial_2.png,,,,,654ceaf9bea6ff323bef327c,09:05:34,27/02/2024
html-keyboard-response,130,270044,0.0-55.0-2.0,,,,delaylearn,learning,feedback_duration_window,ghx5kYXeDuSeRew3q9mlvXR5juv2,ghx5kYXeDuSeRew3q9mlvXR5juv2,,,,,,,,,,,,,,,,,,7000.0,,,,654ceaf9bea6ff323bef327c,09:05:34,27/02/2024
html-keyboard-response,131,271562,0.0-55.0-3.0,,<div style='margin:auto;width: auto; font-size: 150%'><span style='font-weight: bold; font-size: 100px; color: red;'>0 points!</span><br><br></div>,,delaylearn,learning,feedback_image_window,ghx5kYXeDuSeRew3q9mlvXR5juv2,ghx5kYXeDuSeRew3q9mlvXR5juv2,,,,,,,,,,,,,,,,,,,,,,654ceaf9bea6ff323bef327c,09:05:34,27/02/2024
lmdlab-html-vas-response,132,280343,0.0-56.0-0.0,7234.0,*How <b><u>confident</u></b> are you feeling about your answers at this moment?*,0.7799667695229053,rewlearn,rate_confidence,,ghx5kYXeDuSeRew3q9mlvXR5juv2,ghx5kYXeDuSeRew3q9mlvXR5juv2,,,,,,,,,,,,,,,,,,,,"['No confidence', 'Complete confidence']",,654ceaf9bea6ff323bef327c,09:05:34,27/02/2024
lmdlab-rest-trial-limit,133,287275,0.0-56.0-1.0,5410.399999976158,"<div style=""font-size:40px;""><b>Please take a break!</b><br><br><br><br><p>Great work: you earned undefined points.<br><br><br><p>You have completed part(s) 1 of 6.<br><br><br><br>When you are ready to continue<br><br><br>please click the button.</p><br><br>",0,delaylearn,learning,break,ghx5kYXeDuSeRew3q9mlvXR5juv2,ghx5kYXeDuSeRew3q9mlvXR5juv2,,,,,,,,,,,,,,,,,,,,,0.0,654ceaf9bea6ff323bef327c,09:05:34,27/02/2024
html-keyboard-response,134,290279,0.0-56.0-2.0,,"<div style=""font-size:100px;"">+</div>",,delaylearn,learning,pre_fixation,ghx5kYXeDuSeRew3q9mlvXR5juv2,,,,,,,,,,,,,,,,,,,,,,,654ceaf9bea6ff323bef327c,09:05:34,27/02/2024
lmdlab-html-vas-response,135,294715,0.0-56.0-3.0-0.0,3408.0,How happy are you right now?,0.9231969075311112,delaylearn,learning,mood_baseline,ghx5kYXeDuSeRew3q9mlvXR5juv2,ghx5kYXeDuSeRew3q9mlvXR5juv2,,,,,,,,,,,,,,,,,,,,"['Very unhappy', 'Very happy']",,654ceaf9bea6ff323bef327c,09:05:34,27/02/2024
html-keyboard-response,136,296223,0.0-56.0-3.0-1.0,,,,,,mood_baseline_fixation,ghx5kYXeDuSeRew3q9mlvXR5juv2,,,,,,,,,,,,,,,,,,,,,,,654ceaf9bea6ff323bef327c,09:05:34,27/02/2024
html-keyboard-response,137,297994,0.0-57.0,,"<div style=""font-size:100px;"">+</div>",,delaylearn,learning,ITI,ghx5kYXeDuSeRew3q9mlvXR5juv2,ghx5kYXeDuSeRew3q9mlvXR5juv2,,,,,,,,,,,,,,,,,,,1758.0,,,654ceaf9bea6ff323bef327c,09:05:34,27/02/2024
html-keyboard-response,138,299496,0.0-58.0-0.0,1495.9000000357628,"<div style=""display: flex; flex-direction: column; align-items: center; margin-top: -40px;""><img src=""images/pattern_7.png"" style=""width: 234px; height: 230px; margin-top: -50px;""><div style=""display: flex; justify-content: space-between; margin-top: 33px;""><img src=""images/choice_trial_10.png"" style=""width: 408px; height: 417px; margin-right: 200px;""><img src=""images/choice_trial_8.png"" style=""width: 408px; height: 417px;""></div></div>",j,delaylearn,learning,trial,ghx5kYXeDuSeRew3q9mlvXR5juv2,ghx5kYXeDuSeRew3q9mlvXR5juv2,5.0,images/choice_trial_10.png,images/choice_trial_8.png,images/pattern_7.png,j,j,750.0,10.0,8.0,6.0,1.0,25.0,1.0,1.0,8.0,140.0,,,,,,654ceaf9bea6ff323bef327c,09:05:34,27/02/2024
html-keyboard-response,139,300512,0.0-58.0-1.0,,"<div style=""display: flex; flex-direction: column; align-items: center; margin-top: -40px;""><img src=""images/pattern_7.png"" style=""width: 234px; height: 230px; margin-top: -50px;""><div style=""display: flex; justify-content: space-between; margin-top: 33px;""><img src=""images/choice_trial_8.png"" style=""width: 408px; height: 417px; margin-left:608px;""></div></div>",,delaylearn,learning,display_response,ghx5kYXeDuSeRew3q9mlvXR5juv2,ghx5kYXeDuSeRew3q9mlvXR5juv2,,,,,,,,,,,,,,,,,chosen stimuli: images/choice_trial_8.png,,,,,654ceaf9bea6ff323bef327c,09:05:34,27/02/2024
html-keyboard-response,140,301276,0.0-58.0-2.0,,,,delaylearn,learning,feedback_duration_window,ghx5kYXeDuSeRew3q9mlvXR5juv2,ghx5kYXeDuSeRew3q9mlvXR5juv2,,,,,,,,,,,,,,,,,,750.0,,,,654ceaf9bea6ff323bef327c,09:05:34,27/02/2024
html-keyboard-response,141,302799,0.0-58.0-3.0,,<div style='margin:auto;width: auto; font-size: 150%'><span style='font-weight: bold; font-size: 100px; color: green;'>+10 points!</span><br><br></div>,,delaylearn,learning,feedback_image_window,ghx5kYXeDuSeRew3q9mlvXR5juv2,ghx5kYXeDuSeRew3q9mlvXR5juv2,,,,,,,,,,,,,,,,,,,,,,654ceaf9bea6ff323bef327c,09:05:34,27/02/2024
html-keyboard-response,142,303315,0.0-59.0-0.0,,,,,,mood_trial_fixation,ghx5kYXeDuSeRew3q9mlvXR5juv2,,,,,,,,,,,,,,,,,,,,,,,654ceaf9bea6ff323bef327c,09:05:34,27/02/2024
lmdlab-html-vas-response,143,309541,0.0-59.0-1.0,5199.0,How happy are you right now?,0.9014953714692618,delaylearn,learning,mood_trial,ghx5kYXeDuSeRew3q9mlvXR5juv2,ghx5kYXeDuSeRew3q9mlvXR5juv2,,,,,,,,,,,,,,,,,,,,"['Very unhappy', 'Very happy']",,654ceaf9bea6ff323bef327c,09:05:34,27/02/2024
html-keyboard-response,144,311214,0.0-60.0,,"<div style=""font-size:100px;"">+</div>",,delaylearn,learning,ITI,ghx5kYXeDuSeRew3q9mlvXR5juv2,ghx5kYXeDuSeRew3q9mlvXR5juv2,,,,,,,,,,,,,,,,,,,1661.0,,,654ceaf9bea6ff323bef327c,09:05:34,27/02/2024
html-keyboard-response,145,312865,0.0-61.0-0.0,1645.5,"<div style=""display: flex; flex-direction: column; align-items: center; margin-top: -40px;""><img src=""images/pattern_1.png"" style=""width: 234px; height: 230px; margin-top: -50px;""><div style=""display: flex; justify-content: space-between; margin-top: 33px;""><img src=""images/choice_trial_6.png"" style=""width: 408px; height: 417px; margin-right: 200px;""><img src=""images/choice_trial_15.png"" style=""width: 408px; height: 417px;""></div></div>",j,delaylearn,learning,trial,ghx5kYXeDuSeRew3q9mlvXR5juv2,ghx5kYXeDuSeRew3q9mlvXR5juv2,5.0,images/choice_trial_6.png,images/choice_trial_15.png,images/pattern_1.png,f,f,7000.0,6.0,15.0,1.0,0.0,26.0,0.0,0.0,15.0,140.0,,,,,,654ceaf9bea6ff323bef327c,09:05:34,27/02/2024
html-keyboard-response,146,313880,0.0-61.0-1.0,,"<div style=""display: flex; flex-direction: column; align-items: center; margin-top: -40px;""><img src=""images/pattern_1.png"" style=""width: 234px; height: 230px; margin-top: -50px;""><div style=""display: flex; justify-content: space-between; margin-top: 33px;""><img src=""images/choice_trial_15.png"" style=""width: 408px; height: 417px; margin-left:608px;""></div></div>",,delaylearn,learning,display_response,ghx5kYXeDuSeRew3q9mlvXR5juv2,ghx5kYXeDuSeRew3q9mlvXR5juv2,,,,,,,,,,,,,,,,,chosen stimuli: images/choice_trial_15.png,,,,,654ceaf9bea6ff323bef327c,09:05:34,27/02/2024
html-keyboard-response,147,320890,0.0-61.0-2.0,,,,delaylearn,learning,feedback_duration_window,ghx5kYXeDuSeRew3q9mlvXR5juv2,ghx5kYXeDuSeRew3q9mlvXR5juv2,,,,,,,,,,,,,,,,,,7000.0,,,,654ceaf9bea6ff323bef327c,09:05:34,27/02/2024
html-keyboard-response,148,322413,0.0-61.0-3.0,,<div style='margin:auto;width: auto; font-size: 150%'><span style='font-weight: bold; font-size: 100px; color: red;'>0 points!</span><br><br></div>,,delaylearn,learning,feedback_image_window,ghx5kYXeDuSeRew3q9mlvXR5juv2,ghx5kYXeDuSeRew3q9mlvXR5juv2,,,,,,,,,,,,,,,,,,,,,,654ceaf9bea6ff323bef327c,09:05:34,27/02/2024
html-keyboard-response,149,324538,0.0-62.0,,"<div style=""font-size:100px;"">+</div>",,delaylearn,learning,ITI,ghx5kYXeDuSeRew3q9mlvXR5juv2,ghx5kYXeDuSeRew3q9mlvXR5juv2,,,,,,,,,,,,,,,,,,,2121.0,,,654ceaf9bea6ff323bef327c,09:05:34,27/02/2024
html-keyboard-response,150,326287,0.0-63.0-0.0,1743.0999999642372,"<div style=""display: flex; flex-direction: column; align-items: center; margin-top: -40px;""><img src=""images/pattern_5.png"" style=""width: 234px; height: 230px; margin-top: -50px;""><div style=""display: flex; justify-content: space-between; margin-top: 33px;""><img src=""images/choice_trial_7.png"" style=""width: 408px; height: 417px; margin-right: 200px;""><img src=""images/choice_trial_13.png"" style=""width: 408px; height: 417px;""></div></div>",f,delaylearn,learning,trial,ghx5kYXeDuSeRew3q9mlvXR5juv2,ghx5kYXeDuSeRew3q9mlvXR5juv2,5.0,images/choice_trial_7.png,images/choice_trial_13.png,images/pattern_5.png,f,f,750.0,7.0,13.0,4.0,0.0,27.0,1.0,1.0,7.0,150.0,,,,,,654ceaf9bea6ff323bef327c,09:05:34,27/02/2024
html-keyboard-response,151,327305,0.0-63.0-1.0,,"<div style=""display: flex; flex-direction: column; align-items: center; margin-top: -40px;""><img src=""images/pattern_5.png"" style=""width: 234px; height: 230px; margin-top: -50px;""><div style=""display: flex; justify-content: space-between; margin-top: 33px;""><img src=""images/choice_trial_7.png"" style=""width: 408px; height: 417px; margin-right: 608px;""></div></div>",,delaylearn,learning,display_response,ghx5kYXeDuSeRew3q9mlvXR5juv2,ghx5kYXeDuSeRew3q9mlvXR5juv2,,,,,,,,,,,,,,,,,chosen stimuli: images/choice_trial_7.png,,,,,654ceaf9bea6ff323bef327c,09:05:34,27/02/2024
html-keyboard-response,152,328058,0.0-63.0-2.0,,,,delaylearn,learning,feedback_duration_window,ghx5kYXeDuSeRew3q9mlvXR5juv2,ghx5kYXeDuSeRew3q9mlvXR5juv2,,,,,,,,,,,,,,,,,,750.0,,,,654ceaf9bea6ff323bef327c,09:05:34,27/02/2024
html-keyboard-response,153,329576,0.0-63.0-3.0,,<div style='margin:auto;width: auto; font-size: 150%'><span style='font-weight: bold; font-size: 100px; color: green;'>+10 points!</span><br><br></div>,,delaylearn,learning,feedback_image_window,ghx5kYXeDuSeRew3q9mlvXR5juv2,ghx5kYXeDuSeRew3q9mlvXR5juv2,,,,,,,,,,,,,,,,,,,,,,654ceaf9bea6ff323bef327c,09:05:34,27/02/2024
html-keyboard-response,154,331748,0.0-64.0,,"<div style=""font-size:100px;"">+</div>",,delaylearn,learning,ITI,ghx5kYXeDuSeRew3q9mlvXR5juv2,ghx5kYXeDuSeRew3q9mlvXR5juv2,,,,,,,,,,,,,,,,,,,2164.0,,,654ceaf9bea6ff323bef327c,09:05:34,27/02/2024
html-keyboard-response,155,333335,0.0-65.0-0.0,1581.0,"<div style=""display: flex; flex-direction: column; align-items: center; margin-top: -40px;""><img src=""images/pattern_6.png"" style=""width: 234px; height: 230px; margin-top: -50px;""><div style=""display: flex; justify-content: space-between; margin-top: 33px;""><img src=""images/choice_trial_9.png"" style=""width: 408px; height: 417px; margin-right: 200px;""><img src=""images/choice_trial_14.png"" style=""width: 408px; height: 417px;""></div></div>",f,delaylearn,learning,trial,ghx5kYXeDuSeRew3q9mlvXR5juv2,ghx5kYXeDuSeRew3q9mlvXR5juv2,5.0,images/choice_trial_9.png,images/choice_trial_14.png,images/pattern_6.png,j,j,750.0,9.0,14.0,5.0,1.0,28.0,0.0,0.0,9.0,150.0,,,,,,654ceaf9bea6ff323bef327c,09:05:34,27/02/2024
html-keyboard-response,156,334352,0.0-65.0-1.0,,"<div style=""display: flex; flex-direction: column; align-items: center; margin-top: -40px;""><img src=""images/pattern_6.png"" style=""width: 234px; height: 230px; margin-top: -50px;""><div style=""display: flex; justify-content: space-between; margin-top: 33px;""><img src=""images/choice_trial_9.png"" style=""width: 408px; height: 417px; margin-right: 608px;""></div></div>",,delaylearn,learning,display_response,ghx5kYXeDuSeRew3q9mlvXR5juv2,ghx5kYXeDuSeRew3q9mlvXR5juv2,,,,,,,,,,,,,,,,,chosen stimuli: images/choice_trial_9.png,,,,,654ceaf9bea6ff323bef327c,09:05:34,27/02/2024
html-keyboard-response,157,335115,0.0-65.0-2.0,,,,delaylearn,learning,feedback_duration_window,ghx5kYXeDuSeRew3q9mlvXR5juv2,ghx5kYXeDuSeRew3q9mlvXR5juv2,,,,,,,,,,,,,,,,,,750.0,,,,654ceaf9bea6ff323bef327c,09:05:34,27/02/2024
html-keyboard-response,158,336633,0.0-65.0-3.0,,<div style='margin:auto;width: auto; font-size: 150%'><span style='font-weight: bold; font-size: 100px; color: red;'>0 points!</span><br><br></div>,,delaylearn,learning,feedback_image_window,ghx5kYXeDuSeRew3q9mlvXR5juv2,ghx5kYXeDuSeRew3q9mlvXR5juv2,,,,,,,,,,,,,,,,,,,,,,654ceaf9bea6ff323bef327c,09:05:34,27/02/2024
html-keyboard-response,159,337157,0.0-66.0-0.0,,,,,,mood_trial_fixation,ghx5kYXeDuSeRew3q9mlvXR5juv2,,,,,,,,,,,,,,,,,,,,,,,654ceaf9bea6ff323bef327c,09:05:34,27/02/2024
lmdlab-html-vas-response,160,343664,0.0-66.0-1.0,5479.0,How happy are you right now?,0.96225967244244,delaylearn,learning,mood_trial,ghx5kYXeDuSeRew3q9mlvXR5juv2,ghx5kYXeDuSeRew3q9mlvXR5juv2,,,,,,,,,,,,,,,,,,,,"['Very unhappy', 'Very happy']",,654ceaf9bea6ff323bef327c,09:05:34,27/02/2024
html-keyboard-response,161,346075,0.0-67.0,,"<div style=""font-size:100px;"">+</div>",,delaylearn,learning,ITI,ghx5kYXeDuSeRew3q9mlvXR5juv2,ghx5kYXeDuSeRew3q9mlvXR5juv2,,,,,,,,,,,,,,,,,,,2387.0,,,654ceaf9bea6ff323bef327c,09:05:34,27/02/2024
html-keyboard-response,162,349095,0.0-68.0-0.0,,"<div style=""display: flex; flex-direction: column; align-items: center; margin-top: -40px;""><img src=""images/pattern_4.png"" style=""width: 234px; height: 230px; margin-top: -50px;""><div style=""display: flex; justify-content: space-between; margin-top: 33px;""><img src=""images/choice_trial_4.png"" style=""width: 408px; height: 417px; margin-right: 200px;""><img src=""images/choice_trial_11.png"" style=""width: 408px; height: 417px;""></div></div>",,delaylearn,learning,trial,ghx5kYXeDuSeRew3q9mlvXR5juv2,ghx5kYXeDuSeRew3q9mlvXR5juv2,5.0,images/choice_trial_4.png,images/choice_trial_11.png,images/pattern_4.png,j,j,7000.0,4.0,11.0,3.0,1.0,29.0,0.0,0.0,0.0,150.0,,,,,,654ceaf9bea6ff323bef327c,09:05:34,27/02/2024
html-keyboard-response,163,350101,0.0-68.0-1.0,,<div style='font-weight: bold; font-size: 75px; color: red;'>Missed Trial <br><br><br><br> Please respond faster</div>,,delaylearn,learning,display_response,ghx5kYXeDuSeRew3q9mlvXR5juv2,ghx5kYXeDuSeRew3q9mlvXR5juv2,,,,,,,,,,,,,,,,,Missed trial,,,,,654ceaf9bea6ff323bef327c,09:05:34,27/02/2024
html-keyboard-response,164,350114,0.0-68.0-2.0,,,,delaylearn,learning,feedback_duration_window,ghx5kYXeDuSeRew3q9mlvXR5juv2,ghx5kYXeDuSeRew3q9mlvXR5juv2,,,,,,,,,,,,,,,,,,0.0,,,,654ceaf9bea6ff323bef327c,09:05:34,27/02/2024
html-keyboard-response,165,350129,0.0-68.0-3.0,,,,delaylearn,learning,feedback_image_window,ghx5kYXeDuSeRew3q9mlvXR5juv2,ghx5kYXeDuSeRew3q9mlvXR5juv2,,,,,,,,,,,,,,,,,,,,,,654ceaf9bea6ff323bef327c,09:05:34,27/02/2024
html-keyboard-response,166,351848,0.0-69.0,,"<div style=""font-size:100px;"">+</div>",,delaylearn,learning,ITI,ghx5kYXeDuSeRew3q9mlvXR5juv2,ghx5kYXeDuSeRew3q9mlvXR5juv2,,,,,,,,,,,,,,,,,,,1717.0,,,654ceaf9bea6ff323bef327c,09:05:34,27/02/2024
html-keyboard-response,167,354871,0.0-70.0-0.0,,"<div style=""display: flex; flex-direction: column; align-items: center; margin-top: -40px;""><img src=""images/pattern_3.png"" style=""width: 234px; height: 230px; margin-top: -50px;""><div style=""display: flex; justify-content: space-between; margin-top: 33px;""><img src=""images/choice_trial_2.png"" style=""width: 408px; height: 417px; margin-right: 200px;""><img src=""images/choice_trial_16.png"" style=""width: 408px; height: 417px;""></div></div>",,delaylearn,learning,trial,ghx5kYXeDuSeRew3q9mlvXR5juv2,ghx5kYXeDuSeRew3q9mlvXR5juv2,5.0,images/choice_trial_2.png,images/choice_trial_16.png,images/pattern_3.png,j,j,7000.0,2.0,16.0,2.0,1.0,30.0,0.0,0.0,0.0,150.0,,,,,,654ceaf9bea6ff323bef327c,09:05:34,27/02/2024
html-keyboard-response,168,355894,0.0-70.0-1.0,,<div style='font-weight: bold; font-size: 75px; color: red;'>Missed Trial <br><br><br><br> Please respond faster</div>,,delaylearn,learning,display_response,ghx5kYXeDuSeRew3q9mlvXR5juv2,ghx5kYXeDuSeRew3q9mlvXR5juv2,,,,,,,,,,,,,,,,,Missed trial,,,,,654ceaf9bea6ff323bef327c,09:05:34,27/02/2024
html-keyboard-response,169,355901,0.0-70.0-2.0,,,,delaylearn,learning,feedback_duration_window,ghx5kYXeDuSeRew3q9mlvXR5juv2,ghx5kYXeDuSeRew3q9mlvXR5juv2,,,,,,,,,,,,,,,,,,0.0,,,,654ceaf9bea6ff323bef327c,09:05:34,27/02/2024
html-keyboard-response,170,355909,0.0-70.0-3.0,,,,delaylearn,learning,feedback_image_window,ghx5kYXeDuSeRew3q9mlvXR5juv2,ghx5kYXeDuSeRew3q9mlvXR5juv2,,,,,,,,,,,,,,,,,,,,,,654ceaf9bea6ff323bef327c,09:05:34,27/02/2024
html-keyboard-response,171,358174,0.0-71.0,,"<div style=""font-size:100px;"">+</div>",,delaylearn,learning,ITI,ghx5kYXeDuSeRew3q9mlvXR5juv2,ghx5kYXeDuSeRew3q9mlvXR5juv2,,,,,,,,,,,,,,,,,,,2261.0,,,654ceaf9bea6ff323bef327c,09:05:34,27/02/2024
html-keyboard-response,172,359357,0.0-72.0-0.0,1176.199999988079,"<div style=""display: flex; flex-direction: column; align-items: center; margin-top: -40px;""><img src=""images/pattern_5.png"" style=""width: 234px; height: 230px; margin-top: -50px;""><div style=""display: flex; justify-content: space-between; margin-top: 33px;""><img src=""images/choice_trial_7.png"" style=""width: 408px; height: 417px; margin-right: 200px;""><img src=""images/choice_trial_13.png"" style=""width: 408px; height: 417px;""></div></div>",f,delaylearn,learning,trial,ghx5kYXeDuSeRew3q9mlvXR5juv2,ghx5kYXeDuSeRew3q9mlvXR5juv2,5.0,images/choice_trial_7.png,images/choice_trial_13.png,images/pattern_5.png,j,f,750.0,7.0,13.0,4.0,0.0,31.0,1.0,0.0,7.0,150.0,,,,,,654ceaf9bea6ff323bef327c,09:05:34,27/02/2024
html-keyboard-response,173,360362,0.0-72.0-1.0,,"<div style=""display: flex; flex-direction: column; align-items: center; margin-top: -40px;""><img src=""images/pattern_5.png"" style=""width: 234px; height: 230px; margin-top: -50px;""><div style=""display: flex; justify-content: space-between; margin-top: 33px;""><img src=""images/choice_trial_7.png"" style=""width: 408px; height: 417px; margin-right: 608px;""></div></div>",,delaylearn,learning,display_response,ghx5kYXeDuSeRew3q9mlvXR5juv2,ghx5kYXeDuSeRew3q9mlvXR5juv2,,,,,,,,,,,,,,,,,chosen stimuli: images/choice_trial_7.png,,,,,654ceaf9bea6ff323bef327c,09:05:34,27/02/2024
html-keyboard-response,174,361116,0.0-72.0-2.0,,,,delaylearn,learning,feedback_duration_window,ghx5kYXeDuSeRew3q9mlvXR5juv2,ghx5kYXeDuSeRew3q9mlvXR5juv2,,,,,,,,,,,,,,,,,,750.0,,,,654ceaf9bea6ff323bef327c,09:05:34,27/02/2024
html-keyboard-response,175,362634,0.0-72.0-3.0,,<div style='margin:auto;width: auto; font-size: 150%'><span style='font-weight: bold; font-size: 100px; color: red;'>0 points!</span><br><br></div>,,delaylearn,learning,feedback_image_window,ghx5kYXeDuSeRew3q9mlvXR5juv2,ghx5kYXeDuSeRew3q9mlvXR5juv2,,,,,,,,,,,,,,,,,,,,,,654ceaf9bea6ff323bef327c,09:05:34,27/02/2024
html-keyboard-response,176,364436,0.0-73.0,,"<div style=""font-size:100px;"">+</div>",,delaylearn,learning,ITI,ghx5kYXeDuSeRew3q9mlvXR5juv2,ghx5kYXeDuSeRew3q9mlvXR5juv2,,,,,,,,,,,,,,,,,,,1791.0,,,654ceaf9bea6ff323bef327c,09:05:34,27/02/2024
html-keyboard-response,177,365307,0.0-74.0-0.0,864.5,"<div style=""display: flex; flex-direction: column; align-items: center; margin-top: -40px;""><img src=""images/pattern_1.png"" style=""width: 234px; height: 230px; margin-top: -50px;""><div style=""display: flex; justify-content: space-between; margin-top: 33px;""><img src=""images/choice_trial_6.png"" style=""width: 408px; height: 417px; margin-right: 200px;""><img src=""images/choice_trial_15.png"" style=""width: 408px; height: 417px;""></div></div>",f,delaylearn,learning,trial,ghx5kYXeDuSeRew3q9mlvXR5juv2,ghx5kYXeDuSeRew3q9mlvXR5juv2,5.0,images/choice_trial_6.png,images/choice_trial_15.png,images/pattern_1.png,f,f,7000.0,6.0,15.0,1.0,0.0,32.0,1.0,1.0,6.0,160.0,,,,,,654ceaf9bea6ff323bef327c,09:05:34,27/02/2024
html-keyboard-response,178,366323,0.0-74.0-1.0,,"<div style=""display: flex; flex-direction: column; align-items: center; margin-top: -40px;""><img src=""images/pattern_1.png"" style=""width: 234px; height: 230px; margin-top: -50px;""><div style=""display: flex; justify-content: space-between; margin-top: 33px;""><img src=""images/choice_trial_6.png"" style=""width: 408px; height: 417px; margin-right: 608px;""></div></div>",,delaylearn,learning,display_response,ghx5kYXeDuSeRew3q9mlvXR5juv2,ghx5kYXeDuSeRew3q9mlvXR5juv2,,,,,,,,,,,,,,,,,chosen stimuli: images/choice_trial_6.png,,,,,654ceaf9bea6ff323bef327c,09:05:34,27/02/2024
html-keyboard-response,179,373350,0.0-74.0-2.0,,,,delaylearn,learning,feedback_duration_window,ghx5kYXeDuSeRew3q9mlvXR5juv2,ghx5kYXeDuSeRew3q9mlvXR5juv2,,,,,,,,,,,,,,,,,,7000.0,,,,654ceaf9bea6ff323bef327c,09:05:34,27/02/2024
html-keyboard-response,180,374883,0.0-74.0-3.0,,<div style='margin:auto;width: auto; font-size: 150%'><span style='font-weight: bold; font-size: 100px; color: green;'>+10 points!</span><br><br></div>,,delaylearn,learning,feedback_image_window,ghx5kYXeDuSeRew3q9mlvXR5juv2,ghx5kYXeDuSeRew3q9mlvXR5juv2,,,,,,,,,,,,,,,,,,,,,,654ceaf9bea6ff323bef327c,09:05:34,27/02/2024
html-keyboard-response,181,375400,0.0-75.0-0.0,,,,,,mood_trial_fixation,ghx5kYXeDuSeRew3q9mlvXR5juv2,,,,,,,,,,,,,,,,,,,,,,,654ceaf9bea6ff323bef327c,09:05:34,27/02/2024
lmdlab-html-vas-response,182,381448,0.0-75.0-1.0,5012.0,How happy are you right now?,0.9340476755620358,delaylearn,learning,mood_trial,ghx5kYXeDuSeRew3q9mlvXR5juv2,ghx5kYXeDuSeRew3q9mlvXR5juv2,,,,,,,,,,,,,,,,,,,,"['Very unhappy', 'Very happy']",,654ceaf9bea6ff323bef327c,09:05:34,27/02/2024
html-keyboard-response,183,383954,0.0-76.0,,"<div style=""font-size:100px;"">+</div>",,delaylearn,learning,ITI,ghx5kYXeDuSeRew3q9mlvXR5juv2,ghx5kYXeDuSeRew3q9mlvXR5juv2,,,,,,,,,,,,,,,,,,,2498.0,,,654ceaf9bea6ff323bef327c,09:05:34,27/02/2024
html-keyboard-response,184,385869,0.0-77.0-0.0,1908.800000011921,"<div style=""display: flex; flex-direction: column; align-items: center; margin-top: -40px;""><img src=""images/pattern_6.png"" style=""width: 234px; height: 230px; margin-top: -50px;""><div style=""display: flex; justify-content: space-between; margin-top: 33px;""><img src=""images/choice_trial_14.png"" style=""width: 408px; height: 417px; margin-right: 200px;""><img src=""images/choice_trial_9.png"" style=""width: 408px; height: 417px;""></div></div>",j,delaylearn,learning,trial,ghx5kYXeDuSeRew3q9mlvXR5juv2,ghx5kYXeDuSeRew3q9mlvXR5juv2,5.0,images/choice_trial_14.png,images/choice_trial_9.png,images/pattern_6.png,j,f,750.0,14.0,9.0,5.0,0.0,33.0,0.0,1.0,9.0,170.0,,,,,,654ceaf9bea6ff323bef327c,09:05:34,27/02/2024
html-keyboard-response,185,386889,0.0-77.0-1.0,,"<div style=""display: flex; flex-direction: column; align-items: center; margin-top: -40px;""><img src=""images/pattern_6.png"" style=""width: 234px; height: 230px; margin-top: -50px;""><div style=""display: flex; justify-content: space-between; margin-top: 33px;""><img src=""images/choice_trial_9.png"" style=""width: 408px; height: 417px; margin-left:608px;""></div></div>",,delaylearn,learning,display_response,ghx5kYXeDuSeRew3q9mlvXR5juv2,ghx5kYXeDuSeRew3q9mlvXR5juv2,,,,,,,,,,,,,,,,,chosen stimuli: images/choice_trial_9.png,,,,,654ceaf9bea6ff323bef327c,09:05:34,27/02/2024
html-keyboard-response,186,387643,0.0-77.0-2.0,,,,delaylearn,learning,feedback_duration_window,ghx5kYXeDuSeRew3q9mlvXR5juv2,ghx5kYXeDuSeRew3q9mlvXR5juv2,,,,,,,,,,,,,,,,,,750.0,,,,654ceaf9bea6ff323bef327c,09:05:34,27/02/2024
html-keyboard-response,187,389160,0.0-77.0-3.0,,<div style='margin:auto;width: auto; font-size: 150%'><span style='font-weight: bold; font-size: 100px; color: green;'>+10 points!</span><br><br></div>,,delaylearn,learning,feedback_image_window,ghx5kYXeDuSeRew3q9mlvXR5juv2,ghx5kYXeDuSeRew3q9mlvXR5juv2,,,,,,,,,,,,,,,,,,,,,,654ceaf9bea6ff323bef327c,09:05:34,27/02/2024
html-keyboard-response,188,391379,0.0-78.0,,"<div style=""font-size:100px;"">+</div>",,delaylearn,learning,ITI,ghx5kYXeDuSeRew3q9mlvXR5juv2,ghx5kYXeDuSeRew3q9mlvXR5juv2,,,,,,,,,,,,,,,,,,,2204.0,,,654ceaf9bea6ff323bef327c,09:05:34,27/02/2024
html-keyboard-response,189,393184,0.0-79.0-0.0,1798.0999999642372,"<div style=""display: flex; flex-direction: column; align-items: center; margin-top: -40px;""><img src=""images/pattern_3.png"" style=""width: 234px; height: 230px; margin-top: -50px;""><div style=""display: flex; justify-content: space-between; margin-top: 33px;""><img src=""images/choice_trial_2.png"" style=""width: 408px; height: 417px; margin-right: 200px;""><img src=""images/choice_trial_16.png"" style=""width: 408px; height: 417px;""></div></div>",j,delaylearn,learning,trial,ghx5kYXeDuSeRew3q9mlvXR5juv2,ghx5kYXeDuSeRew3q9mlvXR5juv2,5.0,images/choice_trial_2.png,images/choice_trial_16.png,images/pattern_3.png,j,j,7000.0,2.0,16.0,2.0,1.0,34.0,1.0,1.0,16.0,180.0,,,,,,654ceaf9bea6ff323bef327c,09:05:34,27/02/2024
html-keyboard-response,190,394200,0.0-79.0-1.0,,"<div style=""display: flex; flex-direction: column; align-items: center; margin-top: -40px;""><img src=""images/pattern_3.png"" style=""width: 234px; height: 230px; margin-top: -50px;""><div style=""display: flex; justify-content: space-between; margin-top: 33px;""><img src=""images/choice_trial_16.png"" style=""width: 408px; height: 417px; margin-left:608px;""></div></div>",,delaylearn,learning,display_response,ghx5kYXeDuSeRew3q9mlvXR5juv2,ghx5kYXeDuSeRew3q9mlvXR5juv2,,,,,,,,,,,,,,,,,chosen stimuli: images/choice_trial_16.png,,,,,654ceaf9bea6ff323bef327c,09:05:34,27/02/2024
html-keyboard-response,191,401230,0.0-79.0-2.0,,,,delaylearn,learning,feedback_duration_window,ghx5kYXeDuSeRew3q9mlvXR5juv2,ghx5kYXeDuSeRew3q9mlvXR5juv2,,,,,,,,,,,,,,,,,,7000.0,,,,654ceaf9bea6ff323bef327c,09:05:34,27/02/2024
html-keyboard-response,192,402753,0.0-79.0-3.0,,<div style='margin:auto;width: auto; font-size: 150%'><span style='font-weight: bold; font-size: 100px; color: green;'>+10 points!</span><br><br></div>,,delaylearn,learning,feedback_image_window,ghx5kYXeDuSeRew3q9mlvXR5juv2,ghx5kYXeDuSeRew3q9mlvXR5juv2,,,,,,,,,,,,,,,,,,,,,,654ceaf9bea6ff323bef327c,09:05:34,27/02/2024
html-keyboard-response,193,404608,0.0-80.0,,"<div style=""font-size:100px;"">+</div>",,delaylearn,learning,ITI,ghx5kYXeDuSeRew3q9mlvXR5juv2,ghx5kYXeDuSeRew3q9mlvXR5juv2,,,,,,,,,,,,,,,,,,,1846.0,,,654ceaf9bea6ff323bef327c,09:05:34,27/02/2024
html-keyboard-response,194,406021,0.0-81.0-0.0,1406.5999999642372,"<div style=""display: flex; flex-direction: column; align-items: center; margin-top: -40px;""><img src=""images/pattern_4.png"" style=""width: 234px; height: 230px; margin-top: -50px;""><div style=""display: flex; justify-content: space-between; margin-top: 33px;""><img src=""images/choice_trial_4.png"" style=""width: 408px; height: 417px; margin-right: 200px;""><img src=""images/choice_trial_11.png"" style=""width: 408px; height: 417px;""></div></div>",j,delaylearn,learning,trial,ghx5kYXeDuSeRew3q9mlvXR5juv2,ghx5kYXeDuSeRew3q9mlvXR5juv2,5.0,images/choice_trial_4.png,images/choice_trial_11.png,images/pattern_4.png,f,j,7000.0,4.0,11.0,3.0,1.0,35.0,1.0,0.0,11.0,180.0,,,,,,654ceaf9bea6ff323bef327c,09:05:34,27/02/2024
html-keyboard-response,195,407031,0.0-81.0-1.0,,"<div style=""display: flex; flex-direction: column; align-items: center; margin-top: -40px;""><img src=""images/pattern_4.png"" style=""width: 234px; height: 230px; margin-top: -50px;""><div style=""display: flex; justify-content: space-between; margin-top: 33px;""><img src=""images/choice_trial_11.png"" style=""width: 408px; height: 417px; margin-left:608px;""></div></div>",,delaylearn,learning,display_response,ghx5kYXeDuSeRew3q9mlvXR5juv2,ghx5kYXeDuSeRew3q9mlvXR5juv2,,,,,,,,,,,,,,,,,chosen stimuli: images/choice_trial_11.png,,,,,654ceaf9bea6ff323bef327c,09:05:34,27/02/2024
html-keyboard-response,196,414041,0.0-81.0-2.0,,,,delaylearn,learning,feedback_duration_window,ghx5kYXeDuSeRew3q9mlvXR5juv2,ghx5kYXeDuSeRew3q9mlvXR5juv2,,,,,,,,,,,,,,,,,,7000.0,,,,654ceaf9bea6ff323bef327c,09:05:34,27/02/2024
html-keyboard-response,197,415560,0.0-81.0-3.0,,<div style='margin:auto;width: auto; font-size: 150%'><span style='font-weight: bold; font-size: 100px; color: red;'>0 points!</span><br><br></div>,,delaylearn,learning,feedback_image_window,ghx5kYXeDuSeRew3q9mlvXR5juv2,ghx5kYXeDuSeRew3q9mlvXR5juv2,,,,,,,,,,,,,,,,,,,,,,654ceaf9bea6ff323bef327c,09:05:34,27/02/2024
html-keyboard-response,198,417362,0.0-82.0,,"<div style=""font-size:100px;"">+</div>",,delaylearn,learning,ITI,ghx5kYXeDuSeRew3q9mlvXR5juv2,ghx5kYXeDuSeRew3q9mlvXR5juv2,,,,,,,,,,,,,,,,,,,1780.0,,,654ceaf9bea6ff323bef327c,09:05:34,27/02/2024
html-keyboard-response,199,418149,0.0-83.0-0.0,780.1999999880791,"<div style=""display: flex; flex-direction: column; align-items: center; margin-top: -40px;""><img src=""images/pattern_7.png"" style=""width: 234px; height: 230px; margin-top: -50px;""><div style=""display: flex; justify-content: space-between; margin-top: 33px;""><img src=""images/choice_trial_8.png"" style=""width: 408px; height: 417px; margin-right: 200px;""><img src=""images/choice_trial_10.png"" style=""width: 408px; height: 417px;""></div></div>",f,delaylearn,learning,trial,ghx5kYXeDuSeRew3q9mlvXR5juv2,ghx5kYXeDuSeRew3q9mlvXR5juv2,5.0,images/choice_trial_8.png,images/choice_trial_10.png,images/pattern_7.png,f,f,750.0,8.0,10.0,6.0,0.0,36.0,1.0,1.0,8.0,190.0,,,,,,654ceaf9bea6ff323bef327c,09:05:34,27/02/2024
html-keyboard-response,200,419164,0.0-83.0-1.0,,"<div style=""display: flex; flex-direction: column; align-items: center; margin-top: -40px;""><img src=""images/pattern_7.png"" style=""width: 234px; height: 230px; margin-top: -50px;""><div style=""display: flex; justify-content: space-between; margin-top: 33px;""><img src=""images/choice_trial_8.png"" style=""width: 408px; height: 417px; margin-right: 608px;""></div></div>",,delaylearn,learning,display_response,ghx5kYXeDuSeRew3q9mlvXR5juv2,ghx5kYXeDuSeRew3q9mlvXR5juv2,,,,,,,,,,,,,,,,,chosen stimuli: images/choice_trial_8.png,,,,,654ceaf9bea6ff323bef327c,09:05:34,27/02/2024
html-keyboard-response,201,419928,0.0-83.0-2.0,,,,delaylearn,learning,feedback_duration_window,ghx5kYXeDuSeRew3q9mlvXR5juv2,ghx5kYXeDuSeRew3q9mlvXR5juv2,,,,,,,,,,,,,,,,,,750.0,,,,654ceaf9bea6ff323bef327c,09:05:34,27/02/2024
html-keyboard-response,202,421451,0.0-83.0-3.0,,<div style='margin:auto;width: auto; font-size: 150%'><span style='font-weight: bold; font-size: 100px; color: green;'>+10 points!</span><br><br></div>,,delaylearn,learning,feedback_image_window,ghx5kYXeDuSeRew3q9mlvXR5juv2,ghx5kYXeDuSeRew3q9mlvXR5juv2,,,,,,,,,,,,,,,,,,,,,,654ceaf9bea6ff323bef327c,09:05:34,27/02/2024
html-keyboard-response,203,423153,0.0-84.0,,"<div style=""font-size:100px;"">+</div>",,delaylearn,learning,ITI,ghx5kYXeDuSeRew3q9mlvXR5juv2,ghx5kYXeDuSeRew3q9mlvXR5juv2,,,,,,,,,,,,,,,,,,,1679.0,,,654ceaf9bea6ff323bef327c,09:05:34,27/02/2024
html-keyboard-response,204,424878,0.0-85.0-0.0,1718.800000011921,"<div style=""display: flex; flex-direction: column; align-items: center; margin-top: -40px;""><img src=""images/pattern_1.png"" style=""width: 234px; height: 230px; margin-top: -50px;""><div style=""display: flex; justify-content: space-between; margin-top: 33px;""><img src=""images/choice_trial_6.png"" style=""width: 408px; height: 417px; margin-right: 200px;""><img src=""images/choice_trial_15.png"" style=""width: 408px; height: 417px;""></div></div>",j,delaylearn,learning,trial,ghx5kYXeDuSeRew3q9mlvXR5juv2,ghx5kYXeDuSeRew3q9mlvXR5juv2,5.0,images/choice_trial_6.png,images/choice_trial_15.png,images/pattern_1.png,f,f,7000.0,6.0,15.0,1.0,0.0,37.0,0.0,0.0,15.0,190.0,,,,,,654ceaf9bea6ff323bef327c,09:05:34,27/02/2024
html-keyboard-response,205,425888,0.0-85.0-1.0,,"<div style=""display: flex; flex-direction: column; align-items: center; margin-top: -40px;""><img src=""images/pattern_1.png"" style=""width: 234px; height: 230px; margin-top: -50px;""><div style=""display: flex; justify-content: space-between; margin-top: 33px;""><img src=""images/choice_trial_15.png"" style=""width: 408px; height: 417px; margin-left:608px;""></div></div>",,delaylearn,learning,display_response,ghx5kYXeDuSeRew3q9mlvXR5juv2,ghx5kYXeDuSeRew3q9mlvXR5juv2,,,,,,,,,,,,,,,,,chosen stimuli: images/choice_trial_15.png,,,,,654ceaf9bea6ff323bef327c,09:05:34,27/02/2024
html-keyboard-response,206,432913,0.0-85.0-2.0,,,,delaylearn,learning,feedback_duration_window,ghx5kYXeDuSeRew3q9mlvXR5juv2,ghx5kYXeDuSeRew3q9mlvXR5juv2,,,,,,,,,,,,,,,,,,7000.0,,,,654ceaf9bea6ff323bef327c,09:05:34,27/02/2024
html-keyboard-response,207,434431,0.0-85.0-3.0,,<div style='margin:auto;width: auto; font-size: 150%'><span style='font-weight: bold; font-size: 100px; color: red;'>0 points!</span><br><br></div>,,delaylearn,learning,feedback_image_window,ghx5kYXeDuSeRew3q9mlvXR5juv2,ghx5kYXeDuSeRew3q9mlvXR5juv2,,,,,,,,,,,,,,,,,,,,,,654ceaf9bea6ff323bef327c,09:05:34,27/02/2024
html-keyboard-response,208,434947,0.0-86.0-0.0,,,,,,mood_trial_fixation,ghx5kYXeDuSeRew3q9mlvXR5juv2,,,,,,,,,,,,,,,,,,,,,,,654ceaf9bea6ff323bef327c,09:05:34,27/02/2024
lmdlab-html-vas-response,209,440210,0.0-86.0-1.0,4226.0,How happy are you right now?,0.96225967244244,delaylearn,learning,mood_trial,ghx5kYXeDuSeRew3q9mlvXR5juv2,ghx5kYXeDuSeRew3q9mlvXR5juv2,,,,,,,,,,,,,,,,,,,,"['Very unhappy', 'Very happy']",,654ceaf9bea6ff323bef327c,09:05:34,27/02/2024
html-keyboard-response,210,442631,0.0-87.0,,"<div style=""font-size:100px;"">+</div>",,delaylearn,learning,ITI,ghx5kYXeDuSeRew3q9mlvXR5juv2,ghx5kYXeDuSeRew3q9mlvXR5juv2,,,,,,,,,,,,,,,,,,,2403.0,,,654ceaf9bea6ff323bef327c,09:05:34,27/02/2024
html-keyboard-response,211,445650,0.0-88.0-0.0,,"<div style=""display: flex; flex-direction: column; align-items: center; margin-top: -40px;""><img src=""images/pattern_3.png"" style=""width: 234px; height: 230px; margin-top: -50px;""><div style=""display: flex; justify-content: space-between; margin-top: 33px;""><img src=""images/choice_trial_16.png"" style=""width: 408px; height: 417px; margin-right: 200px;""><img src=""images/choice_trial_2.png"" style=""width: 408px; height: 417px;""></div></div>",,delaylearn,learning,trial,ghx5kYXeDuSeRew3q9mlvXR5juv2,ghx5kYXeDuSeRew3q9mlvXR5juv2,5.0,images/choice_trial_16.png,images/choice_trial_2.png,images/pattern_3.png,j,f,7000.0,16.0,2.0,2.0,0.0,38.0,0.0,0.0,0.0,190.0,,,,,,654ceaf9bea6ff323bef327c,09:05:34,27/02/2024
html-keyboard-response,212,446671,0.0-88.0-1.0,,<div style='font-weight: bold; font-size: 75px; color: red;'>Missed Trial <br><br><br><br> Please respond faster</div>,,delaylearn,learning,display_response,ghx5kYXeDuSeRew3q9mlvXR5juv2,ghx5kYXeDuSeRew3q9mlvXR5juv2,,,,,,,,,,,,,,,,,Missed trial,,,,,654ceaf9bea6ff323bef327c,09:05:34,27/02/2024
html-keyboard-response,213,446700,0.0-88.0-2.0,,,,delaylearn,learning,feedback_duration_window,ghx5kYXeDuSeRew3q9mlvXR5juv2,ghx5kYXeDuSeRew3q9mlvXR5juv2,,,,,,,,,,,,,,,,,,0.0,,,,654ceaf9bea6ff323bef327c,09:05:34,27/02/2024
html-keyboard-response,214,446737,0.0-88.0-3.0,,,,delaylearn,learning,feedback_image_window,ghx5kYXeDuSeRew3q9mlvXR5juv2,ghx5kYXeDuSeRew3q9mlvXR5juv2,,,,,,,,,,,,,,,,,,,,,,654ceaf9bea6ff323bef327c,09:05:34,27/02/2024
html-keyboard-response,215,448325,0.0-89.0,,"<div style=""font-size:100px;"">+</div>",,delaylearn,learning,ITI,ghx5kYXeDuSeRew3q9mlvXR5juv2,ghx5kYXeDuSeRew3q9mlvXR5juv2,,,,,,,,,,,,,,,,,,,1574.0,,,654ceaf9bea6ff323bef327c,09:05:34,27/02/2024
html-keyboard-response,216,449316,0.0-90.0-0.0,984.3999999761581,"<div style=""display: flex; flex-direction: column; align-items: center; margin-top: -40px;""><img src=""images/pattern_7.png"" style=""width: 234px; height: 230px; margin-top: -50px;""><div style=""display: flex; justify-content: space-between; margin-top: 33px;""><img src=""images/choice_trial_10.png"" style=""width: 408px; height: 417px; margin-right: 200px;""><img src=""images/choice_trial_8.png"" style=""width: 408px; height: 417px;""></div></div>",j,delaylearn,learning,trial,ghx5kYXeDuSeRew3q9mlvXR5juv2,ghx5kYXeDuSeRew3q9mlvXR5juv2,5.0,images/choice_trial_10.png,images/choice_trial_8.png,images/pattern_7.png,j,j,750.0,10.0,8.0,6.0,1.0,39.0,1.0,1.0,8.0,200.0,,,,,,654ceaf9bea6ff323bef327c,09:05:34,27/02/2024
html-keyboard-response,217,450328,0.0-90.0-1.0,,"<div style=""display: flex; flex-direction: column; align-items: center; margin-top: -40px;""><img src=""images/pattern_7.png"" style=""width: 234px; height: 230px; margin-top: -50px;""><div style=""display: flex; justify-content: space-between; margin-top: 33px;""><img src=""images/choice_trial_8.png"" style=""width: 408px; height: 417px; margin-left:608px;""></div></div>",,delaylearn,learning,display_response,ghx5kYXeDuSeRew3q9mlvXR5juv2,ghx5kYXeDuSeRew3q9mlvXR5juv2,,,,,,,,,,,,,,,,,chosen stimuli: images/choice_trial_8.png,,,,,654ceaf9bea6ff323bef327c,09:05:34,27/02/2024
html-keyboard-response,218,451097,0.0-90.0-2.0,,,,delaylearn,learning,feedback_duration_window,ghx5kYXeDuSeRew3q9mlvXR5juv2,ghx5kYXeDuSeRew3q9mlvXR5juv2,,,,,,,,,,,,,,,,,,750.0,,,,654ceaf9bea6ff323bef327c,09:05:34,27/02/2024
html-keyboard-response,219,452614,0.0-90.0-3.0,,<div style='margin:auto;width: auto; font-size: 150%'><span style='font-weight: bold; font-size: 100px; color: green;'>+10 points!</span><br><br></div>,,delaylearn,learning,feedback_image_window,ghx5kYXeDuSeRew3q9mlvXR5juv2,ghx5kYXeDuSeRew3q9mlvXR5juv2,,,,,,,,,,,,,,,,,,,,,,654ceaf9bea6ff323bef327c,09:05:34,27/02/2024
html-keyboard-response,220,455133,0.0-91.0,,"<div style=""font-size:100px;"">+</div>",,delaylearn,learning,ITI,ghx5kYXeDuSeRew3q9mlvXR5juv2,ghx5kYXeDuSeRew3q9mlvXR5juv2,,,,,,,,,,,,,,,,,,,2500.0,,,654ceaf9bea6ff323bef327c,09:05:34,27/02/2024
html-keyboard-response,221,456742,0.0-92.0-0.0,1601.6000000238419,"<div style=""display: flex; flex-direction: column; align-items: center; margin-top: -40px;""><img src=""images/pattern_5.png"" style=""width: 234px; height: 230px; margin-top: -50px;""><div style=""display: flex; justify-content: space-between; margin-top: 33px;""><img src=""images/choice_trial_13.png"" style=""width: 408px; height: 417px; margin-right: 200px;""><img src=""images/choice_trial_7.png"" style=""width: 408px; height: 417px;""></div></div>",f,delaylearn,learning,trial,ghx5kYXeDuSeRew3q9mlvXR5juv2,ghx5kYXeDuSeRew3q9mlvXR5juv2,5.0,images/choice_trial_13.png,images/choice_trial_7.png,images/pattern_5.png,j,j,750.0,13.0,7.0,4.0,1.0,40.0,0.0,0.0,13.0,200.0,,,,,,654ceaf9bea6ff323bef327c,09:05:34,27/02/2024
html-keyboard-response,222,457753,0.0-92.0-1.0,,"<div style=""display: flex; flex-direction: column; align-items: center; margin-top: -40px;""><img src=""images/pattern_5.png"" style=""width: 234px; height: 230px; margin-top: -50px;""><div style=""display: flex; justify-content: space-between; margin-top: 33px;""><img src=""images/choice_trial_13.png"" style=""width: 408px; height: 417px; margin-right: 608px;""></div></div>",,delaylearn,learning,display_response,ghx5kYXeDuSeRew3q9mlvXR5juv2,ghx5kYXeDuSeRew3q9mlvXR5juv2,,,,,,,,,,,,,,,,,chosen stimuli: images/choice_trial_13.png,,,,,654ceaf9bea6ff323bef327c,09:05:34,27/02/2024
html-keyboard-response,223,458506,0.0-92.0-2.0,,,,delaylearn,learning,feedback_duration_window,ghx5kYXeDuSeRew3q9mlvXR5juv2,ghx5kYXeDuSeRew3q9mlvXR5juv2,,,,,,,,,,,,,,,,,,750.0,,,,654ceaf9bea6ff323bef327c,09:05:34,27/02/2024
html-keyboard-response,224,460024,0.0-92.0-3.0,,<div style='margin:auto;width: auto; font-size: 150%'><span style='font-weight: bold; font-size: 100px; color: red;'>0 points!</span><br><br></div>,,delaylearn,learning,feedback_image_window,ghx5kYXeDuSeRew3q9mlvXR5juv2,ghx5kYXeDuSeRew3q9mlvXR5juv2,,,,,,,,,,,,,,,,,,,,,,654ceaf9bea6ff323bef327c,09:05:34,27/02/2024
html-keyboard-response,225,460540,0.0-93.0-0.0,,,,,,mood_trial_fixation,ghx5kYXeDuSeRew3q9mlvXR5juv2,,,,,,,,,,,,,,,,,,,,,,,654ceaf9bea6ff323bef327c,09:05:34,27/02/2024
lmdlab-html-vas-response,226,467201,0.0-93.0-1.0,5617.0,How happy are you right now?,0.9145162931063714,delaylearn,learning,mood_trial,ghx5kYXeDuSeRew3q9mlvXR5juv2,ghx5kYXeDuSeRew3q9mlvXR5juv2,,,,,,,,,,,,,,,,,,,,"['Very unhappy', 'Very happy']",,654ceaf9bea6ff323bef327c,09:05:34,27/02/2024
html-keyboard-response,227,469263,0.0-94.0,,"<div style=""font-size:100px;"">+</div>",,delaylearn,learning,ITI,ghx5kYXeDuSeRew3q9mlvXR5juv2,ghx5kYXeDuSeRew3q9mlvXR5juv2,,,,,,,,,,,,,,,,,,,2046.0,,,654ceaf9bea6ff323bef327c,09:05:34,27/02/2024
html-keyboard-response,228,472297,0.0-95.0-0.0,,"<div style=""display: flex; flex-direction: column; align-items: center; margin-top: -40px;""><img src=""images/pattern_4.png"" style=""width: 234px; height: 230px; margin-top: -50px;""><div style=""display: flex; justify-content: space-between; margin-top: 33px;""><img src=""images/choice_trial_11.png"" style=""width: 408px; height: 417px; margin-right: 200px;""><img src=""images/choice_trial_4.png"" style=""width: 408px; height: 417px;""></div></div>",,delaylearn,learning,trial,ghx5kYXeDuSeRew3q9mlvXR5juv2,ghx5kYXeDuSeRew3q9mlvXR5juv2,5.0,images/choice_trial_11.png,images/choice_trial_4.png,images/pattern_4.png,f,f,7000.0,11.0,4.0,3.0,0.0,41.0,0.0,0.0,0.0,200.0,,,,,,654ceaf9bea6ff323bef327c,09:05:34,27/02/2024
html-keyboard-response,229,473324,0.0-95.0-1.0,,<div style='font-weight: bold; font-size: 75px; color: red;'>Missed Trial <br><br><br><br> Please respond faster</div>,,delaylearn,learning,display_response,ghx5kYXeDuSeRew3q9mlvXR5juv2,ghx5kYXeDuSeRew3q9mlvXR5juv2,,,,,,,,,,,,,,,,,Missed trial,,,,,654ceaf9bea6ff323bef327c,09:05:34,27/02/2024
html-keyboard-response,230,473343,0.0-95.0-2.0,,,,delaylearn,learning,feedback_duration_window,ghx5kYXeDuSeRew3q9mlvXR5juv2,ghx5kYXeDuSeRew3q9mlvXR5juv2,,,,,,,,,,,,,,,,,,0.0,,,,654ceaf9bea6ff323bef327c,09:05:34,27/02/2024
html-keyboard-response,231,473373,0.0-95.0-3.0,,,,delaylearn,learning,feedback_image_window,ghx5kYXeDuSeRew3q9mlvXR5juv2,ghx5kYXeDuSeRew3q9mlvXR5juv2,,,,,,,,,,,,,,,,,,,,,,654ceaf9bea6ff323bef327c,09:05:34,27/02/2024
html-keyboard-response,232,475101,0.0-96.0,,"<div style=""font-size:100px;"">+</div>",,delaylearn,learning,ITI,ghx5kYXeDuSeRew3q9mlvXR5juv2,ghx5kYXeDuSeRew3q9mlvXR5juv2,,,,,,,,,,,,,,,,,,,1713.0,,,654ceaf9bea6ff323bef327c,09:05:34,27/02/2024
html-keyboard-response,233,478121,0.0-97.0-0.0,,"<div style=""display: flex; flex-direction: column; align-items: center; margin-top: -40px;""><img src=""images/pattern_6.png"" style=""width: 234px; height: 230px; margin-top: -50px;""><div style=""display: flex; justify-content: space-between; margin-top: 33px;""><img src=""images/choice_trial_9.png"" style=""width: 408px; height: 417px; margin-right: 200px;""><img src=""images/choice_trial_14.png"" style=""width: 408px; height: 417px;""></div></div>",,delaylearn,learning,trial,ghx5kYXeDuSeRew3q9mlvXR5juv2,ghx5kYXeDuSeRew3q9mlvXR5juv2,5.0,images/choice_trial_9.png,images/choice_trial_14.png,images/pattern_6.png,j,j,750.0,9.0,14.0,5.0,1.0,42.0,0.0,0.0,0.0,200.0,,,,,,654ceaf9bea6ff323bef327c,09:05:34,27/02/2024
html-keyboard-response,234,479144,0.0-97.0-1.0,,<div style='font-weight: bold; font-size: 75px; color: red;'>Missed Trial <br><br><br><br> Please respond faster</div>,,delaylearn,learning,display_response,ghx5kYXeDuSeRew3q9mlvXR5juv2,ghx5kYXeDuSeRew3q9mlvXR5juv2,,,,,,,,,,,,,,,,,Missed trial,,,,,654ceaf9bea6ff323bef327c,09:05:34,27/02/2024
html-keyboard-response,235,479159,0.0-97.0-2.0,,,,delaylearn,learning,feedback_duration_window,ghx5kYXeDuSeRew3q9mlvXR5juv2,ghx5kYXeDuSeRew3q9mlvXR5juv2,,,,,,,,,,,,,,,,,,0.0,,,,654ceaf9bea6ff323bef327c,09:05:34,27/02/2024
html-keyboard-response,236,479190,0.0-97.0-3.0,,,,delaylearn,learning,feedback_image_window,ghx5kYXeDuSeRew3q9mlvXR5juv2,ghx5kYXeDuSeRew3q9mlvXR5juv2,,,,,,,,,,,,,,,,,,,,,,654ceaf9bea6ff323bef327c,09:05:34,27/02/2024
html-keyboard-response,237,480846,0.0-98.0,,"<div style=""font-size:100px;"">+</div>",,delaylearn,learning,ITI,ghx5kYXeDuSeRew3q9mlvXR5juv2,ghx5kYXeDuSeRew3q9mlvXR5juv2,,,,,,,,,,,,,,,,,,,1625.0,,,654ceaf9bea6ff323bef327c,09:05:34,27/02/2024
html-keyboard-response,238,482445,0.0-99.0-0.0,1592.0999999642372,"<div style=""display: flex; flex-direction: column; align-items: center; margin-top: -40px;""><img src=""images/pattern_1.png"" style=""width: 234px; height: 230px; margin-top: -50px;""><div style=""display: flex; justify-content: space-between; margin-top: 33px;""><img src=""images/choice_trial_15.png"" style=""width: 408px; height: 417px; margin-right: 200px;""><img src=""images/choice_trial_6.png"" style=""width: 408px; height: 417px;""></div></div>",f,delaylearn,learning,trial,ghx5kYXeDuSeRew3q9mlvXR5juv2,ghx5kYXeDuSeRew3q9mlvXR5juv2,5.0,images/choice_trial_15.png,images/choice_trial_6.png,images/pattern_1.png,j,j,7000.0,15.0,6.0,1.0,1.0,43.0,0.0,0.0,15.0,200.0,,,,,,654ceaf9bea6ff323bef327c,09:05:34,27/02/2024
