trial_type,trial_index,time_elapsed,internal_node_id,rt,stimulus,response,exp_name,exp_stage,test_part,subjectID,databaseID,counterbal,choice_stimuli_1,choice_stimuli_2,pattern_stimuli,rewarded_answer,correct_answer,feedback_duration_times,stim_left,stim_right,pair,trial,response_correct,response_rewarded,chosen_stim,counter,displayed_choice,feedback_durations,ITI_duration,labels,rest_warning,prolificID,start_time,date
pavlovia,0,469,0.0-0.0,,,,,,,BkowKjhmYtZaofs2Xg8KqIMXL2L2,,,,,,,,,,,,,,,,,,,,,,60ec1dd7eaa54649ce2bdd3f,12:48:21,26/02/2024
html-keyboard-response,1,3473,0.0-1.0,,"<div style=""font-size:100px;"">+</div>",,delaylearn,learning,pre_fixation,BkowKjhmYtZaofs2Xg8KqIMXL2L2,,,,,,,,,,,,,,,,,,,,,,60ec1dd7eaa54649ce2bdd3f,12:48:21,26/02/2024
html-keyboard-response,2,4173,0.0-2.0-0.0,697.7999999821186,"<div style=""display: flex; flex-direction: column; align-items: center; margin-top: -40px;""><img src=""images/demo_images/pattern_1.png"" style=""width: 234px; height: 230px; margin-top: -50px;""><div style=""display: flex; justify-content: space-between; margin-top: 33px;""><img src=""images/demo_images/choice_trial_2.png"" style=""width: 408px; height: 417px; margin-right: 200px;""><img src=""images/demo_images/choice_trial_1.png"" style=""width: 408px; height: 417px;""></div></div>",j,delaylearn,learning,trial,BkowKjhmYtZaofs2Xg8KqIMXL2L2,BkowKjhmYtZaofs2Xg8KqIMXL2L2,3.0,images/demo_images/choice_trial_2.png,images/demo_images/choice_trial_1.png,images/demo_images/pattern_1.png,j,j,3000.0,2.0,1.0,20.0,1.0,1.0,1.0,1.0,10.0,,,,,,60ec1dd7eaa54649ce2bdd3f,12:48:21,26/02/2024
html-keyboard-response,3,5189,0.0-2.0-1.0,,"<div style=""display: flex; flex-direction: column; align-items: center; margin-top: -40px;""><img src=""images/demo_images/pattern_1.png"" style=""width: 234px; height: 230px; margin-top: -50px;""><div style=""display: flex; justify-content: space-between; margin-top: 33px;""><img src=""images/demo_images/choice_trial_1.png"" style=""width: 408px; height: 417px; margin-left:608px;""></div></div>",,delaylearn,learning,display_response,BkowKjhmYtZaofs2Xg8KqIMXL2L2,BkowKjhmYtZaofs2Xg8KqIMXL2L2,,,,,,,,,,,,,,,,chosen stimuli: images/demo_images/choice_trial_1.png,,,,,60ec1dd7eaa54649ce2bdd3f,12:48:21,26/02/2024
html-keyboard-response,4,8196,0.0-2.0-2.0,,,,delaylearn,learning,feedback_duration_window,BkowKjhmYtZaofs2Xg8KqIMXL2L2,BkowKjhmYtZaofs2Xg8KqIMXL2L2,,,,,,,,,,,,,,,,,3000.0,,,,60ec1dd7eaa54649ce2bdd3f,12:48:21,26/02/2024
html-keyboard-response,5,9708,0.0-2.0-3.0,,<div style='margin:auto;width: auto; font-size: 150%'><span style='font-weight: bold; font-size: 100px; color: green;'>+10 points!</span><br><br></div>,,delaylearn,learning,feedback_image_window,BkowKjhmYtZaofs2Xg8KqIMXL2L2,BkowKjhmYtZaofs2Xg8KqIMXL2L2,,,,,,,,,,,,,,,,,,,,,60ec1dd7eaa54649ce2bdd3f,12:48:21,26/02/2024
html-keyboard-response,6,12106,0.0-3.0,,"<div style=""font-size:100px;"">+</div>",,delaylearn,learning,ITI,BkowKjhmYtZaofs2Xg8KqIMXL2L2,BkowKjhmYtZaofs2Xg8KqIMXL2L2,,,,,,,,,,,,,,,,,,2382.0,,,60ec1dd7eaa54649ce2bdd3f,12:48:21,26/02/2024
html-keyboard-response,7,12841,0.0-4.0-0.0,733.5999999940395,"<div style=""display: flex; flex-direction: column; align-items: center; margin-top: -40px;""><img src=""images/demo_images/pattern_1.png"" style=""width: 234px; height: 230px; margin-top: -50px;""><div style=""display: flex; justify-content: space-between; margin-top: 33px;""><img src=""images/demo_images/choice_trial_2.png"" style=""width: 408px; height: 417px; margin-right: 200px;""><img src=""images/demo_images/choice_trial_1.png"" style=""width: 408px; height: 417px;""></div></div>",j,delaylearn,learning,trial,BkowKjhmYtZaofs2Xg8KqIMXL2L2,BkowKjhmYtZaofs2Xg8KqIMXL2L2,3.0,images/demo_images/choice_trial_2.png,images/demo_images/choice_trial_1.png,images/demo_images/pattern_1.png,j,j,3000.0,2.0,1.0,20.0,2.0,1.0,1.0,1.0,20.0,,,,,,60ec1dd7eaa54649ce2bdd3f,12:48:21,26/02/2024
html-keyboard-response,8,13851,0.0-4.0-1.0,,"<div style=""display: flex; flex-direction: column; align-items: center; margin-top: -40px;""><img src=""images/demo_images/pattern_1.png"" style=""width: 234px; height: 230px; margin-top: -50px;""><div style=""display: flex; justify-content: space-between; margin-top: 33px;""><img src=""images/demo_images/choice_trial_1.png"" style=""width: 408px; height: 417px; margin-left:608px;""></div></div>",,delaylearn,learning,display_response,BkowKjhmYtZaofs2Xg8KqIMXL2L2,BkowKjhmYtZaofs2Xg8KqIMXL2L2,,,,,,,,,,,,,,,,chosen stimuli: images/demo_images/choice_trial_1.png,,,,,60ec1dd7eaa54649ce2bdd3f,12:48:21,26/02/2024
html-keyboard-response,9,16854,0.0-4.0-2.0,,,,delaylearn,learning,feedback_duration_window,BkowKjhmYtZaofs2Xg8KqIMXL2L2,BkowKjhmYtZaofs2Xg8KqIMXL2L2,,,,,,,,,,,,,,,,,3000.0,,,,60ec1dd7eaa54649ce2bdd3f,12:48:21,26/02/2024
html-keyboard-response,10,18360,0.0-4.0-3.0,,<div style='margin:auto;width: auto; font-size: 150%'><span style='font-weight: bold; font-size: 100px; color: green;'>+10 points!</span><br><br></div>,,delaylearn,learning,feedback_image_window,BkowKjhmYtZaofs2Xg8KqIMXL2L2,BkowKjhmYtZaofs2Xg8KqIMXL2L2,,,,,,,,,,,,,,,,,,,,,60ec1dd7eaa54649ce2bdd3f,12:48:21,26/02/2024
html-keyboard-response,11,20180,0.0-5.0,,"<div style=""font-size:100px;"">+</div>",,delaylearn,learning,ITI,BkowKjhmYtZaofs2Xg8KqIMXL2L2,BkowKjhmYtZaofs2Xg8KqIMXL2L2,,,,,,,,,,,,,,,,,,1808.0,,,60ec1dd7eaa54649ce2bdd3f,12:48:21,26/02/2024
html-keyboard-response,12,20709,0.0-6.0-0.0,528.3000000119209,"<div style=""display: flex; flex-direction: column; align-items: center; margin-top: -40px;""><img src=""images/demo_images/pattern_1.png"" style=""width: 234px; height: 230px; margin-top: -50px;""><div style=""display: flex; justify-content: space-between; margin-top: 33px;""><img src=""images/demo_images/choice_trial_1.png"" style=""width: 408px; height: 417px; margin-right: 200px;""><img src=""images/demo_images/choice_trial_2.png"" style=""width: 408px; height: 417px;""></div></div>",f,delaylearn,learning,trial,BkowKjhmYtZaofs2Xg8KqIMXL2L2,BkowKjhmYtZaofs2Xg8KqIMXL2L2,3.0,images/demo_images/choice_trial_1.png,images/demo_images/choice_trial_2.png,images/demo_images/pattern_1.png,j,f,3000.0,1.0,2.0,20.0,3.0,1.0,0.0,1.0,20.0,,,,,,60ec1dd7eaa54649ce2bdd3f,12:48:21,26/02/2024
html-keyboard-response,13,21721,0.0-6.0-1.0,,"<div style=""display: flex; flex-direction: column; align-items: center; margin-top: -40px;""><img src=""images/demo_images/pattern_1.png"" style=""width: 234px; height: 230px; margin-top: -50px;""><div style=""display: flex; justify-content: space-between; margin-top: 33px;""><img src=""images/demo_images/choice_trial_1.png"" style=""width: 408px; height: 417px; margin-right: 608px;""></div></div>",,delaylearn,learning,display_response,BkowKjhmYtZaofs2Xg8KqIMXL2L2,BkowKjhmYtZaofs2Xg8KqIMXL2L2,,,,,,,,,,,,,,,,chosen stimuli: images/demo_images/choice_trial_1.png,,,,,60ec1dd7eaa54649ce2bdd3f,12:48:21,26/02/2024
html-keyboard-response,14,24725,0.0-6.0-2.0,,,,delaylearn,learning,feedback_duration_window,BkowKjhmYtZaofs2Xg8KqIMXL2L2,BkowKjhmYtZaofs2Xg8KqIMXL2L2,,,,,,,,,,,,,,,,,3000.0,,,,60ec1dd7eaa54649ce2bdd3f,12:48:21,26/02/2024
html-keyboard-response,15,26229,0.0-6.0-3.0,,<div style='margin:auto;width: auto; font-size: 150%'><span style='font-weight: bold; font-size: 100px; color: red;'>0 points!</span><br><br></div>,,delaylearn,learning,feedback_image_window,BkowKjhmYtZaofs2Xg8KqIMXL2L2,BkowKjhmYtZaofs2Xg8KqIMXL2L2,,,,,,,,,,,,,,,,,,,,,60ec1dd7eaa54649ce2bdd3f,12:48:21,26/02/2024
html-keyboard-response,16,28572,0.0-7.0,,"<div style=""font-size:100px;"">+</div>",,delaylearn,learning,ITI,BkowKjhmYtZaofs2Xg8KqIMXL2L2,BkowKjhmYtZaofs2Xg8KqIMXL2L2,,,,,,,,,,,,,,,,,,2334.0,,,60ec1dd7eaa54649ce2bdd3f,12:48:21,26/02/2024
html-keyboard-response,17,29296,0.0-8.0-0.0,722.0999999940395,"<div style=""display: flex; flex-direction: column; align-items: center; margin-top: -40px;""><img src=""images/demo_images/pattern_1.png"" style=""width: 234px; height: 230px; margin-top: -50px;""><div style=""display: flex; justify-content: space-between; margin-top: 33px;""><img src=""images/demo_images/choice_trial_1.png"" style=""width: 408px; height: 417px; margin-right: 200px;""><img src=""images/demo_images/choice_trial_2.png"" style=""width: 408px; height: 417px;""></div></div>",f,delaylearn,learning,trial,BkowKjhmYtZaofs2Xg8KqIMXL2L2,BkowKjhmYtZaofs2Xg8KqIMXL2L2,3.0,images/demo_images/choice_trial_1.png,images/demo_images/choice_trial_2.png,images/demo_images/pattern_1.png,f,f,3000.0,1.0,2.0,20.0,4.0,1.0,1.0,1.0,30.0,,,,,,60ec1dd7eaa54649ce2bdd3f,12:48:21,26/02/2024
html-keyboard-response,18,30305,0.0-8.0-1.0,,"<div style=""display: flex; flex-direction: column; align-items: center; margin-top: -40px;""><img src=""images/demo_images/pattern_1.png"" style=""width: 234px; height: 230px; margin-top: -50px;""><div style=""display: flex; justify-content: space-between; margin-top: 33px;""><img src=""images/demo_images/choice_trial_1.png"" style=""width: 408px; height: 417px; margin-right: 608px;""></div></div>",,delaylearn,learning,display_response,BkowKjhmYtZaofs2Xg8KqIMXL2L2,BkowKjhmYtZaofs2Xg8KqIMXL2L2,,,,,,,,,,,,,,,,chosen stimuli: images/demo_images/choice_trial_1.png,,,,,60ec1dd7eaa54649ce2bdd3f,12:48:21,26/02/2024
html-keyboard-response,19,33315,0.0-8.0-2.0,,,,delaylearn,learning,feedback_duration_window,BkowKjhmYtZaofs2Xg8KqIMXL2L2,BkowKjhmYtZaofs2Xg8KqIMXL2L2,,,,,,,,,,,,,,,,,3000.0,,,,60ec1dd7eaa54649ce2bdd3f,12:48:21,26/02/2024
html-keyboard-response,20,34817,0.0-8.0-3.0,,<div style='margin:auto;width: auto; font-size: 150%'><span style='font-weight: bold; font-size: 100px; color: green;'>+10 points!</span><br><br></div>,,delaylearn,learning,feedback_image_window,BkowKjhmYtZaofs2Xg8KqIMXL2L2,BkowKjhmYtZaofs2Xg8KqIMXL2L2,,,,,,,,,,,,,,,,,,,,,60ec1dd7eaa54649ce2bdd3f,12:48:21,26/02/2024
html-keyboard-response,21,35324,0.0-9.0-0.0,,,,,,mood_trial_fixation,BkowKjhmYtZaofs2Xg8KqIMXL2L2,,,,,,,,,,,,,,,,,,,,,,60ec1dd7eaa54649ce2bdd3f,12:48:21,26/02/2024
lmdlab-html-vas-response,22,41465,0.0-9.0-1.0,5128.0,How happy are you right now?,0.4902673734969759,delaylearn,learning,mood_trial,BkowKjhmYtZaofs2Xg8KqIMXL2L2,BkowKjhmYtZaofs2Xg8KqIMXL2L2,,,,,,,,,,,,,,,,,,,"['Very unhappy', 'Very happy']",,60ec1dd7eaa54649ce2bdd3f,12:48:21,26/02/2024
html-keyboard-response,23,43441,0.0-10.0,,"<div style=""font-size:100px;"">+</div>",,delaylearn,learning,ITI,BkowKjhmYtZaofs2Xg8KqIMXL2L2,BkowKjhmYtZaofs2Xg8KqIMXL2L2,,,,,,,,,,,,,,,,,,1972.0,,,60ec1dd7eaa54649ce2bdd3f,12:48:21,26/02/2024
html-keyboard-response,24,44044,0.0-11.0-0.0,601.0999999940395,"<div style=""display: flex; flex-direction: column; align-items: center; margin-top: -40px;""><img src=""images/demo_images/pattern_1.png"" style=""width: 234px; height: 230px; margin-top: -50px;""><div style=""display: flex; justify-content: space-between; margin-top: 33px;""><img src=""images/demo_images/choice_trial_2.png"" style=""width: 408px; height: 417px; margin-right: 200px;""><img src=""images/demo_images/choice_trial_1.png"" style=""width: 408px; height: 417px;""></div></div>",j,delaylearn,learning,trial,BkowKjhmYtZaofs2Xg8KqIMXL2L2,BkowKjhmYtZaofs2Xg8KqIMXL2L2,3.0,images/demo_images/choice_trial_2.png,images/demo_images/choice_trial_1.png,images/demo_images/pattern_1.png,j,j,3000.0,2.0,1.0,20.0,5.0,1.0,1.0,1.0,40.0,,,,,,60ec1dd7eaa54649ce2bdd3f,12:48:21,26/02/2024
html-keyboard-response,25,45050,0.0-11.0-1.0,,"<div style=""display: flex; flex-direction: column; align-items: center; margin-top: -40px;""><img src=""images/demo_images/pattern_1.png"" style=""width: 234px; height: 230px; margin-top: -50px;""><div style=""display: flex; justify-content: space-between; margin-top: 33px;""><img src=""images/demo_images/choice_trial_1.png"" style=""width: 408px; height: 417px; margin-left:608px;""></div></div>",,delaylearn,learning,display_response,BkowKjhmYtZaofs2Xg8KqIMXL2L2,BkowKjhmYtZaofs2Xg8KqIMXL2L2,,,,,,,,,,,,,,,,chosen stimuli: images/demo_images/choice_trial_1.png,,,,,60ec1dd7eaa54649ce2bdd3f,12:48:21,26/02/2024
html-keyboard-response,26,48059,0.0-11.0-2.0,,,,delaylearn,learning,feedback_duration_window,BkowKjhmYtZaofs2Xg8KqIMXL2L2,BkowKjhmYtZaofs2Xg8KqIMXL2L2,,,,,,,,,,,,,,,,,3000.0,,,,60ec1dd7eaa54649ce2bdd3f,12:48:21,26/02/2024
html-keyboard-response,27,49566,0.0-11.0-3.0,,<div style='margin:auto;width: auto; font-size: 150%'><span style='font-weight: bold; font-size: 100px; color: green;'>+10 points!</span><br><br></div>,,delaylearn,learning,feedback_image_window,BkowKjhmYtZaofs2Xg8KqIMXL2L2,BkowKjhmYtZaofs2Xg8KqIMXL2L2,,,,,,,,,,,,,,,,,,,,,60ec1dd7eaa54649ce2bdd3f,12:48:21,26/02/2024
html-keyboard-response,28,51581,0.0-12.0,,"<div style=""font-size:100px;"">+</div>",,delaylearn,learning,ITI,BkowKjhmYtZaofs2Xg8KqIMXL2L2,BkowKjhmYtZaofs2Xg8KqIMXL2L2,,,,,,,,,,,,,,,,,,2007.0,,,60ec1dd7eaa54649ce2bdd3f,12:48:21,26/02/2024
html-keyboard-response,29,52260,0.0-13.0-0.0,677.0,"<div style=""display: flex; flex-direction: column; align-items: center; margin-top: -40px;""><img src=""images/demo_images/pattern_1.png"" style=""width: 234px; height: 230px; margin-top: -50px;""><div style=""display: flex; justify-content: space-between; margin-top: 33px;""><img src=""images/demo_images/choice_trial_1.png"" style=""width: 408px; height: 417px; margin-right: 200px;""><img src=""images/demo_images/choice_trial_2.png"" style=""width: 408px; height: 417px;""></div></div>",f,delaylearn,learning,trial,BkowKjhmYtZaofs2Xg8KqIMXL2L2,BkowKjhmYtZaofs2Xg8KqIMXL2L2,3.0,images/demo_images/choice_trial_1.png,images/demo_images/choice_trial_2.png,images/demo_images/pattern_1.png,f,f,3000.0,1.0,2.0,20.0,6.0,1.0,1.0,1.0,50.0,,,,,,60ec1dd7eaa54649ce2bdd3f,12:48:21,26/02/2024
html-keyboard-response,30,53261,0.0-13.0-1.0,,"<div style=""display: flex; flex-direction: column; align-items: center; margin-top: -40px;""><img src=""images/demo_images/pattern_1.png"" style=""width: 234px; height: 230px; margin-top: -50px;""><div style=""display: flex; justify-content: space-between; margin-top: 33px;""><img src=""images/demo_images/choice_trial_1.png"" style=""width: 408px; height: 417px; margin-right: 608px;""></div></div>",,delaylearn,learning,display_response,BkowKjhmYtZaofs2Xg8KqIMXL2L2,BkowKjhmYtZaofs2Xg8KqIMXL2L2,,,,,,,,,,,,,,,,chosen stimuli: images/demo_images/choice_trial_1.png,,,,,60ec1dd7eaa54649ce2bdd3f,12:48:21,26/02/2024
html-keyboard-response,31,56278,0.0-13.0-2.0,,,,delaylearn,learning,feedback_duration_window,BkowKjhmYtZaofs2Xg8KqIMXL2L2,BkowKjhmYtZaofs2Xg8KqIMXL2L2,,,,,,,,,,,,,,,,,3000.0,,,,60ec1dd7eaa54649ce2bdd3f,12:48:21,26/02/2024
html-keyboard-response,32,57782,0.0-13.0-3.0,,<div style='margin:auto;width: auto; font-size: 150%'><span style='font-weight: bold; font-size: 100px; color: green;'>+10 points!</span><br><br></div>,,delaylearn,learning,feedback_image_window,BkowKjhmYtZaofs2Xg8KqIMXL2L2,BkowKjhmYtZaofs2Xg8KqIMXL2L2,,,,,,,,,,,,,,,,,,,,,60ec1dd7eaa54649ce2bdd3f,12:48:21,26/02/2024
html-button-response,33,60177,0.0-14.0,2393.9000000059605,"
  <div style=""display: flex; align-items: center; justify-content: center; height: 80vh;"">
  <div>
          <img src=""images/inst_demo_finish.png"" style=""width: 80vw; height:auto;"">
          <br><br>
      </div>
      <br><br>
  </div>",0,,,,BkowKjhmYtZaofs2Xg8KqIMXL2L2,,,,,,,,,,,,,,,,,,,,,,60ec1dd7eaa54649ce2bdd3f,12:48:21,26/02/2024
html-keyboard-response,34,63233,0.0-15.0,3054.5,"
  <div style=""display: flex; align-items: center; justify-content: center; height: 80vh;"">
  <div>
          <img src=""images/inst_6.png"" style=""width: 80vw; height:auto;"">
          <br><br>
      </div>
      <br><br>
  </div>",j,,,,BkowKjhmYtZaofs2Xg8KqIMXL2L2,,,,,,,,,,,,,,,,,,,,,,60ec1dd7eaa54649ce2bdd3f,12:48:21,26/02/2024
html-keyboard-response,35,66236,0.0-16.0,,"<div style=""font-size:100px;"">+</div>",,delaylearn,learning,pre_fixation,BkowKjhmYtZaofs2Xg8KqIMXL2L2,,,,,,,,,,,,,,,,,,,,,,60ec1dd7eaa54649ce2bdd3f,12:48:21,26/02/2024
html-keyboard-response,36,68531,0.0-17.0,,"<div style=""font-size:100px;"">+</div>",,delaylearn,learning,ITI,BkowKjhmYtZaofs2Xg8KqIMXL2L2,BkowKjhmYtZaofs2Xg8KqIMXL2L2,,,,,,,,,,,,,,,,,,2291.0,,,60ec1dd7eaa54649ce2bdd3f,12:48:21,26/02/2024
html-keyboard-response,37,69278,0.0-18.0-0.0,744.6999999880791,"<div style=""display: flex; flex-direction: column; align-items: center; margin-top: -40px;""><img src=""images/pattern_3.png"" style=""width: 234px; height: 230px; margin-top: -50px;""><div style=""display: flex; justify-content: space-between; margin-top: 33px;""><img src=""images/choice_trial_14.png"" style=""width: 408px; height: 417px; margin-right: 200px;""><img src=""images/choice_trial_8.png"" style=""width: 408px; height: 417px;""></div></div>",j,delaylearn,learning,trial,BkowKjhmYtZaofs2Xg8KqIMXL2L2,BkowKjhmYtZaofs2Xg8KqIMXL2L2,3.0,images/choice_trial_14.png,images/choice_trial_8.png,images/pattern_3.png,f,f,7000.0,14.0,8.0,2.0,7.0,0.0,0.0,8.0,50.0,,,,,,60ec1dd7eaa54649ce2bdd3f,12:48:21,26/02/2024
html-keyboard-response,38,70280,0.0-18.0-1.0,,"<div style=""display: flex; flex-direction: column; align-items: center; margin-top: -40px;""><img src=""images/pattern_3.png"" style=""width: 234px; height: 230px; margin-top: -50px;""><div style=""display: flex; justify-content: space-between; margin-top: 33px;""><img src=""images/choice_trial_8.png"" style=""width: 408px; height: 417px; margin-left:608px;""></div></div>",,delaylearn,learning,display_response,BkowKjhmYtZaofs2Xg8KqIMXL2L2,BkowKjhmYtZaofs2Xg8KqIMXL2L2,,,,,,,,,,,,,,,,chosen stimuli: images/choice_trial_8.png,,,,,60ec1dd7eaa54649ce2bdd3f,12:48:21,26/02/2024
html-keyboard-response,39,77296,0.0-18.0-2.0,,,,delaylearn,learning,feedback_duration_window,BkowKjhmYtZaofs2Xg8KqIMXL2L2,BkowKjhmYtZaofs2Xg8KqIMXL2L2,,,,,,,,,,,,,,,,,7000.0,,,,60ec1dd7eaa54649ce2bdd3f,12:48:21,26/02/2024
html-keyboard-response,40,78804,0.0-18.0-3.0,,<div style='margin:auto;width: auto; font-size: 150%'><span style='font-weight: bold; font-size: 100px; color: red;'>0 points!</span><br><br></div>,,delaylearn,learning,feedback_image_window,BkowKjhmYtZaofs2Xg8KqIMXL2L2,BkowKjhmYtZaofs2Xg8KqIMXL2L2,,,,,,,,,,,,,,,,,,,,,60ec1dd7eaa54649ce2bdd3f,12:48:21,26/02/2024
html-keyboard-response,41,80647,0.0-19.0,,"<div style=""font-size:100px;"">+</div>",,delaylearn,learning,ITI,BkowKjhmYtZaofs2Xg8KqIMXL2L2,BkowKjhmYtZaofs2Xg8KqIMXL2L2,,,,,,,,,,,,,,,,,,1837.0,,,60ec1dd7eaa54649ce2bdd3f,12:48:21,26/02/2024
html-keyboard-response,42,81229,0.0-20.0-0.0,580.5,"<div style=""display: flex; flex-direction: column; align-items: center; margin-top: -40px;""><img src=""images/pattern_7.png"" style=""width: 234px; height: 230px; margin-top: -50px;""><div style=""display: flex; justify-content: space-between; margin-top: 33px;""><img src=""images/choice_trial_8.png"" style=""width: 408px; height: 417px; margin-right: 200px;""><img src=""images/choice_trial_14.png"" style=""width: 408px; height: 417px;""></div></div>",j,delaylearn,learning,trial,BkowKjhmYtZaofs2Xg8KqIMXL2L2,BkowKjhmYtZaofs2Xg8KqIMXL2L2,3.0,images/choice_trial_8.png,images/choice_trial_14.png,images/pattern_7.png,j,j,750.0,8.0,14.0,6.0,8.0,1.0,1.0,14.0,60.0,,,,,,60ec1dd7eaa54649ce2bdd3f,12:48:21,26/02/2024
html-keyboard-response,43,82246,0.0-20.0-1.0,,"<div style=""display: flex; flex-direction: column; align-items: center; margin-top: -40px;""><img src=""images/pattern_7.png"" style=""width: 234px; height: 230px; margin-top: -50px;""><div style=""display: flex; justify-content: space-between; margin-top: 33px;""><img src=""images/choice_trial_14.png"" style=""width: 408px; height: 417px; margin-left:608px;""></div></div>",,delaylearn,learning,display_response,BkowKjhmYtZaofs2Xg8KqIMXL2L2,BkowKjhmYtZaofs2Xg8KqIMXL2L2,,,,,,,,,,,,,,,,chosen stimuli: images/choice_trial_14.png,,,,,60ec1dd7eaa54649ce2bdd3f,12:48:21,26/02/2024
html-keyboard-response,44,83004,0.0-20.0-2.0,,,,delaylearn,learning,feedback_duration_window,BkowKjhmYtZaofs2Xg8KqIMXL2L2,BkowKjhmYtZaofs2Xg8KqIMXL2L2,,,,,,,,,,,,,,,,,750.0,,,,60ec1dd7eaa54649ce2bdd3f,12:48:21,26/02/2024
html-keyboard-response,45,84519,0.0-20.0-3.0,,<div style='margin:auto;width: auto; font-size: 150%'><span style='font-weight: bold; font-size: 100px; color: green;'>+10 points!</span><br><br></div>,,delaylearn,learning,feedback_image_window,BkowKjhmYtZaofs2Xg8KqIMXL2L2,BkowKjhmYtZaofs2Xg8KqIMXL2L2,,,,,,,,,,,,,,,,,,,,,60ec1dd7eaa54649ce2bdd3f,12:48:21,26/02/2024
html-keyboard-response,46,86738,0.0-21.0,,"<div style=""font-size:100px;"">+</div>",,delaylearn,learning,ITI,BkowKjhmYtZaofs2Xg8KqIMXL2L2,BkowKjhmYtZaofs2Xg8KqIMXL2L2,,,,,,,,,,,,,,,,,,2209.0,,,60ec1dd7eaa54649ce2bdd3f,12:48:21,26/02/2024
html-keyboard-response,47,87130,0.0-22.0-0.0,390.09999999403954,"<div style=""display: flex; flex-direction: column; align-items: center; margin-top: -40px;""><img src=""images/pattern_4.png"" style=""width: 234px; height: 230px; margin-top: -50px;""><div style=""display: flex; justify-content: space-between; margin-top: 33px;""><img src=""images/choice_trial_14.png"" style=""width: 408px; height: 417px; margin-right: 200px;""><img src=""images/choice_trial_8.png"" style=""width: 408px; height: 417px;""></div></div>",f,delaylearn,learning,trial,BkowKjhmYtZaofs2Xg8KqIMXL2L2,BkowKjhmYtZaofs2Xg8KqIMXL2L2,3.0,images/choice_trial_14.png,images/choice_trial_8.png,images/pattern_4.png,f,f,7000.0,14.0,8.0,3.0,9.0,1.0,1.0,14.0,70.0,,,,,,60ec1dd7eaa54649ce2bdd3f,12:48:21,26/02/2024
html-keyboard-response,48,88140,0.0-22.0-1.0,,"<div style=""display: flex; flex-direction: column; align-items: center; margin-top: -40px;""><img src=""images/pattern_4.png"" style=""width: 234px; height: 230px; margin-top: -50px;""><div style=""display: flex; justify-content: space-between; margin-top: 33px;""><img src=""images/choice_trial_14.png"" style=""width: 408px; height: 417px; margin-right: 608px;""></div></div>",,delaylearn,learning,display_response,BkowKjhmYtZaofs2Xg8KqIMXL2L2,BkowKjhmYtZaofs2Xg8KqIMXL2L2,,,,,,,,,,,,,,,,chosen stimuli: images/choice_trial_14.png,,,,,60ec1dd7eaa54649ce2bdd3f,12:48:21,26/02/2024
html-keyboard-response,49,95141,0.0-22.0-2.0,,,,delaylearn,learning,feedback_duration_window,BkowKjhmYtZaofs2Xg8KqIMXL2L2,BkowKjhmYtZaofs2Xg8KqIMXL2L2,,,,,,,,,,,,,,,,,7000.0,,,,60ec1dd7eaa54649ce2bdd3f,12:48:21,26/02/2024
html-keyboard-response,50,96643,0.0-22.0-3.0,,<div style='margin:auto;width: auto; font-size: 150%'><span style='font-weight: bold; font-size: 100px; color: green;'>+10 points!</span><br><br></div>,,delaylearn,learning,feedback_image_window,BkowKjhmYtZaofs2Xg8KqIMXL2L2,BkowKjhmYtZaofs2Xg8KqIMXL2L2,,,,,,,,,,,,,,,,,,,,,60ec1dd7eaa54649ce2bdd3f,12:48:21,26/02/2024
html-keyboard-response,51,99052,0.0-23.0,,"<div style=""font-size:100px;"">+</div>",,delaylearn,learning,ITI,BkowKjhmYtZaofs2Xg8KqIMXL2L2,BkowKjhmYtZaofs2Xg8KqIMXL2L2,,,,,,,,,,,,,,,,,,2393.0,,,60ec1dd7eaa54649ce2bdd3f,12:48:21,26/02/2024
html-keyboard-response,52,99786,0.0-24.0-0.0,732.1999999880791,"<div style=""display: flex; flex-direction: column; align-items: center; margin-top: -40px;""><img src=""images/pattern_5.png"" style=""width: 234px; height: 230px; margin-top: -50px;""><div style=""display: flex; justify-content: space-between; margin-top: 33px;""><img src=""images/choice_trial_8.png"" style=""width: 408px; height: 417px; margin-right: 200px;""><img src=""images/choice_trial_14.png"" style=""width: 408px; height: 417px;""></div></div>",j,delaylearn,learning,trial,BkowKjhmYtZaofs2Xg8KqIMXL2L2,BkowKjhmYtZaofs2Xg8KqIMXL2L2,3.0,images/choice_trial_8.png,images/choice_trial_14.png,images/pattern_5.png,j,j,750.0,8.0,14.0,4.0,10.0,1.0,1.0,14.0,80.0,,,,,,60ec1dd7eaa54649ce2bdd3f,12:48:21,26/02/2024
html-keyboard-response,53,100788,0.0-24.0-1.0,,"<div style=""display: flex; flex-direction: column; align-items: center; margin-top: -40px;""><img src=""images/pattern_5.png"" style=""width: 234px; height: 230px; margin-top: -50px;""><div style=""display: flex; justify-content: space-between; margin-top: 33px;""><img src=""images/choice_trial_14.png"" style=""width: 408px; height: 417px; margin-left:608px;""></div></div>",,delaylearn,learning,display_response,BkowKjhmYtZaofs2Xg8KqIMXL2L2,BkowKjhmYtZaofs2Xg8KqIMXL2L2,,,,,,,,,,,,,,,,chosen stimuli: images/choice_trial_14.png,,,,,60ec1dd7eaa54649ce2bdd3f,12:48:21,26/02/2024
html-keyboard-response,54,101543,0.0-24.0-2.0,,,,delaylearn,learning,feedback_duration_window,BkowKjhmYtZaofs2Xg8KqIMXL2L2,BkowKjhmYtZaofs2Xg8KqIMXL2L2,,,,,,,,,,,,,,,,,750.0,,,,60ec1dd7eaa54649ce2bdd3f,12:48:21,26/02/2024
html-keyboard-response,55,103050,0.0-24.0-3.0,,<div style='margin:auto;width: auto; font-size: 150%'><span style='font-weight: bold; font-size: 100px; color: green;'>+10 points!</span><br><br></div>,,delaylearn,learning,feedback_image_window,BkowKjhmYtZaofs2Xg8KqIMXL2L2,BkowKjhmYtZaofs2Xg8KqIMXL2L2,,,,,,,,,,,,,,,,,,,,,60ec1dd7eaa54649ce2bdd3f,12:48:21,26/02/2024
html-keyboard-response,56,105124,0.0-25.0,,"<div style=""font-size:100px;"">+</div>",,delaylearn,learning,ITI,BkowKjhmYtZaofs2Xg8KqIMXL2L2,BkowKjhmYtZaofs2Xg8KqIMXL2L2,,,,,,,,,,,,,,,,,,2063.0,,,60ec1dd7eaa54649ce2bdd3f,12:48:21,26/02/2024
html-keyboard-response,57,105552,0.0-26.0-0.0,426.5,"<div style=""display: flex; flex-direction: column; align-items: center; margin-top: -40px;""><img src=""images/pattern_6.png"" style=""width: 234px; height: 230px; margin-top: -50px;""><div style=""display: flex; justify-content: space-between; margin-top: 33px;""><img src=""images/choice_trial_14.png"" style=""width: 408px; height: 417px; margin-right: 200px;""><img src=""images/choice_trial_8.png"" style=""width: 408px; height: 417px;""></div></div>",f,delaylearn,learning,trial,BkowKjhmYtZaofs2Xg8KqIMXL2L2,BkowKjhmYtZaofs2Xg8KqIMXL2L2,3.0,images/choice_trial_14.png,images/choice_trial_8.png,images/pattern_6.png,j,f,750.0,14.0,8.0,5.0,11.0,1.0,0.0,14.0,80.0,,,,,,60ec1dd7eaa54649ce2bdd3f,12:48:21,26/02/2024
html-keyboard-response,58,106559,0.0-26.0-1.0,,"<div style=""display: flex; flex-direction: column; align-items: center; margin-top: -40px;""><img src=""images/pattern_6.png"" style=""width: 234px; height: 230px; margin-top: -50px;""><div style=""display: flex; justify-content: space-between; margin-top: 33px;""><img src=""images/choice_trial_14.png"" style=""width: 408px; height: 417px; margin-right: 608px;""></div></div>",,delaylearn,learning,display_response,BkowKjhmYtZaofs2Xg8KqIMXL2L2,BkowKjhmYtZaofs2Xg8KqIMXL2L2,,,,,,,,,,,,,,,,chosen stimuli: images/choice_trial_14.png,,,,,60ec1dd7eaa54649ce2bdd3f,12:48:21,26/02/2024
html-keyboard-response,59,107318,0.0-26.0-2.0,,,,delaylearn,learning,feedback_duration_window,BkowKjhmYtZaofs2Xg8KqIMXL2L2,BkowKjhmYtZaofs2Xg8KqIMXL2L2,,,,,,,,,,,,,,,,,750.0,,,,60ec1dd7eaa54649ce2bdd3f,12:48:21,26/02/2024
html-keyboard-response,60,108821,0.0-26.0-3.0,,<div style='margin:auto;width: auto; font-size: 150%'><span style='font-weight: bold; font-size: 100px; color: red;'>0 points!</span><br><br></div>,,delaylearn,learning,feedback_image_window,BkowKjhmYtZaofs2Xg8KqIMXL2L2,BkowKjhmYtZaofs2Xg8KqIMXL2L2,,,,,,,,,,,,,,,,,,,,,60ec1dd7eaa54649ce2bdd3f,12:48:21,26/02/2024
html-keyboard-response,61,109337,0.0-27.0-0.0,,,,,,mood_trial_fixation,BkowKjhmYtZaofs2Xg8KqIMXL2L2,,,,,,,,,,,,,,,,,,,,,,60ec1dd7eaa54649ce2bdd3f,12:48:21,26/02/2024
lmdlab-html-vas-response,62,113563,0.0-27.0-1.0,3215.0,How happy are you right now?,0.3789688957857583,delaylearn,learning,mood_trial,BkowKjhmYtZaofs2Xg8KqIMXL2L2,BkowKjhmYtZaofs2Xg8KqIMXL2L2,,,,,,,,,,,,,,,,,,,"['Very unhappy', 'Very happy']",,60ec1dd7eaa54649ce2bdd3f,12:48:21,26/02/2024
html-keyboard-response,63,115474,0.0-28.0,,"<div style=""font-size:100px;"">+</div>",,delaylearn,learning,ITI,BkowKjhmYtZaofs2Xg8KqIMXL2L2,BkowKjhmYtZaofs2Xg8KqIMXL2L2,,,,,,,,,,,,,,,,,,1908.0,,,60ec1dd7eaa54649ce2bdd3f,12:48:21,26/02/2024
html-keyboard-response,64,115899,0.0-29.0-0.0,423.90000000596046,"<div style=""display: flex; flex-direction: column; align-items: center; margin-top: -40px;""><img src=""images/pattern_1.png"" style=""width: 234px; height: 230px; margin-top: -50px;""><div style=""display: flex; justify-content: space-between; margin-top: 33px;""><img src=""images/choice_trial_8.png"" style=""width: 408px; height: 417px; margin-right: 200px;""><img src=""images/choice_trial_14.png"" style=""width: 408px; height: 417px;""></div></div>",j,delaylearn,learning,trial,BkowKjhmYtZaofs2Xg8KqIMXL2L2,BkowKjhmYtZaofs2Xg8KqIMXL2L2,3.0,images/choice_trial_8.png,images/choice_trial_14.png,images/pattern_1.png,j,j,7000.0,8.0,14.0,1.0,12.0,1.0,1.0,14.0,90.0,,,,,,60ec1dd7eaa54649ce2bdd3f,12:48:21,26/02/2024
html-keyboard-response,65,116914,0.0-29.0-1.0,,"<div style=""display: flex; flex-direction: column; align-items: center; margin-top: -40px;""><img src=""images/pattern_1.png"" style=""width: 234px; height: 230px; margin-top: -50px;""><div style=""display: flex; justify-content: space-between; margin-top: 33px;""><img src=""images/choice_trial_14.png"" style=""width: 408px; height: 417px; margin-left:608px;""></div></div>",,delaylearn,learning,display_response,BkowKjhmYtZaofs2Xg8KqIMXL2L2,BkowKjhmYtZaofs2Xg8KqIMXL2L2,,,,,,,,,,,,,,,,chosen stimuli: images/choice_trial_14.png,,,,,60ec1dd7eaa54649ce2bdd3f,12:48:21,26/02/2024
html-keyboard-response,66,123930,0.0-29.0-2.0,,,,delaylearn,learning,feedback_duration_window,BkowKjhmYtZaofs2Xg8KqIMXL2L2,BkowKjhmYtZaofs2Xg8KqIMXL2L2,,,,,,,,,,,,,,,,,7000.0,,,,60ec1dd7eaa54649ce2bdd3f,12:48:21,26/02/2024
html-keyboard-response,67,125436,0.0-29.0-3.0,,<div style='margin:auto;width: auto; font-size: 150%'><span style='font-weight: bold; font-size: 100px; color: green;'>+10 points!</span><br><br></div>,,delaylearn,learning,feedback_image_window,BkowKjhmYtZaofs2Xg8KqIMXL2L2,BkowKjhmYtZaofs2Xg8KqIMXL2L2,,,,,,,,,,,,,,,,,,,,,60ec1dd7eaa54649ce2bdd3f,12:48:21,26/02/2024
html-keyboard-response,68,127069,0.0-30.0,,"<div style=""font-size:100px;"">+</div>",,delaylearn,learning,ITI,BkowKjhmYtZaofs2Xg8KqIMXL2L2,BkowKjhmYtZaofs2Xg8KqIMXL2L2,,,,,,,,,,,,,,,,,,1620.0,,,60ec1dd7eaa54649ce2bdd3f,12:48:21,26/02/2024
html-keyboard-response,69,128136,0.0-31.0-0.0,1066.300000011921,"<div style=""display: flex; flex-direction: column; align-items: center; margin-top: -40px;""><img src=""images/pattern_3.png"" style=""width: 234px; height: 230px; margin-top: -50px;""><div style=""display: flex; justify-content: space-between; margin-top: 33px;""><img src=""images/choice_trial_10.png"" style=""width: 408px; height: 417px; margin-right: 200px;""><img src=""images/choice_trial_13.png"" style=""width: 408px; height: 417px;""></div></div>",f,delaylearn,learning,trial,BkowKjhmYtZaofs2Xg8KqIMXL2L2,BkowKjhmYtZaofs2Xg8KqIMXL2L2,3.0,images/choice_trial_10.png,images/choice_trial_13.png,images/pattern_3.png,f,j,7000.0,10.0,13.0,2.0,13.0,0.0,1.0,10.0,100.0,,,,,,60ec1dd7eaa54649ce2bdd3f,12:48:21,26/02/2024
html-keyboard-response,70,129139,0.0-31.0-1.0,,"<div style=""display: flex; flex-direction: column; align-items: center; margin-top: -40px;""><img src=""images/pattern_3.png"" style=""width: 234px; height: 230px; margin-top: -50px;""><div style=""display: flex; justify-content: space-between; margin-top: 33px;""><img src=""images/choice_trial_10.png"" style=""width: 408px; height: 417px; margin-right: 608px;""></div></div>",,delaylearn,learning,display_response,BkowKjhmYtZaofs2Xg8KqIMXL2L2,BkowKjhmYtZaofs2Xg8KqIMXL2L2,,,,,,,,,,,,,,,,chosen stimuli: images/choice_trial_10.png,,,,,60ec1dd7eaa54649ce2bdd3f,12:48:21,26/02/2024
html-keyboard-response,71,136156,0.0-31.0-2.0,,,,delaylearn,learning,feedback_duration_window,BkowKjhmYtZaofs2Xg8KqIMXL2L2,BkowKjhmYtZaofs2Xg8KqIMXL2L2,,,,,,,,,,,,,,,,,7000.0,,,,60ec1dd7eaa54649ce2bdd3f,12:48:21,26/02/2024
html-keyboard-response,72,137660,0.0-31.0-3.0,,<div style='margin:auto;width: auto; font-size: 150%'><span style='font-weight: bold; font-size: 100px; color: green;'>+10 points!</span><br><br></div>,,delaylearn,learning,feedback_image_window,BkowKjhmYtZaofs2Xg8KqIMXL2L2,BkowKjhmYtZaofs2Xg8KqIMXL2L2,,,,,,,,,,,,,,,,,,,,,60ec1dd7eaa54649ce2bdd3f,12:48:21,26/02/2024
html-keyboard-response,73,140127,0.0-32.0,,"<div style=""font-size:100px;"">+</div>",,delaylearn,learning,ITI,BkowKjhmYtZaofs2Xg8KqIMXL2L2,BkowKjhmYtZaofs2Xg8KqIMXL2L2,,,,,,,,,,,,,,,,,,2460.0,,,60ec1dd7eaa54649ce2bdd3f,12:48:21,26/02/2024
html-keyboard-response,74,140622,0.0-33.0-0.0,492.80000001192093,"<div style=""display: flex; flex-direction: column; align-items: center; margin-top: -40px;""><img src=""images/pattern_5.png"" style=""width: 234px; height: 230px; margin-top: -50px;""><div style=""display: flex; justify-content: space-between; margin-top: 33px;""><img src=""images/choice_trial_13.png"" style=""width: 408px; height: 417px; margin-right: 200px;""><img src=""images/choice_trial_10.png"" style=""width: 408px; height: 417px;""></div></div>",j,delaylearn,learning,trial,BkowKjhmYtZaofs2Xg8KqIMXL2L2,BkowKjhmYtZaofs2Xg8KqIMXL2L2,3.0,images/choice_trial_13.png,images/choice_trial_10.png,images/pattern_5.png,f,f,750.0,13.0,10.0,4.0,14.0,0.0,0.0,10.0,100.0,,,,,,60ec1dd7eaa54649ce2bdd3f,12:48:21,26/02/2024
html-keyboard-response,75,141639,0.0-33.0-1.0,,"<div style=""display: flex; flex-direction: column; align-items: center; margin-top: -40px;""><img src=""images/pattern_5.png"" style=""width: 234px; height: 230px; margin-top: -50px;""><div style=""display: flex; justify-content: space-between; margin-top: 33px;""><img src=""images/choice_trial_10.png"" style=""width: 408px; height: 417px; margin-left:608px;""></div></div>",,delaylearn,learning,display_response,BkowKjhmYtZaofs2Xg8KqIMXL2L2,BkowKjhmYtZaofs2Xg8KqIMXL2L2,,,,,,,,,,,,,,,,chosen stimuli: images/choice_trial_10.png,,,,,60ec1dd7eaa54649ce2bdd3f,12:48:21,26/02/2024
html-keyboard-response,76,142395,0.0-33.0-2.0,,,,delaylearn,learning,feedback_duration_window,BkowKjhmYtZaofs2Xg8KqIMXL2L2,BkowKjhmYtZaofs2Xg8KqIMXL2L2,,,,,,,,,,,,,,,,,750.0,,,,60ec1dd7eaa54649ce2bdd3f,12:48:21,26/02/2024
html-keyboard-response,77,143905,0.0-33.0-3.0,,<div style='margin:auto;width: auto; font-size: 150%'><span style='font-weight: bold; font-size: 100px; color: red;'>0 points!</span><br><br></div>,,delaylearn,learning,feedback_image_window,BkowKjhmYtZaofs2Xg8KqIMXL2L2,BkowKjhmYtZaofs2Xg8KqIMXL2L2,,,,,,,,,,,,,,,,,,,,,60ec1dd7eaa54649ce2bdd3f,12:48:21,26/02/2024
html-keyboard-response,78,144414,0.0-34.0-0.0,,,,,,mood_trial_fixation,BkowKjhmYtZaofs2Xg8KqIMXL2L2,,,,,,,,,,,,,,,,,,,,,,60ec1dd7eaa54649ce2bdd3f,12:48:21,26/02/2024
lmdlab-html-vas-response,79,148675,0.0-34.0-1.0,3241.0,How happy are you right now?,0.25755237464624825,delaylearn,learning,mood_trial,BkowKjhmYtZaofs2Xg8KqIMXL2L2,BkowKjhmYtZaofs2Xg8KqIMXL2L2,,,,,,,,,,,,,,,,,,,"['Very unhappy', 'Very happy']",,60ec1dd7eaa54649ce2bdd3f,12:48:21,26/02/2024
html-keyboard-response,80,150912,0.0-35.0,,"<div style=""font-size:100px;"">+</div>",,delaylearn,learning,ITI,BkowKjhmYtZaofs2Xg8KqIMXL2L2,BkowKjhmYtZaofs2Xg8KqIMXL2L2,,,,,,,,,,,,,,,,,,2228.0,,,60ec1dd7eaa54649ce2bdd3f,12:48:21,26/02/2024
html-keyboard-response,81,151406,0.0-36.0-0.0,492.40000000596046,"<div style=""display: flex; flex-direction: column; align-items: center; margin-top: -40px;""><img src=""images/pattern_6.png"" style=""width: 234px; height: 230px; margin-top: -50px;""><div style=""display: flex; justify-content: space-between; margin-top: 33px;""><img src=""images/choice_trial_13.png"" style=""width: 408px; height: 417px; margin-right: 200px;""><img src=""images/choice_trial_10.png"" style=""width: 408px; height: 417px;""></div></div>",j,delaylearn,learning,trial,BkowKjhmYtZaofs2Xg8KqIMXL2L2,BkowKjhmYtZaofs2Xg8KqIMXL2L2,3.0,images/choice_trial_13.png,images/choice_trial_10.png,images/pattern_6.png,f,f,750.0,13.0,10.0,5.0,15.0,0.0,0.0,10.0,100.0,,,,,,60ec1dd7eaa54649ce2bdd3f,12:48:21,26/02/2024
html-keyboard-response,82,152416,0.0-36.0-1.0,,"<div style=""display: flex; flex-direction: column; align-items: center; margin-top: -40px;""><img src=""images/pattern_6.png"" style=""width: 234px; height: 230px; margin-top: -50px;""><div style=""display: flex; justify-content: space-between; margin-top: 33px;""><img src=""images/choice_trial_10.png"" style=""width: 408px; height: 417px; margin-left:608px;""></div></div>",,delaylearn,learning,display_response,BkowKjhmYtZaofs2Xg8KqIMXL2L2,BkowKjhmYtZaofs2Xg8KqIMXL2L2,,,,,,,,,,,,,,,,chosen stimuli: images/choice_trial_10.png,,,,,60ec1dd7eaa54649ce2bdd3f,12:48:21,26/02/2024
html-keyboard-response,83,153181,0.0-36.0-2.0,,,,delaylearn,learning,feedback_duration_window,BkowKjhmYtZaofs2Xg8KqIMXL2L2,BkowKjhmYtZaofs2Xg8KqIMXL2L2,,,,,,,,,,,,,,,,,750.0,,,,60ec1dd7eaa54649ce2bdd3f,12:48:21,26/02/2024
html-keyboard-response,84,154693,0.0-36.0-3.0,,<div style='margin:auto;width: auto; font-size: 150%'><span style='font-weight: bold; font-size: 100px; color: red;'>0 points!</span><br><br></div>,,delaylearn,learning,feedback_image_window,BkowKjhmYtZaofs2Xg8KqIMXL2L2,BkowKjhmYtZaofs2Xg8KqIMXL2L2,,,,,,,,,,,,,,,,,,,,,60ec1dd7eaa54649ce2bdd3f,12:48:21,26/02/2024
html-keyboard-response,85,157127,0.0-37.0,,"<div style=""font-size:100px;"">+</div>",,delaylearn,learning,ITI,BkowKjhmYtZaofs2Xg8KqIMXL2L2,BkowKjhmYtZaofs2Xg8KqIMXL2L2,,,,,,,,,,,,,,,,,,2419.0,,,60ec1dd7eaa54649ce2bdd3f,12:48:21,26/02/2024
html-keyboard-response,86,158106,0.0-38.0-0.0,978.0999999940395,"<div style=""display: flex; flex-direction: column; align-items: center; margin-top: -40px;""><img src=""images/pattern_4.png"" style=""width: 234px; height: 230px; margin-top: -50px;""><div style=""display: flex; justify-content: space-between; margin-top: 33px;""><img src=""images/choice_trial_10.png"" style=""width: 408px; height: 417px; margin-right: 200px;""><img src=""images/choice_trial_13.png"" style=""width: 408px; height: 417px;""></div></div>",f,delaylearn,learning,trial,BkowKjhmYtZaofs2Xg8KqIMXL2L2,BkowKjhmYtZaofs2Xg8KqIMXL2L2,3.0,images/choice_trial_10.png,images/choice_trial_13.png,images/pattern_4.png,j,j,7000.0,10.0,13.0,3.0,16.0,0.0,0.0,10.0,100.0,,,,,,60ec1dd7eaa54649ce2bdd3f,12:48:21,26/02/2024
html-keyboard-response,87,159114,0.0-38.0-1.0,,"<div style=""display: flex; flex-direction: column; align-items: center; margin-top: -40px;""><img src=""images/pattern_4.png"" style=""width: 234px; height: 230px; margin-top: -50px;""><div style=""display: flex; justify-content: space-between; margin-top: 33px;""><img src=""images/choice_trial_10.png"" style=""width: 408px; height: 417px; margin-right: 608px;""></div></div>",,delaylearn,learning,display_response,BkowKjhmYtZaofs2Xg8KqIMXL2L2,BkowKjhmYtZaofs2Xg8KqIMXL2L2,,,,,,,,,,,,,,,,chosen stimuli: images/choice_trial_10.png,,,,,60ec1dd7eaa54649ce2bdd3f,12:48:21,26/02/2024
html-keyboard-response,88,166125,0.0-38.0-2.0,,,,delaylearn,learning,feedback_duration_window,BkowKjhmYtZaofs2Xg8KqIMXL2L2,BkowKjhmYtZaofs2Xg8KqIMXL2L2,,,,,,,,,,,,,,,,,7000.0,,,,60ec1dd7eaa54649ce2bdd3f,12:48:21,26/02/2024
html-keyboard-response,89,167639,0.0-38.0-3.0,,<div style='margin:auto;width: auto; font-size: 150%'><span style='font-weight: bold; font-size: 100px; color: red;'>0 points!</span><br><br></div>,,delaylearn,learning,feedback_image_window,BkowKjhmYtZaofs2Xg8KqIMXL2L2,BkowKjhmYtZaofs2Xg8KqIMXL2L2,,,,,,,,,,,,,,,,,,,,,60ec1dd7eaa54649ce2bdd3f,12:48:21,26/02/2024
html-keyboard-response,90,169406,0.0-39.0,,"<div style=""font-size:100px;"">+</div>",,delaylearn,learning,ITI,BkowKjhmYtZaofs2Xg8KqIMXL2L2,BkowKjhmYtZaofs2Xg8KqIMXL2L2,,,,,,,,,,,,,,,,,,1754.0,,,60ec1dd7eaa54649ce2bdd3f,12:48:21,26/02/2024
html-keyboard-response,91,170115,0.0-40.0-0.0,707.4000000059605,"<div style=""display: flex; flex-direction: column; align-items: center; margin-top: -40px;""><img src=""images/pattern_7.png"" style=""width: 234px; height: 230px; margin-top: -50px;""><div style=""display: flex; justify-content: space-between; margin-top: 33px;""><img src=""images/choice_trial_13.png"" style=""width: 408px; height: 417px; margin-right: 200px;""><img src=""images/choice_trial_10.png"" style=""width: 408px; height: 417px;""></div></div>",f,delaylearn,learning,trial,BkowKjhmYtZaofs2Xg8KqIMXL2L2,BkowKjhmYtZaofs2Xg8KqIMXL2L2,3.0,images/choice_trial_13.png,images/choice_trial_10.png,images/pattern_7.png,j,f,750.0,13.0,10.0,6.0,17.0,1.0,0.0,13.0,100.0,,,,,,60ec1dd7eaa54649ce2bdd3f,12:48:21,26/02/2024
html-keyboard-response,92,171129,0.0-40.0-1.0,,"<div style=""display: flex; flex-direction: column; align-items: center; margin-top: -40px;""><img src=""images/pattern_7.png"" style=""width: 234px; height: 230px; margin-top: -50px;""><div style=""display: flex; justify-content: space-between; margin-top: 33px;""><img src=""images/choice_trial_13.png"" style=""width: 408px; height: 417px; margin-right: 608px;""></div></div>",,delaylearn,learning,display_response,BkowKjhmYtZaofs2Xg8KqIMXL2L2,BkowKjhmYtZaofs2Xg8KqIMXL2L2,,,,,,,,,,,,,,,,chosen stimuli: images/choice_trial_13.png,,,,,60ec1dd7eaa54649ce2bdd3f,12:48:21,26/02/2024
html-keyboard-response,93,171894,0.0-40.0-2.0,,,,delaylearn,learning,feedback_duration_window,BkowKjhmYtZaofs2Xg8KqIMXL2L2,BkowKjhmYtZaofs2Xg8KqIMXL2L2,,,,,,,,,,,,,,,,,750.0,,,,60ec1dd7eaa54649ce2bdd3f,12:48:21,26/02/2024
html-keyboard-response,94,173406,0.0-40.0-3.0,,<div style='margin:auto;width: auto; font-size: 150%'><span style='font-weight: bold; font-size: 100px; color: red;'>0 points!</span><br><br></div>,,delaylearn,learning,feedback_image_window,BkowKjhmYtZaofs2Xg8KqIMXL2L2,BkowKjhmYtZaofs2Xg8KqIMXL2L2,,,,,,,,,,,,,,,,,,,,,60ec1dd7eaa54649ce2bdd3f,12:48:21,26/02/2024
html-keyboard-response,95,175853,0.0-41.0,,"<div style=""font-size:100px;"">+</div>",,delaylearn,learning,ITI,BkowKjhmYtZaofs2Xg8KqIMXL2L2,BkowKjhmYtZaofs2Xg8KqIMXL2L2,,,,,,,,,,,,,,,,,,2443.0,,,60ec1dd7eaa54649ce2bdd3f,12:48:21,26/02/2024
html-keyboard-response,96,176303,0.0-42.0-0.0,448.09999999403954,"<div style=""display: flex; flex-direction: column; align-items: center; margin-top: -40px;""><img src=""images/pattern_1.png"" style=""width: 234px; height: 230px; margin-top: -50px;""><div style=""display: flex; justify-content: space-between; margin-top: 33px;""><img src=""images/choice_trial_13.png"" style=""width: 408px; height: 417px; margin-right: 200px;""><img src=""images/choice_trial_10.png"" style=""width: 408px; height: 417px;""></div></div>",j,delaylearn,learning,trial,BkowKjhmYtZaofs2Xg8KqIMXL2L2,BkowKjhmYtZaofs2Xg8KqIMXL2L2,3.0,images/choice_trial_13.png,images/choice_trial_10.png,images/pattern_1.png,f,f,7000.0,13.0,10.0,1.0,18.0,0.0,0.0,10.0,100.0,,,,,,60ec1dd7eaa54649ce2bdd3f,12:48:21,26/02/2024
html-keyboard-response,97,177318,0.0-42.0-1.0,,"<div style=""display: flex; flex-direction: column; align-items: center; margin-top: -40px;""><img src=""images/pattern_1.png"" style=""width: 234px; height: 230px; margin-top: -50px;""><div style=""display: flex; justify-content: space-between; margin-top: 33px;""><img src=""images/choice_trial_10.png"" style=""width: 408px; height: 417px; margin-left:608px;""></div></div>",,delaylearn,learning,display_response,BkowKjhmYtZaofs2Xg8KqIMXL2L2,BkowKjhmYtZaofs2Xg8KqIMXL2L2,,,,,,,,,,,,,,,,chosen stimuli: images/choice_trial_10.png,,,,,60ec1dd7eaa54649ce2bdd3f,12:48:21,26/02/2024
html-keyboard-response,98,184332,0.0-42.0-2.0,,,,delaylearn,learning,feedback_duration_window,BkowKjhmYtZaofs2Xg8KqIMXL2L2,BkowKjhmYtZaofs2Xg8KqIMXL2L2,,,,,,,,,,,,,,,,,7000.0,,,,60ec1dd7eaa54649ce2bdd3f,12:48:21,26/02/2024
html-keyboard-response,99,185849,0.0-42.0-3.0,,<div style='margin:auto;width: auto; font-size: 150%'><span style='font-weight: bold; font-size: 100px; color: red;'>0 points!</span><br><br></div>,,delaylearn,learning,feedback_image_window,BkowKjhmYtZaofs2Xg8KqIMXL2L2,BkowKjhmYtZaofs2Xg8KqIMXL2L2,,,,,,,,,,,,,,,,,,,,,60ec1dd7eaa54649ce2bdd3f,12:48:21,26/02/2024
html-keyboard-response,100,187988,0.0-43.0,,"<div style=""font-size:100px;"">+</div>",,delaylearn,learning,ITI,BkowKjhmYtZaofs2Xg8KqIMXL2L2,BkowKjhmYtZaofs2Xg8KqIMXL2L2,,,,,,,,,,,,,,,,,,2123.0,,,60ec1dd7eaa54649ce2bdd3f,12:48:21,26/02/2024
html-keyboard-response,101,189326,0.0-44.0-0.0,1336.5,"<div style=""display: flex; flex-direction: column; align-items: center; margin-top: -40px;""><img src=""images/pattern_6.png"" style=""width: 234px; height: 230px; margin-top: -50px;""><div style=""display: flex; justify-content: space-between; margin-top: 33px;""><img src=""images/choice_trial_9.png"" style=""width: 408px; height: 417px; margin-right: 200px;""><img src=""images/choice_trial_15.png"" style=""width: 408px; height: 417px;""></div></div>",j,delaylearn,learning,trial,BkowKjhmYtZaofs2Xg8KqIMXL2L2,BkowKjhmYtZaofs2Xg8KqIMXL2L2,3.0,images/choice_trial_9.png,images/choice_trial_15.png,images/pattern_6.png,j,j,750.0,9.0,15.0,5.0,19.0,1.0,1.0,15.0,110.0,,,,,,60ec1dd7eaa54649ce2bdd3f,12:48:21,26/02/2024
html-keyboard-response,102,190343,0.0-44.0-1.0,,"<div style=""display: flex; flex-direction: column; align-items: center; margin-top: -40px;""><img src=""images/pattern_6.png"" style=""width: 234px; height: 230px; margin-top: -50px;""><div style=""display: flex; justify-content: space-between; margin-top: 33px;""><img src=""images/choice_trial_15.png"" style=""width: 408px; height: 417px; margin-left:608px;""></div></div>",,delaylearn,learning,display_response,BkowKjhmYtZaofs2Xg8KqIMXL2L2,BkowKjhmYtZaofs2Xg8KqIMXL2L2,,,,,,,,,,,,,,,,chosen stimuli: images/choice_trial_15.png,,,,,60ec1dd7eaa54649ce2bdd3f,12:48:21,26/02/2024
html-keyboard-response,103,191094,0.0-44.0-2.0,,,,delaylearn,learning,feedback_duration_window,BkowKjhmYtZaofs2Xg8KqIMXL2L2,BkowKjhmYtZaofs2Xg8KqIMXL2L2,,,,,,,,,,,,,,,,,750.0,,,,60ec1dd7eaa54649ce2bdd3f,12:48:21,26/02/2024
html-keyboard-response,104,192606,0.0-44.0-3.0,,<div style='margin:auto;width: auto; font-size: 150%'><span style='font-weight: bold; font-size: 100px; color: green;'>+10 points!</span><br><br></div>,,delaylearn,learning,feedback_image_window,BkowKjhmYtZaofs2Xg8KqIMXL2L2,BkowKjhmYtZaofs2Xg8KqIMXL2L2,,,,,,,,,,,,,,,,,,,,,60ec1dd7eaa54649ce2bdd3f,12:48:21,26/02/2024
html-keyboard-response,105,195085,0.0-45.0,,"<div style=""font-size:100px;"">+</div>",,delaylearn,learning,ITI,BkowKjhmYtZaofs2Xg8KqIMXL2L2,BkowKjhmYtZaofs2Xg8KqIMXL2L2,,,,,,,,,,,,,,,,,,2470.0,,,60ec1dd7eaa54649ce2bdd3f,12:48:21,26/02/2024
html-keyboard-response,106,196347,0.0-46.0-0.0,1260.9000000059605,"<div style=""display: flex; flex-direction: column; align-items: center; margin-top: -40px;""><img src=""images/pattern_4.png"" style=""width: 234px; height: 230px; margin-top: -50px;""><div style=""display: flex; justify-content: space-between; margin-top: 33px;""><img src=""images/choice_trial_15.png"" style=""width: 408px; height: 417px; margin-right: 200px;""><img src=""images/choice_trial_9.png"" style=""width: 408px; height: 417px;""></div></div>",f,delaylearn,learning,trial,BkowKjhmYtZaofs2Xg8KqIMXL2L2,BkowKjhmYtZaofs2Xg8KqIMXL2L2,3.0,images/choice_trial_15.png,images/choice_trial_9.png,images/pattern_4.png,f,f,7000.0,15.0,9.0,3.0,20.0,1.0,1.0,15.0,120.0,,,,,,60ec1dd7eaa54649ce2bdd3f,12:48:21,26/02/2024
html-keyboard-response,107,197349,0.0-46.0-1.0,,"<div style=""display: flex; flex-direction: column; align-items: center; margin-top: -40px;""><img src=""images/pattern_4.png"" style=""width: 234px; height: 230px; margin-top: -50px;""><div style=""display: flex; justify-content: space-between; margin-top: 33px;""><img src=""images/choice_trial_15.png"" style=""width: 408px; height: 417px; margin-right: 608px;""></div></div>",,delaylearn,learning,display_response,BkowKjhmYtZaofs2Xg8KqIMXL2L2,BkowKjhmYtZaofs2Xg8KqIMXL2L2,,,,,,,,,,,,,,,,chosen stimuli: images/choice_trial_15.png,,,,,60ec1dd7eaa54649ce2bdd3f,12:48:21,26/02/2024
html-keyboard-response,108,204353,0.0-46.0-2.0,,,,delaylearn,learning,feedback_duration_window,BkowKjhmYtZaofs2Xg8KqIMXL2L2,BkowKjhmYtZaofs2Xg8KqIMXL2L2,,,,,,,,,,,,,,,,,7000.0,,,,60ec1dd7eaa54649ce2bdd3f,12:48:21,26/02/2024
html-keyboard-response,109,205869,0.0-46.0-3.0,,<div style='margin:auto;width: auto; font-size: 150%'><span style='font-weight: bold; font-size: 100px; color: green;'>+10 points!</span><br><br></div>,,delaylearn,learning,feedback_image_window,BkowKjhmYtZaofs2Xg8KqIMXL2L2,BkowKjhmYtZaofs2Xg8KqIMXL2L2,,,,,,,,,,,,,,,,,,,,,60ec1dd7eaa54649ce2bdd3f,12:48:21,26/02/2024
html-keyboard-response,110,206384,0.0-47.0-0.0,,,,,,mood_trial_fixation,BkowKjhmYtZaofs2Xg8KqIMXL2L2,,,,,,,,,,,,,,,,,,,,,,60ec1dd7eaa54649ce2bdd3f,12:48:21,26/02/2024
lmdlab-html-vas-response,111,210008,0.0-47.0-1.0,2605.0,How happy are you right now?,0.42551189555590385,delaylearn,learning,mood_trial,BkowKjhmYtZaofs2Xg8KqIMXL2L2,BkowKjhmYtZaofs2Xg8KqIMXL2L2,,,,,,,,,,,,,,,,,,,"['Very unhappy', 'Very happy']",,60ec1dd7eaa54649ce2bdd3f,12:48:21,26/02/2024
html-keyboard-response,112,212236,0.0-48.0,,"<div style=""font-size:100px;"">+</div>",,delaylearn,learning,ITI,BkowKjhmYtZaofs2Xg8KqIMXL2L2,BkowKjhmYtZaofs2Xg8KqIMXL2L2,,,,,,,,,,,,,,,,,,2226.0,,,60ec1dd7eaa54649ce2bdd3f,12:48:21,26/02/2024
html-keyboard-response,113,213317,0.0-49.0-0.0,1079.5,"<div style=""display: flex; flex-direction: column; align-items: center; margin-top: -40px;""><img src=""images/pattern_7.png"" style=""width: 234px; height: 230px; margin-top: -50px;""><div style=""display: flex; justify-content: space-between; margin-top: 33px;""><img src=""images/choice_trial_9.png"" style=""width: 408px; height: 417px; margin-right: 200px;""><img src=""images/choice_trial_15.png"" style=""width: 408px; height: 417px;""></div></div>",j,delaylearn,learning,trial,BkowKjhmYtZaofs2Xg8KqIMXL2L2,BkowKjhmYtZaofs2Xg8KqIMXL2L2,3.0,images/choice_trial_9.png,images/choice_trial_15.png,images/pattern_7.png,j,j,750.0,9.0,15.0,6.0,21.0,1.0,1.0,15.0,130.0,,,,,,60ec1dd7eaa54649ce2bdd3f,12:48:21,26/02/2024
html-keyboard-response,114,214334,0.0-49.0-1.0,,"<div style=""display: flex; flex-direction: column; align-items: center; margin-top: -40px;""><img src=""images/pattern_7.png"" style=""width: 234px; height: 230px; margin-top: -50px;""><div style=""display: flex; justify-content: space-between; margin-top: 33px;""><img src=""images/choice_trial_15.png"" style=""width: 408px; height: 417px; margin-left:608px;""></div></div>",,delaylearn,learning,display_response,BkowKjhmYtZaofs2Xg8KqIMXL2L2,BkowKjhmYtZaofs2Xg8KqIMXL2L2,,,,,,,,,,,,,,,,chosen stimuli: images/choice_trial_15.png,,,,,60ec1dd7eaa54649ce2bdd3f,12:48:21,26/02/2024
html-keyboard-response,115,215091,0.0-49.0-2.0,,,,delaylearn,learning,feedback_duration_window,BkowKjhmYtZaofs2Xg8KqIMXL2L2,BkowKjhmYtZaofs2Xg8KqIMXL2L2,,,,,,,,,,,,,,,,,750.0,,,,60ec1dd7eaa54649ce2bdd3f,12:48:21,26/02/2024
html-keyboard-response,116,216600,0.0-49.0-3.0,,<div style='margin:auto;width: auto; font-size: 150%'><span style='font-weight: bold; font-size: 100px; color: green;'>+10 points!</span><br><br></div>,,delaylearn,learning,feedback_image_window,BkowKjhmYtZaofs2Xg8KqIMXL2L2,BkowKjhmYtZaofs2Xg8KqIMXL2L2,,,,,,,,,,,,,,,,,,,,,60ec1dd7eaa54649ce2bdd3f,12:48:21,26/02/2024
html-keyboard-response,117,218713,0.0-50.0,,"<div style=""font-size:100px;"">+</div>",,delaylearn,learning,ITI,BkowKjhmYtZaofs2Xg8KqIMXL2L2,BkowKjhmYtZaofs2Xg8KqIMXL2L2,,,,,,,,,,,,,,,,,,2097.0,,,60ec1dd7eaa54649ce2bdd3f,12:48:21,26/02/2024
html-keyboard-response,118,219589,0.0-51.0-0.0,874.8000000119209,"<div style=""display: flex; flex-direction: column; align-items: center; margin-top: -40px;""><img src=""images/pattern_1.png"" style=""width: 234px; height: 230px; margin-top: -50px;""><div style=""display: flex; justify-content: space-between; margin-top: 33px;""><img src=""images/choice_trial_9.png"" style=""width: 408px; height: 417px; margin-right: 200px;""><img src=""images/choice_trial_15.png"" style=""width: 408px; height: 417px;""></div></div>",f,delaylearn,learning,trial,BkowKjhmYtZaofs2Xg8KqIMXL2L2,BkowKjhmYtZaofs2Xg8KqIMXL2L2,3.0,images/choice_trial_9.png,images/choice_trial_15.png,images/pattern_1.png,f,j,7000.0,9.0,15.0,1.0,22.0,0.0,1.0,9.0,140.0,,,,,,60ec1dd7eaa54649ce2bdd3f,12:48:21,26/02/2024
html-keyboard-response,119,220600,0.0-51.0-1.0,,"<div style=""display: flex; flex-direction: column; align-items: center; margin-top: -40px;""><img src=""images/pattern_1.png"" style=""width: 234px; height: 230px; margin-top: -50px;""><div style=""display: flex; justify-content: space-between; margin-top: 33px;""><img src=""images/choice_trial_9.png"" style=""width: 408px; height: 417px; margin-right: 608px;""></div></div>",,delaylearn,learning,display_response,BkowKjhmYtZaofs2Xg8KqIMXL2L2,BkowKjhmYtZaofs2Xg8KqIMXL2L2,,,,,,,,,,,,,,,,chosen stimuli: images/choice_trial_9.png,,,,,60ec1dd7eaa54649ce2bdd3f,12:48:21,26/02/2024
html-keyboard-response,120,227609,0.0-51.0-2.0,,,,delaylearn,learning,feedback_duration_window,BkowKjhmYtZaofs2Xg8KqIMXL2L2,BkowKjhmYtZaofs2Xg8KqIMXL2L2,,,,,,,,,,,,,,,,,7000.0,,,,60ec1dd7eaa54649ce2bdd3f,12:48:21,26/02/2024
html-keyboard-response,121,229111,0.0-51.0-3.0,,<div style='margin:auto;width: auto; font-size: 150%'><span style='font-weight: bold; font-size: 100px; color: green;'>+10 points!</span><br><br></div>,,delaylearn,learning,feedback_image_window,BkowKjhmYtZaofs2Xg8KqIMXL2L2,BkowKjhmYtZaofs2Xg8KqIMXL2L2,,,,,,,,,,,,,,,,,,,,,60ec1dd7eaa54649ce2bdd3f,12:48:21,26/02/2024
html-keyboard-response,122,230766,0.0-52.0,,"<div style=""font-size:100px;"">+</div>",,delaylearn,learning,ITI,BkowKjhmYtZaofs2Xg8KqIMXL2L2,BkowKjhmYtZaofs2Xg8KqIMXL2L2,,,,,,,,,,,,,,,,,,1639.0,,,60ec1dd7eaa54649ce2bdd3f,12:48:21,26/02/2024
html-keyboard-response,123,231649,0.0-53.0-0.0,881.1999999880791,"<div style=""display: flex; flex-direction: column; align-items: center; margin-top: -40px;""><img src=""images/pattern_5.png"" style=""width: 234px; height: 230px; margin-top: -50px;""><div style=""display: flex; justify-content: space-between; margin-top: 33px;""><img src=""images/choice_trial_9.png"" style=""width: 408px; height: 417px; margin-right: 200px;""><img src=""images/choice_trial_15.png"" style=""width: 408px; height: 417px;""></div></div>",j,delaylearn,learning,trial,BkowKjhmYtZaofs2Xg8KqIMXL2L2,BkowKjhmYtZaofs2Xg8KqIMXL2L2,3.0,images/choice_trial_9.png,images/choice_trial_15.png,images/pattern_5.png,j,j,750.0,9.0,15.0,4.0,23.0,1.0,1.0,15.0,150.0,,,,,,60ec1dd7eaa54649ce2bdd3f,12:48:21,26/02/2024
html-keyboard-response,124,232660,0.0-53.0-1.0,,"<div style=""display: flex; flex-direction: column; align-items: center; margin-top: -40px;""><img src=""images/pattern_5.png"" style=""width: 234px; height: 230px; margin-top: -50px;""><div style=""display: flex; justify-content: space-between; margin-top: 33px;""><img src=""images/choice_trial_15.png"" style=""width: 408px; height: 417px; margin-left:608px;""></div></div>",,delaylearn,learning,display_response,BkowKjhmYtZaofs2Xg8KqIMXL2L2,BkowKjhmYtZaofs2Xg8KqIMXL2L2,,,,,,,,,,,,,,,,chosen stimuli: images/choice_trial_15.png,,,,,60ec1dd7eaa54649ce2bdd3f,12:48:21,26/02/2024
html-keyboard-response,125,233414,0.0-53.0-2.0,,,,delaylearn,learning,feedback_duration_window,BkowKjhmYtZaofs2Xg8KqIMXL2L2,BkowKjhmYtZaofs2Xg8KqIMXL2L2,,,,,,,,,,,,,,,,,750.0,,,,60ec1dd7eaa54649ce2bdd3f,12:48:21,26/02/2024
html-keyboard-response,126,234921,0.0-53.0-3.0,,<div style='margin:auto;width: auto; font-size: 150%'><span style='font-weight: bold; font-size: 100px; color: green;'>+10 points!</span><br><br></div>,,delaylearn,learning,feedback_image_window,BkowKjhmYtZaofs2Xg8KqIMXL2L2,BkowKjhmYtZaofs2Xg8KqIMXL2L2,,,,,,,,,,,,,,,,,,,,,60ec1dd7eaa54649ce2bdd3f,12:48:21,26/02/2024
html-keyboard-response,127,237181,0.0-54.0,,"<div style=""font-size:100px;"">+</div>",,delaylearn,learning,ITI,BkowKjhmYtZaofs2Xg8KqIMXL2L2,BkowKjhmYtZaofs2Xg8KqIMXL2L2,,,,,,,,,,,,,,,,,,2254.0,,,60ec1dd7eaa54649ce2bdd3f,12:48:21,26/02/2024
html-keyboard-response,128,237910,0.0-55.0-0.0,727.2999999821186,"<div style=""display: flex; flex-direction: column; align-items: center; margin-top: -40px;""><img src=""images/pattern_3.png"" style=""width: 234px; height: 230px; margin-top: -50px;""><div style=""display: flex; justify-content: space-between; margin-top: 33px;""><img src=""images/choice_trial_9.png"" style=""width: 408px; height: 417px; margin-right: 200px;""><img src=""images/choice_trial_15.png"" style=""width: 408px; height: 417px;""></div></div>",f,delaylearn,learning,trial,BkowKjhmYtZaofs2Xg8KqIMXL2L2,BkowKjhmYtZaofs2Xg8KqIMXL2L2,3.0,images/choice_trial_9.png,images/choice_trial_15.png,images/pattern_3.png,j,j,7000.0,9.0,15.0,2.0,24.0,0.0,0.0,9.0,150.0,,,,,,60ec1dd7eaa54649ce2bdd3f,12:48:21,26/02/2024
html-keyboard-response,129,238920,0.0-55.0-1.0,,"<div style=""display: flex; flex-direction: column; align-items: center; margin-top: -40px;""><img src=""images/pattern_3.png"" style=""width: 234px; height: 230px; margin-top: -50px;""><div style=""display: flex; justify-content: space-between; margin-top: 33px;""><img src=""images/choice_trial_9.png"" style=""width: 408px; height: 417px; margin-right: 608px;""></div></div>",,delaylearn,learning,display_response,BkowKjhmYtZaofs2Xg8KqIMXL2L2,BkowKjhmYtZaofs2Xg8KqIMXL2L2,,,,,,,,,,,,,,,,chosen stimuli: images/choice_trial_9.png,,,,,60ec1dd7eaa54649ce2bdd3f,12:48:21,26/02/2024
html-keyboard-response,130,245932,0.0-55.0-2.0,,,,delaylearn,learning,feedback_duration_window,BkowKjhmYtZaofs2Xg8KqIMXL2L2,BkowKjhmYtZaofs2Xg8KqIMXL2L2,,,,,,,,,,,,,,,,,7000.0,,,,60ec1dd7eaa54649ce2bdd3f,12:48:21,26/02/2024
html-keyboard-response,131,247447,0.0-55.0-3.0,,<div style='margin:auto;width: auto; font-size: 150%'><span style='font-weight: bold; font-size: 100px; color: red;'>0 points!</span><br><br></div>,,delaylearn,learning,feedback_image_window,BkowKjhmYtZaofs2Xg8KqIMXL2L2,BkowKjhmYtZaofs2Xg8KqIMXL2L2,,,,,,,,,,,,,,,,,,,,,60ec1dd7eaa54649ce2bdd3f,12:48:21,26/02/2024
lmdlab-html-vas-response,132,252790,0.0-56.0-0.0,3833.0,*How <b><u>confident</u></b> are you feeling about your answers at this moment?*,0.13006502744976273,rewlearn,rate_confidence,,BkowKjhmYtZaofs2Xg8KqIMXL2L2,BkowKjhmYtZaofs2Xg8KqIMXL2L2,,,,,,,,,,,,,,,,,,,"['No confidence', 'Complete confidence']",,60ec1dd7eaa54649ce2bdd3f,12:48:21,26/02/2024
lmdlab-rest-trial-limit,133,260875,0.0-56.0-1.0,6580.100000023842,"<div style=""font-size:40px;""><b>Please take a break!</b><br><br><br><br><p>Great work: you earned undefined points.<br><br><br><p>You have completed part(s) 1 of 6.<br><br><br><br>When you are ready to continue<br><br><br>please click the button.</p><br><br>",0,delaylearn,learning,break,BkowKjhmYtZaofs2Xg8KqIMXL2L2,BkowKjhmYtZaofs2Xg8KqIMXL2L2,,,,,,,,,,,,,,,,,,,,0.0,60ec1dd7eaa54649ce2bdd3f,12:48:21,26/02/2024
html-keyboard-response,134,263884,0.0-56.0-2.0,,"<div style=""font-size:100px;"">+</div>",,delaylearn,learning,pre_fixation,BkowKjhmYtZaofs2Xg8KqIMXL2L2,,,,,,,,,,,,,,,,,,,,,,60ec1dd7eaa54649ce2bdd3f,12:48:21,26/02/2024
lmdlab-html-vas-response,135,267910,0.0-56.0-3.0-0.0,3020.0,How happy are you right now?,0.36885085235746584,delaylearn,learning,mood_baseline,BkowKjhmYtZaofs2Xg8KqIMXL2L2,BkowKjhmYtZaofs2Xg8KqIMXL2L2,,,,,,,,,,,,,,,,,,,"['Very unhappy', 'Very happy']",,60ec1dd7eaa54649ce2bdd3f,12:48:21,26/02/2024
html-keyboard-response,136,269425,0.0-56.0-3.0-1.0,,,,,,mood_baseline_fixation,BkowKjhmYtZaofs2Xg8KqIMXL2L2,,,,,,,,,,,,,,,,,,,,,,60ec1dd7eaa54649ce2bdd3f,12:48:21,26/02/2024
html-keyboard-response,137,271486,0.0-57.0,,"<div style=""font-size:100px;"">+</div>",,delaylearn,learning,ITI,BkowKjhmYtZaofs2Xg8KqIMXL2L2,BkowKjhmYtZaofs2Xg8KqIMXL2L2,,,,,,,,,,,,,,,,,,2059.0,,,60ec1dd7eaa54649ce2bdd3f,12:48:21,26/02/2024
html-keyboard-response,138,272406,0.0-58.0-0.0,918.7000000178814,"<div style=""display: flex; flex-direction: column; align-items: center; margin-top: -40px;""><img src=""images/pattern_7.png"" style=""width: 234px; height: 230px; margin-top: -50px;""><div style=""display: flex; justify-content: space-between; margin-top: 33px;""><img src=""images/choice_trial_2.png"" style=""width: 408px; height: 417px; margin-right: 200px;""><img src=""images/choice_trial_11.png"" style=""width: 408px; height: 417px;""></div></div>",f,delaylearn,learning,trial,BkowKjhmYtZaofs2Xg8KqIMXL2L2,BkowKjhmYtZaofs2Xg8KqIMXL2L2,3.0,images/choice_trial_2.png,images/choice_trial_11.png,images/pattern_7.png,j,j,750.0,2.0,11.0,6.0,25.0,0.0,0.0,2.0,150.0,,,,,,60ec1dd7eaa54649ce2bdd3f,12:48:21,26/02/2024
html-keyboard-response,139,273409,0.0-58.0-1.0,,"<div style=""display: flex; flex-direction: column; align-items: center; margin-top: -40px;""><img src=""images/pattern_7.png"" style=""width: 234px; height: 230px; margin-top: -50px;""><div style=""display: flex; justify-content: space-between; margin-top: 33px;""><img src=""images/choice_trial_2.png"" style=""width: 408px; height: 417px; margin-right: 608px;""></div></div>",,delaylearn,learning,display_response,BkowKjhmYtZaofs2Xg8KqIMXL2L2,BkowKjhmYtZaofs2Xg8KqIMXL2L2,,,,,,,,,,,,,,,,chosen stimuli: images/choice_trial_2.png,,,,,60ec1dd7eaa54649ce2bdd3f,12:48:21,26/02/2024
html-keyboard-response,140,274160,0.0-58.0-2.0,,,,delaylearn,learning,feedback_duration_window,BkowKjhmYtZaofs2Xg8KqIMXL2L2,BkowKjhmYtZaofs2Xg8KqIMXL2L2,,,,,,,,,,,,,,,,,750.0,,,,60ec1dd7eaa54649ce2bdd3f,12:48:21,26/02/2024
html-keyboard-response,141,275674,0.0-58.0-3.0,,<div style='margin:auto;width: auto; font-size: 150%'><span style='font-weight: bold; font-size: 100px; color: red;'>0 points!</span><br><br></div>,,delaylearn,learning,feedback_image_window,BkowKjhmYtZaofs2Xg8KqIMXL2L2,BkowKjhmYtZaofs2Xg8KqIMXL2L2,,,,,,,,,,,,,,,,,,,,,60ec1dd7eaa54649ce2bdd3f,12:48:21,26/02/2024
html-keyboard-response,142,276178,0.0-59.0-0.0,,,,,,mood_trial_fixation,BkowKjhmYtZaofs2Xg8KqIMXL2L2,,,,,,,,,,,,,,,,,,,,,,60ec1dd7eaa54649ce2bdd3f,12:48:21,26/02/2024
lmdlab-html-vas-response,143,280008,0.0-59.0-1.0,2817.0,How happy are you right now?,0.3142134178446863,delaylearn,learning,mood_trial,BkowKjhmYtZaofs2Xg8KqIMXL2L2,BkowKjhmYtZaofs2Xg8KqIMXL2L2,,,,,,,,,,,,,,,,,,,"['Very unhappy', 'Very happy']",,60ec1dd7eaa54649ce2bdd3f,12:48:21,26/02/2024
html-keyboard-response,144,282500,0.0-60.0,,"<div style=""font-size:100px;"">+</div>",,delaylearn,learning,ITI,BkowKjhmYtZaofs2Xg8KqIMXL2L2,BkowKjhmYtZaofs2Xg8KqIMXL2L2,,,,,,,,,,,,,,,,,,2489.0,,,60ec1dd7eaa54649ce2bdd3f,12:48:21,26/02/2024
html-keyboard-response,145,283438,0.0-61.0-0.0,935.7000000178814,"<div style=""display: flex; flex-direction: column; align-items: center; margin-top: -40px;""><img src=""images/pattern_1.png"" style=""width: 234px; height: 230px; margin-top: -50px;""><div style=""display: flex; justify-content: space-between; margin-top: 33px;""><img src=""images/choice_trial_11.png"" style=""width: 408px; height: 417px; margin-right: 200px;""><img src=""images/choice_trial_2.png"" style=""width: 408px; height: 417px;""></div></div>",j,delaylearn,learning,trial,BkowKjhmYtZaofs2Xg8KqIMXL2L2,BkowKjhmYtZaofs2Xg8KqIMXL2L2,3.0,images/choice_trial_11.png,images/choice_trial_2.png,images/pattern_1.png,f,f,7000.0,11.0,2.0,1.0,26.0,0.0,0.0,2.0,150.0,,,,,,60ec1dd7eaa54649ce2bdd3f,12:48:21,26/02/2024
html-keyboard-response,146,284446,0.0-61.0-1.0,,"<div style=""display: flex; flex-direction: column; align-items: center; margin-top: -40px;""><img src=""images/pattern_1.png"" style=""width: 234px; height: 230px; margin-top: -50px;""><div style=""display: flex; justify-content: space-between; margin-top: 33px;""><img src=""images/choice_trial_2.png"" style=""width: 408px; height: 417px; margin-left:608px;""></div></div>",,delaylearn,learning,display_response,BkowKjhmYtZaofs2Xg8KqIMXL2L2,BkowKjhmYtZaofs2Xg8KqIMXL2L2,,,,,,,,,,,,,,,,chosen stimuli: images/choice_trial_2.png,,,,,60ec1dd7eaa54649ce2bdd3f,12:48:21,26/02/2024
html-keyboard-response,147,291448,0.0-61.0-2.0,,,,delaylearn,learning,feedback_duration_window,BkowKjhmYtZaofs2Xg8KqIMXL2L2,BkowKjhmYtZaofs2Xg8KqIMXL2L2,,,,,,,,,,,,,,,,,7000.0,,,,60ec1dd7eaa54649ce2bdd3f,12:48:21,26/02/2024
html-keyboard-response,148,292956,0.0-61.0-3.0,,<div style='margin:auto;width: auto; font-size: 150%'><span style='font-weight: bold; font-size: 100px; color: red;'>0 points!</span><br><br></div>,,delaylearn,learning,feedback_image_window,BkowKjhmYtZaofs2Xg8KqIMXL2L2,BkowKjhmYtZaofs2Xg8KqIMXL2L2,,,,,,,,,,,,,,,,,,,,,60ec1dd7eaa54649ce2bdd3f,12:48:21,26/02/2024
html-keyboard-response,149,295388,0.0-62.0,,"<div style=""font-size:100px;"">+</div>",,delaylearn,learning,ITI,BkowKjhmYtZaofs2Xg8KqIMXL2L2,BkowKjhmYtZaofs2Xg8KqIMXL2L2,,,,,,,,,,,,,,,,,,2430.0,,,60ec1dd7eaa54649ce2bdd3f,12:48:21,26/02/2024
html-keyboard-response,150,296034,0.0-63.0-0.0,644.0999999940395,"<div style=""display: flex; flex-direction: column; align-items: center; margin-top: -40px;""><img src=""images/pattern_5.png"" style=""width: 234px; height: 230px; margin-top: -50px;""><div style=""display: flex; justify-content: space-between; margin-top: 33px;""><img src=""images/choice_trial_11.png"" style=""width: 408px; height: 417px; margin-right: 200px;""><img src=""images/choice_trial_2.png"" style=""width: 408px; height: 417px;""></div></div>",j,delaylearn,learning,trial,BkowKjhmYtZaofs2Xg8KqIMXL2L2,BkowKjhmYtZaofs2Xg8KqIMXL2L2,3.0,images/choice_trial_11.png,images/choice_trial_2.png,images/pattern_5.png,f,f,750.0,11.0,2.0,4.0,27.0,0.0,0.0,2.0,150.0,,,,,,60ec1dd7eaa54649ce2bdd3f,12:48:21,26/02/2024
html-keyboard-response,151,297037,0.0-63.0-1.0,,"<div style=""display: flex; flex-direction: column; align-items: center; margin-top: -40px;""><img src=""images/pattern_5.png"" style=""width: 234px; height: 230px; margin-top: -50px;""><div style=""display: flex; justify-content: space-between; margin-top: 33px;""><img src=""images/choice_trial_2.png"" style=""width: 408px; height: 417px; margin-left:608px;""></div></div>",,delaylearn,learning,display_response,BkowKjhmYtZaofs2Xg8KqIMXL2L2,BkowKjhmYtZaofs2Xg8KqIMXL2L2,,,,,,,,,,,,,,,,chosen stimuli: images/choice_trial_2.png,,,,,60ec1dd7eaa54649ce2bdd3f,12:48:21,26/02/2024
html-keyboard-response,152,297791,0.0-63.0-2.0,,,,delaylearn,learning,feedback_duration_window,BkowKjhmYtZaofs2Xg8KqIMXL2L2,BkowKjhmYtZaofs2Xg8KqIMXL2L2,,,,,,,,,,,,,,,,,750.0,,,,60ec1dd7eaa54649ce2bdd3f,12:48:21,26/02/2024
html-keyboard-response,153,299305,0.0-63.0-3.0,,<div style='margin:auto;width: auto; font-size: 150%'><span style='font-weight: bold; font-size: 100px; color: red;'>0 points!</span><br><br></div>,,delaylearn,learning,feedback_image_window,BkowKjhmYtZaofs2Xg8KqIMXL2L2,BkowKjhmYtZaofs2Xg8KqIMXL2L2,,,,,,,,,,,,,,,,,,,,,60ec1dd7eaa54649ce2bdd3f,12:48:21,26/02/2024
html-keyboard-response,154,301744,0.0-64.0,,"<div style=""font-size:100px;"">+</div>",,delaylearn,learning,ITI,BkowKjhmYtZaofs2Xg8KqIMXL2L2,BkowKjhmYtZaofs2Xg8KqIMXL2L2,,,,,,,,,,,,,,,,,,2438.0,,,60ec1dd7eaa54649ce2bdd3f,12:48:21,26/02/2024
html-keyboard-response,155,302768,0.0-65.0-0.0,1021.8000000119209,"<div style=""display: flex; flex-direction: column; align-items: center; margin-top: -40px;""><img src=""images/pattern_6.png"" style=""width: 234px; height: 230px; margin-top: -50px;""><div style=""display: flex; justify-content: space-between; margin-top: 33px;""><img src=""images/choice_trial_2.png"" style=""width: 408px; height: 417px; margin-right: 200px;""><img src=""images/choice_trial_11.png"" style=""width: 408px; height: 417px;""></div></div>",j,delaylearn,learning,trial,BkowKjhmYtZaofs2Xg8KqIMXL2L2,BkowKjhmYtZaofs2Xg8KqIMXL2L2,3.0,images/choice_trial_2.png,images/choice_trial_11.png,images/pattern_6.png,j,j,750.0,2.0,11.0,5.0,28.0,1.0,1.0,11.0,160.0,,,,,,60ec1dd7eaa54649ce2bdd3f,12:48:21,26/02/2024
html-keyboard-response,156,303777,0.0-65.0-1.0,,"<div style=""display: flex; flex-direction: column; align-items: center; margin-top: -40px;""><img src=""images/pattern_6.png"" style=""width: 234px; height: 230px; margin-top: -50px;""><div style=""display: flex; justify-content: space-between; margin-top: 33px;""><img src=""images/choice_trial_11.png"" style=""width: 408px; height: 417px; margin-left:608px;""></div></div>",,delaylearn,learning,display_response,BkowKjhmYtZaofs2Xg8KqIMXL2L2,BkowKjhmYtZaofs2Xg8KqIMXL2L2,,,,,,,,,,,,,,,,chosen stimuli: images/choice_trial_11.png,,,,,60ec1dd7eaa54649ce2bdd3f,12:48:21,26/02/2024
html-keyboard-response,157,304544,0.0-65.0-2.0,,,,delaylearn,learning,feedback_duration_window,BkowKjhmYtZaofs2Xg8KqIMXL2L2,BkowKjhmYtZaofs2Xg8KqIMXL2L2,,,,,,,,,,,,,,,,,750.0,,,,60ec1dd7eaa54649ce2bdd3f,12:48:21,26/02/2024
html-keyboard-response,158,306053,0.0-65.0-3.0,,<div style='margin:auto;width: auto; font-size: 150%'><span style='font-weight: bold; font-size: 100px; color: green;'>+10 points!</span><br><br></div>,,delaylearn,learning,feedback_image_window,BkowKjhmYtZaofs2Xg8KqIMXL2L2,BkowKjhmYtZaofs2Xg8KqIMXL2L2,,,,,,,,,,,,,,,,,,,,,60ec1dd7eaa54649ce2bdd3f,12:48:21,26/02/2024
html-keyboard-response,159,306555,0.0-66.0-0.0,,,,,,mood_trial_fixation,BkowKjhmYtZaofs2Xg8KqIMXL2L2,,,,,,,,,,,,,,,,,,,,,,60ec1dd7eaa54649ce2bdd3f,12:48:21,26/02/2024
lmdlab-html-vas-response,160,310210,0.0-66.0-1.0,2638.0,How happy are you right now?,0.36075641761483185,delaylearn,learning,mood_trial,BkowKjhmYtZaofs2Xg8KqIMXL2L2,BkowKjhmYtZaofs2Xg8KqIMXL2L2,,,,,,,,,,,,,,,,,,,"['Very unhappy', 'Very happy']",,60ec1dd7eaa54649ce2bdd3f,12:48:21,26/02/2024
html-keyboard-response,161,312647,0.0-67.0,,"<div style=""font-size:100px;"">+</div>",,delaylearn,learning,ITI,BkowKjhmYtZaofs2Xg8KqIMXL2L2,BkowKjhmYtZaofs2Xg8KqIMXL2L2,,,,,,,,,,,,,,,,,,2428.0,,,60ec1dd7eaa54649ce2bdd3f,12:48:21,26/02/2024
html-keyboard-response,162,313701,0.0-68.0-0.0,1053.0,"<div style=""display: flex; flex-direction: column; align-items: center; margin-top: -40px;""><img src=""images/pattern_4.png"" style=""width: 234px; height: 230px; margin-top: -50px;""><div style=""display: flex; justify-content: space-between; margin-top: 33px;""><img src=""images/choice_trial_2.png"" style=""width: 408px; height: 417px; margin-right: 200px;""><img src=""images/choice_trial_11.png"" style=""width: 408px; height: 417px;""></div></div>",f,delaylearn,learning,trial,BkowKjhmYtZaofs2Xg8KqIMXL2L2,BkowKjhmYtZaofs2Xg8KqIMXL2L2,3.0,images/choice_trial_2.png,images/choice_trial_11.png,images/pattern_4.png,j,j,7000.0,2.0,11.0,3.0,29.0,0.0,0.0,2.0,160.0,,,,,,60ec1dd7eaa54649ce2bdd3f,12:48:21,26/02/2024
html-keyboard-response,163,314714,0.0-68.0-1.0,,"<div style=""display: flex; flex-direction: column; align-items: center; margin-top: -40px;""><img src=""images/pattern_4.png"" style=""width: 234px; height: 230px; margin-top: -50px;""><div style=""display: flex; justify-content: space-between; margin-top: 33px;""><img src=""images/choice_trial_2.png"" style=""width: 408px; height: 417px; margin-right: 608px;""></div></div>",,delaylearn,learning,display_response,BkowKjhmYtZaofs2Xg8KqIMXL2L2,BkowKjhmYtZaofs2Xg8KqIMXL2L2,,,,,,,,,,,,,,,,chosen stimuli: images/choice_trial_2.png,,,,,60ec1dd7eaa54649ce2bdd3f,12:48:21,26/02/2024
html-keyboard-response,164,321726,0.0-68.0-2.0,,,,delaylearn,learning,feedback_duration_window,BkowKjhmYtZaofs2Xg8KqIMXL2L2,BkowKjhmYtZaofs2Xg8KqIMXL2L2,,,,,,,,,,,,,,,,,7000.0,,,,60ec1dd7eaa54649ce2bdd3f,12:48:21,26/02/2024
html-keyboard-response,165,323228,0.0-68.0-3.0,,<div style='margin:auto;width: auto; font-size: 150%'><span style='font-weight: bold; font-size: 100px; color: red;'>0 points!</span><br><br></div>,,delaylearn,learning,feedback_image_window,BkowKjhmYtZaofs2Xg8KqIMXL2L2,BkowKjhmYtZaofs2Xg8KqIMXL2L2,,,,,,,,,,,,,,,,,,,,,60ec1dd7eaa54649ce2bdd3f,12:48:21,26/02/2024
html-keyboard-response,166,324755,0.0-69.0,,"<div style=""font-size:100px;"">+</div>",,delaylearn,learning,ITI,BkowKjhmYtZaofs2Xg8KqIMXL2L2,BkowKjhmYtZaofs2Xg8KqIMXL2L2,,,,,,,,,,,,,,,,,,1516.0,,,60ec1dd7eaa54649ce2bdd3f,12:48:21,26/02/2024
html-keyboard-response,167,325425,0.0-70.0-0.0,668.3000000119209,"<div style=""display: flex; flex-direction: column; align-items: center; margin-top: -40px;""><img src=""images/pattern_3.png"" style=""width: 234px; height: 230px; margin-top: -50px;""><div style=""display: flex; justify-content: space-between; margin-top: 33px;""><img src=""images/choice_trial_2.png"" style=""width: 408px; height: 417px; margin-right: 200px;""><img src=""images/choice_trial_11.png"" style=""width: 408px; height: 417px;""></div></div>",f,delaylearn,learning,trial,BkowKjhmYtZaofs2Xg8KqIMXL2L2,BkowKjhmYtZaofs2Xg8KqIMXL2L2,3.0,images/choice_trial_2.png,images/choice_trial_11.png,images/pattern_3.png,j,j,7000.0,2.0,11.0,2.0,30.0,0.0,0.0,2.0,160.0,,,,,,60ec1dd7eaa54649ce2bdd3f,12:48:21,26/02/2024
html-keyboard-response,168,326431,0.0-70.0-1.0,,"<div style=""display: flex; flex-direction: column; align-items: center; margin-top: -40px;""><img src=""images/pattern_3.png"" style=""width: 234px; height: 230px; margin-top: -50px;""><div style=""display: flex; justify-content: space-between; margin-top: 33px;""><img src=""images/choice_trial_2.png"" style=""width: 408px; height: 417px; margin-right: 608px;""></div></div>",,delaylearn,learning,display_response,BkowKjhmYtZaofs2Xg8KqIMXL2L2,BkowKjhmYtZaofs2Xg8KqIMXL2L2,,,,,,,,,,,,,,,,chosen stimuli: images/choice_trial_2.png,,,,,60ec1dd7eaa54649ce2bdd3f,12:48:21,26/02/2024
html-keyboard-response,169,333446,0.0-70.0-2.0,,,,delaylearn,learning,feedback_duration_window,BkowKjhmYtZaofs2Xg8KqIMXL2L2,BkowKjhmYtZaofs2Xg8KqIMXL2L2,,,,,,,,,,,,,,,,,7000.0,,,,60ec1dd7eaa54649ce2bdd3f,12:48:21,26/02/2024
html-keyboard-response,170,334952,0.0-70.0-3.0,,<div style='margin:auto;width: auto; font-size: 150%'><span style='font-weight: bold; font-size: 100px; color: red;'>0 points!</span><br><br></div>,,delaylearn,learning,feedback_image_window,BkowKjhmYtZaofs2Xg8KqIMXL2L2,BkowKjhmYtZaofs2Xg8KqIMXL2L2,,,,,,,,,,,,,,,,,,,,,60ec1dd7eaa54649ce2bdd3f,12:48:21,26/02/2024
html-keyboard-response,171,336957,0.0-71.0,,"<div style=""font-size:100px;"">+</div>",,delaylearn,learning,ITI,BkowKjhmYtZaofs2Xg8KqIMXL2L2,BkowKjhmYtZaofs2Xg8KqIMXL2L2,,,,,,,,,,,,,,,,,,1988.0,,,60ec1dd7eaa54649ce2bdd3f,12:48:21,26/02/2024
html-keyboard-response,172,337920,0.0-72.0-0.0,960.9000000059605,"<div style=""display: flex; flex-direction: column; align-items: center; margin-top: -40px;""><img src=""images/pattern_5.png"" style=""width: 234px; height: 230px; margin-top: -50px;""><div style=""display: flex; justify-content: space-between; margin-top: 33px;""><img src=""images/choice_trial_16.png"" style=""width: 408px; height: 417px; margin-right: 200px;""><img src=""images/choice_trial_3.png"" style=""width: 408px; height: 417px;""></div></div>",j,delaylearn,learning,trial,BkowKjhmYtZaofs2Xg8KqIMXL2L2,BkowKjhmYtZaofs2Xg8KqIMXL2L2,3.0,images/choice_trial_16.png,images/choice_trial_3.png,images/pattern_5.png,j,f,750.0,16.0,3.0,4.0,31.0,0.0,1.0,3.0,170.0,,,,,,60ec1dd7eaa54649ce2bdd3f,12:48:21,26/02/2024
html-keyboard-response,173,338929,0.0-72.0-1.0,,"<div style=""display: flex; flex-direction: column; align-items: center; margin-top: -40px;""><img src=""images/pattern_5.png"" style=""width: 234px; height: 230px; margin-top: -50px;""><div style=""display: flex; justify-content: space-between; margin-top: 33px;""><img src=""images/choice_trial_3.png"" style=""width: 408px; height: 417px; margin-left:608px;""></div></div>",,delaylearn,learning,display_response,BkowKjhmYtZaofs2Xg8KqIMXL2L2,BkowKjhmYtZaofs2Xg8KqIMXL2L2,,,,,,,,,,,,,,,,chosen stimuli: images/choice_trial_3.png,,,,,60ec1dd7eaa54649ce2bdd3f,12:48:21,26/02/2024
html-keyboard-response,174,339691,0.0-72.0-2.0,,,,delaylearn,learning,feedback_duration_window,BkowKjhmYtZaofs2Xg8KqIMXL2L2,BkowKjhmYtZaofs2Xg8KqIMXL2L2,,,,,,,,,,,,,,,,,750.0,,,,60ec1dd7eaa54649ce2bdd3f,12:48:21,26/02/2024
html-keyboard-response,175,341208,0.0-72.0-3.0,,<div style='margin:auto;width: auto; font-size: 150%'><span style='font-weight: bold; font-size: 100px; color: green;'>+10 points!</span><br><br></div>,,delaylearn,learning,feedback_image_window,BkowKjhmYtZaofs2Xg8KqIMXL2L2,BkowKjhmYtZaofs2Xg8KqIMXL2L2,,,,,,,,,,,,,,,,,,,,,60ec1dd7eaa54649ce2bdd3f,12:48:21,26/02/2024
html-keyboard-response,176,342812,0.0-73.0,,"<div style=""font-size:100px;"">+</div>",,delaylearn,learning,ITI,BkowKjhmYtZaofs2Xg8KqIMXL2L2,BkowKjhmYtZaofs2Xg8KqIMXL2L2,,,,,,,,,,,,,,,,,,1603.0,,,60ec1dd7eaa54649ce2bdd3f,12:48:21,26/02/2024
html-keyboard-response,177,343534,0.0-74.0-0.0,719.8000000119209,"<div style=""display: flex; flex-direction: column; align-items: center; margin-top: -40px;""><img src=""images/pattern_1.png"" style=""width: 234px; height: 230px; margin-top: -50px;""><div style=""display: flex; justify-content: space-between; margin-top: 33px;""><img src=""images/choice_trial_16.png"" style=""width: 408px; height: 417px; margin-right: 200px;""><img src=""images/choice_trial_3.png"" style=""width: 408px; height: 417px;""></div></div>",j,delaylearn,learning,trial,BkowKjhmYtZaofs2Xg8KqIMXL2L2,BkowKjhmYtZaofs2Xg8KqIMXL2L2,3.0,images/choice_trial_16.png,images/choice_trial_3.png,images/pattern_1.png,f,f,7000.0,16.0,3.0,1.0,32.0,0.0,0.0,3.0,170.0,,,,,,60ec1dd7eaa54649ce2bdd3f,12:48:21,26/02/2024
html-keyboard-response,178,344549,0.0-74.0-1.0,,"<div style=""display: flex; flex-direction: column; align-items: center; margin-top: -40px;""><img src=""images/pattern_1.png"" style=""width: 234px; height: 230px; margin-top: -50px;""><div style=""display: flex; justify-content: space-between; margin-top: 33px;""><img src=""images/choice_trial_3.png"" style=""width: 408px; height: 417px; margin-left:608px;""></div></div>",,delaylearn,learning,display_response,BkowKjhmYtZaofs2Xg8KqIMXL2L2,BkowKjhmYtZaofs2Xg8KqIMXL2L2,,,,,,,,,,,,,,,,chosen stimuli: images/choice_trial_3.png,,,,,60ec1dd7eaa54649ce2bdd3f,12:48:21,26/02/2024
html-keyboard-response,179,351565,0.0-74.0-2.0,,,,delaylearn,learning,feedback_duration_window,BkowKjhmYtZaofs2Xg8KqIMXL2L2,BkowKjhmYtZaofs2Xg8KqIMXL2L2,,,,,,,,,,,,,,,,,7000.0,,,,60ec1dd7eaa54649ce2bdd3f,12:48:21,26/02/2024
html-keyboard-response,180,353082,0.0-74.0-3.0,,<div style='margin:auto;width: auto; font-size: 150%'><span style='font-weight: bold; font-size: 100px; color: red;'>0 points!</span><br><br></div>,,delaylearn,learning,feedback_image_window,BkowKjhmYtZaofs2Xg8KqIMXL2L2,BkowKjhmYtZaofs2Xg8KqIMXL2L2,,,,,,,,,,,,,,,,,,,,,60ec1dd7eaa54649ce2bdd3f,12:48:21,26/02/2024
html-keyboard-response,181,353589,0.0-75.0-0.0,,,,,,mood_trial_fixation,BkowKjhmYtZaofs2Xg8KqIMXL2L2,,,,,,,,,,,,,,,,,,,,,,60ec1dd7eaa54649ce2bdd3f,12:48:21,26/02/2024
lmdlab-html-vas-response,182,357337,0.0-75.0-1.0,2732.0,How happy are you right now?,0.3000481570450768,delaylearn,learning,mood_trial,BkowKjhmYtZaofs2Xg8KqIMXL2L2,BkowKjhmYtZaofs2Xg8KqIMXL2L2,,,,,,,,,,,,,,,,,,,"['Very unhappy', 'Very happy']",,60ec1dd7eaa54649ce2bdd3f,12:48:21,26/02/2024
html-keyboard-response,183,359087,0.0-76.0,,"<div style=""font-size:100px;"">+</div>",,delaylearn,learning,ITI,BkowKjhmYtZaofs2Xg8KqIMXL2L2,BkowKjhmYtZaofs2Xg8KqIMXL2L2,,,,,,,,,,,,,,,,,,1733.0,,,60ec1dd7eaa54649ce2bdd3f,12:48:21,26/02/2024
html-keyboard-response,184,359750,0.0-77.0-0.0,660.7000000178814,"<div style=""display: flex; flex-direction: column; align-items: center; margin-top: -40px;""><img src=""images/pattern_6.png"" style=""width: 234px; height: 230px; margin-top: -50px;""><div style=""display: flex; justify-content: space-between; margin-top: 33px;""><img src=""images/choice_trial_16.png"" style=""width: 408px; height: 417px; margin-right: 200px;""><img src=""images/choice_trial_3.png"" style=""width: 408px; height: 417px;""></div></div>",j,delaylearn,learning,trial,BkowKjhmYtZaofs2Xg8KqIMXL2L2,BkowKjhmYtZaofs2Xg8KqIMXL2L2,3.0,images/choice_trial_16.png,images/choice_trial_3.png,images/pattern_6.png,j,f,750.0,16.0,3.0,5.0,33.0,0.0,1.0,3.0,180.0,,,,,,60ec1dd7eaa54649ce2bdd3f,12:48:21,26/02/2024
html-keyboard-response,185,360759,0.0-77.0-1.0,,"<div style=""display: flex; flex-direction: column; align-items: center; margin-top: -40px;""><img src=""images/pattern_6.png"" style=""width: 234px; height: 230px; margin-top: -50px;""><div style=""display: flex; justify-content: space-between; margin-top: 33px;""><img src=""images/choice_trial_3.png"" style=""width: 408px; height: 417px; margin-left:608px;""></div></div>",,delaylearn,learning,display_response,BkowKjhmYtZaofs2Xg8KqIMXL2L2,BkowKjhmYtZaofs2Xg8KqIMXL2L2,,,,,,,,,,,,,,,,chosen stimuli: images/choice_trial_3.png,,,,,60ec1dd7eaa54649ce2bdd3f,12:48:21,26/02/2024
html-keyboard-response,186,361514,0.0-77.0-2.0,,,,delaylearn,learning,feedback_duration_window,BkowKjhmYtZaofs2Xg8KqIMXL2L2,BkowKjhmYtZaofs2Xg8KqIMXL2L2,,,,,,,,,,,,,,,,,750.0,,,,60ec1dd7eaa54649ce2bdd3f,12:48:21,26/02/2024
html-keyboard-response,187,363015,0.0-77.0-3.0,,<div style='margin:auto;width: auto; font-size: 150%'><span style='font-weight: bold; font-size: 100px; color: green;'>+10 points!</span><br><br></div>,,delaylearn,learning,feedback_image_window,BkowKjhmYtZaofs2Xg8KqIMXL2L2,BkowKjhmYtZaofs2Xg8KqIMXL2L2,,,,,,,,,,,,,,,,,,,,,60ec1dd7eaa54649ce2bdd3f,12:48:21,26/02/2024
html-keyboard-response,188,364905,0.0-78.0,,"<div style=""font-size:100px;"">+</div>",,delaylearn,learning,ITI,BkowKjhmYtZaofs2Xg8KqIMXL2L2,BkowKjhmYtZaofs2Xg8KqIMXL2L2,,,,,,,,,,,,,,,,,,1876.0,,,60ec1dd7eaa54649ce2bdd3f,12:48:21,26/02/2024
html-keyboard-response,189,365760,0.0-79.0-0.0,852.8000000119209,"<div style=""display: flex; flex-direction: column; align-items: center; margin-top: -40px;""><img src=""images/pattern_3.png"" style=""width: 234px; height: 230px; margin-top: -50px;""><div style=""display: flex; justify-content: space-between; margin-top: 33px;""><img src=""images/choice_trial_3.png"" style=""width: 408px; height: 417px; margin-right: 200px;""><img src=""images/choice_trial_16.png"" style=""width: 408px; height: 417px;""></div></div>",j,delaylearn,learning,trial,BkowKjhmYtZaofs2Xg8KqIMXL2L2,BkowKjhmYtZaofs2Xg8KqIMXL2L2,3.0,images/choice_trial_3.png,images/choice_trial_16.png,images/pattern_3.png,j,j,7000.0,3.0,16.0,2.0,34.0,1.0,1.0,16.0,190.0,,,,,,60ec1dd7eaa54649ce2bdd3f,12:48:21,26/02/2024
html-keyboard-response,190,366768,0.0-79.0-1.0,,"<div style=""display: flex; flex-direction: column; align-items: center; margin-top: -40px;""><img src=""images/pattern_3.png"" style=""width: 234px; height: 230px; margin-top: -50px;""><div style=""display: flex; justify-content: space-between; margin-top: 33px;""><img src=""images/choice_trial_16.png"" style=""width: 408px; height: 417px; margin-left:608px;""></div></div>",,delaylearn,learning,display_response,BkowKjhmYtZaofs2Xg8KqIMXL2L2,BkowKjhmYtZaofs2Xg8KqIMXL2L2,,,,,,,,,,,,,,,,chosen stimuli: images/choice_trial_16.png,,,,,60ec1dd7eaa54649ce2bdd3f,12:48:21,26/02/2024
html-keyboard-response,191,373784,0.0-79.0-2.0,,,,delaylearn,learning,feedback_duration_window,BkowKjhmYtZaofs2Xg8KqIMXL2L2,BkowKjhmYtZaofs2Xg8KqIMXL2L2,,,,,,,,,,,,,,,,,7000.0,,,,60ec1dd7eaa54649ce2bdd3f,12:48:21,26/02/2024
html-keyboard-response,192,375292,0.0-79.0-3.0,,<div style='margin:auto;width: auto; font-size: 150%'><span style='font-weight: bold; font-size: 100px; color: green;'>+10 points!</span><br><br></div>,,delaylearn,learning,feedback_image_window,BkowKjhmYtZaofs2Xg8KqIMXL2L2,BkowKjhmYtZaofs2Xg8KqIMXL2L2,,,,,,,,,,,,,,,,,,,,,60ec1dd7eaa54649ce2bdd3f,12:48:21,26/02/2024
html-keyboard-response,193,377802,0.0-80.0,,"<div style=""font-size:100px;"">+</div>",,delaylearn,learning,ITI,BkowKjhmYtZaofs2Xg8KqIMXL2L2,BkowKjhmYtZaofs2Xg8KqIMXL2L2,,,,,,,,,,,,,,,,,,2498.0,,,60ec1dd7eaa54649ce2bdd3f,12:48:21,26/02/2024
html-keyboard-response,194,378515,0.0-81.0-0.0,711.5999999940395,"<div style=""display: flex; flex-direction: column; align-items: center; margin-top: -40px;""><img src=""images/pattern_4.png"" style=""width: 234px; height: 230px; margin-top: -50px;""><div style=""display: flex; justify-content: space-between; margin-top: 33px;""><img src=""images/choice_trial_3.png"" style=""width: 408px; height: 417px; margin-right: 200px;""><img src=""images/choice_trial_16.png"" style=""width: 408px; height: 417px;""></div></div>",j,delaylearn,learning,trial,BkowKjhmYtZaofs2Xg8KqIMXL2L2,BkowKjhmYtZaofs2Xg8KqIMXL2L2,3.0,images/choice_trial_3.png,images/choice_trial_16.png,images/pattern_4.png,f,j,7000.0,3.0,16.0,3.0,35.0,1.0,0.0,16.0,190.0,,,,,,60ec1dd7eaa54649ce2bdd3f,12:48:21,26/02/2024
html-keyboard-response,195,379521,0.0-81.0-1.0,,"<div style=""display: flex; flex-direction: column; align-items: center; margin-top: -40px;""><img src=""images/pattern_4.png"" style=""width: 234px; height: 230px; margin-top: -50px;""><div style=""display: flex; justify-content: space-between; margin-top: 33px;""><img src=""images/choice_trial_16.png"" style=""width: 408px; height: 417px; margin-left:608px;""></div></div>",,delaylearn,learning,display_response,BkowKjhmYtZaofs2Xg8KqIMXL2L2,BkowKjhmYtZaofs2Xg8KqIMXL2L2,,,,,,,,,,,,,,,,chosen stimuli: images/choice_trial_16.png,,,,,60ec1dd7eaa54649ce2bdd3f,12:48:21,26/02/2024
html-keyboard-response,196,386537,0.0-81.0-2.0,,,,delaylearn,learning,feedback_duration_window,BkowKjhmYtZaofs2Xg8KqIMXL2L2,BkowKjhmYtZaofs2Xg8KqIMXL2L2,,,,,,,,,,,,,,,,,7000.0,,,,60ec1dd7eaa54649ce2bdd3f,12:48:21,26/02/2024
html-keyboard-response,197,388053,0.0-81.0-3.0,,<div style='margin:auto;width: auto; font-size: 150%'><span style='font-weight: bold; font-size: 100px; color: red;'>0 points!</span><br><br></div>,,delaylearn,learning,feedback_image_window,BkowKjhmYtZaofs2Xg8KqIMXL2L2,BkowKjhmYtZaofs2Xg8KqIMXL2L2,,,,,,,,,,,,,,,,,,,,,60ec1dd7eaa54649ce2bdd3f,12:48:21,26/02/2024
html-keyboard-response,198,390078,0.0-82.0,,"<div style=""font-size:100px;"">+</div>",,delaylearn,learning,ITI,BkowKjhmYtZaofs2Xg8KqIMXL2L2,BkowKjhmYtZaofs2Xg8KqIMXL2L2,,,,,,,,,,,,,,,,,,2012.0,,,60ec1dd7eaa54649ce2bdd3f,12:48:21,26/02/2024
html-keyboard-response,199,390991,0.0-83.0-0.0,911.2000000178814,"<div style=""display: flex; flex-direction: column; align-items: center; margin-top: -40px;""><img src=""images/pattern_7.png"" style=""width: 234px; height: 230px; margin-top: -50px;""><div style=""display: flex; justify-content: space-between; margin-top: 33px;""><img src=""images/choice_trial_16.png"" style=""width: 408px; height: 417px; margin-right: 200px;""><img src=""images/choice_trial_3.png"" style=""width: 408px; height: 417px;""></div></div>",j,delaylearn,learning,trial,BkowKjhmYtZaofs2Xg8KqIMXL2L2,BkowKjhmYtZaofs2Xg8KqIMXL2L2,3.0,images/choice_trial_16.png,images/choice_trial_3.png,images/pattern_7.png,f,f,750.0,16.0,3.0,6.0,36.0,0.0,0.0,3.0,190.0,,,,,,60ec1dd7eaa54649ce2bdd3f,12:48:21,26/02/2024
html-keyboard-response,200,391997,0.0-83.0-1.0,,"<div style=""display: flex; flex-direction: column; align-items: center; margin-top: -40px;""><img src=""images/pattern_7.png"" style=""width: 234px; height: 230px; margin-top: -50px;""><div style=""display: flex; justify-content: space-between; margin-top: 33px;""><img src=""images/choice_trial_3.png"" style=""width: 408px; height: 417px; margin-left:608px;""></div></div>",,delaylearn,learning,display_response,BkowKjhmYtZaofs2Xg8KqIMXL2L2,BkowKjhmYtZaofs2Xg8KqIMXL2L2,,,,,,,,,,,,,,,,chosen stimuli: images/choice_trial_3.png,,,,,60ec1dd7eaa54649ce2bdd3f,12:48:21,26/02/2024
html-keyboard-response,201,392761,0.0-83.0-2.0,,,,delaylearn,learning,feedback_duration_window,BkowKjhmYtZaofs2Xg8KqIMXL2L2,BkowKjhmYtZaofs2Xg8KqIMXL2L2,,,,,,,,,,,,,,,,,750.0,,,,60ec1dd7eaa54649ce2bdd3f,12:48:21,26/02/2024
html-keyboard-response,202,394279,0.0-83.0-3.0,,<div style='margin:auto;width: auto; font-size: 150%'><span style='font-weight: bold; font-size: 100px; color: red;'>0 points!</span><br><br></div>,,delaylearn,learning,feedback_image_window,BkowKjhmYtZaofs2Xg8KqIMXL2L2,BkowKjhmYtZaofs2Xg8KqIMXL2L2,,,,,,,,,,,,,,,,,,,,,60ec1dd7eaa54649ce2bdd3f,12:48:21,26/02/2024
html-keyboard-response,203,396663,0.0-84.0,,"<div style=""font-size:100px;"">+</div>",,delaylearn,learning,ITI,BkowKjhmYtZaofs2Xg8KqIMXL2L2,BkowKjhmYtZaofs2Xg8KqIMXL2L2,,,,,,,,,,,,,,,,,,2379.0,,,60ec1dd7eaa54649ce2bdd3f,12:48:21,26/02/2024
html-keyboard-response,204,397516,0.0-85.0-0.0,851.0,"<div style=""display: flex; flex-direction: column; align-items: center; margin-top: -40px;""><img src=""images/pattern_1.png"" style=""width: 234px; height: 230px; margin-top: -50px;""><div style=""display: flex; justify-content: space-between; margin-top: 33px;""><img src=""images/choice_trial_6.png"" style=""width: 408px; height: 417px; margin-right: 200px;""><img src=""images/choice_trial_12.png"" style=""width: 408px; height: 417px;""></div></div>",f,delaylearn,learning,trial,BkowKjhmYtZaofs2Xg8KqIMXL2L2,BkowKjhmYtZaofs2Xg8KqIMXL2L2,3.0,images/choice_trial_6.png,images/choice_trial_12.png,images/pattern_1.png,f,f,7000.0,6.0,12.0,1.0,37.0,1.0,1.0,6.0,200.0,,,,,,60ec1dd7eaa54649ce2bdd3f,12:48:21,26/02/2024
html-keyboard-response,205,398533,0.0-85.0-1.0,,"<div style=""display: flex; flex-direction: column; align-items: center; margin-top: -40px;""><img src=""images/pattern_1.png"" style=""width: 234px; height: 230px; margin-top: -50px;""><div style=""display: flex; justify-content: space-between; margin-top: 33px;""><img src=""images/choice_trial_6.png"" style=""width: 408px; height: 417px; margin-right: 608px;""></div></div>",,delaylearn,learning,display_response,BkowKjhmYtZaofs2Xg8KqIMXL2L2,BkowKjhmYtZaofs2Xg8KqIMXL2L2,,,,,,,,,,,,,,,,chosen stimuli: images/choice_trial_6.png,,,,,60ec1dd7eaa54649ce2bdd3f,12:48:21,26/02/2024
html-keyboard-response,206,405549,0.0-85.0-2.0,,,,delaylearn,learning,feedback_duration_window,BkowKjhmYtZaofs2Xg8KqIMXL2L2,BkowKjhmYtZaofs2Xg8KqIMXL2L2,,,,,,,,,,,,,,,,,7000.0,,,,60ec1dd7eaa54649ce2bdd3f,12:48:21,26/02/2024
html-keyboard-response,207,407066,0.0-85.0-3.0,,<div style='margin:auto;width: auto; font-size: 150%'><span style='font-weight: bold; font-size: 100px; color: green;'>+10 points!</span><br><br></div>,,delaylearn,learning,feedback_image_window,BkowKjhmYtZaofs2Xg8KqIMXL2L2,BkowKjhmYtZaofs2Xg8KqIMXL2L2,,,,,,,,,,,,,,,,,,,,,60ec1dd7eaa54649ce2bdd3f,12:48:21,26/02/2024
html-keyboard-response,208,407570,0.0-86.0-0.0,,,,,,mood_trial_fixation,BkowKjhmYtZaofs2Xg8KqIMXL2L2,,,,,,,,,,,,,,,,,,,,,,60ec1dd7eaa54649ce2bdd3f,12:48:21,26/02/2024
lmdlab-html-vas-response,209,411469,0.0-86.0-1.0,2884.0,How happy are you right now?,0.38908693921405085,delaylearn,learning,mood_trial,BkowKjhmYtZaofs2Xg8KqIMXL2L2,BkowKjhmYtZaofs2Xg8KqIMXL2L2,,,,,,,,,,,,,,,,,,,"['Very unhappy', 'Very happy']",,60ec1dd7eaa54649ce2bdd3f,12:48:21,26/02/2024
html-keyboard-response,210,413413,0.0-87.0,,"<div style=""font-size:100px;"">+</div>",,delaylearn,learning,ITI,BkowKjhmYtZaofs2Xg8KqIMXL2L2,BkowKjhmYtZaofs2Xg8KqIMXL2L2,,,,,,,,,,,,,,,,,,1934.0,,,60ec1dd7eaa54649ce2bdd3f,12:48:21,26/02/2024
html-keyboard-response,211,414244,0.0-88.0-0.0,829.1999999880791,"<div style=""display: flex; flex-direction: column; align-items: center; margin-top: -40px;""><img src=""images/pattern_3.png"" style=""width: 234px; height: 230px; margin-top: -50px;""><div style=""display: flex; justify-content: space-between; margin-top: 33px;""><img src=""images/choice_trial_6.png"" style=""width: 408px; height: 417px; margin-right: 200px;""><img src=""images/choice_trial_12.png"" style=""width: 408px; height: 417px;""></div></div>",j,delaylearn,learning,trial,BkowKjhmYtZaofs2Xg8KqIMXL2L2,BkowKjhmYtZaofs2Xg8KqIMXL2L2,3.0,images/choice_trial_6.png,images/choice_trial_12.png,images/pattern_3.png,j,f,7000.0,6.0,12.0,2.0,38.0,0.0,1.0,12.0,210.0,,,,,,60ec1dd7eaa54649ce2bdd3f,12:48:21,26/02/2024
html-keyboard-response,212,415252,0.0-88.0-1.0,,"<div style=""display: flex; flex-direction: column; align-items: center; margin-top: -40px;""><img src=""images/pattern_3.png"" style=""width: 234px; height: 230px; margin-top: -50px;""><div style=""display: flex; justify-content: space-between; margin-top: 33px;""><img src=""images/choice_trial_12.png"" style=""width: 408px; height: 417px; margin-left:608px;""></div></div>",,delaylearn,learning,display_response,BkowKjhmYtZaofs2Xg8KqIMXL2L2,BkowKjhmYtZaofs2Xg8KqIMXL2L2,,,,,,,,,,,,,,,,chosen stimuli: images/choice_trial_12.png,,,,,60ec1dd7eaa54649ce2bdd3f,12:48:21,26/02/2024
html-keyboard-response,213,422263,0.0-88.0-2.0,,,,delaylearn,learning,feedback_duration_window,BkowKjhmYtZaofs2Xg8KqIMXL2L2,BkowKjhmYtZaofs2Xg8KqIMXL2L2,,,,,,,,,,,,,,,,,7000.0,,,,60ec1dd7eaa54649ce2bdd3f,12:48:21,26/02/2024
html-keyboard-response,214,423773,0.0-88.0-3.0,,<div style='margin:auto;width: auto; font-size: 150%'><span style='font-weight: bold; font-size: 100px; color: green;'>+10 points!</span><br><br></div>,,delaylearn,learning,feedback_image_window,BkowKjhmYtZaofs2Xg8KqIMXL2L2,BkowKjhmYtZaofs2Xg8KqIMXL2L2,,,,,,,,,,,,,,,,,,,,,60ec1dd7eaa54649ce2bdd3f,12:48:21,26/02/2024
html-keyboard-response,215,426007,0.0-89.0,,"<div style=""font-size:100px;"">+</div>",,delaylearn,learning,ITI,BkowKjhmYtZaofs2Xg8KqIMXL2L2,BkowKjhmYtZaofs2Xg8KqIMXL2L2,,,,,,,,,,,,,,,,,,2225.0,,,60ec1dd7eaa54649ce2bdd3f,12:48:21,26/02/2024
html-keyboard-response,216,426693,0.0-90.0-0.0,683.3000000119209,"<div style=""display: flex; flex-direction: column; align-items: center; margin-top: -40px;""><img src=""images/pattern_7.png"" style=""width: 234px; height: 230px; margin-top: -50px;""><div style=""display: flex; justify-content: space-between; margin-top: 33px;""><img src=""images/choice_trial_12.png"" style=""width: 408px; height: 417px; margin-right: 200px;""><img src=""images/choice_trial_6.png"" style=""width: 408px; height: 417px;""></div></div>",f,delaylearn,learning,trial,BkowKjhmYtZaofs2Xg8KqIMXL2L2,BkowKjhmYtZaofs2Xg8KqIMXL2L2,3.0,images/choice_trial_12.png,images/choice_trial_6.png,images/pattern_7.png,j,j,750.0,12.0,6.0,6.0,39.0,0.0,0.0,12.0,210.0,,,,,,60ec1dd7eaa54649ce2bdd3f,12:48:21,26/02/2024
html-keyboard-response,217,427704,0.0-90.0-1.0,,"<div style=""display: flex; flex-direction: column; align-items: center; margin-top: -40px;""><img src=""images/pattern_7.png"" style=""width: 234px; height: 230px; margin-top: -50px;""><div style=""display: flex; justify-content: space-between; margin-top: 33px;""><img src=""images/choice_trial_12.png"" style=""width: 408px; height: 417px; margin-right: 608px;""></div></div>",,delaylearn,learning,display_response,BkowKjhmYtZaofs2Xg8KqIMXL2L2,BkowKjhmYtZaofs2Xg8KqIMXL2L2,,,,,,,,,,,,,,,,chosen stimuli: images/choice_trial_12.png,,,,,60ec1dd7eaa54649ce2bdd3f,12:48:21,26/02/2024
html-keyboard-response,218,428456,0.0-90.0-2.0,,,,delaylearn,learning,feedback_duration_window,BkowKjhmYtZaofs2Xg8KqIMXL2L2,BkowKjhmYtZaofs2Xg8KqIMXL2L2,,,,,,,,,,,,,,,,,750.0,,,,60ec1dd7eaa54649ce2bdd3f,12:48:21,26/02/2024
html-keyboard-response,219,429968,0.0-90.0-3.0,,<div style='margin:auto;width: auto; font-size: 150%'><span style='font-weight: bold; font-size: 100px; color: red;'>0 points!</span><br><br></div>,,delaylearn,learning,feedback_image_window,BkowKjhmYtZaofs2Xg8KqIMXL2L2,BkowKjhmYtZaofs2Xg8KqIMXL2L2,,,,,,,,,,,,,,,,,,,,,60ec1dd7eaa54649ce2bdd3f,12:48:21,26/02/2024
html-keyboard-response,220,431577,0.0-91.0,,"<div style=""font-size:100px;"">+</div>",,delaylearn,learning,ITI,BkowKjhmYtZaofs2Xg8KqIMXL2L2,BkowKjhmYtZaofs2Xg8KqIMXL2L2,,,,,,,,,,,,,,,,,,1607.0,,,60ec1dd7eaa54649ce2bdd3f,12:48:21,26/02/2024
html-keyboard-response,221,432800,0.0-92.0-0.0,1219.9000000059605,"<div style=""display: flex; flex-direction: column; align-items: center; margin-top: -40px;""><img src=""images/pattern_5.png"" style=""width: 234px; height: 230px; margin-top: -50px;""><div style=""display: flex; justify-content: space-between; margin-top: 33px;""><img src=""images/choice_trial_12.png"" style=""width: 408px; height: 417px; margin-right: 200px;""><img src=""images/choice_trial_6.png"" style=""width: 408px; height: 417px;""></div></div>",j,delaylearn,learning,trial,BkowKjhmYtZaofs2Xg8KqIMXL2L2,BkowKjhmYtZaofs2Xg8KqIMXL2L2,3.0,images/choice_trial_12.png,images/choice_trial_6.png,images/pattern_5.png,j,j,750.0,12.0,6.0,4.0,40.0,1.0,1.0,6.0,220.0,,,,,,60ec1dd7eaa54649ce2bdd3f,12:48:21,26/02/2024
html-keyboard-response,222,433804,0.0-92.0-1.0,,"<div style=""display: flex; flex-direction: column; align-items: center; margin-top: -40px;""><img src=""images/pattern_5.png"" style=""width: 234px; height: 230px; margin-top: -50px;""><div style=""display: flex; justify-content: space-between; margin-top: 33px;""><img src=""images/choice_trial_6.png"" style=""width: 408px; height: 417px; margin-left:608px;""></div></div>",,delaylearn,learning,display_response,BkowKjhmYtZaofs2Xg8KqIMXL2L2,BkowKjhmYtZaofs2Xg8KqIMXL2L2,,,,,,,,,,,,,,,,chosen stimuli: images/choice_trial_6.png,,,,,60ec1dd7eaa54649ce2bdd3f,12:48:21,26/02/2024
html-keyboard-response,223,434568,0.0-92.0-2.0,,,,delaylearn,learning,feedback_duration_window,BkowKjhmYtZaofs2Xg8KqIMXL2L2,BkowKjhmYtZaofs2Xg8KqIMXL2L2,,,,,,,,,,,,,,,,,750.0,,,,60ec1dd7eaa54649ce2bdd3f,12:48:21,26/02/2024
html-keyboard-response,224,436078,0.0-92.0-3.0,,<div style='margin:auto;width: auto; font-size: 150%'><span style='font-weight: bold; font-size: 100px; color: green;'>+10 points!</span><br><br></div>,,delaylearn,learning,feedback_image_window,BkowKjhmYtZaofs2Xg8KqIMXL2L2,BkowKjhmYtZaofs2Xg8KqIMXL2L2,,,,,,,,,,,,,,,,,,,,,60ec1dd7eaa54649ce2bdd3f,12:48:21,26/02/2024
html-keyboard-response,225,436594,0.0-93.0-0.0,,,,,,mood_trial_fixation,BkowKjhmYtZaofs2Xg8KqIMXL2L2,,,,,,,,,,,,,,,,,,,,,,60ec1dd7eaa54649ce2bdd3f,12:48:21,26/02/2024
lmdlab-html-vas-response,226,440467,0.0-93.0-1.0,2856.0,How happy are you right now?,0.46800767795473236,delaylearn,learning,mood_trial,BkowKjhmYtZaofs2Xg8KqIMXL2L2,BkowKjhmYtZaofs2Xg8KqIMXL2L2,,,,,,,,,,,,,,,,,,,"['Very unhappy', 'Very happy']",,60ec1dd7eaa54649ce2bdd3f,12:48:21,26/02/2024
html-keyboard-response,227,442671,0.0-94.0,,"<div style=""font-size:100px;"">+</div>",,delaylearn,learning,ITI,BkowKjhmYtZaofs2Xg8KqIMXL2L2,BkowKjhmYtZaofs2Xg8KqIMXL2L2,,,,,,,,,,,,,,,,,,2191.0,,,60ec1dd7eaa54649ce2bdd3f,12:48:21,26/02/2024
html-keyboard-response,228,443465,0.0-95.0-0.0,790.6999999880791,"<div style=""display: flex; flex-direction: column; align-items: center; margin-top: -40px;""><img src=""images/pattern_4.png"" style=""width: 234px; height: 230px; margin-top: -50px;""><div style=""display: flex; justify-content: space-between; margin-top: 33px;""><img src=""images/choice_trial_6.png"" style=""width: 408px; height: 417px; margin-right: 200px;""><img src=""images/choice_trial_12.png"" style=""width: 408px; height: 417px;""></div></div>",j,delaylearn,learning,trial,BkowKjhmYtZaofs2Xg8KqIMXL2L2,BkowKjhmYtZaofs2Xg8KqIMXL2L2,3.0,images/choice_trial_6.png,images/choice_trial_12.png,images/pattern_4.png,f,f,7000.0,6.0,12.0,3.0,41.0,0.0,0.0,12.0,220.0,,,,,,60ec1dd7eaa54649ce2bdd3f,12:48:21,26/02/2024
html-keyboard-response,229,444481,0.0-95.0-1.0,,"<div style=""display: flex; flex-direction: column; align-items: center; margin-top: -40px;""><img src=""images/pattern_4.png"" style=""width: 234px; height: 230px; margin-top: -50px;""><div style=""display: flex; justify-content: space-between; margin-top: 33px;""><img src=""images/choice_trial_12.png"" style=""width: 408px; height: 417px; margin-left:608px;""></div></div>",,delaylearn,learning,display_response,BkowKjhmYtZaofs2Xg8KqIMXL2L2,BkowKjhmYtZaofs2Xg8KqIMXL2L2,,,,,,,,,,,,,,,,chosen stimuli: images/choice_trial_12.png,,,,,60ec1dd7eaa54649ce2bdd3f,12:48:21,26/02/2024
html-keyboard-response,230,451485,0.0-95.0-2.0,,,,delaylearn,learning,feedback_duration_window,BkowKjhmYtZaofs2Xg8KqIMXL2L2,BkowKjhmYtZaofs2Xg8KqIMXL2L2,,,,,,,,,,,,,,,,,7000.0,,,,60ec1dd7eaa54649ce2bdd3f,12:48:21,26/02/2024
html-keyboard-response,231,453014,0.0-95.0-3.0,,<div style='margin:auto;width: auto; font-size: 150%'><span style='font-weight: bold; font-size: 100px; color: red;'>0 points!</span><br><br></div>,,delaylearn,learning,feedback_image_window,BkowKjhmYtZaofs2Xg8KqIMXL2L2,BkowKjhmYtZaofs2Xg8KqIMXL2L2,,,,,,,,,,,,,,,,,,,,,60ec1dd7eaa54649ce2bdd3f,12:48:21,26/02/2024
html-keyboard-response,232,455400,0.0-96.0,,"<div style=""font-size:100px;"">+</div>",,delaylearn,learning,ITI,BkowKjhmYtZaofs2Xg8KqIMXL2L2,BkowKjhmYtZaofs2Xg8KqIMXL2L2,,,,,,,,,,,,,,,,,,2371.0,,,60ec1dd7eaa54649ce2bdd3f,12:48:21,26/02/2024
