trial_type,trial_index,time_elapsed,internal_node_id,rt,stimulus,response,exp_name,exp_stage,test_part,subjectID,databaseID,counterbal,choice_stimuli_1,choice_stimuli_2,pattern_stimuli,rewarded_answer,correct_answer,feedback_duration_times,stim_left,stim_right,pair,leftright_counter,trial,response_correct,response_rewarded,chosen_stim,counter,displayed_choice,feedback_durations,ITI_duration,labels,prolificID,start_time,date
pavlovia,0,454,0.0-0.0,,,,,,,QFY2a2HEiXSx7SpeuKz3BQeuWh73,,,,,,,,,,,,,,,,,,,,,,5711089f52ab8e0011d08d03,16:45:40,27/03/2024
html-keyboard-response,1,3474,0.0-1.0,,"<div style=""font-size:100px;"">+</div>",,delaylearn,learning,pre_fixation,QFY2a2HEiXSx7SpeuKz3BQeuWh73,,,,,,,,,,,,,,,,,,,,,,5711089f52ab8e0011d08d03,16:45:40,27/03/2024
html-keyboard-response,2,5135,0.0-2.0-0.0,1611.0,"<div style=""display: flex; flex-direction: column; align-items: center; margin-top: -40px;""><img src=""images/demo_images/pattern_1.png"" style=""width: 234px; height: 230px; margin-top: -50px;""><div style=""display: flex; justify-content: space-between; margin-top: 33px;""><img src=""images/demo_images/choice_trial_2.png"" style=""width: 408px; height: 417px; margin-right: 200px;""><img src=""images/demo_images/choice_trial_1.png"" style=""width: 408px; height: 417px;""></div></div>",f,delaylearn,learning,trial,QFY2a2HEiXSx7SpeuKz3BQeuWh73,QFY2a2HEiXSx7SpeuKz3BQeuWh73,2.0,images/demo_images/choice_trial_2.png,images/demo_images/choice_trial_1.png,images/demo_images/pattern_1.png,j,j,3000.0,2.0,1.0,20.0,1.0,1.0,0.0,0.0,2.0,0.0,,,,,5711089f52ab8e0011d08d03,16:45:40,27/03/2024
html-keyboard-response,3,6166,0.0-2.0-1.0,,"<div style=""display: flex; flex-direction: column; align-items: center; margin-top: -40px;""><img src=""images/demo_images/pattern_1.png"" style=""width: 234px; height: 230px; margin-top: -50px;""><div style=""display: flex; justify-content: space-between; margin-top: 33px;""><img src=""images/demo_images/choice_trial_2.png"" style=""width: 408px; height: 417px; margin-right: 608px;""></div></div>",,delaylearn,learning,display_response,QFY2a2HEiXSx7SpeuKz3BQeuWh73,QFY2a2HEiXSx7SpeuKz3BQeuWh73,,,,,,,,,,,,,,,,,chosen stimuli: images/demo_images/choice_trial_2.png,,,,5711089f52ab8e0011d08d03,16:45:40,27/03/2024
html-keyboard-response,4,9224,0.0-2.0-2.0,,,,delaylearn,learning,feedback_duration_window,QFY2a2HEiXSx7SpeuKz3BQeuWh73,QFY2a2HEiXSx7SpeuKz3BQeuWh73,,,,,,,,,,,,,,,,,,3000.0,,,5711089f52ab8e0011d08d03,16:45:40,27/03/2024
html-keyboard-response,5,10730,0.0-2.0-3.0,,<div style='margin:auto;width: auto; font-size: 150%'><span style='font-weight: bold; font-size: 100px; color: red;'>0 points!</span><br><br></div>,,delaylearn,learning,feedback_image_window,QFY2a2HEiXSx7SpeuKz3BQeuWh73,QFY2a2HEiXSx7SpeuKz3BQeuWh73,,,,,,,,,,,,,,,,,,,,,5711089f52ab8e0011d08d03,16:45:40,27/03/2024
html-keyboard-response,6,12432,0.0-3.0,,"<div style=""font-size:100px;"">+</div>",,delaylearn,learning,ITI,QFY2a2HEiXSx7SpeuKz3BQeuWh73,QFY2a2HEiXSx7SpeuKz3BQeuWh73,,,,,,,,,,,,,,,,,,,1690.0,,5711089f52ab8e0011d08d03,16:45:40,27/03/2024
html-keyboard-response,7,13285,0.0-4.0-0.0,852.0,"<div style=""display: flex; flex-direction: column; align-items: center; margin-top: -40px;""><img src=""images/demo_images/pattern_1.png"" style=""width: 234px; height: 230px; margin-top: -50px;""><div style=""display: flex; justify-content: space-between; margin-top: 33px;""><img src=""images/demo_images/choice_trial_2.png"" style=""width: 408px; height: 417px; margin-right: 200px;""><img src=""images/demo_images/choice_trial_1.png"" style=""width: 408px; height: 417px;""></div></div>",j,delaylearn,learning,trial,QFY2a2HEiXSx7SpeuKz3BQeuWh73,QFY2a2HEiXSx7SpeuKz3BQeuWh73,2.0,images/demo_images/choice_trial_2.png,images/demo_images/choice_trial_1.png,images/demo_images/pattern_1.png,j,j,3000.0,2.0,1.0,20.0,1.0,2.0,1.0,1.0,1.0,10.0,,,,,5711089f52ab8e0011d08d03,16:45:40,27/03/2024
html-keyboard-response,8,14291,0.0-4.0-1.0,,"<div style=""display: flex; flex-direction: column; align-items: center; margin-top: -40px;""><img src=""images/demo_images/pattern_1.png"" style=""width: 234px; height: 230px; margin-top: -50px;""><div style=""display: flex; justify-content: space-between; margin-top: 33px;""><img src=""images/demo_images/choice_trial_1.png"" style=""width: 408px; height: 417px; margin-left:608px;""></div></div>",,delaylearn,learning,display_response,QFY2a2HEiXSx7SpeuKz3BQeuWh73,QFY2a2HEiXSx7SpeuKz3BQeuWh73,,,,,,,,,,,,,,,,,chosen stimuli: images/demo_images/choice_trial_1.png,,,,5711089f52ab8e0011d08d03,16:45:40,27/03/2024
html-keyboard-response,9,17298,0.0-4.0-2.0,,,,delaylearn,learning,feedback_duration_window,QFY2a2HEiXSx7SpeuKz3BQeuWh73,QFY2a2HEiXSx7SpeuKz3BQeuWh73,,,,,,,,,,,,,,,,,,3000.0,,,5711089f52ab8e0011d08d03,16:45:40,27/03/2024
html-keyboard-response,10,18804,0.0-4.0-3.0,,<div style='margin:auto;width: auto; font-size: 150%'><span style='font-weight: bold; font-size: 100px; color: green;'>+10 points!</span><br><br></div>,,delaylearn,learning,feedback_image_window,QFY2a2HEiXSx7SpeuKz3BQeuWh73,QFY2a2HEiXSx7SpeuKz3BQeuWh73,,,,,,,,,,,,,,,,,,,,,5711089f52ab8e0011d08d03,16:45:40,27/03/2024
html-keyboard-response,11,20768,0.0-5.0,,"<div style=""font-size:100px;"">+</div>",,delaylearn,learning,ITI,QFY2a2HEiXSx7SpeuKz3BQeuWh73,QFY2a2HEiXSx7SpeuKz3BQeuWh73,,,,,,,,,,,,,,,,,,,1948.0,,5711089f52ab8e0011d08d03,16:45:40,27/03/2024
html-keyboard-response,12,21689,0.0-6.0-0.0,918.0,"<div style=""display: flex; flex-direction: column; align-items: center; margin-top: -40px;""><img src=""images/demo_images/pattern_1.png"" style=""width: 234px; height: 230px; margin-top: -50px;""><div style=""display: flex; justify-content: space-between; margin-top: 33px;""><img src=""images/demo_images/choice_trial_1.png"" style=""width: 408px; height: 417px; margin-right: 200px;""><img src=""images/demo_images/choice_trial_2.png"" style=""width: 408px; height: 417px;""></div></div>",f,delaylearn,learning,trial,QFY2a2HEiXSx7SpeuKz3BQeuWh73,QFY2a2HEiXSx7SpeuKz3BQeuWh73,2.0,images/demo_images/choice_trial_1.png,images/demo_images/choice_trial_2.png,images/demo_images/pattern_1.png,j,f,3000.0,1.0,2.0,20.0,0.0,3.0,1.0,0.0,1.0,10.0,,,,,5711089f52ab8e0011d08d03,16:45:40,27/03/2024
html-keyboard-response,13,22692,0.0-6.0-1.0,,"<div style=""display: flex; flex-direction: column; align-items: center; margin-top: -40px;""><img src=""images/demo_images/pattern_1.png"" style=""width: 234px; height: 230px; margin-top: -50px;""><div style=""display: flex; justify-content: space-between; margin-top: 33px;""><img src=""images/demo_images/choice_trial_1.png"" style=""width: 408px; height: 417px; margin-right: 608px;""></div></div>",,delaylearn,learning,display_response,QFY2a2HEiXSx7SpeuKz3BQeuWh73,QFY2a2HEiXSx7SpeuKz3BQeuWh73,,,,,,,,,,,,,,,,,chosen stimuli: images/demo_images/choice_trial_1.png,,,,5711089f52ab8e0011d08d03,16:45:40,27/03/2024
html-keyboard-response,14,25705,0.0-6.0-2.0,,,,delaylearn,learning,feedback_duration_window,QFY2a2HEiXSx7SpeuKz3BQeuWh73,QFY2a2HEiXSx7SpeuKz3BQeuWh73,,,,,,,,,,,,,,,,,,3000.0,,,5711089f52ab8e0011d08d03,16:45:40,27/03/2024
html-keyboard-response,15,27215,0.0-6.0-3.0,,<div style='margin:auto;width: auto; font-size: 150%'><span style='font-weight: bold; font-size: 100px; color: red;'>0 points!</span><br><br></div>,,delaylearn,learning,feedback_image_window,QFY2a2HEiXSx7SpeuKz3BQeuWh73,QFY2a2HEiXSx7SpeuKz3BQeuWh73,,,,,,,,,,,,,,,,,,,,,5711089f52ab8e0011d08d03,16:45:40,27/03/2024
html-keyboard-response,16,29315,0.0-7.0,,"<div style=""font-size:100px;"">+</div>",,delaylearn,learning,ITI,QFY2a2HEiXSx7SpeuKz3BQeuWh73,QFY2a2HEiXSx7SpeuKz3BQeuWh73,,,,,,,,,,,,,,,,,,,2098.0,,5711089f52ab8e0011d08d03,16:45:40,27/03/2024
html-keyboard-response,17,30489,0.0-8.0-0.0,1172.0,"<div style=""display: flex; flex-direction: column; align-items: center; margin-top: -40px;""><img src=""images/demo_images/pattern_1.png"" style=""width: 234px; height: 230px; margin-top: -50px;""><div style=""display: flex; justify-content: space-between; margin-top: 33px;""><img src=""images/demo_images/choice_trial_1.png"" style=""width: 408px; height: 417px; margin-right: 200px;""><img src=""images/demo_images/choice_trial_2.png"" style=""width: 408px; height: 417px;""></div></div>",j,delaylearn,learning,trial,QFY2a2HEiXSx7SpeuKz3BQeuWh73,QFY2a2HEiXSx7SpeuKz3BQeuWh73,2.0,images/demo_images/choice_trial_1.png,images/demo_images/choice_trial_2.png,images/demo_images/pattern_1.png,f,f,3000.0,1.0,2.0,20.0,0.0,4.0,0.0,0.0,2.0,10.0,,,,,5711089f52ab8e0011d08d03,16:45:40,27/03/2024
html-keyboard-response,18,31497,0.0-8.0-1.0,,"<div style=""display: flex; flex-direction: column; align-items: center; margin-top: -40px;""><img src=""images/demo_images/pattern_1.png"" style=""width: 234px; height: 230px; margin-top: -50px;""><div style=""display: flex; justify-content: space-between; margin-top: 33px;""><img src=""images/demo_images/choice_trial_2.png"" style=""width: 408px; height: 417px; margin-left:608px;""></div></div>",,delaylearn,learning,display_response,QFY2a2HEiXSx7SpeuKz3BQeuWh73,QFY2a2HEiXSx7SpeuKz3BQeuWh73,,,,,,,,,,,,,,,,,chosen stimuli: images/demo_images/choice_trial_2.png,,,,5711089f52ab8e0011d08d03,16:45:40,27/03/2024
html-keyboard-response,19,34513,0.0-8.0-2.0,,,,delaylearn,learning,feedback_duration_window,QFY2a2HEiXSx7SpeuKz3BQeuWh73,QFY2a2HEiXSx7SpeuKz3BQeuWh73,,,,,,,,,,,,,,,,,,3000.0,,,5711089f52ab8e0011d08d03,16:45:40,27/03/2024
html-keyboard-response,20,36028,0.0-8.0-3.0,,<div style='margin:auto;width: auto; font-size: 150%'><span style='font-weight: bold; font-size: 100px; color: red;'>0 points!</span><br><br></div>,,delaylearn,learning,feedback_image_window,QFY2a2HEiXSx7SpeuKz3BQeuWh73,QFY2a2HEiXSx7SpeuKz3BQeuWh73,,,,,,,,,,,,,,,,,,,,,5711089f52ab8e0011d08d03,16:45:40,27/03/2024
html-keyboard-response,21,36545,0.0-9.0-0.0,,,,,,mood_trial_fixation,QFY2a2HEiXSx7SpeuKz3BQeuWh73,,,,,,,,,,,,,,,,,,,,,,5711089f52ab8e0011d08d03,16:45:40,27/03/2024
lmdlab-html-vas-response,22,40671,0.0-9.0-1.0,3118.0,How happy are you right now?,0.32642103942018486,delaylearn,learning,mood_trial,QFY2a2HEiXSx7SpeuKz3BQeuWh73,QFY2a2HEiXSx7SpeuKz3BQeuWh73,,,,,,,,,,,,,,,,,,,,"['Very unhappy', 'Very happy']",5711089f52ab8e0011d08d03,16:45:40,27/03/2024
html-keyboard-response,23,42308,0.0-10.0,,"<div style=""font-size:100px;"">+</div>",,delaylearn,learning,ITI,QFY2a2HEiXSx7SpeuKz3BQeuWh73,QFY2a2HEiXSx7SpeuKz3BQeuWh73,,,,,,,,,,,,,,,,,,,1636.0,,5711089f52ab8e0011d08d03,16:45:40,27/03/2024
html-keyboard-response,24,43234,0.0-11.0-0.0,923.0,"<div style=""display: flex; flex-direction: column; align-items: center; margin-top: -40px;""><img src=""images/demo_images/pattern_1.png"" style=""width: 234px; height: 230px; margin-top: -50px;""><div style=""display: flex; justify-content: space-between; margin-top: 33px;""><img src=""images/demo_images/choice_trial_2.png"" style=""width: 408px; height: 417px; margin-right: 200px;""><img src=""images/demo_images/choice_trial_1.png"" style=""width: 408px; height: 417px;""></div></div>",f,delaylearn,learning,trial,QFY2a2HEiXSx7SpeuKz3BQeuWh73,QFY2a2HEiXSx7SpeuKz3BQeuWh73,2.0,images/demo_images/choice_trial_2.png,images/demo_images/choice_trial_1.png,images/demo_images/pattern_1.png,j,j,3000.0,2.0,1.0,20.0,1.0,5.0,0.0,0.0,2.0,10.0,,,,,5711089f52ab8e0011d08d03,16:45:40,27/03/2024
html-keyboard-response,25,44243,0.0-11.0-1.0,,"<div style=""display: flex; flex-direction: column; align-items: center; margin-top: -40px;""><img src=""images/demo_images/pattern_1.png"" style=""width: 234px; height: 230px; margin-top: -50px;""><div style=""display: flex; justify-content: space-between; margin-top: 33px;""><img src=""images/demo_images/choice_trial_2.png"" style=""width: 408px; height: 417px; margin-right: 608px;""></div></div>",,delaylearn,learning,display_response,QFY2a2HEiXSx7SpeuKz3BQeuWh73,QFY2a2HEiXSx7SpeuKz3BQeuWh73,,,,,,,,,,,,,,,,,chosen stimuli: images/demo_images/choice_trial_2.png,,,,5711089f52ab8e0011d08d03,16:45:40,27/03/2024
html-keyboard-response,26,47257,0.0-11.0-2.0,,,,delaylearn,learning,feedback_duration_window,QFY2a2HEiXSx7SpeuKz3BQeuWh73,QFY2a2HEiXSx7SpeuKz3BQeuWh73,,,,,,,,,,,,,,,,,,3000.0,,,5711089f52ab8e0011d08d03,16:45:40,27/03/2024
html-keyboard-response,27,48759,0.0-11.0-3.0,,<div style='margin:auto;width: auto; font-size: 150%'><span style='font-weight: bold; font-size: 100px; color: red;'>0 points!</span><br><br></div>,,delaylearn,learning,feedback_image_window,QFY2a2HEiXSx7SpeuKz3BQeuWh73,QFY2a2HEiXSx7SpeuKz3BQeuWh73,,,,,,,,,,,,,,,,,,,,,5711089f52ab8e0011d08d03,16:45:40,27/03/2024
html-keyboard-response,28,50648,0.0-12.0,,"<div style=""font-size:100px;"">+</div>",,delaylearn,learning,ITI,QFY2a2HEiXSx7SpeuKz3BQeuWh73,QFY2a2HEiXSx7SpeuKz3BQeuWh73,,,,,,,,,,,,,,,,,,,1885.0,,5711089f52ab8e0011d08d03,16:45:40,27/03/2024
html-keyboard-response,29,51360,0.0-13.0-0.0,711.0,"<div style=""display: flex; flex-direction: column; align-items: center; margin-top: -40px;""><img src=""images/demo_images/pattern_1.png"" style=""width: 234px; height: 230px; margin-top: -50px;""><div style=""display: flex; justify-content: space-between; margin-top: 33px;""><img src=""images/demo_images/choice_trial_1.png"" style=""width: 408px; height: 417px; margin-right: 200px;""><img src=""images/demo_images/choice_trial_2.png"" style=""width: 408px; height: 417px;""></div></div>",j,delaylearn,learning,trial,QFY2a2HEiXSx7SpeuKz3BQeuWh73,QFY2a2HEiXSx7SpeuKz3BQeuWh73,2.0,images/demo_images/choice_trial_1.png,images/demo_images/choice_trial_2.png,images/demo_images/pattern_1.png,f,f,3000.0,1.0,2.0,20.0,0.0,6.0,0.0,0.0,2.0,10.0,,,,,5711089f52ab8e0011d08d03,16:45:40,27/03/2024
html-keyboard-response,30,52368,0.0-13.0-1.0,,"<div style=""display: flex; flex-direction: column; align-items: center; margin-top: -40px;""><img src=""images/demo_images/pattern_1.png"" style=""width: 234px; height: 230px; margin-top: -50px;""><div style=""display: flex; justify-content: space-between; margin-top: 33px;""><img src=""images/demo_images/choice_trial_2.png"" style=""width: 408px; height: 417px; margin-left:608px;""></div></div>",,delaylearn,learning,display_response,QFY2a2HEiXSx7SpeuKz3BQeuWh73,QFY2a2HEiXSx7SpeuKz3BQeuWh73,,,,,,,,,,,,,,,,,chosen stimuli: images/demo_images/choice_trial_2.png,,,,5711089f52ab8e0011d08d03,16:45:40,27/03/2024
html-keyboard-response,31,55386,0.0-13.0-2.0,,,,delaylearn,learning,feedback_duration_window,QFY2a2HEiXSx7SpeuKz3BQeuWh73,QFY2a2HEiXSx7SpeuKz3BQeuWh73,,,,,,,,,,,,,,,,,,3000.0,,,5711089f52ab8e0011d08d03,16:45:40,27/03/2024
html-keyboard-response,32,56901,0.0-13.0-3.0,,<div style='margin:auto;width: auto; font-size: 150%'><span style='font-weight: bold; font-size: 100px; color: red;'>0 points!</span><br><br></div>,,delaylearn,learning,feedback_image_window,QFY2a2HEiXSx7SpeuKz3BQeuWh73,QFY2a2HEiXSx7SpeuKz3BQeuWh73,,,,,,,,,,,,,,,,,,,,,5711089f52ab8e0011d08d03,16:45:40,27/03/2024
html-keyboard-response,33,59387,0.0-14.0,,"<div style=""font-size:100px;"">+</div>",,delaylearn,learning,ITI,QFY2a2HEiXSx7SpeuKz3BQeuWh73,QFY2a2HEiXSx7SpeuKz3BQeuWh73,,,,,,,,,,,,,,,,,,,2473.0,,5711089f52ab8e0011d08d03,16:45:40,27/03/2024
html-keyboard-response,34,60262,0.0-15.0-0.0,871.0,"<div style=""display: flex; flex-direction: column; align-items: center; margin-top: -40px;""><img src=""images/demo_images/pattern_1.png"" style=""width: 234px; height: 230px; margin-top: -50px;""><div style=""display: flex; justify-content: space-between; margin-top: 33px;""><img src=""images/demo_images/choice_trial_2.png"" style=""width: 408px; height: 417px; margin-right: 200px;""><img src=""images/demo_images/choice_trial_1.png"" style=""width: 408px; height: 417px;""></div></div>",f,delaylearn,learning,trial,QFY2a2HEiXSx7SpeuKz3BQeuWh73,QFY2a2HEiXSx7SpeuKz3BQeuWh73,2.0,images/demo_images/choice_trial_2.png,images/demo_images/choice_trial_1.png,images/demo_images/pattern_1.png,j,j,3000.0,2.0,1.0,20.0,1.0,7.0,0.0,0.0,2.0,10.0,,,,,5711089f52ab8e0011d08d03,16:45:40,27/03/2024
html-keyboard-response,35,61267,0.0-15.0-1.0,,"<div style=""display: flex; flex-direction: column; align-items: center; margin-top: -40px;""><img src=""images/demo_images/pattern_1.png"" style=""width: 234px; height: 230px; margin-top: -50px;""><div style=""display: flex; justify-content: space-between; margin-top: 33px;""><img src=""images/demo_images/choice_trial_2.png"" style=""width: 408px; height: 417px; margin-right: 608px;""></div></div>",,delaylearn,learning,display_response,QFY2a2HEiXSx7SpeuKz3BQeuWh73,QFY2a2HEiXSx7SpeuKz3BQeuWh73,,,,,,,,,,,,,,,,,chosen stimuli: images/demo_images/choice_trial_2.png,,,,5711089f52ab8e0011d08d03,16:45:40,27/03/2024
html-keyboard-response,36,64281,0.0-15.0-2.0,,,,delaylearn,learning,feedback_duration_window,QFY2a2HEiXSx7SpeuKz3BQeuWh73,QFY2a2HEiXSx7SpeuKz3BQeuWh73,,,,,,,,,,,,,,,,,,3000.0,,,5711089f52ab8e0011d08d03,16:45:40,27/03/2024
html-keyboard-response,37,65794,0.0-15.0-3.0,,<div style='margin:auto;width: auto; font-size: 150%'><span style='font-weight: bold; font-size: 100px; color: red;'>0 points!</span><br><br></div>,,delaylearn,learning,feedback_image_window,QFY2a2HEiXSx7SpeuKz3BQeuWh73,QFY2a2HEiXSx7SpeuKz3BQeuWh73,,,,,,,,,,,,,,,,,,,,,5711089f52ab8e0011d08d03,16:45:40,27/03/2024
html-keyboard-response,38,68188,0.0-16.0,,"<div style=""font-size:100px;"">+</div>",,delaylearn,learning,ITI,QFY2a2HEiXSx7SpeuKz3BQeuWh73,QFY2a2HEiXSx7SpeuKz3BQeuWh73,,,,,,,,,,,,,,,,,,,2384.0,,5711089f52ab8e0011d08d03,16:45:40,27/03/2024
html-keyboard-response,39,68579,0.0-17.0-0.0,389.0,"<div style=""display: flex; flex-direction: column; align-items: center; margin-top: -40px;""><img src=""images/demo_images/pattern_1.png"" style=""width: 234px; height: 230px; margin-top: -50px;""><div style=""display: flex; justify-content: space-between; margin-top: 33px;""><img src=""images/demo_images/choice_trial_1.png"" style=""width: 408px; height: 417px; margin-right: 200px;""><img src=""images/demo_images/choice_trial_2.png"" style=""width: 408px; height: 417px;""></div></div>",f,delaylearn,learning,trial,QFY2a2HEiXSx7SpeuKz3BQeuWh73,QFY2a2HEiXSx7SpeuKz3BQeuWh73,2.0,images/demo_images/choice_trial_1.png,images/demo_images/choice_trial_2.png,images/demo_images/pattern_1.png,f,f,3000.0,1.0,2.0,20.0,0.0,8.0,1.0,1.0,1.0,20.0,,,,,5711089f52ab8e0011d08d03,16:45:40,27/03/2024
html-keyboard-response,40,69593,0.0-17.0-1.0,,"<div style=""display: flex; flex-direction: column; align-items: center; margin-top: -40px;""><img src=""images/demo_images/pattern_1.png"" style=""width: 234px; height: 230px; margin-top: -50px;""><div style=""display: flex; justify-content: space-between; margin-top: 33px;""><img src=""images/demo_images/choice_trial_1.png"" style=""width: 408px; height: 417px; margin-right: 608px;""></div></div>",,delaylearn,learning,display_response,QFY2a2HEiXSx7SpeuKz3BQeuWh73,QFY2a2HEiXSx7SpeuKz3BQeuWh73,,,,,,,,,,,,,,,,,chosen stimuli: images/demo_images/choice_trial_1.png,,,,5711089f52ab8e0011d08d03,16:45:40,27/03/2024
html-keyboard-response,41,72596,0.0-17.0-2.0,,,,delaylearn,learning,feedback_duration_window,QFY2a2HEiXSx7SpeuKz3BQeuWh73,QFY2a2HEiXSx7SpeuKz3BQeuWh73,,,,,,,,,,,,,,,,,,3000.0,,,5711089f52ab8e0011d08d03,16:45:40,27/03/2024
html-keyboard-response,42,74111,0.0-17.0-3.0,,<div style='margin:auto;width: auto; font-size: 150%'><span style='font-weight: bold; font-size: 100px; color: green;'>+10 points!</span><br><br></div>,,delaylearn,learning,feedback_image_window,QFY2a2HEiXSx7SpeuKz3BQeuWh73,QFY2a2HEiXSx7SpeuKz3BQeuWh73,,,,,,,,,,,,,,,,,,,,,5711089f52ab8e0011d08d03,16:45:40,27/03/2024
html-button-response,43,146408,0.0-18.0,72292.0,"
  <div style=""display: flex; align-items: center; justify-content: center; height: 80vh;"">
  <div>
          <img src=""images/inst_demo_finish.png"" style=""width: 80vw; height:auto;"">
          <br><br>
      </div>
      <br><br>
  </div>",0,,,,QFY2a2HEiXSx7SpeuKz3BQeuWh73,,,,,,,,,,,,,,,,,,,,,,5711089f52ab8e0011d08d03,16:45:40,27/03/2024
html-keyboard-response,44,150588,0.0-19.0,4178.0,"
  <div style=""display: flex; align-items: center; justify-content: center; height: 80vh;"">
  <div>
          <img src=""images/inst_6.png"" style=""width: 80vw; height:auto;"">
          <br><br>
      </div>
      <br><br>
  </div>",f,,,,QFY2a2HEiXSx7SpeuKz3BQeuWh73,,,,,,,,,,,,,,,,,,,,,,5711089f52ab8e0011d08d03,16:45:40,27/03/2024
html-keyboard-response,45,153602,0.0-20.0,,"<div style=""font-size:100px;"">+</div>",,delaylearn,learning,pre_fixation,QFY2a2HEiXSx7SpeuKz3BQeuWh73,,,,,,,,,,,,,,,,,,,,,,5711089f52ab8e0011d08d03,16:45:40,27/03/2024
html-keyboard-response,46,155720,0.0-21.0,,"<div style=""font-size:100px;"">+</div>",,delaylearn,learning,ITI,QFY2a2HEiXSx7SpeuKz3BQeuWh73,QFY2a2HEiXSx7SpeuKz3BQeuWh73,,,,,,,,,,,,,,,,,,,2108.0,,5711089f52ab8e0011d08d03,16:45:40,27/03/2024
html-keyboard-response,47,156936,0.0-22.0-0.0,1208.0,"<div style=""display: flex; flex-direction: column; align-items: center; margin-top: -40px;""><img src=""images/pattern_3.png"" style=""width: 234px; height: 230px; margin-top: -50px;""><div style=""display: flex; justify-content: space-between; margin-top: 33px;""><img src=""images/choice_trial_12.png"" style=""width: 408px; height: 417px; margin-right: 200px;""><img src=""images/choice_trial_14.png"" style=""width: 408px; height: 417px;""></div></div>",j,delaylearn,learning,trial,QFY2a2HEiXSx7SpeuKz3BQeuWh73,QFY2a2HEiXSx7SpeuKz3BQeuWh73,2.0,images/choice_trial_12.png,images/choice_trial_14.png,images/pattern_3.png,f,f,7000.0,12.0,14.0,2.0,0.0,9.0,0.0,0.0,14.0,20.0,,,,,5711089f52ab8e0011d08d03,16:45:40,27/03/2024
html-keyboard-response,48,157954,0.0-22.0-1.0,,"<div style=""display: flex; flex-direction: column; align-items: center; margin-top: -40px;""><img src=""images/pattern_3.png"" style=""width: 234px; height: 230px; margin-top: -50px;""><div style=""display: flex; justify-content: space-between; margin-top: 33px;""><img src=""images/choice_trial_14.png"" style=""width: 408px; height: 417px; margin-left:608px;""></div></div>",,delaylearn,learning,display_response,QFY2a2HEiXSx7SpeuKz3BQeuWh73,QFY2a2HEiXSx7SpeuKz3BQeuWh73,,,,,,,,,,,,,,,,,chosen stimuli: images/choice_trial_14.png,,,,5711089f52ab8e0011d08d03,16:45:40,27/03/2024
html-keyboard-response,49,164969,0.0-22.0-2.0,,,,delaylearn,learning,feedback_duration_window,QFY2a2HEiXSx7SpeuKz3BQeuWh73,QFY2a2HEiXSx7SpeuKz3BQeuWh73,,,,,,,,,,,,,,,,,,7000.0,,,5711089f52ab8e0011d08d03,16:45:40,27/03/2024
html-keyboard-response,50,166486,0.0-22.0-3.0,,<div style='margin:auto;width: auto; font-size: 150%'><span style='font-weight: bold; font-size: 100px; color: red;'>0 points!</span><br><br></div>,,delaylearn,learning,feedback_image_window,QFY2a2HEiXSx7SpeuKz3BQeuWh73,QFY2a2HEiXSx7SpeuKz3BQeuWh73,,,,,,,,,,,,,,,,,,,,,5711089f52ab8e0011d08d03,16:45:40,27/03/2024
html-keyboard-response,51,168534,0.0-23.0,,"<div style=""font-size:100px;"">+</div>",,delaylearn,learning,ITI,QFY2a2HEiXSx7SpeuKz3BQeuWh73,QFY2a2HEiXSx7SpeuKz3BQeuWh73,,,,,,,,,,,,,,,,,,,2044.0,,5711089f52ab8e0011d08d03,16:45:40,27/03/2024
html-keyboard-response,52,170038,0.0-24.0-0.0,1501.0,"<div style=""display: flex; flex-direction: column; align-items: center; margin-top: -40px;""><img src=""images/pattern_7.png"" style=""width: 234px; height: 230px; margin-top: -50px;""><div style=""display: flex; justify-content: space-between; margin-top: 33px;""><img src=""images/choice_trial_15.png"" style=""width: 408px; height: 417px; margin-right: 200px;""><img src=""images/choice_trial_8.png"" style=""width: 408px; height: 417px;""></div></div>",f,delaylearn,learning,trial,QFY2a2HEiXSx7SpeuKz3BQeuWh73,QFY2a2HEiXSx7SpeuKz3BQeuWh73,2.0,images/choice_trial_15.png,images/choice_trial_8.png,images/pattern_7.png,j,j,750.0,15.0,8.0,6.0,1.0,10.0,0.0,0.0,15.0,20.0,,,,,5711089f52ab8e0011d08d03,16:45:40,27/03/2024
html-keyboard-response,53,171050,0.0-24.0-1.0,,"<div style=""display: flex; flex-direction: column; align-items: center; margin-top: -40px;""><img src=""images/pattern_7.png"" style=""width: 234px; height: 230px; margin-top: -50px;""><div style=""display: flex; justify-content: space-between; margin-top: 33px;""><img src=""images/choice_trial_15.png"" style=""width: 408px; height: 417px; margin-right: 608px;""></div></div>",,delaylearn,learning,display_response,QFY2a2HEiXSx7SpeuKz3BQeuWh73,QFY2a2HEiXSx7SpeuKz3BQeuWh73,,,,,,,,,,,,,,,,,chosen stimuli: images/choice_trial_15.png,,,,5711089f52ab8e0011d08d03,16:45:40,27/03/2024
html-keyboard-response,54,171815,0.0-24.0-2.0,,,,delaylearn,learning,feedback_duration_window,QFY2a2HEiXSx7SpeuKz3BQeuWh73,QFY2a2HEiXSx7SpeuKz3BQeuWh73,,,,,,,,,,,,,,,,,,750.0,,,5711089f52ab8e0011d08d03,16:45:40,27/03/2024
html-keyboard-response,55,173317,0.0-24.0-3.0,,<div style='margin:auto;width: auto; font-size: 150%'><span style='font-weight: bold; font-size: 100px; color: red;'>0 points!</span><br><br></div>,,delaylearn,learning,feedback_image_window,QFY2a2HEiXSx7SpeuKz3BQeuWh73,QFY2a2HEiXSx7SpeuKz3BQeuWh73,,,,,,,,,,,,,,,,,,,,,5711089f52ab8e0011d08d03,16:45:40,27/03/2024
html-keyboard-response,56,174964,0.0-25.0,,"<div style=""font-size:100px;"">+</div>",,delaylearn,learning,ITI,QFY2a2HEiXSx7SpeuKz3BQeuWh73,QFY2a2HEiXSx7SpeuKz3BQeuWh73,,,,,,,,,,,,,,,,,,,1630.0,,5711089f52ab8e0011d08d03,16:45:40,27/03/2024
html-keyboard-response,57,178817,0.0-26.0-0.0,,"<div style=""display: flex; flex-direction: column; align-items: center; margin-top: -40px;""><img src=""images/pattern_4.png"" style=""width: 234px; height: 230px; margin-top: -50px;""><div style=""display: flex; justify-content: space-between; margin-top: 33px;""><img src=""images/choice_trial_4.png"" style=""width: 408px; height: 417px; margin-right: 200px;""><img src=""images/choice_trial_16.png"" style=""width: 408px; height: 417px;""></div></div>",,delaylearn,learning,trial,QFY2a2HEiXSx7SpeuKz3BQeuWh73,QFY2a2HEiXSx7SpeuKz3BQeuWh73,2.0,images/choice_trial_4.png,images/choice_trial_16.png,images/pattern_4.png,f,f,7000.0,4.0,16.0,3.0,0.0,11.0,0.0,0.0,0.0,20.0,,,,,5711089f52ab8e0011d08d03,16:45:40,27/03/2024
html-keyboard-response,58,179832,0.0-26.0-1.0,,<div style='font-weight: bold; font-size: 75px; color: red;'>Missed Trial <br><br><br><br> Please respond faster</div>,,delaylearn,learning,display_response,QFY2a2HEiXSx7SpeuKz3BQeuWh73,QFY2a2HEiXSx7SpeuKz3BQeuWh73,,,,,,,,,,,,,,,,,Missed trial,,,,5711089f52ab8e0011d08d03,16:45:40,27/03/2024
html-keyboard-response,59,180844,0.0-26.0-2.0,,,,delaylearn,learning,feedback_duration_window,QFY2a2HEiXSx7SpeuKz3BQeuWh73,QFY2a2HEiXSx7SpeuKz3BQeuWh73,,,,,,,,,,,,,,,,,,0.0,,,5711089f52ab8e0011d08d03,16:45:40,27/03/2024
html-keyboard-response,60,181942,0.0-26.0-3.0,,,,delaylearn,learning,feedback_image_window,QFY2a2HEiXSx7SpeuKz3BQeuWh73,QFY2a2HEiXSx7SpeuKz3BQeuWh73,,,,,,,,,,,,,,,,,,,,,5711089f52ab8e0011d08d03,16:45:40,27/03/2024
html-keyboard-response,61,183834,0.0-27.0,,"<div style=""font-size:100px;"">+</div>",,delaylearn,learning,ITI,QFY2a2HEiXSx7SpeuKz3BQeuWh73,QFY2a2HEiXSx7SpeuKz3BQeuWh73,,,,,,,,,,,,,,,,,,,1808.0,,5711089f52ab8e0011d08d03,16:45:40,27/03/2024
html-keyboard-response,62,186494,0.0-28.0-0.0,2657.0,"<div style=""display: flex; flex-direction: column; align-items: center; margin-top: -40px;""><img src=""images/pattern_5.png"" style=""width: 234px; height: 230px; margin-top: -50px;""><div style=""display: flex; justify-content: space-between; margin-top: 33px;""><img src=""images/choice_trial_9.png"" style=""width: 408px; height: 417px; margin-right: 200px;""><img src=""images/choice_trial_2.png"" style=""width: 408px; height: 417px;""></div></div>",f,delaylearn,learning,trial,QFY2a2HEiXSx7SpeuKz3BQeuWh73,QFY2a2HEiXSx7SpeuKz3BQeuWh73,2.0,images/choice_trial_9.png,images/choice_trial_2.png,images/pattern_5.png,j,j,750.0,9.0,2.0,4.0,1.0,12.0,0.0,0.0,9.0,20.0,,,,,5711089f52ab8e0011d08d03,16:45:40,27/03/2024
html-keyboard-response,63,187506,0.0-28.0-1.0,,"<div style=""display: flex; flex-direction: column; align-items: center; margin-top: -40px;""><img src=""images/pattern_5.png"" style=""width: 234px; height: 230px; margin-top: -50px;""><div style=""display: flex; justify-content: space-between; margin-top: 33px;""><img src=""images/choice_trial_9.png"" style=""width: 408px; height: 417px; margin-right: 608px;""></div></div>",,delaylearn,learning,display_response,QFY2a2HEiXSx7SpeuKz3BQeuWh73,QFY2a2HEiXSx7SpeuKz3BQeuWh73,,,,,,,,,,,,,,,,,chosen stimuli: images/choice_trial_9.png,,,,5711089f52ab8e0011d08d03,16:45:40,27/03/2024
html-keyboard-response,64,188270,0.0-28.0-2.0,,,,delaylearn,learning,feedback_duration_window,QFY2a2HEiXSx7SpeuKz3BQeuWh73,QFY2a2HEiXSx7SpeuKz3BQeuWh73,,,,,,,,,,,,,,,,,,750.0,,,5711089f52ab8e0011d08d03,16:45:40,27/03/2024
html-keyboard-response,65,189775,0.0-28.0-3.0,,<div style='margin:auto;width: auto; font-size: 150%'><span style='font-weight: bold; font-size: 100px; color: red;'>0 points!</span><br><br></div>,,delaylearn,learning,feedback_image_window,QFY2a2HEiXSx7SpeuKz3BQeuWh73,QFY2a2HEiXSx7SpeuKz3BQeuWh73,,,,,,,,,,,,,,,,,,,,,5711089f52ab8e0011d08d03,16:45:40,27/03/2024
html-keyboard-response,66,191626,0.0-29.0,,"<div style=""font-size:100px;"">+</div>",,delaylearn,learning,ITI,QFY2a2HEiXSx7SpeuKz3BQeuWh73,QFY2a2HEiXSx7SpeuKz3BQeuWh73,,,,,,,,,,,,,,,,,,,1842.0,,5711089f52ab8e0011d08d03,16:45:40,27/03/2024
html-keyboard-response,67,192229,0.0-30.0-0.0,599.0,"<div style=""display: flex; flex-direction: column; align-items: center; margin-top: -40px;""><img src=""images/pattern_6.png"" style=""width: 234px; height: 230px; margin-top: -50px;""><div style=""display: flex; justify-content: space-between; margin-top: 33px;""><img src=""images/choice_trial_11.png"" style=""width: 408px; height: 417px; margin-right: 200px;""><img src=""images/choice_trial_5.png"" style=""width: 408px; height: 417px;""></div></div>",j,delaylearn,learning,trial,QFY2a2HEiXSx7SpeuKz3BQeuWh73,QFY2a2HEiXSx7SpeuKz3BQeuWh73,2.0,images/choice_trial_11.png,images/choice_trial_5.png,images/pattern_6.png,j,f,750.0,11.0,5.0,5.0,0.0,13.0,0.0,1.0,5.0,30.0,,,,,5711089f52ab8e0011d08d03,16:45:40,27/03/2024
html-keyboard-response,68,193241,0.0-30.0-1.0,,"<div style=""display: flex; flex-direction: column; align-items: center; margin-top: -40px;""><img src=""images/pattern_6.png"" style=""width: 234px; height: 230px; margin-top: -50px;""><div style=""display: flex; justify-content: space-between; margin-top: 33px;""><img src=""images/choice_trial_5.png"" style=""width: 408px; height: 417px; margin-left:608px;""></div></div>",,delaylearn,learning,display_response,QFY2a2HEiXSx7SpeuKz3BQeuWh73,QFY2a2HEiXSx7SpeuKz3BQeuWh73,,,,,,,,,,,,,,,,,chosen stimuli: images/choice_trial_5.png,,,,5711089f52ab8e0011d08d03,16:45:40,27/03/2024
html-keyboard-response,69,194002,0.0-30.0-2.0,,,,delaylearn,learning,feedback_duration_window,QFY2a2HEiXSx7SpeuKz3BQeuWh73,QFY2a2HEiXSx7SpeuKz3BQeuWh73,,,,,,,,,,,,,,,,,,750.0,,,5711089f52ab8e0011d08d03,16:45:40,27/03/2024
html-keyboard-response,70,195525,0.0-30.0-3.0,,<div style='margin:auto;width: auto; font-size: 150%'><span style='font-weight: bold; font-size: 100px; color: green;'>+10 points!</span><br><br></div>,,delaylearn,learning,feedback_image_window,QFY2a2HEiXSx7SpeuKz3BQeuWh73,QFY2a2HEiXSx7SpeuKz3BQeuWh73,,,,,,,,,,,,,,,,,,,,,5711089f52ab8e0011d08d03,16:45:40,27/03/2024
html-keyboard-response,71,196036,0.0-31.0-0.0,,,,,,mood_trial_fixation,QFY2a2HEiXSx7SpeuKz3BQeuWh73,,,,,,,,,,,,,,,,,,,,,,5711089f52ab8e0011d08d03,16:45:40,27/03/2024
lmdlab-html-vas-response,72,200644,0.0-31.0-1.0,3596.0,How happy are you right now?,0.2569765982462283,delaylearn,learning,mood_trial,QFY2a2HEiXSx7SpeuKz3BQeuWh73,QFY2a2HEiXSx7SpeuKz3BQeuWh73,,,,,,,,,,,,,,,,,,,,"['Very unhappy', 'Very happy']",5711089f52ab8e0011d08d03,16:45:40,27/03/2024
html-keyboard-response,73,202483,0.0-32.0,,"<div style=""font-size:100px;"">+</div>",,delaylearn,learning,ITI,QFY2a2HEiXSx7SpeuKz3BQeuWh73,QFY2a2HEiXSx7SpeuKz3BQeuWh73,,,,,,,,,,,,,,,,,,,1829.0,,5711089f52ab8e0011d08d03,16:45:40,27/03/2024
html-keyboard-response,74,204400,0.0-33.0-0.0,1914.0,"<div style=""display: flex; flex-direction: column; align-items: center; margin-top: -40px;""><img src=""images/pattern_1.png"" style=""width: 234px; height: 230px; margin-top: -50px;""><div style=""display: flex; justify-content: space-between; margin-top: 33px;""><img src=""images/choice_trial_10.png"" style=""width: 408px; height: 417px; margin-right: 200px;""><img src=""images/choice_trial_3.png"" style=""width: 408px; height: 417px;""></div></div>",f,delaylearn,learning,trial,QFY2a2HEiXSx7SpeuKz3BQeuWh73,QFY2a2HEiXSx7SpeuKz3BQeuWh73,2.0,images/choice_trial_10.png,images/choice_trial_3.png,images/pattern_1.png,j,j,7000.0,10.0,3.0,1.0,1.0,14.0,0.0,0.0,10.0,30.0,,,,,5711089f52ab8e0011d08d03,16:45:40,27/03/2024
html-keyboard-response,75,205408,0.0-33.0-1.0,,"<div style=""display: flex; flex-direction: column; align-items: center; margin-top: -40px;""><img src=""images/pattern_1.png"" style=""width: 234px; height: 230px; margin-top: -50px;""><div style=""display: flex; justify-content: space-between; margin-top: 33px;""><img src=""images/choice_trial_10.png"" style=""width: 408px; height: 417px; margin-right: 608px;""></div></div>",,delaylearn,learning,display_response,QFY2a2HEiXSx7SpeuKz3BQeuWh73,QFY2a2HEiXSx7SpeuKz3BQeuWh73,,,,,,,,,,,,,,,,,chosen stimuli: images/choice_trial_10.png,,,,5711089f52ab8e0011d08d03,16:45:40,27/03/2024
html-keyboard-response,76,212425,0.0-33.0-2.0,,,,delaylearn,learning,feedback_duration_window,QFY2a2HEiXSx7SpeuKz3BQeuWh73,QFY2a2HEiXSx7SpeuKz3BQeuWh73,,,,,,,,,,,,,,,,,,7000.0,,,5711089f52ab8e0011d08d03,16:45:40,27/03/2024
html-keyboard-response,77,213937,0.0-33.0-3.0,,<div style='margin:auto;width: auto; font-size: 150%'><span style='font-weight: bold; font-size: 100px; color: red;'>0 points!</span><br><br></div>,,delaylearn,learning,feedback_image_window,QFY2a2HEiXSx7SpeuKz3BQeuWh73,QFY2a2HEiXSx7SpeuKz3BQeuWh73,,,,,,,,,,,,,,,,,,,,,5711089f52ab8e0011d08d03,16:45:40,27/03/2024
html-keyboard-response,78,216247,0.0-34.0,,"<div style=""font-size:100px;"">+</div>",,delaylearn,learning,ITI,QFY2a2HEiXSx7SpeuKz3BQeuWh73,QFY2a2HEiXSx7SpeuKz3BQeuWh73,,,,,,,,,,,,,,,,,,,2294.0,,5711089f52ab8e0011d08d03,16:45:40,27/03/2024
html-keyboard-response,79,219256,0.0-35.0-0.0,,"<div style=""display: flex; flex-direction: column; align-items: center; margin-top: -40px;""><img src=""images/pattern_3.png"" style=""width: 234px; height: 230px; margin-top: -50px;""><div style=""display: flex; justify-content: space-between; margin-top: 33px;""><img src=""images/choice_trial_14.png"" style=""width: 408px; height: 417px; margin-right: 200px;""><img src=""images/choice_trial_12.png"" style=""width: 408px; height: 417px;""></div></div>",,delaylearn,learning,trial,QFY2a2HEiXSx7SpeuKz3BQeuWh73,QFY2a2HEiXSx7SpeuKz3BQeuWh73,2.0,images/choice_trial_14.png,images/choice_trial_12.png,images/pattern_3.png,f,j,7000.0,14.0,12.0,2.0,1.0,15.0,0.0,0.0,0.0,30.0,,,,,5711089f52ab8e0011d08d03,16:45:40,27/03/2024
html-keyboard-response,80,220825,0.0-35.0-1.0,,<div style='font-weight: bold; font-size: 75px; color: red;'>Missed Trial <br><br><br><br> Please respond faster</div>,,delaylearn,learning,display_response,QFY2a2HEiXSx7SpeuKz3BQeuWh73,QFY2a2HEiXSx7SpeuKz3BQeuWh73,,,,,,,,,,,,,,,,,Missed trial,,,,5711089f52ab8e0011d08d03,16:45:40,27/03/2024
html-keyboard-response,81,221839,0.0-35.0-2.0,,,,delaylearn,learning,feedback_duration_window,QFY2a2HEiXSx7SpeuKz3BQeuWh73,QFY2a2HEiXSx7SpeuKz3BQeuWh73,,,,,,,,,,,,,,,,,,0.0,,,5711089f52ab8e0011d08d03,16:45:40,27/03/2024
html-keyboard-response,82,222843,0.0-35.0-3.0,,,,delaylearn,learning,feedback_image_window,QFY2a2HEiXSx7SpeuKz3BQeuWh73,QFY2a2HEiXSx7SpeuKz3BQeuWh73,,,,,,,,,,,,,,,,,,,,,5711089f52ab8e0011d08d03,16:45:40,27/03/2024
html-keyboard-response,83,225873,0.0-36.0,,"<div style=""font-size:100px;"">+</div>",,delaylearn,learning,ITI,QFY2a2HEiXSx7SpeuKz3BQeuWh73,QFY2a2HEiXSx7SpeuKz3BQeuWh73,,,,,,,,,,,,,,,,,,,2183.0,,5711089f52ab8e0011d08d03,16:45:40,27/03/2024
html-keyboard-response,84,228906,0.0-37.0-0.0,,"<div style=""display: flex; flex-direction: column; align-items: center; margin-top: -40px;""><img src=""images/pattern_5.png"" style=""width: 234px; height: 230px; margin-top: -50px;""><div style=""display: flex; justify-content: space-between; margin-top: 33px;""><img src=""images/choice_trial_2.png"" style=""width: 408px; height: 417px; margin-right: 200px;""><img src=""images/choice_trial_9.png"" style=""width: 408px; height: 417px;""></div></div>",,delaylearn,learning,trial,QFY2a2HEiXSx7SpeuKz3BQeuWh73,QFY2a2HEiXSx7SpeuKz3BQeuWh73,2.0,images/choice_trial_2.png,images/choice_trial_9.png,images/pattern_5.png,f,f,750.0,2.0,9.0,4.0,0.0,16.0,0.0,0.0,0.0,30.0,,,,,5711089f52ab8e0011d08d03,16:45:40,27/03/2024
html-keyboard-response,85,229922,0.0-37.0-1.0,,<div style='font-weight: bold; font-size: 75px; color: red;'>Missed Trial <br><br><br><br> Please respond faster</div>,,delaylearn,learning,display_response,QFY2a2HEiXSx7SpeuKz3BQeuWh73,QFY2a2HEiXSx7SpeuKz3BQeuWh73,,,,,,,,,,,,,,,,,Missed trial,,,,5711089f52ab8e0011d08d03,16:45:40,27/03/2024
html-keyboard-response,86,231056,0.0-37.0-2.0,,,,delaylearn,learning,feedback_duration_window,QFY2a2HEiXSx7SpeuKz3BQeuWh73,QFY2a2HEiXSx7SpeuKz3BQeuWh73,,,,,,,,,,,,,,,,,,0.0,,,5711089f52ab8e0011d08d03,16:45:40,27/03/2024
html-keyboard-response,87,232068,0.0-37.0-3.0,,,,delaylearn,learning,feedback_image_window,QFY2a2HEiXSx7SpeuKz3BQeuWh73,QFY2a2HEiXSx7SpeuKz3BQeuWh73,,,,,,,,,,,,,,,,,,,,,5711089f52ab8e0011d08d03,16:45:40,27/03/2024
html-keyboard-response,88,233076,0.0-38.0-0.0,,,,,,mood_trial_fixation,QFY2a2HEiXSx7SpeuKz3BQeuWh73,,,,,,,,,,,,,,,,,,,,,,5711089f52ab8e0011d08d03,16:45:40,27/03/2024
lmdlab-html-vas-response,89,258444,0.0-38.0-1.0,,How happy are you right now?,,delaylearn,learning,mood_trial,QFY2a2HEiXSx7SpeuKz3BQeuWh73,QFY2a2HEiXSx7SpeuKz3BQeuWh73,,,,,,,,,,,,,,,,,,,,"['Very unhappy', 'Very happy']",5711089f52ab8e0011d08d03,16:45:40,27/03/2024
html-keyboard-response,90,261512,0.0-39.0,,"<div style=""font-size:100px;"">+</div>",,delaylearn,learning,ITI,QFY2a2HEiXSx7SpeuKz3BQeuWh73,QFY2a2HEiXSx7SpeuKz3BQeuWh73,,,,,,,,,,,,,,,,,,,2060.0,,5711089f52ab8e0011d08d03,16:45:40,27/03/2024
html-keyboard-response,91,264547,0.0-40.0-0.0,,"<div style=""display: flex; flex-direction: column; align-items: center; margin-top: -40px;""><img src=""images/pattern_6.png"" style=""width: 234px; height: 230px; margin-top: -50px;""><div style=""display: flex; justify-content: space-between; margin-top: 33px;""><img src=""images/choice_trial_11.png"" style=""width: 408px; height: 417px; margin-right: 200px;""><img src=""images/choice_trial_5.png"" style=""width: 408px; height: 417px;""></div></div>",,delaylearn,learning,trial,QFY2a2HEiXSx7SpeuKz3BQeuWh73,QFY2a2HEiXSx7SpeuKz3BQeuWh73,2.0,images/choice_trial_11.png,images/choice_trial_5.png,images/pattern_6.png,f,f,750.0,11.0,5.0,5.0,0.0,17.0,0.0,0.0,0.0,30.0,,,,,5711089f52ab8e0011d08d03,16:45:40,27/03/2024
html-keyboard-response,92,265553,0.0-40.0-1.0,,<div style='font-weight: bold; font-size: 75px; color: red;'>Missed Trial <br><br><br><br> Please respond faster</div>,,delaylearn,learning,display_response,QFY2a2HEiXSx7SpeuKz3BQeuWh73,QFY2a2HEiXSx7SpeuKz3BQeuWh73,,,,,,,,,,,,,,,,,Missed trial,,,,5711089f52ab8e0011d08d03,16:45:40,27/03/2024
html-keyboard-response,93,266564,0.0-40.0-2.0,,,,delaylearn,learning,feedback_duration_window,QFY2a2HEiXSx7SpeuKz3BQeuWh73,QFY2a2HEiXSx7SpeuKz3BQeuWh73,,,,,,,,,,,,,,,,,,0.0,,,5711089f52ab8e0011d08d03,16:45:40,27/03/2024
html-keyboard-response,94,267578,0.0-40.0-3.0,,,,delaylearn,learning,feedback_image_window,QFY2a2HEiXSx7SpeuKz3BQeuWh73,QFY2a2HEiXSx7SpeuKz3BQeuWh73,,,,,,,,,,,,,,,,,,,,,5711089f52ab8e0011d08d03,16:45:40,27/03/2024
html-keyboard-response,95,270606,0.0-41.0,,"<div style=""font-size:100px;"">+</div>",,delaylearn,learning,ITI,QFY2a2HEiXSx7SpeuKz3BQeuWh73,QFY2a2HEiXSx7SpeuKz3BQeuWh73,,,,,,,,,,,,,,,,,,,2295.0,,5711089f52ab8e0011d08d03,16:45:40,27/03/2024
html-keyboard-response,96,273625,0.0-42.0-0.0,,"<div style=""display: flex; flex-direction: column; align-items: center; margin-top: -40px;""><img src=""images/pattern_4.png"" style=""width: 234px; height: 230px; margin-top: -50px;""><div style=""display: flex; justify-content: space-between; margin-top: 33px;""><img src=""images/choice_trial_16.png"" style=""width: 408px; height: 417px; margin-right: 200px;""><img src=""images/choice_trial_4.png"" style=""width: 408px; height: 417px;""></div></div>",,delaylearn,learning,trial,QFY2a2HEiXSx7SpeuKz3BQeuWh73,QFY2a2HEiXSx7SpeuKz3BQeuWh73,2.0,images/choice_trial_16.png,images/choice_trial_4.png,images/pattern_4.png,j,j,7000.0,16.0,4.0,3.0,1.0,18.0,0.0,0.0,0.0,30.0,,,,,5711089f52ab8e0011d08d03,16:45:40,27/03/2024
html-keyboard-response,97,274634,0.0-42.0-1.0,,<div style='font-weight: bold; font-size: 75px; color: red;'>Missed Trial <br><br><br><br> Please respond faster</div>,,delaylearn,learning,display_response,QFY2a2HEiXSx7SpeuKz3BQeuWh73,QFY2a2HEiXSx7SpeuKz3BQeuWh73,,,,,,,,,,,,,,,,,Missed trial,,,,5711089f52ab8e0011d08d03,16:45:40,27/03/2024
html-keyboard-response,98,275648,0.0-42.0-2.0,,,,delaylearn,learning,feedback_duration_window,QFY2a2HEiXSx7SpeuKz3BQeuWh73,QFY2a2HEiXSx7SpeuKz3BQeuWh73,,,,,,,,,,,,,,,,,,0.0,,,5711089f52ab8e0011d08d03,16:45:40,27/03/2024
html-keyboard-response,99,276658,0.0-42.0-3.0,,,,delaylearn,learning,feedback_image_window,QFY2a2HEiXSx7SpeuKz3BQeuWh73,QFY2a2HEiXSx7SpeuKz3BQeuWh73,,,,,,,,,,,,,,,,,,,,,5711089f52ab8e0011d08d03,16:45:40,27/03/2024
html-keyboard-response,100,279684,0.0-43.0,,"<div style=""font-size:100px;"">+</div>",,delaylearn,learning,ITI,QFY2a2HEiXSx7SpeuKz3BQeuWh73,QFY2a2HEiXSx7SpeuKz3BQeuWh73,,,,,,,,,,,,,,,,,,,2288.0,,5711089f52ab8e0011d08d03,16:45:40,27/03/2024
html-keyboard-response,101,282710,0.0-44.0-0.0,,"<div style=""display: flex; flex-direction: column; align-items: center; margin-top: -40px;""><img src=""images/pattern_7.png"" style=""width: 234px; height: 230px; margin-top: -50px;""><div style=""display: flex; justify-content: space-between; margin-top: 33px;""><img src=""images/choice_trial_8.png"" style=""width: 408px; height: 417px; margin-right: 200px;""><img src=""images/choice_trial_15.png"" style=""width: 408px; height: 417px;""></div></div>",,delaylearn,learning,trial,QFY2a2HEiXSx7SpeuKz3BQeuWh73,QFY2a2HEiXSx7SpeuKz3BQeuWh73,2.0,images/choice_trial_8.png,images/choice_trial_15.png,images/pattern_7.png,j,f,750.0,8.0,15.0,6.0,0.0,19.0,0.0,0.0,0.0,30.0,,,,,5711089f52ab8e0011d08d03,16:45:40,27/03/2024
html-keyboard-response,102,283723,0.0-44.0-1.0,,<div style='font-weight: bold; font-size: 75px; color: red;'>Missed Trial <br><br><br><br> Please respond faster</div>,,delaylearn,learning,display_response,QFY2a2HEiXSx7SpeuKz3BQeuWh73,QFY2a2HEiXSx7SpeuKz3BQeuWh73,,,,,,,,,,,,,,,,,Missed trial,,,,5711089f52ab8e0011d08d03,16:45:40,27/03/2024
html-keyboard-response,103,284860,0.0-44.0-2.0,,,,delaylearn,learning,feedback_duration_window,QFY2a2HEiXSx7SpeuKz3BQeuWh73,QFY2a2HEiXSx7SpeuKz3BQeuWh73,,,,,,,,,,,,,,,,,,0.0,,,5711089f52ab8e0011d08d03,16:45:40,27/03/2024
html-keyboard-response,104,285868,0.0-44.0-3.0,,,,delaylearn,learning,feedback_image_window,QFY2a2HEiXSx7SpeuKz3BQeuWh73,QFY2a2HEiXSx7SpeuKz3BQeuWh73,,,,,,,,,,,,,,,,,,,,,5711089f52ab8e0011d08d03,16:45:40,27/03/2024
html-keyboard-response,105,287884,0.0-45.0,,"<div style=""font-size:100px;"">+</div>",,delaylearn,learning,ITI,QFY2a2HEiXSx7SpeuKz3BQeuWh73,QFY2a2HEiXSx7SpeuKz3BQeuWh73,,,,,,,,,,,,,,,,,,,1723.0,,5711089f52ab8e0011d08d03,16:45:40,27/03/2024
html-keyboard-response,106,290905,0.0-46.0-0.0,,"<div style=""display: flex; flex-direction: column; align-items: center; margin-top: -40px;""><img src=""images/pattern_1.png"" style=""width: 234px; height: 230px; margin-top: -50px;""><div style=""display: flex; justify-content: space-between; margin-top: 33px;""><img src=""images/choice_trial_3.png"" style=""width: 408px; height: 417px; margin-right: 200px;""><img src=""images/choice_trial_10.png"" style=""width: 408px; height: 417px;""></div></div>",,delaylearn,learning,trial,QFY2a2HEiXSx7SpeuKz3BQeuWh73,QFY2a2HEiXSx7SpeuKz3BQeuWh73,2.0,images/choice_trial_3.png,images/choice_trial_10.png,images/pattern_1.png,f,f,7000.0,3.0,10.0,1.0,0.0,20.0,0.0,0.0,0.0,30.0,,,,,5711089f52ab8e0011d08d03,16:45:40,27/03/2024
html-keyboard-response,107,291987,0.0-46.0-1.0,,<div style='font-weight: bold; font-size: 75px; color: red;'>Missed Trial <br><br><br><br> Please respond faster</div>,,delaylearn,learning,display_response,QFY2a2HEiXSx7SpeuKz3BQeuWh73,QFY2a2HEiXSx7SpeuKz3BQeuWh73,,,,,,,,,,,,,,,,,Missed trial,,,,5711089f52ab8e0011d08d03,16:45:40,27/03/2024
html-keyboard-response,108,292994,0.0-46.0-2.0,,,,delaylearn,learning,feedback_duration_window,QFY2a2HEiXSx7SpeuKz3BQeuWh73,QFY2a2HEiXSx7SpeuKz3BQeuWh73,,,,,,,,,,,,,,,,,,0.0,,,5711089f52ab8e0011d08d03,16:45:40,27/03/2024
html-keyboard-response,109,294000,0.0-46.0-3.0,,,,delaylearn,learning,feedback_image_window,QFY2a2HEiXSx7SpeuKz3BQeuWh73,QFY2a2HEiXSx7SpeuKz3BQeuWh73,,,,,,,,,,,,,,,,,,,,,5711089f52ab8e0011d08d03,16:45:40,27/03/2024
html-keyboard-response,110,296028,0.0-47.0,,"<div style=""font-size:100px;"">+</div>",,delaylearn,learning,ITI,QFY2a2HEiXSx7SpeuKz3BQeuWh73,QFY2a2HEiXSx7SpeuKz3BQeuWh73,,,,,,,,,,,,,,,,,,,1888.0,,5711089f52ab8e0011d08d03,16:45:40,27/03/2024
html-keyboard-response,111,299054,0.0-48.0-0.0,,"<div style=""display: flex; flex-direction: column; align-items: center; margin-top: -40px;""><img src=""images/pattern_6.png"" style=""width: 234px; height: 230px; margin-top: -50px;""><div style=""display: flex; justify-content: space-between; margin-top: 33px;""><img src=""images/choice_trial_5.png"" style=""width: 408px; height: 417px; margin-right: 200px;""><img src=""images/choice_trial_11.png"" style=""width: 408px; height: 417px;""></div></div>",,delaylearn,learning,trial,QFY2a2HEiXSx7SpeuKz3BQeuWh73,QFY2a2HEiXSx7SpeuKz3BQeuWh73,2.0,images/choice_trial_5.png,images/choice_trial_11.png,images/pattern_6.png,j,j,750.0,5.0,11.0,5.0,1.0,21.0,0.0,0.0,0.0,30.0,,,,,5711089f52ab8e0011d08d03,16:45:40,27/03/2024
html-keyboard-response,112,300060,0.0-48.0-1.0,,<div style='font-weight: bold; font-size: 75px; color: red;'>Missed Trial <br><br><br><br> Please respond faster</div>,,delaylearn,learning,display_response,QFY2a2HEiXSx7SpeuKz3BQeuWh73,QFY2a2HEiXSx7SpeuKz3BQeuWh73,,,,,,,,,,,,,,,,,Missed trial,,,,5711089f52ab8e0011d08d03,16:45:40,27/03/2024
html-keyboard-response,113,301066,0.0-48.0-2.0,,,,delaylearn,learning,feedback_duration_window,QFY2a2HEiXSx7SpeuKz3BQeuWh73,QFY2a2HEiXSx7SpeuKz3BQeuWh73,,,,,,,,,,,,,,,,,,0.0,,,5711089f52ab8e0011d08d03,16:45:40,27/03/2024
html-keyboard-response,114,302073,0.0-48.0-3.0,,,,delaylearn,learning,feedback_image_window,QFY2a2HEiXSx7SpeuKz3BQeuWh73,QFY2a2HEiXSx7SpeuKz3BQeuWh73,,,,,,,,,,,,,,,,,,,,,5711089f52ab8e0011d08d03,16:45:40,27/03/2024
html-keyboard-response,115,304089,0.0-49.0,,"<div style=""font-size:100px;"">+</div>",,delaylearn,learning,ITI,QFY2a2HEiXSx7SpeuKz3BQeuWh73,QFY2a2HEiXSx7SpeuKz3BQeuWh73,,,,,,,,,,,,,,,,,,,1987.0,,5711089f52ab8e0011d08d03,16:45:40,27/03/2024
html-keyboard-response,116,307122,0.0-50.0-0.0,,"<div style=""display: flex; flex-direction: column; align-items: center; margin-top: -40px;""><img src=""images/pattern_4.png"" style=""width: 234px; height: 230px; margin-top: -50px;""><div style=""display: flex; justify-content: space-between; margin-top: 33px;""><img src=""images/choice_trial_4.png"" style=""width: 408px; height: 417px; margin-right: 200px;""><img src=""images/choice_trial_16.png"" style=""width: 408px; height: 417px;""></div></div>",,delaylearn,learning,trial,QFY2a2HEiXSx7SpeuKz3BQeuWh73,QFY2a2HEiXSx7SpeuKz3BQeuWh73,2.0,images/choice_trial_4.png,images/choice_trial_16.png,images/pattern_4.png,f,f,7000.0,4.0,16.0,3.0,0.0,22.0,0.0,0.0,0.0,30.0,,,,,5711089f52ab8e0011d08d03,16:45:40,27/03/2024
html-keyboard-response,117,308130,0.0-50.0-1.0,,<div style='font-weight: bold; font-size: 75px; color: red;'>Missed Trial <br><br><br><br> Please respond faster</div>,,delaylearn,learning,display_response,QFY2a2HEiXSx7SpeuKz3BQeuWh73,QFY2a2HEiXSx7SpeuKz3BQeuWh73,,,,,,,,,,,,,,,,,Missed trial,,,,5711089f52ab8e0011d08d03,16:45:40,27/03/2024
html-keyboard-response,118,309144,0.0-50.0-2.0,,,,delaylearn,learning,feedback_duration_window,QFY2a2HEiXSx7SpeuKz3BQeuWh73,QFY2a2HEiXSx7SpeuKz3BQeuWh73,,,,,,,,,,,,,,,,,,0.0,,,5711089f52ab8e0011d08d03,16:45:40,27/03/2024
html-keyboard-response,119,310154,0.0-50.0-3.0,,,,delaylearn,learning,feedback_image_window,QFY2a2HEiXSx7SpeuKz3BQeuWh73,QFY2a2HEiXSx7SpeuKz3BQeuWh73,,,,,,,,,,,,,,,,,,,,,5711089f52ab8e0011d08d03,16:45:40,27/03/2024
html-keyboard-response,120,311162,0.0-51.0-0.0,,,,,,mood_trial_fixation,QFY2a2HEiXSx7SpeuKz3BQeuWh73,,,,,,,,,,,,,,,,,,,,,,5711089f52ab8e0011d08d03,16:45:40,27/03/2024
lmdlab-html-vas-response,121,336510,0.0-51.0-1.0,,How happy are you right now?,,delaylearn,learning,mood_trial,QFY2a2HEiXSx7SpeuKz3BQeuWh73,QFY2a2HEiXSx7SpeuKz3BQeuWh73,,,,,,,,,,,,,,,,,,,,"['Very unhappy', 'Very happy']",5711089f52ab8e0011d08d03,16:45:40,27/03/2024
html-keyboard-response,122,338526,0.0-52.0,,"<div style=""font-size:100px;"">+</div>",,delaylearn,learning,ITI,QFY2a2HEiXSx7SpeuKz3BQeuWh73,QFY2a2HEiXSx7SpeuKz3BQeuWh73,,,,,,,,,,,,,,,,,,,1845.0,,5711089f52ab8e0011d08d03,16:45:40,27/03/2024
html-keyboard-response,123,341562,0.0-53.0-0.0,,"<div style=""display: flex; flex-direction: column; align-items: center; margin-top: -40px;""><img src=""images/pattern_7.png"" style=""width: 234px; height: 230px; margin-top: -50px;""><div style=""display: flex; justify-content: space-between; margin-top: 33px;""><img src=""images/choice_trial_15.png"" style=""width: 408px; height: 417px; margin-right: 200px;""><img src=""images/choice_trial_8.png"" style=""width: 408px; height: 417px;""></div></div>",,delaylearn,learning,trial,QFY2a2HEiXSx7SpeuKz3BQeuWh73,QFY2a2HEiXSx7SpeuKz3BQeuWh73,2.0,images/choice_trial_15.png,images/choice_trial_8.png,images/pattern_7.png,j,j,750.0,15.0,8.0,6.0,1.0,23.0,0.0,0.0,0.0,30.0,,,,,5711089f52ab8e0011d08d03,16:45:40,27/03/2024
html-keyboard-response,124,342569,0.0-53.0-1.0,,<div style='font-weight: bold; font-size: 75px; color: red;'>Missed Trial <br><br><br><br> Please respond faster</div>,,delaylearn,learning,display_response,QFY2a2HEiXSx7SpeuKz3BQeuWh73,QFY2a2HEiXSx7SpeuKz3BQeuWh73,,,,,,,,,,,,,,,,,Missed trial,,,,5711089f52ab8e0011d08d03,16:45:40,27/03/2024
html-keyboard-response,125,343578,0.0-53.0-2.0,,,,delaylearn,learning,feedback_duration_window,QFY2a2HEiXSx7SpeuKz3BQeuWh73,QFY2a2HEiXSx7SpeuKz3BQeuWh73,,,,,,,,,,,,,,,,,,0.0,,,5711089f52ab8e0011d08d03,16:45:40,27/03/2024
html-keyboard-response,126,344592,0.0-53.0-3.0,,,,delaylearn,learning,feedback_image_window,QFY2a2HEiXSx7SpeuKz3BQeuWh73,QFY2a2HEiXSx7SpeuKz3BQeuWh73,,,,,,,,,,,,,,,,,,,,,5711089f52ab8e0011d08d03,16:45:40,27/03/2024
html-keyboard-response,127,346712,0.0-54.0,,"<div style=""font-size:100px;"">+</div>",,delaylearn,learning,ITI,QFY2a2HEiXSx7SpeuKz3BQeuWh73,QFY2a2HEiXSx7SpeuKz3BQeuWh73,,,,,,,,,,,,,,,,,,,1955.0,,5711089f52ab8e0011d08d03,16:45:40,27/03/2024
html-keyboard-response,128,349734,0.0-55.0-0.0,,"<div style=""display: flex; flex-direction: column; align-items: center; margin-top: -40px;""><img src=""images/pattern_1.png"" style=""width: 234px; height: 230px; margin-top: -50px;""><div style=""display: flex; justify-content: space-between; margin-top: 33px;""><img src=""images/choice_trial_10.png"" style=""width: 408px; height: 417px; margin-right: 200px;""><img src=""images/choice_trial_3.png"" style=""width: 408px; height: 417px;""></div></div>",,delaylearn,learning,trial,QFY2a2HEiXSx7SpeuKz3BQeuWh73,QFY2a2HEiXSx7SpeuKz3BQeuWh73,2.0,images/choice_trial_10.png,images/choice_trial_3.png,images/pattern_1.png,f,j,7000.0,10.0,3.0,1.0,1.0,24.0,0.0,0.0,0.0,30.0,,,,,5711089f52ab8e0011d08d03,16:45:40,27/03/2024
html-keyboard-response,129,350810,0.0-55.0-1.0,,<div style='font-weight: bold; font-size: 75px; color: red;'>Missed Trial <br><br><br><br> Please respond faster</div>,,delaylearn,learning,display_response,QFY2a2HEiXSx7SpeuKz3BQeuWh73,QFY2a2HEiXSx7SpeuKz3BQeuWh73,,,,,,,,,,,,,,,,,Missed trial,,,,5711089f52ab8e0011d08d03,16:45:40,27/03/2024
html-keyboard-response,130,351824,0.0-55.0-2.0,,,,delaylearn,learning,feedback_duration_window,QFY2a2HEiXSx7SpeuKz3BQeuWh73,QFY2a2HEiXSx7SpeuKz3BQeuWh73,,,,,,,,,,,,,,,,,,0.0,,,5711089f52ab8e0011d08d03,16:45:40,27/03/2024
html-keyboard-response,131,352831,0.0-55.0-3.0,,,,delaylearn,learning,feedback_image_window,QFY2a2HEiXSx7SpeuKz3BQeuWh73,QFY2a2HEiXSx7SpeuKz3BQeuWh73,,,,,,,,,,,,,,,,,,,,,5711089f52ab8e0011d08d03,16:45:40,27/03/2024
html-keyboard-response,132,355975,0.0-56.0,,"<div style=""font-size:100px;"">+</div>",,delaylearn,learning,ITI,QFY2a2HEiXSx7SpeuKz3BQeuWh73,QFY2a2HEiXSx7SpeuKz3BQeuWh73,,,,,,,,,,,,,,,,,,,2230.0,,5711089f52ab8e0011d08d03,16:45:40,27/03/2024
html-keyboard-response,133,359107,0.0-57.0-0.0,,"<div style=""display: flex; flex-direction: column; align-items: center; margin-top: -40px;""><img src=""images/pattern_5.png"" style=""width: 234px; height: 230px; margin-top: -50px;""><div style=""display: flex; justify-content: space-between; margin-top: 33px;""><img src=""images/choice_trial_9.png"" style=""width: 408px; height: 417px; margin-right: 200px;""><img src=""images/choice_trial_2.png"" style=""width: 408px; height: 417px;""></div></div>",,delaylearn,learning,trial,QFY2a2HEiXSx7SpeuKz3BQeuWh73,QFY2a2HEiXSx7SpeuKz3BQeuWh73,2.0,images/choice_trial_9.png,images/choice_trial_2.png,images/pattern_5.png,j,j,750.0,9.0,2.0,4.0,1.0,25.0,0.0,0.0,0.0,30.0,,,,,5711089f52ab8e0011d08d03,16:45:40,27/03/2024
html-keyboard-response,134,360118,0.0-57.0-1.0,,<div style='font-weight: bold; font-size: 75px; color: red;'>Missed Trial <br><br><br><br> Please respond faster</div>,,delaylearn,learning,display_response,QFY2a2HEiXSx7SpeuKz3BQeuWh73,QFY2a2HEiXSx7SpeuKz3BQeuWh73,,,,,,,,,,,,,,,,,Missed trial,,,,5711089f52ab8e0011d08d03,16:45:40,27/03/2024
html-keyboard-response,135,361127,0.0-57.0-2.0,,,,delaylearn,learning,feedback_duration_window,QFY2a2HEiXSx7SpeuKz3BQeuWh73,QFY2a2HEiXSx7SpeuKz3BQeuWh73,,,,,,,,,,,,,,,,,,0.0,,,5711089f52ab8e0011d08d03,16:45:40,27/03/2024
html-keyboard-response,136,362135,0.0-57.0-3.0,,,,delaylearn,learning,feedback_image_window,QFY2a2HEiXSx7SpeuKz3BQeuWh73,QFY2a2HEiXSx7SpeuKz3BQeuWh73,,,,,,,,,,,,,,,,,,,,,5711089f52ab8e0011d08d03,16:45:40,27/03/2024
html-keyboard-response,137,365287,0.0-58.0,,"<div style=""font-size:100px;"">+</div>",,delaylearn,learning,ITI,QFY2a2HEiXSx7SpeuKz3BQeuWh73,QFY2a2HEiXSx7SpeuKz3BQeuWh73,,,,,,,,,,,,,,,,,,,2316.0,,5711089f52ab8e0011d08d03,16:45:40,27/03/2024
