trial_type,trial_index,time_elapsed,internal_node_id,rt,stimulus,response,exp_name,exp_stage,test_part,subjectID,databaseID,counterbal,choice_stimuli_1,choice_stimuli_2,pattern_stimuli,rewarded_answer,correct_answer,feedback_duration_times,stim_left,stim_right,pair,leftright_counter,trial,response_correct,response_rewarded,chosen_stim,counter,displayed_choice,feedback_durations,ITI_duration,labels,rest_warning,prolificID,start_time,date
pavlovia,0,484,0.0-0.0,,,,,,,64jA2Z6pdvMj3aX0893vBGxOxJu2,,,,,,,,,,,,,,,,,,,,,,,5995889da2bbe000018833d9,16:55:20,27/03/2024
html-keyboard-response,1,3485,0.0-1.0,,"<div style=""font-size:100px;"">+</div>",,delaylearn,learning,pre_fixation,64jA2Z6pdvMj3aX0893vBGxOxJu2,,,,,,,,,,,,,,,,,,,,,,,5995889da2bbe000018833d9,16:55:20,27/03/2024
html-keyboard-response,2,4366,0.0-2.0-0.0,879.3999999985099,"<div style=""display: flex; flex-direction: column; align-items: center; margin-top: -40px;""><img src=""images/demo_images/pattern_1.png"" style=""width: 234px; height: 230px; margin-top: -50px;""><div style=""display: flex; justify-content: space-between; margin-top: 33px;""><img src=""images/demo_images/choice_trial_2.png"" style=""width: 408px; height: 417px; margin-right: 200px;""><img src=""images/demo_images/choice_trial_1.png"" style=""width: 408px; height: 417px;""></div></div>",f,delaylearn,learning,trial,64jA2Z6pdvMj3aX0893vBGxOxJu2,64jA2Z6pdvMj3aX0893vBGxOxJu2,3.0,images/demo_images/choice_trial_2.png,images/demo_images/choice_trial_1.png,images/demo_images/pattern_1.png,j,j,3000.0,2.0,1.0,20.0,1.0,1.0,0.0,0.0,2.0,0.0,,,,,,5995889da2bbe000018833d9,16:55:20,27/03/2024
html-keyboard-response,3,5369,0.0-2.0-1.0,,"<div style=""display: flex; flex-direction: column; align-items: center; margin-top: -40px;""><img src=""images/demo_images/pattern_1.png"" style=""width: 234px; height: 230px; margin-top: -50px;""><div style=""display: flex; justify-content: space-between; margin-top: 33px;""><img src=""images/demo_images/choice_trial_2.png"" style=""width: 408px; height: 417px; margin-right: 608px;""></div></div>",,delaylearn,learning,display_response,64jA2Z6pdvMj3aX0893vBGxOxJu2,64jA2Z6pdvMj3aX0893vBGxOxJu2,,,,,,,,,,,,,,,,,chosen stimuli: images/demo_images/choice_trial_2.png,,,,,5995889da2bbe000018833d9,16:55:20,27/03/2024
html-keyboard-response,4,8371,0.0-2.0-2.0,,,,delaylearn,learning,feedback_duration_window,64jA2Z6pdvMj3aX0893vBGxOxJu2,64jA2Z6pdvMj3aX0893vBGxOxJu2,,,,,,,,,,,,,,,,,,3000.0,,,,5995889da2bbe000018833d9,16:55:20,27/03/2024
html-keyboard-response,5,9874,0.0-2.0-3.0,,<div style='margin:auto;width: auto; font-size: 150%'><span style='font-weight: bold; font-size: 100px; color: red;'>0 points!</span><br><br></div>,,delaylearn,learning,feedback_image_window,64jA2Z6pdvMj3aX0893vBGxOxJu2,64jA2Z6pdvMj3aX0893vBGxOxJu2,,,,,,,,,,,,,,,,,,,,,,5995889da2bbe000018833d9,16:55:20,27/03/2024
html-keyboard-response,6,12012,0.0-3.0,,"<div style=""font-size:100px;"">+</div>",,delaylearn,learning,ITI,64jA2Z6pdvMj3aX0893vBGxOxJu2,64jA2Z6pdvMj3aX0893vBGxOxJu2,,,,,,,,,,,,,,,,,,,2136.0,,,5995889da2bbe000018833d9,16:55:20,27/03/2024
html-keyboard-response,7,12684,0.0-4.0-0.0,668.1000000014901,"<div style=""display: flex; flex-direction: column; align-items: center; margin-top: -40px;""><img src=""images/demo_images/pattern_1.png"" style=""width: 234px; height: 230px; margin-top: -50px;""><div style=""display: flex; justify-content: space-between; margin-top: 33px;""><img src=""images/demo_images/choice_trial_2.png"" style=""width: 408px; height: 417px; margin-right: 200px;""><img src=""images/demo_images/choice_trial_1.png"" style=""width: 408px; height: 417px;""></div></div>",j,delaylearn,learning,trial,64jA2Z6pdvMj3aX0893vBGxOxJu2,64jA2Z6pdvMj3aX0893vBGxOxJu2,3.0,images/demo_images/choice_trial_2.png,images/demo_images/choice_trial_1.png,images/demo_images/pattern_1.png,j,j,3000.0,2.0,1.0,20.0,1.0,2.0,1.0,1.0,1.0,10.0,,,,,,5995889da2bbe000018833d9,16:55:20,27/03/2024
html-keyboard-response,8,13687,0.0-4.0-1.0,,"<div style=""display: flex; flex-direction: column; align-items: center; margin-top: -40px;""><img src=""images/demo_images/pattern_1.png"" style=""width: 234px; height: 230px; margin-top: -50px;""><div style=""display: flex; justify-content: space-between; margin-top: 33px;""><img src=""images/demo_images/choice_trial_1.png"" style=""width: 408px; height: 417px; margin-left:608px;""></div></div>",,delaylearn,learning,display_response,64jA2Z6pdvMj3aX0893vBGxOxJu2,64jA2Z6pdvMj3aX0893vBGxOxJu2,,,,,,,,,,,,,,,,,chosen stimuli: images/demo_images/choice_trial_1.png,,,,,5995889da2bbe000018833d9,16:55:20,27/03/2024
html-keyboard-response,9,16688,0.0-4.0-2.0,,,,delaylearn,learning,feedback_duration_window,64jA2Z6pdvMj3aX0893vBGxOxJu2,64jA2Z6pdvMj3aX0893vBGxOxJu2,,,,,,,,,,,,,,,,,,3000.0,,,,5995889da2bbe000018833d9,16:55:20,27/03/2024
html-keyboard-response,10,18191,0.0-4.0-3.0,,<div style='margin:auto;width: auto; font-size: 150%'><span style='font-weight: bold; font-size: 100px; color: green;'>+10 points!</span><br><br></div>,,delaylearn,learning,feedback_image_window,64jA2Z6pdvMj3aX0893vBGxOxJu2,64jA2Z6pdvMj3aX0893vBGxOxJu2,,,,,,,,,,,,,,,,,,,,,,5995889da2bbe000018833d9,16:55:20,27/03/2024
html-keyboard-response,11,20474,0.0-5.0,,"<div style=""font-size:100px;"">+</div>",,delaylearn,learning,ITI,64jA2Z6pdvMj3aX0893vBGxOxJu2,64jA2Z6pdvMj3aX0893vBGxOxJu2,,,,,,,,,,,,,,,,,,,2282.0,,,5995889da2bbe000018833d9,16:55:20,27/03/2024
html-keyboard-response,12,21595,0.0-6.0-0.0,1118.199999999255,"<div style=""display: flex; flex-direction: column; align-items: center; margin-top: -40px;""><img src=""images/demo_images/pattern_1.png"" style=""width: 234px; height: 230px; margin-top: -50px;""><div style=""display: flex; justify-content: space-between; margin-top: 33px;""><img src=""images/demo_images/choice_trial_1.png"" style=""width: 408px; height: 417px; margin-right: 200px;""><img src=""images/demo_images/choice_trial_2.png"" style=""width: 408px; height: 417px;""></div></div>",f,delaylearn,learning,trial,64jA2Z6pdvMj3aX0893vBGxOxJu2,64jA2Z6pdvMj3aX0893vBGxOxJu2,3.0,images/demo_images/choice_trial_1.png,images/demo_images/choice_trial_2.png,images/demo_images/pattern_1.png,j,f,3000.0,1.0,2.0,20.0,0.0,3.0,1.0,0.0,1.0,10.0,,,,,,5995889da2bbe000018833d9,16:55:20,27/03/2024
html-keyboard-response,13,22598,0.0-6.0-1.0,,"<div style=""display: flex; flex-direction: column; align-items: center; margin-top: -40px;""><img src=""images/demo_images/pattern_1.png"" style=""width: 234px; height: 230px; margin-top: -50px;""><div style=""display: flex; justify-content: space-between; margin-top: 33px;""><img src=""images/demo_images/choice_trial_1.png"" style=""width: 408px; height: 417px; margin-right: 608px;""></div></div>",,delaylearn,learning,display_response,64jA2Z6pdvMj3aX0893vBGxOxJu2,64jA2Z6pdvMj3aX0893vBGxOxJu2,,,,,,,,,,,,,,,,,chosen stimuli: images/demo_images/choice_trial_1.png,,,,,5995889da2bbe000018833d9,16:55:20,27/03/2024
html-keyboard-response,14,25599,0.0-6.0-2.0,,,,delaylearn,learning,feedback_duration_window,64jA2Z6pdvMj3aX0893vBGxOxJu2,64jA2Z6pdvMj3aX0893vBGxOxJu2,,,,,,,,,,,,,,,,,,3000.0,,,,5995889da2bbe000018833d9,16:55:20,27/03/2024
html-keyboard-response,15,27102,0.0-6.0-3.0,,<div style='margin:auto;width: auto; font-size: 150%'><span style='font-weight: bold; font-size: 100px; color: red;'>0 points!</span><br><br></div>,,delaylearn,learning,feedback_image_window,64jA2Z6pdvMj3aX0893vBGxOxJu2,64jA2Z6pdvMj3aX0893vBGxOxJu2,,,,,,,,,,,,,,,,,,,,,,5995889da2bbe000018833d9,16:55:20,27/03/2024
html-keyboard-response,16,28783,0.0-7.0,,"<div style=""font-size:100px;"">+</div>",,delaylearn,learning,ITI,64jA2Z6pdvMj3aX0893vBGxOxJu2,64jA2Z6pdvMj3aX0893vBGxOxJu2,,,,,,,,,,,,,,,,,,,1680.0,,,5995889da2bbe000018833d9,16:55:20,27/03/2024
html-keyboard-response,17,29775,0.0-8.0-0.0,989.6999999992549,"<div style=""display: flex; flex-direction: column; align-items: center; margin-top: -40px;""><img src=""images/demo_images/pattern_1.png"" style=""width: 234px; height: 230px; margin-top: -50px;""><div style=""display: flex; justify-content: space-between; margin-top: 33px;""><img src=""images/demo_images/choice_trial_1.png"" style=""width: 408px; height: 417px; margin-right: 200px;""><img src=""images/demo_images/choice_trial_2.png"" style=""width: 408px; height: 417px;""></div></div>",j,delaylearn,learning,trial,64jA2Z6pdvMj3aX0893vBGxOxJu2,64jA2Z6pdvMj3aX0893vBGxOxJu2,3.0,images/demo_images/choice_trial_1.png,images/demo_images/choice_trial_2.png,images/demo_images/pattern_1.png,f,f,3000.0,1.0,2.0,20.0,0.0,4.0,0.0,0.0,2.0,10.0,,,,,,5995889da2bbe000018833d9,16:55:20,27/03/2024
html-keyboard-response,18,30778,0.0-8.0-1.0,,"<div style=""display: flex; flex-direction: column; align-items: center; margin-top: -40px;""><img src=""images/demo_images/pattern_1.png"" style=""width: 234px; height: 230px; margin-top: -50px;""><div style=""display: flex; justify-content: space-between; margin-top: 33px;""><img src=""images/demo_images/choice_trial_2.png"" style=""width: 408px; height: 417px; margin-left:608px;""></div></div>",,delaylearn,learning,display_response,64jA2Z6pdvMj3aX0893vBGxOxJu2,64jA2Z6pdvMj3aX0893vBGxOxJu2,,,,,,,,,,,,,,,,,chosen stimuli: images/demo_images/choice_trial_2.png,,,,,5995889da2bbe000018833d9,16:55:20,27/03/2024
html-keyboard-response,19,33780,0.0-8.0-2.0,,,,delaylearn,learning,feedback_duration_window,64jA2Z6pdvMj3aX0893vBGxOxJu2,64jA2Z6pdvMj3aX0893vBGxOxJu2,,,,,,,,,,,,,,,,,,3000.0,,,,5995889da2bbe000018833d9,16:55:20,27/03/2024
html-keyboard-response,20,35282,0.0-8.0-3.0,,<div style='margin:auto;width: auto; font-size: 150%'><span style='font-weight: bold; font-size: 100px; color: red;'>0 points!</span><br><br></div>,,delaylearn,learning,feedback_image_window,64jA2Z6pdvMj3aX0893vBGxOxJu2,64jA2Z6pdvMj3aX0893vBGxOxJu2,,,,,,,,,,,,,,,,,,,,,,5995889da2bbe000018833d9,16:55:20,27/03/2024
html-keyboard-response,21,35783,0.0-9.0-0.0,,,,,,mood_trial_fixation,64jA2Z6pdvMj3aX0893vBGxOxJu2,,,,,,,,,,,,,,,,,,,,,,,5995889da2bbe000018833d9,16:55:20,27/03/2024
lmdlab-html-vas-response,22,40073,0.0-9.0-1.0,3283.0,How happy are you right now?,0.17376413346492822,delaylearn,learning,mood_trial,64jA2Z6pdvMj3aX0893vBGxOxJu2,64jA2Z6pdvMj3aX0893vBGxOxJu2,,,,,,,,,,,,,,,,,,,,"['Very unhappy', 'Very happy']",,5995889da2bbe000018833d9,16:55:20,27/03/2024
html-keyboard-response,23,41590,0.0-10.0,,"<div style=""font-size:100px;"">+</div>",,delaylearn,learning,ITI,64jA2Z6pdvMj3aX0893vBGxOxJu2,64jA2Z6pdvMj3aX0893vBGxOxJu2,,,,,,,,,,,,,,,,,,,1514.0,,,5995889da2bbe000018833d9,16:55:20,27/03/2024
html-keyboard-response,24,42382,0.0-11.0-0.0,790.0,"<div style=""display: flex; flex-direction: column; align-items: center; margin-top: -40px;""><img src=""images/demo_images/pattern_1.png"" style=""width: 234px; height: 230px; margin-top: -50px;""><div style=""display: flex; justify-content: space-between; margin-top: 33px;""><img src=""images/demo_images/choice_trial_2.png"" style=""width: 408px; height: 417px; margin-right: 200px;""><img src=""images/demo_images/choice_trial_1.png"" style=""width: 408px; height: 417px;""></div></div>",f,delaylearn,learning,trial,64jA2Z6pdvMj3aX0893vBGxOxJu2,64jA2Z6pdvMj3aX0893vBGxOxJu2,3.0,images/demo_images/choice_trial_2.png,images/demo_images/choice_trial_1.png,images/demo_images/pattern_1.png,j,j,3000.0,2.0,1.0,20.0,1.0,5.0,0.0,0.0,2.0,10.0,,,,,,5995889da2bbe000018833d9,16:55:20,27/03/2024
html-keyboard-response,25,43385,0.0-11.0-1.0,,"<div style=""display: flex; flex-direction: column; align-items: center; margin-top: -40px;""><img src=""images/demo_images/pattern_1.png"" style=""width: 234px; height: 230px; margin-top: -50px;""><div style=""display: flex; justify-content: space-between; margin-top: 33px;""><img src=""images/demo_images/choice_trial_2.png"" style=""width: 408px; height: 417px; margin-right: 608px;""></div></div>",,delaylearn,learning,display_response,64jA2Z6pdvMj3aX0893vBGxOxJu2,64jA2Z6pdvMj3aX0893vBGxOxJu2,,,,,,,,,,,,,,,,,chosen stimuli: images/demo_images/choice_trial_2.png,,,,,5995889da2bbe000018833d9,16:55:20,27/03/2024
html-keyboard-response,26,46386,0.0-11.0-2.0,,,,delaylearn,learning,feedback_duration_window,64jA2Z6pdvMj3aX0893vBGxOxJu2,64jA2Z6pdvMj3aX0893vBGxOxJu2,,,,,,,,,,,,,,,,,,3000.0,,,,5995889da2bbe000018833d9,16:55:20,27/03/2024
html-keyboard-response,27,47889,0.0-11.0-3.0,,<div style='margin:auto;width: auto; font-size: 150%'><span style='font-weight: bold; font-size: 100px; color: red;'>0 points!</span><br><br></div>,,delaylearn,learning,feedback_image_window,64jA2Z6pdvMj3aX0893vBGxOxJu2,64jA2Z6pdvMj3aX0893vBGxOxJu2,,,,,,,,,,,,,,,,,,,,,,5995889da2bbe000018833d9,16:55:20,27/03/2024
html-keyboard-response,28,50199,0.0-12.0,,"<div style=""font-size:100px;"">+</div>",,delaylearn,learning,ITI,64jA2Z6pdvMj3aX0893vBGxOxJu2,64jA2Z6pdvMj3aX0893vBGxOxJu2,,,,,,,,,,,,,,,,,,,2309.0,,,5995889da2bbe000018833d9,16:55:20,27/03/2024
html-keyboard-response,29,51250,0.0-13.0-0.0,1048.6000000014901,"<div style=""display: flex; flex-direction: column; align-items: center; margin-top: -40px;""><img src=""images/demo_images/pattern_1.png"" style=""width: 234px; height: 230px; margin-top: -50px;""><div style=""display: flex; justify-content: space-between; margin-top: 33px;""><img src=""images/demo_images/choice_trial_1.png"" style=""width: 408px; height: 417px; margin-right: 200px;""><img src=""images/demo_images/choice_trial_2.png"" style=""width: 408px; height: 417px;""></div></div>",f,delaylearn,learning,trial,64jA2Z6pdvMj3aX0893vBGxOxJu2,64jA2Z6pdvMj3aX0893vBGxOxJu2,3.0,images/demo_images/choice_trial_1.png,images/demo_images/choice_trial_2.png,images/demo_images/pattern_1.png,f,f,3000.0,1.0,2.0,20.0,0.0,6.0,1.0,1.0,1.0,20.0,,,,,,5995889da2bbe000018833d9,16:55:20,27/03/2024
html-keyboard-response,30,52252,0.0-13.0-1.0,,"<div style=""display: flex; flex-direction: column; align-items: center; margin-top: -40px;""><img src=""images/demo_images/pattern_1.png"" style=""width: 234px; height: 230px; margin-top: -50px;""><div style=""display: flex; justify-content: space-between; margin-top: 33px;""><img src=""images/demo_images/choice_trial_1.png"" style=""width: 408px; height: 417px; margin-right: 608px;""></div></div>",,delaylearn,learning,display_response,64jA2Z6pdvMj3aX0893vBGxOxJu2,64jA2Z6pdvMj3aX0893vBGxOxJu2,,,,,,,,,,,,,,,,,chosen stimuli: images/demo_images/choice_trial_1.png,,,,,5995889da2bbe000018833d9,16:55:20,27/03/2024
html-keyboard-response,31,55254,0.0-13.0-2.0,,,,delaylearn,learning,feedback_duration_window,64jA2Z6pdvMj3aX0893vBGxOxJu2,64jA2Z6pdvMj3aX0893vBGxOxJu2,,,,,,,,,,,,,,,,,,3000.0,,,,5995889da2bbe000018833d9,16:55:20,27/03/2024
html-keyboard-response,32,56756,0.0-13.0-3.0,,<div style='margin:auto;width: auto; font-size: 150%'><span style='font-weight: bold; font-size: 100px; color: green;'>+10 points!</span><br><br></div>,,delaylearn,learning,feedback_image_window,64jA2Z6pdvMj3aX0893vBGxOxJu2,64jA2Z6pdvMj3aX0893vBGxOxJu2,,,,,,,,,,,,,,,,,,,,,,5995889da2bbe000018833d9,16:55:20,27/03/2024
html-keyboard-response,33,59137,0.0-14.0,,"<div style=""font-size:100px;"">+</div>",,delaylearn,learning,ITI,64jA2Z6pdvMj3aX0893vBGxOxJu2,64jA2Z6pdvMj3aX0893vBGxOxJu2,,,,,,,,,,,,,,,,,,,2380.0,,,5995889da2bbe000018833d9,16:55:20,27/03/2024
html-keyboard-response,34,59781,0.0-15.0-0.0,641.1000000014901,"<div style=""display: flex; flex-direction: column; align-items: center; margin-top: -40px;""><img src=""images/demo_images/pattern_1.png"" style=""width: 234px; height: 230px; margin-top: -50px;""><div style=""display: flex; justify-content: space-between; margin-top: 33px;""><img src=""images/demo_images/choice_trial_2.png"" style=""width: 408px; height: 417px; margin-right: 200px;""><img src=""images/demo_images/choice_trial_1.png"" style=""width: 408px; height: 417px;""></div></div>",j,delaylearn,learning,trial,64jA2Z6pdvMj3aX0893vBGxOxJu2,64jA2Z6pdvMj3aX0893vBGxOxJu2,3.0,images/demo_images/choice_trial_2.png,images/demo_images/choice_trial_1.png,images/demo_images/pattern_1.png,j,j,3000.0,2.0,1.0,20.0,1.0,7.0,1.0,1.0,1.0,30.0,,,,,,5995889da2bbe000018833d9,16:55:20,27/03/2024
html-keyboard-response,35,60782,0.0-15.0-1.0,,"<div style=""display: flex; flex-direction: column; align-items: center; margin-top: -40px;""><img src=""images/demo_images/pattern_1.png"" style=""width: 234px; height: 230px; margin-top: -50px;""><div style=""display: flex; justify-content: space-between; margin-top: 33px;""><img src=""images/demo_images/choice_trial_1.png"" style=""width: 408px; height: 417px; margin-left:608px;""></div></div>",,delaylearn,learning,display_response,64jA2Z6pdvMj3aX0893vBGxOxJu2,64jA2Z6pdvMj3aX0893vBGxOxJu2,,,,,,,,,,,,,,,,,chosen stimuli: images/demo_images/choice_trial_1.png,,,,,5995889da2bbe000018833d9,16:55:20,27/03/2024
html-keyboard-response,36,63784,0.0-15.0-2.0,,,,delaylearn,learning,feedback_duration_window,64jA2Z6pdvMj3aX0893vBGxOxJu2,64jA2Z6pdvMj3aX0893vBGxOxJu2,,,,,,,,,,,,,,,,,,3000.0,,,,5995889da2bbe000018833d9,16:55:20,27/03/2024
html-keyboard-response,37,65286,0.0-15.0-3.0,,<div style='margin:auto;width: auto; font-size: 150%'><span style='font-weight: bold; font-size: 100px; color: green;'>+10 points!</span><br><br></div>,,delaylearn,learning,feedback_image_window,64jA2Z6pdvMj3aX0893vBGxOxJu2,64jA2Z6pdvMj3aX0893vBGxOxJu2,,,,,,,,,,,,,,,,,,,,,,5995889da2bbe000018833d9,16:55:20,27/03/2024
html-keyboard-response,38,67699,0.0-16.0,,"<div style=""font-size:100px;"">+</div>",,delaylearn,learning,ITI,64jA2Z6pdvMj3aX0893vBGxOxJu2,64jA2Z6pdvMj3aX0893vBGxOxJu2,,,,,,,,,,,,,,,,,,,2412.0,,,5995889da2bbe000018833d9,16:55:20,27/03/2024
html-keyboard-response,39,68493,0.0-17.0-0.0,791.6999999992549,"<div style=""display: flex; flex-direction: column; align-items: center; margin-top: -40px;""><img src=""images/demo_images/pattern_1.png"" style=""width: 234px; height: 230px; margin-top: -50px;""><div style=""display: flex; justify-content: space-between; margin-top: 33px;""><img src=""images/demo_images/choice_trial_1.png"" style=""width: 408px; height: 417px; margin-right: 200px;""><img src=""images/demo_images/choice_trial_2.png"" style=""width: 408px; height: 417px;""></div></div>",f,delaylearn,learning,trial,64jA2Z6pdvMj3aX0893vBGxOxJu2,64jA2Z6pdvMj3aX0893vBGxOxJu2,3.0,images/demo_images/choice_trial_1.png,images/demo_images/choice_trial_2.png,images/demo_images/pattern_1.png,f,f,3000.0,1.0,2.0,20.0,0.0,8.0,1.0,1.0,1.0,40.0,,,,,,5995889da2bbe000018833d9,16:55:20,27/03/2024
html-keyboard-response,40,69495,0.0-17.0-1.0,,"<div style=""display: flex; flex-direction: column; align-items: center; margin-top: -40px;""><img src=""images/demo_images/pattern_1.png"" style=""width: 234px; height: 230px; margin-top: -50px;""><div style=""display: flex; justify-content: space-between; margin-top: 33px;""><img src=""images/demo_images/choice_trial_1.png"" style=""width: 408px; height: 417px; margin-right: 608px;""></div></div>",,delaylearn,learning,display_response,64jA2Z6pdvMj3aX0893vBGxOxJu2,64jA2Z6pdvMj3aX0893vBGxOxJu2,,,,,,,,,,,,,,,,,chosen stimuli: images/demo_images/choice_trial_1.png,,,,,5995889da2bbe000018833d9,16:55:20,27/03/2024
html-keyboard-response,41,72497,0.0-17.0-2.0,,,,delaylearn,learning,feedback_duration_window,64jA2Z6pdvMj3aX0893vBGxOxJu2,64jA2Z6pdvMj3aX0893vBGxOxJu2,,,,,,,,,,,,,,,,,,3000.0,,,,5995889da2bbe000018833d9,16:55:20,27/03/2024
html-keyboard-response,42,73999,0.0-17.0-3.0,,<div style='margin:auto;width: auto; font-size: 150%'><span style='font-weight: bold; font-size: 100px; color: green;'>+10 points!</span><br><br></div>,,delaylearn,learning,feedback_image_window,64jA2Z6pdvMj3aX0893vBGxOxJu2,64jA2Z6pdvMj3aX0893vBGxOxJu2,,,,,,,,,,,,,,,,,,,,,,5995889da2bbe000018833d9,16:55:20,27/03/2024
html-button-response,43,88239,0.0-18.0,14238.300000000745,"
  <div style=""display: flex; align-items: center; justify-content: center; height: 80vh;"">
  <div>
          <img src=""images/inst_demo_finish.png"" style=""width: 80vw; height:auto;"">
          <br><br>
      </div>
      <br><br>
  </div>",0,,,,64jA2Z6pdvMj3aX0893vBGxOxJu2,,,,,,,,,,,,,,,,,,,,,,,5995889da2bbe000018833d9,16:55:20,27/03/2024
html-keyboard-response,44,91102,0.0-19.0,2861.800000000745,"
  <div style=""display: flex; align-items: center; justify-content: center; height: 80vh;"">
  <div>
          <img src=""images/inst_6.png"" style=""width: 80vw; height:auto;"">
          <br><br>
      </div>
      <br><br>
  </div>",f,,,,64jA2Z6pdvMj3aX0893vBGxOxJu2,,,,,,,,,,,,,,,,,,,,,,,5995889da2bbe000018833d9,16:55:20,27/03/2024
html-keyboard-response,45,94105,0.0-20.0,,"<div style=""font-size:100px;"">+</div>",,delaylearn,learning,pre_fixation,64jA2Z6pdvMj3aX0893vBGxOxJu2,,,,,,,,,,,,,,,,,,,,,,,5995889da2bbe000018833d9,16:55:20,27/03/2024
html-keyboard-response,46,95911,0.0-21.0,,"<div style=""font-size:100px;"">+</div>",,delaylearn,learning,ITI,64jA2Z6pdvMj3aX0893vBGxOxJu2,64jA2Z6pdvMj3aX0893vBGxOxJu2,,,,,,,,,,,,,,,,,,,1805.0,,,5995889da2bbe000018833d9,16:55:20,27/03/2024
html-keyboard-response,47,96820,0.0-22.0-0.0,906.5,"<div style=""display: flex; flex-direction: column; align-items: center; margin-top: -40px;""><img src=""images/pattern_3.png"" style=""width: 234px; height: 230px; margin-top: -50px;""><div style=""display: flex; justify-content: space-between; margin-top: 33px;""><img src=""images/choice_trial_13.png"" style=""width: 408px; height: 417px; margin-right: 200px;""><img src=""images/choice_trial_10.png"" style=""width: 408px; height: 417px;""></div></div>",f,delaylearn,learning,trial,64jA2Z6pdvMj3aX0893vBGxOxJu2,64jA2Z6pdvMj3aX0893vBGxOxJu2,3.0,images/choice_trial_13.png,images/choice_trial_10.png,images/pattern_3.png,f,f,7000.0,13.0,10.0,2.0,0.0,9.0,1.0,1.0,13.0,50.0,,,,,,5995889da2bbe000018833d9,16:55:20,27/03/2024
html-keyboard-response,48,97822,0.0-22.0-1.0,,"<div style=""display: flex; flex-direction: column; align-items: center; margin-top: -40px;""><img src=""images/pattern_3.png"" style=""width: 234px; height: 230px; margin-top: -50px;""><div style=""display: flex; justify-content: space-between; margin-top: 33px;""><img src=""images/choice_trial_13.png"" style=""width: 408px; height: 417px; margin-right: 608px;""></div></div>",,delaylearn,learning,display_response,64jA2Z6pdvMj3aX0893vBGxOxJu2,64jA2Z6pdvMj3aX0893vBGxOxJu2,,,,,,,,,,,,,,,,,chosen stimuli: images/choice_trial_13.png,,,,,5995889da2bbe000018833d9,16:55:20,27/03/2024
html-keyboard-response,49,104824,0.0-22.0-2.0,,,,delaylearn,learning,feedback_duration_window,64jA2Z6pdvMj3aX0893vBGxOxJu2,64jA2Z6pdvMj3aX0893vBGxOxJu2,,,,,,,,,,,,,,,,,,7000.0,,,,5995889da2bbe000018833d9,16:55:20,27/03/2024
html-keyboard-response,50,106326,0.0-22.0-3.0,,<div style='margin:auto;width: auto; font-size: 150%'><span style='font-weight: bold; font-size: 100px; color: green;'>+10 points!</span><br><br></div>,,delaylearn,learning,feedback_image_window,64jA2Z6pdvMj3aX0893vBGxOxJu2,64jA2Z6pdvMj3aX0893vBGxOxJu2,,,,,,,,,,,,,,,,,,,,,,5995889da2bbe000018833d9,16:55:20,27/03/2024
html-keyboard-response,51,108567,0.0-23.0,,"<div style=""font-size:100px;"">+</div>",,delaylearn,learning,ITI,64jA2Z6pdvMj3aX0893vBGxOxJu2,64jA2Z6pdvMj3aX0893vBGxOxJu2,,,,,,,,,,,,,,,,,,,2240.0,,,5995889da2bbe000018833d9,16:55:20,27/03/2024
html-keyboard-response,52,109906,0.0-24.0-0.0,1337.800000000745,"<div style=""display: flex; flex-direction: column; align-items: center; margin-top: -40px;""><img src=""images/pattern_7.png"" style=""width: 234px; height: 230px; margin-top: -50px;""><div style=""display: flex; justify-content: space-between; margin-top: 33px;""><img src=""images/choice_trial_12.png"" style=""width: 408px; height: 417px; margin-right: 200px;""><img src=""images/choice_trial_6.png"" style=""width: 408px; height: 417px;""></div></div>",j,delaylearn,learning,trial,64jA2Z6pdvMj3aX0893vBGxOxJu2,64jA2Z6pdvMj3aX0893vBGxOxJu2,3.0,images/choice_trial_12.png,images/choice_trial_6.png,images/pattern_7.png,j,j,750.0,12.0,6.0,6.0,1.0,10.0,1.0,1.0,6.0,60.0,,,,,,5995889da2bbe000018833d9,16:55:20,27/03/2024
html-keyboard-response,53,110909,0.0-24.0-1.0,,"<div style=""display: flex; flex-direction: column; align-items: center; margin-top: -40px;""><img src=""images/pattern_7.png"" style=""width: 234px; height: 230px; margin-top: -50px;""><div style=""display: flex; justify-content: space-between; margin-top: 33px;""><img src=""images/choice_trial_6.png"" style=""width: 408px; height: 417px; margin-left:608px;""></div></div>",,delaylearn,learning,display_response,64jA2Z6pdvMj3aX0893vBGxOxJu2,64jA2Z6pdvMj3aX0893vBGxOxJu2,,,,,,,,,,,,,,,,,chosen stimuli: images/choice_trial_6.png,,,,,5995889da2bbe000018833d9,16:55:20,27/03/2024
html-keyboard-response,54,111661,0.0-24.0-2.0,,,,delaylearn,learning,feedback_duration_window,64jA2Z6pdvMj3aX0893vBGxOxJu2,64jA2Z6pdvMj3aX0893vBGxOxJu2,,,,,,,,,,,,,,,,,,750.0,,,,5995889da2bbe000018833d9,16:55:20,27/03/2024
html-keyboard-response,55,113164,0.0-24.0-3.0,,<div style='margin:auto;width: auto; font-size: 150%'><span style='font-weight: bold; font-size: 100px; color: green;'>+10 points!</span><br><br></div>,,delaylearn,learning,feedback_image_window,64jA2Z6pdvMj3aX0893vBGxOxJu2,64jA2Z6pdvMj3aX0893vBGxOxJu2,,,,,,,,,,,,,,,,,,,,,,5995889da2bbe000018833d9,16:55:20,27/03/2024
html-keyboard-response,56,114896,0.0-25.0,,"<div style=""font-size:100px;"">+</div>",,delaylearn,learning,ITI,64jA2Z6pdvMj3aX0893vBGxOxJu2,64jA2Z6pdvMj3aX0893vBGxOxJu2,,,,,,,,,,,,,,,,,,,1731.0,,,5995889da2bbe000018833d9,16:55:20,27/03/2024
html-keyboard-response,57,116277,0.0-26.0-0.0,1379.0,"<div style=""display: flex; flex-direction: column; align-items: center; margin-top: -40px;""><img src=""images/pattern_4.png"" style=""width: 234px; height: 230px; margin-top: -50px;""><div style=""display: flex; justify-content: space-between; margin-top: 33px;""><img src=""images/choice_trial_15.png"" style=""width: 408px; height: 417px; margin-right: 200px;""><img src=""images/choice_trial_9.png"" style=""width: 408px; height: 417px;""></div></div>",f,delaylearn,learning,trial,64jA2Z6pdvMj3aX0893vBGxOxJu2,64jA2Z6pdvMj3aX0893vBGxOxJu2,3.0,images/choice_trial_15.png,images/choice_trial_9.png,images/pattern_4.png,f,f,7000.0,15.0,9.0,3.0,0.0,11.0,1.0,1.0,15.0,70.0,,,,,,5995889da2bbe000018833d9,16:55:20,27/03/2024
html-keyboard-response,58,117280,0.0-26.0-1.0,,"<div style=""display: flex; flex-direction: column; align-items: center; margin-top: -40px;""><img src=""images/pattern_4.png"" style=""width: 234px; height: 230px; margin-top: -50px;""><div style=""display: flex; justify-content: space-between; margin-top: 33px;""><img src=""images/choice_trial_15.png"" style=""width: 408px; height: 417px; margin-right: 608px;""></div></div>",,delaylearn,learning,display_response,64jA2Z6pdvMj3aX0893vBGxOxJu2,64jA2Z6pdvMj3aX0893vBGxOxJu2,,,,,,,,,,,,,,,,,chosen stimuli: images/choice_trial_15.png,,,,,5995889da2bbe000018833d9,16:55:20,27/03/2024
html-keyboard-response,59,124282,0.0-26.0-2.0,,,,delaylearn,learning,feedback_duration_window,64jA2Z6pdvMj3aX0893vBGxOxJu2,64jA2Z6pdvMj3aX0893vBGxOxJu2,,,,,,,,,,,,,,,,,,7000.0,,,,5995889da2bbe000018833d9,16:55:20,27/03/2024
html-keyboard-response,60,125784,0.0-26.0-3.0,,<div style='margin:auto;width: auto; font-size: 150%'><span style='font-weight: bold; font-size: 100px; color: green;'>+10 points!</span><br><br></div>,,delaylearn,learning,feedback_image_window,64jA2Z6pdvMj3aX0893vBGxOxJu2,64jA2Z6pdvMj3aX0893vBGxOxJu2,,,,,,,,,,,,,,,,,,,,,,5995889da2bbe000018833d9,16:55:20,27/03/2024
html-keyboard-response,61,127869,0.0-27.0,,"<div style=""font-size:100px;"">+</div>",,delaylearn,learning,ITI,64jA2Z6pdvMj3aX0893vBGxOxJu2,64jA2Z6pdvMj3aX0893vBGxOxJu2,,,,,,,,,,,,,,,,,,,2084.0,,,5995889da2bbe000018833d9,16:55:20,27/03/2024
html-keyboard-response,62,129230,0.0-28.0-0.0,1358.0,"<div style=""display: flex; flex-direction: column; align-items: center; margin-top: -40px;""><img src=""images/pattern_5.png"" style=""width: 234px; height: 230px; margin-top: -50px;""><div style=""display: flex; justify-content: space-between; margin-top: 33px;""><img src=""images/choice_trial_2.png"" style=""width: 408px; height: 417px; margin-right: 200px;""><img src=""images/choice_trial_11.png"" style=""width: 408px; height: 417px;""></div></div>",j,delaylearn,learning,trial,64jA2Z6pdvMj3aX0893vBGxOxJu2,64jA2Z6pdvMj3aX0893vBGxOxJu2,3.0,images/choice_trial_2.png,images/choice_trial_11.png,images/pattern_5.png,j,j,750.0,2.0,11.0,4.0,1.0,12.0,1.0,1.0,11.0,80.0,,,,,,5995889da2bbe000018833d9,16:55:20,27/03/2024
html-keyboard-response,63,130233,0.0-28.0-1.0,,"<div style=""display: flex; flex-direction: column; align-items: center; margin-top: -40px;""><img src=""images/pattern_5.png"" style=""width: 234px; height: 230px; margin-top: -50px;""><div style=""display: flex; justify-content: space-between; margin-top: 33px;""><img src=""images/choice_trial_11.png"" style=""width: 408px; height: 417px; margin-left:608px;""></div></div>",,delaylearn,learning,display_response,64jA2Z6pdvMj3aX0893vBGxOxJu2,64jA2Z6pdvMj3aX0893vBGxOxJu2,,,,,,,,,,,,,,,,,chosen stimuli: images/choice_trial_11.png,,,,,5995889da2bbe000018833d9,16:55:20,27/03/2024
html-keyboard-response,64,130985,0.0-28.0-2.0,,,,delaylearn,learning,feedback_duration_window,64jA2Z6pdvMj3aX0893vBGxOxJu2,64jA2Z6pdvMj3aX0893vBGxOxJu2,,,,,,,,,,,,,,,,,,750.0,,,,5995889da2bbe000018833d9,16:55:20,27/03/2024
html-keyboard-response,65,132486,0.0-28.0-3.0,,<div style='margin:auto;width: auto; font-size: 150%'><span style='font-weight: bold; font-size: 100px; color: green;'>+10 points!</span><br><br></div>,,delaylearn,learning,feedback_image_window,64jA2Z6pdvMj3aX0893vBGxOxJu2,64jA2Z6pdvMj3aX0893vBGxOxJu2,,,,,,,,,,,,,,,,,,,,,,5995889da2bbe000018833d9,16:55:20,27/03/2024
html-keyboard-response,66,134662,0.0-29.0,,"<div style=""font-size:100px;"">+</div>",,delaylearn,learning,ITI,64jA2Z6pdvMj3aX0893vBGxOxJu2,64jA2Z6pdvMj3aX0893vBGxOxJu2,,,,,,,,,,,,,,,,,,,2174.0,,,5995889da2bbe000018833d9,16:55:20,27/03/2024
html-keyboard-response,67,136063,0.0-30.0-0.0,1398.6000000014901,"<div style=""display: flex; flex-direction: column; align-items: center; margin-top: -40px;""><img src=""images/pattern_6.png"" style=""width: 234px; height: 230px; margin-top: -50px;""><div style=""display: flex; justify-content: space-between; margin-top: 33px;""><img src=""images/choice_trial_16.png"" style=""width: 408px; height: 417px; margin-right: 200px;""><img src=""images/choice_trial_3.png"" style=""width: 408px; height: 417px;""></div></div>",f,delaylearn,learning,trial,64jA2Z6pdvMj3aX0893vBGxOxJu2,64jA2Z6pdvMj3aX0893vBGxOxJu2,3.0,images/choice_trial_16.png,images/choice_trial_3.png,images/pattern_6.png,j,f,750.0,16.0,3.0,5.0,0.0,13.0,1.0,0.0,16.0,80.0,,,,,,5995889da2bbe000018833d9,16:55:20,27/03/2024
html-keyboard-response,68,137064,0.0-30.0-1.0,,"<div style=""display: flex; flex-direction: column; align-items: center; margin-top: -40px;""><img src=""images/pattern_6.png"" style=""width: 234px; height: 230px; margin-top: -50px;""><div style=""display: flex; justify-content: space-between; margin-top: 33px;""><img src=""images/choice_trial_16.png"" style=""width: 408px; height: 417px; margin-right: 608px;""></div></div>",,delaylearn,learning,display_response,64jA2Z6pdvMj3aX0893vBGxOxJu2,64jA2Z6pdvMj3aX0893vBGxOxJu2,,,,,,,,,,,,,,,,,chosen stimuli: images/choice_trial_16.png,,,,,5995889da2bbe000018833d9,16:55:20,27/03/2024
html-keyboard-response,69,137816,0.0-30.0-2.0,,,,delaylearn,learning,feedback_duration_window,64jA2Z6pdvMj3aX0893vBGxOxJu2,64jA2Z6pdvMj3aX0893vBGxOxJu2,,,,,,,,,,,,,,,,,,750.0,,,,5995889da2bbe000018833d9,16:55:20,27/03/2024
html-keyboard-response,70,139318,0.0-30.0-3.0,,<div style='margin:auto;width: auto; font-size: 150%'><span style='font-weight: bold; font-size: 100px; color: red;'>0 points!</span><br><br></div>,,delaylearn,learning,feedback_image_window,64jA2Z6pdvMj3aX0893vBGxOxJu2,64jA2Z6pdvMj3aX0893vBGxOxJu2,,,,,,,,,,,,,,,,,,,,,,5995889da2bbe000018833d9,16:55:20,27/03/2024
html-keyboard-response,71,139820,0.0-31.0-0.0,,,,,,mood_trial_fixation,64jA2Z6pdvMj3aX0893vBGxOxJu2,,,,,,,,,,,,,,,,,,,,,,,5995889da2bbe000018833d9,16:55:20,27/03/2024
lmdlab-html-vas-response,72,144128,0.0-31.0-1.0,3304.0,How happy are you right now?,0.8493030665073675,delaylearn,learning,mood_trial,64jA2Z6pdvMj3aX0893vBGxOxJu2,64jA2Z6pdvMj3aX0893vBGxOxJu2,,,,,,,,,,,,,,,,,,,,"['Very unhappy', 'Very happy']",,5995889da2bbe000018833d9,16:55:20,27/03/2024
html-keyboard-response,73,145994,0.0-32.0,,"<div style=""font-size:100px;"">+</div>",,delaylearn,learning,ITI,64jA2Z6pdvMj3aX0893vBGxOxJu2,64jA2Z6pdvMj3aX0893vBGxOxJu2,,,,,,,,,,,,,,,,,,,1864.0,,,5995889da2bbe000018833d9,16:55:20,27/03/2024
html-keyboard-response,74,146899,0.0-33.0-0.0,902.5,"<div style=""display: flex; flex-direction: column; align-items: center; margin-top: -40px;""><img src=""images/pattern_1.png"" style=""width: 234px; height: 230px; margin-top: -50px;""><div style=""display: flex; justify-content: space-between; margin-top: 33px;""><img src=""images/choice_trial_8.png"" style=""width: 408px; height: 417px; margin-right: 200px;""><img src=""images/choice_trial_14.png"" style=""width: 408px; height: 417px;""></div></div>",j,delaylearn,learning,trial,64jA2Z6pdvMj3aX0893vBGxOxJu2,64jA2Z6pdvMj3aX0893vBGxOxJu2,3.0,images/choice_trial_8.png,images/choice_trial_14.png,images/pattern_1.png,j,j,7000.0,8.0,14.0,1.0,1.0,14.0,1.0,1.0,14.0,90.0,,,,,,5995889da2bbe000018833d9,16:55:20,27/03/2024
html-keyboard-response,75,147902,0.0-33.0-1.0,,"<div style=""display: flex; flex-direction: column; align-items: center; margin-top: -40px;""><img src=""images/pattern_1.png"" style=""width: 234px; height: 230px; margin-top: -50px;""><div style=""display: flex; justify-content: space-between; margin-top: 33px;""><img src=""images/choice_trial_14.png"" style=""width: 408px; height: 417px; margin-left:608px;""></div></div>",,delaylearn,learning,display_response,64jA2Z6pdvMj3aX0893vBGxOxJu2,64jA2Z6pdvMj3aX0893vBGxOxJu2,,,,,,,,,,,,,,,,,chosen stimuli: images/choice_trial_14.png,,,,,5995889da2bbe000018833d9,16:55:20,27/03/2024
html-keyboard-response,76,154904,0.0-33.0-2.0,,,,delaylearn,learning,feedback_duration_window,64jA2Z6pdvMj3aX0893vBGxOxJu2,64jA2Z6pdvMj3aX0893vBGxOxJu2,,,,,,,,,,,,,,,,,,7000.0,,,,5995889da2bbe000018833d9,16:55:20,27/03/2024
html-keyboard-response,77,156406,0.0-33.0-3.0,,<div style='margin:auto;width: auto; font-size: 150%'><span style='font-weight: bold; font-size: 100px; color: green;'>+10 points!</span><br><br></div>,,delaylearn,learning,feedback_image_window,64jA2Z6pdvMj3aX0893vBGxOxJu2,64jA2Z6pdvMj3aX0893vBGxOxJu2,,,,,,,,,,,,,,,,,,,,,,5995889da2bbe000018833d9,16:55:20,27/03/2024
html-keyboard-response,78,158406,0.0-34.0,,"<div style=""font-size:100px;"">+</div>",,delaylearn,learning,ITI,64jA2Z6pdvMj3aX0893vBGxOxJu2,64jA2Z6pdvMj3aX0893vBGxOxJu2,,,,,,,,,,,,,,,,,,,1999.0,,,5995889da2bbe000018833d9,16:55:20,27/03/2024
html-keyboard-response,79,159927,0.0-35.0-0.0,1518.7999999970198,"<div style=""display: flex; flex-direction: column; align-items: center; margin-top: -40px;""><img src=""images/pattern_3.png"" style=""width: 234px; height: 230px; margin-top: -50px;""><div style=""display: flex; justify-content: space-between; margin-top: 33px;""><img src=""images/choice_trial_10.png"" style=""width: 408px; height: 417px; margin-right: 200px;""><img src=""images/choice_trial_13.png"" style=""width: 408px; height: 417px;""></div></div>",f,delaylearn,learning,trial,64jA2Z6pdvMj3aX0893vBGxOxJu2,64jA2Z6pdvMj3aX0893vBGxOxJu2,3.0,images/choice_trial_10.png,images/choice_trial_13.png,images/pattern_3.png,f,j,7000.0,10.0,13.0,2.0,1.0,15.0,0.0,1.0,10.0,100.0,,,,,,5995889da2bbe000018833d9,16:55:20,27/03/2024
html-keyboard-response,80,160929,0.0-35.0-1.0,,"<div style=""display: flex; flex-direction: column; align-items: center; margin-top: -40px;""><img src=""images/pattern_3.png"" style=""width: 234px; height: 230px; margin-top: -50px;""><div style=""display: flex; justify-content: space-between; margin-top: 33px;""><img src=""images/choice_trial_10.png"" style=""width: 408px; height: 417px; margin-right: 608px;""></div></div>",,delaylearn,learning,display_response,64jA2Z6pdvMj3aX0893vBGxOxJu2,64jA2Z6pdvMj3aX0893vBGxOxJu2,,,,,,,,,,,,,,,,,chosen stimuli: images/choice_trial_10.png,,,,,5995889da2bbe000018833d9,16:55:20,27/03/2024
html-keyboard-response,81,167931,0.0-35.0-2.0,,,,delaylearn,learning,feedback_duration_window,64jA2Z6pdvMj3aX0893vBGxOxJu2,64jA2Z6pdvMj3aX0893vBGxOxJu2,,,,,,,,,,,,,,,,,,7000.0,,,,5995889da2bbe000018833d9,16:55:20,27/03/2024
html-keyboard-response,82,169434,0.0-35.0-3.0,,<div style='margin:auto;width: auto; font-size: 150%'><span style='font-weight: bold; font-size: 100px; color: green;'>+10 points!</span><br><br></div>,,delaylearn,learning,feedback_image_window,64jA2Z6pdvMj3aX0893vBGxOxJu2,64jA2Z6pdvMj3aX0893vBGxOxJu2,,,,,,,,,,,,,,,,,,,,,,5995889da2bbe000018833d9,16:55:20,27/03/2024
html-keyboard-response,83,171206,0.0-36.0,,"<div style=""font-size:100px;"">+</div>",,delaylearn,learning,ITI,64jA2Z6pdvMj3aX0893vBGxOxJu2,64jA2Z6pdvMj3aX0893vBGxOxJu2,,,,,,,,,,,,,,,,,,,1770.0,,,5995889da2bbe000018833d9,16:55:20,27/03/2024
html-keyboard-response,84,172607,0.0-37.0-0.0,1398.2999999970198,"<div style=""display: flex; flex-direction: column; align-items: center; margin-top: -40px;""><img src=""images/pattern_5.png"" style=""width: 234px; height: 230px; margin-top: -50px;""><div style=""display: flex; justify-content: space-between; margin-top: 33px;""><img src=""images/choice_trial_11.png"" style=""width: 408px; height: 417px; margin-right: 200px;""><img src=""images/choice_trial_2.png"" style=""width: 408px; height: 417px;""></div></div>",f,delaylearn,learning,trial,64jA2Z6pdvMj3aX0893vBGxOxJu2,64jA2Z6pdvMj3aX0893vBGxOxJu2,3.0,images/choice_trial_11.png,images/choice_trial_2.png,images/pattern_5.png,f,f,750.0,11.0,2.0,4.0,0.0,16.0,1.0,1.0,11.0,110.0,,,,,,5995889da2bbe000018833d9,16:55:20,27/03/2024
html-keyboard-response,85,173609,0.0-37.0-1.0,,"<div style=""display: flex; flex-direction: column; align-items: center; margin-top: -40px;""><img src=""images/pattern_5.png"" style=""width: 234px; height: 230px; margin-top: -50px;""><div style=""display: flex; justify-content: space-between; margin-top: 33px;""><img src=""images/choice_trial_11.png"" style=""width: 408px; height: 417px; margin-right: 608px;""></div></div>",,delaylearn,learning,display_response,64jA2Z6pdvMj3aX0893vBGxOxJu2,64jA2Z6pdvMj3aX0893vBGxOxJu2,,,,,,,,,,,,,,,,,chosen stimuli: images/choice_trial_11.png,,,,,5995889da2bbe000018833d9,16:55:20,27/03/2024
html-keyboard-response,86,174361,0.0-37.0-2.0,,,,delaylearn,learning,feedback_duration_window,64jA2Z6pdvMj3aX0893vBGxOxJu2,64jA2Z6pdvMj3aX0893vBGxOxJu2,,,,,,,,,,,,,,,,,,750.0,,,,5995889da2bbe000018833d9,16:55:20,27/03/2024
html-keyboard-response,87,175863,0.0-37.0-3.0,,<div style='margin:auto;width: auto; font-size: 150%'><span style='font-weight: bold; font-size: 100px; color: green;'>+10 points!</span><br><br></div>,,delaylearn,learning,feedback_image_window,64jA2Z6pdvMj3aX0893vBGxOxJu2,64jA2Z6pdvMj3aX0893vBGxOxJu2,,,,,,,,,,,,,,,,,,,,,,5995889da2bbe000018833d9,16:55:20,27/03/2024
html-keyboard-response,88,176365,0.0-38.0-0.0,,,,,,mood_trial_fixation,64jA2Z6pdvMj3aX0893vBGxOxJu2,,,,,,,,,,,,,,,,,,,,,,,5995889da2bbe000018833d9,16:55:20,27/03/2024
lmdlab-html-vas-response,89,185064,0.0-38.0-1.0,7695.0,How happy are you right now?,0.9911485117656226,delaylearn,learning,mood_trial,64jA2Z6pdvMj3aX0893vBGxOxJu2,64jA2Z6pdvMj3aX0893vBGxOxJu2,,,,,,,,,,,,,,,,,,,,"['Very unhappy', 'Very happy']",,5995889da2bbe000018833d9,16:55:20,27/03/2024
html-keyboard-response,90,186992,0.0-39.0,,"<div style=""font-size:100px;"">+</div>",,delaylearn,learning,ITI,64jA2Z6pdvMj3aX0893vBGxOxJu2,64jA2Z6pdvMj3aX0893vBGxOxJu2,,,,,,,,,,,,,,,,,,,1926.0,,,5995889da2bbe000018833d9,16:55:20,27/03/2024
html-keyboard-response,91,188347,0.0-40.0-0.0,1352.5,"<div style=""display: flex; flex-direction: column; align-items: center; margin-top: -40px;""><img src=""images/pattern_6.png"" style=""width: 234px; height: 230px; margin-top: -50px;""><div style=""display: flex; justify-content: space-between; margin-top: 33px;""><img src=""images/choice_trial_16.png"" style=""width: 408px; height: 417px; margin-right: 200px;""><img src=""images/choice_trial_3.png"" style=""width: 408px; height: 417px;""></div></div>",f,delaylearn,learning,trial,64jA2Z6pdvMj3aX0893vBGxOxJu2,64jA2Z6pdvMj3aX0893vBGxOxJu2,3.0,images/choice_trial_16.png,images/choice_trial_3.png,images/pattern_6.png,f,f,750.0,16.0,3.0,5.0,0.0,17.0,1.0,1.0,16.0,120.0,,,,,,5995889da2bbe000018833d9,16:55:20,27/03/2024
html-keyboard-response,92,189349,0.0-40.0-1.0,,"<div style=""display: flex; flex-direction: column; align-items: center; margin-top: -40px;""><img src=""images/pattern_6.png"" style=""width: 234px; height: 230px; margin-top: -50px;""><div style=""display: flex; justify-content: space-between; margin-top: 33px;""><img src=""images/choice_trial_16.png"" style=""width: 408px; height: 417px; margin-right: 608px;""></div></div>",,delaylearn,learning,display_response,64jA2Z6pdvMj3aX0893vBGxOxJu2,64jA2Z6pdvMj3aX0893vBGxOxJu2,,,,,,,,,,,,,,,,,chosen stimuli: images/choice_trial_16.png,,,,,5995889da2bbe000018833d9,16:55:20,27/03/2024
html-keyboard-response,93,190100,0.0-40.0-2.0,,,,delaylearn,learning,feedback_duration_window,64jA2Z6pdvMj3aX0893vBGxOxJu2,64jA2Z6pdvMj3aX0893vBGxOxJu2,,,,,,,,,,,,,,,,,,750.0,,,,5995889da2bbe000018833d9,16:55:20,27/03/2024
html-keyboard-response,94,191602,0.0-40.0-3.0,,<div style='margin:auto;width: auto; font-size: 150%'><span style='font-weight: bold; font-size: 100px; color: green;'>+10 points!</span><br><br></div>,,delaylearn,learning,feedback_image_window,64jA2Z6pdvMj3aX0893vBGxOxJu2,64jA2Z6pdvMj3aX0893vBGxOxJu2,,,,,,,,,,,,,,,,,,,,,,5995889da2bbe000018833d9,16:55:20,27/03/2024
html-keyboard-response,95,194073,0.0-41.0,,"<div style=""font-size:100px;"">+</div>",,delaylearn,learning,ITI,64jA2Z6pdvMj3aX0893vBGxOxJu2,64jA2Z6pdvMj3aX0893vBGxOxJu2,,,,,,,,,,,,,,,,,,,2470.0,,,5995889da2bbe000018833d9,16:55:20,27/03/2024
html-keyboard-response,96,195289,0.0-42.0-0.0,1214.1000000014901,"<div style=""display: flex; flex-direction: column; align-items: center; margin-top: -40px;""><img src=""images/pattern_4.png"" style=""width: 234px; height: 230px; margin-top: -50px;""><div style=""display: flex; justify-content: space-between; margin-top: 33px;""><img src=""images/choice_trial_9.png"" style=""width: 408px; height: 417px; margin-right: 200px;""><img src=""images/choice_trial_15.png"" style=""width: 408px; height: 417px;""></div></div>",j,delaylearn,learning,trial,64jA2Z6pdvMj3aX0893vBGxOxJu2,64jA2Z6pdvMj3aX0893vBGxOxJu2,3.0,images/choice_trial_9.png,images/choice_trial_15.png,images/pattern_4.png,j,j,7000.0,9.0,15.0,3.0,1.0,18.0,1.0,1.0,15.0,130.0,,,,,,5995889da2bbe000018833d9,16:55:20,27/03/2024
html-keyboard-response,97,196292,0.0-42.0-1.0,,"<div style=""display: flex; flex-direction: column; align-items: center; margin-top: -40px;""><img src=""images/pattern_4.png"" style=""width: 234px; height: 230px; margin-top: -50px;""><div style=""display: flex; justify-content: space-between; margin-top: 33px;""><img src=""images/choice_trial_15.png"" style=""width: 408px; height: 417px; margin-left:608px;""></div></div>",,delaylearn,learning,display_response,64jA2Z6pdvMj3aX0893vBGxOxJu2,64jA2Z6pdvMj3aX0893vBGxOxJu2,,,,,,,,,,,,,,,,,chosen stimuli: images/choice_trial_15.png,,,,,5995889da2bbe000018833d9,16:55:20,27/03/2024
html-keyboard-response,98,203294,0.0-42.0-2.0,,,,delaylearn,learning,feedback_duration_window,64jA2Z6pdvMj3aX0893vBGxOxJu2,64jA2Z6pdvMj3aX0893vBGxOxJu2,,,,,,,,,,,,,,,,,,7000.0,,,,5995889da2bbe000018833d9,16:55:20,27/03/2024
html-keyboard-response,99,204795,0.0-42.0-3.0,,<div style='margin:auto;width: auto; font-size: 150%'><span style='font-weight: bold; font-size: 100px; color: green;'>+10 points!</span><br><br></div>,,delaylearn,learning,feedback_image_window,64jA2Z6pdvMj3aX0893vBGxOxJu2,64jA2Z6pdvMj3aX0893vBGxOxJu2,,,,,,,,,,,,,,,,,,,,,,5995889da2bbe000018833d9,16:55:20,27/03/2024
html-keyboard-response,100,206446,0.0-43.0,,"<div style=""font-size:100px;"">+</div>",,delaylearn,learning,ITI,64jA2Z6pdvMj3aX0893vBGxOxJu2,64jA2Z6pdvMj3aX0893vBGxOxJu2,,,,,,,,,,,,,,,,,,,1650.0,,,5995889da2bbe000018833d9,16:55:20,27/03/2024
html-keyboard-response,101,208181,0.0-44.0-0.0,1732.0999999977648,"<div style=""display: flex; flex-direction: column; align-items: center; margin-top: -40px;""><img src=""images/pattern_7.png"" style=""width: 234px; height: 230px; margin-top: -50px;""><div style=""display: flex; justify-content: space-between; margin-top: 33px;""><img src=""images/choice_trial_6.png"" style=""width: 408px; height: 417px; margin-right: 200px;""><img src=""images/choice_trial_12.png"" style=""width: 408px; height: 417px;""></div></div>",j,delaylearn,learning,trial,64jA2Z6pdvMj3aX0893vBGxOxJu2,64jA2Z6pdvMj3aX0893vBGxOxJu2,3.0,images/choice_trial_6.png,images/choice_trial_12.png,images/pattern_7.png,j,f,750.0,6.0,12.0,6.0,0.0,19.0,0.0,1.0,12.0,140.0,,,,,,5995889da2bbe000018833d9,16:55:20,27/03/2024
html-keyboard-response,102,209183,0.0-44.0-1.0,,"<div style=""display: flex; flex-direction: column; align-items: center; margin-top: -40px;""><img src=""images/pattern_7.png"" style=""width: 234px; height: 230px; margin-top: -50px;""><div style=""display: flex; justify-content: space-between; margin-top: 33px;""><img src=""images/choice_trial_12.png"" style=""width: 408px; height: 417px; margin-left:608px;""></div></div>",,delaylearn,learning,display_response,64jA2Z6pdvMj3aX0893vBGxOxJu2,64jA2Z6pdvMj3aX0893vBGxOxJu2,,,,,,,,,,,,,,,,,chosen stimuli: images/choice_trial_12.png,,,,,5995889da2bbe000018833d9,16:55:20,27/03/2024
html-keyboard-response,103,209934,0.0-44.0-2.0,,,,delaylearn,learning,feedback_duration_window,64jA2Z6pdvMj3aX0893vBGxOxJu2,64jA2Z6pdvMj3aX0893vBGxOxJu2,,,,,,,,,,,,,,,,,,750.0,,,,5995889da2bbe000018833d9,16:55:20,27/03/2024
html-keyboard-response,104,211436,0.0-44.0-3.0,,<div style='margin:auto;width: auto; font-size: 150%'><span style='font-weight: bold; font-size: 100px; color: green;'>+10 points!</span><br><br></div>,,delaylearn,learning,feedback_image_window,64jA2Z6pdvMj3aX0893vBGxOxJu2,64jA2Z6pdvMj3aX0893vBGxOxJu2,,,,,,,,,,,,,,,,,,,,,,5995889da2bbe000018833d9,16:55:20,27/03/2024
html-keyboard-response,105,213126,0.0-45.0,,"<div style=""font-size:100px;"">+</div>",,delaylearn,learning,ITI,64jA2Z6pdvMj3aX0893vBGxOxJu2,64jA2Z6pdvMj3aX0893vBGxOxJu2,,,,,,,,,,,,,,,,,,,1689.0,,,5995889da2bbe000018833d9,16:55:20,27/03/2024
html-keyboard-response,106,214271,0.0-46.0-0.0,1141.699999999255,"<div style=""display: flex; flex-direction: column; align-items: center; margin-top: -40px;""><img src=""images/pattern_1.png"" style=""width: 234px; height: 230px; margin-top: -50px;""><div style=""display: flex; justify-content: space-between; margin-top: 33px;""><img src=""images/choice_trial_14.png"" style=""width: 408px; height: 417px; margin-right: 200px;""><img src=""images/choice_trial_8.png"" style=""width: 408px; height: 417px;""></div></div>",f,delaylearn,learning,trial,64jA2Z6pdvMj3aX0893vBGxOxJu2,64jA2Z6pdvMj3aX0893vBGxOxJu2,3.0,images/choice_trial_14.png,images/choice_trial_8.png,images/pattern_1.png,f,f,7000.0,14.0,8.0,1.0,0.0,20.0,1.0,1.0,14.0,150.0,,,,,,5995889da2bbe000018833d9,16:55:20,27/03/2024
html-keyboard-response,107,215274,0.0-46.0-1.0,,"<div style=""display: flex; flex-direction: column; align-items: center; margin-top: -40px;""><img src=""images/pattern_1.png"" style=""width: 234px; height: 230px; margin-top: -50px;""><div style=""display: flex; justify-content: space-between; margin-top: 33px;""><img src=""images/choice_trial_14.png"" style=""width: 408px; height: 417px; margin-right: 608px;""></div></div>",,delaylearn,learning,display_response,64jA2Z6pdvMj3aX0893vBGxOxJu2,64jA2Z6pdvMj3aX0893vBGxOxJu2,,,,,,,,,,,,,,,,,chosen stimuli: images/choice_trial_14.png,,,,,5995889da2bbe000018833d9,16:55:20,27/03/2024
html-keyboard-response,108,222276,0.0-46.0-2.0,,,,delaylearn,learning,feedback_duration_window,64jA2Z6pdvMj3aX0893vBGxOxJu2,64jA2Z6pdvMj3aX0893vBGxOxJu2,,,,,,,,,,,,,,,,,,7000.0,,,,5995889da2bbe000018833d9,16:55:20,27/03/2024
html-keyboard-response,109,223778,0.0-46.0-3.0,,<div style='margin:auto;width: auto; font-size: 150%'><span style='font-weight: bold; font-size: 100px; color: green;'>+10 points!</span><br><br></div>,,delaylearn,learning,feedback_image_window,64jA2Z6pdvMj3aX0893vBGxOxJu2,64jA2Z6pdvMj3aX0893vBGxOxJu2,,,,,,,,,,,,,,,,,,,,,,5995889da2bbe000018833d9,16:55:20,27/03/2024
html-keyboard-response,110,225929,0.0-47.0,,"<div style=""font-size:100px;"">+</div>",,delaylearn,learning,ITI,64jA2Z6pdvMj3aX0893vBGxOxJu2,64jA2Z6pdvMj3aX0893vBGxOxJu2,,,,,,,,,,,,,,,,,,,2150.0,,,5995889da2bbe000018833d9,16:55:20,27/03/2024
html-keyboard-response,111,227641,0.0-48.0-0.0,1709.300000000745,"<div style=""display: flex; flex-direction: column; align-items: center; margin-top: -40px;""><img src=""images/pattern_6.png"" style=""width: 234px; height: 230px; margin-top: -50px;""><div style=""display: flex; justify-content: space-between; margin-top: 33px;""><img src=""images/choice_trial_3.png"" style=""width: 408px; height: 417px; margin-right: 200px;""><img src=""images/choice_trial_16.png"" style=""width: 408px; height: 417px;""></div></div>",j,delaylearn,learning,trial,64jA2Z6pdvMj3aX0893vBGxOxJu2,64jA2Z6pdvMj3aX0893vBGxOxJu2,3.0,images/choice_trial_3.png,images/choice_trial_16.png,images/pattern_6.png,j,j,750.0,3.0,16.0,5.0,1.0,21.0,1.0,1.0,16.0,160.0,,,,,,5995889da2bbe000018833d9,16:55:20,27/03/2024
html-keyboard-response,112,228643,0.0-48.0-1.0,,"<div style=""display: flex; flex-direction: column; align-items: center; margin-top: -40px;""><img src=""images/pattern_6.png"" style=""width: 234px; height: 230px; margin-top: -50px;""><div style=""display: flex; justify-content: space-between; margin-top: 33px;""><img src=""images/choice_trial_16.png"" style=""width: 408px; height: 417px; margin-left:608px;""></div></div>",,delaylearn,learning,display_response,64jA2Z6pdvMj3aX0893vBGxOxJu2,64jA2Z6pdvMj3aX0893vBGxOxJu2,,,,,,,,,,,,,,,,,chosen stimuli: images/choice_trial_16.png,,,,,5995889da2bbe000018833d9,16:55:20,27/03/2024
html-keyboard-response,113,229394,0.0-48.0-2.0,,,,delaylearn,learning,feedback_duration_window,64jA2Z6pdvMj3aX0893vBGxOxJu2,64jA2Z6pdvMj3aX0893vBGxOxJu2,,,,,,,,,,,,,,,,,,750.0,,,,5995889da2bbe000018833d9,16:55:20,27/03/2024
html-keyboard-response,114,230897,0.0-48.0-3.0,,<div style='margin:auto;width: auto; font-size: 150%'><span style='font-weight: bold; font-size: 100px; color: green;'>+10 points!</span><br><br></div>,,delaylearn,learning,feedback_image_window,64jA2Z6pdvMj3aX0893vBGxOxJu2,64jA2Z6pdvMj3aX0893vBGxOxJu2,,,,,,,,,,,,,,,,,,,,,,5995889da2bbe000018833d9,16:55:20,27/03/2024
html-keyboard-response,115,232970,0.0-49.0,,"<div style=""font-size:100px;"">+</div>",,delaylearn,learning,ITI,64jA2Z6pdvMj3aX0893vBGxOxJu2,64jA2Z6pdvMj3aX0893vBGxOxJu2,,,,,,,,,,,,,,,,,,,2071.0,,,5995889da2bbe000018833d9,16:55:20,27/03/2024
html-keyboard-response,116,234215,0.0-50.0-0.0,1242.1000000014901,"<div style=""display: flex; flex-direction: column; align-items: center; margin-top: -40px;""><img src=""images/pattern_4.png"" style=""width: 234px; height: 230px; margin-top: -50px;""><div style=""display: flex; justify-content: space-between; margin-top: 33px;""><img src=""images/choice_trial_15.png"" style=""width: 408px; height: 417px; margin-right: 200px;""><img src=""images/choice_trial_9.png"" style=""width: 408px; height: 417px;""></div></div>",f,delaylearn,learning,trial,64jA2Z6pdvMj3aX0893vBGxOxJu2,64jA2Z6pdvMj3aX0893vBGxOxJu2,3.0,images/choice_trial_15.png,images/choice_trial_9.png,images/pattern_4.png,f,f,7000.0,15.0,9.0,3.0,0.0,22.0,1.0,1.0,15.0,170.0,,,,,,5995889da2bbe000018833d9,16:55:20,27/03/2024
html-keyboard-response,117,235218,0.0-50.0-1.0,,"<div style=""display: flex; flex-direction: column; align-items: center; margin-top: -40px;""><img src=""images/pattern_4.png"" style=""width: 234px; height: 230px; margin-top: -50px;""><div style=""display: flex; justify-content: space-between; margin-top: 33px;""><img src=""images/choice_trial_15.png"" style=""width: 408px; height: 417px; margin-right: 608px;""></div></div>",,delaylearn,learning,display_response,64jA2Z6pdvMj3aX0893vBGxOxJu2,64jA2Z6pdvMj3aX0893vBGxOxJu2,,,,,,,,,,,,,,,,,chosen stimuli: images/choice_trial_15.png,,,,,5995889da2bbe000018833d9,16:55:20,27/03/2024
html-keyboard-response,118,242219,0.0-50.0-2.0,,,,delaylearn,learning,feedback_duration_window,64jA2Z6pdvMj3aX0893vBGxOxJu2,64jA2Z6pdvMj3aX0893vBGxOxJu2,,,,,,,,,,,,,,,,,,7000.0,,,,5995889da2bbe000018833d9,16:55:20,27/03/2024
html-keyboard-response,119,243720,0.0-50.0-3.0,,<div style='margin:auto;width: auto; font-size: 150%'><span style='font-weight: bold; font-size: 100px; color: green;'>+10 points!</span><br><br></div>,,delaylearn,learning,feedback_image_window,64jA2Z6pdvMj3aX0893vBGxOxJu2,64jA2Z6pdvMj3aX0893vBGxOxJu2,,,,,,,,,,,,,,,,,,,,,,5995889da2bbe000018833d9,16:55:20,27/03/2024
html-keyboard-response,120,244222,0.0-51.0-0.0,,,,,,mood_trial_fixation,64jA2Z6pdvMj3aX0893vBGxOxJu2,,,,,,,,,,,,,,,,,,,,,,,5995889da2bbe000018833d9,16:55:20,27/03/2024
lmdlab-html-vas-response,121,248897,0.0-51.0-1.0,3671.0,How happy are you right now?,0.994694647897079,delaylearn,learning,mood_trial,64jA2Z6pdvMj3aX0893vBGxOxJu2,64jA2Z6pdvMj3aX0893vBGxOxJu2,,,,,,,,,,,,,,,,,,,,"['Very unhappy', 'Very happy']",,5995889da2bbe000018833d9,16:55:20,27/03/2024
html-keyboard-response,122,250752,0.0-52.0,,"<div style=""font-size:100px;"">+</div>",,delaylearn,learning,ITI,64jA2Z6pdvMj3aX0893vBGxOxJu2,64jA2Z6pdvMj3aX0893vBGxOxJu2,,,,,,,,,,,,,,,,,,,1853.0,,,5995889da2bbe000018833d9,16:55:20,27/03/2024
html-keyboard-response,123,251766,0.0-53.0-0.0,1011.3000000007451,"<div style=""display: flex; flex-direction: column; align-items: center; margin-top: -40px;""><img src=""images/pattern_7.png"" style=""width: 234px; height: 230px; margin-top: -50px;""><div style=""display: flex; justify-content: space-between; margin-top: 33px;""><img src=""images/choice_trial_12.png"" style=""width: 408px; height: 417px; margin-right: 200px;""><img src=""images/choice_trial_6.png"" style=""width: 408px; height: 417px;""></div></div>",j,delaylearn,learning,trial,64jA2Z6pdvMj3aX0893vBGxOxJu2,64jA2Z6pdvMj3aX0893vBGxOxJu2,3.0,images/choice_trial_12.png,images/choice_trial_6.png,images/pattern_7.png,j,j,750.0,12.0,6.0,6.0,1.0,23.0,1.0,1.0,6.0,180.0,,,,,,5995889da2bbe000018833d9,16:55:20,27/03/2024
html-keyboard-response,124,252770,0.0-53.0-1.0,,"<div style=""display: flex; flex-direction: column; align-items: center; margin-top: -40px;""><img src=""images/pattern_7.png"" style=""width: 234px; height: 230px; margin-top: -50px;""><div style=""display: flex; justify-content: space-between; margin-top: 33px;""><img src=""images/choice_trial_6.png"" style=""width: 408px; height: 417px; margin-left:608px;""></div></div>",,delaylearn,learning,display_response,64jA2Z6pdvMj3aX0893vBGxOxJu2,64jA2Z6pdvMj3aX0893vBGxOxJu2,,,,,,,,,,,,,,,,,chosen stimuli: images/choice_trial_6.png,,,,,5995889da2bbe000018833d9,16:55:20,27/03/2024
html-keyboard-response,125,253521,0.0-53.0-2.0,,,,delaylearn,learning,feedback_duration_window,64jA2Z6pdvMj3aX0893vBGxOxJu2,64jA2Z6pdvMj3aX0893vBGxOxJu2,,,,,,,,,,,,,,,,,,750.0,,,,5995889da2bbe000018833d9,16:55:20,27/03/2024
html-keyboard-response,126,255022,0.0-53.0-3.0,,<div style='margin:auto;width: auto; font-size: 150%'><span style='font-weight: bold; font-size: 100px; color: green;'>+10 points!</span><br><br></div>,,delaylearn,learning,feedback_image_window,64jA2Z6pdvMj3aX0893vBGxOxJu2,64jA2Z6pdvMj3aX0893vBGxOxJu2,,,,,,,,,,,,,,,,,,,,,,5995889da2bbe000018833d9,16:55:20,27/03/2024
html-keyboard-response,127,256765,0.0-54.0,,"<div style=""font-size:100px;"">+</div>",,delaylearn,learning,ITI,64jA2Z6pdvMj3aX0893vBGxOxJu2,64jA2Z6pdvMj3aX0893vBGxOxJu2,,,,,,,,,,,,,,,,,,,1741.0,,,5995889da2bbe000018833d9,16:55:20,27/03/2024
html-keyboard-response,128,257602,0.0-55.0-0.0,833.3000000007451,"<div style=""display: flex; flex-direction: column; align-items: center; margin-top: -40px;""><img src=""images/pattern_1.png"" style=""width: 234px; height: 230px; margin-top: -50px;""><div style=""display: flex; justify-content: space-between; margin-top: 33px;""><img src=""images/choice_trial_8.png"" style=""width: 408px; height: 417px; margin-right: 200px;""><img src=""images/choice_trial_14.png"" style=""width: 408px; height: 417px;""></div></div>",j,delaylearn,learning,trial,64jA2Z6pdvMj3aX0893vBGxOxJu2,64jA2Z6pdvMj3aX0893vBGxOxJu2,3.0,images/choice_trial_8.png,images/choice_trial_14.png,images/pattern_1.png,f,j,7000.0,8.0,14.0,1.0,1.0,24.0,1.0,0.0,14.0,180.0,,,,,,5995889da2bbe000018833d9,16:55:20,27/03/2024
html-keyboard-response,129,258604,0.0-55.0-1.0,,"<div style=""display: flex; flex-direction: column; align-items: center; margin-top: -40px;""><img src=""images/pattern_1.png"" style=""width: 234px; height: 230px; margin-top: -50px;""><div style=""display: flex; justify-content: space-between; margin-top: 33px;""><img src=""images/choice_trial_14.png"" style=""width: 408px; height: 417px; margin-left:608px;""></div></div>",,delaylearn,learning,display_response,64jA2Z6pdvMj3aX0893vBGxOxJu2,64jA2Z6pdvMj3aX0893vBGxOxJu2,,,,,,,,,,,,,,,,,chosen stimuli: images/choice_trial_14.png,,,,,5995889da2bbe000018833d9,16:55:20,27/03/2024
html-keyboard-response,130,265606,0.0-55.0-2.0,,,,delaylearn,learning,feedback_duration_window,64jA2Z6pdvMj3aX0893vBGxOxJu2,64jA2Z6pdvMj3aX0893vBGxOxJu2,,,,,,,,,,,,,,,,,,7000.0,,,,5995889da2bbe000018833d9,16:55:20,27/03/2024
html-keyboard-response,131,267109,0.0-55.0-3.0,,<div style='margin:auto;width: auto; font-size: 150%'><span style='font-weight: bold; font-size: 100px; color: red;'>0 points!</span><br><br></div>,,delaylearn,learning,feedback_image_window,64jA2Z6pdvMj3aX0893vBGxOxJu2,64jA2Z6pdvMj3aX0893vBGxOxJu2,,,,,,,,,,,,,,,,,,,,,,5995889da2bbe000018833d9,16:55:20,27/03/2024
html-keyboard-response,132,268782,0.0-56.0,,"<div style=""font-size:100px;"">+</div>",,delaylearn,learning,ITI,64jA2Z6pdvMj3aX0893vBGxOxJu2,64jA2Z6pdvMj3aX0893vBGxOxJu2,,,,,,,,,,,,,,,,,,,1671.0,,,5995889da2bbe000018833d9,16:55:20,27/03/2024
html-keyboard-response,133,269796,0.0-57.0-0.0,1011.3000000007451,"<div style=""display: flex; flex-direction: column; align-items: center; margin-top: -40px;""><img src=""images/pattern_5.png"" style=""width: 234px; height: 230px; margin-top: -50px;""><div style=""display: flex; justify-content: space-between; margin-top: 33px;""><img src=""images/choice_trial_2.png"" style=""width: 408px; height: 417px; margin-right: 200px;""><img src=""images/choice_trial_11.png"" style=""width: 408px; height: 417px;""></div></div>",j,delaylearn,learning,trial,64jA2Z6pdvMj3aX0893vBGxOxJu2,64jA2Z6pdvMj3aX0893vBGxOxJu2,3.0,images/choice_trial_2.png,images/choice_trial_11.png,images/pattern_5.png,j,j,750.0,2.0,11.0,4.0,1.0,25.0,1.0,1.0,11.0,190.0,,,,,,5995889da2bbe000018833d9,16:55:20,27/03/2024
html-keyboard-response,134,270798,0.0-57.0-1.0,,"<div style=""display: flex; flex-direction: column; align-items: center; margin-top: -40px;""><img src=""images/pattern_5.png"" style=""width: 234px; height: 230px; margin-top: -50px;""><div style=""display: flex; justify-content: space-between; margin-top: 33px;""><img src=""images/choice_trial_11.png"" style=""width: 408px; height: 417px; margin-left:608px;""></div></div>",,delaylearn,learning,display_response,64jA2Z6pdvMj3aX0893vBGxOxJu2,64jA2Z6pdvMj3aX0893vBGxOxJu2,,,,,,,,,,,,,,,,,chosen stimuli: images/choice_trial_11.png,,,,,5995889da2bbe000018833d9,16:55:20,27/03/2024
html-keyboard-response,135,271550,0.0-57.0-2.0,,,,delaylearn,learning,feedback_duration_window,64jA2Z6pdvMj3aX0893vBGxOxJu2,64jA2Z6pdvMj3aX0893vBGxOxJu2,,,,,,,,,,,,,,,,,,750.0,,,,5995889da2bbe000018833d9,16:55:20,27/03/2024
html-keyboard-response,136,273051,0.0-57.0-3.0,,<div style='margin:auto;width: auto; font-size: 150%'><span style='font-weight: bold; font-size: 100px; color: green;'>+10 points!</span><br><br></div>,,delaylearn,learning,feedback_image_window,64jA2Z6pdvMj3aX0893vBGxOxJu2,64jA2Z6pdvMj3aX0893vBGxOxJu2,,,,,,,,,,,,,,,,,,,,,,5995889da2bbe000018833d9,16:55:20,27/03/2024
html-keyboard-response,137,275488,0.0-58.0,,"<div style=""font-size:100px;"">+</div>",,delaylearn,learning,ITI,64jA2Z6pdvMj3aX0893vBGxOxJu2,64jA2Z6pdvMj3aX0893vBGxOxJu2,,,,,,,,,,,,,,,,,,,2435.0,,,5995889da2bbe000018833d9,16:55:20,27/03/2024
html-keyboard-response,138,276577,0.0-59.0-0.0,1085.699999999255,"<div style=""display: flex; flex-direction: column; align-items: center; margin-top: -40px;""><img src=""images/pattern_3.png"" style=""width: 234px; height: 230px; margin-top: -50px;""><div style=""display: flex; justify-content: space-between; margin-top: 33px;""><img src=""images/choice_trial_10.png"" style=""width: 408px; height: 417px; margin-right: 200px;""><img src=""images/choice_trial_13.png"" style=""width: 408px; height: 417px;""></div></div>",f,delaylearn,learning,trial,64jA2Z6pdvMj3aX0893vBGxOxJu2,64jA2Z6pdvMj3aX0893vBGxOxJu2,3.0,images/choice_trial_10.png,images/choice_trial_13.png,images/pattern_3.png,j,j,7000.0,10.0,13.0,2.0,1.0,26.0,0.0,0.0,10.0,190.0,,,,,,5995889da2bbe000018833d9,16:55:20,27/03/2024
html-keyboard-response,139,277579,0.0-59.0-1.0,,"<div style=""display: flex; flex-direction: column; align-items: center; margin-top: -40px;""><img src=""images/pattern_3.png"" style=""width: 234px; height: 230px; margin-top: -50px;""><div style=""display: flex; justify-content: space-between; margin-top: 33px;""><img src=""images/choice_trial_10.png"" style=""width: 408px; height: 417px; margin-right: 608px;""></div></div>",,delaylearn,learning,display_response,64jA2Z6pdvMj3aX0893vBGxOxJu2,64jA2Z6pdvMj3aX0893vBGxOxJu2,,,,,,,,,,,,,,,,,chosen stimuli: images/choice_trial_10.png,,,,,5995889da2bbe000018833d9,16:55:20,27/03/2024
html-keyboard-response,140,284581,0.0-59.0-2.0,,,,delaylearn,learning,feedback_duration_window,64jA2Z6pdvMj3aX0893vBGxOxJu2,64jA2Z6pdvMj3aX0893vBGxOxJu2,,,,,,,,,,,,,,,,,,7000.0,,,,5995889da2bbe000018833d9,16:55:20,27/03/2024
html-keyboard-response,141,286083,0.0-59.0-3.0,,<div style='margin:auto;width: auto; font-size: 150%'><span style='font-weight: bold; font-size: 100px; color: red;'>0 points!</span><br><br></div>,,delaylearn,learning,feedback_image_window,64jA2Z6pdvMj3aX0893vBGxOxJu2,64jA2Z6pdvMj3aX0893vBGxOxJu2,,,,,,,,,,,,,,,,,,,,,,5995889da2bbe000018833d9,16:55:20,27/03/2024
lmdlab-html-vas-response,142,292917,0.0-60.0-0.0,5327.0,*How <b><u>confident</u></b> are you feeling about your answers at this moment?*,0.6524925112115388,rewlearn,rate_confidence,,64jA2Z6pdvMj3aX0893vBGxOxJu2,64jA2Z6pdvMj3aX0893vBGxOxJu2,,,,,,,,,,,,,,,,,,,,"['No confidence', 'Complete confidence']",,5995889da2bbe000018833d9,16:55:20,27/03/2024
lmdlab-rest-trial-limit,143,306765,0.0-60.0-1.0,12344.800000000745,"<div style=""font-size:40px;""><b>Please take a break!</b><br><br><br><br><p>Great work: you earned 190 points.<br><br><br><p>You have completed part(s) 1 of 5.<br><br><br><br>When you are ready to continue<br><br><br>please click the button.</p><br><br>",0,delaylearn,learning,break,64jA2Z6pdvMj3aX0893vBGxOxJu2,64jA2Z6pdvMj3aX0893vBGxOxJu2,,,,,,,,,,,,,,,,,,,,,0.0,5995889da2bbe000018833d9,16:55:20,27/03/2024
html-keyboard-response,144,309768,0.0-60.0-2.0,,"<div style=""font-size:100px;"">+</div>",,delaylearn,learning,pre_fixation,64jA2Z6pdvMj3aX0893vBGxOxJu2,,,,,,,,,,,,,,,,,,,,,,,5995889da2bbe000018833d9,16:55:20,27/03/2024
lmdlab-html-vas-response,145,313449,0.0-60.0-3.0-0.0,2676.0,How happy are you right now?,0.8227070455214448,delaylearn,learning,mood_baseline,64jA2Z6pdvMj3aX0893vBGxOxJu2,64jA2Z6pdvMj3aX0893vBGxOxJu2,,,,,,,,,,,,,,,,,,,,"['Very unhappy', 'Very happy']",,5995889da2bbe000018833d9,16:55:20,27/03/2024
html-keyboard-response,146,314950,0.0-60.0-3.0-1.0,,,,,,mood_baseline_fixation,64jA2Z6pdvMj3aX0893vBGxOxJu2,,,,,,,,,,,,,,,,,,,,,,,5995889da2bbe000018833d9,16:55:20,27/03/2024
html-keyboard-response,147,316794,0.0-61.0,,"<div style=""font-size:100px;"">+</div>",,delaylearn,learning,ITI,64jA2Z6pdvMj3aX0893vBGxOxJu2,64jA2Z6pdvMj3aX0893vBGxOxJu2,,,,,,,,,,,,,,,,,,,1842.0,,,5995889da2bbe000018833d9,16:55:20,27/03/2024
html-keyboard-response,148,317808,0.0-62.0-0.0,1011.0999999977648,"<div style=""display: flex; flex-direction: column; align-items: center; margin-top: -40px;""><img src=""images/pattern_7.png"" style=""width: 234px; height: 230px; margin-top: -50px;""><div style=""display: flex; justify-content: space-between; margin-top: 33px;""><img src=""images/choice_trial_12.png"" style=""width: 408px; height: 417px; margin-right: 200px;""><img src=""images/choice_trial_6.png"" style=""width: 408px; height: 417px;""></div></div>",j,delaylearn,learning,trial,64jA2Z6pdvMj3aX0893vBGxOxJu2,64jA2Z6pdvMj3aX0893vBGxOxJu2,3.0,images/choice_trial_12.png,images/choice_trial_6.png,images/pattern_7.png,j,j,750.0,12.0,6.0,6.0,1.0,27.0,1.0,1.0,6.0,200.0,,,,,,5995889da2bbe000018833d9,16:55:20,27/03/2024
html-keyboard-response,149,318811,0.0-62.0-1.0,,"<div style=""display: flex; flex-direction: column; align-items: center; margin-top: -40px;""><img src=""images/pattern_7.png"" style=""width: 234px; height: 230px; margin-top: -50px;""><div style=""display: flex; justify-content: space-between; margin-top: 33px;""><img src=""images/choice_trial_6.png"" style=""width: 408px; height: 417px; margin-left:608px;""></div></div>",,delaylearn,learning,display_response,64jA2Z6pdvMj3aX0893vBGxOxJu2,64jA2Z6pdvMj3aX0893vBGxOxJu2,,,,,,,,,,,,,,,,,chosen stimuli: images/choice_trial_6.png,,,,,5995889da2bbe000018833d9,16:55:20,27/03/2024
html-keyboard-response,150,319562,0.0-62.0-2.0,,,,delaylearn,learning,feedback_duration_window,64jA2Z6pdvMj3aX0893vBGxOxJu2,64jA2Z6pdvMj3aX0893vBGxOxJu2,,,,,,,,,,,,,,,,,,750.0,,,,5995889da2bbe000018833d9,16:55:20,27/03/2024
html-keyboard-response,151,321064,0.0-62.0-3.0,,<div style='margin:auto;width: auto; font-size: 150%'><span style='font-weight: bold; font-size: 100px; color: green;'>+10 points!</span><br><br></div>,,delaylearn,learning,feedback_image_window,64jA2Z6pdvMj3aX0893vBGxOxJu2,64jA2Z6pdvMj3aX0893vBGxOxJu2,,,,,,,,,,,,,,,,,,,,,,5995889da2bbe000018833d9,16:55:20,27/03/2024
html-keyboard-response,152,321566,0.0-63.0-0.0,,,,,,mood_trial_fixation,64jA2Z6pdvMj3aX0893vBGxOxJu2,,,,,,,,,,,,,,,,,,,,,,,5995889da2bbe000018833d9,16:55:20,27/03/2024
lmdlab-html-vas-response,153,325969,0.0-63.0-1.0,3399.0,How happy are you right now?,0.9627794227139715,delaylearn,learning,mood_trial,64jA2Z6pdvMj3aX0893vBGxOxJu2,64jA2Z6pdvMj3aX0893vBGxOxJu2,,,,,,,,,,,,,,,,,,,,"['Very unhappy', 'Very happy']",,5995889da2bbe000018833d9,16:55:20,27/03/2024
html-keyboard-response,154,327567,0.0-64.0,,"<div style=""font-size:100px;"">+</div>",,delaylearn,learning,ITI,64jA2Z6pdvMj3aX0893vBGxOxJu2,64jA2Z6pdvMj3aX0893vBGxOxJu2,,,,,,,,,,,,,,,,,,,1597.0,,,5995889da2bbe000018833d9,16:55:20,27/03/2024
html-keyboard-response,155,328662,0.0-65.0-0.0,1092.0,"<div style=""display: flex; flex-direction: column; align-items: center; margin-top: -40px;""><img src=""images/pattern_1.png"" style=""width: 234px; height: 230px; margin-top: -50px;""><div style=""display: flex; justify-content: space-between; margin-top: 33px;""><img src=""images/choice_trial_14.png"" style=""width: 408px; height: 417px; margin-right: 200px;""><img src=""images/choice_trial_8.png"" style=""width: 408px; height: 417px;""></div></div>",j,delaylearn,learning,trial,64jA2Z6pdvMj3aX0893vBGxOxJu2,64jA2Z6pdvMj3aX0893vBGxOxJu2,3.0,images/choice_trial_14.png,images/choice_trial_8.png,images/pattern_1.png,f,f,7000.0,14.0,8.0,1.0,0.0,28.0,0.0,0.0,8.0,200.0,,,,,,5995889da2bbe000018833d9,16:55:20,27/03/2024
html-keyboard-response,156,329665,0.0-65.0-1.0,,"<div style=""display: flex; flex-direction: column; align-items: center; margin-top: -40px;""><img src=""images/pattern_1.png"" style=""width: 234px; height: 230px; margin-top: -50px;""><div style=""display: flex; justify-content: space-between; margin-top: 33px;""><img src=""images/choice_trial_8.png"" style=""width: 408px; height: 417px; margin-left:608px;""></div></div>",,delaylearn,learning,display_response,64jA2Z6pdvMj3aX0893vBGxOxJu2,64jA2Z6pdvMj3aX0893vBGxOxJu2,,,,,,,,,,,,,,,,,chosen stimuli: images/choice_trial_8.png,,,,,5995889da2bbe000018833d9,16:55:20,27/03/2024
html-keyboard-response,157,336666,0.0-65.0-2.0,,,,delaylearn,learning,feedback_duration_window,64jA2Z6pdvMj3aX0893vBGxOxJu2,64jA2Z6pdvMj3aX0893vBGxOxJu2,,,,,,,,,,,,,,,,,,7000.0,,,,5995889da2bbe000018833d9,16:55:20,27/03/2024
html-keyboard-response,158,338168,0.0-65.0-3.0,,<div style='margin:auto;width: auto; font-size: 150%'><span style='font-weight: bold; font-size: 100px; color: red;'>0 points!</span><br><br></div>,,delaylearn,learning,feedback_image_window,64jA2Z6pdvMj3aX0893vBGxOxJu2,64jA2Z6pdvMj3aX0893vBGxOxJu2,,,,,,,,,,,,,,,,,,,,,,5995889da2bbe000018833d9,16:55:20,27/03/2024
html-keyboard-response,159,340109,0.0-66.0,,"<div style=""font-size:100px;"">+</div>",,delaylearn,learning,ITI,64jA2Z6pdvMj3aX0893vBGxOxJu2,64jA2Z6pdvMj3aX0893vBGxOxJu2,,,,,,,,,,,,,,,,,,,1939.0,,,5995889da2bbe000018833d9,16:55:20,27/03/2024
html-keyboard-response,160,341476,0.0-67.0-0.0,1363.5999999977648,"<div style=""display: flex; flex-direction: column; align-items: center; margin-top: -40px;""><img src=""images/pattern_5.png"" style=""width: 234px; height: 230px; margin-top: -50px;""><div style=""display: flex; justify-content: space-between; margin-top: 33px;""><img src=""images/choice_trial_11.png"" style=""width: 408px; height: 417px; margin-right: 200px;""><img src=""images/choice_trial_2.png"" style=""width: 408px; height: 417px;""></div></div>",f,delaylearn,learning,trial,64jA2Z6pdvMj3aX0893vBGxOxJu2,64jA2Z6pdvMj3aX0893vBGxOxJu2,3.0,images/choice_trial_11.png,images/choice_trial_2.png,images/pattern_5.png,f,f,750.0,11.0,2.0,4.0,0.0,29.0,1.0,1.0,11.0,210.0,,,,,,5995889da2bbe000018833d9,16:55:20,27/03/2024
html-keyboard-response,161,342478,0.0-67.0-1.0,,"<div style=""display: flex; flex-direction: column; align-items: center; margin-top: -40px;""><img src=""images/pattern_5.png"" style=""width: 234px; height: 230px; margin-top: -50px;""><div style=""display: flex; justify-content: space-between; margin-top: 33px;""><img src=""images/choice_trial_11.png"" style=""width: 408px; height: 417px; margin-right: 608px;""></div></div>",,delaylearn,learning,display_response,64jA2Z6pdvMj3aX0893vBGxOxJu2,64jA2Z6pdvMj3aX0893vBGxOxJu2,,,,,,,,,,,,,,,,,chosen stimuli: images/choice_trial_11.png,,,,,5995889da2bbe000018833d9,16:55:20,27/03/2024
html-keyboard-response,162,343229,0.0-67.0-2.0,,,,delaylearn,learning,feedback_duration_window,64jA2Z6pdvMj3aX0893vBGxOxJu2,64jA2Z6pdvMj3aX0893vBGxOxJu2,,,,,,,,,,,,,,,,,,750.0,,,,5995889da2bbe000018833d9,16:55:20,27/03/2024
html-keyboard-response,163,344730,0.0-67.0-3.0,,<div style='margin:auto;width: auto; font-size: 150%'><span style='font-weight: bold; font-size: 100px; color: green;'>+10 points!</span><br><br></div>,,delaylearn,learning,feedback_image_window,64jA2Z6pdvMj3aX0893vBGxOxJu2,64jA2Z6pdvMj3aX0893vBGxOxJu2,,,,,,,,,,,,,,,,,,,,,,5995889da2bbe000018833d9,16:55:20,27/03/2024
html-keyboard-response,164,346347,0.0-68.0,,"<div style=""font-size:100px;"">+</div>",,delaylearn,learning,ITI,64jA2Z6pdvMj3aX0893vBGxOxJu2,64jA2Z6pdvMj3aX0893vBGxOxJu2,,,,,,,,,,,,,,,,,,,1616.0,,,5995889da2bbe000018833d9,16:55:20,27/03/2024
html-keyboard-response,165,347442,0.0-69.0-0.0,1092.800000000745,"<div style=""display: flex; flex-direction: column; align-items: center; margin-top: -40px;""><img src=""images/pattern_6.png"" style=""width: 234px; height: 230px; margin-top: -50px;""><div style=""display: flex; justify-content: space-between; margin-top: 33px;""><img src=""images/choice_trial_3.png"" style=""width: 408px; height: 417px; margin-right: 200px;""><img src=""images/choice_trial_16.png"" style=""width: 408px; height: 417px;""></div></div>",j,delaylearn,learning,trial,64jA2Z6pdvMj3aX0893vBGxOxJu2,64jA2Z6pdvMj3aX0893vBGxOxJu2,3.0,images/choice_trial_3.png,images/choice_trial_16.png,images/pattern_6.png,j,j,750.0,3.0,16.0,5.0,1.0,30.0,1.0,1.0,16.0,220.0,,,,,,5995889da2bbe000018833d9,16:55:20,27/03/2024
html-keyboard-response,166,348445,0.0-69.0-1.0,,"<div style=""display: flex; flex-direction: column; align-items: center; margin-top: -40px;""><img src=""images/pattern_6.png"" style=""width: 234px; height: 230px; margin-top: -50px;""><div style=""display: flex; justify-content: space-between; margin-top: 33px;""><img src=""images/choice_trial_16.png"" style=""width: 408px; height: 417px; margin-left:608px;""></div></div>",,delaylearn,learning,display_response,64jA2Z6pdvMj3aX0893vBGxOxJu2,64jA2Z6pdvMj3aX0893vBGxOxJu2,,,,,,,,,,,,,,,,,chosen stimuli: images/choice_trial_16.png,,,,,5995889da2bbe000018833d9,16:55:20,27/03/2024
html-keyboard-response,167,349197,0.0-69.0-2.0,,,,delaylearn,learning,feedback_duration_window,64jA2Z6pdvMj3aX0893vBGxOxJu2,64jA2Z6pdvMj3aX0893vBGxOxJu2,,,,,,,,,,,,,,,,,,750.0,,,,5995889da2bbe000018833d9,16:55:20,27/03/2024
html-keyboard-response,168,350698,0.0-69.0-3.0,,<div style='margin:auto;width: auto; font-size: 150%'><span style='font-weight: bold; font-size: 100px; color: green;'>+10 points!</span><br><br></div>,,delaylearn,learning,feedback_image_window,64jA2Z6pdvMj3aX0893vBGxOxJu2,64jA2Z6pdvMj3aX0893vBGxOxJu2,,,,,,,,,,,,,,,,,,,,,,5995889da2bbe000018833d9,16:55:20,27/03/2024
html-keyboard-response,169,351200,0.0-70.0-0.0,,,,,,mood_trial_fixation,64jA2Z6pdvMj3aX0893vBGxOxJu2,,,,,,,,,,,,,,,,,,,,,,,5995889da2bbe000018833d9,16:55:20,27/03/2024
lmdlab-html-vas-response,170,355313,0.0-70.0-1.0,3109.0,How happy are you right now?,0.8191609093899884,delaylearn,learning,mood_trial,64jA2Z6pdvMj3aX0893vBGxOxJu2,64jA2Z6pdvMj3aX0893vBGxOxJu2,,,,,,,,,,,,,,,,,,,,"['Very unhappy', 'Very happy']",,5995889da2bbe000018833d9,16:55:20,27/03/2024
html-keyboard-response,171,357331,0.0-71.0,,"<div style=""font-size:100px;"">+</div>",,delaylearn,learning,ITI,64jA2Z6pdvMj3aX0893vBGxOxJu2,64jA2Z6pdvMj3aX0893vBGxOxJu2,,,,,,,,,,,,,,,,,,,2016.0,,,5995889da2bbe000018833d9,16:55:20,27/03/2024
html-keyboard-response,172,358259,0.0-72.0-0.0,924.6999999992549,"<div style=""display: flex; flex-direction: column; align-items: center; margin-top: -40px;""><img src=""images/pattern_4.png"" style=""width: 234px; height: 230px; margin-top: -50px;""><div style=""display: flex; justify-content: space-between; margin-top: 33px;""><img src=""images/choice_trial_9.png"" style=""width: 408px; height: 417px; margin-right: 200px;""><img src=""images/choice_trial_15.png"" style=""width: 408px; height: 417px;""></div></div>",j,delaylearn,learning,trial,64jA2Z6pdvMj3aX0893vBGxOxJu2,64jA2Z6pdvMj3aX0893vBGxOxJu2,3.0,images/choice_trial_9.png,images/choice_trial_15.png,images/pattern_4.png,j,j,7000.0,9.0,15.0,3.0,1.0,31.0,1.0,1.0,15.0,230.0,,,,,,5995889da2bbe000018833d9,16:55:20,27/03/2024
html-keyboard-response,173,359261,0.0-72.0-1.0,,"<div style=""display: flex; flex-direction: column; align-items: center; margin-top: -40px;""><img src=""images/pattern_4.png"" style=""width: 234px; height: 230px; margin-top: -50px;""><div style=""display: flex; justify-content: space-between; margin-top: 33px;""><img src=""images/choice_trial_15.png"" style=""width: 408px; height: 417px; margin-left:608px;""></div></div>",,delaylearn,learning,display_response,64jA2Z6pdvMj3aX0893vBGxOxJu2,64jA2Z6pdvMj3aX0893vBGxOxJu2,,,,,,,,,,,,,,,,,chosen stimuli: images/choice_trial_15.png,,,,,5995889da2bbe000018833d9,16:55:20,27/03/2024
html-keyboard-response,174,366262,0.0-72.0-2.0,,,,delaylearn,learning,feedback_duration_window,64jA2Z6pdvMj3aX0893vBGxOxJu2,64jA2Z6pdvMj3aX0893vBGxOxJu2,,,,,,,,,,,,,,,,,,7000.0,,,,5995889da2bbe000018833d9,16:55:20,27/03/2024
html-keyboard-response,175,367765,0.0-72.0-3.0,,<div style='margin:auto;width: auto; font-size: 150%'><span style='font-weight: bold; font-size: 100px; color: green;'>+10 points!</span><br><br></div>,,delaylearn,learning,feedback_image_window,64jA2Z6pdvMj3aX0893vBGxOxJu2,64jA2Z6pdvMj3aX0893vBGxOxJu2,,,,,,,,,,,,,,,,,,,,,,5995889da2bbe000018833d9,16:55:20,27/03/2024
html-keyboard-response,176,370043,0.0-73.0,,"<div style=""font-size:100px;"">+</div>",,delaylearn,learning,ITI,64jA2Z6pdvMj3aX0893vBGxOxJu2,64jA2Z6pdvMj3aX0893vBGxOxJu2,,,,,,,,,,,,,,,,,,,2277.0,,,5995889da2bbe000018833d9,16:55:20,27/03/2024
html-keyboard-response,177,371538,0.0-74.0-0.0,1491.9000000022352,"<div style=""display: flex; flex-direction: column; align-items: center; margin-top: -40px;""><img src=""images/pattern_3.png"" style=""width: 234px; height: 230px; margin-top: -50px;""><div style=""display: flex; justify-content: space-between; margin-top: 33px;""><img src=""images/choice_trial_10.png"" style=""width: 408px; height: 417px; margin-right: 200px;""><img src=""images/choice_trial_13.png"" style=""width: 408px; height: 417px;""></div></div>",j,delaylearn,learning,trial,64jA2Z6pdvMj3aX0893vBGxOxJu2,64jA2Z6pdvMj3aX0893vBGxOxJu2,3.0,images/choice_trial_10.png,images/choice_trial_13.png,images/pattern_3.png,j,j,7000.0,10.0,13.0,2.0,1.0,32.0,1.0,1.0,13.0,240.0,,,,,,5995889da2bbe000018833d9,16:55:20,27/03/2024
html-keyboard-response,178,372539,0.0-74.0-1.0,,"<div style=""display: flex; flex-direction: column; align-items: center; margin-top: -40px;""><img src=""images/pattern_3.png"" style=""width: 234px; height: 230px; margin-top: -50px;""><div style=""display: flex; justify-content: space-between; margin-top: 33px;""><img src=""images/choice_trial_13.png"" style=""width: 408px; height: 417px; margin-left:608px;""></div></div>",,delaylearn,learning,display_response,64jA2Z6pdvMj3aX0893vBGxOxJu2,64jA2Z6pdvMj3aX0893vBGxOxJu2,,,,,,,,,,,,,,,,,chosen stimuli: images/choice_trial_13.png,,,,,5995889da2bbe000018833d9,16:55:20,27/03/2024
html-keyboard-response,179,379541,0.0-74.0-2.0,,,,delaylearn,learning,feedback_duration_window,64jA2Z6pdvMj3aX0893vBGxOxJu2,64jA2Z6pdvMj3aX0893vBGxOxJu2,,,,,,,,,,,,,,,,,,7000.0,,,,5995889da2bbe000018833d9,16:55:20,27/03/2024
html-keyboard-response,180,381043,0.0-74.0-3.0,,<div style='margin:auto;width: auto; font-size: 150%'><span style='font-weight: bold; font-size: 100px; color: green;'>+10 points!</span><br><br></div>,,delaylearn,learning,feedback_image_window,64jA2Z6pdvMj3aX0893vBGxOxJu2,64jA2Z6pdvMj3aX0893vBGxOxJu2,,,,,,,,,,,,,,,,,,,,,,5995889da2bbe000018833d9,16:55:20,27/03/2024
html-keyboard-response,181,382690,0.0-75.0,,"<div style=""font-size:100px;"">+</div>",,delaylearn,learning,ITI,64jA2Z6pdvMj3aX0893vBGxOxJu2,64jA2Z6pdvMj3aX0893vBGxOxJu2,,,,,,,,,,,,,,,,,,,1646.0,,,5995889da2bbe000018833d9,16:55:20,27/03/2024
html-keyboard-response,182,384010,0.0-76.0-0.0,1316.8999999985099,"<div style=""display: flex; flex-direction: column; align-items: center; margin-top: -40px;""><img src=""images/pattern_5.png"" style=""width: 234px; height: 230px; margin-top: -50px;""><div style=""display: flex; justify-content: space-between; margin-top: 33px;""><img src=""images/choice_trial_11.png"" style=""width: 408px; height: 417px; margin-right: 200px;""><img src=""images/choice_trial_2.png"" style=""width: 408px; height: 417px;""></div></div>",f,delaylearn,learning,trial,64jA2Z6pdvMj3aX0893vBGxOxJu2,64jA2Z6pdvMj3aX0893vBGxOxJu2,3.0,images/choice_trial_11.png,images/choice_trial_2.png,images/pattern_5.png,j,f,750.0,11.0,2.0,4.0,0.0,33.0,1.0,0.0,11.0,240.0,,,,,,5995889da2bbe000018833d9,16:55:20,27/03/2024
html-keyboard-response,183,385012,0.0-76.0-1.0,,"<div style=""display: flex; flex-direction: column; align-items: center; margin-top: -40px;""><img src=""images/pattern_5.png"" style=""width: 234px; height: 230px; margin-top: -50px;""><div style=""display: flex; justify-content: space-between; margin-top: 33px;""><img src=""images/choice_trial_11.png"" style=""width: 408px; height: 417px; margin-right: 608px;""></div></div>",,delaylearn,learning,display_response,64jA2Z6pdvMj3aX0893vBGxOxJu2,64jA2Z6pdvMj3aX0893vBGxOxJu2,,,,,,,,,,,,,,,,,chosen stimuli: images/choice_trial_11.png,,,,,5995889da2bbe000018833d9,16:55:20,27/03/2024
html-keyboard-response,184,385764,0.0-76.0-2.0,,,,delaylearn,learning,feedback_duration_window,64jA2Z6pdvMj3aX0893vBGxOxJu2,64jA2Z6pdvMj3aX0893vBGxOxJu2,,,,,,,,,,,,,,,,,,750.0,,,,5995889da2bbe000018833d9,16:55:20,27/03/2024
html-keyboard-response,185,387266,0.0-76.0-3.0,,<div style='margin:auto;width: auto; font-size: 150%'><span style='font-weight: bold; font-size: 100px; color: red;'>0 points!</span><br><br></div>,,delaylearn,learning,feedback_image_window,64jA2Z6pdvMj3aX0893vBGxOxJu2,64jA2Z6pdvMj3aX0893vBGxOxJu2,,,,,,,,,,,,,,,,,,,,,,5995889da2bbe000018833d9,16:55:20,27/03/2024
html-keyboard-response,186,389394,0.0-77.0,,"<div style=""font-size:100px;"">+</div>",,delaylearn,learning,ITI,64jA2Z6pdvMj3aX0893vBGxOxJu2,64jA2Z6pdvMj3aX0893vBGxOxJu2,,,,,,,,,,,,,,,,,,,2127.0,,,5995889da2bbe000018833d9,16:55:20,27/03/2024
html-keyboard-response,187,390354,0.0-78.0-0.0,957.0,"<div style=""display: flex; flex-direction: column; align-items: center; margin-top: -40px;""><img src=""images/pattern_1.png"" style=""width: 234px; height: 230px; margin-top: -50px;""><div style=""display: flex; justify-content: space-between; margin-top: 33px;""><img src=""images/choice_trial_14.png"" style=""width: 408px; height: 417px; margin-right: 200px;""><img src=""images/choice_trial_8.png"" style=""width: 408px; height: 417px;""></div></div>",f,delaylearn,learning,trial,64jA2Z6pdvMj3aX0893vBGxOxJu2,64jA2Z6pdvMj3aX0893vBGxOxJu2,3.0,images/choice_trial_14.png,images/choice_trial_8.png,images/pattern_1.png,f,f,7000.0,14.0,8.0,1.0,0.0,34.0,1.0,1.0,14.0,250.0,,,,,,5995889da2bbe000018833d9,16:55:20,27/03/2024
html-keyboard-response,188,391357,0.0-78.0-1.0,,"<div style=""display: flex; flex-direction: column; align-items: center; margin-top: -40px;""><img src=""images/pattern_1.png"" style=""width: 234px; height: 230px; margin-top: -50px;""><div style=""display: flex; justify-content: space-between; margin-top: 33px;""><img src=""images/choice_trial_14.png"" style=""width: 408px; height: 417px; margin-right: 608px;""></div></div>",,delaylearn,learning,display_response,64jA2Z6pdvMj3aX0893vBGxOxJu2,64jA2Z6pdvMj3aX0893vBGxOxJu2,,,,,,,,,,,,,,,,,chosen stimuli: images/choice_trial_14.png,,,,,5995889da2bbe000018833d9,16:55:20,27/03/2024
html-keyboard-response,189,398358,0.0-78.0-2.0,,,,delaylearn,learning,feedback_duration_window,64jA2Z6pdvMj3aX0893vBGxOxJu2,64jA2Z6pdvMj3aX0893vBGxOxJu2,,,,,,,,,,,,,,,,,,7000.0,,,,5995889da2bbe000018833d9,16:55:20,27/03/2024
html-keyboard-response,190,399860,0.0-78.0-3.0,,<div style='margin:auto;width: auto; font-size: 150%'><span style='font-weight: bold; font-size: 100px; color: green;'>+10 points!</span><br><br></div>,,delaylearn,learning,feedback_image_window,64jA2Z6pdvMj3aX0893vBGxOxJu2,64jA2Z6pdvMj3aX0893vBGxOxJu2,,,,,,,,,,,,,,,,,,,,,,5995889da2bbe000018833d9,16:55:20,27/03/2024
html-keyboard-response,191,400362,0.0-79.0-0.0,,,,,,mood_trial_fixation,64jA2Z6pdvMj3aX0893vBGxOxJu2,,,,,,,,,,,,,,,,,,,,,,,5995889da2bbe000018833d9,16:55:20,27/03/2024
lmdlab-html-vas-response,192,404217,0.0-79.0-1.0,2851.0,How happy are you right now?,0.7748342077467837,delaylearn,learning,mood_trial,64jA2Z6pdvMj3aX0893vBGxOxJu2,64jA2Z6pdvMj3aX0893vBGxOxJu2,,,,,,,,,,,,,,,,,,,,"['Very unhappy', 'Very happy']",,5995889da2bbe000018833d9,16:55:20,27/03/2024
html-keyboard-response,193,405809,0.0-80.0,,"<div style=""font-size:100px;"">+</div>",,delaylearn,learning,ITI,64jA2Z6pdvMj3aX0893vBGxOxJu2,64jA2Z6pdvMj3aX0893vBGxOxJu2,,,,,,,,,,,,,,,,,,,1590.0,,,5995889da2bbe000018833d9,16:55:20,27/03/2024
html-keyboard-response,194,406765,0.0-81.0-0.0,953.5,"<div style=""display: flex; flex-direction: column; align-items: center; margin-top: -40px;""><img src=""images/pattern_6.png"" style=""width: 234px; height: 230px; margin-top: -50px;""><div style=""display: flex; justify-content: space-between; margin-top: 33px;""><img src=""images/choice_trial_16.png"" style=""width: 408px; height: 417px; margin-right: 200px;""><img src=""images/choice_trial_3.png"" style=""width: 408px; height: 417px;""></div></div>",f,delaylearn,learning,trial,64jA2Z6pdvMj3aX0893vBGxOxJu2,64jA2Z6pdvMj3aX0893vBGxOxJu2,3.0,images/choice_trial_16.png,images/choice_trial_3.png,images/pattern_6.png,j,f,750.0,16.0,3.0,5.0,0.0,35.0,1.0,0.0,16.0,250.0,,,,,,5995889da2bbe000018833d9,16:55:20,27/03/2024
html-keyboard-response,195,407767,0.0-81.0-1.0,,"<div style=""display: flex; flex-direction: column; align-items: center; margin-top: -40px;""><img src=""images/pattern_6.png"" style=""width: 234px; height: 230px; margin-top: -50px;""><div style=""display: flex; justify-content: space-between; margin-top: 33px;""><img src=""images/choice_trial_16.png"" style=""width: 408px; height: 417px; margin-right: 608px;""></div></div>",,delaylearn,learning,display_response,64jA2Z6pdvMj3aX0893vBGxOxJu2,64jA2Z6pdvMj3aX0893vBGxOxJu2,,,,,,,,,,,,,,,,,chosen stimuli: images/choice_trial_16.png,,,,,5995889da2bbe000018833d9,16:55:20,27/03/2024
html-keyboard-response,196,408518,0.0-81.0-2.0,,,,delaylearn,learning,feedback_duration_window,64jA2Z6pdvMj3aX0893vBGxOxJu2,64jA2Z6pdvMj3aX0893vBGxOxJu2,,,,,,,,,,,,,,,,,,750.0,,,,5995889da2bbe000018833d9,16:55:20,27/03/2024
html-keyboard-response,197,410021,0.0-81.0-3.0,,<div style='margin:auto;width: auto; font-size: 150%'><span style='font-weight: bold; font-size: 100px; color: red;'>0 points!</span><br><br></div>,,delaylearn,learning,feedback_image_window,64jA2Z6pdvMj3aX0893vBGxOxJu2,64jA2Z6pdvMj3aX0893vBGxOxJu2,,,,,,,,,,,,,,,,,,,,,,5995889da2bbe000018833d9,16:55:20,27/03/2024
html-keyboard-response,198,412115,0.0-82.0,,"<div style=""font-size:100px;"">+</div>",,delaylearn,learning,ITI,64jA2Z6pdvMj3aX0893vBGxOxJu2,64jA2Z6pdvMj3aX0893vBGxOxJu2,,,,,,,,,,,,,,,,,,,2093.0,,,5995889da2bbe000018833d9,16:55:20,27/03/2024
html-keyboard-response,199,413481,0.0-83.0-0.0,1362.699999999255,"<div style=""display: flex; flex-direction: column; align-items: center; margin-top: -40px;""><img src=""images/pattern_3.png"" style=""width: 234px; height: 230px; margin-top: -50px;""><div style=""display: flex; justify-content: space-between; margin-top: 33px;""><img src=""images/choice_trial_10.png"" style=""width: 408px; height: 417px; margin-right: 200px;""><img src=""images/choice_trial_13.png"" style=""width: 408px; height: 417px;""></div></div>",j,delaylearn,learning,trial,64jA2Z6pdvMj3aX0893vBGxOxJu2,64jA2Z6pdvMj3aX0893vBGxOxJu2,3.0,images/choice_trial_10.png,images/choice_trial_13.png,images/pattern_3.png,j,j,7000.0,10.0,13.0,2.0,1.0,36.0,1.0,1.0,13.0,260.0,,,,,,5995889da2bbe000018833d9,16:55:20,27/03/2024
html-keyboard-response,200,414483,0.0-83.0-1.0,,"<div style=""display: flex; flex-direction: column; align-items: center; margin-top: -40px;""><img src=""images/pattern_3.png"" style=""width: 234px; height: 230px; margin-top: -50px;""><div style=""display: flex; justify-content: space-between; margin-top: 33px;""><img src=""images/choice_trial_13.png"" style=""width: 408px; height: 417px; margin-left:608px;""></div></div>",,delaylearn,learning,display_response,64jA2Z6pdvMj3aX0893vBGxOxJu2,64jA2Z6pdvMj3aX0893vBGxOxJu2,,,,,,,,,,,,,,,,,chosen stimuli: images/choice_trial_13.png,,,,,5995889da2bbe000018833d9,16:55:20,27/03/2024
html-keyboard-response,201,421484,0.0-83.0-2.0,,,,delaylearn,learning,feedback_duration_window,64jA2Z6pdvMj3aX0893vBGxOxJu2,64jA2Z6pdvMj3aX0893vBGxOxJu2,,,,,,,,,,,,,,,,,,7000.0,,,,5995889da2bbe000018833d9,16:55:20,27/03/2024
html-keyboard-response,202,422986,0.0-83.0-3.0,,<div style='margin:auto;width: auto; font-size: 150%'><span style='font-weight: bold; font-size: 100px; color: green;'>+10 points!</span><br><br></div>,,delaylearn,learning,feedback_image_window,64jA2Z6pdvMj3aX0893vBGxOxJu2,64jA2Z6pdvMj3aX0893vBGxOxJu2,,,,,,,,,,,,,,,,,,,,,,5995889da2bbe000018833d9,16:55:20,27/03/2024
html-keyboard-response,203,425186,0.0-84.0,,"<div style=""font-size:100px;"">+</div>",,delaylearn,learning,ITI,64jA2Z6pdvMj3aX0893vBGxOxJu2,64jA2Z6pdvMj3aX0893vBGxOxJu2,,,,,,,,,,,,,,,,,,,2198.0,,,5995889da2bbe000018833d9,16:55:20,27/03/2024
html-keyboard-response,204,426307,0.0-85.0-0.0,1117.7000000029802,"<div style=""display: flex; flex-direction: column; align-items: center; margin-top: -40px;""><img src=""images/pattern_4.png"" style=""width: 234px; height: 230px; margin-top: -50px;""><div style=""display: flex; justify-content: space-between; margin-top: 33px;""><img src=""images/choice_trial_9.png"" style=""width: 408px; height: 417px; margin-right: 200px;""><img src=""images/choice_trial_15.png"" style=""width: 408px; height: 417px;""></div></div>",j,delaylearn,learning,trial,64jA2Z6pdvMj3aX0893vBGxOxJu2,64jA2Z6pdvMj3aX0893vBGxOxJu2,3.0,images/choice_trial_9.png,images/choice_trial_15.png,images/pattern_4.png,f,j,7000.0,9.0,15.0,3.0,1.0,37.0,1.0,0.0,15.0,260.0,,,,,,5995889da2bbe000018833d9,16:55:20,27/03/2024
html-keyboard-response,205,427309,0.0-85.0-1.0,,"<div style=""display: flex; flex-direction: column; align-items: center; margin-top: -40px;""><img src=""images/pattern_4.png"" style=""width: 234px; height: 230px; margin-top: -50px;""><div style=""display: flex; justify-content: space-between; margin-top: 33px;""><img src=""images/choice_trial_15.png"" style=""width: 408px; height: 417px; margin-left:608px;""></div></div>",,delaylearn,learning,display_response,64jA2Z6pdvMj3aX0893vBGxOxJu2,64jA2Z6pdvMj3aX0893vBGxOxJu2,,,,,,,,,,,,,,,,,chosen stimuli: images/choice_trial_15.png,,,,,5995889da2bbe000018833d9,16:55:20,27/03/2024
html-keyboard-response,206,434311,0.0-85.0-2.0,,,,delaylearn,learning,feedback_duration_window,64jA2Z6pdvMj3aX0893vBGxOxJu2,64jA2Z6pdvMj3aX0893vBGxOxJu2,,,,,,,,,,,,,,,,,,7000.0,,,,5995889da2bbe000018833d9,16:55:20,27/03/2024
html-keyboard-response,207,435813,0.0-85.0-3.0,,<div style='margin:auto;width: auto; font-size: 150%'><span style='font-weight: bold; font-size: 100px; color: red;'>0 points!</span><br><br></div>,,delaylearn,learning,feedback_image_window,64jA2Z6pdvMj3aX0893vBGxOxJu2,64jA2Z6pdvMj3aX0893vBGxOxJu2,,,,,,,,,,,,,,,,,,,,,,5995889da2bbe000018833d9,16:55:20,27/03/2024
html-keyboard-response,208,437494,0.0-86.0,,"<div style=""font-size:100px;"">+</div>",,delaylearn,learning,ITI,64jA2Z6pdvMj3aX0893vBGxOxJu2,64jA2Z6pdvMj3aX0893vBGxOxJu2,,,,,,,,,,,,,,,,,,,1680.0,,,5995889da2bbe000018833d9,16:55:20,27/03/2024
html-keyboard-response,209,439071,0.0-87.0-0.0,1572.800000000745,"<div style=""display: flex; flex-direction: column; align-items: center; margin-top: -40px;""><img src=""images/pattern_7.png"" style=""width: 234px; height: 230px; margin-top: -50px;""><div style=""display: flex; justify-content: space-between; margin-top: 33px;""><img src=""images/choice_trial_6.png"" style=""width: 408px; height: 417px; margin-right: 200px;""><img src=""images/choice_trial_12.png"" style=""width: 408px; height: 417px;""></div></div>",f,delaylearn,learning,trial,64jA2Z6pdvMj3aX0893vBGxOxJu2,64jA2Z6pdvMj3aX0893vBGxOxJu2,3.0,images/choice_trial_6.png,images/choice_trial_12.png,images/pattern_7.png,f,f,750.0,6.0,12.0,6.0,0.0,38.0,1.0,1.0,6.0,270.0,,,,,,5995889da2bbe000018833d9,16:55:20,27/03/2024
html-keyboard-response,210,440073,0.0-87.0-1.0,,"<div style=""display: flex; flex-direction: column; align-items: center; margin-top: -40px;""><img src=""images/pattern_7.png"" style=""width: 234px; height: 230px; margin-top: -50px;""><div style=""display: flex; justify-content: space-between; margin-top: 33px;""><img src=""images/choice_trial_6.png"" style=""width: 408px; height: 417px; margin-right: 608px;""></div></div>",,delaylearn,learning,display_response,64jA2Z6pdvMj3aX0893vBGxOxJu2,64jA2Z6pdvMj3aX0893vBGxOxJu2,,,,,,,,,,,,,,,,,chosen stimuli: images/choice_trial_6.png,,,,,5995889da2bbe000018833d9,16:55:20,27/03/2024
html-keyboard-response,211,440825,0.0-87.0-2.0,,,,delaylearn,learning,feedback_duration_window,64jA2Z6pdvMj3aX0893vBGxOxJu2,64jA2Z6pdvMj3aX0893vBGxOxJu2,,,,,,,,,,,,,,,,,,750.0,,,,5995889da2bbe000018833d9,16:55:20,27/03/2024
html-keyboard-response,212,442326,0.0-87.0-3.0,,<div style='margin:auto;width: auto; font-size: 150%'><span style='font-weight: bold; font-size: 100px; color: green;'>+10 points!</span><br><br></div>,,delaylearn,learning,feedback_image_window,64jA2Z6pdvMj3aX0893vBGxOxJu2,64jA2Z6pdvMj3aX0893vBGxOxJu2,,,,,,,,,,,,,,,,,,,,,,5995889da2bbe000018833d9,16:55:20,27/03/2024
html-keyboard-response,213,444362,0.0-88.0,,"<div style=""font-size:100px;"">+</div>",,delaylearn,learning,ITI,64jA2Z6pdvMj3aX0893vBGxOxJu2,64jA2Z6pdvMj3aX0893vBGxOxJu2,,,,,,,,,,,,,,,,,,,2034.0,,,5995889da2bbe000018833d9,16:55:20,27/03/2024
html-keyboard-response,214,445145,0.0-89.0-0.0,780.1000000014901,"<div style=""display: flex; flex-direction: column; align-items: center; margin-top: -40px;""><img src=""images/pattern_1.png"" style=""width: 234px; height: 230px; margin-top: -50px;""><div style=""display: flex; justify-content: space-between; margin-top: 33px;""><img src=""images/choice_trial_14.png"" style=""width: 408px; height: 417px; margin-right: 200px;""><img src=""images/choice_trial_8.png"" style=""width: 408px; height: 417px;""></div></div>",f,delaylearn,learning,trial,64jA2Z6pdvMj3aX0893vBGxOxJu2,64jA2Z6pdvMj3aX0893vBGxOxJu2,3.0,images/choice_trial_14.png,images/choice_trial_8.png,images/pattern_1.png,f,f,7000.0,14.0,8.0,1.0,0.0,39.0,1.0,1.0,14.0,280.0,,,,,,5995889da2bbe000018833d9,16:55:20,27/03/2024
html-keyboard-response,215,446148,0.0-89.0-1.0,,"<div style=""display: flex; flex-direction: column; align-items: center; margin-top: -40px;""><img src=""images/pattern_1.png"" style=""width: 234px; height: 230px; margin-top: -50px;""><div style=""display: flex; justify-content: space-between; margin-top: 33px;""><img src=""images/choice_trial_14.png"" style=""width: 408px; height: 417px; margin-right: 608px;""></div></div>",,delaylearn,learning,display_response,64jA2Z6pdvMj3aX0893vBGxOxJu2,64jA2Z6pdvMj3aX0893vBGxOxJu2,,,,,,,,,,,,,,,,,chosen stimuli: images/choice_trial_14.png,,,,,5995889da2bbe000018833d9,16:55:20,27/03/2024
html-keyboard-response,216,453150,0.0-89.0-2.0,,,,delaylearn,learning,feedback_duration_window,64jA2Z6pdvMj3aX0893vBGxOxJu2,64jA2Z6pdvMj3aX0893vBGxOxJu2,,,,,,,,,,,,,,,,,,7000.0,,,,5995889da2bbe000018833d9,16:55:20,27/03/2024
html-keyboard-response,217,454652,0.0-89.0-3.0,,<div style='margin:auto;width: auto; font-size: 150%'><span style='font-weight: bold; font-size: 100px; color: green;'>+10 points!</span><br><br></div>,,delaylearn,learning,feedback_image_window,64jA2Z6pdvMj3aX0893vBGxOxJu2,64jA2Z6pdvMj3aX0893vBGxOxJu2,,,,,,,,,,,,,,,,,,,,,,5995889da2bbe000018833d9,16:55:20,27/03/2024
html-keyboard-response,218,455153,0.0-90.0-0.0,,,,,,mood_trial_fixation,64jA2Z6pdvMj3aX0893vBGxOxJu2,,,,,,,,,,,,,,,,,,,,,,,5995889da2bbe000018833d9,16:55:20,27/03/2024
lmdlab-html-vas-response,219,460057,0.0-90.0-1.0,3899.0,How happy are you right now?,0.6276695582913442,delaylearn,learning,mood_trial,64jA2Z6pdvMj3aX0893vBGxOxJu2,64jA2Z6pdvMj3aX0893vBGxOxJu2,,,,,,,,,,,,,,,,,,,,"['Very unhappy', 'Very happy']",,5995889da2bbe000018833d9,16:55:20,27/03/2024
html-keyboard-response,220,461592,0.0-91.0,,"<div style=""font-size:100px;"">+</div>",,delaylearn,learning,ITI,64jA2Z6pdvMj3aX0893vBGxOxJu2,64jA2Z6pdvMj3aX0893vBGxOxJu2,,,,,,,,,,,,,,,,,,,1533.0,,,5995889da2bbe000018833d9,16:55:20,27/03/2024
html-keyboard-response,221,462714,0.0-92.0-0.0,1118.6000000014901,"<div style=""display: flex; flex-direction: column; align-items: center; margin-top: -40px;""><img src=""images/pattern_3.png"" style=""width: 234px; height: 230px; margin-top: -50px;""><div style=""display: flex; justify-content: space-between; margin-top: 33px;""><img src=""images/choice_trial_13.png"" style=""width: 408px; height: 417px; margin-right: 200px;""><img src=""images/choice_trial_10.png"" style=""width: 408px; height: 417px;""></div></div>",f,delaylearn,learning,trial,64jA2Z6pdvMj3aX0893vBGxOxJu2,64jA2Z6pdvMj3aX0893vBGxOxJu2,3.0,images/choice_trial_13.png,images/choice_trial_10.png,images/pattern_3.png,j,f,7000.0,13.0,10.0,2.0,0.0,40.0,1.0,0.0,13.0,280.0,,,,,,5995889da2bbe000018833d9,16:55:20,27/03/2024
html-keyboard-response,222,463718,0.0-92.0-1.0,,"<div style=""display: flex; flex-direction: column; align-items: center; margin-top: -40px;""><img src=""images/pattern_3.png"" style=""width: 234px; height: 230px; margin-top: -50px;""><div style=""display: flex; justify-content: space-between; margin-top: 33px;""><img src=""images/choice_trial_13.png"" style=""width: 408px; height: 417px; margin-right: 608px;""></div></div>",,delaylearn,learning,display_response,64jA2Z6pdvMj3aX0893vBGxOxJu2,64jA2Z6pdvMj3aX0893vBGxOxJu2,,,,,,,,,,,,,,,,,chosen stimuli: images/choice_trial_13.png,,,,,5995889da2bbe000018833d9,16:55:20,27/03/2024
html-keyboard-response,223,470719,0.0-92.0-2.0,,,,delaylearn,learning,feedback_duration_window,64jA2Z6pdvMj3aX0893vBGxOxJu2,64jA2Z6pdvMj3aX0893vBGxOxJu2,,,,,,,,,,,,,,,,,,7000.0,,,,5995889da2bbe000018833d9,16:55:20,27/03/2024
html-keyboard-response,224,472221,0.0-92.0-3.0,,<div style='margin:auto;width: auto; font-size: 150%'><span style='font-weight: bold; font-size: 100px; color: red;'>0 points!</span><br><br></div>,,delaylearn,learning,feedback_image_window,64jA2Z6pdvMj3aX0893vBGxOxJu2,64jA2Z6pdvMj3aX0893vBGxOxJu2,,,,,,,,,,,,,,,,,,,,,,5995889da2bbe000018833d9,16:55:20,27/03/2024
html-keyboard-response,225,474198,0.0-93.0,,"<div style=""font-size:100px;"">+</div>",,delaylearn,learning,ITI,64jA2Z6pdvMj3aX0893vBGxOxJu2,64jA2Z6pdvMj3aX0893vBGxOxJu2,,,,,,,,,,,,,,,,,,,1974.0,,,5995889da2bbe000018833d9,16:55:20,27/03/2024
html-keyboard-response,226,475128,0.0-94.0-0.0,927.1000000014901,"<div style=""display: flex; flex-direction: column; align-items: center; margin-top: -40px;""><img src=""images/pattern_7.png"" style=""width: 234px; height: 230px; margin-top: -50px;""><div style=""display: flex; justify-content: space-between; margin-top: 33px;""><img src=""images/choice_trial_12.png"" style=""width: 408px; height: 417px; margin-right: 200px;""><img src=""images/choice_trial_6.png"" style=""width: 408px; height: 417px;""></div></div>",j,delaylearn,learning,trial,64jA2Z6pdvMj3aX0893vBGxOxJu2,64jA2Z6pdvMj3aX0893vBGxOxJu2,3.0,images/choice_trial_12.png,images/choice_trial_6.png,images/pattern_7.png,j,j,750.0,12.0,6.0,6.0,1.0,41.0,1.0,1.0,6.0,290.0,,,,,,5995889da2bbe000018833d9,16:55:20,27/03/2024
html-keyboard-response,227,476131,0.0-94.0-1.0,,"<div style=""display: flex; flex-direction: column; align-items: center; margin-top: -40px;""><img src=""images/pattern_7.png"" style=""width: 234px; height: 230px; margin-top: -50px;""><div style=""display: flex; justify-content: space-between; margin-top: 33px;""><img src=""images/choice_trial_6.png"" style=""width: 408px; height: 417px; margin-left:608px;""></div></div>",,delaylearn,learning,display_response,64jA2Z6pdvMj3aX0893vBGxOxJu2,64jA2Z6pdvMj3aX0893vBGxOxJu2,,,,,,,,,,,,,,,,,chosen stimuli: images/choice_trial_6.png,,,,,5995889da2bbe000018833d9,16:55:20,27/03/2024
html-keyboard-response,228,476882,0.0-94.0-2.0,,,,delaylearn,learning,feedback_duration_window,64jA2Z6pdvMj3aX0893vBGxOxJu2,64jA2Z6pdvMj3aX0893vBGxOxJu2,,,,,,,,,,,,,,,,,,750.0,,,,5995889da2bbe000018833d9,16:55:20,27/03/2024
html-keyboard-response,229,478384,0.0-94.0-3.0,,<div style='margin:auto;width: auto; font-size: 150%'><span style='font-weight: bold; font-size: 100px; color: green;'>+10 points!</span><br><br></div>,,delaylearn,learning,feedback_image_window,64jA2Z6pdvMj3aX0893vBGxOxJu2,64jA2Z6pdvMj3aX0893vBGxOxJu2,,,,,,,,,,,,,,,,,,,,,,5995889da2bbe000018833d9,16:55:20,27/03/2024
html-keyboard-response,230,480095,0.0-95.0,,"<div style=""font-size:100px;"">+</div>",,delaylearn,learning,ITI,64jA2Z6pdvMj3aX0893vBGxOxJu2,64jA2Z6pdvMj3aX0893vBGxOxJu2,,,,,,,,,,,,,,,,,,,1709.0,,,5995889da2bbe000018833d9,16:55:20,27/03/2024
