trial_type,trial_index,time_elapsed,internal_node_id,rt,stimulus,response,exp_name,exp_stage,test_part,subjectID,databaseID,counterbal,choice_stimuli_1,choice_stimuli_2,pattern_stimuli,rewarded_answer,correct_answer,feedback_duration_times,stim_left,stim_right,pair,leftright_counter,trial,response_correct,response_rewarded,chosen_stim,counter,displayed_choice,feedback_durations,ITI_duration,labels,rest_warning,prolificID,start_time,date
pavlovia,0,426,0.0-0.0,,,,,,,y87aUGQWOif2h9MWKMVr8E0rH7d2,,,,,,,,,,,,,,,,,,,,,,,63d96ff56b577f6ac10e5f6c,09:10:20,27/02/2024
html-keyboard-response,1,3436,0.0-1.0,,"<div style=""font-size:100px;"">+</div>",,delaylearn,learning,pre_fixation,y87aUGQWOif2h9MWKMVr8E0rH7d2,,,,,,,,,,,,,,,,,,,,,,,63d96ff56b577f6ac10e5f6c,09:10:20,27/02/2024
html-keyboard-response,2,4340,0.0-2.0-0.0,899.9000000022352,"<div style=""display: flex; flex-direction: column; align-items: center; margin-top: -40px;""><img src=""images/demo_images/pattern_1.png"" style=""width: 234px; height: 230px; margin-top: -50px;""><div style=""display: flex; justify-content: space-between; margin-top: 33px;""><img src=""images/demo_images/choice_trial_2.png"" style=""width: 408px; height: 417px; margin-right: 200px;""><img src=""images/demo_images/choice_trial_1.png"" style=""width: 408px; height: 417px;""></div></div>",f,delaylearn,learning,trial,y87aUGQWOif2h9MWKMVr8E0rH7d2,y87aUGQWOif2h9MWKMVr8E0rH7d2,5.0,images/demo_images/choice_trial_2.png,images/demo_images/choice_trial_1.png,images/demo_images/pattern_1.png,j,j,3000.0,2.0,1.0,20.0,1.0,1.0,0.0,0.0,2.0,0.0,,,,,,63d96ff56b577f6ac10e5f6c,09:10:20,27/02/2024
html-keyboard-response,3,5358,0.0-2.0-1.0,,"<div style=""display: flex; flex-direction: column; align-items: center; margin-top: -40px;""><img src=""images/demo_images/pattern_1.png"" style=""width: 234px; height: 230px; margin-top: -50px;""><div style=""display: flex; justify-content: space-between; margin-top: 33px;""><img src=""images/demo_images/choice_trial_2.png"" style=""width: 408px; height: 417px; margin-right: 608px;""></div></div>",,delaylearn,learning,display_response,y87aUGQWOif2h9MWKMVr8E0rH7d2,y87aUGQWOif2h9MWKMVr8E0rH7d2,,,,,,,,,,,,,,,,,chosen stimuli: images/demo_images/choice_trial_2.png,,,,,63d96ff56b577f6ac10e5f6c,09:10:20,27/02/2024
html-keyboard-response,4,8361,0.0-2.0-2.0,,,,delaylearn,learning,feedback_duration_window,y87aUGQWOif2h9MWKMVr8E0rH7d2,y87aUGQWOif2h9MWKMVr8E0rH7d2,,,,,,,,,,,,,,,,,,3000.0,,,,63d96ff56b577f6ac10e5f6c,09:10:20,27/02/2024
html-keyboard-response,5,9876,0.0-2.0-3.0,,<div style='margin:auto;width: auto; font-size: 150%'><span style='font-weight: bold; font-size: 100px; color: red;'>0 points!</span><br><br></div>,,delaylearn,learning,feedback_image_window,y87aUGQWOif2h9MWKMVr8E0rH7d2,y87aUGQWOif2h9MWKMVr8E0rH7d2,,,,,,,,,,,,,,,,,,,,,,63d96ff56b577f6ac10e5f6c,09:10:20,27/02/2024
html-keyboard-response,6,11674,0.0-3.0,,"<div style=""font-size:100px;"">+</div>",,delaylearn,learning,ITI,y87aUGQWOif2h9MWKMVr8E0rH7d2,y87aUGQWOif2h9MWKMVr8E0rH7d2,,,,,,,,,,,,,,,,,,,1786.0,,,63d96ff56b577f6ac10e5f6c,09:10:20,27/02/2024
html-keyboard-response,7,12530,0.0-4.0-0.0,851.8999999985099,"<div style=""display: flex; flex-direction: column; align-items: center; margin-top: -40px;""><img src=""images/demo_images/pattern_1.png"" style=""width: 234px; height: 230px; margin-top: -50px;""><div style=""display: flex; justify-content: space-between; margin-top: 33px;""><img src=""images/demo_images/choice_trial_2.png"" style=""width: 408px; height: 417px; margin-right: 200px;""><img src=""images/demo_images/choice_trial_1.png"" style=""width: 408px; height: 417px;""></div></div>",j,delaylearn,learning,trial,y87aUGQWOif2h9MWKMVr8E0rH7d2,y87aUGQWOif2h9MWKMVr8E0rH7d2,5.0,images/demo_images/choice_trial_2.png,images/demo_images/choice_trial_1.png,images/demo_images/pattern_1.png,j,j,3000.0,2.0,1.0,20.0,1.0,2.0,1.0,1.0,1.0,10.0,,,,,,63d96ff56b577f6ac10e5f6c,09:10:20,27/02/2024
html-keyboard-response,8,13533,0.0-4.0-1.0,,"<div style=""display: flex; flex-direction: column; align-items: center; margin-top: -40px;""><img src=""images/demo_images/pattern_1.png"" style=""width: 234px; height: 230px; margin-top: -50px;""><div style=""display: flex; justify-content: space-between; margin-top: 33px;""><img src=""images/demo_images/choice_trial_1.png"" style=""width: 408px; height: 417px; margin-left:608px;""></div></div>",,delaylearn,learning,display_response,y87aUGQWOif2h9MWKMVr8E0rH7d2,y87aUGQWOif2h9MWKMVr8E0rH7d2,,,,,,,,,,,,,,,,,chosen stimuli: images/demo_images/choice_trial_1.png,,,,,63d96ff56b577f6ac10e5f6c,09:10:20,27/02/2024
html-keyboard-response,9,16547,0.0-4.0-2.0,,,,delaylearn,learning,feedback_duration_window,y87aUGQWOif2h9MWKMVr8E0rH7d2,y87aUGQWOif2h9MWKMVr8E0rH7d2,,,,,,,,,,,,,,,,,,3000.0,,,,63d96ff56b577f6ac10e5f6c,09:10:20,27/02/2024
html-keyboard-response,10,18056,0.0-4.0-3.0,,<div style='margin:auto;width: auto; font-size: 150%'><span style='font-weight: bold; font-size: 100px; color: green;'>+10 points!</span><br><br></div>,,delaylearn,learning,feedback_image_window,y87aUGQWOif2h9MWKMVr8E0rH7d2,y87aUGQWOif2h9MWKMVr8E0rH7d2,,,,,,,,,,,,,,,,,,,,,,63d96ff56b577f6ac10e5f6c,09:10:20,27/02/2024
html-keyboard-response,11,20026,0.0-5.0,,"<div style=""font-size:100px;"">+</div>",,delaylearn,learning,ITI,y87aUGQWOif2h9MWKMVr8E0rH7d2,y87aUGQWOif2h9MWKMVr8E0rH7d2,,,,,,,,,,,,,,,,,,,1966.0,,,63d96ff56b577f6ac10e5f6c,09:10:20,27/02/2024
html-keyboard-response,12,20706,0.0-6.0-0.0,677.6999999992549,"<div style=""display: flex; flex-direction: column; align-items: center; margin-top: -40px;""><img src=""images/demo_images/pattern_1.png"" style=""width: 234px; height: 230px; margin-top: -50px;""><div style=""display: flex; justify-content: space-between; margin-top: 33px;""><img src=""images/demo_images/choice_trial_1.png"" style=""width: 408px; height: 417px; margin-right: 200px;""><img src=""images/demo_images/choice_trial_2.png"" style=""width: 408px; height: 417px;""></div></div>",f,delaylearn,learning,trial,y87aUGQWOif2h9MWKMVr8E0rH7d2,y87aUGQWOif2h9MWKMVr8E0rH7d2,5.0,images/demo_images/choice_trial_1.png,images/demo_images/choice_trial_2.png,images/demo_images/pattern_1.png,j,f,3000.0,1.0,2.0,20.0,0.0,3.0,1.0,0.0,1.0,10.0,,,,,,63d96ff56b577f6ac10e5f6c,09:10:20,27/02/2024
html-keyboard-response,13,21720,0.0-6.0-1.0,,"<div style=""display: flex; flex-direction: column; align-items: center; margin-top: -40px;""><img src=""images/demo_images/pattern_1.png"" style=""width: 234px; height: 230px; margin-top: -50px;""><div style=""display: flex; justify-content: space-between; margin-top: 33px;""><img src=""images/demo_images/choice_trial_1.png"" style=""width: 408px; height: 417px; margin-right: 608px;""></div></div>",,delaylearn,learning,display_response,y87aUGQWOif2h9MWKMVr8E0rH7d2,y87aUGQWOif2h9MWKMVr8E0rH7d2,,,,,,,,,,,,,,,,,chosen stimuli: images/demo_images/choice_trial_1.png,,,,,63d96ff56b577f6ac10e5f6c,09:10:20,27/02/2024
html-keyboard-response,14,24745,0.0-6.0-2.0,,,,delaylearn,learning,feedback_duration_window,y87aUGQWOif2h9MWKMVr8E0rH7d2,y87aUGQWOif2h9MWKMVr8E0rH7d2,,,,,,,,,,,,,,,,,,3000.0,,,,63d96ff56b577f6ac10e5f6c,09:10:20,27/02/2024
html-keyboard-response,15,26250,0.0-6.0-3.0,,<div style='margin:auto;width: auto; font-size: 150%'><span style='font-weight: bold; font-size: 100px; color: red;'>0 points!</span><br><br></div>,,delaylearn,learning,feedback_image_window,y87aUGQWOif2h9MWKMVr8E0rH7d2,y87aUGQWOif2h9MWKMVr8E0rH7d2,,,,,,,,,,,,,,,,,,,,,,63d96ff56b577f6ac10e5f6c,09:10:20,27/02/2024
html-keyboard-response,16,28144,0.0-7.0,,"<div style=""font-size:100px;"">+</div>",,delaylearn,learning,ITI,y87aUGQWOif2h9MWKMVr8E0rH7d2,y87aUGQWOif2h9MWKMVr8E0rH7d2,,,,,,,,,,,,,,,,,,,1887.0,,,63d96ff56b577f6ac10e5f6c,09:10:20,27/02/2024
html-keyboard-response,17,28753,0.0-8.0-0.0,606.0999999977648,"<div style=""display: flex; flex-direction: column; align-items: center; margin-top: -40px;""><img src=""images/demo_images/pattern_1.png"" style=""width: 234px; height: 230px; margin-top: -50px;""><div style=""display: flex; justify-content: space-between; margin-top: 33px;""><img src=""images/demo_images/choice_trial_1.png"" style=""width: 408px; height: 417px; margin-right: 200px;""><img src=""images/demo_images/choice_trial_2.png"" style=""width: 408px; height: 417px;""></div></div>",f,delaylearn,learning,trial,y87aUGQWOif2h9MWKMVr8E0rH7d2,y87aUGQWOif2h9MWKMVr8E0rH7d2,5.0,images/demo_images/choice_trial_1.png,images/demo_images/choice_trial_2.png,images/demo_images/pattern_1.png,f,f,3000.0,1.0,2.0,20.0,0.0,4.0,1.0,1.0,1.0,20.0,,,,,,63d96ff56b577f6ac10e5f6c,09:10:20,27/02/2024
html-keyboard-response,18,29766,0.0-8.0-1.0,,"<div style=""display: flex; flex-direction: column; align-items: center; margin-top: -40px;""><img src=""images/demo_images/pattern_1.png"" style=""width: 234px; height: 230px; margin-top: -50px;""><div style=""display: flex; justify-content: space-between; margin-top: 33px;""><img src=""images/demo_images/choice_trial_1.png"" style=""width: 408px; height: 417px; margin-right: 608px;""></div></div>",,delaylearn,learning,display_response,y87aUGQWOif2h9MWKMVr8E0rH7d2,y87aUGQWOif2h9MWKMVr8E0rH7d2,,,,,,,,,,,,,,,,,chosen stimuli: images/demo_images/choice_trial_1.png,,,,,63d96ff56b577f6ac10e5f6c,09:10:20,27/02/2024
html-keyboard-response,19,32773,0.0-8.0-2.0,,,,delaylearn,learning,feedback_duration_window,y87aUGQWOif2h9MWKMVr8E0rH7d2,y87aUGQWOif2h9MWKMVr8E0rH7d2,,,,,,,,,,,,,,,,,,3000.0,,,,63d96ff56b577f6ac10e5f6c,09:10:20,27/02/2024
html-keyboard-response,20,34282,0.0-8.0-3.0,,<div style='margin:auto;width: auto; font-size: 150%'><span style='font-weight: bold; font-size: 100px; color: green;'>+10 points!</span><br><br></div>,,delaylearn,learning,feedback_image_window,y87aUGQWOif2h9MWKMVr8E0rH7d2,y87aUGQWOif2h9MWKMVr8E0rH7d2,,,,,,,,,,,,,,,,,,,,,,63d96ff56b577f6ac10e5f6c,09:10:20,27/02/2024
html-keyboard-response,21,34795,0.0-9.0-0.0,,,,,,mood_trial_fixation,y87aUGQWOif2h9MWKMVr8E0rH7d2,,,,,,,,,,,,,,,,,,,,,,,63d96ff56b577f6ac10e5f6c,09:10:20,27/02/2024
lmdlab-html-vas-response,22,41226,0.0-9.0-1.0,5394.0,How happy are you right now?,0.4783950617283951,delaylearn,learning,mood_trial,y87aUGQWOif2h9MWKMVr8E0rH7d2,y87aUGQWOif2h9MWKMVr8E0rH7d2,,,,,,,,,,,,,,,,,,,,"['Very unhappy', 'Very happy']",,63d96ff56b577f6ac10e5f6c,09:10:20,27/02/2024
html-keyboard-response,23,42992,0.0-10.0,,"<div style=""font-size:100px;"">+</div>",,delaylearn,learning,ITI,y87aUGQWOif2h9MWKMVr8E0rH7d2,y87aUGQWOif2h9MWKMVr8E0rH7d2,,,,,,,,,,,,,,,,,,,1757.0,,,63d96ff56b577f6ac10e5f6c,09:10:20,27/02/2024
html-keyboard-response,24,43954,0.0-11.0-0.0,958.7999999970198,"<div style=""display: flex; flex-direction: column; align-items: center; margin-top: -40px;""><img src=""images/demo_images/pattern_1.png"" style=""width: 234px; height: 230px; margin-top: -50px;""><div style=""display: flex; justify-content: space-between; margin-top: 33px;""><img src=""images/demo_images/choice_trial_2.png"" style=""width: 408px; height: 417px; margin-right: 200px;""><img src=""images/demo_images/choice_trial_1.png"" style=""width: 408px; height: 417px;""></div></div>",j,delaylearn,learning,trial,y87aUGQWOif2h9MWKMVr8E0rH7d2,y87aUGQWOif2h9MWKMVr8E0rH7d2,5.0,images/demo_images/choice_trial_2.png,images/demo_images/choice_trial_1.png,images/demo_images/pattern_1.png,j,j,3000.0,2.0,1.0,20.0,1.0,5.0,1.0,1.0,1.0,30.0,,,,,,63d96ff56b577f6ac10e5f6c,09:10:20,27/02/2024
html-keyboard-response,25,44977,0.0-11.0-1.0,,"<div style=""display: flex; flex-direction: column; align-items: center; margin-top: -40px;""><img src=""images/demo_images/pattern_1.png"" style=""width: 234px; height: 230px; margin-top: -50px;""><div style=""display: flex; justify-content: space-between; margin-top: 33px;""><img src=""images/demo_images/choice_trial_1.png"" style=""width: 408px; height: 417px; margin-left:608px;""></div></div>",,delaylearn,learning,display_response,y87aUGQWOif2h9MWKMVr8E0rH7d2,y87aUGQWOif2h9MWKMVr8E0rH7d2,,,,,,,,,,,,,,,,,chosen stimuli: images/demo_images/choice_trial_1.png,,,,,63d96ff56b577f6ac10e5f6c,09:10:20,27/02/2024
html-keyboard-response,26,47993,0.0-11.0-2.0,,,,delaylearn,learning,feedback_duration_window,y87aUGQWOif2h9MWKMVr8E0rH7d2,y87aUGQWOif2h9MWKMVr8E0rH7d2,,,,,,,,,,,,,,,,,,3000.0,,,,63d96ff56b577f6ac10e5f6c,09:10:20,27/02/2024
html-keyboard-response,27,49506,0.0-11.0-3.0,,<div style='margin:auto;width: auto; font-size: 150%'><span style='font-weight: bold; font-size: 100px; color: green;'>+10 points!</span><br><br></div>,,delaylearn,learning,feedback_image_window,y87aUGQWOif2h9MWKMVr8E0rH7d2,y87aUGQWOif2h9MWKMVr8E0rH7d2,,,,,,,,,,,,,,,,,,,,,,63d96ff56b577f6ac10e5f6c,09:10:20,27/02/2024
html-keyboard-response,28,51595,0.0-12.0,,"<div style=""font-size:100px;"">+</div>",,delaylearn,learning,ITI,y87aUGQWOif2h9MWKMVr8E0rH7d2,y87aUGQWOif2h9MWKMVr8E0rH7d2,,,,,,,,,,,,,,,,,,,2073.0,,,63d96ff56b577f6ac10e5f6c,09:10:20,27/02/2024
html-keyboard-response,29,52130,0.0-13.0-0.0,531.6000000014901,"<div style=""display: flex; flex-direction: column; align-items: center; margin-top: -40px;""><img src=""images/demo_images/pattern_1.png"" style=""width: 234px; height: 230px; margin-top: -50px;""><div style=""display: flex; justify-content: space-between; margin-top: 33px;""><img src=""images/demo_images/choice_trial_1.png"" style=""width: 408px; height: 417px; margin-right: 200px;""><img src=""images/demo_images/choice_trial_2.png"" style=""width: 408px; height: 417px;""></div></div>",f,delaylearn,learning,trial,y87aUGQWOif2h9MWKMVr8E0rH7d2,y87aUGQWOif2h9MWKMVr8E0rH7d2,5.0,images/demo_images/choice_trial_1.png,images/demo_images/choice_trial_2.png,images/demo_images/pattern_1.png,f,f,3000.0,1.0,2.0,20.0,0.0,6.0,1.0,1.0,1.0,40.0,,,,,,63d96ff56b577f6ac10e5f6c,09:10:20,27/02/2024
html-keyboard-response,30,53144,0.0-13.0-1.0,,"<div style=""display: flex; flex-direction: column; align-items: center; margin-top: -40px;""><img src=""images/demo_images/pattern_1.png"" style=""width: 234px; height: 230px; margin-top: -50px;""><div style=""display: flex; justify-content: space-between; margin-top: 33px;""><img src=""images/demo_images/choice_trial_1.png"" style=""width: 408px; height: 417px; margin-right: 608px;""></div></div>",,delaylearn,learning,display_response,y87aUGQWOif2h9MWKMVr8E0rH7d2,y87aUGQWOif2h9MWKMVr8E0rH7d2,,,,,,,,,,,,,,,,,chosen stimuli: images/demo_images/choice_trial_1.png,,,,,63d96ff56b577f6ac10e5f6c,09:10:20,27/02/2024
html-keyboard-response,31,56153,0.0-13.0-2.0,,,,delaylearn,learning,feedback_duration_window,y87aUGQWOif2h9MWKMVr8E0rH7d2,y87aUGQWOif2h9MWKMVr8E0rH7d2,,,,,,,,,,,,,,,,,,3000.0,,,,63d96ff56b577f6ac10e5f6c,09:10:20,27/02/2024
html-keyboard-response,32,57671,0.0-13.0-3.0,,<div style='margin:auto;width: auto; font-size: 150%'><span style='font-weight: bold; font-size: 100px; color: green;'>+10 points!</span><br><br></div>,,delaylearn,learning,feedback_image_window,y87aUGQWOif2h9MWKMVr8E0rH7d2,y87aUGQWOif2h9MWKMVr8E0rH7d2,,,,,,,,,,,,,,,,,,,,,,63d96ff56b577f6ac10e5f6c,09:10:20,27/02/2024
html-button-response,33,61089,0.0-14.0,3416.60000000149,"
  <div style=""display: flex; align-items: center; justify-content: center; height: 80vh;"">
  <div>
          <img src=""images/inst_demo_finish.png"" style=""width: 80vw; height:auto;"">
          <br><br>
      </div>
      <br><br>
  </div>",0,,,,y87aUGQWOif2h9MWKMVr8E0rH7d2,,,,,,,,,,,,,,,,,,,,,,,63d96ff56b577f6ac10e5f6c,09:10:20,27/02/2024
html-keyboard-response,34,62898,0.0-15.0,1808.2000000029802,"
  <div style=""display: flex; align-items: center; justify-content: center; height: 80vh;"">
  <div>
          <img src=""images/inst_6.png"" style=""width: 80vw; height:auto;"">
          <br><br>
      </div>
      <br><br>
  </div>",j,,,,y87aUGQWOif2h9MWKMVr8E0rH7d2,,,,,,,,,,,,,,,,,,,,,,,63d96ff56b577f6ac10e5f6c,09:10:20,27/02/2024
html-keyboard-response,35,65906,0.0-16.0,,"<div style=""font-size:100px;"">+</div>",,delaylearn,learning,pre_fixation,y87aUGQWOif2h9MWKMVr8E0rH7d2,,,,,,,,,,,,,,,,,,,,,,,63d96ff56b577f6ac10e5f6c,09:10:20,27/02/2024
html-keyboard-response,36,68188,0.0-17.0,,"<div style=""font-size:100px;"">+</div>",,delaylearn,learning,ITI,y87aUGQWOif2h9MWKMVr8E0rH7d2,y87aUGQWOif2h9MWKMVr8E0rH7d2,,,,,,,,,,,,,,,,,,,2270.0,,,63d96ff56b577f6ac10e5f6c,09:10:20,27/02/2024
html-keyboard-response,37,69490,0.0-18.0-0.0,1298.699999999255,"<div style=""display: flex; flex-direction: column; align-items: center; margin-top: -40px;""><img src=""images/pattern_3.png"" style=""width: 234px; height: 230px; margin-top: -50px;""><div style=""display: flex; justify-content: space-between; margin-top: 33px;""><img src=""images/choice_trial_16.png"" style=""width: 408px; height: 417px; margin-right: 200px;""><img src=""images/choice_trial_2.png"" style=""width: 408px; height: 417px;""></div></div>",j,delaylearn,learning,trial,y87aUGQWOif2h9MWKMVr8E0rH7d2,y87aUGQWOif2h9MWKMVr8E0rH7d2,5.0,images/choice_trial_16.png,images/choice_trial_2.png,images/pattern_3.png,f,f,7000.0,16.0,2.0,2.0,0.0,7.0,0.0,0.0,2.0,40.0,,,,,,63d96ff56b577f6ac10e5f6c,09:10:20,27/02/2024
html-keyboard-response,38,70495,0.0-18.0-1.0,,"<div style=""display: flex; flex-direction: column; align-items: center; margin-top: -40px;""><img src=""images/pattern_3.png"" style=""width: 234px; height: 230px; margin-top: -50px;""><div style=""display: flex; justify-content: space-between; margin-top: 33px;""><img src=""images/choice_trial_2.png"" style=""width: 408px; height: 417px; margin-left:608px;""></div></div>",,delaylearn,learning,display_response,y87aUGQWOif2h9MWKMVr8E0rH7d2,y87aUGQWOif2h9MWKMVr8E0rH7d2,,,,,,,,,,,,,,,,,chosen stimuli: images/choice_trial_2.png,,,,,63d96ff56b577f6ac10e5f6c,09:10:20,27/02/2024
html-keyboard-response,39,77692,0.0-18.0-2.0,,,,delaylearn,learning,feedback_duration_window,y87aUGQWOif2h9MWKMVr8E0rH7d2,y87aUGQWOif2h9MWKMVr8E0rH7d2,,,,,,,,,,,,,,,,,,7000.0,,,,63d96ff56b577f6ac10e5f6c,09:10:20,27/02/2024
html-keyboard-response,40,79209,0.0-18.0-3.0,,<div style='margin:auto;width: auto; font-size: 150%'><span style='font-weight: bold; font-size: 100px; color: red;'>0 points!</span><br><br></div>,,delaylearn,learning,feedback_image_window,y87aUGQWOif2h9MWKMVr8E0rH7d2,y87aUGQWOif2h9MWKMVr8E0rH7d2,,,,,,,,,,,,,,,,,,,,,,63d96ff56b577f6ac10e5f6c,09:10:20,27/02/2024
html-keyboard-response,41,81333,0.0-19.0,,"<div style=""font-size:100px;"">+</div>",,delaylearn,learning,ITI,y87aUGQWOif2h9MWKMVr8E0rH7d2,y87aUGQWOif2h9MWKMVr8E0rH7d2,,,,,,,,,,,,,,,,,,,2114.0,,,63d96ff56b577f6ac10e5f6c,09:10:20,27/02/2024
html-keyboard-response,42,83444,0.0-20.0-0.0,2107.599999997765,"<div style=""display: flex; flex-direction: column; align-items: center; margin-top: -40px;""><img src=""images/pattern_7.png"" style=""width: 234px; height: 230px; margin-top: -50px;""><div style=""display: flex; justify-content: space-between; margin-top: 33px;""><img src=""images/choice_trial_10.png"" style=""width: 408px; height: 417px; margin-right: 200px;""><img src=""images/choice_trial_8.png"" style=""width: 408px; height: 417px;""></div></div>",j,delaylearn,learning,trial,y87aUGQWOif2h9MWKMVr8E0rH7d2,y87aUGQWOif2h9MWKMVr8E0rH7d2,5.0,images/choice_trial_10.png,images/choice_trial_8.png,images/pattern_7.png,j,j,750.0,10.0,8.0,6.0,1.0,8.0,1.0,1.0,8.0,50.0,,,,,,63d96ff56b577f6ac10e5f6c,09:10:20,27/02/2024
html-keyboard-response,43,84450,0.0-20.0-1.0,,"<div style=""display: flex; flex-direction: column; align-items: center; margin-top: -40px;""><img src=""images/pattern_7.png"" style=""width: 234px; height: 230px; margin-top: -50px;""><div style=""display: flex; justify-content: space-between; margin-top: 33px;""><img src=""images/choice_trial_8.png"" style=""width: 408px; height: 417px; margin-left:608px;""></div></div>",,delaylearn,learning,display_response,y87aUGQWOif2h9MWKMVr8E0rH7d2,y87aUGQWOif2h9MWKMVr8E0rH7d2,,,,,,,,,,,,,,,,,chosen stimuli: images/choice_trial_8.png,,,,,63d96ff56b577f6ac10e5f6c,09:10:20,27/02/2024
html-keyboard-response,44,85216,0.0-20.0-2.0,,,,delaylearn,learning,feedback_duration_window,y87aUGQWOif2h9MWKMVr8E0rH7d2,y87aUGQWOif2h9MWKMVr8E0rH7d2,,,,,,,,,,,,,,,,,,750.0,,,,63d96ff56b577f6ac10e5f6c,09:10:20,27/02/2024
html-keyboard-response,45,86728,0.0-20.0-3.0,,<div style='margin:auto;width: auto; font-size: 150%'><span style='font-weight: bold; font-size: 100px; color: green;'>+10 points!</span><br><br></div>,,delaylearn,learning,feedback_image_window,y87aUGQWOif2h9MWKMVr8E0rH7d2,y87aUGQWOif2h9MWKMVr8E0rH7d2,,,,,,,,,,,,,,,,,,,,,,63d96ff56b577f6ac10e5f6c,09:10:20,27/02/2024
html-keyboard-response,46,89069,0.0-21.0,,"<div style=""font-size:100px;"">+</div>",,delaylearn,learning,ITI,y87aUGQWOif2h9MWKMVr8E0rH7d2,y87aUGQWOif2h9MWKMVr8E0rH7d2,,,,,,,,,,,,,,,,,,,2332.0,,,63d96ff56b577f6ac10e5f6c,09:10:20,27/02/2024
html-keyboard-response,47,90404,0.0-22.0-0.0,1331.5,"<div style=""display: flex; flex-direction: column; align-items: center; margin-top: -40px;""><img src=""images/pattern_4.png"" style=""width: 234px; height: 230px; margin-top: -50px;""><div style=""display: flex; justify-content: space-between; margin-top: 33px;""><img src=""images/choice_trial_11.png"" style=""width: 408px; height: 417px; margin-right: 200px;""><img src=""images/choice_trial_4.png"" style=""width: 408px; height: 417px;""></div></div>",f,delaylearn,learning,trial,y87aUGQWOif2h9MWKMVr8E0rH7d2,y87aUGQWOif2h9MWKMVr8E0rH7d2,5.0,images/choice_trial_11.png,images/choice_trial_4.png,images/pattern_4.png,f,f,7000.0,11.0,4.0,3.0,0.0,9.0,1.0,1.0,11.0,60.0,,,,,,63d96ff56b577f6ac10e5f6c,09:10:20,27/02/2024
html-keyboard-response,48,91418,0.0-22.0-1.0,,"<div style=""display: flex; flex-direction: column; align-items: center; margin-top: -40px;""><img src=""images/pattern_4.png"" style=""width: 234px; height: 230px; margin-top: -50px;""><div style=""display: flex; justify-content: space-between; margin-top: 33px;""><img src=""images/choice_trial_11.png"" style=""width: 408px; height: 417px; margin-right: 608px;""></div></div>",,delaylearn,learning,display_response,y87aUGQWOif2h9MWKMVr8E0rH7d2,y87aUGQWOif2h9MWKMVr8E0rH7d2,,,,,,,,,,,,,,,,,chosen stimuli: images/choice_trial_11.png,,,,,63d96ff56b577f6ac10e5f6c,09:10:20,27/02/2024
html-keyboard-response,49,98422,0.0-22.0-2.0,,,,delaylearn,learning,feedback_duration_window,y87aUGQWOif2h9MWKMVr8E0rH7d2,y87aUGQWOif2h9MWKMVr8E0rH7d2,,,,,,,,,,,,,,,,,,7000.0,,,,63d96ff56b577f6ac10e5f6c,09:10:20,27/02/2024
html-keyboard-response,50,99939,0.0-22.0-3.0,,<div style='margin:auto;width: auto; font-size: 150%'><span style='font-weight: bold; font-size: 100px; color: green;'>+10 points!</span><br><br></div>,,delaylearn,learning,feedback_image_window,y87aUGQWOif2h9MWKMVr8E0rH7d2,y87aUGQWOif2h9MWKMVr8E0rH7d2,,,,,,,,,,,,,,,,,,,,,,63d96ff56b577f6ac10e5f6c,09:10:20,27/02/2024
html-keyboard-response,51,102352,0.0-23.0,,"<div style=""font-size:100px;"">+</div>",,delaylearn,learning,ITI,y87aUGQWOif2h9MWKMVr8E0rH7d2,y87aUGQWOif2h9MWKMVr8E0rH7d2,,,,,,,,,,,,,,,,,,,2399.0,,,63d96ff56b577f6ac10e5f6c,09:10:20,27/02/2024
html-keyboard-response,52,104628,0.0-24.0-0.0,2273.0,"<div style=""display: flex; flex-direction: column; align-items: center; margin-top: -40px;""><img src=""images/pattern_5.png"" style=""width: 234px; height: 230px; margin-top: -50px;""><div style=""display: flex; justify-content: space-between; margin-top: 33px;""><img src=""images/choice_trial_13.png"" style=""width: 408px; height: 417px; margin-right: 200px;""><img src=""images/choice_trial_7.png"" style=""width: 408px; height: 417px;""></div></div>",f,delaylearn,learning,trial,y87aUGQWOif2h9MWKMVr8E0rH7d2,y87aUGQWOif2h9MWKMVr8E0rH7d2,5.0,images/choice_trial_13.png,images/choice_trial_7.png,images/pattern_5.png,j,j,750.0,13.0,7.0,4.0,1.0,10.0,0.0,0.0,13.0,60.0,,,,,,63d96ff56b577f6ac10e5f6c,09:10:20,27/02/2024
html-keyboard-response,53,105637,0.0-24.0-1.0,,"<div style=""display: flex; flex-direction: column; align-items: center; margin-top: -40px;""><img src=""images/pattern_5.png"" style=""width: 234px; height: 230px; margin-top: -50px;""><div style=""display: flex; justify-content: space-between; margin-top: 33px;""><img src=""images/choice_trial_13.png"" style=""width: 408px; height: 417px; margin-right: 608px;""></div></div>",,delaylearn,learning,display_response,y87aUGQWOif2h9MWKMVr8E0rH7d2,y87aUGQWOif2h9MWKMVr8E0rH7d2,,,,,,,,,,,,,,,,,chosen stimuli: images/choice_trial_13.png,,,,,63d96ff56b577f6ac10e5f6c,09:10:20,27/02/2024
html-keyboard-response,54,106394,0.0-24.0-2.0,,,,delaylearn,learning,feedback_duration_window,y87aUGQWOif2h9MWKMVr8E0rH7d2,y87aUGQWOif2h9MWKMVr8E0rH7d2,,,,,,,,,,,,,,,,,,750.0,,,,63d96ff56b577f6ac10e5f6c,09:10:20,27/02/2024
html-keyboard-response,55,107910,0.0-24.0-3.0,,<div style='margin:auto;width: auto; font-size: 150%'><span style='font-weight: bold; font-size: 100px; color: red;'>0 points!</span><br><br></div>,,delaylearn,learning,feedback_image_window,y87aUGQWOif2h9MWKMVr8E0rH7d2,y87aUGQWOif2h9MWKMVr8E0rH7d2,,,,,,,,,,,,,,,,,,,,,,63d96ff56b577f6ac10e5f6c,09:10:20,27/02/2024
html-keyboard-response,56,110100,0.0-25.0,,"<div style=""font-size:100px;"">+</div>",,delaylearn,learning,ITI,y87aUGQWOif2h9MWKMVr8E0rH7d2,y87aUGQWOif2h9MWKMVr8E0rH7d2,,,,,,,,,,,,,,,,,,,2182.0,,,63d96ff56b577f6ac10e5f6c,09:10:20,27/02/2024
html-keyboard-response,57,112019,0.0-26.0-0.0,1916.2000000029802,"<div style=""display: flex; flex-direction: column; align-items: center; margin-top: -40px;""><img src=""images/pattern_6.png"" style=""width: 234px; height: 230px; margin-top: -50px;""><div style=""display: flex; justify-content: space-between; margin-top: 33px;""><img src=""images/choice_trial_14.png"" style=""width: 408px; height: 417px; margin-right: 200px;""><img src=""images/choice_trial_9.png"" style=""width: 408px; height: 417px;""></div></div>",j,delaylearn,learning,trial,y87aUGQWOif2h9MWKMVr8E0rH7d2,y87aUGQWOif2h9MWKMVr8E0rH7d2,5.0,images/choice_trial_14.png,images/choice_trial_9.png,images/pattern_6.png,j,f,750.0,14.0,9.0,5.0,0.0,11.0,0.0,1.0,9.0,70.0,,,,,,63d96ff56b577f6ac10e5f6c,09:10:20,27/02/2024
html-keyboard-response,58,113031,0.0-26.0-1.0,,"<div style=""display: flex; flex-direction: column; align-items: center; margin-top: -40px;""><img src=""images/pattern_6.png"" style=""width: 234px; height: 230px; margin-top: -50px;""><div style=""display: flex; justify-content: space-between; margin-top: 33px;""><img src=""images/choice_trial_9.png"" style=""width: 408px; height: 417px; margin-left:608px;""></div></div>",,delaylearn,learning,display_response,y87aUGQWOif2h9MWKMVr8E0rH7d2,y87aUGQWOif2h9MWKMVr8E0rH7d2,,,,,,,,,,,,,,,,,chosen stimuli: images/choice_trial_9.png,,,,,63d96ff56b577f6ac10e5f6c,09:10:20,27/02/2024
html-keyboard-response,59,113798,0.0-26.0-2.0,,,,delaylearn,learning,feedback_duration_window,y87aUGQWOif2h9MWKMVr8E0rH7d2,y87aUGQWOif2h9MWKMVr8E0rH7d2,,,,,,,,,,,,,,,,,,750.0,,,,63d96ff56b577f6ac10e5f6c,09:10:20,27/02/2024
html-keyboard-response,60,115315,0.0-26.0-3.0,,<div style='margin:auto;width: auto; font-size: 150%'><span style='font-weight: bold; font-size: 100px; color: green;'>+10 points!</span><br><br></div>,,delaylearn,learning,feedback_image_window,y87aUGQWOif2h9MWKMVr8E0rH7d2,y87aUGQWOif2h9MWKMVr8E0rH7d2,,,,,,,,,,,,,,,,,,,,,,63d96ff56b577f6ac10e5f6c,09:10:20,27/02/2024
html-keyboard-response,61,115831,0.0-27.0-0.0,,,,,,mood_trial_fixation,y87aUGQWOif2h9MWKMVr8E0rH7d2,,,,,,,,,,,,,,,,,,,,,,,63d96ff56b577f6ac10e5f6c,09:10:20,27/02/2024
lmdlab-html-vas-response,62,121459,0.0-27.0-1.0,4620.0,How happy are you right now?,0.5169753086419753,delaylearn,learning,mood_trial,y87aUGQWOif2h9MWKMVr8E0rH7d2,y87aUGQWOif2h9MWKMVr8E0rH7d2,,,,,,,,,,,,,,,,,,,,"['Very unhappy', 'Very happy']",,63d96ff56b577f6ac10e5f6c,09:10:20,27/02/2024
html-keyboard-response,63,123733,0.0-28.0,,"<div style=""font-size:100px;"">+</div>",,delaylearn,learning,ITI,y87aUGQWOif2h9MWKMVr8E0rH7d2,y87aUGQWOif2h9MWKMVr8E0rH7d2,,,,,,,,,,,,,,,,,,,2272.0,,,63d96ff56b577f6ac10e5f6c,09:10:20,27/02/2024
html-keyboard-response,64,125027,0.0-29.0-0.0,1292.300000000745,"<div style=""display: flex; flex-direction: column; align-items: center; margin-top: -40px;""><img src=""images/pattern_1.png"" style=""width: 234px; height: 230px; margin-top: -50px;""><div style=""display: flex; justify-content: space-between; margin-top: 33px;""><img src=""images/choice_trial_15.png"" style=""width: 408px; height: 417px; margin-right: 200px;""><img src=""images/choice_trial_6.png"" style=""width: 408px; height: 417px;""></div></div>",j,delaylearn,learning,trial,y87aUGQWOif2h9MWKMVr8E0rH7d2,y87aUGQWOif2h9MWKMVr8E0rH7d2,5.0,images/choice_trial_15.png,images/choice_trial_6.png,images/pattern_1.png,j,j,7000.0,15.0,6.0,1.0,1.0,12.0,1.0,1.0,6.0,80.0,,,,,,63d96ff56b577f6ac10e5f6c,09:10:20,27/02/2024
html-keyboard-response,65,126035,0.0-29.0-1.0,,"<div style=""display: flex; flex-direction: column; align-items: center; margin-top: -40px;""><img src=""images/pattern_1.png"" style=""width: 234px; height: 230px; margin-top: -50px;""><div style=""display: flex; justify-content: space-between; margin-top: 33px;""><img src=""images/choice_trial_6.png"" style=""width: 408px; height: 417px; margin-left:608px;""></div></div>",,delaylearn,learning,display_response,y87aUGQWOif2h9MWKMVr8E0rH7d2,y87aUGQWOif2h9MWKMVr8E0rH7d2,,,,,,,,,,,,,,,,,chosen stimuli: images/choice_trial_6.png,,,,,63d96ff56b577f6ac10e5f6c,09:10:20,27/02/2024
html-keyboard-response,66,133049,0.0-29.0-2.0,,,,delaylearn,learning,feedback_duration_window,y87aUGQWOif2h9MWKMVr8E0rH7d2,y87aUGQWOif2h9MWKMVr8E0rH7d2,,,,,,,,,,,,,,,,,,7000.0,,,,63d96ff56b577f6ac10e5f6c,09:10:20,27/02/2024
html-keyboard-response,67,134561,0.0-29.0-3.0,,<div style='margin:auto;width: auto; font-size: 150%'><span style='font-weight: bold; font-size: 100px; color: green;'>+10 points!</span><br><br></div>,,delaylearn,learning,feedback_image_window,y87aUGQWOif2h9MWKMVr8E0rH7d2,y87aUGQWOif2h9MWKMVr8E0rH7d2,,,,,,,,,,,,,,,,,,,,,,63d96ff56b577f6ac10e5f6c,09:10:20,27/02/2024
html-keyboard-response,68,136492,0.0-30.0,,"<div style=""font-size:100px;"">+</div>",,delaylearn,learning,ITI,y87aUGQWOif2h9MWKMVr8E0rH7d2,y87aUGQWOif2h9MWKMVr8E0rH7d2,,,,,,,,,,,,,,,,,,,1632.0,,,63d96ff56b577f6ac10e5f6c,09:10:20,27/02/2024
html-keyboard-response,69,138143,0.0-31.0-0.0,1647.800000000745,"<div style=""display: flex; flex-direction: column; align-items: center; margin-top: -40px;""><img src=""images/pattern_3.png"" style=""width: 234px; height: 230px; margin-top: -50px;""><div style=""display: flex; justify-content: space-between; margin-top: 33px;""><img src=""images/choice_trial_2.png"" style=""width: 408px; height: 417px; margin-right: 200px;""><img src=""images/choice_trial_16.png"" style=""width: 408px; height: 417px;""></div></div>",j,delaylearn,learning,trial,y87aUGQWOif2h9MWKMVr8E0rH7d2,y87aUGQWOif2h9MWKMVr8E0rH7d2,5.0,images/choice_trial_2.png,images/choice_trial_16.png,images/pattern_3.png,f,j,7000.0,2.0,16.0,2.0,1.0,13.0,1.0,0.0,16.0,80.0,,,,,,63d96ff56b577f6ac10e5f6c,09:10:20,27/02/2024
html-keyboard-response,70,139150,0.0-31.0-1.0,,"<div style=""display: flex; flex-direction: column; align-items: center; margin-top: -40px;""><img src=""images/pattern_3.png"" style=""width: 234px; height: 230px; margin-top: -50px;""><div style=""display: flex; justify-content: space-between; margin-top: 33px;""><img src=""images/choice_trial_16.png"" style=""width: 408px; height: 417px; margin-left:608px;""></div></div>",,delaylearn,learning,display_response,y87aUGQWOif2h9MWKMVr8E0rH7d2,y87aUGQWOif2h9MWKMVr8E0rH7d2,,,,,,,,,,,,,,,,,chosen stimuli: images/choice_trial_16.png,,,,,63d96ff56b577f6ac10e5f6c,09:10:20,27/02/2024
html-keyboard-response,71,146158,0.0-31.0-2.0,,,,delaylearn,learning,feedback_duration_window,y87aUGQWOif2h9MWKMVr8E0rH7d2,y87aUGQWOif2h9MWKMVr8E0rH7d2,,,,,,,,,,,,,,,,,,7000.0,,,,63d96ff56b577f6ac10e5f6c,09:10:20,27/02/2024
html-keyboard-response,72,147670,0.0-31.0-3.0,,<div style='margin:auto;width: auto; font-size: 150%'><span style='font-weight: bold; font-size: 100px; color: red;'>0 points!</span><br><br></div>,,delaylearn,learning,feedback_image_window,y87aUGQWOif2h9MWKMVr8E0rH7d2,y87aUGQWOif2h9MWKMVr8E0rH7d2,,,,,,,,,,,,,,,,,,,,,,63d96ff56b577f6ac10e5f6c,09:10:20,27/02/2024
html-keyboard-response,73,149764,0.0-32.0,,"<div style=""font-size:100px;"">+</div>",,delaylearn,learning,ITI,y87aUGQWOif2h9MWKMVr8E0rH7d2,y87aUGQWOif2h9MWKMVr8E0rH7d2,,,,,,,,,,,,,,,,,,,2077.0,,,63d96ff56b577f6ac10e5f6c,09:10:20,27/02/2024
html-keyboard-response,74,151343,0.0-33.0-0.0,1576.300000000745,"<div style=""display: flex; flex-direction: column; align-items: center; margin-top: -40px;""><img src=""images/pattern_5.png"" style=""width: 234px; height: 230px; margin-top: -50px;""><div style=""display: flex; justify-content: space-between; margin-top: 33px;""><img src=""images/choice_trial_7.png"" style=""width: 408px; height: 417px; margin-right: 200px;""><img src=""images/choice_trial_13.png"" style=""width: 408px; height: 417px;""></div></div>",j,delaylearn,learning,trial,y87aUGQWOif2h9MWKMVr8E0rH7d2,y87aUGQWOif2h9MWKMVr8E0rH7d2,5.0,images/choice_trial_7.png,images/choice_trial_13.png,images/pattern_5.png,f,f,750.0,7.0,13.0,4.0,0.0,14.0,0.0,0.0,13.0,80.0,,,,,,63d96ff56b577f6ac10e5f6c,09:10:20,27/02/2024
html-keyboard-response,75,152360,0.0-33.0-1.0,,"<div style=""display: flex; flex-direction: column; align-items: center; margin-top: -40px;""><img src=""images/pattern_5.png"" style=""width: 234px; height: 230px; margin-top: -50px;""><div style=""display: flex; justify-content: space-between; margin-top: 33px;""><img src=""images/choice_trial_13.png"" style=""width: 408px; height: 417px; margin-left:608px;""></div></div>",,delaylearn,learning,display_response,y87aUGQWOif2h9MWKMVr8E0rH7d2,y87aUGQWOif2h9MWKMVr8E0rH7d2,,,,,,,,,,,,,,,,,chosen stimuli: images/choice_trial_13.png,,,,,63d96ff56b577f6ac10e5f6c,09:10:20,27/02/2024
html-keyboard-response,76,153114,0.0-33.0-2.0,,,,delaylearn,learning,feedback_duration_window,y87aUGQWOif2h9MWKMVr8E0rH7d2,y87aUGQWOif2h9MWKMVr8E0rH7d2,,,,,,,,,,,,,,,,,,750.0,,,,63d96ff56b577f6ac10e5f6c,09:10:20,27/02/2024
html-keyboard-response,77,154617,0.0-33.0-3.0,,<div style='margin:auto;width: auto; font-size: 150%'><span style='font-weight: bold; font-size: 100px; color: red;'>0 points!</span><br><br></div>,,delaylearn,learning,feedback_image_window,y87aUGQWOif2h9MWKMVr8E0rH7d2,y87aUGQWOif2h9MWKMVr8E0rH7d2,,,,,,,,,,,,,,,,,,,,,,63d96ff56b577f6ac10e5f6c,09:10:20,27/02/2024
html-keyboard-response,78,155119,0.0-34.0-0.0,,,,,,mood_trial_fixation,y87aUGQWOif2h9MWKMVr8E0rH7d2,,,,,,,,,,,,,,,,,,,,,,,63d96ff56b577f6ac10e5f6c,09:10:20,27/02/2024
lmdlab-html-vas-response,79,159542,0.0-34.0-1.0,3419.0,How happy are you right now?,0.45524691358024694,delaylearn,learning,mood_trial,y87aUGQWOif2h9MWKMVr8E0rH7d2,y87aUGQWOif2h9MWKMVr8E0rH7d2,,,,,,,,,,,,,,,,,,,,"['Very unhappy', 'Very happy']",,63d96ff56b577f6ac10e5f6c,09:10:20,27/02/2024
html-keyboard-response,80,161058,0.0-35.0,,"<div style=""font-size:100px;"">+</div>",,delaylearn,learning,ITI,y87aUGQWOif2h9MWKMVr8E0rH7d2,y87aUGQWOif2h9MWKMVr8E0rH7d2,,,,,,,,,,,,,,,,,,,1510.0,,,63d96ff56b577f6ac10e5f6c,09:10:20,27/02/2024
html-keyboard-response,81,162255,0.0-36.0-0.0,1193.699999999255,"<div style=""display: flex; flex-direction: column; align-items: center; margin-top: -40px;""><img src=""images/pattern_6.png"" style=""width: 234px; height: 230px; margin-top: -50px;""><div style=""display: flex; justify-content: space-between; margin-top: 33px;""><img src=""images/choice_trial_14.png"" style=""width: 408px; height: 417px; margin-right: 200px;""><img src=""images/choice_trial_9.png"" style=""width: 408px; height: 417px;""></div></div>",j,delaylearn,learning,trial,y87aUGQWOif2h9MWKMVr8E0rH7d2,y87aUGQWOif2h9MWKMVr8E0rH7d2,5.0,images/choice_trial_14.png,images/choice_trial_9.png,images/pattern_6.png,f,f,750.0,14.0,9.0,5.0,0.0,15.0,0.0,0.0,9.0,80.0,,,,,,63d96ff56b577f6ac10e5f6c,09:10:20,27/02/2024
html-keyboard-response,82,163262,0.0-36.0-1.0,,"<div style=""display: flex; flex-direction: column; align-items: center; margin-top: -40px;""><img src=""images/pattern_6.png"" style=""width: 234px; height: 230px; margin-top: -50px;""><div style=""display: flex; justify-content: space-between; margin-top: 33px;""><img src=""images/choice_trial_9.png"" style=""width: 408px; height: 417px; margin-left:608px;""></div></div>",,delaylearn,learning,display_response,y87aUGQWOif2h9MWKMVr8E0rH7d2,y87aUGQWOif2h9MWKMVr8E0rH7d2,,,,,,,,,,,,,,,,,chosen stimuli: images/choice_trial_9.png,,,,,63d96ff56b577f6ac10e5f6c,09:10:20,27/02/2024
html-keyboard-response,83,164024,0.0-36.0-2.0,,,,delaylearn,learning,feedback_duration_window,y87aUGQWOif2h9MWKMVr8E0rH7d2,y87aUGQWOif2h9MWKMVr8E0rH7d2,,,,,,,,,,,,,,,,,,750.0,,,,63d96ff56b577f6ac10e5f6c,09:10:20,27/02/2024
html-keyboard-response,84,165539,0.0-36.0-3.0,,<div style='margin:auto;width: auto; font-size: 150%'><span style='font-weight: bold; font-size: 100px; color: red;'>0 points!</span><br><br></div>,,delaylearn,learning,feedback_image_window,y87aUGQWOif2h9MWKMVr8E0rH7d2,y87aUGQWOif2h9MWKMVr8E0rH7d2,,,,,,,,,,,,,,,,,,,,,,63d96ff56b577f6ac10e5f6c,09:10:20,27/02/2024
html-keyboard-response,85,167148,0.0-37.0,,"<div style=""font-size:100px;"">+</div>",,delaylearn,learning,ITI,y87aUGQWOif2h9MWKMVr8E0rH7d2,y87aUGQWOif2h9MWKMVr8E0rH7d2,,,,,,,,,,,,,,,,,,,1602.0,,,63d96ff56b577f6ac10e5f6c,09:10:20,27/02/2024
html-keyboard-response,86,168399,0.0-38.0-0.0,1247.699999999255,"<div style=""display: flex; flex-direction: column; align-items: center; margin-top: -40px;""><img src=""images/pattern_4.png"" style=""width: 234px; height: 230px; margin-top: -50px;""><div style=""display: flex; justify-content: space-between; margin-top: 33px;""><img src=""images/choice_trial_4.png"" style=""width: 408px; height: 417px; margin-right: 200px;""><img src=""images/choice_trial_11.png"" style=""width: 408px; height: 417px;""></div></div>",j,delaylearn,learning,trial,y87aUGQWOif2h9MWKMVr8E0rH7d2,y87aUGQWOif2h9MWKMVr8E0rH7d2,5.0,images/choice_trial_4.png,images/choice_trial_11.png,images/pattern_4.png,j,j,7000.0,4.0,11.0,3.0,1.0,16.0,1.0,1.0,11.0,90.0,,,,,,63d96ff56b577f6ac10e5f6c,09:10:20,27/02/2024
html-keyboard-response,87,169410,0.0-38.0-1.0,,"<div style=""display: flex; flex-direction: column; align-items: center; margin-top: -40px;""><img src=""images/pattern_4.png"" style=""width: 234px; height: 230px; margin-top: -50px;""><div style=""display: flex; justify-content: space-between; margin-top: 33px;""><img src=""images/choice_trial_11.png"" style=""width: 408px; height: 417px; margin-left:608px;""></div></div>",,delaylearn,learning,display_response,y87aUGQWOif2h9MWKMVr8E0rH7d2,y87aUGQWOif2h9MWKMVr8E0rH7d2,,,,,,,,,,,,,,,,,chosen stimuli: images/choice_trial_11.png,,,,,63d96ff56b577f6ac10e5f6c,09:10:20,27/02/2024
html-keyboard-response,88,176417,0.0-38.0-2.0,,,,delaylearn,learning,feedback_duration_window,y87aUGQWOif2h9MWKMVr8E0rH7d2,y87aUGQWOif2h9MWKMVr8E0rH7d2,,,,,,,,,,,,,,,,,,7000.0,,,,63d96ff56b577f6ac10e5f6c,09:10:20,27/02/2024
html-keyboard-response,89,177932,0.0-38.0-3.0,,<div style='margin:auto;width: auto; font-size: 150%'><span style='font-weight: bold; font-size: 100px; color: green;'>+10 points!</span><br><br></div>,,delaylearn,learning,feedback_image_window,y87aUGQWOif2h9MWKMVr8E0rH7d2,y87aUGQWOif2h9MWKMVr8E0rH7d2,,,,,,,,,,,,,,,,,,,,,,63d96ff56b577f6ac10e5f6c,09:10:20,27/02/2024
html-keyboard-response,90,179839,0.0-39.0,,"<div style=""font-size:100px;"">+</div>",,delaylearn,learning,ITI,y87aUGQWOif2h9MWKMVr8E0rH7d2,y87aUGQWOif2h9MWKMVr8E0rH7d2,,,,,,,,,,,,,,,,,,,1895.0,,,63d96ff56b577f6ac10e5f6c,09:10:20,27/02/2024
html-keyboard-response,91,181007,0.0-40.0-0.0,1164.3999999985099,"<div style=""display: flex; flex-direction: column; align-items: center; margin-top: -40px;""><img src=""images/pattern_7.png"" style=""width: 234px; height: 230px; margin-top: -50px;""><div style=""display: flex; justify-content: space-between; margin-top: 33px;""><img src=""images/choice_trial_8.png"" style=""width: 408px; height: 417px; margin-right: 200px;""><img src=""images/choice_trial_10.png"" style=""width: 408px; height: 417px;""></div></div>",f,delaylearn,learning,trial,y87aUGQWOif2h9MWKMVr8E0rH7d2,y87aUGQWOif2h9MWKMVr8E0rH7d2,5.0,images/choice_trial_8.png,images/choice_trial_10.png,images/pattern_7.png,j,f,750.0,8.0,10.0,6.0,0.0,17.0,1.0,0.0,8.0,90.0,,,,,,63d96ff56b577f6ac10e5f6c,09:10:20,27/02/2024
html-keyboard-response,92,182019,0.0-40.0-1.0,,"<div style=""display: flex; flex-direction: column; align-items: center; margin-top: -40px;""><img src=""images/pattern_7.png"" style=""width: 234px; height: 230px; margin-top: -50px;""><div style=""display: flex; justify-content: space-between; margin-top: 33px;""><img src=""images/choice_trial_8.png"" style=""width: 408px; height: 417px; margin-right: 608px;""></div></div>",,delaylearn,learning,display_response,y87aUGQWOif2h9MWKMVr8E0rH7d2,y87aUGQWOif2h9MWKMVr8E0rH7d2,,,,,,,,,,,,,,,,,chosen stimuli: images/choice_trial_8.png,,,,,63d96ff56b577f6ac10e5f6c,09:10:20,27/02/2024
html-keyboard-response,93,182785,0.0-40.0-2.0,,,,delaylearn,learning,feedback_duration_window,y87aUGQWOif2h9MWKMVr8E0rH7d2,y87aUGQWOif2h9MWKMVr8E0rH7d2,,,,,,,,,,,,,,,,,,750.0,,,,63d96ff56b577f6ac10e5f6c,09:10:20,27/02/2024
html-keyboard-response,94,184289,0.0-40.0-3.0,,<div style='margin:auto;width: auto; font-size: 150%'><span style='font-weight: bold; font-size: 100px; color: red;'>0 points!</span><br><br></div>,,delaylearn,learning,feedback_image_window,y87aUGQWOif2h9MWKMVr8E0rH7d2,y87aUGQWOif2h9MWKMVr8E0rH7d2,,,,,,,,,,,,,,,,,,,,,,63d96ff56b577f6ac10e5f6c,09:10:20,27/02/2024
html-keyboard-response,95,185997,0.0-41.0,,"<div style=""font-size:100px;"">+</div>",,delaylearn,learning,ITI,y87aUGQWOif2h9MWKMVr8E0rH7d2,y87aUGQWOif2h9MWKMVr8E0rH7d2,,,,,,,,,,,,,,,,,,,1701.0,,,63d96ff56b577f6ac10e5f6c,09:10:20,27/02/2024
html-keyboard-response,96,187135,0.0-42.0-0.0,1134.199999999255,"<div style=""display: flex; flex-direction: column; align-items: center; margin-top: -40px;""><img src=""images/pattern_1.png"" style=""width: 234px; height: 230px; margin-top: -50px;""><div style=""display: flex; justify-content: space-between; margin-top: 33px;""><img src=""images/choice_trial_6.png"" style=""width: 408px; height: 417px; margin-right: 200px;""><img src=""images/choice_trial_15.png"" style=""width: 408px; height: 417px;""></div></div>",f,delaylearn,learning,trial,y87aUGQWOif2h9MWKMVr8E0rH7d2,y87aUGQWOif2h9MWKMVr8E0rH7d2,5.0,images/choice_trial_6.png,images/choice_trial_15.png,images/pattern_1.png,f,f,7000.0,6.0,15.0,1.0,0.0,18.0,1.0,1.0,6.0,100.0,,,,,,63d96ff56b577f6ac10e5f6c,09:10:20,27/02/2024
html-keyboard-response,97,188148,0.0-42.0-1.0,,"<div style=""display: flex; flex-direction: column; align-items: center; margin-top: -40px;""><img src=""images/pattern_1.png"" style=""width: 234px; height: 230px; margin-top: -50px;""><div style=""display: flex; justify-content: space-between; margin-top: 33px;""><img src=""images/choice_trial_6.png"" style=""width: 408px; height: 417px; margin-right: 608px;""></div></div>",,delaylearn,learning,display_response,y87aUGQWOif2h9MWKMVr8E0rH7d2,y87aUGQWOif2h9MWKMVr8E0rH7d2,,,,,,,,,,,,,,,,,chosen stimuli: images/choice_trial_6.png,,,,,63d96ff56b577f6ac10e5f6c,09:10:20,27/02/2024
html-keyboard-response,98,195158,0.0-42.0-2.0,,,,delaylearn,learning,feedback_duration_window,y87aUGQWOif2h9MWKMVr8E0rH7d2,y87aUGQWOif2h9MWKMVr8E0rH7d2,,,,,,,,,,,,,,,,,,7000.0,,,,63d96ff56b577f6ac10e5f6c,09:10:20,27/02/2024
html-keyboard-response,99,196946,0.0-42.0-3.0,,<div style='margin:auto;width: auto; font-size: 150%'><span style='font-weight: bold; font-size: 100px; color: green;'>+10 points!</span><br><br></div>,,delaylearn,learning,feedback_image_window,y87aUGQWOif2h9MWKMVr8E0rH7d2,y87aUGQWOif2h9MWKMVr8E0rH7d2,,,,,,,,,,,,,,,,,,,,,,63d96ff56b577f6ac10e5f6c,09:10:20,27/02/2024
html-keyboard-response,100,198795,0.0-43.0,,"<div style=""font-size:100px;"">+</div>",,delaylearn,learning,ITI,y87aUGQWOif2h9MWKMVr8E0rH7d2,y87aUGQWOif2h9MWKMVr8E0rH7d2,,,,,,,,,,,,,,,,,,,1843.0,,,63d96ff56b577f6ac10e5f6c,09:10:20,27/02/2024
html-keyboard-response,101,199834,0.0-44.0-0.0,1036.300000000745,"<div style=""display: flex; flex-direction: column; align-items: center; margin-top: -40px;""><img src=""images/pattern_6.png"" style=""width: 234px; height: 230px; margin-top: -50px;""><div style=""display: flex; justify-content: space-between; margin-top: 33px;""><img src=""images/choice_trial_9.png"" style=""width: 408px; height: 417px; margin-right: 200px;""><img src=""images/choice_trial_14.png"" style=""width: 408px; height: 417px;""></div></div>",f,delaylearn,learning,trial,y87aUGQWOif2h9MWKMVr8E0rH7d2,y87aUGQWOif2h9MWKMVr8E0rH7d2,5.0,images/choice_trial_9.png,images/choice_trial_14.png,images/pattern_6.png,j,j,750.0,9.0,14.0,5.0,1.0,19.0,0.0,0.0,9.0,100.0,,,,,,63d96ff56b577f6ac10e5f6c,09:10:20,27/02/2024
html-keyboard-response,102,200845,0.0-44.0-1.0,,"<div style=""display: flex; flex-direction: column; align-items: center; margin-top: -40px;""><img src=""images/pattern_6.png"" style=""width: 234px; height: 230px; margin-top: -50px;""><div style=""display: flex; justify-content: space-between; margin-top: 33px;""><img src=""images/choice_trial_9.png"" style=""width: 408px; height: 417px; margin-right: 608px;""></div></div>",,delaylearn,learning,display_response,y87aUGQWOif2h9MWKMVr8E0rH7d2,y87aUGQWOif2h9MWKMVr8E0rH7d2,,,,,,,,,,,,,,,,,chosen stimuli: images/choice_trial_9.png,,,,,63d96ff56b577f6ac10e5f6c,09:10:20,27/02/2024
html-keyboard-response,103,201609,0.0-44.0-2.0,,,,delaylearn,learning,feedback_duration_window,y87aUGQWOif2h9MWKMVr8E0rH7d2,y87aUGQWOif2h9MWKMVr8E0rH7d2,,,,,,,,,,,,,,,,,,750.0,,,,63d96ff56b577f6ac10e5f6c,09:10:20,27/02/2024
html-keyboard-response,104,203121,0.0-44.0-3.0,,<div style='margin:auto;width: auto; font-size: 150%'><span style='font-weight: bold; font-size: 100px; color: red;'>0 points!</span><br><br></div>,,delaylearn,learning,feedback_image_window,y87aUGQWOif2h9MWKMVr8E0rH7d2,y87aUGQWOif2h9MWKMVr8E0rH7d2,,,,,,,,,,,,,,,,,,,,,,63d96ff56b577f6ac10e5f6c,09:10:20,27/02/2024
html-keyboard-response,105,204642,0.0-45.0,,"<div style=""font-size:100px;"">+</div>",,delaylearn,learning,ITI,y87aUGQWOif2h9MWKMVr8E0rH7d2,y87aUGQWOif2h9MWKMVr8E0rH7d2,,,,,,,,,,,,,,,,,,,1510.0,,,63d96ff56b577f6ac10e5f6c,09:10:20,27/02/2024
html-keyboard-response,106,206074,0.0-46.0-0.0,1428.699999999255,"<div style=""display: flex; flex-direction: column; align-items: center; margin-top: -40px;""><img src=""images/pattern_4.png"" style=""width: 234px; height: 230px; margin-top: -50px;""><div style=""display: flex; justify-content: space-between; margin-top: 33px;""><img src=""images/choice_trial_11.png"" style=""width: 408px; height: 417px; margin-right: 200px;""><img src=""images/choice_trial_4.png"" style=""width: 408px; height: 417px;""></div></div>",f,delaylearn,learning,trial,y87aUGQWOif2h9MWKMVr8E0rH7d2,y87aUGQWOif2h9MWKMVr8E0rH7d2,5.0,images/choice_trial_11.png,images/choice_trial_4.png,images/pattern_4.png,f,f,7000.0,11.0,4.0,3.0,0.0,20.0,1.0,1.0,11.0,110.0,,,,,,63d96ff56b577f6ac10e5f6c,09:10:20,27/02/2024
html-keyboard-response,107,207079,0.0-46.0-1.0,,"<div style=""display: flex; flex-direction: column; align-items: center; margin-top: -40px;""><img src=""images/pattern_4.png"" style=""width: 234px; height: 230px; margin-top: -50px;""><div style=""display: flex; justify-content: space-between; margin-top: 33px;""><img src=""images/choice_trial_11.png"" style=""width: 408px; height: 417px; margin-right: 608px;""></div></div>",,delaylearn,learning,display_response,y87aUGQWOif2h9MWKMVr8E0rH7d2,y87aUGQWOif2h9MWKMVr8E0rH7d2,,,,,,,,,,,,,,,,,chosen stimuli: images/choice_trial_11.png,,,,,63d96ff56b577f6ac10e5f6c,09:10:20,27/02/2024
html-keyboard-response,108,214087,0.0-46.0-2.0,,,,delaylearn,learning,feedback_duration_window,y87aUGQWOif2h9MWKMVr8E0rH7d2,y87aUGQWOif2h9MWKMVr8E0rH7d2,,,,,,,,,,,,,,,,,,7000.0,,,,63d96ff56b577f6ac10e5f6c,09:10:20,27/02/2024
html-keyboard-response,109,215594,0.0-46.0-3.0,,<div style='margin:auto;width: auto; font-size: 150%'><span style='font-weight: bold; font-size: 100px; color: green;'>+10 points!</span><br><br></div>,,delaylearn,learning,feedback_image_window,y87aUGQWOif2h9MWKMVr8E0rH7d2,y87aUGQWOif2h9MWKMVr8E0rH7d2,,,,,,,,,,,,,,,,,,,,,,63d96ff56b577f6ac10e5f6c,09:10:20,27/02/2024
html-keyboard-response,110,216101,0.0-47.0-0.0,,,,,,mood_trial_fixation,y87aUGQWOif2h9MWKMVr8E0rH7d2,,,,,,,,,,,,,,,,,,,,,,,63d96ff56b577f6ac10e5f6c,09:10:20,27/02/2024
lmdlab-html-vas-response,111,220569,0.0-47.0-1.0,3454.0,How happy are you right now?,0.4104938271604938,delaylearn,learning,mood_trial,y87aUGQWOif2h9MWKMVr8E0rH7d2,y87aUGQWOif2h9MWKMVr8E0rH7d2,,,,,,,,,,,,,,,,,,,,"['Very unhappy', 'Very happy']",,63d96ff56b577f6ac10e5f6c,09:10:20,27/02/2024
html-keyboard-response,112,222497,0.0-48.0,,"<div style=""font-size:100px;"">+</div>",,delaylearn,learning,ITI,y87aUGQWOif2h9MWKMVr8E0rH7d2,y87aUGQWOif2h9MWKMVr8E0rH7d2,,,,,,,,,,,,,,,,,,,1925.0,,,63d96ff56b577f6ac10e5f6c,09:10:20,27/02/2024
html-keyboard-response,113,223594,0.0-49.0-0.0,1093.6000000014901,"<div style=""display: flex; flex-direction: column; align-items: center; margin-top: -40px;""><img src=""images/pattern_7.png"" style=""width: 234px; height: 230px; margin-top: -50px;""><div style=""display: flex; justify-content: space-between; margin-top: 33px;""><img src=""images/choice_trial_10.png"" style=""width: 408px; height: 417px; margin-right: 200px;""><img src=""images/choice_trial_8.png"" style=""width: 408px; height: 417px;""></div></div>",j,delaylearn,learning,trial,y87aUGQWOif2h9MWKMVr8E0rH7d2,y87aUGQWOif2h9MWKMVr8E0rH7d2,5.0,images/choice_trial_10.png,images/choice_trial_8.png,images/pattern_7.png,j,j,750.0,10.0,8.0,6.0,1.0,21.0,1.0,1.0,8.0,120.0,,,,,,63d96ff56b577f6ac10e5f6c,09:10:20,27/02/2024
html-keyboard-response,114,224603,0.0-49.0-1.0,,"<div style=""display: flex; flex-direction: column; align-items: center; margin-top: -40px;""><img src=""images/pattern_7.png"" style=""width: 234px; height: 230px; margin-top: -50px;""><div style=""display: flex; justify-content: space-between; margin-top: 33px;""><img src=""images/choice_trial_8.png"" style=""width: 408px; height: 417px; margin-left:608px;""></div></div>",,delaylearn,learning,display_response,y87aUGQWOif2h9MWKMVr8E0rH7d2,y87aUGQWOif2h9MWKMVr8E0rH7d2,,,,,,,,,,,,,,,,,chosen stimuli: images/choice_trial_8.png,,,,,63d96ff56b577f6ac10e5f6c,09:10:20,27/02/2024
html-keyboard-response,115,225364,0.0-49.0-2.0,,,,delaylearn,learning,feedback_duration_window,y87aUGQWOif2h9MWKMVr8E0rH7d2,y87aUGQWOif2h9MWKMVr8E0rH7d2,,,,,,,,,,,,,,,,,,750.0,,,,63d96ff56b577f6ac10e5f6c,09:10:20,27/02/2024
html-keyboard-response,116,226878,0.0-49.0-3.0,,<div style='margin:auto;width: auto; font-size: 150%'><span style='font-weight: bold; font-size: 100px; color: green;'>+10 points!</span><br><br></div>,,delaylearn,learning,feedback_image_window,y87aUGQWOif2h9MWKMVr8E0rH7d2,y87aUGQWOif2h9MWKMVr8E0rH7d2,,,,,,,,,,,,,,,,,,,,,,63d96ff56b577f6ac10e5f6c,09:10:20,27/02/2024
html-keyboard-response,117,229081,0.0-50.0,,"<div style=""font-size:100px;"">+</div>",,delaylearn,learning,ITI,y87aUGQWOif2h9MWKMVr8E0rH7d2,y87aUGQWOif2h9MWKMVr8E0rH7d2,,,,,,,,,,,,,,,,,,,2191.0,,,63d96ff56b577f6ac10e5f6c,09:10:20,27/02/2024
html-keyboard-response,118,230170,0.0-51.0-0.0,1085.800000000745,"<div style=""display: flex; flex-direction: column; align-items: center; margin-top: -40px;""><img src=""images/pattern_1.png"" style=""width: 234px; height: 230px; margin-top: -50px;""><div style=""display: flex; justify-content: space-between; margin-top: 33px;""><img src=""images/choice_trial_15.png"" style=""width: 408px; height: 417px; margin-right: 200px;""><img src=""images/choice_trial_6.png"" style=""width: 408px; height: 417px;""></div></div>",j,delaylearn,learning,trial,y87aUGQWOif2h9MWKMVr8E0rH7d2,y87aUGQWOif2h9MWKMVr8E0rH7d2,5.0,images/choice_trial_15.png,images/choice_trial_6.png,images/pattern_1.png,f,j,7000.0,15.0,6.0,1.0,1.0,22.0,1.0,0.0,6.0,120.0,,,,,,63d96ff56b577f6ac10e5f6c,09:10:20,27/02/2024
html-keyboard-response,119,231185,0.0-51.0-1.0,,"<div style=""display: flex; flex-direction: column; align-items: center; margin-top: -40px;""><img src=""images/pattern_1.png"" style=""width: 234px; height: 230px; margin-top: -50px;""><div style=""display: flex; justify-content: space-between; margin-top: 33px;""><img src=""images/choice_trial_6.png"" style=""width: 408px; height: 417px; margin-left:608px;""></div></div>",,delaylearn,learning,display_response,y87aUGQWOif2h9MWKMVr8E0rH7d2,y87aUGQWOif2h9MWKMVr8E0rH7d2,,,,,,,,,,,,,,,,,chosen stimuli: images/choice_trial_6.png,,,,,63d96ff56b577f6ac10e5f6c,09:10:20,27/02/2024
html-keyboard-response,120,238194,0.0-51.0-2.0,,,,delaylearn,learning,feedback_duration_window,y87aUGQWOif2h9MWKMVr8E0rH7d2,y87aUGQWOif2h9MWKMVr8E0rH7d2,,,,,,,,,,,,,,,,,,7000.0,,,,63d96ff56b577f6ac10e5f6c,09:10:20,27/02/2024
html-keyboard-response,121,239710,0.0-51.0-3.0,,<div style='margin:auto;width: auto; font-size: 150%'><span style='font-weight: bold; font-size: 100px; color: red;'>0 points!</span><br><br></div>,,delaylearn,learning,feedback_image_window,y87aUGQWOif2h9MWKMVr8E0rH7d2,y87aUGQWOif2h9MWKMVr8E0rH7d2,,,,,,,,,,,,,,,,,,,,,,63d96ff56b577f6ac10e5f6c,09:10:20,27/02/2024
html-keyboard-response,122,241271,0.0-52.0,,"<div style=""font-size:100px;"">+</div>",,delaylearn,learning,ITI,y87aUGQWOif2h9MWKMVr8E0rH7d2,y87aUGQWOif2h9MWKMVr8E0rH7d2,,,,,,,,,,,,,,,,,,,1544.0,,,63d96ff56b577f6ac10e5f6c,09:10:20,27/02/2024
html-keyboard-response,123,242586,0.0-53.0-0.0,1311.699999999255,"<div style=""display: flex; flex-direction: column; align-items: center; margin-top: -40px;""><img src=""images/pattern_5.png"" style=""width: 234px; height: 230px; margin-top: -50px;""><div style=""display: flex; justify-content: space-between; margin-top: 33px;""><img src=""images/choice_trial_13.png"" style=""width: 408px; height: 417px; margin-right: 200px;""><img src=""images/choice_trial_7.png"" style=""width: 408px; height: 417px;""></div></div>",j,delaylearn,learning,trial,y87aUGQWOif2h9MWKMVr8E0rH7d2,y87aUGQWOif2h9MWKMVr8E0rH7d2,5.0,images/choice_trial_13.png,images/choice_trial_7.png,images/pattern_5.png,j,j,750.0,13.0,7.0,4.0,1.0,23.0,1.0,1.0,7.0,130.0,,,,,,63d96ff56b577f6ac10e5f6c,09:10:20,27/02/2024
html-keyboard-response,124,243600,0.0-53.0-1.0,,"<div style=""display: flex; flex-direction: column; align-items: center; margin-top: -40px;""><img src=""images/pattern_5.png"" style=""width: 234px; height: 230px; margin-top: -50px;""><div style=""display: flex; justify-content: space-between; margin-top: 33px;""><img src=""images/choice_trial_7.png"" style=""width: 408px; height: 417px; margin-left:608px;""></div></div>",,delaylearn,learning,display_response,y87aUGQWOif2h9MWKMVr8E0rH7d2,y87aUGQWOif2h9MWKMVr8E0rH7d2,,,,,,,,,,,,,,,,,chosen stimuli: images/choice_trial_7.png,,,,,63d96ff56b577f6ac10e5f6c,09:10:20,27/02/2024
html-keyboard-response,125,244361,0.0-53.0-2.0,,,,delaylearn,learning,feedback_duration_window,y87aUGQWOif2h9MWKMVr8E0rH7d2,y87aUGQWOif2h9MWKMVr8E0rH7d2,,,,,,,,,,,,,,,,,,750.0,,,,63d96ff56b577f6ac10e5f6c,09:10:20,27/02/2024
html-keyboard-response,126,245875,0.0-53.0-3.0,,<div style='margin:auto;width: auto; font-size: 150%'><span style='font-weight: bold; font-size: 100px; color: green;'>+10 points!</span><br><br></div>,,delaylearn,learning,feedback_image_window,y87aUGQWOif2h9MWKMVr8E0rH7d2,y87aUGQWOif2h9MWKMVr8E0rH7d2,,,,,,,,,,,,,,,,,,,,,,63d96ff56b577f6ac10e5f6c,09:10:20,27/02/2024
html-keyboard-response,127,247698,0.0-54.0,,"<div style=""font-size:100px;"">+</div>",,delaylearn,learning,ITI,y87aUGQWOif2h9MWKMVr8E0rH7d2,y87aUGQWOif2h9MWKMVr8E0rH7d2,,,,,,,,,,,,,,,,,,,1817.0,,,63d96ff56b577f6ac10e5f6c,09:10:20,27/02/2024
html-keyboard-response,128,249626,0.0-55.0-0.0,1924.1000000014901,"<div style=""display: flex; flex-direction: column; align-items: center; margin-top: -40px;""><img src=""images/pattern_3.png"" style=""width: 234px; height: 230px; margin-top: -50px;""><div style=""display: flex; justify-content: space-between; margin-top: 33px;""><img src=""images/choice_trial_2.png"" style=""width: 408px; height: 417px; margin-right: 200px;""><img src=""images/choice_trial_16.png"" style=""width: 408px; height: 417px;""></div></div>",f,delaylearn,learning,trial,y87aUGQWOif2h9MWKMVr8E0rH7d2,y87aUGQWOif2h9MWKMVr8E0rH7d2,5.0,images/choice_trial_2.png,images/choice_trial_16.png,images/pattern_3.png,j,j,7000.0,2.0,16.0,2.0,1.0,24.0,0.0,0.0,2.0,130.0,,,,,,63d96ff56b577f6ac10e5f6c,09:10:20,27/02/2024
html-keyboard-response,129,250636,0.0-55.0-1.0,,"<div style=""display: flex; flex-direction: column; align-items: center; margin-top: -40px;""><img src=""images/pattern_3.png"" style=""width: 234px; height: 230px; margin-top: -50px;""><div style=""display: flex; justify-content: space-between; margin-top: 33px;""><img src=""images/choice_trial_2.png"" style=""width: 408px; height: 417px; margin-right: 608px;""></div></div>",,delaylearn,learning,display_response,y87aUGQWOif2h9MWKMVr8E0rH7d2,y87aUGQWOif2h9MWKMVr8E0rH7d2,,,,,,,,,,,,,,,,,chosen stimuli: images/choice_trial_2.png,,,,,63d96ff56b577f6ac10e5f6c,09:10:20,27/02/2024
html-keyboard-response,130,257929,0.0-55.0-2.0,,,,delaylearn,learning,feedback_duration_window,y87aUGQWOif2h9MWKMVr8E0rH7d2,y87aUGQWOif2h9MWKMVr8E0rH7d2,,,,,,,,,,,,,,,,,,7000.0,,,,63d96ff56b577f6ac10e5f6c,09:10:20,27/02/2024
html-keyboard-response,131,259433,0.0-55.0-3.0,,<div style='margin:auto;width: auto; font-size: 150%'><span style='font-weight: bold; font-size: 100px; color: red;'>0 points!</span><br><br></div>,,delaylearn,learning,feedback_image_window,y87aUGQWOif2h9MWKMVr8E0rH7d2,y87aUGQWOif2h9MWKMVr8E0rH7d2,,,,,,,,,,,,,,,,,,,,,,63d96ff56b577f6ac10e5f6c,09:10:20,27/02/2024
lmdlab-html-vas-response,132,265322,0.0-56.0-0.0,4367.0,*How <b><u>confident</u></b> are you feeling about your answers at this moment?*,0.24382716049382716,rewlearn,rate_confidence,,y87aUGQWOif2h9MWKMVr8E0rH7d2,y87aUGQWOif2h9MWKMVr8E0rH7d2,,,,,,,,,,,,,,,,,,,,"['No confidence', 'Complete confidence']",,63d96ff56b577f6ac10e5f6c,09:10:20,27/02/2024
lmdlab-rest-trial-limit,133,272437,0.0-56.0-1.0,5606.400000002235,"<div style=""font-size:40px;""><b>Please take a break!</b><br><br><br><br><p>Great work: you earned undefined points.<br><br><br><p>You have completed part(s) 1 of 6.<br><br><br><br>When you are ready to continue<br><br><br>please click the button.</p><br><br>",0,delaylearn,learning,break,y87aUGQWOif2h9MWKMVr8E0rH7d2,y87aUGQWOif2h9MWKMVr8E0rH7d2,,,,,,,,,,,,,,,,,,,,,0.0,63d96ff56b577f6ac10e5f6c,09:10:20,27/02/2024
html-keyboard-response,134,275439,0.0-56.0-2.0,,"<div style=""font-size:100px;"">+</div>",,delaylearn,learning,pre_fixation,y87aUGQWOif2h9MWKMVr8E0rH7d2,,,,,,,,,,,,,,,,,,,,,,,63d96ff56b577f6ac10e5f6c,09:10:20,27/02/2024
lmdlab-html-vas-response,135,278972,0.0-56.0-3.0-0.0,2525.0,How happy are you right now?,0.25617283950617287,delaylearn,learning,mood_baseline,y87aUGQWOif2h9MWKMVr8E0rH7d2,y87aUGQWOif2h9MWKMVr8E0rH7d2,,,,,,,,,,,,,,,,,,,,"['Very unhappy', 'Very happy']",,63d96ff56b577f6ac10e5f6c,09:10:20,27/02/2024
html-keyboard-response,136,280480,0.0-56.0-3.0-1.0,,,,,,mood_baseline_fixation,y87aUGQWOif2h9MWKMVr8E0rH7d2,,,,,,,,,,,,,,,,,,,,,,,63d96ff56b577f6ac10e5f6c,09:10:20,27/02/2024
html-keyboard-response,137,282799,0.0-57.0,,"<div style=""font-size:100px;"">+</div>",,delaylearn,learning,ITI,y87aUGQWOif2h9MWKMVr8E0rH7d2,y87aUGQWOif2h9MWKMVr8E0rH7d2,,,,,,,,,,,,,,,,,,,2305.0,,,63d96ff56b577f6ac10e5f6c,09:10:20,27/02/2024
html-keyboard-response,138,284213,0.0-58.0-0.0,1409.2000000029802,"<div style=""display: flex; flex-direction: column; align-items: center; margin-top: -40px;""><img src=""images/pattern_7.png"" style=""width: 234px; height: 230px; margin-top: -50px;""><div style=""display: flex; justify-content: space-between; margin-top: 33px;""><img src=""images/choice_trial_10.png"" style=""width: 408px; height: 417px; margin-right: 200px;""><img src=""images/choice_trial_8.png"" style=""width: 408px; height: 417px;""></div></div>",j,delaylearn,learning,trial,y87aUGQWOif2h9MWKMVr8E0rH7d2,y87aUGQWOif2h9MWKMVr8E0rH7d2,5.0,images/choice_trial_10.png,images/choice_trial_8.png,images/pattern_7.png,j,j,750.0,10.0,8.0,6.0,1.0,25.0,1.0,1.0,8.0,140.0,,,,,,63d96ff56b577f6ac10e5f6c,09:10:20,27/02/2024
html-keyboard-response,139,285225,0.0-58.0-1.0,,"<div style=""display: flex; flex-direction: column; align-items: center; margin-top: -40px;""><img src=""images/pattern_7.png"" style=""width: 234px; height: 230px; margin-top: -50px;""><div style=""display: flex; justify-content: space-between; margin-top: 33px;""><img src=""images/choice_trial_8.png"" style=""width: 408px; height: 417px; margin-left:608px;""></div></div>",,delaylearn,learning,display_response,y87aUGQWOif2h9MWKMVr8E0rH7d2,y87aUGQWOif2h9MWKMVr8E0rH7d2,,,,,,,,,,,,,,,,,chosen stimuli: images/choice_trial_8.png,,,,,63d96ff56b577f6ac10e5f6c,09:10:20,27/02/2024
html-keyboard-response,140,285982,0.0-58.0-2.0,,,,delaylearn,learning,feedback_duration_window,y87aUGQWOif2h9MWKMVr8E0rH7d2,y87aUGQWOif2h9MWKMVr8E0rH7d2,,,,,,,,,,,,,,,,,,750.0,,,,63d96ff56b577f6ac10e5f6c,09:10:20,27/02/2024
html-keyboard-response,141,287495,0.0-58.0-3.0,,<div style='margin:auto;width: auto; font-size: 150%'><span style='font-weight: bold; font-size: 100px; color: green;'>+10 points!</span><br><br></div>,,delaylearn,learning,feedback_image_window,y87aUGQWOif2h9MWKMVr8E0rH7d2,y87aUGQWOif2h9MWKMVr8E0rH7d2,,,,,,,,,,,,,,,,,,,,,,63d96ff56b577f6ac10e5f6c,09:10:20,27/02/2024
html-keyboard-response,142,288001,0.0-59.0-0.0,,,,,,mood_trial_fixation,y87aUGQWOif2h9MWKMVr8E0rH7d2,,,,,,,,,,,,,,,,,,,,,,,63d96ff56b577f6ac10e5f6c,09:10:20,27/02/2024
lmdlab-html-vas-response,143,292868,0.0-59.0-1.0,3849.0,How happy are you right now?,0.5,delaylearn,learning,mood_trial,y87aUGQWOif2h9MWKMVr8E0rH7d2,y87aUGQWOif2h9MWKMVr8E0rH7d2,,,,,,,,,,,,,,,,,,,,"['Very unhappy', 'Very happy']",,63d96ff56b577f6ac10e5f6c,09:10:20,27/02/2024
html-keyboard-response,144,294618,0.0-60.0,,"<div style=""font-size:100px;"">+</div>",,delaylearn,learning,ITI,y87aUGQWOif2h9MWKMVr8E0rH7d2,y87aUGQWOif2h9MWKMVr8E0rH7d2,,,,,,,,,,,,,,,,,,,1736.0,,,63d96ff56b577f6ac10e5f6c,09:10:20,27/02/2024
html-keyboard-response,145,295957,0.0-61.0-0.0,1334.699999999255,"<div style=""display: flex; flex-direction: column; align-items: center; margin-top: -40px;""><img src=""images/pattern_1.png"" style=""width: 234px; height: 230px; margin-top: -50px;""><div style=""display: flex; justify-content: space-between; margin-top: 33px;""><img src=""images/choice_trial_6.png"" style=""width: 408px; height: 417px; margin-right: 200px;""><img src=""images/choice_trial_15.png"" style=""width: 408px; height: 417px;""></div></div>",j,delaylearn,learning,trial,y87aUGQWOif2h9MWKMVr8E0rH7d2,y87aUGQWOif2h9MWKMVr8E0rH7d2,5.0,images/choice_trial_6.png,images/choice_trial_15.png,images/pattern_1.png,f,f,7000.0,6.0,15.0,1.0,0.0,26.0,0.0,0.0,15.0,140.0,,,,,,63d96ff56b577f6ac10e5f6c,09:10:20,27/02/2024
html-keyboard-response,146,296963,0.0-61.0-1.0,,"<div style=""display: flex; flex-direction: column; align-items: center; margin-top: -40px;""><img src=""images/pattern_1.png"" style=""width: 234px; height: 230px; margin-top: -50px;""><div style=""display: flex; justify-content: space-between; margin-top: 33px;""><img src=""images/choice_trial_15.png"" style=""width: 408px; height: 417px; margin-left:608px;""></div></div>",,delaylearn,learning,display_response,y87aUGQWOif2h9MWKMVr8E0rH7d2,y87aUGQWOif2h9MWKMVr8E0rH7d2,,,,,,,,,,,,,,,,,chosen stimuli: images/choice_trial_15.png,,,,,63d96ff56b577f6ac10e5f6c,09:10:20,27/02/2024
html-keyboard-response,147,303970,0.0-61.0-2.0,,,,delaylearn,learning,feedback_duration_window,y87aUGQWOif2h9MWKMVr8E0rH7d2,y87aUGQWOif2h9MWKMVr8E0rH7d2,,,,,,,,,,,,,,,,,,7000.0,,,,63d96ff56b577f6ac10e5f6c,09:10:20,27/02/2024
html-keyboard-response,148,305479,0.0-61.0-3.0,,<div style='margin:auto;width: auto; font-size: 150%'><span style='font-weight: bold; font-size: 100px; color: red;'>0 points!</span><br><br></div>,,delaylearn,learning,feedback_image_window,y87aUGQWOif2h9MWKMVr8E0rH7d2,y87aUGQWOif2h9MWKMVr8E0rH7d2,,,,,,,,,,,,,,,,,,,,,,63d96ff56b577f6ac10e5f6c,09:10:20,27/02/2024
html-keyboard-response,149,307695,0.0-62.0,,"<div style=""font-size:100px;"">+</div>",,delaylearn,learning,ITI,y87aUGQWOif2h9MWKMVr8E0rH7d2,y87aUGQWOif2h9MWKMVr8E0rH7d2,,,,,,,,,,,,,,,,,,,2202.0,,,63d96ff56b577f6ac10e5f6c,09:10:20,27/02/2024
html-keyboard-response,150,308868,0.0-63.0-0.0,1168.6000000014901,"<div style=""display: flex; flex-direction: column; align-items: center; margin-top: -40px;""><img src=""images/pattern_5.png"" style=""width: 234px; height: 230px; margin-top: -50px;""><div style=""display: flex; justify-content: space-between; margin-top: 33px;""><img src=""images/choice_trial_7.png"" style=""width: 408px; height: 417px; margin-right: 200px;""><img src=""images/choice_trial_13.png"" style=""width: 408px; height: 417px;""></div></div>",f,delaylearn,learning,trial,y87aUGQWOif2h9MWKMVr8E0rH7d2,y87aUGQWOif2h9MWKMVr8E0rH7d2,5.0,images/choice_trial_7.png,images/choice_trial_13.png,images/pattern_5.png,f,f,750.0,7.0,13.0,4.0,0.0,27.0,1.0,1.0,7.0,150.0,,,,,,63d96ff56b577f6ac10e5f6c,09:10:20,27/02/2024
html-keyboard-response,151,309872,0.0-63.0-1.0,,"<div style=""display: flex; flex-direction: column; align-items: center; margin-top: -40px;""><img src=""images/pattern_5.png"" style=""width: 234px; height: 230px; margin-top: -50px;""><div style=""display: flex; justify-content: space-between; margin-top: 33px;""><img src=""images/choice_trial_7.png"" style=""width: 408px; height: 417px; margin-right: 608px;""></div></div>",,delaylearn,learning,display_response,y87aUGQWOif2h9MWKMVr8E0rH7d2,y87aUGQWOif2h9MWKMVr8E0rH7d2,,,,,,,,,,,,,,,,,chosen stimuli: images/choice_trial_7.png,,,,,63d96ff56b577f6ac10e5f6c,09:10:20,27/02/2024
html-keyboard-response,152,310631,0.0-63.0-2.0,,,,delaylearn,learning,feedback_duration_window,y87aUGQWOif2h9MWKMVr8E0rH7d2,y87aUGQWOif2h9MWKMVr8E0rH7d2,,,,,,,,,,,,,,,,,,750.0,,,,63d96ff56b577f6ac10e5f6c,09:10:20,27/02/2024
html-keyboard-response,153,312139,0.0-63.0-3.0,,<div style='margin:auto;width: auto; font-size: 150%'><span style='font-weight: bold; font-size: 100px; color: green;'>+10 points!</span><br><br></div>,,delaylearn,learning,feedback_image_window,y87aUGQWOif2h9MWKMVr8E0rH7d2,y87aUGQWOif2h9MWKMVr8E0rH7d2,,,,,,,,,,,,,,,,,,,,,,63d96ff56b577f6ac10e5f6c,09:10:20,27/02/2024
html-keyboard-response,154,314148,0.0-64.0,,"<div style=""font-size:100px;"">+</div>",,delaylearn,learning,ITI,y87aUGQWOif2h9MWKMVr8E0rH7d2,y87aUGQWOif2h9MWKMVr8E0rH7d2,,,,,,,,,,,,,,,,,,,1994.0,,,63d96ff56b577f6ac10e5f6c,09:10:20,27/02/2024
html-keyboard-response,155,315124,0.0-65.0-0.0,973.0,"<div style=""display: flex; flex-direction: column; align-items: center; margin-top: -40px;""><img src=""images/pattern_6.png"" style=""width: 234px; height: 230px; margin-top: -50px;""><div style=""display: flex; justify-content: space-between; margin-top: 33px;""><img src=""images/choice_trial_9.png"" style=""width: 408px; height: 417px; margin-right: 200px;""><img src=""images/choice_trial_14.png"" style=""width: 408px; height: 417px;""></div></div>",f,delaylearn,learning,trial,y87aUGQWOif2h9MWKMVr8E0rH7d2,y87aUGQWOif2h9MWKMVr8E0rH7d2,5.0,images/choice_trial_9.png,images/choice_trial_14.png,images/pattern_6.png,j,j,750.0,9.0,14.0,5.0,1.0,28.0,0.0,0.0,9.0,150.0,,,,,,63d96ff56b577f6ac10e5f6c,09:10:20,27/02/2024
html-keyboard-response,156,316132,0.0-65.0-1.0,,"<div style=""display: flex; flex-direction: column; align-items: center; margin-top: -40px;""><img src=""images/pattern_6.png"" style=""width: 234px; height: 230px; margin-top: -50px;""><div style=""display: flex; justify-content: space-between; margin-top: 33px;""><img src=""images/choice_trial_9.png"" style=""width: 408px; height: 417px; margin-right: 608px;""></div></div>",,delaylearn,learning,display_response,y87aUGQWOif2h9MWKMVr8E0rH7d2,y87aUGQWOif2h9MWKMVr8E0rH7d2,,,,,,,,,,,,,,,,,chosen stimuli: images/choice_trial_9.png,,,,,63d96ff56b577f6ac10e5f6c,09:10:20,27/02/2024
html-keyboard-response,157,316888,0.0-65.0-2.0,,,,delaylearn,learning,feedback_duration_window,y87aUGQWOif2h9MWKMVr8E0rH7d2,y87aUGQWOif2h9MWKMVr8E0rH7d2,,,,,,,,,,,,,,,,,,750.0,,,,63d96ff56b577f6ac10e5f6c,09:10:20,27/02/2024
html-keyboard-response,158,318681,0.0-65.0-3.0,,<div style='margin:auto;width: auto; font-size: 150%'><span style='font-weight: bold; font-size: 100px; color: red;'>0 points!</span><br><br></div>,,delaylearn,learning,feedback_image_window,y87aUGQWOif2h9MWKMVr8E0rH7d2,y87aUGQWOif2h9MWKMVr8E0rH7d2,,,,,,,,,,,,,,,,,,,,,,63d96ff56b577f6ac10e5f6c,09:10:20,27/02/2024
html-keyboard-response,159,319197,0.0-66.0-0.0,,,,,,mood_trial_fixation,y87aUGQWOif2h9MWKMVr8E0rH7d2,,,,,,,,,,,,,,,,,,,,,,,63d96ff56b577f6ac10e5f6c,09:10:20,27/02/2024
lmdlab-html-vas-response,160,326911,0.0-66.0-1.0,6705.0,How happy are you right now?,0.3966049382716049,delaylearn,learning,mood_trial,y87aUGQWOif2h9MWKMVr8E0rH7d2,y87aUGQWOif2h9MWKMVr8E0rH7d2,,,,,,,,,,,,,,,,,,,,"['Very unhappy', 'Very happy']",,63d96ff56b577f6ac10e5f6c,09:10:20,27/02/2024
html-keyboard-response,161,328615,0.0-67.0,,"<div style=""font-size:100px;"">+</div>",,delaylearn,learning,ITI,y87aUGQWOif2h9MWKMVr8E0rH7d2,y87aUGQWOif2h9MWKMVr8E0rH7d2,,,,,,,,,,,,,,,,,,,1696.0,,,63d96ff56b577f6ac10e5f6c,09:10:20,27/02/2024
html-keyboard-response,162,329648,0.0-68.0-0.0,1029.5,"<div style=""display: flex; flex-direction: column; align-items: center; margin-top: -40px;""><img src=""images/pattern_4.png"" style=""width: 234px; height: 230px; margin-top: -50px;""><div style=""display: flex; justify-content: space-between; margin-top: 33px;""><img src=""images/choice_trial_4.png"" style=""width: 408px; height: 417px; margin-right: 200px;""><img src=""images/choice_trial_11.png"" style=""width: 408px; height: 417px;""></div></div>",j,delaylearn,learning,trial,y87aUGQWOif2h9MWKMVr8E0rH7d2,y87aUGQWOif2h9MWKMVr8E0rH7d2,5.0,images/choice_trial_4.png,images/choice_trial_11.png,images/pattern_4.png,j,j,7000.0,4.0,11.0,3.0,1.0,29.0,1.0,1.0,11.0,160.0,,,,,,63d96ff56b577f6ac10e5f6c,09:10:20,27/02/2024
html-keyboard-response,163,330665,0.0-68.0-1.0,,"<div style=""display: flex; flex-direction: column; align-items: center; margin-top: -40px;""><img src=""images/pattern_4.png"" style=""width: 234px; height: 230px; margin-top: -50px;""><div style=""display: flex; justify-content: space-between; margin-top: 33px;""><img src=""images/choice_trial_11.png"" style=""width: 408px; height: 417px; margin-left:608px;""></div></div>",,delaylearn,learning,display_response,y87aUGQWOif2h9MWKMVr8E0rH7d2,y87aUGQWOif2h9MWKMVr8E0rH7d2,,,,,,,,,,,,,,,,,chosen stimuli: images/choice_trial_11.png,,,,,63d96ff56b577f6ac10e5f6c,09:10:20,27/02/2024
html-keyboard-response,164,337677,0.0-68.0-2.0,,,,delaylearn,learning,feedback_duration_window,y87aUGQWOif2h9MWKMVr8E0rH7d2,y87aUGQWOif2h9MWKMVr8E0rH7d2,,,,,,,,,,,,,,,,,,7000.0,,,,63d96ff56b577f6ac10e5f6c,09:10:20,27/02/2024
html-keyboard-response,165,339183,0.0-68.0-3.0,,<div style='margin:auto;width: auto; font-size: 150%'><span style='font-weight: bold; font-size: 100px; color: green;'>+10 points!</span><br><br></div>,,delaylearn,learning,feedback_image_window,y87aUGQWOif2h9MWKMVr8E0rH7d2,y87aUGQWOif2h9MWKMVr8E0rH7d2,,,,,,,,,,,,,,,,,,,,,,63d96ff56b577f6ac10e5f6c,09:10:20,27/02/2024
html-keyboard-response,166,341360,0.0-69.0,,"<div style=""font-size:100px;"">+</div>",,delaylearn,learning,ITI,y87aUGQWOif2h9MWKMVr8E0rH7d2,y87aUGQWOif2h9MWKMVr8E0rH7d2,,,,,,,,,,,,,,,,,,,2165.0,,,63d96ff56b577f6ac10e5f6c,09:10:20,27/02/2024
html-keyboard-response,167,342608,0.0-70.0-0.0,1244.0,"<div style=""display: flex; flex-direction: column; align-items: center; margin-top: -40px;""><img src=""images/pattern_3.png"" style=""width: 234px; height: 230px; margin-top: -50px;""><div style=""display: flex; justify-content: space-between; margin-top: 33px;""><img src=""images/choice_trial_2.png"" style=""width: 408px; height: 417px; margin-right: 200px;""><img src=""images/choice_trial_16.png"" style=""width: 408px; height: 417px;""></div></div>",f,delaylearn,learning,trial,y87aUGQWOif2h9MWKMVr8E0rH7d2,y87aUGQWOif2h9MWKMVr8E0rH7d2,5.0,images/choice_trial_2.png,images/choice_trial_16.png,images/pattern_3.png,j,j,7000.0,2.0,16.0,2.0,1.0,30.0,0.0,0.0,2.0,160.0,,,,,,63d96ff56b577f6ac10e5f6c,09:10:20,27/02/2024
html-keyboard-response,168,343613,0.0-70.0-1.0,,"<div style=""display: flex; flex-direction: column; align-items: center; margin-top: -40px;""><img src=""images/pattern_3.png"" style=""width: 234px; height: 230px; margin-top: -50px;""><div style=""display: flex; justify-content: space-between; margin-top: 33px;""><img src=""images/choice_trial_2.png"" style=""width: 408px; height: 417px; margin-right: 608px;""></div></div>",,delaylearn,learning,display_response,y87aUGQWOif2h9MWKMVr8E0rH7d2,y87aUGQWOif2h9MWKMVr8E0rH7d2,,,,,,,,,,,,,,,,,chosen stimuli: images/choice_trial_2.png,,,,,63d96ff56b577f6ac10e5f6c,09:10:20,27/02/2024
html-keyboard-response,169,350629,0.0-70.0-2.0,,,,delaylearn,learning,feedback_duration_window,y87aUGQWOif2h9MWKMVr8E0rH7d2,y87aUGQWOif2h9MWKMVr8E0rH7d2,,,,,,,,,,,,,,,,,,7000.0,,,,63d96ff56b577f6ac10e5f6c,09:10:20,27/02/2024
html-keyboard-response,170,352142,0.0-70.0-3.0,,<div style='margin:auto;width: auto; font-size: 150%'><span style='font-weight: bold; font-size: 100px; color: red;'>0 points!</span><br><br></div>,,delaylearn,learning,feedback_image_window,y87aUGQWOif2h9MWKMVr8E0rH7d2,y87aUGQWOif2h9MWKMVr8E0rH7d2,,,,,,,,,,,,,,,,,,,,,,63d96ff56b577f6ac10e5f6c,09:10:20,27/02/2024
html-keyboard-response,171,354076,0.0-71.0,,"<div style=""font-size:100px;"">+</div>",,delaylearn,learning,ITI,y87aUGQWOif2h9MWKMVr8E0rH7d2,y87aUGQWOif2h9MWKMVr8E0rH7d2,,,,,,,,,,,,,,,,,,,1930.0,,,63d96ff56b577f6ac10e5f6c,09:10:20,27/02/2024
html-keyboard-response,172,355104,0.0-72.0-0.0,1024.199999999255,"<div style=""display: flex; flex-direction: column; align-items: center; margin-top: -40px;""><img src=""images/pattern_5.png"" style=""width: 234px; height: 230px; margin-top: -50px;""><div style=""display: flex; justify-content: space-between; margin-top: 33px;""><img src=""images/choice_trial_7.png"" style=""width: 408px; height: 417px; margin-right: 200px;""><img src=""images/choice_trial_13.png"" style=""width: 408px; height: 417px;""></div></div>",f,delaylearn,learning,trial,y87aUGQWOif2h9MWKMVr8E0rH7d2,y87aUGQWOif2h9MWKMVr8E0rH7d2,5.0,images/choice_trial_7.png,images/choice_trial_13.png,images/pattern_5.png,j,f,750.0,7.0,13.0,4.0,0.0,31.0,1.0,0.0,7.0,160.0,,,,,,63d96ff56b577f6ac10e5f6c,09:10:20,27/02/2024
html-keyboard-response,173,356120,0.0-72.0-1.0,,"<div style=""display: flex; flex-direction: column; align-items: center; margin-top: -40px;""><img src=""images/pattern_5.png"" style=""width: 234px; height: 230px; margin-top: -50px;""><div style=""display: flex; justify-content: space-between; margin-top: 33px;""><img src=""images/choice_trial_7.png"" style=""width: 408px; height: 417px; margin-right: 608px;""></div></div>",,delaylearn,learning,display_response,y87aUGQWOif2h9MWKMVr8E0rH7d2,y87aUGQWOif2h9MWKMVr8E0rH7d2,,,,,,,,,,,,,,,,,chosen stimuli: images/choice_trial_7.png,,,,,63d96ff56b577f6ac10e5f6c,09:10:20,27/02/2024
html-keyboard-response,174,356882,0.0-72.0-2.0,,,,delaylearn,learning,feedback_duration_window,y87aUGQWOif2h9MWKMVr8E0rH7d2,y87aUGQWOif2h9MWKMVr8E0rH7d2,,,,,,,,,,,,,,,,,,750.0,,,,63d96ff56b577f6ac10e5f6c,09:10:20,27/02/2024
html-keyboard-response,175,358392,0.0-72.0-3.0,,<div style='margin:auto;width: auto; font-size: 150%'><span style='font-weight: bold; font-size: 100px; color: red;'>0 points!</span><br><br></div>,,delaylearn,learning,feedback_image_window,y87aUGQWOif2h9MWKMVr8E0rH7d2,y87aUGQWOif2h9MWKMVr8E0rH7d2,,,,,,,,,,,,,,,,,,,,,,63d96ff56b577f6ac10e5f6c,09:10:20,27/02/2024
html-keyboard-response,176,360364,0.0-73.0,,"<div style=""font-size:100px;"">+</div>",,delaylearn,learning,ITI,y87aUGQWOif2h9MWKMVr8E0rH7d2,y87aUGQWOif2h9MWKMVr8E0rH7d2,,,,,,,,,,,,,,,,,,,1961.0,,,63d96ff56b577f6ac10e5f6c,09:10:20,27/02/2024
html-keyboard-response,177,361632,0.0-74.0-0.0,1263.5999999977648,"<div style=""display: flex; flex-direction: column; align-items: center; margin-top: -40px;""><img src=""images/pattern_1.png"" style=""width: 234px; height: 230px; margin-top: -50px;""><div style=""display: flex; justify-content: space-between; margin-top: 33px;""><img src=""images/choice_trial_6.png"" style=""width: 408px; height: 417px; margin-right: 200px;""><img src=""images/choice_trial_15.png"" style=""width: 408px; height: 417px;""></div></div>",f,delaylearn,learning,trial,y87aUGQWOif2h9MWKMVr8E0rH7d2,y87aUGQWOif2h9MWKMVr8E0rH7d2,5.0,images/choice_trial_6.png,images/choice_trial_15.png,images/pattern_1.png,f,f,7000.0,6.0,15.0,1.0,0.0,32.0,1.0,1.0,6.0,170.0,,,,,,63d96ff56b577f6ac10e5f6c,09:10:20,27/02/2024
html-keyboard-response,178,362640,0.0-74.0-1.0,,"<div style=""display: flex; flex-direction: column; align-items: center; margin-top: -40px;""><img src=""images/pattern_1.png"" style=""width: 234px; height: 230px; margin-top: -50px;""><div style=""display: flex; justify-content: space-between; margin-top: 33px;""><img src=""images/choice_trial_6.png"" style=""width: 408px; height: 417px; margin-right: 608px;""></div></div>",,delaylearn,learning,display_response,y87aUGQWOif2h9MWKMVr8E0rH7d2,y87aUGQWOif2h9MWKMVr8E0rH7d2,,,,,,,,,,,,,,,,,chosen stimuli: images/choice_trial_6.png,,,,,63d96ff56b577f6ac10e5f6c,09:10:20,27/02/2024
html-keyboard-response,179,369648,0.0-74.0-2.0,,,,delaylearn,learning,feedback_duration_window,y87aUGQWOif2h9MWKMVr8E0rH7d2,y87aUGQWOif2h9MWKMVr8E0rH7d2,,,,,,,,,,,,,,,,,,7000.0,,,,63d96ff56b577f6ac10e5f6c,09:10:20,27/02/2024
html-keyboard-response,180,371156,0.0-74.0-3.0,,<div style='margin:auto;width: auto; font-size: 150%'><span style='font-weight: bold; font-size: 100px; color: green;'>+10 points!</span><br><br></div>,,delaylearn,learning,feedback_image_window,y87aUGQWOif2h9MWKMVr8E0rH7d2,y87aUGQWOif2h9MWKMVr8E0rH7d2,,,,,,,,,,,,,,,,,,,,,,63d96ff56b577f6ac10e5f6c,09:10:20,27/02/2024
html-keyboard-response,181,371665,0.0-75.0-0.0,,,,,,mood_trial_fixation,y87aUGQWOif2h9MWKMVr8E0rH7d2,,,,,,,,,,,,,,,,,,,,,,,63d96ff56b577f6ac10e5f6c,09:10:20,27/02/2024
lmdlab-html-vas-response,182,376663,0.0-75.0-1.0,3991.0,How happy are you right now?,0.3533950617283951,delaylearn,learning,mood_trial,y87aUGQWOif2h9MWKMVr8E0rH7d2,y87aUGQWOif2h9MWKMVr8E0rH7d2,,,,,,,,,,,,,,,,,,,,"['Very unhappy', 'Very happy']",,63d96ff56b577f6ac10e5f6c,09:10:20,27/02/2024
html-keyboard-response,183,379020,0.0-76.0,,"<div style=""font-size:100px;"">+</div>",,delaylearn,learning,ITI,y87aUGQWOif2h9MWKMVr8E0rH7d2,y87aUGQWOif2h9MWKMVr8E0rH7d2,,,,,,,,,,,,,,,,,,,2263.0,,,63d96ff56b577f6ac10e5f6c,09:10:20,27/02/2024
html-keyboard-response,184,380597,0.0-77.0-0.0,1572.300000000745,"<div style=""display: flex; flex-direction: column; align-items: center; margin-top: -40px;""><img src=""images/pattern_6.png"" style=""width: 234px; height: 230px; margin-top: -50px;""><div style=""display: flex; justify-content: space-between; margin-top: 33px;""><img src=""images/choice_trial_14.png"" style=""width: 408px; height: 417px; margin-right: 200px;""><img src=""images/choice_trial_9.png"" style=""width: 408px; height: 417px;""></div></div>",f,delaylearn,learning,trial,y87aUGQWOif2h9MWKMVr8E0rH7d2,y87aUGQWOif2h9MWKMVr8E0rH7d2,5.0,images/choice_trial_14.png,images/choice_trial_9.png,images/pattern_6.png,j,f,750.0,14.0,9.0,5.0,0.0,33.0,1.0,0.0,14.0,170.0,,,,,,63d96ff56b577f6ac10e5f6c,09:10:20,27/02/2024
html-keyboard-response,185,381610,0.0-77.0-1.0,,"<div style=""display: flex; flex-direction: column; align-items: center; margin-top: -40px;""><img src=""images/pattern_6.png"" style=""width: 234px; height: 230px; margin-top: -50px;""><div style=""display: flex; justify-content: space-between; margin-top: 33px;""><img src=""images/choice_trial_14.png"" style=""width: 408px; height: 417px; margin-right: 608px;""></div></div>",,delaylearn,learning,display_response,y87aUGQWOif2h9MWKMVr8E0rH7d2,y87aUGQWOif2h9MWKMVr8E0rH7d2,,,,,,,,,,,,,,,,,chosen stimuli: images/choice_trial_14.png,,,,,63d96ff56b577f6ac10e5f6c,09:10:20,27/02/2024
html-keyboard-response,186,382362,0.0-77.0-2.0,,,,delaylearn,learning,feedback_duration_window,y87aUGQWOif2h9MWKMVr8E0rH7d2,y87aUGQWOif2h9MWKMVr8E0rH7d2,,,,,,,,,,,,,,,,,,750.0,,,,63d96ff56b577f6ac10e5f6c,09:10:20,27/02/2024
html-keyboard-response,187,383873,0.0-77.0-3.0,,<div style='margin:auto;width: auto; font-size: 150%'><span style='font-weight: bold; font-size: 100px; color: red;'>0 points!</span><br><br></div>,,delaylearn,learning,feedback_image_window,y87aUGQWOif2h9MWKMVr8E0rH7d2,y87aUGQWOif2h9MWKMVr8E0rH7d2,,,,,,,,,,,,,,,,,,,,,,63d96ff56b577f6ac10e5f6c,09:10:20,27/02/2024
html-keyboard-response,188,386269,0.0-78.0,,"<div style=""font-size:100px;"">+</div>",,delaylearn,learning,ITI,y87aUGQWOif2h9MWKMVr8E0rH7d2,y87aUGQWOif2h9MWKMVr8E0rH7d2,,,,,,,,,,,,,,,,,,,2383.0,,,63d96ff56b577f6ac10e5f6c,09:10:20,27/02/2024
html-keyboard-response,189,387285,0.0-79.0-0.0,1011.0999999977648,"<div style=""display: flex; flex-direction: column; align-items: center; margin-top: -40px;""><img src=""images/pattern_3.png"" style=""width: 234px; height: 230px; margin-top: -50px;""><div style=""display: flex; justify-content: space-between; margin-top: 33px;""><img src=""images/choice_trial_2.png"" style=""width: 408px; height: 417px; margin-right: 200px;""><img src=""images/choice_trial_16.png"" style=""width: 408px; height: 417px;""></div></div>",f,delaylearn,learning,trial,y87aUGQWOif2h9MWKMVr8E0rH7d2,y87aUGQWOif2h9MWKMVr8E0rH7d2,5.0,images/choice_trial_2.png,images/choice_trial_16.png,images/pattern_3.png,j,j,7000.0,2.0,16.0,2.0,1.0,34.0,0.0,0.0,2.0,170.0,,,,,,63d96ff56b577f6ac10e5f6c,09:10:20,27/02/2024
html-keyboard-response,190,388288,0.0-79.0-1.0,,"<div style=""display: flex; flex-direction: column; align-items: center; margin-top: -40px;""><img src=""images/pattern_3.png"" style=""width: 234px; height: 230px; margin-top: -50px;""><div style=""display: flex; justify-content: space-between; margin-top: 33px;""><img src=""images/choice_trial_2.png"" style=""width: 408px; height: 417px; margin-right: 608px;""></div></div>",,delaylearn,learning,display_response,y87aUGQWOif2h9MWKMVr8E0rH7d2,y87aUGQWOif2h9MWKMVr8E0rH7d2,,,,,,,,,,,,,,,,,chosen stimuli: images/choice_trial_2.png,,,,,63d96ff56b577f6ac10e5f6c,09:10:20,27/02/2024
html-keyboard-response,191,395293,0.0-79.0-2.0,,,,delaylearn,learning,feedback_duration_window,y87aUGQWOif2h9MWKMVr8E0rH7d2,y87aUGQWOif2h9MWKMVr8E0rH7d2,,,,,,,,,,,,,,,,,,7000.0,,,,63d96ff56b577f6ac10e5f6c,09:10:20,27/02/2024
html-keyboard-response,192,396799,0.0-79.0-3.0,,<div style='margin:auto;width: auto; font-size: 150%'><span style='font-weight: bold; font-size: 100px; color: red;'>0 points!</span><br><br></div>,,delaylearn,learning,feedback_image_window,y87aUGQWOif2h9MWKMVr8E0rH7d2,y87aUGQWOif2h9MWKMVr8E0rH7d2,,,,,,,,,,,,,,,,,,,,,,63d96ff56b577f6ac10e5f6c,09:10:20,27/02/2024
html-keyboard-response,193,398949,0.0-80.0,,"<div style=""font-size:100px;"">+</div>",,delaylearn,learning,ITI,y87aUGQWOif2h9MWKMVr8E0rH7d2,y87aUGQWOif2h9MWKMVr8E0rH7d2,,,,,,,,,,,,,,,,,,,2135.0,,,63d96ff56b577f6ac10e5f6c,09:10:20,27/02/2024
html-keyboard-response,194,400229,0.0-81.0-0.0,1276.0,"<div style=""display: flex; flex-direction: column; align-items: center; margin-top: -40px;""><img src=""images/pattern_4.png"" style=""width: 234px; height: 230px; margin-top: -50px;""><div style=""display: flex; justify-content: space-between; margin-top: 33px;""><img src=""images/choice_trial_4.png"" style=""width: 408px; height: 417px; margin-right: 200px;""><img src=""images/choice_trial_11.png"" style=""width: 408px; height: 417px;""></div></div>",j,delaylearn,learning,trial,y87aUGQWOif2h9MWKMVr8E0rH7d2,y87aUGQWOif2h9MWKMVr8E0rH7d2,5.0,images/choice_trial_4.png,images/choice_trial_11.png,images/pattern_4.png,f,j,7000.0,4.0,11.0,3.0,1.0,35.0,1.0,0.0,11.0,170.0,,,,,,63d96ff56b577f6ac10e5f6c,09:10:20,27/02/2024
html-keyboard-response,195,401244,0.0-81.0-1.0,,"<div style=""display: flex; flex-direction: column; align-items: center; margin-top: -40px;""><img src=""images/pattern_4.png"" style=""width: 234px; height: 230px; margin-top: -50px;""><div style=""display: flex; justify-content: space-between; margin-top: 33px;""><img src=""images/choice_trial_11.png"" style=""width: 408px; height: 417px; margin-left:608px;""></div></div>",,delaylearn,learning,display_response,y87aUGQWOif2h9MWKMVr8E0rH7d2,y87aUGQWOif2h9MWKMVr8E0rH7d2,,,,,,,,,,,,,,,,,chosen stimuli: images/choice_trial_11.png,,,,,63d96ff56b577f6ac10e5f6c,09:10:20,27/02/2024
html-keyboard-response,196,408257,0.0-81.0-2.0,,,,delaylearn,learning,feedback_duration_window,y87aUGQWOif2h9MWKMVr8E0rH7d2,y87aUGQWOif2h9MWKMVr8E0rH7d2,,,,,,,,,,,,,,,,,,7000.0,,,,63d96ff56b577f6ac10e5f6c,09:10:20,27/02/2024
html-keyboard-response,197,409766,0.0-81.0-3.0,,<div style='margin:auto;width: auto; font-size: 150%'><span style='font-weight: bold; font-size: 100px; color: red;'>0 points!</span><br><br></div>,,delaylearn,learning,feedback_image_window,y87aUGQWOif2h9MWKMVr8E0rH7d2,y87aUGQWOif2h9MWKMVr8E0rH7d2,,,,,,,,,,,,,,,,,,,,,,63d96ff56b577f6ac10e5f6c,09:10:20,27/02/2024
html-keyboard-response,198,411851,0.0-82.0,,"<div style=""font-size:100px;"">+</div>",,delaylearn,learning,ITI,y87aUGQWOif2h9MWKMVr8E0rH7d2,y87aUGQWOif2h9MWKMVr8E0rH7d2,,,,,,,,,,,,,,,,,,,2076.0,,,63d96ff56b577f6ac10e5f6c,09:10:20,27/02/2024
html-keyboard-response,199,413235,0.0-83.0-0.0,1380.1000000014901,"<div style=""display: flex; flex-direction: column; align-items: center; margin-top: -40px;""><img src=""images/pattern_7.png"" style=""width: 234px; height: 230px; margin-top: -50px;""><div style=""display: flex; justify-content: space-between; margin-top: 33px;""><img src=""images/choice_trial_8.png"" style=""width: 408px; height: 417px; margin-right: 200px;""><img src=""images/choice_trial_10.png"" style=""width: 408px; height: 417px;""></div></div>",f,delaylearn,learning,trial,y87aUGQWOif2h9MWKMVr8E0rH7d2,y87aUGQWOif2h9MWKMVr8E0rH7d2,5.0,images/choice_trial_8.png,images/choice_trial_10.png,images/pattern_7.png,f,f,750.0,8.0,10.0,6.0,0.0,36.0,1.0,1.0,8.0,180.0,,,,,,63d96ff56b577f6ac10e5f6c,09:10:20,27/02/2024
html-keyboard-response,200,414246,0.0-83.0-1.0,,"<div style=""display: flex; flex-direction: column; align-items: center; margin-top: -40px;""><img src=""images/pattern_7.png"" style=""width: 234px; height: 230px; margin-top: -50px;""><div style=""display: flex; justify-content: space-between; margin-top: 33px;""><img src=""images/choice_trial_8.png"" style=""width: 408px; height: 417px; margin-right: 608px;""></div></div>",,delaylearn,learning,display_response,y87aUGQWOif2h9MWKMVr8E0rH7d2,y87aUGQWOif2h9MWKMVr8E0rH7d2,,,,,,,,,,,,,,,,,chosen stimuli: images/choice_trial_8.png,,,,,63d96ff56b577f6ac10e5f6c,09:10:20,27/02/2024
html-keyboard-response,201,414998,0.0-83.0-2.0,,,,delaylearn,learning,feedback_duration_window,y87aUGQWOif2h9MWKMVr8E0rH7d2,y87aUGQWOif2h9MWKMVr8E0rH7d2,,,,,,,,,,,,,,,,,,750.0,,,,63d96ff56b577f6ac10e5f6c,09:10:20,27/02/2024
html-keyboard-response,202,416511,0.0-83.0-3.0,,<div style='margin:auto;width: auto; font-size: 150%'><span style='font-weight: bold; font-size: 100px; color: green;'>+10 points!</span><br><br></div>,,delaylearn,learning,feedback_image_window,y87aUGQWOif2h9MWKMVr8E0rH7d2,y87aUGQWOif2h9MWKMVr8E0rH7d2,,,,,,,,,,,,,,,,,,,,,,63d96ff56b577f6ac10e5f6c,09:10:20,27/02/2024
html-keyboard-response,203,418614,0.0-84.0,,"<div style=""font-size:100px;"">+</div>",,delaylearn,learning,ITI,y87aUGQWOif2h9MWKMVr8E0rH7d2,y87aUGQWOif2h9MWKMVr8E0rH7d2,,,,,,,,,,,,,,,,,,,2086.0,,,63d96ff56b577f6ac10e5f6c,09:10:20,27/02/2024
html-keyboard-response,204,420196,0.0-85.0-0.0,1578.5,"<div style=""display: flex; flex-direction: column; align-items: center; margin-top: -40px;""><img src=""images/pattern_1.png"" style=""width: 234px; height: 230px; margin-top: -50px;""><div style=""display: flex; justify-content: space-between; margin-top: 33px;""><img src=""images/choice_trial_6.png"" style=""width: 408px; height: 417px; margin-right: 200px;""><img src=""images/choice_trial_15.png"" style=""width: 408px; height: 417px;""></div></div>",j,delaylearn,learning,trial,y87aUGQWOif2h9MWKMVr8E0rH7d2,y87aUGQWOif2h9MWKMVr8E0rH7d2,5.0,images/choice_trial_6.png,images/choice_trial_15.png,images/pattern_1.png,f,f,7000.0,6.0,15.0,1.0,0.0,37.0,0.0,0.0,15.0,180.0,,,,,,63d96ff56b577f6ac10e5f6c,09:10:20,27/02/2024
html-keyboard-response,205,421210,0.0-85.0-1.0,,"<div style=""display: flex; flex-direction: column; align-items: center; margin-top: -40px;""><img src=""images/pattern_1.png"" style=""width: 234px; height: 230px; margin-top: -50px;""><div style=""display: flex; justify-content: space-between; margin-top: 33px;""><img src=""images/choice_trial_15.png"" style=""width: 408px; height: 417px; margin-left:608px;""></div></div>",,delaylearn,learning,display_response,y87aUGQWOif2h9MWKMVr8E0rH7d2,y87aUGQWOif2h9MWKMVr8E0rH7d2,,,,,,,,,,,,,,,,,chosen stimuli: images/choice_trial_15.png,,,,,63d96ff56b577f6ac10e5f6c,09:10:20,27/02/2024
html-keyboard-response,206,428214,0.0-85.0-2.0,,,,delaylearn,learning,feedback_duration_window,y87aUGQWOif2h9MWKMVr8E0rH7d2,y87aUGQWOif2h9MWKMVr8E0rH7d2,,,,,,,,,,,,,,,,,,7000.0,,,,63d96ff56b577f6ac10e5f6c,09:10:20,27/02/2024
html-keyboard-response,207,429726,0.0-85.0-3.0,,<div style='margin:auto;width: auto; font-size: 150%'><span style='font-weight: bold; font-size: 100px; color: red;'>0 points!</span><br><br></div>,,delaylearn,learning,feedback_image_window,y87aUGQWOif2h9MWKMVr8E0rH7d2,y87aUGQWOif2h9MWKMVr8E0rH7d2,,,,,,,,,,,,,,,,,,,,,,63d96ff56b577f6ac10e5f6c,09:10:20,27/02/2024
html-keyboard-response,208,430240,0.0-86.0-0.0,,,,,,mood_trial_fixation,y87aUGQWOif2h9MWKMVr8E0rH7d2,,,,,,,,,,,,,,,,,,,,,,,63d96ff56b577f6ac10e5f6c,09:10:20,27/02/2024
lmdlab-html-vas-response,209,454265,0.0-86.0-1.0,,How happy are you right now?,,delaylearn,learning,mood_trial,y87aUGQWOif2h9MWKMVr8E0rH7d2,y87aUGQWOif2h9MWKMVr8E0rH7d2,,,,,,,,,,,,,,,,,,,,"['Very unhappy', 'Very happy']",,63d96ff56b577f6ac10e5f6c,09:10:20,27/02/2024
html-keyboard-response,210,456569,0.0-87.0,,"<div style=""font-size:100px;"">+</div>",,delaylearn,learning,ITI,y87aUGQWOif2h9MWKMVr8E0rH7d2,y87aUGQWOif2h9MWKMVr8E0rH7d2,,,,,,,,,,,,,,,,,,,2292.0,,,63d96ff56b577f6ac10e5f6c,09:10:20,27/02/2024
html-keyboard-response,211,458548,0.0-88.0-0.0,1974.0,"<div style=""display: flex; flex-direction: column; align-items: center; margin-top: -40px;""><img src=""images/pattern_3.png"" style=""width: 234px; height: 230px; margin-top: -50px;""><div style=""display: flex; justify-content: space-between; margin-top: 33px;""><img src=""images/choice_trial_16.png"" style=""width: 408px; height: 417px; margin-right: 200px;""><img src=""images/choice_trial_2.png"" style=""width: 408px; height: 417px;""></div></div>",j,delaylearn,learning,trial,y87aUGQWOif2h9MWKMVr8E0rH7d2,y87aUGQWOif2h9MWKMVr8E0rH7d2,5.0,images/choice_trial_16.png,images/choice_trial_2.png,images/pattern_3.png,j,f,7000.0,16.0,2.0,2.0,0.0,38.0,0.0,1.0,2.0,190.0,,,,,,63d96ff56b577f6ac10e5f6c,09:10:20,27/02/2024
html-keyboard-response,212,459562,0.0-88.0-1.0,,"<div style=""display: flex; flex-direction: column; align-items: center; margin-top: -40px;""><img src=""images/pattern_3.png"" style=""width: 234px; height: 230px; margin-top: -50px;""><div style=""display: flex; justify-content: space-between; margin-top: 33px;""><img src=""images/choice_trial_2.png"" style=""width: 408px; height: 417px; margin-left:608px;""></div></div>",,delaylearn,learning,display_response,y87aUGQWOif2h9MWKMVr8E0rH7d2,y87aUGQWOif2h9MWKMVr8E0rH7d2,,,,,,,,,,,,,,,,,chosen stimuli: images/choice_trial_2.png,,,,,63d96ff56b577f6ac10e5f6c,09:10:20,27/02/2024
html-keyboard-response,213,466579,0.0-88.0-2.0,,,,delaylearn,learning,feedback_duration_window,y87aUGQWOif2h9MWKMVr8E0rH7d2,y87aUGQWOif2h9MWKMVr8E0rH7d2,,,,,,,,,,,,,,,,,,7000.0,,,,63d96ff56b577f6ac10e5f6c,09:10:20,27/02/2024
html-keyboard-response,214,468094,0.0-88.0-3.0,,<div style='margin:auto;width: auto; font-size: 150%'><span style='font-weight: bold; font-size: 100px; color: green;'>+10 points!</span><br><br></div>,,delaylearn,learning,feedback_image_window,y87aUGQWOif2h9MWKMVr8E0rH7d2,y87aUGQWOif2h9MWKMVr8E0rH7d2,,,,,,,,,,,,,,,,,,,,,,63d96ff56b577f6ac10e5f6c,09:10:20,27/02/2024
html-keyboard-response,215,469804,0.0-89.0,,"<div style=""font-size:100px;"">+</div>",,delaylearn,learning,ITI,y87aUGQWOif2h9MWKMVr8E0rH7d2,y87aUGQWOif2h9MWKMVr8E0rH7d2,,,,,,,,,,,,,,,,,,,1693.0,,,63d96ff56b577f6ac10e5f6c,09:10:20,27/02/2024
html-keyboard-response,216,471284,0.0-90.0-0.0,1476.0,"<div style=""display: flex; flex-direction: column; align-items: center; margin-top: -40px;""><img src=""images/pattern_7.png"" style=""width: 234px; height: 230px; margin-top: -50px;""><div style=""display: flex; justify-content: space-between; margin-top: 33px;""><img src=""images/choice_trial_10.png"" style=""width: 408px; height: 417px; margin-right: 200px;""><img src=""images/choice_trial_8.png"" style=""width: 408px; height: 417px;""></div></div>",j,delaylearn,learning,trial,y87aUGQWOif2h9MWKMVr8E0rH7d2,y87aUGQWOif2h9MWKMVr8E0rH7d2,5.0,images/choice_trial_10.png,images/choice_trial_8.png,images/pattern_7.png,j,j,750.0,10.0,8.0,6.0,1.0,39.0,1.0,1.0,8.0,200.0,,,,,,63d96ff56b577f6ac10e5f6c,09:10:20,27/02/2024
html-keyboard-response,217,472301,0.0-90.0-1.0,,"<div style=""display: flex; flex-direction: column; align-items: center; margin-top: -40px;""><img src=""images/pattern_7.png"" style=""width: 234px; height: 230px; margin-top: -50px;""><div style=""display: flex; justify-content: space-between; margin-top: 33px;""><img src=""images/choice_trial_8.png"" style=""width: 408px; height: 417px; margin-left:608px;""></div></div>",,delaylearn,learning,display_response,y87aUGQWOif2h9MWKMVr8E0rH7d2,y87aUGQWOif2h9MWKMVr8E0rH7d2,,,,,,,,,,,,,,,,,chosen stimuli: images/choice_trial_8.png,,,,,63d96ff56b577f6ac10e5f6c,09:10:20,27/02/2024
html-keyboard-response,218,473067,0.0-90.0-2.0,,,,delaylearn,learning,feedback_duration_window,y87aUGQWOif2h9MWKMVr8E0rH7d2,y87aUGQWOif2h9MWKMVr8E0rH7d2,,,,,,,,,,,,,,,,,,750.0,,,,63d96ff56b577f6ac10e5f6c,09:10:20,27/02/2024
html-keyboard-response,219,474582,0.0-90.0-3.0,,<div style='margin:auto;width: auto; font-size: 150%'><span style='font-weight: bold; font-size: 100px; color: green;'>+10 points!</span><br><br></div>,,delaylearn,learning,feedback_image_window,y87aUGQWOif2h9MWKMVr8E0rH7d2,y87aUGQWOif2h9MWKMVr8E0rH7d2,,,,,,,,,,,,,,,,,,,,,,63d96ff56b577f6ac10e5f6c,09:10:20,27/02/2024
html-keyboard-response,220,476963,0.0-91.0,,"<div style=""font-size:100px;"">+</div>",,delaylearn,learning,ITI,y87aUGQWOif2h9MWKMVr8E0rH7d2,y87aUGQWOif2h9MWKMVr8E0rH7d2,,,,,,,,,,,,,,,,,,,2368.0,,,63d96ff56b577f6ac10e5f6c,09:10:20,27/02/2024
html-keyboard-response,221,478052,0.0-92.0-0.0,1084.0,"<div style=""display: flex; flex-direction: column; align-items: center; margin-top: -40px;""><img src=""images/pattern_5.png"" style=""width: 234px; height: 230px; margin-top: -50px;""><div style=""display: flex; justify-content: space-between; margin-top: 33px;""><img src=""images/choice_trial_13.png"" style=""width: 408px; height: 417px; margin-right: 200px;""><img src=""images/choice_trial_7.png"" style=""width: 408px; height: 417px;""></div></div>",j,delaylearn,learning,trial,y87aUGQWOif2h9MWKMVr8E0rH7d2,y87aUGQWOif2h9MWKMVr8E0rH7d2,5.0,images/choice_trial_13.png,images/choice_trial_7.png,images/pattern_5.png,j,j,750.0,13.0,7.0,4.0,1.0,40.0,1.0,1.0,7.0,210.0,,,,,,63d96ff56b577f6ac10e5f6c,09:10:20,27/02/2024
html-keyboard-response,222,479062,0.0-92.0-1.0,,"<div style=""display: flex; flex-direction: column; align-items: center; margin-top: -40px;""><img src=""images/pattern_5.png"" style=""width: 234px; height: 230px; margin-top: -50px;""><div style=""display: flex; justify-content: space-between; margin-top: 33px;""><img src=""images/choice_trial_7.png"" style=""width: 408px; height: 417px; margin-left:608px;""></div></div>",,delaylearn,learning,display_response,y87aUGQWOif2h9MWKMVr8E0rH7d2,y87aUGQWOif2h9MWKMVr8E0rH7d2,,,,,,,,,,,,,,,,,chosen stimuli: images/choice_trial_7.png,,,,,63d96ff56b577f6ac10e5f6c,09:10:20,27/02/2024
html-keyboard-response,223,479820,0.0-92.0-2.0,,,,delaylearn,learning,feedback_duration_window,y87aUGQWOif2h9MWKMVr8E0rH7d2,y87aUGQWOif2h9MWKMVr8E0rH7d2,,,,,,,,,,,,,,,,,,750.0,,,,63d96ff56b577f6ac10e5f6c,09:10:20,27/02/2024
html-keyboard-response,224,481326,0.0-92.0-3.0,,<div style='margin:auto;width: auto; font-size: 150%'><span style='font-weight: bold; font-size: 100px; color: green;'>+10 points!</span><br><br></div>,,delaylearn,learning,feedback_image_window,y87aUGQWOif2h9MWKMVr8E0rH7d2,y87aUGQWOif2h9MWKMVr8E0rH7d2,,,,,,,,,,,,,,,,,,,,,,63d96ff56b577f6ac10e5f6c,09:10:20,27/02/2024
html-keyboard-response,225,481840,0.0-93.0-0.0,,,,,,mood_trial_fixation,y87aUGQWOif2h9MWKMVr8E0rH7d2,,,,,,,,,,,,,,,,,,,,,,,63d96ff56b577f6ac10e5f6c,09:10:20,27/02/2024
lmdlab-html-vas-response,226,505872,0.0-93.0-1.0,,How happy are you right now?,,delaylearn,learning,mood_trial,y87aUGQWOif2h9MWKMVr8E0rH7d2,y87aUGQWOif2h9MWKMVr8E0rH7d2,,,,,,,,,,,,,,,,,,,,"['Very unhappy', 'Very happy']",,63d96ff56b577f6ac10e5f6c,09:10:20,27/02/2024
html-keyboard-response,227,507836,0.0-94.0,,"<div style=""font-size:100px;"">+</div>",,delaylearn,learning,ITI,y87aUGQWOif2h9MWKMVr8E0rH7d2,y87aUGQWOif2h9MWKMVr8E0rH7d2,,,,,,,,,,,,,,,,,,,1954.0,,,63d96ff56b577f6ac10e5f6c,09:10:20,27/02/2024
html-keyboard-response,228,509732,0.0-95.0-0.0,1891.5,"<div style=""display: flex; flex-direction: column; align-items: center; margin-top: -40px;""><img src=""images/pattern_4.png"" style=""width: 234px; height: 230px; margin-top: -50px;""><div style=""display: flex; justify-content: space-between; margin-top: 33px;""><img src=""images/choice_trial_11.png"" style=""width: 408px; height: 417px; margin-right: 200px;""><img src=""images/choice_trial_4.png"" style=""width: 408px; height: 417px;""></div></div>",f,delaylearn,learning,trial,y87aUGQWOif2h9MWKMVr8E0rH7d2,y87aUGQWOif2h9MWKMVr8E0rH7d2,5.0,images/choice_trial_11.png,images/choice_trial_4.png,images/pattern_4.png,f,f,7000.0,11.0,4.0,3.0,0.0,41.0,1.0,1.0,11.0,220.0,,,,,,63d96ff56b577f6ac10e5f6c,09:10:20,27/02/2024
html-keyboard-response,229,510748,0.0-95.0-1.0,,"<div style=""display: flex; flex-direction: column; align-items: center; margin-top: -40px;""><img src=""images/pattern_4.png"" style=""width: 234px; height: 230px; margin-top: -50px;""><div style=""display: flex; justify-content: space-between; margin-top: 33px;""><img src=""images/choice_trial_11.png"" style=""width: 408px; height: 417px; margin-right: 608px;""></div></div>",,delaylearn,learning,display_response,y87aUGQWOif2h9MWKMVr8E0rH7d2,y87aUGQWOif2h9MWKMVr8E0rH7d2,,,,,,,,,,,,,,,,,chosen stimuli: images/choice_trial_11.png,,,,,63d96ff56b577f6ac10e5f6c,09:10:20,27/02/2024
html-keyboard-response,230,517758,0.0-95.0-2.0,,,,delaylearn,learning,feedback_duration_window,y87aUGQWOif2h9MWKMVr8E0rH7d2,y87aUGQWOif2h9MWKMVr8E0rH7d2,,,,,,,,,,,,,,,,,,7000.0,,,,63d96ff56b577f6ac10e5f6c,09:10:20,27/02/2024
html-keyboard-response,231,519264,0.0-95.0-3.0,,<div style='margin:auto;width: auto; font-size: 150%'><span style='font-weight: bold; font-size: 100px; color: green;'>+10 points!</span><br><br></div>,,delaylearn,learning,feedback_image_window,y87aUGQWOif2h9MWKMVr8E0rH7d2,y87aUGQWOif2h9MWKMVr8E0rH7d2,,,,,,,,,,,,,,,,,,,,,,63d96ff56b577f6ac10e5f6c,09:10:20,27/02/2024
html-keyboard-response,232,521368,0.0-96.0,,"<div style=""font-size:100px;"">+</div>",,delaylearn,learning,ITI,y87aUGQWOif2h9MWKMVr8E0rH7d2,y87aUGQWOif2h9MWKMVr8E0rH7d2,,,,,,,,,,,,,,,,,,,2087.0,,,63d96ff56b577f6ac10e5f6c,09:10:20,27/02/2024
