trial_type,trial_index,time_elapsed,internal_node_id,rt,stimulus,response,exp_name,exp_stage,test_part,subjectID,databaseID,counterbal,choice_stimuli_1,choice_stimuli_2,pattern_stimuli,rewarded_answer,correct_answer,feedback_duration_times,stim_left,stim_right,pair,leftright_counter,trial,response_correct,response_rewarded,chosen_stim,counter,displayed_choice,feedback_durations,ITI_duration,labels,rest_warning,prolificID,start_time,date
pavlovia,0,1515,0.0-0.0,,,,,,,4ntk1nHrvkQVYRdOJZzJDAFmafa2,,,,,,,,,,,,,,,,,,,,,,,65f07c8102b4c1d4aa644c4a,17:02:50,26/03/2024
html-keyboard-response,1,4529,0.0-1.0,,"<div style=""font-size:100px;"">+</div>",,delaylearn,learning,pre_fixation,4ntk1nHrvkQVYRdOJZzJDAFmafa2,,,,,,,,,,,,,,,,,,,,,,,65f07c8102b4c1d4aa644c4a,17:02:50,26/03/2024
html-keyboard-response,2,6532,0.0-2.0-0.0,1999.0,"<div style=""display: flex; flex-direction: column; align-items: center; margin-top: -40px;""><img src=""images/demo_images/pattern_1.png"" style=""width: 234px; height: 230px; margin-top: -50px;""><div style=""display: flex; justify-content: space-between; margin-top: 33px;""><img src=""images/demo_images/choice_trial_2.png"" style=""width: 408px; height: 417px; margin-right: 200px;""><img src=""images/demo_images/choice_trial_1.png"" style=""width: 408px; height: 417px;""></div></div>",j,delaylearn,learning,trial,4ntk1nHrvkQVYRdOJZzJDAFmafa2,4ntk1nHrvkQVYRdOJZzJDAFmafa2,3.0,images/demo_images/choice_trial_2.png,images/demo_images/choice_trial_1.png,images/demo_images/pattern_1.png,j,j,3000.0,2.0,1.0,20.0,1.0,1.0,1.0,1.0,1.0,10.0,,,,,,65f07c8102b4c1d4aa644c4a,17:02:50,26/03/2024
html-keyboard-response,3,7546,0.0-2.0-1.0,,"<div style=""display: flex; flex-direction: column; align-items: center; margin-top: -40px;""><img src=""images/demo_images/pattern_1.png"" style=""width: 234px; height: 230px; margin-top: -50px;""><div style=""display: flex; justify-content: space-between; margin-top: 33px;""><img src=""images/demo_images/choice_trial_1.png"" style=""width: 408px; height: 417px; margin-left:608px;""></div></div>",,delaylearn,learning,display_response,4ntk1nHrvkQVYRdOJZzJDAFmafa2,4ntk1nHrvkQVYRdOJZzJDAFmafa2,,,,,,,,,,,,,,,,,chosen stimuli: images/demo_images/choice_trial_1.png,,,,,65f07c8102b4c1d4aa644c4a,17:02:50,26/03/2024
html-keyboard-response,4,10558,0.0-2.0-2.0,,,,delaylearn,learning,feedback_duration_window,4ntk1nHrvkQVYRdOJZzJDAFmafa2,4ntk1nHrvkQVYRdOJZzJDAFmafa2,,,,,,,,,,,,,,,,,,3000.0,,,,65f07c8102b4c1d4aa644c4a,17:02:50,26/03/2024
html-keyboard-response,5,12067,0.0-2.0-3.0,,<div style='margin:auto;width: auto; font-size: 150%'><span style='font-weight: bold; font-size: 100px; color: green;'>+10 points!</span><br><br></div>,,delaylearn,learning,feedback_image_window,4ntk1nHrvkQVYRdOJZzJDAFmafa2,4ntk1nHrvkQVYRdOJZzJDAFmafa2,,,,,,,,,,,,,,,,,,,,,,65f07c8102b4c1d4aa644c4a,17:02:50,26/03/2024
html-keyboard-response,6,14434,0.0-3.0,,"<div style=""font-size:100px;"">+</div>",,delaylearn,learning,ITI,4ntk1nHrvkQVYRdOJZzJDAFmafa2,4ntk1nHrvkQVYRdOJZzJDAFmafa2,,,,,,,,,,,,,,,,,,,2351.0,,,65f07c8102b4c1d4aa644c4a,17:02:50,26/03/2024
html-keyboard-response,7,15647,0.0-4.0-0.0,1207.7999999998137,"<div style=""display: flex; flex-direction: column; align-items: center; margin-top: -40px;""><img src=""images/demo_images/pattern_1.png"" style=""width: 234px; height: 230px; margin-top: -50px;""><div style=""display: flex; justify-content: space-between; margin-top: 33px;""><img src=""images/demo_images/choice_trial_2.png"" style=""width: 408px; height: 417px; margin-right: 200px;""><img src=""images/demo_images/choice_trial_1.png"" style=""width: 408px; height: 417px;""></div></div>",j,delaylearn,learning,trial,4ntk1nHrvkQVYRdOJZzJDAFmafa2,4ntk1nHrvkQVYRdOJZzJDAFmafa2,3.0,images/demo_images/choice_trial_2.png,images/demo_images/choice_trial_1.png,images/demo_images/pattern_1.png,j,j,3000.0,2.0,1.0,20.0,1.0,2.0,1.0,1.0,1.0,20.0,,,,,,65f07c8102b4c1d4aa644c4a,17:02:50,26/03/2024
html-keyboard-response,8,16663,0.0-4.0-1.0,,"<div style=""display: flex; flex-direction: column; align-items: center; margin-top: -40px;""><img src=""images/demo_images/pattern_1.png"" style=""width: 234px; height: 230px; margin-top: -50px;""><div style=""display: flex; justify-content: space-between; margin-top: 33px;""><img src=""images/demo_images/choice_trial_1.png"" style=""width: 408px; height: 417px; margin-left:608px;""></div></div>",,delaylearn,learning,display_response,4ntk1nHrvkQVYRdOJZzJDAFmafa2,4ntk1nHrvkQVYRdOJZzJDAFmafa2,,,,,,,,,,,,,,,,,chosen stimuli: images/demo_images/choice_trial_1.png,,,,,65f07c8102b4c1d4aa644c4a,17:02:50,26/03/2024
html-keyboard-response,9,19680,0.0-4.0-2.0,,,,delaylearn,learning,feedback_duration_window,4ntk1nHrvkQVYRdOJZzJDAFmafa2,4ntk1nHrvkQVYRdOJZzJDAFmafa2,,,,,,,,,,,,,,,,,,3000.0,,,,65f07c8102b4c1d4aa644c4a,17:02:50,26/03/2024
html-keyboard-response,10,21193,0.0-4.0-3.0,,<div style='margin:auto;width: auto; font-size: 150%'><span style='font-weight: bold; font-size: 100px; color: green;'>+10 points!</span><br><br></div>,,delaylearn,learning,feedback_image_window,4ntk1nHrvkQVYRdOJZzJDAFmafa2,4ntk1nHrvkQVYRdOJZzJDAFmafa2,,,,,,,,,,,,,,,,,,,,,,65f07c8102b4c1d4aa644c4a,17:02:50,26/03/2024
html-keyboard-response,11,22978,0.0-5.0,,"<div style=""font-size:100px;"">+</div>",,delaylearn,learning,ITI,4ntk1nHrvkQVYRdOJZzJDAFmafa2,4ntk1nHrvkQVYRdOJZzJDAFmafa2,,,,,,,,,,,,,,,,,,,1783.0,,,65f07c8102b4c1d4aa644c4a,17:02:50,26/03/2024
html-keyboard-response,12,23687,0.0-6.0-0.0,705.6000000000931,"<div style=""display: flex; flex-direction: column; align-items: center; margin-top: -40px;""><img src=""images/demo_images/pattern_1.png"" style=""width: 234px; height: 230px; margin-top: -50px;""><div style=""display: flex; justify-content: space-between; margin-top: 33px;""><img src=""images/demo_images/choice_trial_1.png"" style=""width: 408px; height: 417px; margin-right: 200px;""><img src=""images/demo_images/choice_trial_2.png"" style=""width: 408px; height: 417px;""></div></div>",f,delaylearn,learning,trial,4ntk1nHrvkQVYRdOJZzJDAFmafa2,4ntk1nHrvkQVYRdOJZzJDAFmafa2,3.0,images/demo_images/choice_trial_1.png,images/demo_images/choice_trial_2.png,images/demo_images/pattern_1.png,j,f,3000.0,1.0,2.0,20.0,0.0,3.0,1.0,0.0,1.0,20.0,,,,,,65f07c8102b4c1d4aa644c4a,17:02:50,26/03/2024
html-keyboard-response,13,24691,0.0-6.0-1.0,,"<div style=""display: flex; flex-direction: column; align-items: center; margin-top: -40px;""><img src=""images/demo_images/pattern_1.png"" style=""width: 234px; height: 230px; margin-top: -50px;""><div style=""display: flex; justify-content: space-between; margin-top: 33px;""><img src=""images/demo_images/choice_trial_1.png"" style=""width: 408px; height: 417px; margin-right: 608px;""></div></div>",,delaylearn,learning,display_response,4ntk1nHrvkQVYRdOJZzJDAFmafa2,4ntk1nHrvkQVYRdOJZzJDAFmafa2,,,,,,,,,,,,,,,,,chosen stimuli: images/demo_images/choice_trial_1.png,,,,,65f07c8102b4c1d4aa644c4a,17:02:50,26/03/2024
html-keyboard-response,14,27706,0.0-6.0-2.0,,,,delaylearn,learning,feedback_duration_window,4ntk1nHrvkQVYRdOJZzJDAFmafa2,4ntk1nHrvkQVYRdOJZzJDAFmafa2,,,,,,,,,,,,,,,,,,3000.0,,,,65f07c8102b4c1d4aa644c4a,17:02:50,26/03/2024
html-keyboard-response,15,29212,0.0-6.0-3.0,,<div style='margin:auto;width: auto; font-size: 150%'><span style='font-weight: bold; font-size: 100px; color: red;'>0 points!</span><br><br></div>,,delaylearn,learning,feedback_image_window,4ntk1nHrvkQVYRdOJZzJDAFmafa2,4ntk1nHrvkQVYRdOJZzJDAFmafa2,,,,,,,,,,,,,,,,,,,,,,65f07c8102b4c1d4aa644c4a,17:02:50,26/03/2024
html-keyboard-response,16,31292,0.0-7.0,,"<div style=""font-size:100px;"">+</div>",,delaylearn,learning,ITI,4ntk1nHrvkQVYRdOJZzJDAFmafa2,4ntk1nHrvkQVYRdOJZzJDAFmafa2,,,,,,,,,,,,,,,,,,,2067.0,,,65f07c8102b4c1d4aa644c4a,17:02:50,26/03/2024
html-keyboard-response,17,33128,0.0-8.0-0.0,1833.2999999998137,"<div style=""display: flex; flex-direction: column; align-items: center; margin-top: -40px;""><img src=""images/demo_images/pattern_1.png"" style=""width: 234px; height: 230px; margin-top: -50px;""><div style=""display: flex; justify-content: space-between; margin-top: 33px;""><img src=""images/demo_images/choice_trial_1.png"" style=""width: 408px; height: 417px; margin-right: 200px;""><img src=""images/demo_images/choice_trial_2.png"" style=""width: 408px; height: 417px;""></div></div>",f,delaylearn,learning,trial,4ntk1nHrvkQVYRdOJZzJDAFmafa2,4ntk1nHrvkQVYRdOJZzJDAFmafa2,3.0,images/demo_images/choice_trial_1.png,images/demo_images/choice_trial_2.png,images/demo_images/pattern_1.png,f,f,3000.0,1.0,2.0,20.0,0.0,4.0,1.0,1.0,1.0,30.0,,,,,,65f07c8102b4c1d4aa644c4a,17:02:50,26/03/2024
html-keyboard-response,18,34133,0.0-8.0-1.0,,"<div style=""display: flex; flex-direction: column; align-items: center; margin-top: -40px;""><img src=""images/demo_images/pattern_1.png"" style=""width: 234px; height: 230px; margin-top: -50px;""><div style=""display: flex; justify-content: space-between; margin-top: 33px;""><img src=""images/demo_images/choice_trial_1.png"" style=""width: 408px; height: 417px; margin-right: 608px;""></div></div>",,delaylearn,learning,display_response,4ntk1nHrvkQVYRdOJZzJDAFmafa2,4ntk1nHrvkQVYRdOJZzJDAFmafa2,,,,,,,,,,,,,,,,,chosen stimuli: images/demo_images/choice_trial_1.png,,,,,65f07c8102b4c1d4aa644c4a,17:02:50,26/03/2024
html-keyboard-response,19,37151,0.0-8.0-2.0,,,,delaylearn,learning,feedback_duration_window,4ntk1nHrvkQVYRdOJZzJDAFmafa2,4ntk1nHrvkQVYRdOJZzJDAFmafa2,,,,,,,,,,,,,,,,,,3000.0,,,,65f07c8102b4c1d4aa644c4a,17:02:50,26/03/2024
html-keyboard-response,20,38653,0.0-8.0-3.0,,<div style='margin:auto;width: auto; font-size: 150%'><span style='font-weight: bold; font-size: 100px; color: green;'>+10 points!</span><br><br></div>,,delaylearn,learning,feedback_image_window,4ntk1nHrvkQVYRdOJZzJDAFmafa2,4ntk1nHrvkQVYRdOJZzJDAFmafa2,,,,,,,,,,,,,,,,,,,,,,65f07c8102b4c1d4aa644c4a,17:02:50,26/03/2024
html-keyboard-response,21,39166,0.0-9.0-0.0,,,,,,mood_trial_fixation,4ntk1nHrvkQVYRdOJZzJDAFmafa2,,,,,,,,,,,,,,,,,,,,,,,65f07c8102b4c1d4aa644c4a,17:02:50,26/03/2024
lmdlab-html-vas-response,22,44634,0.0-9.0-1.0,4440.0,How happy are you right now?,0.6215455562714048,delaylearn,learning,mood_trial,4ntk1nHrvkQVYRdOJZzJDAFmafa2,4ntk1nHrvkQVYRdOJZzJDAFmafa2,,,,,,,,,,,,,,,,,,,,"['Very unhappy', 'Very happy']",,65f07c8102b4c1d4aa644c4a,17:02:50,26/03/2024
html-keyboard-response,23,46386,0.0-10.0,,"<div style=""font-size:100px;"">+</div>",,delaylearn,learning,ITI,4ntk1nHrvkQVYRdOJZzJDAFmafa2,4ntk1nHrvkQVYRdOJZzJDAFmafa2,,,,,,,,,,,,,,,,,,,1742.0,,,65f07c8102b4c1d4aa644c4a,17:02:50,26/03/2024
html-keyboard-response,24,48981,0.0-11.0-0.0,2591.7999999998137,"<div style=""display: flex; flex-direction: column; align-items: center; margin-top: -40px;""><img src=""images/demo_images/pattern_1.png"" style=""width: 234px; height: 230px; margin-top: -50px;""><div style=""display: flex; justify-content: space-between; margin-top: 33px;""><img src=""images/demo_images/choice_trial_2.png"" style=""width: 408px; height: 417px; margin-right: 200px;""><img src=""images/demo_images/choice_trial_1.png"" style=""width: 408px; height: 417px;""></div></div>",f,delaylearn,learning,trial,4ntk1nHrvkQVYRdOJZzJDAFmafa2,4ntk1nHrvkQVYRdOJZzJDAFmafa2,3.0,images/demo_images/choice_trial_2.png,images/demo_images/choice_trial_1.png,images/demo_images/pattern_1.png,j,j,3000.0,2.0,1.0,20.0,1.0,5.0,0.0,0.0,2.0,30.0,,,,,,65f07c8102b4c1d4aa644c4a,17:02:50,26/03/2024
html-keyboard-response,25,49986,0.0-11.0-1.0,,"<div style=""display: flex; flex-direction: column; align-items: center; margin-top: -40px;""><img src=""images/demo_images/pattern_1.png"" style=""width: 234px; height: 230px; margin-top: -50px;""><div style=""display: flex; justify-content: space-between; margin-top: 33px;""><img src=""images/demo_images/choice_trial_2.png"" style=""width: 408px; height: 417px; margin-right: 608px;""></div></div>",,delaylearn,learning,display_response,4ntk1nHrvkQVYRdOJZzJDAFmafa2,4ntk1nHrvkQVYRdOJZzJDAFmafa2,,,,,,,,,,,,,,,,,chosen stimuli: images/demo_images/choice_trial_2.png,,,,,65f07c8102b4c1d4aa644c4a,17:02:50,26/03/2024
html-keyboard-response,26,52992,0.0-11.0-2.0,,,,delaylearn,learning,feedback_duration_window,4ntk1nHrvkQVYRdOJZzJDAFmafa2,4ntk1nHrvkQVYRdOJZzJDAFmafa2,,,,,,,,,,,,,,,,,,3000.0,,,,65f07c8102b4c1d4aa644c4a,17:02:50,26/03/2024
html-keyboard-response,27,54506,0.0-11.0-3.0,,<div style='margin:auto;width: auto; font-size: 150%'><span style='font-weight: bold; font-size: 100px; color: red;'>0 points!</span><br><br></div>,,delaylearn,learning,feedback_image_window,4ntk1nHrvkQVYRdOJZzJDAFmafa2,4ntk1nHrvkQVYRdOJZzJDAFmafa2,,,,,,,,,,,,,,,,,,,,,,65f07c8102b4c1d4aa644c4a,17:02:50,26/03/2024
html-keyboard-response,28,56780,0.0-12.0,,"<div style=""font-size:100px;"">+</div>",,delaylearn,learning,ITI,4ntk1nHrvkQVYRdOJZzJDAFmafa2,4ntk1nHrvkQVYRdOJZzJDAFmafa2,,,,,,,,,,,,,,,,,,,2268.0,,,65f07c8102b4c1d4aa644c4a,17:02:50,26/03/2024
html-keyboard-response,29,57138,0.0-13.0-0.0,355.60000000009313,"<div style=""display: flex; flex-direction: column; align-items: center; margin-top: -40px;""><img src=""images/demo_images/pattern_1.png"" style=""width: 234px; height: 230px; margin-top: -50px;""><div style=""display: flex; justify-content: space-between; margin-top: 33px;""><img src=""images/demo_images/choice_trial_1.png"" style=""width: 408px; height: 417px; margin-right: 200px;""><img src=""images/demo_images/choice_trial_2.png"" style=""width: 408px; height: 417px;""></div></div>",j,delaylearn,learning,trial,4ntk1nHrvkQVYRdOJZzJDAFmafa2,4ntk1nHrvkQVYRdOJZzJDAFmafa2,3.0,images/demo_images/choice_trial_1.png,images/demo_images/choice_trial_2.png,images/demo_images/pattern_1.png,f,f,3000.0,1.0,2.0,20.0,0.0,6.0,0.0,0.0,2.0,30.0,,,,,,65f07c8102b4c1d4aa644c4a,17:02:50,26/03/2024
html-keyboard-response,30,58144,0.0-13.0-1.0,,"<div style=""display: flex; flex-direction: column; align-items: center; margin-top: -40px;""><img src=""images/demo_images/pattern_1.png"" style=""width: 234px; height: 230px; margin-top: -50px;""><div style=""display: flex; justify-content: space-between; margin-top: 33px;""><img src=""images/demo_images/choice_trial_2.png"" style=""width: 408px; height: 417px; margin-left:608px;""></div></div>",,delaylearn,learning,display_response,4ntk1nHrvkQVYRdOJZzJDAFmafa2,4ntk1nHrvkQVYRdOJZzJDAFmafa2,,,,,,,,,,,,,,,,,chosen stimuli: images/demo_images/choice_trial_2.png,,,,,65f07c8102b4c1d4aa644c4a,17:02:50,26/03/2024
html-keyboard-response,31,61162,0.0-13.0-2.0,,,,delaylearn,learning,feedback_duration_window,4ntk1nHrvkQVYRdOJZzJDAFmafa2,4ntk1nHrvkQVYRdOJZzJDAFmafa2,,,,,,,,,,,,,,,,,,3000.0,,,,65f07c8102b4c1d4aa644c4a,17:02:50,26/03/2024
html-keyboard-response,32,62666,0.0-13.0-3.0,,<div style='margin:auto;width: auto; font-size: 150%'><span style='font-weight: bold; font-size: 100px; color: red;'>0 points!</span><br><br></div>,,delaylearn,learning,feedback_image_window,4ntk1nHrvkQVYRdOJZzJDAFmafa2,4ntk1nHrvkQVYRdOJZzJDAFmafa2,,,,,,,,,,,,,,,,,,,,,,65f07c8102b4c1d4aa644c4a,17:02:50,26/03/2024
html-keyboard-response,33,64808,0.0-14.0,,"<div style=""font-size:100px;"">+</div>",,delaylearn,learning,ITI,4ntk1nHrvkQVYRdOJZzJDAFmafa2,4ntk1nHrvkQVYRdOJZzJDAFmafa2,,,,,,,,,,,,,,,,,,,2131.0,,,65f07c8102b4c1d4aa644c4a,17:02:50,26/03/2024
html-keyboard-response,34,67056,0.0-15.0-0.0,2245.2999999998137,"<div style=""display: flex; flex-direction: column; align-items: center; margin-top: -40px;""><img src=""images/demo_images/pattern_1.png"" style=""width: 234px; height: 230px; margin-top: -50px;""><div style=""display: flex; justify-content: space-between; margin-top: 33px;""><img src=""images/demo_images/choice_trial_2.png"" style=""width: 408px; height: 417px; margin-right: 200px;""><img src=""images/demo_images/choice_trial_1.png"" style=""width: 408px; height: 417px;""></div></div>",j,delaylearn,learning,trial,4ntk1nHrvkQVYRdOJZzJDAFmafa2,4ntk1nHrvkQVYRdOJZzJDAFmafa2,3.0,images/demo_images/choice_trial_2.png,images/demo_images/choice_trial_1.png,images/demo_images/pattern_1.png,j,j,3000.0,2.0,1.0,20.0,1.0,7.0,1.0,1.0,1.0,40.0,,,,,,65f07c8102b4c1d4aa644c4a,17:02:50,26/03/2024
html-keyboard-response,35,68063,0.0-15.0-1.0,,"<div style=""display: flex; flex-direction: column; align-items: center; margin-top: -40px;""><img src=""images/demo_images/pattern_1.png"" style=""width: 234px; height: 230px; margin-top: -50px;""><div style=""display: flex; justify-content: space-between; margin-top: 33px;""><img src=""images/demo_images/choice_trial_1.png"" style=""width: 408px; height: 417px; margin-left:608px;""></div></div>",,delaylearn,learning,display_response,4ntk1nHrvkQVYRdOJZzJDAFmafa2,4ntk1nHrvkQVYRdOJZzJDAFmafa2,,,,,,,,,,,,,,,,,chosen stimuli: images/demo_images/choice_trial_1.png,,,,,65f07c8102b4c1d4aa644c4a,17:02:50,26/03/2024
html-keyboard-response,36,71074,0.0-15.0-2.0,,,,delaylearn,learning,feedback_duration_window,4ntk1nHrvkQVYRdOJZzJDAFmafa2,4ntk1nHrvkQVYRdOJZzJDAFmafa2,,,,,,,,,,,,,,,,,,3000.0,,,,65f07c8102b4c1d4aa644c4a,17:02:50,26/03/2024
html-keyboard-response,37,72577,0.0-15.0-3.0,,<div style='margin:auto;width: auto; font-size: 150%'><span style='font-weight: bold; font-size: 100px; color: green;'>+10 points!</span><br><br></div>,,delaylearn,learning,feedback_image_window,4ntk1nHrvkQVYRdOJZzJDAFmafa2,4ntk1nHrvkQVYRdOJZzJDAFmafa2,,,,,,,,,,,,,,,,,,,,,,65f07c8102b4c1d4aa644c4a,17:02:50,26/03/2024
html-keyboard-response,38,74482,0.0-16.0,,"<div style=""font-size:100px;"">+</div>",,delaylearn,learning,ITI,4ntk1nHrvkQVYRdOJZzJDAFmafa2,4ntk1nHrvkQVYRdOJZzJDAFmafa2,,,,,,,,,,,,,,,,,,,1896.0,,,65f07c8102b4c1d4aa644c4a,17:02:50,26/03/2024
html-keyboard-response,39,75805,0.0-17.0-0.0,1319.5,"<div style=""display: flex; flex-direction: column; align-items: center; margin-top: -40px;""><img src=""images/demo_images/pattern_1.png"" style=""width: 234px; height: 230px; margin-top: -50px;""><div style=""display: flex; justify-content: space-between; margin-top: 33px;""><img src=""images/demo_images/choice_trial_1.png"" style=""width: 408px; height: 417px; margin-right: 200px;""><img src=""images/demo_images/choice_trial_2.png"" style=""width: 408px; height: 417px;""></div></div>",f,delaylearn,learning,trial,4ntk1nHrvkQVYRdOJZzJDAFmafa2,4ntk1nHrvkQVYRdOJZzJDAFmafa2,3.0,images/demo_images/choice_trial_1.png,images/demo_images/choice_trial_2.png,images/demo_images/pattern_1.png,f,f,3000.0,1.0,2.0,20.0,0.0,8.0,1.0,1.0,1.0,50.0,,,,,,65f07c8102b4c1d4aa644c4a,17:02:50,26/03/2024
html-keyboard-response,40,76816,0.0-17.0-1.0,,"<div style=""display: flex; flex-direction: column; align-items: center; margin-top: -40px;""><img src=""images/demo_images/pattern_1.png"" style=""width: 234px; height: 230px; margin-top: -50px;""><div style=""display: flex; justify-content: space-between; margin-top: 33px;""><img src=""images/demo_images/choice_trial_1.png"" style=""width: 408px; height: 417px; margin-right: 608px;""></div></div>",,delaylearn,learning,display_response,4ntk1nHrvkQVYRdOJZzJDAFmafa2,4ntk1nHrvkQVYRdOJZzJDAFmafa2,,,,,,,,,,,,,,,,,chosen stimuli: images/demo_images/choice_trial_1.png,,,,,65f07c8102b4c1d4aa644c4a,17:02:50,26/03/2024
html-keyboard-response,41,79825,0.0-17.0-2.0,,,,delaylearn,learning,feedback_duration_window,4ntk1nHrvkQVYRdOJZzJDAFmafa2,4ntk1nHrvkQVYRdOJZzJDAFmafa2,,,,,,,,,,,,,,,,,,3000.0,,,,65f07c8102b4c1d4aa644c4a,17:02:50,26/03/2024
html-keyboard-response,42,81331,0.0-17.0-3.0,,<div style='margin:auto;width: auto; font-size: 150%'><span style='font-weight: bold; font-size: 100px; color: green;'>+10 points!</span><br><br></div>,,delaylearn,learning,feedback_image_window,4ntk1nHrvkQVYRdOJZzJDAFmafa2,4ntk1nHrvkQVYRdOJZzJDAFmafa2,,,,,,,,,,,,,,,,,,,,,,65f07c8102b4c1d4aa644c4a,17:02:50,26/03/2024
html-button-response,43,85001,0.0-18.0,3667.600000000093,"
  <div style=""display: flex; align-items: center; justify-content: center; height: 80vh;"">
  <div>
          <img src=""images/inst_demo_finish.png"" style=""width: 80vw; height:auto;"">
          <br><br>
      </div>
      <br><br>
  </div>",0,,,,4ntk1nHrvkQVYRdOJZzJDAFmafa2,,,,,,,,,,,,,,,,,,,,,,,65f07c8102b4c1d4aa644c4a,17:02:50,26/03/2024
html-keyboard-response,44,95738,0.0-19.0,10735.599999999627,"
  <div style=""display: flex; align-items: center; justify-content: center; height: 80vh;"">
  <div>
          <img src=""images/inst_6.png"" style=""width: 80vw; height:auto;"">
          <br><br>
      </div>
      <br><br>
  </div>",j,,,,4ntk1nHrvkQVYRdOJZzJDAFmafa2,,,,,,,,,,,,,,,,,,,,,,,65f07c8102b4c1d4aa644c4a,17:02:50,26/03/2024
html-keyboard-response,45,98751,0.0-20.0,,"<div style=""font-size:100px;"">+</div>",,delaylearn,learning,pre_fixation,4ntk1nHrvkQVYRdOJZzJDAFmafa2,,,,,,,,,,,,,,,,,,,,,,,65f07c8102b4c1d4aa644c4a,17:02:50,26/03/2024
html-keyboard-response,46,101228,0.0-21.0,,"<div style=""font-size:100px;"">+</div>",,delaylearn,learning,ITI,4ntk1nHrvkQVYRdOJZzJDAFmafa2,4ntk1nHrvkQVYRdOJZzJDAFmafa2,,,,,,,,,,,,,,,,,,,2462.0,,,65f07c8102b4c1d4aa644c4a,17:02:50,26/03/2024
html-keyboard-response,47,101997,0.0-22.0-0.0,765.5,"<div style=""display: flex; flex-direction: column; align-items: center; margin-top: -40px;""><img src=""images/pattern_3.png"" style=""width: 234px; height: 230px; margin-top: -50px;""><div style=""display: flex; justify-content: space-between; margin-top: 33px;""><img src=""images/choice_trial_13.png"" style=""width: 408px; height: 417px; margin-right: 200px;""><img src=""images/choice_trial_10.png"" style=""width: 408px; height: 417px;""></div></div>",f,delaylearn,learning,trial,4ntk1nHrvkQVYRdOJZzJDAFmafa2,4ntk1nHrvkQVYRdOJZzJDAFmafa2,3.0,images/choice_trial_13.png,images/choice_trial_10.png,images/pattern_3.png,f,f,7000.0,13.0,10.0,2.0,0.0,9.0,1.0,1.0,13.0,60.0,,,,,,65f07c8102b4c1d4aa644c4a,17:02:50,26/03/2024
html-keyboard-response,48,103012,0.0-22.0-1.0,,"<div style=""display: flex; flex-direction: column; align-items: center; margin-top: -40px;""><img src=""images/pattern_3.png"" style=""width: 234px; height: 230px; margin-top: -50px;""><div style=""display: flex; justify-content: space-between; margin-top: 33px;""><img src=""images/choice_trial_13.png"" style=""width: 408px; height: 417px; margin-right: 608px;""></div></div>",,delaylearn,learning,display_response,4ntk1nHrvkQVYRdOJZzJDAFmafa2,4ntk1nHrvkQVYRdOJZzJDAFmafa2,,,,,,,,,,,,,,,,,chosen stimuli: images/choice_trial_13.png,,,,,65f07c8102b4c1d4aa644c4a,17:02:50,26/03/2024
html-keyboard-response,49,110014,0.0-22.0-2.0,,,,delaylearn,learning,feedback_duration_window,4ntk1nHrvkQVYRdOJZzJDAFmafa2,4ntk1nHrvkQVYRdOJZzJDAFmafa2,,,,,,,,,,,,,,,,,,7000.0,,,,65f07c8102b4c1d4aa644c4a,17:02:50,26/03/2024
html-keyboard-response,50,111529,0.0-22.0-3.0,,<div style='margin:auto;width: auto; font-size: 150%'><span style='font-weight: bold; font-size: 100px; color: green;'>+10 points!</span><br><br></div>,,delaylearn,learning,feedback_image_window,4ntk1nHrvkQVYRdOJZzJDAFmafa2,4ntk1nHrvkQVYRdOJZzJDAFmafa2,,,,,,,,,,,,,,,,,,,,,,65f07c8102b4c1d4aa644c4a,17:02:50,26/03/2024
html-keyboard-response,51,113613,0.0-23.0,,"<div style=""font-size:100px;"">+</div>",,delaylearn,learning,ITI,4ntk1nHrvkQVYRdOJZzJDAFmafa2,4ntk1nHrvkQVYRdOJZzJDAFmafa2,,,,,,,,,,,,,,,,,,,2082.0,,,65f07c8102b4c1d4aa644c4a,17:02:50,26/03/2024
html-keyboard-response,52,114085,0.0-24.0-0.0,468.1999999997206,"<div style=""display: flex; flex-direction: column; align-items: center; margin-top: -40px;""><img src=""images/pattern_7.png"" style=""width: 234px; height: 230px; margin-top: -50px;""><div style=""display: flex; justify-content: space-between; margin-top: 33px;""><img src=""images/choice_trial_12.png"" style=""width: 408px; height: 417px; margin-right: 200px;""><img src=""images/choice_trial_6.png"" style=""width: 408px; height: 417px;""></div></div>",j,delaylearn,learning,trial,4ntk1nHrvkQVYRdOJZzJDAFmafa2,4ntk1nHrvkQVYRdOJZzJDAFmafa2,3.0,images/choice_trial_12.png,images/choice_trial_6.png,images/pattern_7.png,j,j,750.0,12.0,6.0,6.0,1.0,10.0,1.0,1.0,6.0,70.0,,,,,,65f07c8102b4c1d4aa644c4a,17:02:50,26/03/2024
html-keyboard-response,53,115091,0.0-24.0-1.0,,"<div style=""display: flex; flex-direction: column; align-items: center; margin-top: -40px;""><img src=""images/pattern_7.png"" style=""width: 234px; height: 230px; margin-top: -50px;""><div style=""display: flex; justify-content: space-between; margin-top: 33px;""><img src=""images/choice_trial_6.png"" style=""width: 408px; height: 417px; margin-left:608px;""></div></div>",,delaylearn,learning,display_response,4ntk1nHrvkQVYRdOJZzJDAFmafa2,4ntk1nHrvkQVYRdOJZzJDAFmafa2,,,,,,,,,,,,,,,,,chosen stimuli: images/choice_trial_6.png,,,,,65f07c8102b4c1d4aa644c4a,17:02:50,26/03/2024
html-keyboard-response,54,115857,0.0-24.0-2.0,,,,delaylearn,learning,feedback_duration_window,4ntk1nHrvkQVYRdOJZzJDAFmafa2,4ntk1nHrvkQVYRdOJZzJDAFmafa2,,,,,,,,,,,,,,,,,,750.0,,,,65f07c8102b4c1d4aa644c4a,17:02:50,26/03/2024
html-keyboard-response,55,117360,0.0-24.0-3.0,,<div style='margin:auto;width: auto; font-size: 150%'><span style='font-weight: bold; font-size: 100px; color: green;'>+10 points!</span><br><br></div>,,delaylearn,learning,feedback_image_window,4ntk1nHrvkQVYRdOJZzJDAFmafa2,4ntk1nHrvkQVYRdOJZzJDAFmafa2,,,,,,,,,,,,,,,,,,,,,,65f07c8102b4c1d4aa644c4a,17:02:50,26/03/2024
html-keyboard-response,56,119494,0.0-25.0,,"<div style=""font-size:100px;"">+</div>",,delaylearn,learning,ITI,4ntk1nHrvkQVYRdOJZzJDAFmafa2,4ntk1nHrvkQVYRdOJZzJDAFmafa2,,,,,,,,,,,,,,,,,,,2128.0,,,65f07c8102b4c1d4aa644c4a,17:02:50,26/03/2024
html-keyboard-response,57,120078,0.0-26.0-0.0,580.5,"<div style=""display: flex; flex-direction: column; align-items: center; margin-top: -40px;""><img src=""images/pattern_4.png"" style=""width: 234px; height: 230px; margin-top: -50px;""><div style=""display: flex; justify-content: space-between; margin-top: 33px;""><img src=""images/choice_trial_15.png"" style=""width: 408px; height: 417px; margin-right: 200px;""><img src=""images/choice_trial_9.png"" style=""width: 408px; height: 417px;""></div></div>",j,delaylearn,learning,trial,4ntk1nHrvkQVYRdOJZzJDAFmafa2,4ntk1nHrvkQVYRdOJZzJDAFmafa2,3.0,images/choice_trial_15.png,images/choice_trial_9.png,images/pattern_4.png,f,f,7000.0,15.0,9.0,3.0,0.0,11.0,0.0,0.0,9.0,70.0,,,,,,65f07c8102b4c1d4aa644c4a,17:02:50,26/03/2024
html-keyboard-response,58,121089,0.0-26.0-1.0,,"<div style=""display: flex; flex-direction: column; align-items: center; margin-top: -40px;""><img src=""images/pattern_4.png"" style=""width: 234px; height: 230px; margin-top: -50px;""><div style=""display: flex; justify-content: space-between; margin-top: 33px;""><img src=""images/choice_trial_9.png"" style=""width: 408px; height: 417px; margin-left:608px;""></div></div>",,delaylearn,learning,display_response,4ntk1nHrvkQVYRdOJZzJDAFmafa2,4ntk1nHrvkQVYRdOJZzJDAFmafa2,,,,,,,,,,,,,,,,,chosen stimuli: images/choice_trial_9.png,,,,,65f07c8102b4c1d4aa644c4a,17:02:50,26/03/2024
html-keyboard-response,59,128099,0.0-26.0-2.0,,,,delaylearn,learning,feedback_duration_window,4ntk1nHrvkQVYRdOJZzJDAFmafa2,4ntk1nHrvkQVYRdOJZzJDAFmafa2,,,,,,,,,,,,,,,,,,7000.0,,,,65f07c8102b4c1d4aa644c4a,17:02:50,26/03/2024
html-keyboard-response,60,129605,0.0-26.0-3.0,,<div style='margin:auto;width: auto; font-size: 150%'><span style='font-weight: bold; font-size: 100px; color: red;'>0 points!</span><br><br></div>,,delaylearn,learning,feedback_image_window,4ntk1nHrvkQVYRdOJZzJDAFmafa2,4ntk1nHrvkQVYRdOJZzJDAFmafa2,,,,,,,,,,,,,,,,,,,,,,65f07c8102b4c1d4aa644c4a,17:02:50,26/03/2024
html-keyboard-response,61,131511,0.0-27.0,,"<div style=""font-size:100px;"">+</div>",,delaylearn,learning,ITI,4ntk1nHrvkQVYRdOJZzJDAFmafa2,4ntk1nHrvkQVYRdOJZzJDAFmafa2,,,,,,,,,,,,,,,,,,,1890.0,,,65f07c8102b4c1d4aa644c4a,17:02:50,26/03/2024
html-keyboard-response,62,131943,0.0-28.0-0.0,429.20000000018626,"<div style=""display: flex; flex-direction: column; align-items: center; margin-top: -40px;""><img src=""images/pattern_5.png"" style=""width: 234px; height: 230px; margin-top: -50px;""><div style=""display: flex; justify-content: space-between; margin-top: 33px;""><img src=""images/choice_trial_2.png"" style=""width: 408px; height: 417px; margin-right: 200px;""><img src=""images/choice_trial_11.png"" style=""width: 408px; height: 417px;""></div></div>",j,delaylearn,learning,trial,4ntk1nHrvkQVYRdOJZzJDAFmafa2,4ntk1nHrvkQVYRdOJZzJDAFmafa2,3.0,images/choice_trial_2.png,images/choice_trial_11.png,images/pattern_5.png,j,j,750.0,2.0,11.0,4.0,1.0,12.0,1.0,1.0,11.0,80.0,,,,,,65f07c8102b4c1d4aa644c4a,17:02:50,26/03/2024
html-keyboard-response,63,132956,0.0-28.0-1.0,,"<div style=""display: flex; flex-direction: column; align-items: center; margin-top: -40px;""><img src=""images/pattern_5.png"" style=""width: 234px; height: 230px; margin-top: -50px;""><div style=""display: flex; justify-content: space-between; margin-top: 33px;""><img src=""images/choice_trial_11.png"" style=""width: 408px; height: 417px; margin-left:608px;""></div></div>",,delaylearn,learning,display_response,4ntk1nHrvkQVYRdOJZzJDAFmafa2,4ntk1nHrvkQVYRdOJZzJDAFmafa2,,,,,,,,,,,,,,,,,chosen stimuli: images/choice_trial_11.png,,,,,65f07c8102b4c1d4aa644c4a,17:02:50,26/03/2024
html-keyboard-response,64,133715,0.0-28.0-2.0,,,,delaylearn,learning,feedback_duration_window,4ntk1nHrvkQVYRdOJZzJDAFmafa2,4ntk1nHrvkQVYRdOJZzJDAFmafa2,,,,,,,,,,,,,,,,,,750.0,,,,65f07c8102b4c1d4aa644c4a,17:02:50,26/03/2024
html-keyboard-response,65,135218,0.0-28.0-3.0,,<div style='margin:auto;width: auto; font-size: 150%'><span style='font-weight: bold; font-size: 100px; color: green;'>+10 points!</span><br><br></div>,,delaylearn,learning,feedback_image_window,4ntk1nHrvkQVYRdOJZzJDAFmafa2,4ntk1nHrvkQVYRdOJZzJDAFmafa2,,,,,,,,,,,,,,,,,,,,,,65f07c8102b4c1d4aa644c4a,17:02:50,26/03/2024
html-keyboard-response,66,136792,0.0-29.0,,"<div style=""font-size:100px;"">+</div>",,delaylearn,learning,ITI,4ntk1nHrvkQVYRdOJZzJDAFmafa2,4ntk1nHrvkQVYRdOJZzJDAFmafa2,,,,,,,,,,,,,,,,,,,1572.0,,,65f07c8102b4c1d4aa644c4a,17:02:50,26/03/2024
html-keyboard-response,67,137276,0.0-30.0-0.0,480.29999999981374,"<div style=""display: flex; flex-direction: column; align-items: center; margin-top: -40px;""><img src=""images/pattern_6.png"" style=""width: 234px; height: 230px; margin-top: -50px;""><div style=""display: flex; justify-content: space-between; margin-top: 33px;""><img src=""images/choice_trial_16.png"" style=""width: 408px; height: 417px; margin-right: 200px;""><img src=""images/choice_trial_3.png"" style=""width: 408px; height: 417px;""></div></div>",f,delaylearn,learning,trial,4ntk1nHrvkQVYRdOJZzJDAFmafa2,4ntk1nHrvkQVYRdOJZzJDAFmafa2,3.0,images/choice_trial_16.png,images/choice_trial_3.png,images/pattern_6.png,j,f,750.0,16.0,3.0,5.0,0.0,13.0,1.0,0.0,16.0,80.0,,,,,,65f07c8102b4c1d4aa644c4a,17:02:50,26/03/2024
html-keyboard-response,68,138286,0.0-30.0-1.0,,"<div style=""display: flex; flex-direction: column; align-items: center; margin-top: -40px;""><img src=""images/pattern_6.png"" style=""width: 234px; height: 230px; margin-top: -50px;""><div style=""display: flex; justify-content: space-between; margin-top: 33px;""><img src=""images/choice_trial_16.png"" style=""width: 408px; height: 417px; margin-right: 608px;""></div></div>",,delaylearn,learning,display_response,4ntk1nHrvkQVYRdOJZzJDAFmafa2,4ntk1nHrvkQVYRdOJZzJDAFmafa2,,,,,,,,,,,,,,,,,chosen stimuli: images/choice_trial_16.png,,,,,65f07c8102b4c1d4aa644c4a,17:02:50,26/03/2024
html-keyboard-response,69,139041,0.0-30.0-2.0,,,,delaylearn,learning,feedback_duration_window,4ntk1nHrvkQVYRdOJZzJDAFmafa2,4ntk1nHrvkQVYRdOJZzJDAFmafa2,,,,,,,,,,,,,,,,,,750.0,,,,65f07c8102b4c1d4aa644c4a,17:02:50,26/03/2024
html-keyboard-response,70,140553,0.0-30.0-3.0,,<div style='margin:auto;width: auto; font-size: 150%'><span style='font-weight: bold; font-size: 100px; color: red;'>0 points!</span><br><br></div>,,delaylearn,learning,feedback_image_window,4ntk1nHrvkQVYRdOJZzJDAFmafa2,4ntk1nHrvkQVYRdOJZzJDAFmafa2,,,,,,,,,,,,,,,,,,,,,,65f07c8102b4c1d4aa644c4a,17:02:50,26/03/2024
html-keyboard-response,71,141057,0.0-31.0-0.0,,,,,,mood_trial_fixation,4ntk1nHrvkQVYRdOJZzJDAFmafa2,,,,,,,,,,,,,,,,,,,,,,,65f07c8102b4c1d4aa644c4a,17:02:50,26/03/2024
lmdlab-html-vas-response,72,147781,0.0-31.0-1.0,5713.0,How happy are you right now?,0.6323963243023295,delaylearn,learning,mood_trial,4ntk1nHrvkQVYRdOJZzJDAFmafa2,4ntk1nHrvkQVYRdOJZzJDAFmafa2,,,,,,,,,,,,,,,,,,,,"['Very unhappy', 'Very happy']",,65f07c8102b4c1d4aa644c4a,17:02:50,26/03/2024
html-keyboard-response,73,149511,0.0-32.0,,"<div style=""font-size:100px;"">+</div>",,delaylearn,learning,ITI,4ntk1nHrvkQVYRdOJZzJDAFmafa2,4ntk1nHrvkQVYRdOJZzJDAFmafa2,,,,,,,,,,,,,,,,,,,1718.0,,,65f07c8102b4c1d4aa644c4a,17:02:50,26/03/2024
html-keyboard-response,74,152121,0.0-33.0-0.0,2606.5,"<div style=""display: flex; flex-direction: column; align-items: center; margin-top: -40px;""><img src=""images/pattern_1.png"" style=""width: 234px; height: 230px; margin-top: -50px;""><div style=""display: flex; justify-content: space-between; margin-top: 33px;""><img src=""images/choice_trial_8.png"" style=""width: 408px; height: 417px; margin-right: 200px;""><img src=""images/choice_trial_14.png"" style=""width: 408px; height: 417px;""></div></div>",f,delaylearn,learning,trial,4ntk1nHrvkQVYRdOJZzJDAFmafa2,4ntk1nHrvkQVYRdOJZzJDAFmafa2,3.0,images/choice_trial_8.png,images/choice_trial_14.png,images/pattern_1.png,j,j,7000.0,8.0,14.0,1.0,1.0,14.0,0.0,0.0,8.0,80.0,,,,,,65f07c8102b4c1d4aa644c4a,17:02:50,26/03/2024
html-keyboard-response,75,153126,0.0-33.0-1.0,,"<div style=""display: flex; flex-direction: column; align-items: center; margin-top: -40px;""><img src=""images/pattern_1.png"" style=""width: 234px; height: 230px; margin-top: -50px;""><div style=""display: flex; justify-content: space-between; margin-top: 33px;""><img src=""images/choice_trial_8.png"" style=""width: 408px; height: 417px; margin-right: 608px;""></div></div>",,delaylearn,learning,display_response,4ntk1nHrvkQVYRdOJZzJDAFmafa2,4ntk1nHrvkQVYRdOJZzJDAFmafa2,,,,,,,,,,,,,,,,,chosen stimuli: images/choice_trial_8.png,,,,,65f07c8102b4c1d4aa644c4a,17:02:50,26/03/2024
html-keyboard-response,76,160131,0.0-33.0-2.0,,,,delaylearn,learning,feedback_duration_window,4ntk1nHrvkQVYRdOJZzJDAFmafa2,4ntk1nHrvkQVYRdOJZzJDAFmafa2,,,,,,,,,,,,,,,,,,7000.0,,,,65f07c8102b4c1d4aa644c4a,17:02:50,26/03/2024
html-keyboard-response,77,161643,0.0-33.0-3.0,,<div style='margin:auto;width: auto; font-size: 150%'><span style='font-weight: bold; font-size: 100px; color: red;'>0 points!</span><br><br></div>,,delaylearn,learning,feedback_image_window,4ntk1nHrvkQVYRdOJZzJDAFmafa2,4ntk1nHrvkQVYRdOJZzJDAFmafa2,,,,,,,,,,,,,,,,,,,,,,65f07c8102b4c1d4aa644c4a,17:02:50,26/03/2024
html-keyboard-response,78,163690,0.0-34.0,,"<div style=""font-size:100px;"">+</div>",,delaylearn,learning,ITI,4ntk1nHrvkQVYRdOJZzJDAFmafa2,4ntk1nHrvkQVYRdOJZzJDAFmafa2,,,,,,,,,,,,,,,,,,,2041.0,,,65f07c8102b4c1d4aa644c4a,17:02:50,26/03/2024
html-keyboard-response,79,165166,0.0-35.0-0.0,1473.5,"<div style=""display: flex; flex-direction: column; align-items: center; margin-top: -40px;""><img src=""images/pattern_3.png"" style=""width: 234px; height: 230px; margin-top: -50px;""><div style=""display: flex; justify-content: space-between; margin-top: 33px;""><img src=""images/choice_trial_10.png"" style=""width: 408px; height: 417px; margin-right: 200px;""><img src=""images/choice_trial_13.png"" style=""width: 408px; height: 417px;""></div></div>",j,delaylearn,learning,trial,4ntk1nHrvkQVYRdOJZzJDAFmafa2,4ntk1nHrvkQVYRdOJZzJDAFmafa2,3.0,images/choice_trial_10.png,images/choice_trial_13.png,images/pattern_3.png,f,j,7000.0,10.0,13.0,2.0,1.0,15.0,1.0,0.0,13.0,80.0,,,,,,65f07c8102b4c1d4aa644c4a,17:02:50,26/03/2024
html-keyboard-response,80,166183,0.0-35.0-1.0,,"<div style=""display: flex; flex-direction: column; align-items: center; margin-top: -40px;""><img src=""images/pattern_3.png"" style=""width: 234px; height: 230px; margin-top: -50px;""><div style=""display: flex; justify-content: space-between; margin-top: 33px;""><img src=""images/choice_trial_13.png"" style=""width: 408px; height: 417px; margin-left:608px;""></div></div>",,delaylearn,learning,display_response,4ntk1nHrvkQVYRdOJZzJDAFmafa2,4ntk1nHrvkQVYRdOJZzJDAFmafa2,,,,,,,,,,,,,,,,,chosen stimuli: images/choice_trial_13.png,,,,,65f07c8102b4c1d4aa644c4a,17:02:50,26/03/2024
html-keyboard-response,81,173198,0.0-35.0-2.0,,,,delaylearn,learning,feedback_duration_window,4ntk1nHrvkQVYRdOJZzJDAFmafa2,4ntk1nHrvkQVYRdOJZzJDAFmafa2,,,,,,,,,,,,,,,,,,7000.0,,,,65f07c8102b4c1d4aa644c4a,17:02:50,26/03/2024
html-keyboard-response,82,174701,0.0-35.0-3.0,,<div style='margin:auto;width: auto; font-size: 150%'><span style='font-weight: bold; font-size: 100px; color: red;'>0 points!</span><br><br></div>,,delaylearn,learning,feedback_image_window,4ntk1nHrvkQVYRdOJZzJDAFmafa2,4ntk1nHrvkQVYRdOJZzJDAFmafa2,,,,,,,,,,,,,,,,,,,,,,65f07c8102b4c1d4aa644c4a,17:02:50,26/03/2024
html-keyboard-response,83,176457,0.0-36.0,,"<div style=""font-size:100px;"">+</div>",,delaylearn,learning,ITI,4ntk1nHrvkQVYRdOJZzJDAFmafa2,4ntk1nHrvkQVYRdOJZzJDAFmafa2,,,,,,,,,,,,,,,,,,,1753.0,,,65f07c8102b4c1d4aa644c4a,17:02:50,26/03/2024
html-keyboard-response,84,176867,0.0-37.0-0.0,406.0,"<div style=""display: flex; flex-direction: column; align-items: center; margin-top: -40px;""><img src=""images/pattern_5.png"" style=""width: 234px; height: 230px; margin-top: -50px;""><div style=""display: flex; justify-content: space-between; margin-top: 33px;""><img src=""images/choice_trial_11.png"" style=""width: 408px; height: 417px; margin-right: 200px;""><img src=""images/choice_trial_2.png"" style=""width: 408px; height: 417px;""></div></div>",f,delaylearn,learning,trial,4ntk1nHrvkQVYRdOJZzJDAFmafa2,4ntk1nHrvkQVYRdOJZzJDAFmafa2,3.0,images/choice_trial_11.png,images/choice_trial_2.png,images/pattern_5.png,f,f,750.0,11.0,2.0,4.0,0.0,16.0,1.0,1.0,11.0,90.0,,,,,,65f07c8102b4c1d4aa644c4a,17:02:50,26/03/2024
html-keyboard-response,85,177878,0.0-37.0-1.0,,"<div style=""display: flex; flex-direction: column; align-items: center; margin-top: -40px;""><img src=""images/pattern_5.png"" style=""width: 234px; height: 230px; margin-top: -50px;""><div style=""display: flex; justify-content: space-between; margin-top: 33px;""><img src=""images/choice_trial_11.png"" style=""width: 408px; height: 417px; margin-right: 608px;""></div></div>",,delaylearn,learning,display_response,4ntk1nHrvkQVYRdOJZzJDAFmafa2,4ntk1nHrvkQVYRdOJZzJDAFmafa2,,,,,,,,,,,,,,,,,chosen stimuli: images/choice_trial_11.png,,,,,65f07c8102b4c1d4aa644c4a,17:02:50,26/03/2024
html-keyboard-response,86,178639,0.0-37.0-2.0,,,,delaylearn,learning,feedback_duration_window,4ntk1nHrvkQVYRdOJZzJDAFmafa2,4ntk1nHrvkQVYRdOJZzJDAFmafa2,,,,,,,,,,,,,,,,,,750.0,,,,65f07c8102b4c1d4aa644c4a,17:02:50,26/03/2024
html-keyboard-response,87,180156,0.0-37.0-3.0,,<div style='margin:auto;width: auto; font-size: 150%'><span style='font-weight: bold; font-size: 100px; color: green;'>+10 points!</span><br><br></div>,,delaylearn,learning,feedback_image_window,4ntk1nHrvkQVYRdOJZzJDAFmafa2,4ntk1nHrvkQVYRdOJZzJDAFmafa2,,,,,,,,,,,,,,,,,,,,,,65f07c8102b4c1d4aa644c4a,17:02:50,26/03/2024
html-keyboard-response,88,180659,0.0-38.0-0.0,,,,,,mood_trial_fixation,4ntk1nHrvkQVYRdOJZzJDAFmafa2,,,,,,,,,,,,,,,,,,,,,,,65f07c8102b4c1d4aa644c4a,17:02:50,26/03/2024
lmdlab-html-vas-response,89,187480,0.0-38.0-1.0,5806.0,How happy are you right now?,0.45444372859516463,delaylearn,learning,mood_trial,4ntk1nHrvkQVYRdOJZzJDAFmafa2,4ntk1nHrvkQVYRdOJZzJDAFmafa2,,,,,,,,,,,,,,,,,,,,"['Very unhappy', 'Very happy']",,65f07c8102b4c1d4aa644c4a,17:02:50,26/03/2024
html-keyboard-response,90,189656,0.0-39.0,,"<div style=""font-size:100px;"">+</div>",,delaylearn,learning,ITI,4ntk1nHrvkQVYRdOJZzJDAFmafa2,4ntk1nHrvkQVYRdOJZzJDAFmafa2,,,,,,,,,,,,,,,,,,,2173.0,,,65f07c8102b4c1d4aa644c4a,17:02:50,26/03/2024
html-keyboard-response,91,191502,0.0-40.0-0.0,1842.6000000000931,"<div style=""display: flex; flex-direction: column; align-items: center; margin-top: -40px;""><img src=""images/pattern_6.png"" style=""width: 234px; height: 230px; margin-top: -50px;""><div style=""display: flex; justify-content: space-between; margin-top: 33px;""><img src=""images/choice_trial_16.png"" style=""width: 408px; height: 417px; margin-right: 200px;""><img src=""images/choice_trial_3.png"" style=""width: 408px; height: 417px;""></div></div>",j,delaylearn,learning,trial,4ntk1nHrvkQVYRdOJZzJDAFmafa2,4ntk1nHrvkQVYRdOJZzJDAFmafa2,3.0,images/choice_trial_16.png,images/choice_trial_3.png,images/pattern_6.png,f,f,750.0,16.0,3.0,5.0,0.0,17.0,0.0,0.0,3.0,90.0,,,,,,65f07c8102b4c1d4aa644c4a,17:02:50,26/03/2024
html-keyboard-response,92,192510,0.0-40.0-1.0,,"<div style=""display: flex; flex-direction: column; align-items: center; margin-top: -40px;""><img src=""images/pattern_6.png"" style=""width: 234px; height: 230px; margin-top: -50px;""><div style=""display: flex; justify-content: space-between; margin-top: 33px;""><img src=""images/choice_trial_3.png"" style=""width: 408px; height: 417px; margin-left:608px;""></div></div>",,delaylearn,learning,display_response,4ntk1nHrvkQVYRdOJZzJDAFmafa2,4ntk1nHrvkQVYRdOJZzJDAFmafa2,,,,,,,,,,,,,,,,,chosen stimuli: images/choice_trial_3.png,,,,,65f07c8102b4c1d4aa644c4a,17:02:50,26/03/2024
html-keyboard-response,93,193269,0.0-40.0-2.0,,,,delaylearn,learning,feedback_duration_window,4ntk1nHrvkQVYRdOJZzJDAFmafa2,4ntk1nHrvkQVYRdOJZzJDAFmafa2,,,,,,,,,,,,,,,,,,750.0,,,,65f07c8102b4c1d4aa644c4a,17:02:50,26/03/2024
html-keyboard-response,94,194773,0.0-40.0-3.0,,<div style='margin:auto;width: auto; font-size: 150%'><span style='font-weight: bold; font-size: 100px; color: red;'>0 points!</span><br><br></div>,,delaylearn,learning,feedback_image_window,4ntk1nHrvkQVYRdOJZzJDAFmafa2,4ntk1nHrvkQVYRdOJZzJDAFmafa2,,,,,,,,,,,,,,,,,,,,,,65f07c8102b4c1d4aa644c4a,17:02:50,26/03/2024
html-keyboard-response,95,196989,0.0-41.0,,"<div style=""font-size:100px;"">+</div>",,delaylearn,learning,ITI,4ntk1nHrvkQVYRdOJZzJDAFmafa2,4ntk1nHrvkQVYRdOJZzJDAFmafa2,,,,,,,,,,,,,,,,,,,2199.0,,,65f07c8102b4c1d4aa644c4a,17:02:50,26/03/2024
html-keyboard-response,96,197534,0.0-42.0-0.0,541.7999999998137,"<div style=""display: flex; flex-direction: column; align-items: center; margin-top: -40px;""><img src=""images/pattern_4.png"" style=""width: 234px; height: 230px; margin-top: -50px;""><div style=""display: flex; justify-content: space-between; margin-top: 33px;""><img src=""images/choice_trial_9.png"" style=""width: 408px; height: 417px; margin-right: 200px;""><img src=""images/choice_trial_15.png"" style=""width: 408px; height: 417px;""></div></div>",f,delaylearn,learning,trial,4ntk1nHrvkQVYRdOJZzJDAFmafa2,4ntk1nHrvkQVYRdOJZzJDAFmafa2,3.0,images/choice_trial_9.png,images/choice_trial_15.png,images/pattern_4.png,j,j,7000.0,9.0,15.0,3.0,1.0,18.0,0.0,0.0,9.0,90.0,,,,,,65f07c8102b4c1d4aa644c4a,17:02:50,26/03/2024
html-keyboard-response,97,198538,0.0-42.0-1.0,,"<div style=""display: flex; flex-direction: column; align-items: center; margin-top: -40px;""><img src=""images/pattern_4.png"" style=""width: 234px; height: 230px; margin-top: -50px;""><div style=""display: flex; justify-content: space-between; margin-top: 33px;""><img src=""images/choice_trial_9.png"" style=""width: 408px; height: 417px; margin-right: 608px;""></div></div>",,delaylearn,learning,display_response,4ntk1nHrvkQVYRdOJZzJDAFmafa2,4ntk1nHrvkQVYRdOJZzJDAFmafa2,,,,,,,,,,,,,,,,,chosen stimuli: images/choice_trial_9.png,,,,,65f07c8102b4c1d4aa644c4a,17:02:50,26/03/2024
html-keyboard-response,98,205545,0.0-42.0-2.0,,,,delaylearn,learning,feedback_duration_window,4ntk1nHrvkQVYRdOJZzJDAFmafa2,4ntk1nHrvkQVYRdOJZzJDAFmafa2,,,,,,,,,,,,,,,,,,7000.0,,,,65f07c8102b4c1d4aa644c4a,17:02:50,26/03/2024
html-keyboard-response,99,207053,0.0-42.0-3.0,,<div style='margin:auto;width: auto; font-size: 150%'><span style='font-weight: bold; font-size: 100px; color: red;'>0 points!</span><br><br></div>,,delaylearn,learning,feedback_image_window,4ntk1nHrvkQVYRdOJZzJDAFmafa2,4ntk1nHrvkQVYRdOJZzJDAFmafa2,,,,,,,,,,,,,,,,,,,,,,65f07c8102b4c1d4aa644c4a,17:02:50,26/03/2024
html-keyboard-response,100,208893,0.0-43.0,,"<div style=""font-size:100px;"">+</div>",,delaylearn,learning,ITI,4ntk1nHrvkQVYRdOJZzJDAFmafa2,4ntk1nHrvkQVYRdOJZzJDAFmafa2,,,,,,,,,,,,,,,,,,,1830.0,,,65f07c8102b4c1d4aa644c4a,17:02:50,26/03/2024
html-keyboard-response,101,210110,0.0-44.0-0.0,1213.5,"<div style=""display: flex; flex-direction: column; align-items: center; margin-top: -40px;""><img src=""images/pattern_7.png"" style=""width: 234px; height: 230px; margin-top: -50px;""><div style=""display: flex; justify-content: space-between; margin-top: 33px;""><img src=""images/choice_trial_6.png"" style=""width: 408px; height: 417px; margin-right: 200px;""><img src=""images/choice_trial_12.png"" style=""width: 408px; height: 417px;""></div></div>",j,delaylearn,learning,trial,4ntk1nHrvkQVYRdOJZzJDAFmafa2,4ntk1nHrvkQVYRdOJZzJDAFmafa2,3.0,images/choice_trial_6.png,images/choice_trial_12.png,images/pattern_7.png,j,f,750.0,6.0,12.0,6.0,0.0,19.0,0.0,1.0,12.0,100.0,,,,,,65f07c8102b4c1d4aa644c4a,17:02:50,26/03/2024
html-keyboard-response,102,211128,0.0-44.0-1.0,,"<div style=""display: flex; flex-direction: column; align-items: center; margin-top: -40px;""><img src=""images/pattern_7.png"" style=""width: 234px; height: 230px; margin-top: -50px;""><div style=""display: flex; justify-content: space-between; margin-top: 33px;""><img src=""images/choice_trial_12.png"" style=""width: 408px; height: 417px; margin-left:608px;""></div></div>",,delaylearn,learning,display_response,4ntk1nHrvkQVYRdOJZzJDAFmafa2,4ntk1nHrvkQVYRdOJZzJDAFmafa2,,,,,,,,,,,,,,,,,chosen stimuli: images/choice_trial_12.png,,,,,65f07c8102b4c1d4aa644c4a,17:02:50,26/03/2024
html-keyboard-response,103,211882,0.0-44.0-2.0,,,,delaylearn,learning,feedback_duration_window,4ntk1nHrvkQVYRdOJZzJDAFmafa2,4ntk1nHrvkQVYRdOJZzJDAFmafa2,,,,,,,,,,,,,,,,,,750.0,,,,65f07c8102b4c1d4aa644c4a,17:02:50,26/03/2024
html-keyboard-response,104,213392,0.0-44.0-3.0,,<div style='margin:auto;width: auto; font-size: 150%'><span style='font-weight: bold; font-size: 100px; color: green;'>+10 points!</span><br><br></div>,,delaylearn,learning,feedback_image_window,4ntk1nHrvkQVYRdOJZzJDAFmafa2,4ntk1nHrvkQVYRdOJZzJDAFmafa2,,,,,,,,,,,,,,,,,,,,,,65f07c8102b4c1d4aa644c4a,17:02:50,26/03/2024
html-keyboard-response,105,214948,0.0-45.0,,"<div style=""font-size:100px;"">+</div>",,delaylearn,learning,ITI,4ntk1nHrvkQVYRdOJZzJDAFmafa2,4ntk1nHrvkQVYRdOJZzJDAFmafa2,,,,,,,,,,,,,,,,,,,1551.0,,,65f07c8102b4c1d4aa644c4a,17:02:50,26/03/2024
html-keyboard-response,106,215481,0.0-46.0-0.0,529.1000000000931,"<div style=""display: flex; flex-direction: column; align-items: center; margin-top: -40px;""><img src=""images/pattern_1.png"" style=""width: 234px; height: 230px; margin-top: -50px;""><div style=""display: flex; justify-content: space-between; margin-top: 33px;""><img src=""images/choice_trial_14.png"" style=""width: 408px; height: 417px; margin-right: 200px;""><img src=""images/choice_trial_8.png"" style=""width: 408px; height: 417px;""></div></div>",j,delaylearn,learning,trial,4ntk1nHrvkQVYRdOJZzJDAFmafa2,4ntk1nHrvkQVYRdOJZzJDAFmafa2,3.0,images/choice_trial_14.png,images/choice_trial_8.png,images/pattern_1.png,f,f,7000.0,14.0,8.0,1.0,0.0,20.0,0.0,0.0,8.0,100.0,,,,,,65f07c8102b4c1d4aa644c4a,17:02:50,26/03/2024
html-keyboard-response,107,216491,0.0-46.0-1.0,,"<div style=""display: flex; flex-direction: column; align-items: center; margin-top: -40px;""><img src=""images/pattern_1.png"" style=""width: 234px; height: 230px; margin-top: -50px;""><div style=""display: flex; justify-content: space-between; margin-top: 33px;""><img src=""images/choice_trial_8.png"" style=""width: 408px; height: 417px; margin-left:608px;""></div></div>",,delaylearn,learning,display_response,4ntk1nHrvkQVYRdOJZzJDAFmafa2,4ntk1nHrvkQVYRdOJZzJDAFmafa2,,,,,,,,,,,,,,,,,chosen stimuli: images/choice_trial_8.png,,,,,65f07c8102b4c1d4aa644c4a,17:02:50,26/03/2024
html-keyboard-response,108,223495,0.0-46.0-2.0,,,,delaylearn,learning,feedback_duration_window,4ntk1nHrvkQVYRdOJZzJDAFmafa2,4ntk1nHrvkQVYRdOJZzJDAFmafa2,,,,,,,,,,,,,,,,,,7000.0,,,,65f07c8102b4c1d4aa644c4a,17:02:50,26/03/2024
html-keyboard-response,109,224998,0.0-46.0-3.0,,<div style='margin:auto;width: auto; font-size: 150%'><span style='font-weight: bold; font-size: 100px; color: red;'>0 points!</span><br><br></div>,,delaylearn,learning,feedback_image_window,4ntk1nHrvkQVYRdOJZzJDAFmafa2,4ntk1nHrvkQVYRdOJZzJDAFmafa2,,,,,,,,,,,,,,,,,,,,,,65f07c8102b4c1d4aa644c4a,17:02:50,26/03/2024
html-keyboard-response,110,226698,0.0-47.0,,"<div style=""font-size:100px;"">+</div>",,delaylearn,learning,ITI,4ntk1nHrvkQVYRdOJZzJDAFmafa2,4ntk1nHrvkQVYRdOJZzJDAFmafa2,,,,,,,,,,,,,,,,,,,1694.0,,,65f07c8102b4c1d4aa644c4a,17:02:50,26/03/2024
html-keyboard-response,111,227229,0.0-48.0-0.0,527.0,"<div style=""display: flex; flex-direction: column; align-items: center; margin-top: -40px;""><img src=""images/pattern_6.png"" style=""width: 234px; height: 230px; margin-top: -50px;""><div style=""display: flex; justify-content: space-between; margin-top: 33px;""><img src=""images/choice_trial_3.png"" style=""width: 408px; height: 417px; margin-right: 200px;""><img src=""images/choice_trial_16.png"" style=""width: 408px; height: 417px;""></div></div>",f,delaylearn,learning,trial,4ntk1nHrvkQVYRdOJZzJDAFmafa2,4ntk1nHrvkQVYRdOJZzJDAFmafa2,3.0,images/choice_trial_3.png,images/choice_trial_16.png,images/pattern_6.png,j,j,750.0,3.0,16.0,5.0,1.0,21.0,0.0,0.0,3.0,100.0,,,,,,65f07c8102b4c1d4aa644c4a,17:02:50,26/03/2024
html-keyboard-response,112,228236,0.0-48.0-1.0,,"<div style=""display: flex; flex-direction: column; align-items: center; margin-top: -40px;""><img src=""images/pattern_6.png"" style=""width: 234px; height: 230px; margin-top: -50px;""><div style=""display: flex; justify-content: space-between; margin-top: 33px;""><img src=""images/choice_trial_3.png"" style=""width: 408px; height: 417px; margin-right: 608px;""></div></div>",,delaylearn,learning,display_response,4ntk1nHrvkQVYRdOJZzJDAFmafa2,4ntk1nHrvkQVYRdOJZzJDAFmafa2,,,,,,,,,,,,,,,,,chosen stimuli: images/choice_trial_3.png,,,,,65f07c8102b4c1d4aa644c4a,17:02:50,26/03/2024
html-keyboard-response,113,229000,0.0-48.0-2.0,,,,delaylearn,learning,feedback_duration_window,4ntk1nHrvkQVYRdOJZzJDAFmafa2,4ntk1nHrvkQVYRdOJZzJDAFmafa2,,,,,,,,,,,,,,,,,,750.0,,,,65f07c8102b4c1d4aa644c4a,17:02:50,26/03/2024
html-keyboard-response,114,230507,0.0-48.0-3.0,,<div style='margin:auto;width: auto; font-size: 150%'><span style='font-weight: bold; font-size: 100px; color: red;'>0 points!</span><br><br></div>,,delaylearn,learning,feedback_image_window,4ntk1nHrvkQVYRdOJZzJDAFmafa2,4ntk1nHrvkQVYRdOJZzJDAFmafa2,,,,,,,,,,,,,,,,,,,,,,65f07c8102b4c1d4aa644c4a,17:02:50,26/03/2024
html-keyboard-response,115,232568,0.0-49.0,,"<div style=""font-size:100px;"">+</div>",,delaylearn,learning,ITI,4ntk1nHrvkQVYRdOJZzJDAFmafa2,4ntk1nHrvkQVYRdOJZzJDAFmafa2,,,,,,,,,,,,,,,,,,,2047.0,,,65f07c8102b4c1d4aa644c4a,17:02:50,26/03/2024
html-keyboard-response,116,232761,0.0-50.0-0.0,189.10000000009313,"<div style=""display: flex; flex-direction: column; align-items: center; margin-top: -40px;""><img src=""images/pattern_4.png"" style=""width: 234px; height: 230px; margin-top: -50px;""><div style=""display: flex; justify-content: space-between; margin-top: 33px;""><img src=""images/choice_trial_15.png"" style=""width: 408px; height: 417px; margin-right: 200px;""><img src=""images/choice_trial_9.png"" style=""width: 408px; height: 417px;""></div></div>",j,delaylearn,learning,trial,4ntk1nHrvkQVYRdOJZzJDAFmafa2,4ntk1nHrvkQVYRdOJZzJDAFmafa2,3.0,images/choice_trial_15.png,images/choice_trial_9.png,images/pattern_4.png,f,f,7000.0,15.0,9.0,3.0,0.0,22.0,0.0,0.0,9.0,100.0,,,,,,65f07c8102b4c1d4aa644c4a,17:02:50,26/03/2024
html-keyboard-response,117,233765,0.0-50.0-1.0,,"<div style=""display: flex; flex-direction: column; align-items: center; margin-top: -40px;""><img src=""images/pattern_4.png"" style=""width: 234px; height: 230px; margin-top: -50px;""><div style=""display: flex; justify-content: space-between; margin-top: 33px;""><img src=""images/choice_trial_9.png"" style=""width: 408px; height: 417px; margin-left:608px;""></div></div>",,delaylearn,learning,display_response,4ntk1nHrvkQVYRdOJZzJDAFmafa2,4ntk1nHrvkQVYRdOJZzJDAFmafa2,,,,,,,,,,,,,,,,,chosen stimuli: images/choice_trial_9.png,,,,,65f07c8102b4c1d4aa644c4a,17:02:50,26/03/2024
html-keyboard-response,118,240778,0.0-50.0-2.0,,,,delaylearn,learning,feedback_duration_window,4ntk1nHrvkQVYRdOJZzJDAFmafa2,4ntk1nHrvkQVYRdOJZzJDAFmafa2,,,,,,,,,,,,,,,,,,7000.0,,,,65f07c8102b4c1d4aa644c4a,17:02:50,26/03/2024
html-keyboard-response,119,242287,0.0-50.0-3.0,,<div style='margin:auto;width: auto; font-size: 150%'><span style='font-weight: bold; font-size: 100px; color: red;'>0 points!</span><br><br></div>,,delaylearn,learning,feedback_image_window,4ntk1nHrvkQVYRdOJZzJDAFmafa2,4ntk1nHrvkQVYRdOJZzJDAFmafa2,,,,,,,,,,,,,,,,,,,,,,65f07c8102b4c1d4aa644c4a,17:02:50,26/03/2024
html-keyboard-response,120,242802,0.0-51.0-0.0,,,,,,mood_trial_fixation,4ntk1nHrvkQVYRdOJZzJDAFmafa2,,,,,,,,,,,,,,,,,,,,,,,65f07c8102b4c1d4aa644c4a,17:02:50,26/03/2024
lmdlab-html-vas-response,121,248059,0.0-51.0-1.0,4243.0,How happy are you right now?,0.5976738666033705,delaylearn,learning,mood_trial,4ntk1nHrvkQVYRdOJZzJDAFmafa2,4ntk1nHrvkQVYRdOJZzJDAFmafa2,,,,,,,,,,,,,,,,,,,,"['Very unhappy', 'Very happy']",,65f07c8102b4c1d4aa644c4a,17:02:50,26/03/2024
html-keyboard-response,122,249666,0.0-52.0,,"<div style=""font-size:100px;"">+</div>",,delaylearn,learning,ITI,4ntk1nHrvkQVYRdOJZzJDAFmafa2,4ntk1nHrvkQVYRdOJZzJDAFmafa2,,,,,,,,,,,,,,,,,,,1596.0,,,65f07c8102b4c1d4aa644c4a,17:02:50,26/03/2024
html-keyboard-response,123,250283,0.0-53.0-0.0,612.8000000002794,"<div style=""display: flex; flex-direction: column; align-items: center; margin-top: -40px;""><img src=""images/pattern_7.png"" style=""width: 234px; height: 230px; margin-top: -50px;""><div style=""display: flex; justify-content: space-between; margin-top: 33px;""><img src=""images/choice_trial_12.png"" style=""width: 408px; height: 417px; margin-right: 200px;""><img src=""images/choice_trial_6.png"" style=""width: 408px; height: 417px;""></div></div>",f,delaylearn,learning,trial,4ntk1nHrvkQVYRdOJZzJDAFmafa2,4ntk1nHrvkQVYRdOJZzJDAFmafa2,3.0,images/choice_trial_12.png,images/choice_trial_6.png,images/pattern_7.png,j,j,750.0,12.0,6.0,6.0,1.0,23.0,0.0,0.0,12.0,100.0,,,,,,65f07c8102b4c1d4aa644c4a,17:02:50,26/03/2024
html-keyboard-response,124,251298,0.0-53.0-1.0,,"<div style=""display: flex; flex-direction: column; align-items: center; margin-top: -40px;""><img src=""images/pattern_7.png"" style=""width: 234px; height: 230px; margin-top: -50px;""><div style=""display: flex; justify-content: space-between; margin-top: 33px;""><img src=""images/choice_trial_12.png"" style=""width: 408px; height: 417px; margin-right: 608px;""></div></div>",,delaylearn,learning,display_response,4ntk1nHrvkQVYRdOJZzJDAFmafa2,4ntk1nHrvkQVYRdOJZzJDAFmafa2,,,,,,,,,,,,,,,,,chosen stimuli: images/choice_trial_12.png,,,,,65f07c8102b4c1d4aa644c4a,17:02:50,26/03/2024
html-keyboard-response,125,252058,0.0-53.0-2.0,,,,delaylearn,learning,feedback_duration_window,4ntk1nHrvkQVYRdOJZzJDAFmafa2,4ntk1nHrvkQVYRdOJZzJDAFmafa2,,,,,,,,,,,,,,,,,,750.0,,,,65f07c8102b4c1d4aa644c4a,17:02:50,26/03/2024
html-keyboard-response,126,253559,0.0-53.0-3.0,,<div style='margin:auto;width: auto; font-size: 150%'><span style='font-weight: bold; font-size: 100px; color: red;'>0 points!</span><br><br></div>,,delaylearn,learning,feedback_image_window,4ntk1nHrvkQVYRdOJZzJDAFmafa2,4ntk1nHrvkQVYRdOJZzJDAFmafa2,,,,,,,,,,,,,,,,,,,,,,65f07c8102b4c1d4aa644c4a,17:02:50,26/03/2024
html-keyboard-response,127,255589,0.0-54.0,,"<div style=""font-size:100px;"">+</div>",,delaylearn,learning,ITI,4ntk1nHrvkQVYRdOJZzJDAFmafa2,4ntk1nHrvkQVYRdOJZzJDAFmafa2,,,,,,,,,,,,,,,,,,,2020.0,,,65f07c8102b4c1d4aa644c4a,17:02:50,26/03/2024
html-keyboard-response,128,256061,0.0-55.0-0.0,468.79999999981374,"<div style=""display: flex; flex-direction: column; align-items: center; margin-top: -40px;""><img src=""images/pattern_1.png"" style=""width: 234px; height: 230px; margin-top: -50px;""><div style=""display: flex; justify-content: space-between; margin-top: 33px;""><img src=""images/choice_trial_8.png"" style=""width: 408px; height: 417px; margin-right: 200px;""><img src=""images/choice_trial_14.png"" style=""width: 408px; height: 417px;""></div></div>",f,delaylearn,learning,trial,4ntk1nHrvkQVYRdOJZzJDAFmafa2,4ntk1nHrvkQVYRdOJZzJDAFmafa2,3.0,images/choice_trial_8.png,images/choice_trial_14.png,images/pattern_1.png,f,j,7000.0,8.0,14.0,1.0,1.0,24.0,0.0,1.0,8.0,110.0,,,,,,65f07c8102b4c1d4aa644c4a,17:02:50,26/03/2024
html-keyboard-response,129,257073,0.0-55.0-1.0,,"<div style=""display: flex; flex-direction: column; align-items: center; margin-top: -40px;""><img src=""images/pattern_1.png"" style=""width: 234px; height: 230px; margin-top: -50px;""><div style=""display: flex; justify-content: space-between; margin-top: 33px;""><img src=""images/choice_trial_8.png"" style=""width: 408px; height: 417px; margin-right: 608px;""></div></div>",,delaylearn,learning,display_response,4ntk1nHrvkQVYRdOJZzJDAFmafa2,4ntk1nHrvkQVYRdOJZzJDAFmafa2,,,,,,,,,,,,,,,,,chosen stimuli: images/choice_trial_8.png,,,,,65f07c8102b4c1d4aa644c4a,17:02:50,26/03/2024
html-keyboard-response,130,264086,0.0-55.0-2.0,,,,delaylearn,learning,feedback_duration_window,4ntk1nHrvkQVYRdOJZzJDAFmafa2,4ntk1nHrvkQVYRdOJZzJDAFmafa2,,,,,,,,,,,,,,,,,,7000.0,,,,65f07c8102b4c1d4aa644c4a,17:02:50,26/03/2024
html-keyboard-response,131,265589,0.0-55.0-3.0,,<div style='margin:auto;width: auto; font-size: 150%'><span style='font-weight: bold; font-size: 100px; color: green;'>+10 points!</span><br><br></div>,,delaylearn,learning,feedback_image_window,4ntk1nHrvkQVYRdOJZzJDAFmafa2,4ntk1nHrvkQVYRdOJZzJDAFmafa2,,,,,,,,,,,,,,,,,,,,,,65f07c8102b4c1d4aa644c4a,17:02:50,26/03/2024
html-keyboard-response,132,267455,0.0-56.0,,"<div style=""font-size:100px;"">+</div>",,delaylearn,learning,ITI,4ntk1nHrvkQVYRdOJZzJDAFmafa2,4ntk1nHrvkQVYRdOJZzJDAFmafa2,,,,,,,,,,,,,,,,,,,1851.0,,,65f07c8102b4c1d4aa644c4a,17:02:50,26/03/2024
html-keyboard-response,133,267855,0.0-57.0-0.0,395.5,"<div style=""display: flex; flex-direction: column; align-items: center; margin-top: -40px;""><img src=""images/pattern_5.png"" style=""width: 234px; height: 230px; margin-top: -50px;""><div style=""display: flex; justify-content: space-between; margin-top: 33px;""><img src=""images/choice_trial_2.png"" style=""width: 408px; height: 417px; margin-right: 200px;""><img src=""images/choice_trial_11.png"" style=""width: 408px; height: 417px;""></div></div>",j,delaylearn,learning,trial,4ntk1nHrvkQVYRdOJZzJDAFmafa2,4ntk1nHrvkQVYRdOJZzJDAFmafa2,3.0,images/choice_trial_2.png,images/choice_trial_11.png,images/pattern_5.png,j,j,750.0,2.0,11.0,4.0,1.0,25.0,1.0,1.0,11.0,120.0,,,,,,65f07c8102b4c1d4aa644c4a,17:02:50,26/03/2024
html-keyboard-response,134,268872,0.0-57.0-1.0,,"<div style=""display: flex; flex-direction: column; align-items: center; margin-top: -40px;""><img src=""images/pattern_5.png"" style=""width: 234px; height: 230px; margin-top: -50px;""><div style=""display: flex; justify-content: space-between; margin-top: 33px;""><img src=""images/choice_trial_11.png"" style=""width: 408px; height: 417px; margin-left:608px;""></div></div>",,delaylearn,learning,display_response,4ntk1nHrvkQVYRdOJZzJDAFmafa2,4ntk1nHrvkQVYRdOJZzJDAFmafa2,,,,,,,,,,,,,,,,,chosen stimuli: images/choice_trial_11.png,,,,,65f07c8102b4c1d4aa644c4a,17:02:50,26/03/2024
html-keyboard-response,135,269635,0.0-57.0-2.0,,,,delaylearn,learning,feedback_duration_window,4ntk1nHrvkQVYRdOJZzJDAFmafa2,4ntk1nHrvkQVYRdOJZzJDAFmafa2,,,,,,,,,,,,,,,,,,750.0,,,,65f07c8102b4c1d4aa644c4a,17:02:50,26/03/2024
html-keyboard-response,136,271136,0.0-57.0-3.0,,<div style='margin:auto;width: auto; font-size: 150%'><span style='font-weight: bold; font-size: 100px; color: green;'>+10 points!</span><br><br></div>,,delaylearn,learning,feedback_image_window,4ntk1nHrvkQVYRdOJZzJDAFmafa2,4ntk1nHrvkQVYRdOJZzJDAFmafa2,,,,,,,,,,,,,,,,,,,,,,65f07c8102b4c1d4aa644c4a,17:02:50,26/03/2024
html-keyboard-response,137,272947,0.0-58.0,,"<div style=""font-size:100px;"">+</div>",,delaylearn,learning,ITI,4ntk1nHrvkQVYRdOJZzJDAFmafa2,4ntk1nHrvkQVYRdOJZzJDAFmafa2,,,,,,,,,,,,,,,,,,,1809.0,,,65f07c8102b4c1d4aa644c4a,17:02:50,26/03/2024
html-keyboard-response,138,273444,0.0-59.0-0.0,493.70000000018626,"<div style=""display: flex; flex-direction: column; align-items: center; margin-top: -40px;""><img src=""images/pattern_3.png"" style=""width: 234px; height: 230px; margin-top: -50px;""><div style=""display: flex; justify-content: space-between; margin-top: 33px;""><img src=""images/choice_trial_10.png"" style=""width: 408px; height: 417px; margin-right: 200px;""><img src=""images/choice_trial_13.png"" style=""width: 408px; height: 417px;""></div></div>",j,delaylearn,learning,trial,4ntk1nHrvkQVYRdOJZzJDAFmafa2,4ntk1nHrvkQVYRdOJZzJDAFmafa2,3.0,images/choice_trial_10.png,images/choice_trial_13.png,images/pattern_3.png,j,j,7000.0,10.0,13.0,2.0,1.0,26.0,1.0,1.0,13.0,130.0,,,,,,65f07c8102b4c1d4aa644c4a,17:02:50,26/03/2024
html-keyboard-response,139,274457,0.0-59.0-1.0,,"<div style=""display: flex; flex-direction: column; align-items: center; margin-top: -40px;""><img src=""images/pattern_3.png"" style=""width: 234px; height: 230px; margin-top: -50px;""><div style=""display: flex; justify-content: space-between; margin-top: 33px;""><img src=""images/choice_trial_13.png"" style=""width: 408px; height: 417px; margin-left:608px;""></div></div>",,delaylearn,learning,display_response,4ntk1nHrvkQVYRdOJZzJDAFmafa2,4ntk1nHrvkQVYRdOJZzJDAFmafa2,,,,,,,,,,,,,,,,,chosen stimuli: images/choice_trial_13.png,,,,,65f07c8102b4c1d4aa644c4a,17:02:50,26/03/2024
html-keyboard-response,140,281473,0.0-59.0-2.0,,,,delaylearn,learning,feedback_duration_window,4ntk1nHrvkQVYRdOJZzJDAFmafa2,4ntk1nHrvkQVYRdOJZzJDAFmafa2,,,,,,,,,,,,,,,,,,7000.0,,,,65f07c8102b4c1d4aa644c4a,17:02:50,26/03/2024
html-keyboard-response,141,282975,0.0-59.0-3.0,,<div style='margin:auto;width: auto; font-size: 150%'><span style='font-weight: bold; font-size: 100px; color: green;'>+10 points!</span><br><br></div>,,delaylearn,learning,feedback_image_window,4ntk1nHrvkQVYRdOJZzJDAFmafa2,4ntk1nHrvkQVYRdOJZzJDAFmafa2,,,,,,,,,,,,,,,,,,,,,,65f07c8102b4c1d4aa644c4a,17:02:50,26/03/2024
lmdlab-html-vas-response,142,289823,0.0-60.0-0.0,5329.0,*How <b><u>confident</u></b> are you feeling about your answers at this moment?*,0.5716320233291513,rewlearn,rate_confidence,,4ntk1nHrvkQVYRdOJZzJDAFmafa2,4ntk1nHrvkQVYRdOJZzJDAFmafa2,,,,,,,,,,,,,,,,,,,,"['No confidence', 'Complete confidence']",,65f07c8102b4c1d4aa644c4a,17:02:50,26/03/2024
lmdlab-rest-trial-limit,143,300854,0.0-60.0-1.0,9524.30000000028,"<div style=""font-size:40px;""><b>Please take a break!</b><br><br><br><br><p>Great work: you earned 130 points.<br><br><br><p>You have completed part(s) 1 of 5.<br><br><br><br>When you are ready to continue<br><br><br>please click the button.</p><br><br>",0,delaylearn,learning,break,4ntk1nHrvkQVYRdOJZzJDAFmafa2,4ntk1nHrvkQVYRdOJZzJDAFmafa2,,,,,,,,,,,,,,,,,,,,,0.0,65f07c8102b4c1d4aa644c4a,17:02:50,26/03/2024
html-keyboard-response,144,303859,0.0-60.0-2.0,,"<div style=""font-size:100px;"">+</div>",,delaylearn,learning,pre_fixation,4ntk1nHrvkQVYRdOJZzJDAFmafa2,,,,,,,,,,,,,,,,,,,,,,,65f07c8102b4c1d4aa644c4a,17:02:50,26/03/2024
lmdlab-html-vas-response,145,308870,0.0-60.0-3.0-0.0,4002.0,How happy are you right now?,0.5716320233291513,delaylearn,learning,mood_baseline,4ntk1nHrvkQVYRdOJZzJDAFmafa2,4ntk1nHrvkQVYRdOJZzJDAFmafa2,,,,,,,,,,,,,,,,,,,,"['Very unhappy', 'Very happy']",,65f07c8102b4c1d4aa644c4a,17:02:50,26/03/2024
html-keyboard-response,146,310388,0.0-60.0-3.0-1.0,,,,,,mood_baseline_fixation,4ntk1nHrvkQVYRdOJZzJDAFmafa2,,,,,,,,,,,,,,,,,,,,,,,65f07c8102b4c1d4aa644c4a,17:02:50,26/03/2024
html-keyboard-response,147,312605,0.0-61.0,,"<div style=""font-size:100px;"">+</div>",,delaylearn,learning,ITI,4ntk1nHrvkQVYRdOJZzJDAFmafa2,4ntk1nHrvkQVYRdOJZzJDAFmafa2,,,,,,,,,,,,,,,,,,,2208.0,,,65f07c8102b4c1d4aa644c4a,17:02:50,26/03/2024
html-keyboard-response,148,313256,0.0-62.0-0.0,647.7999999998137,"<div style=""display: flex; flex-direction: column; align-items: center; margin-top: -40px;""><img src=""images/pattern_7.png"" style=""width: 234px; height: 230px; margin-top: -50px;""><div style=""display: flex; justify-content: space-between; margin-top: 33px;""><img src=""images/choice_trial_12.png"" style=""width: 408px; height: 417px; margin-right: 200px;""><img src=""images/choice_trial_6.png"" style=""width: 408px; height: 417px;""></div></div>",f,delaylearn,learning,trial,4ntk1nHrvkQVYRdOJZzJDAFmafa2,4ntk1nHrvkQVYRdOJZzJDAFmafa2,3.0,images/choice_trial_12.png,images/choice_trial_6.png,images/pattern_7.png,j,j,750.0,12.0,6.0,6.0,1.0,27.0,0.0,0.0,12.0,130.0,,,,,,65f07c8102b4c1d4aa644c4a,17:02:50,26/03/2024
html-keyboard-response,149,314269,0.0-62.0-1.0,,"<div style=""display: flex; flex-direction: column; align-items: center; margin-top: -40px;""><img src=""images/pattern_7.png"" style=""width: 234px; height: 230px; margin-top: -50px;""><div style=""display: flex; justify-content: space-between; margin-top: 33px;""><img src=""images/choice_trial_12.png"" style=""width: 408px; height: 417px; margin-right: 608px;""></div></div>",,delaylearn,learning,display_response,4ntk1nHrvkQVYRdOJZzJDAFmafa2,4ntk1nHrvkQVYRdOJZzJDAFmafa2,,,,,,,,,,,,,,,,,chosen stimuli: images/choice_trial_12.png,,,,,65f07c8102b4c1d4aa644c4a,17:02:50,26/03/2024
html-keyboard-response,150,315021,0.0-62.0-2.0,,,,delaylearn,learning,feedback_duration_window,4ntk1nHrvkQVYRdOJZzJDAFmafa2,4ntk1nHrvkQVYRdOJZzJDAFmafa2,,,,,,,,,,,,,,,,,,750.0,,,,65f07c8102b4c1d4aa644c4a,17:02:50,26/03/2024
html-keyboard-response,151,316528,0.0-62.0-3.0,,<div style='margin:auto;width: auto; font-size: 150%'><span style='font-weight: bold; font-size: 100px; color: red;'>0 points!</span><br><br></div>,,delaylearn,learning,feedback_image_window,4ntk1nHrvkQVYRdOJZzJDAFmafa2,4ntk1nHrvkQVYRdOJZzJDAFmafa2,,,,,,,,,,,,,,,,,,,,,,65f07c8102b4c1d4aa644c4a,17:02:50,26/03/2024
html-keyboard-response,152,317035,0.0-63.0-0.0,,,,,,mood_trial_fixation,4ntk1nHrvkQVYRdOJZzJDAFmafa2,,,,,,,,,,,,,,,,,,,,,,,65f07c8102b4c1d4aa644c4a,17:02:50,26/03/2024
lmdlab-html-vas-response,153,323123,0.0-63.0-1.0,5081.0,How happy are you right now?,0.6801397036383982,delaylearn,learning,mood_trial,4ntk1nHrvkQVYRdOJZzJDAFmafa2,4ntk1nHrvkQVYRdOJZzJDAFmafa2,,,,,,,,,,,,,,,,,,,,"['Very unhappy', 'Very happy']",,65f07c8102b4c1d4aa644c4a,17:02:50,26/03/2024
html-keyboard-response,154,325173,0.0-64.0,,"<div style=""font-size:100px;"">+</div>",,delaylearn,learning,ITI,4ntk1nHrvkQVYRdOJZzJDAFmafa2,4ntk1nHrvkQVYRdOJZzJDAFmafa2,,,,,,,,,,,,,,,,,,,2041.0,,,65f07c8102b4c1d4aa644c4a,17:02:50,26/03/2024
html-keyboard-response,155,327766,0.0-65.0-0.0,2589.0999999996275,"<div style=""display: flex; flex-direction: column; align-items: center; margin-top: -40px;""><img src=""images/pattern_1.png"" style=""width: 234px; height: 230px; margin-top: -50px;""><div style=""display: flex; justify-content: space-between; margin-top: 33px;""><img src=""images/choice_trial_14.png"" style=""width: 408px; height: 417px; margin-right: 200px;""><img src=""images/choice_trial_8.png"" style=""width: 408px; height: 417px;""></div></div>",j,delaylearn,learning,trial,4ntk1nHrvkQVYRdOJZzJDAFmafa2,4ntk1nHrvkQVYRdOJZzJDAFmafa2,3.0,images/choice_trial_14.png,images/choice_trial_8.png,images/pattern_1.png,f,f,7000.0,14.0,8.0,1.0,0.0,28.0,0.0,0.0,8.0,130.0,,,,,,65f07c8102b4c1d4aa644c4a,17:02:50,26/03/2024
html-keyboard-response,156,328783,0.0-65.0-1.0,,"<div style=""display: flex; flex-direction: column; align-items: center; margin-top: -40px;""><img src=""images/pattern_1.png"" style=""width: 234px; height: 230px; margin-top: -50px;""><div style=""display: flex; justify-content: space-between; margin-top: 33px;""><img src=""images/choice_trial_8.png"" style=""width: 408px; height: 417px; margin-left:608px;""></div></div>",,delaylearn,learning,display_response,4ntk1nHrvkQVYRdOJZzJDAFmafa2,4ntk1nHrvkQVYRdOJZzJDAFmafa2,,,,,,,,,,,,,,,,,chosen stimuli: images/choice_trial_8.png,,,,,65f07c8102b4c1d4aa644c4a,17:02:50,26/03/2024
html-keyboard-response,157,335800,0.0-65.0-2.0,,,,delaylearn,learning,feedback_duration_window,4ntk1nHrvkQVYRdOJZzJDAFmafa2,4ntk1nHrvkQVYRdOJZzJDAFmafa2,,,,,,,,,,,,,,,,,,7000.0,,,,65f07c8102b4c1d4aa644c4a,17:02:50,26/03/2024
html-keyboard-response,158,337312,0.0-65.0-3.0,,<div style='margin:auto;width: auto; font-size: 150%'><span style='font-weight: bold; font-size: 100px; color: red;'>0 points!</span><br><br></div>,,delaylearn,learning,feedback_image_window,4ntk1nHrvkQVYRdOJZzJDAFmafa2,4ntk1nHrvkQVYRdOJZzJDAFmafa2,,,,,,,,,,,,,,,,,,,,,,65f07c8102b4c1d4aa644c4a,17:02:50,26/03/2024
html-keyboard-response,159,339302,0.0-66.0,,"<div style=""font-size:100px;"">+</div>",,delaylearn,learning,ITI,4ntk1nHrvkQVYRdOJZzJDAFmafa2,4ntk1nHrvkQVYRdOJZzJDAFmafa2,,,,,,,,,,,,,,,,,,,1984.0,,,65f07c8102b4c1d4aa644c4a,17:02:50,26/03/2024
html-keyboard-response,160,340286,0.0-67.0-0.0,979.7000000001863,"<div style=""display: flex; flex-direction: column; align-items: center; margin-top: -40px;""><img src=""images/pattern_5.png"" style=""width: 234px; height: 230px; margin-top: -50px;""><div style=""display: flex; justify-content: space-between; margin-top: 33px;""><img src=""images/choice_trial_11.png"" style=""width: 408px; height: 417px; margin-right: 200px;""><img src=""images/choice_trial_2.png"" style=""width: 408px; height: 417px;""></div></div>",f,delaylearn,learning,trial,4ntk1nHrvkQVYRdOJZzJDAFmafa2,4ntk1nHrvkQVYRdOJZzJDAFmafa2,3.0,images/choice_trial_11.png,images/choice_trial_2.png,images/pattern_5.png,f,f,750.0,11.0,2.0,4.0,0.0,29.0,1.0,1.0,11.0,140.0,,,,,,65f07c8102b4c1d4aa644c4a,17:02:50,26/03/2024
html-keyboard-response,161,341299,0.0-67.0-1.0,,"<div style=""display: flex; flex-direction: column; align-items: center; margin-top: -40px;""><img src=""images/pattern_5.png"" style=""width: 234px; height: 230px; margin-top: -50px;""><div style=""display: flex; justify-content: space-between; margin-top: 33px;""><img src=""images/choice_trial_11.png"" style=""width: 408px; height: 417px; margin-right: 608px;""></div></div>",,delaylearn,learning,display_response,4ntk1nHrvkQVYRdOJZzJDAFmafa2,4ntk1nHrvkQVYRdOJZzJDAFmafa2,,,,,,,,,,,,,,,,,chosen stimuli: images/choice_trial_11.png,,,,,65f07c8102b4c1d4aa644c4a,17:02:50,26/03/2024
html-keyboard-response,162,342053,0.0-67.0-2.0,,,,delaylearn,learning,feedback_duration_window,4ntk1nHrvkQVYRdOJZzJDAFmafa2,4ntk1nHrvkQVYRdOJZzJDAFmafa2,,,,,,,,,,,,,,,,,,750.0,,,,65f07c8102b4c1d4aa644c4a,17:02:50,26/03/2024
html-keyboard-response,163,343568,0.0-67.0-3.0,,<div style='margin:auto;width: auto; font-size: 150%'><span style='font-weight: bold; font-size: 100px; color: green;'>+10 points!</span><br><br></div>,,delaylearn,learning,feedback_image_window,4ntk1nHrvkQVYRdOJZzJDAFmafa2,4ntk1nHrvkQVYRdOJZzJDAFmafa2,,,,,,,,,,,,,,,,,,,,,,65f07c8102b4c1d4aa644c4a,17:02:50,26/03/2024
html-keyboard-response,164,346045,0.0-68.0,,"<div style=""font-size:100px;"">+</div>",,delaylearn,learning,ITI,4ntk1nHrvkQVYRdOJZzJDAFmafa2,4ntk1nHrvkQVYRdOJZzJDAFmafa2,,,,,,,,,,,,,,,,,,,2465.0,,,65f07c8102b4c1d4aa644c4a,17:02:50,26/03/2024
html-keyboard-response,165,346662,0.0-69.0-0.0,613.2000000001863,"<div style=""display: flex; flex-direction: column; align-items: center; margin-top: -40px;""><img src=""images/pattern_6.png"" style=""width: 234px; height: 230px; margin-top: -50px;""><div style=""display: flex; justify-content: space-between; margin-top: 33px;""><img src=""images/choice_trial_3.png"" style=""width: 408px; height: 417px; margin-right: 200px;""><img src=""images/choice_trial_16.png"" style=""width: 408px; height: 417px;""></div></div>",j,delaylearn,learning,trial,4ntk1nHrvkQVYRdOJZzJDAFmafa2,4ntk1nHrvkQVYRdOJZzJDAFmafa2,3.0,images/choice_trial_3.png,images/choice_trial_16.png,images/pattern_6.png,j,j,750.0,3.0,16.0,5.0,1.0,30.0,1.0,1.0,16.0,150.0,,,,,,65f07c8102b4c1d4aa644c4a,17:02:50,26/03/2024
html-keyboard-response,166,347667,0.0-69.0-1.0,,"<div style=""display: flex; flex-direction: column; align-items: center; margin-top: -40px;""><img src=""images/pattern_6.png"" style=""width: 234px; height: 230px; margin-top: -50px;""><div style=""display: flex; justify-content: space-between; margin-top: 33px;""><img src=""images/choice_trial_16.png"" style=""width: 408px; height: 417px; margin-left:608px;""></div></div>",,delaylearn,learning,display_response,4ntk1nHrvkQVYRdOJZzJDAFmafa2,4ntk1nHrvkQVYRdOJZzJDAFmafa2,,,,,,,,,,,,,,,,,chosen stimuli: images/choice_trial_16.png,,,,,65f07c8102b4c1d4aa644c4a,17:02:50,26/03/2024
html-keyboard-response,167,348419,0.0-69.0-2.0,,,,delaylearn,learning,feedback_duration_window,4ntk1nHrvkQVYRdOJZzJDAFmafa2,4ntk1nHrvkQVYRdOJZzJDAFmafa2,,,,,,,,,,,,,,,,,,750.0,,,,65f07c8102b4c1d4aa644c4a,17:02:50,26/03/2024
html-keyboard-response,168,349932,0.0-69.0-3.0,,<div style='margin:auto;width: auto; font-size: 150%'><span style='font-weight: bold; font-size: 100px; color: green;'>+10 points!</span><br><br></div>,,delaylearn,learning,feedback_image_window,4ntk1nHrvkQVYRdOJZzJDAFmafa2,4ntk1nHrvkQVYRdOJZzJDAFmafa2,,,,,,,,,,,,,,,,,,,,,,65f07c8102b4c1d4aa644c4a,17:02:50,26/03/2024
html-keyboard-response,169,350436,0.0-70.0-0.0,,,,,,mood_trial_fixation,4ntk1nHrvkQVYRdOJZzJDAFmafa2,,,,,,,,,,,,,,,,,,,,,,,65f07c8102b4c1d4aa644c4a,17:02:50,26/03/2024
lmdlab-html-vas-response,170,357422,0.0-70.0-1.0,5967.0,How happy are you right now?,0.5325692584178224,delaylearn,learning,mood_trial,4ntk1nHrvkQVYRdOJZzJDAFmafa2,4ntk1nHrvkQVYRdOJZzJDAFmafa2,,,,,,,,,,,,,,,,,,,,"['Very unhappy', 'Very happy']",,65f07c8102b4c1d4aa644c4a,17:02:50,26/03/2024
html-keyboard-response,171,359636,0.0-71.0,,"<div style=""font-size:100px;"">+</div>",,delaylearn,learning,ITI,4ntk1nHrvkQVYRdOJZzJDAFmafa2,4ntk1nHrvkQVYRdOJZzJDAFmafa2,,,,,,,,,,,,,,,,,,,2196.0,,,65f07c8102b4c1d4aa644c4a,17:02:50,26/03/2024
html-keyboard-response,172,360036,0.0-72.0-0.0,395.3000000002794,"<div style=""display: flex; flex-direction: column; align-items: center; margin-top: -40px;""><img src=""images/pattern_4.png"" style=""width: 234px; height: 230px; margin-top: -50px;""><div style=""display: flex; justify-content: space-between; margin-top: 33px;""><img src=""images/choice_trial_9.png"" style=""width: 408px; height: 417px; margin-right: 200px;""><img src=""images/choice_trial_15.png"" style=""width: 408px; height: 417px;""></div></div>",f,delaylearn,learning,trial,4ntk1nHrvkQVYRdOJZzJDAFmafa2,4ntk1nHrvkQVYRdOJZzJDAFmafa2,3.0,images/choice_trial_9.png,images/choice_trial_15.png,images/pattern_4.png,j,j,7000.0,9.0,15.0,3.0,1.0,31.0,0.0,0.0,9.0,150.0,,,,,,65f07c8102b4c1d4aa644c4a,17:02:50,26/03/2024
html-keyboard-response,173,361050,0.0-72.0-1.0,,"<div style=""display: flex; flex-direction: column; align-items: center; margin-top: -40px;""><img src=""images/pattern_4.png"" style=""width: 234px; height: 230px; margin-top: -50px;""><div style=""display: flex; justify-content: space-between; margin-top: 33px;""><img src=""images/choice_trial_9.png"" style=""width: 408px; height: 417px; margin-right: 608px;""></div></div>",,delaylearn,learning,display_response,4ntk1nHrvkQVYRdOJZzJDAFmafa2,4ntk1nHrvkQVYRdOJZzJDAFmafa2,,,,,,,,,,,,,,,,,chosen stimuli: images/choice_trial_9.png,,,,,65f07c8102b4c1d4aa644c4a,17:02:50,26/03/2024
html-keyboard-response,174,368058,0.0-72.0-2.0,,,,delaylearn,learning,feedback_duration_window,4ntk1nHrvkQVYRdOJZzJDAFmafa2,4ntk1nHrvkQVYRdOJZzJDAFmafa2,,,,,,,,,,,,,,,,,,7000.0,,,,65f07c8102b4c1d4aa644c4a,17:02:50,26/03/2024
html-keyboard-response,175,369568,0.0-72.0-3.0,,<div style='margin:auto;width: auto; font-size: 150%'><span style='font-weight: bold; font-size: 100px; color: red;'>0 points!</span><br><br></div>,,delaylearn,learning,feedback_image_window,4ntk1nHrvkQVYRdOJZzJDAFmafa2,4ntk1nHrvkQVYRdOJZzJDAFmafa2,,,,,,,,,,,,,,,,,,,,,,65f07c8102b4c1d4aa644c4a,17:02:50,26/03/2024
html-keyboard-response,176,371252,0.0-73.0,,"<div style=""font-size:100px;"">+</div>",,delaylearn,learning,ITI,4ntk1nHrvkQVYRdOJZzJDAFmafa2,4ntk1nHrvkQVYRdOJZzJDAFmafa2,,,,,,,,,,,,,,,,,,,1669.0,,,65f07c8102b4c1d4aa644c4a,17:02:50,26/03/2024
html-keyboard-response,177,371721,0.0-74.0-0.0,465.09999999962747,"<div style=""display: flex; flex-direction: column; align-items: center; margin-top: -40px;""><img src=""images/pattern_3.png"" style=""width: 234px; height: 230px; margin-top: -50px;""><div style=""display: flex; justify-content: space-between; margin-top: 33px;""><img src=""images/choice_trial_10.png"" style=""width: 408px; height: 417px; margin-right: 200px;""><img src=""images/choice_trial_13.png"" style=""width: 408px; height: 417px;""></div></div>",j,delaylearn,learning,trial,4ntk1nHrvkQVYRdOJZzJDAFmafa2,4ntk1nHrvkQVYRdOJZzJDAFmafa2,3.0,images/choice_trial_10.png,images/choice_trial_13.png,images/pattern_3.png,j,j,7000.0,10.0,13.0,2.0,1.0,32.0,1.0,1.0,13.0,160.0,,,,,,65f07c8102b4c1d4aa644c4a,17:02:50,26/03/2024
html-keyboard-response,178,372733,0.0-74.0-1.0,,"<div style=""display: flex; flex-direction: column; align-items: center; margin-top: -40px;""><img src=""images/pattern_3.png"" style=""width: 234px; height: 230px; margin-top: -50px;""><div style=""display: flex; justify-content: space-between; margin-top: 33px;""><img src=""images/choice_trial_13.png"" style=""width: 408px; height: 417px; margin-left:608px;""></div></div>",,delaylearn,learning,display_response,4ntk1nHrvkQVYRdOJZzJDAFmafa2,4ntk1nHrvkQVYRdOJZzJDAFmafa2,,,,,,,,,,,,,,,,,chosen stimuli: images/choice_trial_13.png,,,,,65f07c8102b4c1d4aa644c4a,17:02:50,26/03/2024
html-keyboard-response,179,379750,0.0-74.0-2.0,,,,delaylearn,learning,feedback_duration_window,4ntk1nHrvkQVYRdOJZzJDAFmafa2,4ntk1nHrvkQVYRdOJZzJDAFmafa2,,,,,,,,,,,,,,,,,,7000.0,,,,65f07c8102b4c1d4aa644c4a,17:02:50,26/03/2024
html-keyboard-response,180,381264,0.0-74.0-3.0,,<div style='margin:auto;width: auto; font-size: 150%'><span style='font-weight: bold; font-size: 100px; color: green;'>+10 points!</span><br><br></div>,,delaylearn,learning,feedback_image_window,4ntk1nHrvkQVYRdOJZzJDAFmafa2,4ntk1nHrvkQVYRdOJZzJDAFmafa2,,,,,,,,,,,,,,,,,,,,,,65f07c8102b4c1d4aa644c4a,17:02:50,26/03/2024
html-keyboard-response,181,383167,0.0-75.0,,"<div style=""font-size:100px;"">+</div>",,delaylearn,learning,ITI,4ntk1nHrvkQVYRdOJZzJDAFmafa2,4ntk1nHrvkQVYRdOJZzJDAFmafa2,,,,,,,,,,,,,,,,,,,1886.0,,,65f07c8102b4c1d4aa644c4a,17:02:50,26/03/2024
html-keyboard-response,182,384475,0.0-76.0-0.0,1303.8000000002794,"<div style=""display: flex; flex-direction: column; align-items: center; margin-top: -40px;""><img src=""images/pattern_5.png"" style=""width: 234px; height: 230px; margin-top: -50px;""><div style=""display: flex; justify-content: space-between; margin-top: 33px;""><img src=""images/choice_trial_11.png"" style=""width: 408px; height: 417px; margin-right: 200px;""><img src=""images/choice_trial_2.png"" style=""width: 408px; height: 417px;""></div></div>",j,delaylearn,learning,trial,4ntk1nHrvkQVYRdOJZzJDAFmafa2,4ntk1nHrvkQVYRdOJZzJDAFmafa2,3.0,images/choice_trial_11.png,images/choice_trial_2.png,images/pattern_5.png,j,f,750.0,11.0,2.0,4.0,0.0,33.0,0.0,1.0,2.0,170.0,,,,,,65f07c8102b4c1d4aa644c4a,17:02:50,26/03/2024
html-keyboard-response,183,385486,0.0-76.0-1.0,,"<div style=""display: flex; flex-direction: column; align-items: center; margin-top: -40px;""><img src=""images/pattern_5.png"" style=""width: 234px; height: 230px; margin-top: -50px;""><div style=""display: flex; justify-content: space-between; margin-top: 33px;""><img src=""images/choice_trial_2.png"" style=""width: 408px; height: 417px; margin-left:608px;""></div></div>",,delaylearn,learning,display_response,4ntk1nHrvkQVYRdOJZzJDAFmafa2,4ntk1nHrvkQVYRdOJZzJDAFmafa2,,,,,,,,,,,,,,,,,chosen stimuli: images/choice_trial_2.png,,,,,65f07c8102b4c1d4aa644c4a,17:02:50,26/03/2024
html-keyboard-response,184,386244,0.0-76.0-2.0,,,,delaylearn,learning,feedback_duration_window,4ntk1nHrvkQVYRdOJZzJDAFmafa2,4ntk1nHrvkQVYRdOJZzJDAFmafa2,,,,,,,,,,,,,,,,,,750.0,,,,65f07c8102b4c1d4aa644c4a,17:02:50,26/03/2024
html-keyboard-response,185,387761,0.0-76.0-3.0,,<div style='margin:auto;width: auto; font-size: 150%'><span style='font-weight: bold; font-size: 100px; color: green;'>+10 points!</span><br><br></div>,,delaylearn,learning,feedback_image_window,4ntk1nHrvkQVYRdOJZzJDAFmafa2,4ntk1nHrvkQVYRdOJZzJDAFmafa2,,,,,,,,,,,,,,,,,,,,,,65f07c8102b4c1d4aa644c4a,17:02:50,26/03/2024
html-keyboard-response,186,389762,0.0-77.0,,"<div style=""font-size:100px;"">+</div>",,delaylearn,learning,ITI,4ntk1nHrvkQVYRdOJZzJDAFmafa2,4ntk1nHrvkQVYRdOJZzJDAFmafa2,,,,,,,,,,,,,,,,,,,1990.0,,,65f07c8102b4c1d4aa644c4a,17:02:50,26/03/2024
html-keyboard-response,187,391300,0.0-78.0-0.0,1534.1000000000931,"<div style=""display: flex; flex-direction: column; align-items: center; margin-top: -40px;""><img src=""images/pattern_1.png"" style=""width: 234px; height: 230px; margin-top: -50px;""><div style=""display: flex; justify-content: space-between; margin-top: 33px;""><img src=""images/choice_trial_14.png"" style=""width: 408px; height: 417px; margin-right: 200px;""><img src=""images/choice_trial_8.png"" style=""width: 408px; height: 417px;""></div></div>",f,delaylearn,learning,trial,4ntk1nHrvkQVYRdOJZzJDAFmafa2,4ntk1nHrvkQVYRdOJZzJDAFmafa2,3.0,images/choice_trial_14.png,images/choice_trial_8.png,images/pattern_1.png,f,f,7000.0,14.0,8.0,1.0,0.0,34.0,1.0,1.0,14.0,180.0,,,,,,65f07c8102b4c1d4aa644c4a,17:02:50,26/03/2024
html-keyboard-response,188,392319,0.0-78.0-1.0,,"<div style=""display: flex; flex-direction: column; align-items: center; margin-top: -40px;""><img src=""images/pattern_1.png"" style=""width: 234px; height: 230px; margin-top: -50px;""><div style=""display: flex; justify-content: space-between; margin-top: 33px;""><img src=""images/choice_trial_14.png"" style=""width: 408px; height: 417px; margin-right: 608px;""></div></div>",,delaylearn,learning,display_response,4ntk1nHrvkQVYRdOJZzJDAFmafa2,4ntk1nHrvkQVYRdOJZzJDAFmafa2,,,,,,,,,,,,,,,,,chosen stimuli: images/choice_trial_14.png,,,,,65f07c8102b4c1d4aa644c4a,17:02:50,26/03/2024
html-keyboard-response,189,399331,0.0-78.0-2.0,,,,delaylearn,learning,feedback_duration_window,4ntk1nHrvkQVYRdOJZzJDAFmafa2,4ntk1nHrvkQVYRdOJZzJDAFmafa2,,,,,,,,,,,,,,,,,,7000.0,,,,65f07c8102b4c1d4aa644c4a,17:02:50,26/03/2024
html-keyboard-response,190,400844,0.0-78.0-3.0,,<div style='margin:auto;width: auto; font-size: 150%'><span style='font-weight: bold; font-size: 100px; color: green;'>+10 points!</span><br><br></div>,,delaylearn,learning,feedback_image_window,4ntk1nHrvkQVYRdOJZzJDAFmafa2,4ntk1nHrvkQVYRdOJZzJDAFmafa2,,,,,,,,,,,,,,,,,,,,,,65f07c8102b4c1d4aa644c4a,17:02:50,26/03/2024
html-keyboard-response,191,401354,0.0-79.0-0.0,,,,,,mood_trial_fixation,4ntk1nHrvkQVYRdOJZzJDAFmafa2,,,,,,,,,,,,,,,,,,,,,,,65f07c8102b4c1d4aa644c4a,17:02:50,26/03/2024
lmdlab-html-vas-response,192,407663,0.0-79.0-1.0,5301.0,How happy are you right now?,0.7300532365806517,delaylearn,learning,mood_trial,4ntk1nHrvkQVYRdOJZzJDAFmafa2,4ntk1nHrvkQVYRdOJZzJDAFmafa2,,,,,,,,,,,,,,,,,,,,"['Very unhappy', 'Very happy']",,65f07c8102b4c1d4aa644c4a,17:02:50,26/03/2024
html-keyboard-response,193,409197,0.0-80.0,,"<div style=""font-size:100px;"">+</div>",,delaylearn,learning,ITI,4ntk1nHrvkQVYRdOJZzJDAFmafa2,4ntk1nHrvkQVYRdOJZzJDAFmafa2,,,,,,,,,,,,,,,,,,,1527.0,,,65f07c8102b4c1d4aa644c4a,17:02:50,26/03/2024
html-keyboard-response,194,410472,0.0-81.0-0.0,1270.9000000003725,"<div style=""display: flex; flex-direction: column; align-items: center; margin-top: -40px;""><img src=""images/pattern_6.png"" style=""width: 234px; height: 230px; margin-top: -50px;""><div style=""display: flex; justify-content: space-between; margin-top: 33px;""><img src=""images/choice_trial_16.png"" style=""width: 408px; height: 417px; margin-right: 200px;""><img src=""images/choice_trial_3.png"" style=""width: 408px; height: 417px;""></div></div>",f,delaylearn,learning,trial,4ntk1nHrvkQVYRdOJZzJDAFmafa2,4ntk1nHrvkQVYRdOJZzJDAFmafa2,3.0,images/choice_trial_16.png,images/choice_trial_3.png,images/pattern_6.png,j,f,750.0,16.0,3.0,5.0,0.0,35.0,1.0,0.0,16.0,180.0,,,,,,65f07c8102b4c1d4aa644c4a,17:02:50,26/03/2024
html-keyboard-response,195,411481,0.0-81.0-1.0,,"<div style=""display: flex; flex-direction: column; align-items: center; margin-top: -40px;""><img src=""images/pattern_6.png"" style=""width: 234px; height: 230px; margin-top: -50px;""><div style=""display: flex; justify-content: space-between; margin-top: 33px;""><img src=""images/choice_trial_16.png"" style=""width: 408px; height: 417px; margin-right: 608px;""></div></div>",,delaylearn,learning,display_response,4ntk1nHrvkQVYRdOJZzJDAFmafa2,4ntk1nHrvkQVYRdOJZzJDAFmafa2,,,,,,,,,,,,,,,,,chosen stimuli: images/choice_trial_16.png,,,,,65f07c8102b4c1d4aa644c4a,17:02:50,26/03/2024
html-keyboard-response,196,412248,0.0-81.0-2.0,,,,delaylearn,learning,feedback_duration_window,4ntk1nHrvkQVYRdOJZzJDAFmafa2,4ntk1nHrvkQVYRdOJZzJDAFmafa2,,,,,,,,,,,,,,,,,,750.0,,,,65f07c8102b4c1d4aa644c4a,17:02:50,26/03/2024
html-keyboard-response,197,413761,0.0-81.0-3.0,,<div style='margin:auto;width: auto; font-size: 150%'><span style='font-weight: bold; font-size: 100px; color: red;'>0 points!</span><br><br></div>,,delaylearn,learning,feedback_image_window,4ntk1nHrvkQVYRdOJZzJDAFmafa2,4ntk1nHrvkQVYRdOJZzJDAFmafa2,,,,,,,,,,,,,,,,,,,,,,65f07c8102b4c1d4aa644c4a,17:02:50,26/03/2024
html-keyboard-response,198,415579,0.0-82.0,,"<div style=""font-size:100px;"">+</div>",,delaylearn,learning,ITI,4ntk1nHrvkQVYRdOJZzJDAFmafa2,4ntk1nHrvkQVYRdOJZzJDAFmafa2,,,,,,,,,,,,,,,,,,,1802.0,,,65f07c8102b4c1d4aa644c4a,17:02:50,26/03/2024
html-keyboard-response,199,415748,0.0-83.0-0.0,165.1999999997206,"<div style=""display: flex; flex-direction: column; align-items: center; margin-top: -40px;""><img src=""images/pattern_3.png"" style=""width: 234px; height: 230px; margin-top: -50px;""><div style=""display: flex; justify-content: space-between; margin-top: 33px;""><img src=""images/choice_trial_10.png"" style=""width: 408px; height: 417px; margin-right: 200px;""><img src=""images/choice_trial_13.png"" style=""width: 408px; height: 417px;""></div></div>",f,delaylearn,learning,trial,4ntk1nHrvkQVYRdOJZzJDAFmafa2,4ntk1nHrvkQVYRdOJZzJDAFmafa2,3.0,images/choice_trial_10.png,images/choice_trial_13.png,images/pattern_3.png,j,j,7000.0,10.0,13.0,2.0,1.0,36.0,0.0,0.0,10.0,180.0,,,,,,65f07c8102b4c1d4aa644c4a,17:02:50,26/03/2024
html-keyboard-response,200,416761,0.0-83.0-1.0,,"<div style=""display: flex; flex-direction: column; align-items: center; margin-top: -40px;""><img src=""images/pattern_3.png"" style=""width: 234px; height: 230px; margin-top: -50px;""><div style=""display: flex; justify-content: space-between; margin-top: 33px;""><img src=""images/choice_trial_10.png"" style=""width: 408px; height: 417px; margin-right: 608px;""></div></div>",,delaylearn,learning,display_response,4ntk1nHrvkQVYRdOJZzJDAFmafa2,4ntk1nHrvkQVYRdOJZzJDAFmafa2,,,,,,,,,,,,,,,,,chosen stimuli: images/choice_trial_10.png,,,,,65f07c8102b4c1d4aa644c4a,17:02:50,26/03/2024
html-keyboard-response,201,423763,0.0-83.0-2.0,,,,delaylearn,learning,feedback_duration_window,4ntk1nHrvkQVYRdOJZzJDAFmafa2,4ntk1nHrvkQVYRdOJZzJDAFmafa2,,,,,,,,,,,,,,,,,,7000.0,,,,65f07c8102b4c1d4aa644c4a,17:02:50,26/03/2024
html-keyboard-response,202,425278,0.0-83.0-3.0,,<div style='margin:auto;width: auto; font-size: 150%'><span style='font-weight: bold; font-size: 100px; color: red;'>0 points!</span><br><br></div>,,delaylearn,learning,feedback_image_window,4ntk1nHrvkQVYRdOJZzJDAFmafa2,4ntk1nHrvkQVYRdOJZzJDAFmafa2,,,,,,,,,,,,,,,,,,,,,,65f07c8102b4c1d4aa644c4a,17:02:50,26/03/2024
html-keyboard-response,203,427689,0.0-84.0,,"<div style=""font-size:100px;"">+</div>",,delaylearn,learning,ITI,4ntk1nHrvkQVYRdOJZzJDAFmafa2,4ntk1nHrvkQVYRdOJZzJDAFmafa2,,,,,,,,,,,,,,,,,,,2399.0,,,65f07c8102b4c1d4aa644c4a,17:02:50,26/03/2024
html-keyboard-response,204,429168,0.0-85.0-0.0,1474.3999999999069,"<div style=""display: flex; flex-direction: column; align-items: center; margin-top: -40px;""><img src=""images/pattern_4.png"" style=""width: 234px; height: 230px; margin-top: -50px;""><div style=""display: flex; justify-content: space-between; margin-top: 33px;""><img src=""images/choice_trial_9.png"" style=""width: 408px; height: 417px; margin-right: 200px;""><img src=""images/choice_trial_15.png"" style=""width: 408px; height: 417px;""></div></div>",j,delaylearn,learning,trial,4ntk1nHrvkQVYRdOJZzJDAFmafa2,4ntk1nHrvkQVYRdOJZzJDAFmafa2,3.0,images/choice_trial_9.png,images/choice_trial_15.png,images/pattern_4.png,f,j,7000.0,9.0,15.0,3.0,1.0,37.0,1.0,0.0,15.0,180.0,,,,,,65f07c8102b4c1d4aa644c4a,17:02:50,26/03/2024
html-keyboard-response,205,430183,0.0-85.0-1.0,,"<div style=""display: flex; flex-direction: column; align-items: center; margin-top: -40px;""><img src=""images/pattern_4.png"" style=""width: 234px; height: 230px; margin-top: -50px;""><div style=""display: flex; justify-content: space-between; margin-top: 33px;""><img src=""images/choice_trial_15.png"" style=""width: 408px; height: 417px; margin-left:608px;""></div></div>",,delaylearn,learning,display_response,4ntk1nHrvkQVYRdOJZzJDAFmafa2,4ntk1nHrvkQVYRdOJZzJDAFmafa2,,,,,,,,,,,,,,,,,chosen stimuli: images/choice_trial_15.png,,,,,65f07c8102b4c1d4aa644c4a,17:02:50,26/03/2024
html-keyboard-response,206,437196,0.0-85.0-2.0,,,,delaylearn,learning,feedback_duration_window,4ntk1nHrvkQVYRdOJZzJDAFmafa2,4ntk1nHrvkQVYRdOJZzJDAFmafa2,,,,,,,,,,,,,,,,,,7000.0,,,,65f07c8102b4c1d4aa644c4a,17:02:50,26/03/2024
html-keyboard-response,207,438709,0.0-85.0-3.0,,<div style='margin:auto;width: auto; font-size: 150%'><span style='font-weight: bold; font-size: 100px; color: red;'>0 points!</span><br><br></div>,,delaylearn,learning,feedback_image_window,4ntk1nHrvkQVYRdOJZzJDAFmafa2,4ntk1nHrvkQVYRdOJZzJDAFmafa2,,,,,,,,,,,,,,,,,,,,,,65f07c8102b4c1d4aa644c4a,17:02:50,26/03/2024
html-keyboard-response,208,440470,0.0-86.0,,"<div style=""font-size:100px;"">+</div>",,delaylearn,learning,ITI,4ntk1nHrvkQVYRdOJZzJDAFmafa2,4ntk1nHrvkQVYRdOJZzJDAFmafa2,,,,,,,,,,,,,,,,,,,1755.0,,,65f07c8102b4c1d4aa644c4a,17:02:50,26/03/2024
html-keyboard-response,209,442218,0.0-87.0-0.0,1743.8000000002794,"<div style=""display: flex; flex-direction: column; align-items: center; margin-top: -40px;""><img src=""images/pattern_7.png"" style=""width: 234px; height: 230px; margin-top: -50px;""><div style=""display: flex; justify-content: space-between; margin-top: 33px;""><img src=""images/choice_trial_6.png"" style=""width: 408px; height: 417px; margin-right: 200px;""><img src=""images/choice_trial_12.png"" style=""width: 408px; height: 417px;""></div></div>",j,delaylearn,learning,trial,4ntk1nHrvkQVYRdOJZzJDAFmafa2,4ntk1nHrvkQVYRdOJZzJDAFmafa2,3.0,images/choice_trial_6.png,images/choice_trial_12.png,images/pattern_7.png,f,f,750.0,6.0,12.0,6.0,0.0,38.0,0.0,0.0,12.0,180.0,,,,,,65f07c8102b4c1d4aa644c4a,17:02:50,26/03/2024
html-keyboard-response,210,443225,0.0-87.0-1.0,,"<div style=""display: flex; flex-direction: column; align-items: center; margin-top: -40px;""><img src=""images/pattern_7.png"" style=""width: 234px; height: 230px; margin-top: -50px;""><div style=""display: flex; justify-content: space-between; margin-top: 33px;""><img src=""images/choice_trial_12.png"" style=""width: 408px; height: 417px; margin-left:608px;""></div></div>",,delaylearn,learning,display_response,4ntk1nHrvkQVYRdOJZzJDAFmafa2,4ntk1nHrvkQVYRdOJZzJDAFmafa2,,,,,,,,,,,,,,,,,chosen stimuli: images/choice_trial_12.png,,,,,65f07c8102b4c1d4aa644c4a,17:02:50,26/03/2024
html-keyboard-response,211,443980,0.0-87.0-2.0,,,,delaylearn,learning,feedback_duration_window,4ntk1nHrvkQVYRdOJZzJDAFmafa2,4ntk1nHrvkQVYRdOJZzJDAFmafa2,,,,,,,,,,,,,,,,,,750.0,,,,65f07c8102b4c1d4aa644c4a,17:02:50,26/03/2024
html-keyboard-response,212,445484,0.0-87.0-3.0,,<div style='margin:auto;width: auto; font-size: 150%'><span style='font-weight: bold; font-size: 100px; color: red;'>0 points!</span><br><br></div>,,delaylearn,learning,feedback_image_window,4ntk1nHrvkQVYRdOJZzJDAFmafa2,4ntk1nHrvkQVYRdOJZzJDAFmafa2,,,,,,,,,,,,,,,,,,,,,,65f07c8102b4c1d4aa644c4a,17:02:50,26/03/2024
html-keyboard-response,213,447132,0.0-88.0,,"<div style=""font-size:100px;"">+</div>",,delaylearn,learning,ITI,4ntk1nHrvkQVYRdOJZzJDAFmafa2,4ntk1nHrvkQVYRdOJZzJDAFmafa2,,,,,,,,,,,,,,,,,,,1641.0,,,65f07c8102b4c1d4aa644c4a,17:02:50,26/03/2024
html-keyboard-response,214,447673,0.0-89.0-0.0,536.5,"<div style=""display: flex; flex-direction: column; align-items: center; margin-top: -40px;""><img src=""images/pattern_1.png"" style=""width: 234px; height: 230px; margin-top: -50px;""><div style=""display: flex; justify-content: space-between; margin-top: 33px;""><img src=""images/choice_trial_14.png"" style=""width: 408px; height: 417px; margin-right: 200px;""><img src=""images/choice_trial_8.png"" style=""width: 408px; height: 417px;""></div></div>",j,delaylearn,learning,trial,4ntk1nHrvkQVYRdOJZzJDAFmafa2,4ntk1nHrvkQVYRdOJZzJDAFmafa2,3.0,images/choice_trial_14.png,images/choice_trial_8.png,images/pattern_1.png,f,f,7000.0,14.0,8.0,1.0,0.0,39.0,0.0,0.0,8.0,180.0,,,,,,65f07c8102b4c1d4aa644c4a,17:02:50,26/03/2024
html-keyboard-response,215,448683,0.0-89.0-1.0,,"<div style=""display: flex; flex-direction: column; align-items: center; margin-top: -40px;""><img src=""images/pattern_1.png"" style=""width: 234px; height: 230px; margin-top: -50px;""><div style=""display: flex; justify-content: space-between; margin-top: 33px;""><img src=""images/choice_trial_8.png"" style=""width: 408px; height: 417px; margin-left:608px;""></div></div>",,delaylearn,learning,display_response,4ntk1nHrvkQVYRdOJZzJDAFmafa2,4ntk1nHrvkQVYRdOJZzJDAFmafa2,,,,,,,,,,,,,,,,,chosen stimuli: images/choice_trial_8.png,,,,,65f07c8102b4c1d4aa644c4a,17:02:50,26/03/2024
html-keyboard-response,216,455698,0.0-89.0-2.0,,,,delaylearn,learning,feedback_duration_window,4ntk1nHrvkQVYRdOJZzJDAFmafa2,4ntk1nHrvkQVYRdOJZzJDAFmafa2,,,,,,,,,,,,,,,,,,7000.0,,,,65f07c8102b4c1d4aa644c4a,17:02:50,26/03/2024
html-keyboard-response,217,457215,0.0-89.0-3.0,,<div style='margin:auto;width: auto; font-size: 150%'><span style='font-weight: bold; font-size: 100px; color: red;'>0 points!</span><br><br></div>,,delaylearn,learning,feedback_image_window,4ntk1nHrvkQVYRdOJZzJDAFmafa2,4ntk1nHrvkQVYRdOJZzJDAFmafa2,,,,,,,,,,,,,,,,,,,,,,65f07c8102b4c1d4aa644c4a,17:02:50,26/03/2024
html-keyboard-response,218,457722,0.0-90.0-0.0,,,,,,mood_trial_fixation,4ntk1nHrvkQVYRdOJZzJDAFmafa2,,,,,,,,,,,,,,,,,,,,,,,65f07c8102b4c1d4aa644c4a,17:02:50,26/03/2024
lmdlab-html-vas-response,219,463325,0.0-90.0-1.0,4585.0,How happy are you right now?,0.4305720389271303,delaylearn,learning,mood_trial,4ntk1nHrvkQVYRdOJZzJDAFmafa2,4ntk1nHrvkQVYRdOJZzJDAFmafa2,,,,,,,,,,,,,,,,,,,,"['Very unhappy', 'Very happy']",,65f07c8102b4c1d4aa644c4a,17:02:50,26/03/2024
html-keyboard-response,220,465276,0.0-91.0,,"<div style=""font-size:100px;"">+</div>",,delaylearn,learning,ITI,4ntk1nHrvkQVYRdOJZzJDAFmafa2,4ntk1nHrvkQVYRdOJZzJDAFmafa2,,,,,,,,,,,,,,,,,,,1934.0,,,65f07c8102b4c1d4aa644c4a,17:02:50,26/03/2024
html-keyboard-response,221,465945,0.0-92.0-0.0,665.1000000000931,"<div style=""display: flex; flex-direction: column; align-items: center; margin-top: -40px;""><img src=""images/pattern_3.png"" style=""width: 234px; height: 230px; margin-top: -50px;""><div style=""display: flex; justify-content: space-between; margin-top: 33px;""><img src=""images/choice_trial_13.png"" style=""width: 408px; height: 417px; margin-right: 200px;""><img src=""images/choice_trial_10.png"" style=""width: 408px; height: 417px;""></div></div>",j,delaylearn,learning,trial,4ntk1nHrvkQVYRdOJZzJDAFmafa2,4ntk1nHrvkQVYRdOJZzJDAFmafa2,3.0,images/choice_trial_13.png,images/choice_trial_10.png,images/pattern_3.png,j,f,7000.0,13.0,10.0,2.0,0.0,40.0,0.0,1.0,10.0,190.0,,,,,,65f07c8102b4c1d4aa644c4a,17:02:50,26/03/2024
html-keyboard-response,222,466958,0.0-92.0-1.0,,"<div style=""display: flex; flex-direction: column; align-items: center; margin-top: -40px;""><img src=""images/pattern_3.png"" style=""width: 234px; height: 230px; margin-top: -50px;""><div style=""display: flex; justify-content: space-between; margin-top: 33px;""><img src=""images/choice_trial_10.png"" style=""width: 408px; height: 417px; margin-left:608px;""></div></div>",,delaylearn,learning,display_response,4ntk1nHrvkQVYRdOJZzJDAFmafa2,4ntk1nHrvkQVYRdOJZzJDAFmafa2,,,,,,,,,,,,,,,,,chosen stimuli: images/choice_trial_10.png,,,,,65f07c8102b4c1d4aa644c4a,17:02:50,26/03/2024
html-keyboard-response,223,473964,0.0-92.0-2.0,,,,delaylearn,learning,feedback_duration_window,4ntk1nHrvkQVYRdOJZzJDAFmafa2,4ntk1nHrvkQVYRdOJZzJDAFmafa2,,,,,,,,,,,,,,,,,,7000.0,,,,65f07c8102b4c1d4aa644c4a,17:02:50,26/03/2024
html-keyboard-response,224,475476,0.0-92.0-3.0,,<div style='margin:auto;width: auto; font-size: 150%'><span style='font-weight: bold; font-size: 100px; color: green;'>+10 points!</span><br><br></div>,,delaylearn,learning,feedback_image_window,4ntk1nHrvkQVYRdOJZzJDAFmafa2,4ntk1nHrvkQVYRdOJZzJDAFmafa2,,,,,,,,,,,,,,,,,,,,,,65f07c8102b4c1d4aa644c4a,17:02:50,26/03/2024
html-keyboard-response,225,477931,0.0-93.0,,"<div style=""font-size:100px;"">+</div>",,delaylearn,learning,ITI,4ntk1nHrvkQVYRdOJZzJDAFmafa2,4ntk1nHrvkQVYRdOJZzJDAFmafa2,,,,,,,,,,,,,,,,,,,2449.0,,,65f07c8102b4c1d4aa644c4a,17:02:50,26/03/2024
html-keyboard-response,226,478520,0.0-94.0-0.0,584.8999999999069,"<div style=""display: flex; flex-direction: column; align-items: center; margin-top: -40px;""><img src=""images/pattern_7.png"" style=""width: 234px; height: 230px; margin-top: -50px;""><div style=""display: flex; justify-content: space-between; margin-top: 33px;""><img src=""images/choice_trial_12.png"" style=""width: 408px; height: 417px; margin-right: 200px;""><img src=""images/choice_trial_6.png"" style=""width: 408px; height: 417px;""></div></div>",j,delaylearn,learning,trial,4ntk1nHrvkQVYRdOJZzJDAFmafa2,4ntk1nHrvkQVYRdOJZzJDAFmafa2,3.0,images/choice_trial_12.png,images/choice_trial_6.png,images/pattern_7.png,j,j,750.0,12.0,6.0,6.0,1.0,41.0,1.0,1.0,6.0,200.0,,,,,,65f07c8102b4c1d4aa644c4a,17:02:50,26/03/2024
html-keyboard-response,227,479529,0.0-94.0-1.0,,"<div style=""display: flex; flex-direction: column; align-items: center; margin-top: -40px;""><img src=""images/pattern_7.png"" style=""width: 234px; height: 230px; margin-top: -50px;""><div style=""display: flex; justify-content: space-between; margin-top: 33px;""><img src=""images/choice_trial_6.png"" style=""width: 408px; height: 417px; margin-left:608px;""></div></div>",,delaylearn,learning,display_response,4ntk1nHrvkQVYRdOJZzJDAFmafa2,4ntk1nHrvkQVYRdOJZzJDAFmafa2,,,,,,,,,,,,,,,,,chosen stimuli: images/choice_trial_6.png,,,,,65f07c8102b4c1d4aa644c4a,17:02:50,26/03/2024
html-keyboard-response,228,480283,0.0-94.0-2.0,,,,delaylearn,learning,feedback_duration_window,4ntk1nHrvkQVYRdOJZzJDAFmafa2,4ntk1nHrvkQVYRdOJZzJDAFmafa2,,,,,,,,,,,,,,,,,,750.0,,,,65f07c8102b4c1d4aa644c4a,17:02:50,26/03/2024
html-keyboard-response,229,481786,0.0-94.0-3.0,,<div style='margin:auto;width: auto; font-size: 150%'><span style='font-weight: bold; font-size: 100px; color: green;'>+10 points!</span><br><br></div>,,delaylearn,learning,feedback_image_window,4ntk1nHrvkQVYRdOJZzJDAFmafa2,4ntk1nHrvkQVYRdOJZzJDAFmafa2,,,,,,,,,,,,,,,,,,,,,,65f07c8102b4c1d4aa644c4a,17:02:50,26/03/2024
html-keyboard-response,230,483657,0.0-95.0,,"<div style=""font-size:100px;"">+</div>",,delaylearn,learning,ITI,4ntk1nHrvkQVYRdOJZzJDAFmafa2,4ntk1nHrvkQVYRdOJZzJDAFmafa2,,,,,,,,,,,,,,,,,,,1864.0,,,65f07c8102b4c1d4aa644c4a,17:02:50,26/03/2024
