trial_type,trial_index,time_elapsed,internal_node_id,rt,stimulus,response,exp_name,exp_stage,test_part,subjectID,databaseID,counterbal,choice_stimuli_1,choice_stimuli_2,pattern_stimuli,rewarded_answer,correct_answer,feedback_duration_times,stim_left,stim_right,pair,leftright_counter,trial,response_correct,response_rewarded,chosen_stim,counter,displayed_choice,feedback_durations,ITI_duration,labels,rest_warning,prolificID,start_time,date
pavlovia,0,662,0.0-0.0,,,,,,,zL4wwa2elxgKMyyEipQGJCEwUwu1,,,,,,,,,,,,,,,,,,,,,,,5bf3feb0345b9b00016ead01,09:08:31,27/02/2024
html-keyboard-response,1,3672,0.0-1.0,,"<div style=""font-size:100px;"">+</div>",,delaylearn,learning,pre_fixation,zL4wwa2elxgKMyyEipQGJCEwUwu1,,,,,,,,,,,,,,,,,,,,,,,5bf3feb0345b9b00016ead01,09:08:31,27/02/2024
html-keyboard-response,2,5010,0.0-2.0-0.0,1336.2999999998137,"<div style=""display: flex; flex-direction: column; align-items: center; margin-top: -40px;""><img src=""images/demo_images/pattern_1.png"" style=""width: 234px; height: 230px; margin-top: -50px;""><div style=""display: flex; justify-content: space-between; margin-top: 33px;""><img src=""images/demo_images/choice_trial_2.png"" style=""width: 408px; height: 417px; margin-right: 200px;""><img src=""images/demo_images/choice_trial_1.png"" style=""width: 408px; height: 417px;""></div></div>",f,delaylearn,learning,trial,zL4wwa2elxgKMyyEipQGJCEwUwu1,zL4wwa2elxgKMyyEipQGJCEwUwu1,5.0,images/demo_images/choice_trial_2.png,images/demo_images/choice_trial_1.png,images/demo_images/pattern_1.png,j,j,3000.0,2.0,1.0,20.0,1.0,1.0,0.0,0.0,2.0,0.0,,,,,,5bf3feb0345b9b00016ead01,09:08:31,27/02/2024
html-keyboard-response,3,6016,0.0-2.0-1.0,,"<div style=""display: flex; flex-direction: column; align-items: center; margin-top: -40px;""><img src=""images/demo_images/pattern_1.png"" style=""width: 234px; height: 230px; margin-top: -50px;""><div style=""display: flex; justify-content: space-between; margin-top: 33px;""><img src=""images/demo_images/choice_trial_2.png"" style=""width: 408px; height: 417px; margin-right: 608px;""></div></div>",,delaylearn,learning,display_response,zL4wwa2elxgKMyyEipQGJCEwUwu1,zL4wwa2elxgKMyyEipQGJCEwUwu1,,,,,,,,,,,,,,,,,chosen stimuli: images/demo_images/choice_trial_2.png,,,,,5bf3feb0345b9b00016ead01,09:08:31,27/02/2024
html-keyboard-response,4,9021,0.0-2.0-2.0,,,,delaylearn,learning,feedback_duration_window,zL4wwa2elxgKMyyEipQGJCEwUwu1,zL4wwa2elxgKMyyEipQGJCEwUwu1,,,,,,,,,,,,,,,,,,3000.0,,,,5bf3feb0345b9b00016ead01,09:08:31,27/02/2024
html-keyboard-response,5,10532,0.0-2.0-3.0,,<div style='margin:auto;width: auto; font-size: 150%'><span style='font-weight: bold; font-size: 100px; color: red;'>0 points!</span><br><br></div>,,delaylearn,learning,feedback_image_window,zL4wwa2elxgKMyyEipQGJCEwUwu1,zL4wwa2elxgKMyyEipQGJCEwUwu1,,,,,,,,,,,,,,,,,,,,,,5bf3feb0345b9b00016ead01,09:08:31,27/02/2024
html-keyboard-response,6,12181,0.0-3.0,,"<div style=""font-size:100px;"">+</div>",,delaylearn,learning,ITI,zL4wwa2elxgKMyyEipQGJCEwUwu1,zL4wwa2elxgKMyyEipQGJCEwUwu1,,,,,,,,,,,,,,,,,,,1641.0,,,5bf3feb0345b9b00016ead01,09:08:31,27/02/2024
html-keyboard-response,7,13869,0.0-4.0-0.0,1687.0,"<div style=""display: flex; flex-direction: column; align-items: center; margin-top: -40px;""><img src=""images/demo_images/pattern_1.png"" style=""width: 234px; height: 230px; margin-top: -50px;""><div style=""display: flex; justify-content: space-between; margin-top: 33px;""><img src=""images/demo_images/choice_trial_2.png"" style=""width: 408px; height: 417px; margin-right: 200px;""><img src=""images/demo_images/choice_trial_1.png"" style=""width: 408px; height: 417px;""></div></div>",j,delaylearn,learning,trial,zL4wwa2elxgKMyyEipQGJCEwUwu1,zL4wwa2elxgKMyyEipQGJCEwUwu1,5.0,images/demo_images/choice_trial_2.png,images/demo_images/choice_trial_1.png,images/demo_images/pattern_1.png,j,j,3000.0,2.0,1.0,20.0,1.0,2.0,1.0,1.0,1.0,10.0,,,,,,5bf3feb0345b9b00016ead01,09:08:31,27/02/2024
html-keyboard-response,8,14873,0.0-4.0-1.0,,"<div style=""display: flex; flex-direction: column; align-items: center; margin-top: -40px;""><img src=""images/demo_images/pattern_1.png"" style=""width: 234px; height: 230px; margin-top: -50px;""><div style=""display: flex; justify-content: space-between; margin-top: 33px;""><img src=""images/demo_images/choice_trial_1.png"" style=""width: 408px; height: 417px; margin-left:608px;""></div></div>",,delaylearn,learning,display_response,zL4wwa2elxgKMyyEipQGJCEwUwu1,zL4wwa2elxgKMyyEipQGJCEwUwu1,,,,,,,,,,,,,,,,,chosen stimuli: images/demo_images/choice_trial_1.png,,,,,5bf3feb0345b9b00016ead01,09:08:31,27/02/2024
html-keyboard-response,9,17889,0.0-4.0-2.0,,,,delaylearn,learning,feedback_duration_window,zL4wwa2elxgKMyyEipQGJCEwUwu1,zL4wwa2elxgKMyyEipQGJCEwUwu1,,,,,,,,,,,,,,,,,,3000.0,,,,5bf3feb0345b9b00016ead01,09:08:31,27/02/2024
html-keyboard-response,10,19393,0.0-4.0-3.0,,<div style='margin:auto;width: auto; font-size: 150%'><span style='font-weight: bold; font-size: 100px; color: green;'>+10 points!</span><br><br></div>,,delaylearn,learning,feedback_image_window,zL4wwa2elxgKMyyEipQGJCEwUwu1,zL4wwa2elxgKMyyEipQGJCEwUwu1,,,,,,,,,,,,,,,,,,,,,,5bf3feb0345b9b00016ead01,09:08:31,27/02/2024
html-keyboard-response,11,20983,0.0-5.0,,"<div style=""font-size:100px;"">+</div>",,delaylearn,learning,ITI,zL4wwa2elxgKMyyEipQGJCEwUwu1,zL4wwa2elxgKMyyEipQGJCEwUwu1,,,,,,,,,,,,,,,,,,,1580.0,,,5bf3feb0345b9b00016ead01,09:08:31,27/02/2024
html-keyboard-response,12,22839,0.0-6.0-0.0,1855.1999999997206,"<div style=""display: flex; flex-direction: column; align-items: center; margin-top: -40px;""><img src=""images/demo_images/pattern_1.png"" style=""width: 234px; height: 230px; margin-top: -50px;""><div style=""display: flex; justify-content: space-between; margin-top: 33px;""><img src=""images/demo_images/choice_trial_1.png"" style=""width: 408px; height: 417px; margin-right: 200px;""><img src=""images/demo_images/choice_trial_2.png"" style=""width: 408px; height: 417px;""></div></div>",f,delaylearn,learning,trial,zL4wwa2elxgKMyyEipQGJCEwUwu1,zL4wwa2elxgKMyyEipQGJCEwUwu1,5.0,images/demo_images/choice_trial_1.png,images/demo_images/choice_trial_2.png,images/demo_images/pattern_1.png,j,f,3000.0,1.0,2.0,20.0,0.0,3.0,1.0,0.0,1.0,10.0,,,,,,5bf3feb0345b9b00016ead01,09:08:31,27/02/2024
html-keyboard-response,13,23843,0.0-6.0-1.0,,"<div style=""display: flex; flex-direction: column; align-items: center; margin-top: -40px;""><img src=""images/demo_images/pattern_1.png"" style=""width: 234px; height: 230px; margin-top: -50px;""><div style=""display: flex; justify-content: space-between; margin-top: 33px;""><img src=""images/demo_images/choice_trial_1.png"" style=""width: 408px; height: 417px; margin-right: 608px;""></div></div>",,delaylearn,learning,display_response,zL4wwa2elxgKMyyEipQGJCEwUwu1,zL4wwa2elxgKMyyEipQGJCEwUwu1,,,,,,,,,,,,,,,,,chosen stimuli: images/demo_images/choice_trial_1.png,,,,,5bf3feb0345b9b00016ead01,09:08:31,27/02/2024
html-keyboard-response,14,26851,0.0-6.0-2.0,,,,delaylearn,learning,feedback_duration_window,zL4wwa2elxgKMyyEipQGJCEwUwu1,zL4wwa2elxgKMyyEipQGJCEwUwu1,,,,,,,,,,,,,,,,,,3000.0,,,,5bf3feb0345b9b00016ead01,09:08:31,27/02/2024
html-keyboard-response,15,28363,0.0-6.0-3.0,,<div style='margin:auto;width: auto; font-size: 150%'><span style='font-weight: bold; font-size: 100px; color: red;'>0 points!</span><br><br></div>,,delaylearn,learning,feedback_image_window,zL4wwa2elxgKMyyEipQGJCEwUwu1,zL4wwa2elxgKMyyEipQGJCEwUwu1,,,,,,,,,,,,,,,,,,,,,,5bf3feb0345b9b00016ead01,09:08:31,27/02/2024
html-keyboard-response,16,30588,0.0-7.0,,"<div style=""font-size:100px;"">+</div>",,delaylearn,learning,ITI,zL4wwa2elxgKMyyEipQGJCEwUwu1,zL4wwa2elxgKMyyEipQGJCEwUwu1,,,,,,,,,,,,,,,,,,,2222.0,,,5bf3feb0345b9b00016ead01,09:08:31,27/02/2024
html-keyboard-response,17,32713,0.0-8.0-0.0,2123.8000000002794,"<div style=""display: flex; flex-direction: column; align-items: center; margin-top: -40px;""><img src=""images/demo_images/pattern_1.png"" style=""width: 234px; height: 230px; margin-top: -50px;""><div style=""display: flex; justify-content: space-between; margin-top: 33px;""><img src=""images/demo_images/choice_trial_1.png"" style=""width: 408px; height: 417px; margin-right: 200px;""><img src=""images/demo_images/choice_trial_2.png"" style=""width: 408px; height: 417px;""></div></div>",f,delaylearn,learning,trial,zL4wwa2elxgKMyyEipQGJCEwUwu1,zL4wwa2elxgKMyyEipQGJCEwUwu1,5.0,images/demo_images/choice_trial_1.png,images/demo_images/choice_trial_2.png,images/demo_images/pattern_1.png,f,f,3000.0,1.0,2.0,20.0,0.0,4.0,1.0,1.0,1.0,20.0,,,,,,5bf3feb0345b9b00016ead01,09:08:31,27/02/2024
html-keyboard-response,18,33726,0.0-8.0-1.0,,"<div style=""display: flex; flex-direction: column; align-items: center; margin-top: -40px;""><img src=""images/demo_images/pattern_1.png"" style=""width: 234px; height: 230px; margin-top: -50px;""><div style=""display: flex; justify-content: space-between; margin-top: 33px;""><img src=""images/demo_images/choice_trial_1.png"" style=""width: 408px; height: 417px; margin-right: 608px;""></div></div>",,delaylearn,learning,display_response,zL4wwa2elxgKMyyEipQGJCEwUwu1,zL4wwa2elxgKMyyEipQGJCEwUwu1,,,,,,,,,,,,,,,,,chosen stimuli: images/demo_images/choice_trial_1.png,,,,,5bf3feb0345b9b00016ead01,09:08:31,27/02/2024
html-keyboard-response,19,36730,0.0-8.0-2.0,,,,delaylearn,learning,feedback_duration_window,zL4wwa2elxgKMyyEipQGJCEwUwu1,zL4wwa2elxgKMyyEipQGJCEwUwu1,,,,,,,,,,,,,,,,,,3000.0,,,,5bf3feb0345b9b00016ead01,09:08:31,27/02/2024
html-keyboard-response,20,38242,0.0-8.0-3.0,,<div style='margin:auto;width: auto; font-size: 150%'><span style='font-weight: bold; font-size: 100px; color: green;'>+10 points!</span><br><br></div>,,delaylearn,learning,feedback_image_window,zL4wwa2elxgKMyyEipQGJCEwUwu1,zL4wwa2elxgKMyyEipQGJCEwUwu1,,,,,,,,,,,,,,,,,,,,,,5bf3feb0345b9b00016ead01,09:08:31,27/02/2024
html-keyboard-response,21,38752,0.0-9.0-0.0,,,,,,mood_trial_fixation,zL4wwa2elxgKMyyEipQGJCEwUwu1,,,,,,,,,,,,,,,,,,,,,,,5bf3feb0345b9b00016ead01,09:08:31,27/02/2024
lmdlab-html-vas-response,22,42759,0.0-9.0-1.0,2988.0,How happy are you right now?,0.49537037037037035,delaylearn,learning,mood_trial,zL4wwa2elxgKMyyEipQGJCEwUwu1,zL4wwa2elxgKMyyEipQGJCEwUwu1,,,,,,,,,,,,,,,,,,,,"['Very unhappy', 'Very happy']",,5bf3feb0345b9b00016ead01,09:08:31,27/02/2024
html-keyboard-response,23,44678,0.0-10.0,,"<div style=""font-size:100px;"">+</div>",,delaylearn,learning,ITI,zL4wwa2elxgKMyyEipQGJCEwUwu1,zL4wwa2elxgKMyyEipQGJCEwUwu1,,,,,,,,,,,,,,,,,,,1906.0,,,5bf3feb0345b9b00016ead01,09:08:31,27/02/2024
html-keyboard-response,24,46431,0.0-11.0-0.0,1751.8999999999069,"<div style=""display: flex; flex-direction: column; align-items: center; margin-top: -40px;""><img src=""images/demo_images/pattern_1.png"" style=""width: 234px; height: 230px; margin-top: -50px;""><div style=""display: flex; justify-content: space-between; margin-top: 33px;""><img src=""images/demo_images/choice_trial_2.png"" style=""width: 408px; height: 417px; margin-right: 200px;""><img src=""images/demo_images/choice_trial_1.png"" style=""width: 408px; height: 417px;""></div></div>",j,delaylearn,learning,trial,zL4wwa2elxgKMyyEipQGJCEwUwu1,zL4wwa2elxgKMyyEipQGJCEwUwu1,5.0,images/demo_images/choice_trial_2.png,images/demo_images/choice_trial_1.png,images/demo_images/pattern_1.png,j,j,3000.0,2.0,1.0,20.0,1.0,5.0,1.0,1.0,1.0,30.0,,,,,,5bf3feb0345b9b00016ead01,09:08:31,27/02/2024
html-keyboard-response,25,47436,0.0-11.0-1.0,,"<div style=""display: flex; flex-direction: column; align-items: center; margin-top: -40px;""><img src=""images/demo_images/pattern_1.png"" style=""width: 234px; height: 230px; margin-top: -50px;""><div style=""display: flex; justify-content: space-between; margin-top: 33px;""><img src=""images/demo_images/choice_trial_1.png"" style=""width: 408px; height: 417px; margin-left:608px;""></div></div>",,delaylearn,learning,display_response,zL4wwa2elxgKMyyEipQGJCEwUwu1,zL4wwa2elxgKMyyEipQGJCEwUwu1,,,,,,,,,,,,,,,,,chosen stimuli: images/demo_images/choice_trial_1.png,,,,,5bf3feb0345b9b00016ead01,09:08:31,27/02/2024
html-keyboard-response,26,50445,0.0-11.0-2.0,,,,delaylearn,learning,feedback_duration_window,zL4wwa2elxgKMyyEipQGJCEwUwu1,zL4wwa2elxgKMyyEipQGJCEwUwu1,,,,,,,,,,,,,,,,,,3000.0,,,,5bf3feb0345b9b00016ead01,09:08:31,27/02/2024
html-keyboard-response,27,51953,0.0-11.0-3.0,,<div style='margin:auto;width: auto; font-size: 150%'><span style='font-weight: bold; font-size: 100px; color: green;'>+10 points!</span><br><br></div>,,delaylearn,learning,feedback_image_window,zL4wwa2elxgKMyyEipQGJCEwUwu1,zL4wwa2elxgKMyyEipQGJCEwUwu1,,,,,,,,,,,,,,,,,,,,,,5bf3feb0345b9b00016ead01,09:08:31,27/02/2024
html-keyboard-response,28,53589,0.0-12.0,,"<div style=""font-size:100px;"">+</div>",,delaylearn,learning,ITI,zL4wwa2elxgKMyyEipQGJCEwUwu1,zL4wwa2elxgKMyyEipQGJCEwUwu1,,,,,,,,,,,,,,,,,,,1621.0,,,5bf3feb0345b9b00016ead01,09:08:31,27/02/2024
html-keyboard-response,29,56598,0.0-13.0-0.0,,"<div style=""display: flex; flex-direction: column; align-items: center; margin-top: -40px;""><img src=""images/demo_images/pattern_1.png"" style=""width: 234px; height: 230px; margin-top: -50px;""><div style=""display: flex; justify-content: space-between; margin-top: 33px;""><img src=""images/demo_images/choice_trial_1.png"" style=""width: 408px; height: 417px; margin-right: 200px;""><img src=""images/demo_images/choice_trial_2.png"" style=""width: 408px; height: 417px;""></div></div>",,delaylearn,learning,trial,zL4wwa2elxgKMyyEipQGJCEwUwu1,zL4wwa2elxgKMyyEipQGJCEwUwu1,5.0,images/demo_images/choice_trial_1.png,images/demo_images/choice_trial_2.png,images/demo_images/pattern_1.png,f,f,3000.0,1.0,2.0,20.0,0.0,6.0,0.0,0.0,0.0,30.0,,,,,,5bf3feb0345b9b00016ead01,09:08:31,27/02/2024
html-keyboard-response,30,57610,0.0-13.0-1.0,,<div style='font-weight: bold; font-size: 75px; color: red;'>Missed Trial <br><br><br><br> Please respond faster</div>,,delaylearn,learning,display_response,zL4wwa2elxgKMyyEipQGJCEwUwu1,zL4wwa2elxgKMyyEipQGJCEwUwu1,,,,,,,,,,,,,,,,,Missed trial,,,,,5bf3feb0345b9b00016ead01,09:08:31,27/02/2024
html-keyboard-response,31,57616,0.0-13.0-2.0,,,,delaylearn,learning,feedback_duration_window,zL4wwa2elxgKMyyEipQGJCEwUwu1,zL4wwa2elxgKMyyEipQGJCEwUwu1,,,,,,,,,,,,,,,,,,0.0,,,,5bf3feb0345b9b00016ead01,09:08:31,27/02/2024
html-keyboard-response,32,57621,0.0-13.0-3.0,,,,delaylearn,learning,feedback_image_window,zL4wwa2elxgKMyyEipQGJCEwUwu1,zL4wwa2elxgKMyyEipQGJCEwUwu1,,,,,,,,,,,,,,,,,,,,,,5bf3feb0345b9b00016ead01,09:08:31,27/02/2024
html-button-response,33,61061,0.0-14.0,3440.2000000001863,"
  <div style=""display: flex; align-items: center; justify-content: center; height: 80vh;"">
  <div>
          <img src=""images/inst_demo_finish.png"" style=""width: 80vw; height:auto;"">
          <br><br>
      </div>
      <br><br>
  </div>",0,,,,zL4wwa2elxgKMyyEipQGJCEwUwu1,,,,,,,,,,,,,,,,,,,,,,,5bf3feb0345b9b00016ead01,09:08:31,27/02/2024
html-keyboard-response,34,65049,0.0-15.0,3986.6999999997206,"
  <div style=""display: flex; align-items: center; justify-content: center; height: 80vh;"">
  <div>
          <img src=""images/inst_6.png"" style=""width: 80vw; height:auto;"">
          <br><br>
      </div>
      <br><br>
  </div>",f,,,,zL4wwa2elxgKMyyEipQGJCEwUwu1,,,,,,,,,,,,,,,,,,,,,,,5bf3feb0345b9b00016ead01,09:08:31,27/02/2024
html-keyboard-response,35,68055,0.0-16.0,,"<div style=""font-size:100px;"">+</div>",,delaylearn,learning,pre_fixation,zL4wwa2elxgKMyyEipQGJCEwUwu1,,,,,,,,,,,,,,,,,,,,,,,5bf3feb0345b9b00016ead01,09:08:31,27/02/2024
html-keyboard-response,36,70391,0.0-17.0,,"<div style=""font-size:100px;"">+</div>",,delaylearn,learning,ITI,zL4wwa2elxgKMyyEipQGJCEwUwu1,zL4wwa2elxgKMyyEipQGJCEwUwu1,,,,,,,,,,,,,,,,,,,2324.0,,,5bf3feb0345b9b00016ead01,09:08:31,27/02/2024
html-keyboard-response,37,71586,0.0-18.0-0.0,1194.3999999999069,"<div style=""display: flex; flex-direction: column; align-items: center; margin-top: -40px;""><img src=""images/pattern_3.png"" style=""width: 234px; height: 230px; margin-top: -50px;""><div style=""display: flex; justify-content: space-between; margin-top: 33px;""><img src=""images/choice_trial_16.png"" style=""width: 408px; height: 417px; margin-right: 200px;""><img src=""images/choice_trial_2.png"" style=""width: 408px; height: 417px;""></div></div>",f,delaylearn,learning,trial,zL4wwa2elxgKMyyEipQGJCEwUwu1,zL4wwa2elxgKMyyEipQGJCEwUwu1,5.0,images/choice_trial_16.png,images/choice_trial_2.png,images/pattern_3.png,f,f,7000.0,16.0,2.0,2.0,0.0,7.0,1.0,1.0,16.0,40.0,,,,,,5bf3feb0345b9b00016ead01,09:08:31,27/02/2024
html-keyboard-response,38,72599,0.0-18.0-1.0,,"<div style=""display: flex; flex-direction: column; align-items: center; margin-top: -40px;""><img src=""images/pattern_3.png"" style=""width: 234px; height: 230px; margin-top: -50px;""><div style=""display: flex; justify-content: space-between; margin-top: 33px;""><img src=""images/choice_trial_16.png"" style=""width: 408px; height: 417px; margin-right: 608px;""></div></div>",,delaylearn,learning,display_response,zL4wwa2elxgKMyyEipQGJCEwUwu1,zL4wwa2elxgKMyyEipQGJCEwUwu1,,,,,,,,,,,,,,,,,chosen stimuli: images/choice_trial_16.png,,,,,5bf3feb0345b9b00016ead01,09:08:31,27/02/2024
html-keyboard-response,39,79602,0.0-18.0-2.0,,,,delaylearn,learning,feedback_duration_window,zL4wwa2elxgKMyyEipQGJCEwUwu1,zL4wwa2elxgKMyyEipQGJCEwUwu1,,,,,,,,,,,,,,,,,,7000.0,,,,5bf3feb0345b9b00016ead01,09:08:31,27/02/2024
html-keyboard-response,40,81114,0.0-18.0-3.0,,<div style='margin:auto;width: auto; font-size: 150%'><span style='font-weight: bold; font-size: 100px; color: green;'>+10 points!</span><br><br></div>,,delaylearn,learning,feedback_image_window,zL4wwa2elxgKMyyEipQGJCEwUwu1,zL4wwa2elxgKMyyEipQGJCEwUwu1,,,,,,,,,,,,,,,,,,,,,,5bf3feb0345b9b00016ead01,09:08:31,27/02/2024
html-keyboard-response,41,82997,0.0-19.0,,"<div style=""font-size:100px;"">+</div>",,delaylearn,learning,ITI,zL4wwa2elxgKMyyEipQGJCEwUwu1,zL4wwa2elxgKMyyEipQGJCEwUwu1,,,,,,,,,,,,,,,,,,,1882.0,,,5bf3feb0345b9b00016ead01,09:08:31,27/02/2024
html-keyboard-response,42,84799,0.0-20.0-0.0,1800.8999999999069,"<div style=""display: flex; flex-direction: column; align-items: center; margin-top: -40px;""><img src=""images/pattern_7.png"" style=""width: 234px; height: 230px; margin-top: -50px;""><div style=""display: flex; justify-content: space-between; margin-top: 33px;""><img src=""images/choice_trial_10.png"" style=""width: 408px; height: 417px; margin-right: 200px;""><img src=""images/choice_trial_8.png"" style=""width: 408px; height: 417px;""></div></div>",j,delaylearn,learning,trial,zL4wwa2elxgKMyyEipQGJCEwUwu1,zL4wwa2elxgKMyyEipQGJCEwUwu1,5.0,images/choice_trial_10.png,images/choice_trial_8.png,images/pattern_7.png,j,j,750.0,10.0,8.0,6.0,1.0,8.0,1.0,1.0,8.0,50.0,,,,,,5bf3feb0345b9b00016ead01,09:08:31,27/02/2024
html-keyboard-response,43,85802,0.0-20.0-1.0,,"<div style=""display: flex; flex-direction: column; align-items: center; margin-top: -40px;""><img src=""images/pattern_7.png"" style=""width: 234px; height: 230px; margin-top: -50px;""><div style=""display: flex; justify-content: space-between; margin-top: 33px;""><img src=""images/choice_trial_8.png"" style=""width: 408px; height: 417px; margin-left:608px;""></div></div>",,delaylearn,learning,display_response,zL4wwa2elxgKMyyEipQGJCEwUwu1,zL4wwa2elxgKMyyEipQGJCEwUwu1,,,,,,,,,,,,,,,,,chosen stimuli: images/choice_trial_8.png,,,,,5bf3feb0345b9b00016ead01,09:08:31,27/02/2024
html-keyboard-response,44,86563,0.0-20.0-2.0,,,,delaylearn,learning,feedback_duration_window,zL4wwa2elxgKMyyEipQGJCEwUwu1,zL4wwa2elxgKMyyEipQGJCEwUwu1,,,,,,,,,,,,,,,,,,750.0,,,,5bf3feb0345b9b00016ead01,09:08:31,27/02/2024
html-keyboard-response,45,88069,0.0-20.0-3.0,,<div style='margin:auto;width: auto; font-size: 150%'><span style='font-weight: bold; font-size: 100px; color: green;'>+10 points!</span><br><br></div>,,delaylearn,learning,feedback_image_window,zL4wwa2elxgKMyyEipQGJCEwUwu1,zL4wwa2elxgKMyyEipQGJCEwUwu1,,,,,,,,,,,,,,,,,,,,,,5bf3feb0345b9b00016ead01,09:08:31,27/02/2024
html-keyboard-response,46,89611,0.0-21.0,,"<div style=""font-size:100px;"">+</div>",,delaylearn,learning,ITI,zL4wwa2elxgKMyyEipQGJCEwUwu1,zL4wwa2elxgKMyyEipQGJCEwUwu1,,,,,,,,,,,,,,,,,,,1532.0,,,5bf3feb0345b9b00016ead01,09:08:31,27/02/2024
html-keyboard-response,47,92036,0.0-22.0-0.0,2424.399999999907,"<div style=""display: flex; flex-direction: column; align-items: center; margin-top: -40px;""><img src=""images/pattern_4.png"" style=""width: 234px; height: 230px; margin-top: -50px;""><div style=""display: flex; justify-content: space-between; margin-top: 33px;""><img src=""images/choice_trial_11.png"" style=""width: 408px; height: 417px; margin-right: 200px;""><img src=""images/choice_trial_4.png"" style=""width: 408px; height: 417px;""></div></div>",f,delaylearn,learning,trial,zL4wwa2elxgKMyyEipQGJCEwUwu1,zL4wwa2elxgKMyyEipQGJCEwUwu1,5.0,images/choice_trial_11.png,images/choice_trial_4.png,images/pattern_4.png,f,f,7000.0,11.0,4.0,3.0,0.0,9.0,1.0,1.0,11.0,60.0,,,,,,5bf3feb0345b9b00016ead01,09:08:31,27/02/2024
html-keyboard-response,48,93047,0.0-22.0-1.0,,"<div style=""display: flex; flex-direction: column; align-items: center; margin-top: -40px;""><img src=""images/pattern_4.png"" style=""width: 234px; height: 230px; margin-top: -50px;""><div style=""display: flex; justify-content: space-between; margin-top: 33px;""><img src=""images/choice_trial_11.png"" style=""width: 408px; height: 417px; margin-right: 608px;""></div></div>",,delaylearn,learning,display_response,zL4wwa2elxgKMyyEipQGJCEwUwu1,zL4wwa2elxgKMyyEipQGJCEwUwu1,,,,,,,,,,,,,,,,,chosen stimuli: images/choice_trial_11.png,,,,,5bf3feb0345b9b00016ead01,09:08:31,27/02/2024
html-keyboard-response,49,100048,0.0-22.0-2.0,,,,delaylearn,learning,feedback_duration_window,zL4wwa2elxgKMyyEipQGJCEwUwu1,zL4wwa2elxgKMyyEipQGJCEwUwu1,,,,,,,,,,,,,,,,,,7000.0,,,,5bf3feb0345b9b00016ead01,09:08:31,27/02/2024
html-keyboard-response,50,101553,0.0-22.0-3.0,,<div style='margin:auto;width: auto; font-size: 150%'><span style='font-weight: bold; font-size: 100px; color: green;'>+10 points!</span><br><br></div>,,delaylearn,learning,feedback_image_window,zL4wwa2elxgKMyyEipQGJCEwUwu1,zL4wwa2elxgKMyyEipQGJCEwUwu1,,,,,,,,,,,,,,,,,,,,,,5bf3feb0345b9b00016ead01,09:08:31,27/02/2024
html-keyboard-response,51,103721,0.0-23.0,,"<div style=""font-size:100px;"">+</div>",,delaylearn,learning,ITI,zL4wwa2elxgKMyyEipQGJCEwUwu1,zL4wwa2elxgKMyyEipQGJCEwUwu1,,,,,,,,,,,,,,,,,,,2166.0,,,5bf3feb0345b9b00016ead01,09:08:31,27/02/2024
html-keyboard-response,52,105529,0.0-24.0-0.0,1806.8999999999069,"<div style=""display: flex; flex-direction: column; align-items: center; margin-top: -40px;""><img src=""images/pattern_5.png"" style=""width: 234px; height: 230px; margin-top: -50px;""><div style=""display: flex; justify-content: space-between; margin-top: 33px;""><img src=""images/choice_trial_13.png"" style=""width: 408px; height: 417px; margin-right: 200px;""><img src=""images/choice_trial_7.png"" style=""width: 408px; height: 417px;""></div></div>",j,delaylearn,learning,trial,zL4wwa2elxgKMyyEipQGJCEwUwu1,zL4wwa2elxgKMyyEipQGJCEwUwu1,5.0,images/choice_trial_13.png,images/choice_trial_7.png,images/pattern_5.png,j,j,750.0,13.0,7.0,4.0,1.0,10.0,1.0,1.0,7.0,70.0,,,,,,5bf3feb0345b9b00016ead01,09:08:31,27/02/2024
html-keyboard-response,53,106534,0.0-24.0-1.0,,"<div style=""display: flex; flex-direction: column; align-items: center; margin-top: -40px;""><img src=""images/pattern_5.png"" style=""width: 234px; height: 230px; margin-top: -50px;""><div style=""display: flex; justify-content: space-between; margin-top: 33px;""><img src=""images/choice_trial_7.png"" style=""width: 408px; height: 417px; margin-left:608px;""></div></div>",,delaylearn,learning,display_response,zL4wwa2elxgKMyyEipQGJCEwUwu1,zL4wwa2elxgKMyyEipQGJCEwUwu1,,,,,,,,,,,,,,,,,chosen stimuli: images/choice_trial_7.png,,,,,5bf3feb0345b9b00016ead01,09:08:31,27/02/2024
html-keyboard-response,54,107294,0.0-24.0-2.0,,,,delaylearn,learning,feedback_duration_window,zL4wwa2elxgKMyyEipQGJCEwUwu1,zL4wwa2elxgKMyyEipQGJCEwUwu1,,,,,,,,,,,,,,,,,,750.0,,,,5bf3feb0345b9b00016ead01,09:08:31,27/02/2024
html-keyboard-response,55,108803,0.0-24.0-3.0,,<div style='margin:auto;width: auto; font-size: 150%'><span style='font-weight: bold; font-size: 100px; color: green;'>+10 points!</span><br><br></div>,,delaylearn,learning,feedback_image_window,zL4wwa2elxgKMyyEipQGJCEwUwu1,zL4wwa2elxgKMyyEipQGJCEwUwu1,,,,,,,,,,,,,,,,,,,,,,5bf3feb0345b9b00016ead01,09:08:31,27/02/2024
html-keyboard-response,56,111117,0.0-25.0,,"<div style=""font-size:100px;"">+</div>",,delaylearn,learning,ITI,zL4wwa2elxgKMyyEipQGJCEwUwu1,zL4wwa2elxgKMyyEipQGJCEwUwu1,,,,,,,,,,,,,,,,,,,2304.0,,,5bf3feb0345b9b00016ead01,09:08:31,27/02/2024
html-keyboard-response,57,112842,0.0-26.0-0.0,1723.8000000002794,"<div style=""display: flex; flex-direction: column; align-items: center; margin-top: -40px;""><img src=""images/pattern_6.png"" style=""width: 234px; height: 230px; margin-top: -50px;""><div style=""display: flex; justify-content: space-between; margin-top: 33px;""><img src=""images/choice_trial_14.png"" style=""width: 408px; height: 417px; margin-right: 200px;""><img src=""images/choice_trial_9.png"" style=""width: 408px; height: 417px;""></div></div>",j,delaylearn,learning,trial,zL4wwa2elxgKMyyEipQGJCEwUwu1,zL4wwa2elxgKMyyEipQGJCEwUwu1,5.0,images/choice_trial_14.png,images/choice_trial_9.png,images/pattern_6.png,j,f,750.0,14.0,9.0,5.0,0.0,11.0,0.0,1.0,9.0,80.0,,,,,,5bf3feb0345b9b00016ead01,09:08:31,27/02/2024
html-keyboard-response,58,113854,0.0-26.0-1.0,,"<div style=""display: flex; flex-direction: column; align-items: center; margin-top: -40px;""><img src=""images/pattern_6.png"" style=""width: 234px; height: 230px; margin-top: -50px;""><div style=""display: flex; justify-content: space-between; margin-top: 33px;""><img src=""images/choice_trial_9.png"" style=""width: 408px; height: 417px; margin-left:608px;""></div></div>",,delaylearn,learning,display_response,zL4wwa2elxgKMyyEipQGJCEwUwu1,zL4wwa2elxgKMyyEipQGJCEwUwu1,,,,,,,,,,,,,,,,,chosen stimuli: images/choice_trial_9.png,,,,,5bf3feb0345b9b00016ead01,09:08:31,27/02/2024
html-keyboard-response,59,114615,0.0-26.0-2.0,,,,delaylearn,learning,feedback_duration_window,zL4wwa2elxgKMyyEipQGJCEwUwu1,zL4wwa2elxgKMyyEipQGJCEwUwu1,,,,,,,,,,,,,,,,,,750.0,,,,5bf3feb0345b9b00016ead01,09:08:31,27/02/2024
html-keyboard-response,60,116125,0.0-26.0-3.0,,<div style='margin:auto;width: auto; font-size: 150%'><span style='font-weight: bold; font-size: 100px; color: green;'>+10 points!</span><br><br></div>,,delaylearn,learning,feedback_image_window,zL4wwa2elxgKMyyEipQGJCEwUwu1,zL4wwa2elxgKMyyEipQGJCEwUwu1,,,,,,,,,,,,,,,,,,,,,,5bf3feb0345b9b00016ead01,09:08:31,27/02/2024
html-keyboard-response,61,116638,0.0-27.0-0.0,,,,,,mood_trial_fixation,zL4wwa2elxgKMyyEipQGJCEwUwu1,,,,,,,,,,,,,,,,,,,,,,,5bf3feb0345b9b00016ead01,09:08:31,27/02/2024
lmdlab-html-vas-response,62,119708,0.0-27.0-1.0,2058.0,How happy are you right now?,0.48148148148148145,delaylearn,learning,mood_trial,zL4wwa2elxgKMyyEipQGJCEwUwu1,zL4wwa2elxgKMyyEipQGJCEwUwu1,,,,,,,,,,,,,,,,,,,,"['Very unhappy', 'Very happy']",,5bf3feb0345b9b00016ead01,09:08:31,27/02/2024
html-keyboard-response,63,121506,0.0-28.0,,"<div style=""font-size:100px;"">+</div>",,delaylearn,learning,ITI,zL4wwa2elxgKMyyEipQGJCEwUwu1,zL4wwa2elxgKMyyEipQGJCEwUwu1,,,,,,,,,,,,,,,,,,,1795.0,,,5bf3feb0345b9b00016ead01,09:08:31,27/02/2024
html-keyboard-response,64,123099,0.0-29.0-0.0,1592.0,"<div style=""display: flex; flex-direction: column; align-items: center; margin-top: -40px;""><img src=""images/pattern_1.png"" style=""width: 234px; height: 230px; margin-top: -50px;""><div style=""display: flex; justify-content: space-between; margin-top: 33px;""><img src=""images/choice_trial_15.png"" style=""width: 408px; height: 417px; margin-right: 200px;""><img src=""images/choice_trial_6.png"" style=""width: 408px; height: 417px;""></div></div>",f,delaylearn,learning,trial,zL4wwa2elxgKMyyEipQGJCEwUwu1,zL4wwa2elxgKMyyEipQGJCEwUwu1,5.0,images/choice_trial_15.png,images/choice_trial_6.png,images/pattern_1.png,j,j,7000.0,15.0,6.0,1.0,1.0,12.0,0.0,0.0,15.0,80.0,,,,,,5bf3feb0345b9b00016ead01,09:08:31,27/02/2024
html-keyboard-response,65,124111,0.0-29.0-1.0,,"<div style=""display: flex; flex-direction: column; align-items: center; margin-top: -40px;""><img src=""images/pattern_1.png"" style=""width: 234px; height: 230px; margin-top: -50px;""><div style=""display: flex; justify-content: space-between; margin-top: 33px;""><img src=""images/choice_trial_15.png"" style=""width: 408px; height: 417px; margin-right: 608px;""></div></div>",,delaylearn,learning,display_response,zL4wwa2elxgKMyyEipQGJCEwUwu1,zL4wwa2elxgKMyyEipQGJCEwUwu1,,,,,,,,,,,,,,,,,chosen stimuli: images/choice_trial_15.png,,,,,5bf3feb0345b9b00016ead01,09:08:31,27/02/2024
html-keyboard-response,66,131112,0.0-29.0-2.0,,,,delaylearn,learning,feedback_duration_window,zL4wwa2elxgKMyyEipQGJCEwUwu1,zL4wwa2elxgKMyyEipQGJCEwUwu1,,,,,,,,,,,,,,,,,,7000.0,,,,5bf3feb0345b9b00016ead01,09:08:31,27/02/2024
html-keyboard-response,67,132616,0.0-29.0-3.0,,<div style='margin:auto;width: auto; font-size: 150%'><span style='font-weight: bold; font-size: 100px; color: red;'>0 points!</span><br><br></div>,,delaylearn,learning,feedback_image_window,zL4wwa2elxgKMyyEipQGJCEwUwu1,zL4wwa2elxgKMyyEipQGJCEwUwu1,,,,,,,,,,,,,,,,,,,,,,5bf3feb0345b9b00016ead01,09:08:31,27/02/2024
html-keyboard-response,68,134578,0.0-30.0,,"<div style=""font-size:100px;"">+</div>",,delaylearn,learning,ITI,zL4wwa2elxgKMyyEipQGJCEwUwu1,zL4wwa2elxgKMyyEipQGJCEwUwu1,,,,,,,,,,,,,,,,,,,1962.0,,,5bf3feb0345b9b00016ead01,09:08:31,27/02/2024
html-keyboard-response,69,136452,0.0-31.0-0.0,1873.1000000000931,"<div style=""display: flex; flex-direction: column; align-items: center; margin-top: -40px;""><img src=""images/pattern_3.png"" style=""width: 234px; height: 230px; margin-top: -50px;""><div style=""display: flex; justify-content: space-between; margin-top: 33px;""><img src=""images/choice_trial_2.png"" style=""width: 408px; height: 417px; margin-right: 200px;""><img src=""images/choice_trial_16.png"" style=""width: 408px; height: 417px;""></div></div>",f,delaylearn,learning,trial,zL4wwa2elxgKMyyEipQGJCEwUwu1,zL4wwa2elxgKMyyEipQGJCEwUwu1,5.0,images/choice_trial_2.png,images/choice_trial_16.png,images/pattern_3.png,f,j,7000.0,2.0,16.0,2.0,1.0,13.0,0.0,1.0,2.0,90.0,,,,,,5bf3feb0345b9b00016ead01,09:08:31,27/02/2024
html-keyboard-response,70,137460,0.0-31.0-1.0,,"<div style=""display: flex; flex-direction: column; align-items: center; margin-top: -40px;""><img src=""images/pattern_3.png"" style=""width: 234px; height: 230px; margin-top: -50px;""><div style=""display: flex; justify-content: space-between; margin-top: 33px;""><img src=""images/choice_trial_2.png"" style=""width: 408px; height: 417px; margin-right: 608px;""></div></div>",,delaylearn,learning,display_response,zL4wwa2elxgKMyyEipQGJCEwUwu1,zL4wwa2elxgKMyyEipQGJCEwUwu1,,,,,,,,,,,,,,,,,chosen stimuli: images/choice_trial_2.png,,,,,5bf3feb0345b9b00016ead01,09:08:31,27/02/2024
html-keyboard-response,71,144472,0.0-31.0-2.0,,,,delaylearn,learning,feedback_duration_window,zL4wwa2elxgKMyyEipQGJCEwUwu1,zL4wwa2elxgKMyyEipQGJCEwUwu1,,,,,,,,,,,,,,,,,,7000.0,,,,5bf3feb0345b9b00016ead01,09:08:31,27/02/2024
html-keyboard-response,72,145981,0.0-31.0-3.0,,<div style='margin:auto;width: auto; font-size: 150%'><span style='font-weight: bold; font-size: 100px; color: green;'>+10 points!</span><br><br></div>,,delaylearn,learning,feedback_image_window,zL4wwa2elxgKMyyEipQGJCEwUwu1,zL4wwa2elxgKMyyEipQGJCEwUwu1,,,,,,,,,,,,,,,,,,,,,,5bf3feb0345b9b00016ead01,09:08:31,27/02/2024
html-keyboard-response,73,148458,0.0-32.0,,"<div style=""font-size:100px;"">+</div>",,delaylearn,learning,ITI,zL4wwa2elxgKMyyEipQGJCEwUwu1,zL4wwa2elxgKMyyEipQGJCEwUwu1,,,,,,,,,,,,,,,,,,,2466.0,,,5bf3feb0345b9b00016ead01,09:08:31,27/02/2024
html-keyboard-response,74,150136,0.0-33.0-0.0,1676.8999999999069,"<div style=""display: flex; flex-direction: column; align-items: center; margin-top: -40px;""><img src=""images/pattern_5.png"" style=""width: 234px; height: 230px; margin-top: -50px;""><div style=""display: flex; justify-content: space-between; margin-top: 33px;""><img src=""images/choice_trial_7.png"" style=""width: 408px; height: 417px; margin-right: 200px;""><img src=""images/choice_trial_13.png"" style=""width: 408px; height: 417px;""></div></div>",f,delaylearn,learning,trial,zL4wwa2elxgKMyyEipQGJCEwUwu1,zL4wwa2elxgKMyyEipQGJCEwUwu1,5.0,images/choice_trial_7.png,images/choice_trial_13.png,images/pattern_5.png,f,f,750.0,7.0,13.0,4.0,0.0,14.0,1.0,1.0,7.0,100.0,,,,,,5bf3feb0345b9b00016ead01,09:08:31,27/02/2024
html-keyboard-response,75,151138,0.0-33.0-1.0,,"<div style=""display: flex; flex-direction: column; align-items: center; margin-top: -40px;""><img src=""images/pattern_5.png"" style=""width: 234px; height: 230px; margin-top: -50px;""><div style=""display: flex; justify-content: space-between; margin-top: 33px;""><img src=""images/choice_trial_7.png"" style=""width: 408px; height: 417px; margin-right: 608px;""></div></div>",,delaylearn,learning,display_response,zL4wwa2elxgKMyyEipQGJCEwUwu1,zL4wwa2elxgKMyyEipQGJCEwUwu1,,,,,,,,,,,,,,,,,chosen stimuli: images/choice_trial_7.png,,,,,5bf3feb0345b9b00016ead01,09:08:31,27/02/2024
html-keyboard-response,76,151890,0.0-33.0-2.0,,,,delaylearn,learning,feedback_duration_window,zL4wwa2elxgKMyyEipQGJCEwUwu1,zL4wwa2elxgKMyyEipQGJCEwUwu1,,,,,,,,,,,,,,,,,,750.0,,,,5bf3feb0345b9b00016ead01,09:08:31,27/02/2024
html-keyboard-response,77,153400,0.0-33.0-3.0,,<div style='margin:auto;width: auto; font-size: 150%'><span style='font-weight: bold; font-size: 100px; color: green;'>+10 points!</span><br><br></div>,,delaylearn,learning,feedback_image_window,zL4wwa2elxgKMyyEipQGJCEwUwu1,zL4wwa2elxgKMyyEipQGJCEwUwu1,,,,,,,,,,,,,,,,,,,,,,5bf3feb0345b9b00016ead01,09:08:31,27/02/2024
html-keyboard-response,78,153915,0.0-34.0-0.0,,,,,,mood_trial_fixation,zL4wwa2elxgKMyyEipQGJCEwUwu1,,,,,,,,,,,,,,,,,,,,,,,5bf3feb0345b9b00016ead01,09:08:31,27/02/2024
lmdlab-html-vas-response,79,157668,0.0-34.0-1.0,2751.0,How happy are you right now?,0.49537037037037035,delaylearn,learning,mood_trial,zL4wwa2elxgKMyyEipQGJCEwUwu1,zL4wwa2elxgKMyyEipQGJCEwUwu1,,,,,,,,,,,,,,,,,,,,"['Very unhappy', 'Very happy']",,5bf3feb0345b9b00016ead01,09:08:31,27/02/2024
html-keyboard-response,80,159341,0.0-35.0,,"<div style=""font-size:100px;"">+</div>",,delaylearn,learning,ITI,zL4wwa2elxgKMyyEipQGJCEwUwu1,zL4wwa2elxgKMyyEipQGJCEwUwu1,,,,,,,,,,,,,,,,,,,1661.0,,,5bf3feb0345b9b00016ead01,09:08:31,27/02/2024
html-keyboard-response,81,161395,0.0-36.0-0.0,2052.600000000093,"<div style=""display: flex; flex-direction: column; align-items: center; margin-top: -40px;""><img src=""images/pattern_6.png"" style=""width: 234px; height: 230px; margin-top: -50px;""><div style=""display: flex; justify-content: space-between; margin-top: 33px;""><img src=""images/choice_trial_14.png"" style=""width: 408px; height: 417px; margin-right: 200px;""><img src=""images/choice_trial_9.png"" style=""width: 408px; height: 417px;""></div></div>",f,delaylearn,learning,trial,zL4wwa2elxgKMyyEipQGJCEwUwu1,zL4wwa2elxgKMyyEipQGJCEwUwu1,5.0,images/choice_trial_14.png,images/choice_trial_9.png,images/pattern_6.png,f,f,750.0,14.0,9.0,5.0,0.0,15.0,1.0,1.0,14.0,110.0,,,,,,5bf3feb0345b9b00016ead01,09:08:31,27/02/2024
html-keyboard-response,82,162403,0.0-36.0-1.0,,"<div style=""display: flex; flex-direction: column; align-items: center; margin-top: -40px;""><img src=""images/pattern_6.png"" style=""width: 234px; height: 230px; margin-top: -50px;""><div style=""display: flex; justify-content: space-between; margin-top: 33px;""><img src=""images/choice_trial_14.png"" style=""width: 408px; height: 417px; margin-right: 608px;""></div></div>",,delaylearn,learning,display_response,zL4wwa2elxgKMyyEipQGJCEwUwu1,zL4wwa2elxgKMyyEipQGJCEwUwu1,,,,,,,,,,,,,,,,,chosen stimuli: images/choice_trial_14.png,,,,,5bf3feb0345b9b00016ead01,09:08:31,27/02/2024
html-keyboard-response,83,163166,0.0-36.0-2.0,,,,delaylearn,learning,feedback_duration_window,zL4wwa2elxgKMyyEipQGJCEwUwu1,zL4wwa2elxgKMyyEipQGJCEwUwu1,,,,,,,,,,,,,,,,,,750.0,,,,5bf3feb0345b9b00016ead01,09:08:31,27/02/2024
html-keyboard-response,84,164680,0.0-36.0-3.0,,<div style='margin:auto;width: auto; font-size: 150%'><span style='font-weight: bold; font-size: 100px; color: green;'>+10 points!</span><br><br></div>,,delaylearn,learning,feedback_image_window,zL4wwa2elxgKMyyEipQGJCEwUwu1,zL4wwa2elxgKMyyEipQGJCEwUwu1,,,,,,,,,,,,,,,,,,,,,,5bf3feb0345b9b00016ead01,09:08:31,27/02/2024
html-keyboard-response,85,167151,0.0-37.0,,"<div style=""font-size:100px;"">+</div>",,delaylearn,learning,ITI,zL4wwa2elxgKMyyEipQGJCEwUwu1,zL4wwa2elxgKMyyEipQGJCEwUwu1,,,,,,,,,,,,,,,,,,,2463.0,,,5bf3feb0345b9b00016ead01,09:08:31,27/02/2024
html-keyboard-response,86,169084,0.0-38.0-0.0,1931.7999999998137,"<div style=""display: flex; flex-direction: column; align-items: center; margin-top: -40px;""><img src=""images/pattern_4.png"" style=""width: 234px; height: 230px; margin-top: -50px;""><div style=""display: flex; justify-content: space-between; margin-top: 33px;""><img src=""images/choice_trial_4.png"" style=""width: 408px; height: 417px; margin-right: 200px;""><img src=""images/choice_trial_11.png"" style=""width: 408px; height: 417px;""></div></div>",j,delaylearn,learning,trial,zL4wwa2elxgKMyyEipQGJCEwUwu1,zL4wwa2elxgKMyyEipQGJCEwUwu1,5.0,images/choice_trial_4.png,images/choice_trial_11.png,images/pattern_4.png,j,j,7000.0,4.0,11.0,3.0,1.0,16.0,1.0,1.0,11.0,120.0,,,,,,5bf3feb0345b9b00016ead01,09:08:31,27/02/2024
html-keyboard-response,87,170090,0.0-38.0-1.0,,"<div style=""display: flex; flex-direction: column; align-items: center; margin-top: -40px;""><img src=""images/pattern_4.png"" style=""width: 234px; height: 230px; margin-top: -50px;""><div style=""display: flex; justify-content: space-between; margin-top: 33px;""><img src=""images/choice_trial_11.png"" style=""width: 408px; height: 417px; margin-left:608px;""></div></div>",,delaylearn,learning,display_response,zL4wwa2elxgKMyyEipQGJCEwUwu1,zL4wwa2elxgKMyyEipQGJCEwUwu1,,,,,,,,,,,,,,,,,chosen stimuli: images/choice_trial_11.png,,,,,5bf3feb0345b9b00016ead01,09:08:31,27/02/2024
html-keyboard-response,88,177097,0.0-38.0-2.0,,,,delaylearn,learning,feedback_duration_window,zL4wwa2elxgKMyyEipQGJCEwUwu1,zL4wwa2elxgKMyyEipQGJCEwUwu1,,,,,,,,,,,,,,,,,,7000.0,,,,5bf3feb0345b9b00016ead01,09:08:31,27/02/2024
html-keyboard-response,89,178600,0.0-38.0-3.0,,<div style='margin:auto;width: auto; font-size: 150%'><span style='font-weight: bold; font-size: 100px; color: green;'>+10 points!</span><br><br></div>,,delaylearn,learning,feedback_image_window,zL4wwa2elxgKMyyEipQGJCEwUwu1,zL4wwa2elxgKMyyEipQGJCEwUwu1,,,,,,,,,,,,,,,,,,,,,,5bf3feb0345b9b00016ead01,09:08:31,27/02/2024
html-keyboard-response,90,180400,0.0-39.0,,"<div style=""font-size:100px;"">+</div>",,delaylearn,learning,ITI,zL4wwa2elxgKMyyEipQGJCEwUwu1,zL4wwa2elxgKMyyEipQGJCEwUwu1,,,,,,,,,,,,,,,,,,,1796.0,,,5bf3feb0345b9b00016ead01,09:08:31,27/02/2024
html-keyboard-response,91,182617,0.0-40.0-0.0,2215.600000000093,"<div style=""display: flex; flex-direction: column; align-items: center; margin-top: -40px;""><img src=""images/pattern_7.png"" style=""width: 234px; height: 230px; margin-top: -50px;""><div style=""display: flex; justify-content: space-between; margin-top: 33px;""><img src=""images/choice_trial_8.png"" style=""width: 408px; height: 417px; margin-right: 200px;""><img src=""images/choice_trial_10.png"" style=""width: 408px; height: 417px;""></div></div>",f,delaylearn,learning,trial,zL4wwa2elxgKMyyEipQGJCEwUwu1,zL4wwa2elxgKMyyEipQGJCEwUwu1,5.0,images/choice_trial_8.png,images/choice_trial_10.png,images/pattern_7.png,j,f,750.0,8.0,10.0,6.0,0.0,17.0,1.0,0.0,8.0,120.0,,,,,,5bf3feb0345b9b00016ead01,09:08:31,27/02/2024
html-keyboard-response,92,183625,0.0-40.0-1.0,,"<div style=""display: flex; flex-direction: column; align-items: center; margin-top: -40px;""><img src=""images/pattern_7.png"" style=""width: 234px; height: 230px; margin-top: -50px;""><div style=""display: flex; justify-content: space-between; margin-top: 33px;""><img src=""images/choice_trial_8.png"" style=""width: 408px; height: 417px; margin-right: 608px;""></div></div>",,delaylearn,learning,display_response,zL4wwa2elxgKMyyEipQGJCEwUwu1,zL4wwa2elxgKMyyEipQGJCEwUwu1,,,,,,,,,,,,,,,,,chosen stimuli: images/choice_trial_8.png,,,,,5bf3feb0345b9b00016ead01,09:08:31,27/02/2024
html-keyboard-response,93,184386,0.0-40.0-2.0,,,,delaylearn,learning,feedback_duration_window,zL4wwa2elxgKMyyEipQGJCEwUwu1,zL4wwa2elxgKMyyEipQGJCEwUwu1,,,,,,,,,,,,,,,,,,750.0,,,,5bf3feb0345b9b00016ead01,09:08:31,27/02/2024
html-keyboard-response,94,185899,0.0-40.0-3.0,,<div style='margin:auto;width: auto; font-size: 150%'><span style='font-weight: bold; font-size: 100px; color: red;'>0 points!</span><br><br></div>,,delaylearn,learning,feedback_image_window,zL4wwa2elxgKMyyEipQGJCEwUwu1,zL4wwa2elxgKMyyEipQGJCEwUwu1,,,,,,,,,,,,,,,,,,,,,,5bf3feb0345b9b00016ead01,09:08:31,27/02/2024
html-keyboard-response,95,187899,0.0-41.0,,"<div style=""font-size:100px;"">+</div>",,delaylearn,learning,ITI,zL4wwa2elxgKMyyEipQGJCEwUwu1,zL4wwa2elxgKMyyEipQGJCEwUwu1,,,,,,,,,,,,,,,,,,,1995.0,,,5bf3feb0345b9b00016ead01,09:08:31,27/02/2024
html-keyboard-response,96,190155,0.0-42.0-0.0,2254.399999999907,"<div style=""display: flex; flex-direction: column; align-items: center; margin-top: -40px;""><img src=""images/pattern_1.png"" style=""width: 234px; height: 230px; margin-top: -50px;""><div style=""display: flex; justify-content: space-between; margin-top: 33px;""><img src=""images/choice_trial_6.png"" style=""width: 408px; height: 417px; margin-right: 200px;""><img src=""images/choice_trial_15.png"" style=""width: 408px; height: 417px;""></div></div>",j,delaylearn,learning,trial,zL4wwa2elxgKMyyEipQGJCEwUwu1,zL4wwa2elxgKMyyEipQGJCEwUwu1,5.0,images/choice_trial_6.png,images/choice_trial_15.png,images/pattern_1.png,f,f,7000.0,6.0,15.0,1.0,0.0,18.0,0.0,0.0,15.0,120.0,,,,,,5bf3feb0345b9b00016ead01,09:08:31,27/02/2024
html-keyboard-response,97,191160,0.0-42.0-1.0,,"<div style=""display: flex; flex-direction: column; align-items: center; margin-top: -40px;""><img src=""images/pattern_1.png"" style=""width: 234px; height: 230px; margin-top: -50px;""><div style=""display: flex; justify-content: space-between; margin-top: 33px;""><img src=""images/choice_trial_15.png"" style=""width: 408px; height: 417px; margin-left:608px;""></div></div>",,delaylearn,learning,display_response,zL4wwa2elxgKMyyEipQGJCEwUwu1,zL4wwa2elxgKMyyEipQGJCEwUwu1,,,,,,,,,,,,,,,,,chosen stimuli: images/choice_trial_15.png,,,,,5bf3feb0345b9b00016ead01,09:08:31,27/02/2024
html-keyboard-response,98,198165,0.0-42.0-2.0,,,,delaylearn,learning,feedback_duration_window,zL4wwa2elxgKMyyEipQGJCEwUwu1,zL4wwa2elxgKMyyEipQGJCEwUwu1,,,,,,,,,,,,,,,,,,7000.0,,,,5bf3feb0345b9b00016ead01,09:08:31,27/02/2024
html-keyboard-response,99,199671,0.0-42.0-3.0,,<div style='margin:auto;width: auto; font-size: 150%'><span style='font-weight: bold; font-size: 100px; color: red;'>0 points!</span><br><br></div>,,delaylearn,learning,feedback_image_window,zL4wwa2elxgKMyyEipQGJCEwUwu1,zL4wwa2elxgKMyyEipQGJCEwUwu1,,,,,,,,,,,,,,,,,,,,,,5bf3feb0345b9b00016ead01,09:08:31,27/02/2024
html-keyboard-response,100,201906,0.0-43.0,,"<div style=""font-size:100px;"">+</div>",,delaylearn,learning,ITI,zL4wwa2elxgKMyyEipQGJCEwUwu1,zL4wwa2elxgKMyyEipQGJCEwUwu1,,,,,,,,,,,,,,,,,,,2228.0,,,5bf3feb0345b9b00016ead01,09:08:31,27/02/2024
html-keyboard-response,101,203513,0.0-44.0-0.0,1605.7999999998137,"<div style=""display: flex; flex-direction: column; align-items: center; margin-top: -40px;""><img src=""images/pattern_6.png"" style=""width: 234px; height: 230px; margin-top: -50px;""><div style=""display: flex; justify-content: space-between; margin-top: 33px;""><img src=""images/choice_trial_9.png"" style=""width: 408px; height: 417px; margin-right: 200px;""><img src=""images/choice_trial_14.png"" style=""width: 408px; height: 417px;""></div></div>",f,delaylearn,learning,trial,zL4wwa2elxgKMyyEipQGJCEwUwu1,zL4wwa2elxgKMyyEipQGJCEwUwu1,5.0,images/choice_trial_9.png,images/choice_trial_14.png,images/pattern_6.png,j,j,750.0,9.0,14.0,5.0,1.0,19.0,0.0,0.0,9.0,120.0,,,,,,5bf3feb0345b9b00016ead01,09:08:31,27/02/2024
html-keyboard-response,102,204519,0.0-44.0-1.0,,"<div style=""display: flex; flex-direction: column; align-items: center; margin-top: -40px;""><img src=""images/pattern_6.png"" style=""width: 234px; height: 230px; margin-top: -50px;""><div style=""display: flex; justify-content: space-between; margin-top: 33px;""><img src=""images/choice_trial_9.png"" style=""width: 408px; height: 417px; margin-right: 608px;""></div></div>",,delaylearn,learning,display_response,zL4wwa2elxgKMyyEipQGJCEwUwu1,zL4wwa2elxgKMyyEipQGJCEwUwu1,,,,,,,,,,,,,,,,,chosen stimuli: images/choice_trial_9.png,,,,,5bf3feb0345b9b00016ead01,09:08:31,27/02/2024
html-keyboard-response,103,205280,0.0-44.0-2.0,,,,delaylearn,learning,feedback_duration_window,zL4wwa2elxgKMyyEipQGJCEwUwu1,zL4wwa2elxgKMyyEipQGJCEwUwu1,,,,,,,,,,,,,,,,,,750.0,,,,5bf3feb0345b9b00016ead01,09:08:31,27/02/2024
html-keyboard-response,104,206785,0.0-44.0-3.0,,<div style='margin:auto;width: auto; font-size: 150%'><span style='font-weight: bold; font-size: 100px; color: red;'>0 points!</span><br><br></div>,,delaylearn,learning,feedback_image_window,zL4wwa2elxgKMyyEipQGJCEwUwu1,zL4wwa2elxgKMyyEipQGJCEwUwu1,,,,,,,,,,,,,,,,,,,,,,5bf3feb0345b9b00016ead01,09:08:31,27/02/2024
html-keyboard-response,105,209142,0.0-45.0,,"<div style=""font-size:100px;"">+</div>",,delaylearn,learning,ITI,zL4wwa2elxgKMyyEipQGJCEwUwu1,zL4wwa2elxgKMyyEipQGJCEwUwu1,,,,,,,,,,,,,,,,,,,2342.0,,,5bf3feb0345b9b00016ead01,09:08:31,27/02/2024
html-keyboard-response,106,211213,0.0-46.0-0.0,2070.0999999996275,"<div style=""display: flex; flex-direction: column; align-items: center; margin-top: -40px;""><img src=""images/pattern_4.png"" style=""width: 234px; height: 230px; margin-top: -50px;""><div style=""display: flex; justify-content: space-between; margin-top: 33px;""><img src=""images/choice_trial_11.png"" style=""width: 408px; height: 417px; margin-right: 200px;""><img src=""images/choice_trial_4.png"" style=""width: 408px; height: 417px;""></div></div>",f,delaylearn,learning,trial,zL4wwa2elxgKMyyEipQGJCEwUwu1,zL4wwa2elxgKMyyEipQGJCEwUwu1,5.0,images/choice_trial_11.png,images/choice_trial_4.png,images/pattern_4.png,f,f,7000.0,11.0,4.0,3.0,0.0,20.0,1.0,1.0,11.0,130.0,,,,,,5bf3feb0345b9b00016ead01,09:08:31,27/02/2024
html-keyboard-response,107,212226,0.0-46.0-1.0,,"<div style=""display: flex; flex-direction: column; align-items: center; margin-top: -40px;""><img src=""images/pattern_4.png"" style=""width: 234px; height: 230px; margin-top: -50px;""><div style=""display: flex; justify-content: space-between; margin-top: 33px;""><img src=""images/choice_trial_11.png"" style=""width: 408px; height: 417px; margin-right: 608px;""></div></div>",,delaylearn,learning,display_response,zL4wwa2elxgKMyyEipQGJCEwUwu1,zL4wwa2elxgKMyyEipQGJCEwUwu1,,,,,,,,,,,,,,,,,chosen stimuli: images/choice_trial_11.png,,,,,5bf3feb0345b9b00016ead01,09:08:31,27/02/2024
html-keyboard-response,108,219237,0.0-46.0-2.0,,,,delaylearn,learning,feedback_duration_window,zL4wwa2elxgKMyyEipQGJCEwUwu1,zL4wwa2elxgKMyyEipQGJCEwUwu1,,,,,,,,,,,,,,,,,,7000.0,,,,5bf3feb0345b9b00016ead01,09:08:31,27/02/2024
html-keyboard-response,109,220745,0.0-46.0-3.0,,<div style='margin:auto;width: auto; font-size: 150%'><span style='font-weight: bold; font-size: 100px; color: green;'>+10 points!</span><br><br></div>,,delaylearn,learning,feedback_image_window,zL4wwa2elxgKMyyEipQGJCEwUwu1,zL4wwa2elxgKMyyEipQGJCEwUwu1,,,,,,,,,,,,,,,,,,,,,,5bf3feb0345b9b00016ead01,09:08:31,27/02/2024
html-keyboard-response,110,221260,0.0-47.0-0.0,,,,,,mood_trial_fixation,zL4wwa2elxgKMyyEipQGJCEwUwu1,,,,,,,,,,,,,,,,,,,,,,,5bf3feb0345b9b00016ead01,09:08:31,27/02/2024
lmdlab-html-vas-response,111,225234,0.0-47.0-1.0,2963.0,How happy are you right now?,0.4826388888888889,delaylearn,learning,mood_trial,zL4wwa2elxgKMyyEipQGJCEwUwu1,zL4wwa2elxgKMyyEipQGJCEwUwu1,,,,,,,,,,,,,,,,,,,,"['Very unhappy', 'Very happy']",,5bf3feb0345b9b00016ead01,09:08:31,27/02/2024
html-keyboard-response,112,226918,0.0-48.0,,"<div style=""font-size:100px;"">+</div>",,delaylearn,learning,ITI,zL4wwa2elxgKMyyEipQGJCEwUwu1,zL4wwa2elxgKMyyEipQGJCEwUwu1,,,,,,,,,,,,,,,,,,,1677.0,,,5bf3feb0345b9b00016ead01,09:08:31,27/02/2024
html-keyboard-response,113,228332,0.0-49.0-0.0,1412.5,"<div style=""display: flex; flex-direction: column; align-items: center; margin-top: -40px;""><img src=""images/pattern_7.png"" style=""width: 234px; height: 230px; margin-top: -50px;""><div style=""display: flex; justify-content: space-between; margin-top: 33px;""><img src=""images/choice_trial_10.png"" style=""width: 408px; height: 417px; margin-right: 200px;""><img src=""images/choice_trial_8.png"" style=""width: 408px; height: 417px;""></div></div>",f,delaylearn,learning,trial,zL4wwa2elxgKMyyEipQGJCEwUwu1,zL4wwa2elxgKMyyEipQGJCEwUwu1,5.0,images/choice_trial_10.png,images/choice_trial_8.png,images/pattern_7.png,j,j,750.0,10.0,8.0,6.0,1.0,21.0,0.0,0.0,10.0,130.0,,,,,,5bf3feb0345b9b00016ead01,09:08:31,27/02/2024
html-keyboard-response,114,229347,0.0-49.0-1.0,,"<div style=""display: flex; flex-direction: column; align-items: center; margin-top: -40px;""><img src=""images/pattern_7.png"" style=""width: 234px; height: 230px; margin-top: -50px;""><div style=""display: flex; justify-content: space-between; margin-top: 33px;""><img src=""images/choice_trial_10.png"" style=""width: 408px; height: 417px; margin-right: 608px;""></div></div>",,delaylearn,learning,display_response,zL4wwa2elxgKMyyEipQGJCEwUwu1,zL4wwa2elxgKMyyEipQGJCEwUwu1,,,,,,,,,,,,,,,,,chosen stimuli: images/choice_trial_10.png,,,,,5bf3feb0345b9b00016ead01,09:08:31,27/02/2024
html-keyboard-response,115,230099,0.0-49.0-2.0,,,,delaylearn,learning,feedback_duration_window,zL4wwa2elxgKMyyEipQGJCEwUwu1,zL4wwa2elxgKMyyEipQGJCEwUwu1,,,,,,,,,,,,,,,,,,750.0,,,,5bf3feb0345b9b00016ead01,09:08:31,27/02/2024
html-keyboard-response,116,231615,0.0-49.0-3.0,,<div style='margin:auto;width: auto; font-size: 150%'><span style='font-weight: bold; font-size: 100px; color: red;'>0 points!</span><br><br></div>,,delaylearn,learning,feedback_image_window,zL4wwa2elxgKMyyEipQGJCEwUwu1,zL4wwa2elxgKMyyEipQGJCEwUwu1,,,,,,,,,,,,,,,,,,,,,,5bf3feb0345b9b00016ead01,09:08:31,27/02/2024
html-keyboard-response,117,233375,0.0-50.0,,"<div style=""font-size:100px;"">+</div>",,delaylearn,learning,ITI,zL4wwa2elxgKMyyEipQGJCEwUwu1,zL4wwa2elxgKMyyEipQGJCEwUwu1,,,,,,,,,,,,,,,,,,,1755.0,,,5bf3feb0345b9b00016ead01,09:08:31,27/02/2024
html-keyboard-response,118,235061,0.0-51.0-0.0,1684.5,"<div style=""display: flex; flex-direction: column; align-items: center; margin-top: -40px;""><img src=""images/pattern_1.png"" style=""width: 234px; height: 230px; margin-top: -50px;""><div style=""display: flex; justify-content: space-between; margin-top: 33px;""><img src=""images/choice_trial_15.png"" style=""width: 408px; height: 417px; margin-right: 200px;""><img src=""images/choice_trial_6.png"" style=""width: 408px; height: 417px;""></div></div>",j,delaylearn,learning,trial,zL4wwa2elxgKMyyEipQGJCEwUwu1,zL4wwa2elxgKMyyEipQGJCEwUwu1,5.0,images/choice_trial_15.png,images/choice_trial_6.png,images/pattern_1.png,f,j,7000.0,15.0,6.0,1.0,1.0,22.0,1.0,0.0,6.0,130.0,,,,,,5bf3feb0345b9b00016ead01,09:08:31,27/02/2024
html-keyboard-response,119,236071,0.0-51.0-1.0,,"<div style=""display: flex; flex-direction: column; align-items: center; margin-top: -40px;""><img src=""images/pattern_1.png"" style=""width: 234px; height: 230px; margin-top: -50px;""><div style=""display: flex; justify-content: space-between; margin-top: 33px;""><img src=""images/choice_trial_6.png"" style=""width: 408px; height: 417px; margin-left:608px;""></div></div>",,delaylearn,learning,display_response,zL4wwa2elxgKMyyEipQGJCEwUwu1,zL4wwa2elxgKMyyEipQGJCEwUwu1,,,,,,,,,,,,,,,,,chosen stimuli: images/choice_trial_6.png,,,,,5bf3feb0345b9b00016ead01,09:08:31,27/02/2024
html-keyboard-response,120,243073,0.0-51.0-2.0,,,,delaylearn,learning,feedback_duration_window,zL4wwa2elxgKMyyEipQGJCEwUwu1,zL4wwa2elxgKMyyEipQGJCEwUwu1,,,,,,,,,,,,,,,,,,7000.0,,,,5bf3feb0345b9b00016ead01,09:08:31,27/02/2024
html-keyboard-response,121,244585,0.0-51.0-3.0,,<div style='margin:auto;width: auto; font-size: 150%'><span style='font-weight: bold; font-size: 100px; color: red;'>0 points!</span><br><br></div>,,delaylearn,learning,feedback_image_window,zL4wwa2elxgKMyyEipQGJCEwUwu1,zL4wwa2elxgKMyyEipQGJCEwUwu1,,,,,,,,,,,,,,,,,,,,,,5bf3feb0345b9b00016ead01,09:08:31,27/02/2024
html-keyboard-response,122,246735,0.0-52.0,,"<div style=""font-size:100px;"">+</div>",,delaylearn,learning,ITI,zL4wwa2elxgKMyyEipQGJCEwUwu1,zL4wwa2elxgKMyyEipQGJCEwUwu1,,,,,,,,,,,,,,,,,,,2142.0,,,5bf3feb0345b9b00016ead01,09:08:31,27/02/2024
html-keyboard-response,123,248034,0.0-53.0-0.0,1298.2000000001863,"<div style=""display: flex; flex-direction: column; align-items: center; margin-top: -40px;""><img src=""images/pattern_5.png"" style=""width: 234px; height: 230px; margin-top: -50px;""><div style=""display: flex; justify-content: space-between; margin-top: 33px;""><img src=""images/choice_trial_13.png"" style=""width: 408px; height: 417px; margin-right: 200px;""><img src=""images/choice_trial_7.png"" style=""width: 408px; height: 417px;""></div></div>",j,delaylearn,learning,trial,zL4wwa2elxgKMyyEipQGJCEwUwu1,zL4wwa2elxgKMyyEipQGJCEwUwu1,5.0,images/choice_trial_13.png,images/choice_trial_7.png,images/pattern_5.png,j,j,750.0,13.0,7.0,4.0,1.0,23.0,1.0,1.0,7.0,140.0,,,,,,5bf3feb0345b9b00016ead01,09:08:31,27/02/2024
html-keyboard-response,124,249042,0.0-53.0-1.0,,"<div style=""display: flex; flex-direction: column; align-items: center; margin-top: -40px;""><img src=""images/pattern_5.png"" style=""width: 234px; height: 230px; margin-top: -50px;""><div style=""display: flex; justify-content: space-between; margin-top: 33px;""><img src=""images/choice_trial_7.png"" style=""width: 408px; height: 417px; margin-left:608px;""></div></div>",,delaylearn,learning,display_response,zL4wwa2elxgKMyyEipQGJCEwUwu1,zL4wwa2elxgKMyyEipQGJCEwUwu1,,,,,,,,,,,,,,,,,chosen stimuli: images/choice_trial_7.png,,,,,5bf3feb0345b9b00016ead01,09:08:31,27/02/2024
html-keyboard-response,125,249802,0.0-53.0-2.0,,,,delaylearn,learning,feedback_duration_window,zL4wwa2elxgKMyyEipQGJCEwUwu1,zL4wwa2elxgKMyyEipQGJCEwUwu1,,,,,,,,,,,,,,,,,,750.0,,,,5bf3feb0345b9b00016ead01,09:08:31,27/02/2024
html-keyboard-response,126,251312,0.0-53.0-3.0,,<div style='margin:auto;width: auto; font-size: 150%'><span style='font-weight: bold; font-size: 100px; color: green;'>+10 points!</span><br><br></div>,,delaylearn,learning,feedback_image_window,zL4wwa2elxgKMyyEipQGJCEwUwu1,zL4wwa2elxgKMyyEipQGJCEwUwu1,,,,,,,,,,,,,,,,,,,,,,5bf3feb0345b9b00016ead01,09:08:31,27/02/2024
html-keyboard-response,127,252980,0.0-54.0,,"<div style=""font-size:100px;"">+</div>",,delaylearn,learning,ITI,zL4wwa2elxgKMyyEipQGJCEwUwu1,zL4wwa2elxgKMyyEipQGJCEwUwu1,,,,,,,,,,,,,,,,,,,1659.0,,,5bf3feb0345b9b00016ead01,09:08:31,27/02/2024
html-keyboard-response,128,255386,0.0-55.0-0.0,2405.5,"<div style=""display: flex; flex-direction: column; align-items: center; margin-top: -40px;""><img src=""images/pattern_3.png"" style=""width: 234px; height: 230px; margin-top: -50px;""><div style=""display: flex; justify-content: space-between; margin-top: 33px;""><img src=""images/choice_trial_2.png"" style=""width: 408px; height: 417px; margin-right: 200px;""><img src=""images/choice_trial_16.png"" style=""width: 408px; height: 417px;""></div></div>",f,delaylearn,learning,trial,zL4wwa2elxgKMyyEipQGJCEwUwu1,zL4wwa2elxgKMyyEipQGJCEwUwu1,5.0,images/choice_trial_2.png,images/choice_trial_16.png,images/pattern_3.png,j,j,7000.0,2.0,16.0,2.0,1.0,24.0,0.0,0.0,2.0,140.0,,,,,,5bf3feb0345b9b00016ead01,09:08:31,27/02/2024
html-keyboard-response,129,256391,0.0-55.0-1.0,,"<div style=""display: flex; flex-direction: column; align-items: center; margin-top: -40px;""><img src=""images/pattern_3.png"" style=""width: 234px; height: 230px; margin-top: -50px;""><div style=""display: flex; justify-content: space-between; margin-top: 33px;""><img src=""images/choice_trial_2.png"" style=""width: 408px; height: 417px; margin-right: 608px;""></div></div>",,delaylearn,learning,display_response,zL4wwa2elxgKMyyEipQGJCEwUwu1,zL4wwa2elxgKMyyEipQGJCEwUwu1,,,,,,,,,,,,,,,,,chosen stimuli: images/choice_trial_2.png,,,,,5bf3feb0345b9b00016ead01,09:08:31,27/02/2024
html-keyboard-response,130,263401,0.0-55.0-2.0,,,,delaylearn,learning,feedback_duration_window,zL4wwa2elxgKMyyEipQGJCEwUwu1,zL4wwa2elxgKMyyEipQGJCEwUwu1,,,,,,,,,,,,,,,,,,7000.0,,,,5bf3feb0345b9b00016ead01,09:08:31,27/02/2024
html-keyboard-response,131,264915,0.0-55.0-3.0,,<div style='margin:auto;width: auto; font-size: 150%'><span style='font-weight: bold; font-size: 100px; color: red;'>0 points!</span><br><br></div>,,delaylearn,learning,feedback_image_window,zL4wwa2elxgKMyyEipQGJCEwUwu1,zL4wwa2elxgKMyyEipQGJCEwUwu1,,,,,,,,,,,,,,,,,,,,,,5bf3feb0345b9b00016ead01,09:08:31,27/02/2024
lmdlab-html-vas-response,132,271207,0.0-56.0-0.0,4779.0,*How <b><u>confident</u></b> are you feeling about your answers at this moment?*,0.0023148148148148147,rewlearn,rate_confidence,,zL4wwa2elxgKMyyEipQGJCEwUwu1,zL4wwa2elxgKMyyEipQGJCEwUwu1,,,,,,,,,,,,,,,,,,,,"['No confidence', 'Complete confidence']",,5bf3feb0345b9b00016ead01,09:08:31,27/02/2024
lmdlab-rest-trial-limit,133,279227,0.0-56.0-1.0,6517.5,"<div style=""font-size:40px;""><b>Please take a break!</b><br><br><br><br><p>Great work: you earned undefined points.<br><br><br><p>You have completed part(s) 1 of 6.<br><br><br><br>When you are ready to continue<br><br><br>please click the button.</p><br><br>",0,delaylearn,learning,break,zL4wwa2elxgKMyyEipQGJCEwUwu1,zL4wwa2elxgKMyyEipQGJCEwUwu1,,,,,,,,,,,,,,,,,,,,,0.0,5bf3feb0345b9b00016ead01,09:08:31,27/02/2024
html-keyboard-response,134,282230,0.0-56.0-2.0,,"<div style=""font-size:100px;"">+</div>",,delaylearn,learning,pre_fixation,zL4wwa2elxgKMyyEipQGJCEwUwu1,,,,,,,,,,,,,,,,,,,,,,,5bf3feb0345b9b00016ead01,09:08:31,27/02/2024
lmdlab-html-vas-response,135,285389,0.0-56.0-3.0-0.0,2145.0,How happy are you right now?,0.5034722222222222,delaylearn,learning,mood_baseline,zL4wwa2elxgKMyyEipQGJCEwUwu1,zL4wwa2elxgKMyyEipQGJCEwUwu1,,,,,,,,,,,,,,,,,,,,"['Very unhappy', 'Very happy']",,5bf3feb0345b9b00016ead01,09:08:31,27/02/2024
html-keyboard-response,136,286900,0.0-56.0-3.0-1.0,,,,,,mood_baseline_fixation,zL4wwa2elxgKMyyEipQGJCEwUwu1,,,,,,,,,,,,,,,,,,,,,,,5bf3feb0345b9b00016ead01,09:08:31,27/02/2024
html-keyboard-response,137,288860,0.0-57.0,,"<div style=""font-size:100px;"">+</div>",,delaylearn,learning,ITI,zL4wwa2elxgKMyyEipQGJCEwUwu1,zL4wwa2elxgKMyyEipQGJCEwUwu1,,,,,,,,,,,,,,,,,,,1958.0,,,5bf3feb0345b9b00016ead01,09:08:31,27/02/2024
html-keyboard-response,138,290761,0.0-58.0-0.0,1900.1000000000931,"<div style=""display: flex; flex-direction: column; align-items: center; margin-top: -40px;""><img src=""images/pattern_7.png"" style=""width: 234px; height: 230px; margin-top: -50px;""><div style=""display: flex; justify-content: space-between; margin-top: 33px;""><img src=""images/choice_trial_10.png"" style=""width: 408px; height: 417px; margin-right: 200px;""><img src=""images/choice_trial_8.png"" style=""width: 408px; height: 417px;""></div></div>",f,delaylearn,learning,trial,zL4wwa2elxgKMyyEipQGJCEwUwu1,zL4wwa2elxgKMyyEipQGJCEwUwu1,5.0,images/choice_trial_10.png,images/choice_trial_8.png,images/pattern_7.png,j,j,750.0,10.0,8.0,6.0,1.0,25.0,0.0,0.0,10.0,140.0,,,,,,5bf3feb0345b9b00016ead01,09:08:31,27/02/2024
html-keyboard-response,139,291767,0.0-58.0-1.0,,"<div style=""display: flex; flex-direction: column; align-items: center; margin-top: -40px;""><img src=""images/pattern_7.png"" style=""width: 234px; height: 230px; margin-top: -50px;""><div style=""display: flex; justify-content: space-between; margin-top: 33px;""><img src=""images/choice_trial_10.png"" style=""width: 408px; height: 417px; margin-right: 608px;""></div></div>",,delaylearn,learning,display_response,zL4wwa2elxgKMyyEipQGJCEwUwu1,zL4wwa2elxgKMyyEipQGJCEwUwu1,,,,,,,,,,,,,,,,,chosen stimuli: images/choice_trial_10.png,,,,,5bf3feb0345b9b00016ead01,09:08:31,27/02/2024
html-keyboard-response,140,292529,0.0-58.0-2.0,,,,delaylearn,learning,feedback_duration_window,zL4wwa2elxgKMyyEipQGJCEwUwu1,zL4wwa2elxgKMyyEipQGJCEwUwu1,,,,,,,,,,,,,,,,,,750.0,,,,5bf3feb0345b9b00016ead01,09:08:31,27/02/2024
html-keyboard-response,141,294038,0.0-58.0-3.0,,<div style='margin:auto;width: auto; font-size: 150%'><span style='font-weight: bold; font-size: 100px; color: red;'>0 points!</span><br><br></div>,,delaylearn,learning,feedback_image_window,zL4wwa2elxgKMyyEipQGJCEwUwu1,zL4wwa2elxgKMyyEipQGJCEwUwu1,,,,,,,,,,,,,,,,,,,,,,5bf3feb0345b9b00016ead01,09:08:31,27/02/2024
html-keyboard-response,142,294539,0.0-59.0-0.0,,,,,,mood_trial_fixation,zL4wwa2elxgKMyyEipQGJCEwUwu1,,,,,,,,,,,,,,,,,,,,,,,5bf3feb0345b9b00016ead01,09:08:31,27/02/2024
lmdlab-html-vas-response,143,297748,0.0-59.0-1.0,2194.0,How happy are you right now?,0.5138888888888888,delaylearn,learning,mood_trial,zL4wwa2elxgKMyyEipQGJCEwUwu1,zL4wwa2elxgKMyyEipQGJCEwUwu1,,,,,,,,,,,,,,,,,,,,"['Very unhappy', 'Very happy']",,5bf3feb0345b9b00016ead01,09:08:31,27/02/2024
html-keyboard-response,144,299692,0.0-60.0,,"<div style=""font-size:100px;"">+</div>",,delaylearn,learning,ITI,zL4wwa2elxgKMyyEipQGJCEwUwu1,zL4wwa2elxgKMyyEipQGJCEwUwu1,,,,,,,,,,,,,,,,,,,1941.0,,,5bf3feb0345b9b00016ead01,09:08:31,27/02/2024
html-keyboard-response,145,301225,0.0-61.0-0.0,1531.6999999997206,"<div style=""display: flex; flex-direction: column; align-items: center; margin-top: -40px;""><img src=""images/pattern_1.png"" style=""width: 234px; height: 230px; margin-top: -50px;""><div style=""display: flex; justify-content: space-between; margin-top: 33px;""><img src=""images/choice_trial_6.png"" style=""width: 408px; height: 417px; margin-right: 200px;""><img src=""images/choice_trial_15.png"" style=""width: 408px; height: 417px;""></div></div>",j,delaylearn,learning,trial,zL4wwa2elxgKMyyEipQGJCEwUwu1,zL4wwa2elxgKMyyEipQGJCEwUwu1,5.0,images/choice_trial_6.png,images/choice_trial_15.png,images/pattern_1.png,f,f,7000.0,6.0,15.0,1.0,0.0,26.0,0.0,0.0,15.0,140.0,,,,,,5bf3feb0345b9b00016ead01,09:08:31,27/02/2024
html-keyboard-response,146,302229,0.0-61.0-1.0,,"<div style=""display: flex; flex-direction: column; align-items: center; margin-top: -40px;""><img src=""images/pattern_1.png"" style=""width: 234px; height: 230px; margin-top: -50px;""><div style=""display: flex; justify-content: space-between; margin-top: 33px;""><img src=""images/choice_trial_15.png"" style=""width: 408px; height: 417px; margin-left:608px;""></div></div>",,delaylearn,learning,display_response,zL4wwa2elxgKMyyEipQGJCEwUwu1,zL4wwa2elxgKMyyEipQGJCEwUwu1,,,,,,,,,,,,,,,,,chosen stimuli: images/choice_trial_15.png,,,,,5bf3feb0345b9b00016ead01,09:08:31,27/02/2024
html-keyboard-response,147,309240,0.0-61.0-2.0,,,,delaylearn,learning,feedback_duration_window,zL4wwa2elxgKMyyEipQGJCEwUwu1,zL4wwa2elxgKMyyEipQGJCEwUwu1,,,,,,,,,,,,,,,,,,7000.0,,,,5bf3feb0345b9b00016ead01,09:08:31,27/02/2024
html-keyboard-response,148,310748,0.0-61.0-3.0,,<div style='margin:auto;width: auto; font-size: 150%'><span style='font-weight: bold; font-size: 100px; color: red;'>0 points!</span><br><br></div>,,delaylearn,learning,feedback_image_window,zL4wwa2elxgKMyyEipQGJCEwUwu1,zL4wwa2elxgKMyyEipQGJCEwUwu1,,,,,,,,,,,,,,,,,,,,,,5bf3feb0345b9b00016ead01,09:08:31,27/02/2024
html-keyboard-response,149,312434,0.0-62.0,,"<div style=""font-size:100px;"">+</div>",,delaylearn,learning,ITI,zL4wwa2elxgKMyyEipQGJCEwUwu1,zL4wwa2elxgKMyyEipQGJCEwUwu1,,,,,,,,,,,,,,,,,,,1672.0,,,5bf3feb0345b9b00016ead01,09:08:31,27/02/2024
html-keyboard-response,150,313400,0.0-63.0-0.0,964.7000000001863,"<div style=""display: flex; flex-direction: column; align-items: center; margin-top: -40px;""><img src=""images/pattern_5.png"" style=""width: 234px; height: 230px; margin-top: -50px;""><div style=""display: flex; justify-content: space-between; margin-top: 33px;""><img src=""images/choice_trial_7.png"" style=""width: 408px; height: 417px; margin-right: 200px;""><img src=""images/choice_trial_13.png"" style=""width: 408px; height: 417px;""></div></div>",f,delaylearn,learning,trial,zL4wwa2elxgKMyyEipQGJCEwUwu1,zL4wwa2elxgKMyyEipQGJCEwUwu1,5.0,images/choice_trial_7.png,images/choice_trial_13.png,images/pattern_5.png,f,f,750.0,7.0,13.0,4.0,0.0,27.0,1.0,1.0,7.0,150.0,,,,,,5bf3feb0345b9b00016ead01,09:08:31,27/02/2024
html-keyboard-response,151,314412,0.0-63.0-1.0,,"<div style=""display: flex; flex-direction: column; align-items: center; margin-top: -40px;""><img src=""images/pattern_5.png"" style=""width: 234px; height: 230px; margin-top: -50px;""><div style=""display: flex; justify-content: space-between; margin-top: 33px;""><img src=""images/choice_trial_7.png"" style=""width: 408px; height: 417px; margin-right: 608px;""></div></div>",,delaylearn,learning,display_response,zL4wwa2elxgKMyyEipQGJCEwUwu1,zL4wwa2elxgKMyyEipQGJCEwUwu1,,,,,,,,,,,,,,,,,chosen stimuli: images/choice_trial_7.png,,,,,5bf3feb0345b9b00016ead01,09:08:31,27/02/2024
html-keyboard-response,152,315163,0.0-63.0-2.0,,,,delaylearn,learning,feedback_duration_window,zL4wwa2elxgKMyyEipQGJCEwUwu1,zL4wwa2elxgKMyyEipQGJCEwUwu1,,,,,,,,,,,,,,,,,,750.0,,,,5bf3feb0345b9b00016ead01,09:08:31,27/02/2024
html-keyboard-response,153,316670,0.0-63.0-3.0,,<div style='margin:auto;width: auto; font-size: 150%'><span style='font-weight: bold; font-size: 100px; color: green;'>+10 points!</span><br><br></div>,,delaylearn,learning,feedback_image_window,zL4wwa2elxgKMyyEipQGJCEwUwu1,zL4wwa2elxgKMyyEipQGJCEwUwu1,,,,,,,,,,,,,,,,,,,,,,5bf3feb0345b9b00016ead01,09:08:31,27/02/2024
html-keyboard-response,154,318508,0.0-64.0,,"<div style=""font-size:100px;"">+</div>",,delaylearn,learning,ITI,zL4wwa2elxgKMyyEipQGJCEwUwu1,zL4wwa2elxgKMyyEipQGJCEwUwu1,,,,,,,,,,,,,,,,,,,1823.0,,,5bf3feb0345b9b00016ead01,09:08:31,27/02/2024
html-keyboard-response,155,321088,0.0-65.0-0.0,2579.0999999996275,"<div style=""display: flex; flex-direction: column; align-items: center; margin-top: -40px;""><img src=""images/pattern_6.png"" style=""width: 234px; height: 230px; margin-top: -50px;""><div style=""display: flex; justify-content: space-between; margin-top: 33px;""><img src=""images/choice_trial_9.png"" style=""width: 408px; height: 417px; margin-right: 200px;""><img src=""images/choice_trial_14.png"" style=""width: 408px; height: 417px;""></div></div>",j,delaylearn,learning,trial,zL4wwa2elxgKMyyEipQGJCEwUwu1,zL4wwa2elxgKMyyEipQGJCEwUwu1,5.0,images/choice_trial_9.png,images/choice_trial_14.png,images/pattern_6.png,j,j,750.0,9.0,14.0,5.0,1.0,28.0,1.0,1.0,14.0,160.0,,,,,,5bf3feb0345b9b00016ead01,09:08:31,27/02/2024
html-keyboard-response,156,322092,0.0-65.0-1.0,,"<div style=""display: flex; flex-direction: column; align-items: center; margin-top: -40px;""><img src=""images/pattern_6.png"" style=""width: 234px; height: 230px; margin-top: -50px;""><div style=""display: flex; justify-content: space-between; margin-top: 33px;""><img src=""images/choice_trial_14.png"" style=""width: 408px; height: 417px; margin-left:608px;""></div></div>",,delaylearn,learning,display_response,zL4wwa2elxgKMyyEipQGJCEwUwu1,zL4wwa2elxgKMyyEipQGJCEwUwu1,,,,,,,,,,,,,,,,,chosen stimuli: images/choice_trial_14.png,,,,,5bf3feb0345b9b00016ead01,09:08:31,27/02/2024
html-keyboard-response,157,322852,0.0-65.0-2.0,,,,delaylearn,learning,feedback_duration_window,zL4wwa2elxgKMyyEipQGJCEwUwu1,zL4wwa2elxgKMyyEipQGJCEwUwu1,,,,,,,,,,,,,,,,,,750.0,,,,5bf3feb0345b9b00016ead01,09:08:31,27/02/2024
html-keyboard-response,158,324364,0.0-65.0-3.0,,<div style='margin:auto;width: auto; font-size: 150%'><span style='font-weight: bold; font-size: 100px; color: green;'>+10 points!</span><br><br></div>,,delaylearn,learning,feedback_image_window,zL4wwa2elxgKMyyEipQGJCEwUwu1,zL4wwa2elxgKMyyEipQGJCEwUwu1,,,,,,,,,,,,,,,,,,,,,,5bf3feb0345b9b00016ead01,09:08:31,27/02/2024
html-keyboard-response,159,324878,0.0-66.0-0.0,,,,,,mood_trial_fixation,zL4wwa2elxgKMyyEipQGJCEwUwu1,,,,,,,,,,,,,,,,,,,,,,,5bf3feb0345b9b00016ead01,09:08:31,27/02/2024
lmdlab-html-vas-response,160,329476,0.0-66.0-1.0,3596.0,How happy are you right now?,0.4988425925925926,delaylearn,learning,mood_trial,zL4wwa2elxgKMyyEipQGJCEwUwu1,zL4wwa2elxgKMyyEipQGJCEwUwu1,,,,,,,,,,,,,,,,,,,,"['Very unhappy', 'Very happy']",,5bf3feb0345b9b00016ead01,09:08:31,27/02/2024
html-keyboard-response,161,331759,0.0-67.0,,"<div style=""font-size:100px;"">+</div>",,delaylearn,learning,ITI,zL4wwa2elxgKMyyEipQGJCEwUwu1,zL4wwa2elxgKMyyEipQGJCEwUwu1,,,,,,,,,,,,,,,,,,,2275.0,,,5bf3feb0345b9b00016ead01,09:08:31,27/02/2024
html-keyboard-response,162,333751,0.0-68.0-0.0,1990.3000000002794,"<div style=""display: flex; flex-direction: column; align-items: center; margin-top: -40px;""><img src=""images/pattern_4.png"" style=""width: 234px; height: 230px; margin-top: -50px;""><div style=""display: flex; justify-content: space-between; margin-top: 33px;""><img src=""images/choice_trial_4.png"" style=""width: 408px; height: 417px; margin-right: 200px;""><img src=""images/choice_trial_11.png"" style=""width: 408px; height: 417px;""></div></div>",f,delaylearn,learning,trial,zL4wwa2elxgKMyyEipQGJCEwUwu1,zL4wwa2elxgKMyyEipQGJCEwUwu1,5.0,images/choice_trial_4.png,images/choice_trial_11.png,images/pattern_4.png,j,j,7000.0,4.0,11.0,3.0,1.0,29.0,0.0,0.0,4.0,160.0,,,,,,5bf3feb0345b9b00016ead01,09:08:31,27/02/2024
html-keyboard-response,163,334765,0.0-68.0-1.0,,"<div style=""display: flex; flex-direction: column; align-items: center; margin-top: -40px;""><img src=""images/pattern_4.png"" style=""width: 234px; height: 230px; margin-top: -50px;""><div style=""display: flex; justify-content: space-between; margin-top: 33px;""><img src=""images/choice_trial_4.png"" style=""width: 408px; height: 417px; margin-right: 608px;""></div></div>",,delaylearn,learning,display_response,zL4wwa2elxgKMyyEipQGJCEwUwu1,zL4wwa2elxgKMyyEipQGJCEwUwu1,,,,,,,,,,,,,,,,,chosen stimuli: images/choice_trial_4.png,,,,,5bf3feb0345b9b00016ead01,09:08:31,27/02/2024
html-keyboard-response,164,341780,0.0-68.0-2.0,,,,delaylearn,learning,feedback_duration_window,zL4wwa2elxgKMyyEipQGJCEwUwu1,zL4wwa2elxgKMyyEipQGJCEwUwu1,,,,,,,,,,,,,,,,,,7000.0,,,,5bf3feb0345b9b00016ead01,09:08:31,27/02/2024
html-keyboard-response,165,343281,0.0-68.0-3.0,,<div style='margin:auto;width: auto; font-size: 150%'><span style='font-weight: bold; font-size: 100px; color: red;'>0 points!</span><br><br></div>,,delaylearn,learning,feedback_image_window,zL4wwa2elxgKMyyEipQGJCEwUwu1,zL4wwa2elxgKMyyEipQGJCEwUwu1,,,,,,,,,,,,,,,,,,,,,,5bf3feb0345b9b00016ead01,09:08:31,27/02/2024
html-keyboard-response,166,345117,0.0-69.0,,"<div style=""font-size:100px;"">+</div>",,delaylearn,learning,ITI,zL4wwa2elxgKMyyEipQGJCEwUwu1,zL4wwa2elxgKMyyEipQGJCEwUwu1,,,,,,,,,,,,,,,,,,,1824.0,,,5bf3feb0345b9b00016ead01,09:08:31,27/02/2024
html-keyboard-response,167,347618,0.0-70.0-0.0,2499.899999999907,"<div style=""display: flex; flex-direction: column; align-items: center; margin-top: -40px;""><img src=""images/pattern_3.png"" style=""width: 234px; height: 230px; margin-top: -50px;""><div style=""display: flex; justify-content: space-between; margin-top: 33px;""><img src=""images/choice_trial_2.png"" style=""width: 408px; height: 417px; margin-right: 200px;""><img src=""images/choice_trial_16.png"" style=""width: 408px; height: 417px;""></div></div>",f,delaylearn,learning,trial,zL4wwa2elxgKMyyEipQGJCEwUwu1,zL4wwa2elxgKMyyEipQGJCEwUwu1,5.0,images/choice_trial_2.png,images/choice_trial_16.png,images/pattern_3.png,j,j,7000.0,2.0,16.0,2.0,1.0,30.0,0.0,0.0,2.0,160.0,,,,,,5bf3feb0345b9b00016ead01,09:08:31,27/02/2024
html-keyboard-response,168,348632,0.0-70.0-1.0,,"<div style=""display: flex; flex-direction: column; align-items: center; margin-top: -40px;""><img src=""images/pattern_3.png"" style=""width: 234px; height: 230px; margin-top: -50px;""><div style=""display: flex; justify-content: space-between; margin-top: 33px;""><img src=""images/choice_trial_2.png"" style=""width: 408px; height: 417px; margin-right: 608px;""></div></div>",,delaylearn,learning,display_response,zL4wwa2elxgKMyyEipQGJCEwUwu1,zL4wwa2elxgKMyyEipQGJCEwUwu1,,,,,,,,,,,,,,,,,chosen stimuli: images/choice_trial_2.png,,,,,5bf3feb0345b9b00016ead01,09:08:31,27/02/2024
html-keyboard-response,169,355647,0.0-70.0-2.0,,,,delaylearn,learning,feedback_duration_window,zL4wwa2elxgKMyyEipQGJCEwUwu1,zL4wwa2elxgKMyyEipQGJCEwUwu1,,,,,,,,,,,,,,,,,,7000.0,,,,5bf3feb0345b9b00016ead01,09:08:31,27/02/2024
html-keyboard-response,170,357158,0.0-70.0-3.0,,<div style='margin:auto;width: auto; font-size: 150%'><span style='font-weight: bold; font-size: 100px; color: red;'>0 points!</span><br><br></div>,,delaylearn,learning,feedback_image_window,zL4wwa2elxgKMyyEipQGJCEwUwu1,zL4wwa2elxgKMyyEipQGJCEwUwu1,,,,,,,,,,,,,,,,,,,,,,5bf3feb0345b9b00016ead01,09:08:31,27/02/2024
html-keyboard-response,171,359608,0.0-71.0,,"<div style=""font-size:100px;"">+</div>",,delaylearn,learning,ITI,zL4wwa2elxgKMyyEipQGJCEwUwu1,zL4wwa2elxgKMyyEipQGJCEwUwu1,,,,,,,,,,,,,,,,,,,2448.0,,,5bf3feb0345b9b00016ead01,09:08:31,27/02/2024
html-keyboard-response,172,360728,0.0-72.0-0.0,1118.6000000000931,"<div style=""display: flex; flex-direction: column; align-items: center; margin-top: -40px;""><img src=""images/pattern_5.png"" style=""width: 234px; height: 230px; margin-top: -50px;""><div style=""display: flex; justify-content: space-between; margin-top: 33px;""><img src=""images/choice_trial_7.png"" style=""width: 408px; height: 417px; margin-right: 200px;""><img src=""images/choice_trial_13.png"" style=""width: 408px; height: 417px;""></div></div>",f,delaylearn,learning,trial,zL4wwa2elxgKMyyEipQGJCEwUwu1,zL4wwa2elxgKMyyEipQGJCEwUwu1,5.0,images/choice_trial_7.png,images/choice_trial_13.png,images/pattern_5.png,j,f,750.0,7.0,13.0,4.0,0.0,31.0,1.0,0.0,7.0,160.0,,,,,,5bf3feb0345b9b00016ead01,09:08:31,27/02/2024
html-keyboard-response,173,361735,0.0-72.0-1.0,,"<div style=""display: flex; flex-direction: column; align-items: center; margin-top: -40px;""><img src=""images/pattern_5.png"" style=""width: 234px; height: 230px; margin-top: -50px;""><div style=""display: flex; justify-content: space-between; margin-top: 33px;""><img src=""images/choice_trial_7.png"" style=""width: 408px; height: 417px; margin-right: 608px;""></div></div>",,delaylearn,learning,display_response,zL4wwa2elxgKMyyEipQGJCEwUwu1,zL4wwa2elxgKMyyEipQGJCEwUwu1,,,,,,,,,,,,,,,,,chosen stimuli: images/choice_trial_7.png,,,,,5bf3feb0345b9b00016ead01,09:08:31,27/02/2024
html-keyboard-response,174,362498,0.0-72.0-2.0,,,,delaylearn,learning,feedback_duration_window,zL4wwa2elxgKMyyEipQGJCEwUwu1,zL4wwa2elxgKMyyEipQGJCEwUwu1,,,,,,,,,,,,,,,,,,750.0,,,,5bf3feb0345b9b00016ead01,09:08:31,27/02/2024
html-keyboard-response,175,364012,0.0-72.0-3.0,,<div style='margin:auto;width: auto; font-size: 150%'><span style='font-weight: bold; font-size: 100px; color: red;'>0 points!</span><br><br></div>,,delaylearn,learning,feedback_image_window,zL4wwa2elxgKMyyEipQGJCEwUwu1,zL4wwa2elxgKMyyEipQGJCEwUwu1,,,,,,,,,,,,,,,,,,,,,,5bf3feb0345b9b00016ead01,09:08:31,27/02/2024
html-keyboard-response,176,365913,0.0-73.0,,"<div style=""font-size:100px;"">+</div>",,delaylearn,learning,ITI,zL4wwa2elxgKMyyEipQGJCEwUwu1,zL4wwa2elxgKMyyEipQGJCEwUwu1,,,,,,,,,,,,,,,,,,,1888.0,,,5bf3feb0345b9b00016ead01,09:08:31,27/02/2024
html-keyboard-response,177,368480,0.0-74.0-0.0,2565.0999999996275,"<div style=""display: flex; flex-direction: column; align-items: center; margin-top: -40px;""><img src=""images/pattern_1.png"" style=""width: 234px; height: 230px; margin-top: -50px;""><div style=""display: flex; justify-content: space-between; margin-top: 33px;""><img src=""images/choice_trial_6.png"" style=""width: 408px; height: 417px; margin-right: 200px;""><img src=""images/choice_trial_15.png"" style=""width: 408px; height: 417px;""></div></div>",j,delaylearn,learning,trial,zL4wwa2elxgKMyyEipQGJCEwUwu1,zL4wwa2elxgKMyyEipQGJCEwUwu1,5.0,images/choice_trial_6.png,images/choice_trial_15.png,images/pattern_1.png,f,f,7000.0,6.0,15.0,1.0,0.0,32.0,0.0,0.0,15.0,160.0,,,,,,5bf3feb0345b9b00016ead01,09:08:31,27/02/2024
html-keyboard-response,178,369489,0.0-74.0-1.0,,"<div style=""display: flex; flex-direction: column; align-items: center; margin-top: -40px;""><img src=""images/pattern_1.png"" style=""width: 234px; height: 230px; margin-top: -50px;""><div style=""display: flex; justify-content: space-between; margin-top: 33px;""><img src=""images/choice_trial_15.png"" style=""width: 408px; height: 417px; margin-left:608px;""></div></div>",,delaylearn,learning,display_response,zL4wwa2elxgKMyyEipQGJCEwUwu1,zL4wwa2elxgKMyyEipQGJCEwUwu1,,,,,,,,,,,,,,,,,chosen stimuli: images/choice_trial_15.png,,,,,5bf3feb0345b9b00016ead01,09:08:31,27/02/2024
html-keyboard-response,179,376494,0.0-74.0-2.0,,,,delaylearn,learning,feedback_duration_window,zL4wwa2elxgKMyyEipQGJCEwUwu1,zL4wwa2elxgKMyyEipQGJCEwUwu1,,,,,,,,,,,,,,,,,,7000.0,,,,5bf3feb0345b9b00016ead01,09:08:31,27/02/2024
html-keyboard-response,180,378008,0.0-74.0-3.0,,<div style='margin:auto;width: auto; font-size: 150%'><span style='font-weight: bold; font-size: 100px; color: red;'>0 points!</span><br><br></div>,,delaylearn,learning,feedback_image_window,zL4wwa2elxgKMyyEipQGJCEwUwu1,zL4wwa2elxgKMyyEipQGJCEwUwu1,,,,,,,,,,,,,,,,,,,,,,5bf3feb0345b9b00016ead01,09:08:31,27/02/2024
html-keyboard-response,181,378519,0.0-75.0-0.0,,,,,,mood_trial_fixation,zL4wwa2elxgKMyyEipQGJCEwUwu1,,,,,,,,,,,,,,,,,,,,,,,5bf3feb0345b9b00016ead01,09:08:31,27/02/2024
lmdlab-html-vas-response,182,382579,0.0-75.0-1.0,3048.0,How happy are you right now?,0.5046296296296297,delaylearn,learning,mood_trial,zL4wwa2elxgKMyyEipQGJCEwUwu1,zL4wwa2elxgKMyyEipQGJCEwUwu1,,,,,,,,,,,,,,,,,,,,"['Very unhappy', 'Very happy']",,5bf3feb0345b9b00016ead01,09:08:31,27/02/2024
html-keyboard-response,183,384436,0.0-76.0,,"<div style=""font-size:100px;"">+</div>",,delaylearn,learning,ITI,zL4wwa2elxgKMyyEipQGJCEwUwu1,zL4wwa2elxgKMyyEipQGJCEwUwu1,,,,,,,,,,,,,,,,,,,1850.0,,,5bf3feb0345b9b00016ead01,09:08:31,27/02/2024
html-keyboard-response,184,386191,0.0-77.0-0.0,1753.2999999998137,"<div style=""display: flex; flex-direction: column; align-items: center; margin-top: -40px;""><img src=""images/pattern_6.png"" style=""width: 234px; height: 230px; margin-top: -50px;""><div style=""display: flex; justify-content: space-between; margin-top: 33px;""><img src=""images/choice_trial_14.png"" style=""width: 408px; height: 417px; margin-right: 200px;""><img src=""images/choice_trial_9.png"" style=""width: 408px; height: 417px;""></div></div>",j,delaylearn,learning,trial,zL4wwa2elxgKMyyEipQGJCEwUwu1,zL4wwa2elxgKMyyEipQGJCEwUwu1,5.0,images/choice_trial_14.png,images/choice_trial_9.png,images/pattern_6.png,j,f,750.0,14.0,9.0,5.0,0.0,33.0,0.0,1.0,9.0,170.0,,,,,,5bf3feb0345b9b00016ead01,09:08:31,27/02/2024
html-keyboard-response,185,387203,0.0-77.0-1.0,,"<div style=""display: flex; flex-direction: column; align-items: center; margin-top: -40px;""><img src=""images/pattern_6.png"" style=""width: 234px; height: 230px; margin-top: -50px;""><div style=""display: flex; justify-content: space-between; margin-top: 33px;""><img src=""images/choice_trial_9.png"" style=""width: 408px; height: 417px; margin-left:608px;""></div></div>",,delaylearn,learning,display_response,zL4wwa2elxgKMyyEipQGJCEwUwu1,zL4wwa2elxgKMyyEipQGJCEwUwu1,,,,,,,,,,,,,,,,,chosen stimuli: images/choice_trial_9.png,,,,,5bf3feb0345b9b00016ead01,09:08:31,27/02/2024
html-keyboard-response,186,387966,0.0-77.0-2.0,,,,delaylearn,learning,feedback_duration_window,zL4wwa2elxgKMyyEipQGJCEwUwu1,zL4wwa2elxgKMyyEipQGJCEwUwu1,,,,,,,,,,,,,,,,,,750.0,,,,5bf3feb0345b9b00016ead01,09:08:31,27/02/2024
html-keyboard-response,187,389480,0.0-77.0-3.0,,<div style='margin:auto;width: auto; font-size: 150%'><span style='font-weight: bold; font-size: 100px; color: green;'>+10 points!</span><br><br></div>,,delaylearn,learning,feedback_image_window,zL4wwa2elxgKMyyEipQGJCEwUwu1,zL4wwa2elxgKMyyEipQGJCEwUwu1,,,,,,,,,,,,,,,,,,,,,,5bf3feb0345b9b00016ead01,09:08:31,27/02/2024
html-keyboard-response,188,391564,0.0-78.0,,"<div style=""font-size:100px;"">+</div>",,delaylearn,learning,ITI,zL4wwa2elxgKMyyEipQGJCEwUwu1,zL4wwa2elxgKMyyEipQGJCEwUwu1,,,,,,,,,,,,,,,,,,,2067.0,,,5bf3feb0345b9b00016ead01,09:08:31,27/02/2024
html-keyboard-response,189,393504,0.0-79.0-0.0,1938.8999999999069,"<div style=""display: flex; flex-direction: column; align-items: center; margin-top: -40px;""><img src=""images/pattern_3.png"" style=""width: 234px; height: 230px; margin-top: -50px;""><div style=""display: flex; justify-content: space-between; margin-top: 33px;""><img src=""images/choice_trial_2.png"" style=""width: 408px; height: 417px; margin-right: 200px;""><img src=""images/choice_trial_16.png"" style=""width: 408px; height: 417px;""></div></div>",j,delaylearn,learning,trial,zL4wwa2elxgKMyyEipQGJCEwUwu1,zL4wwa2elxgKMyyEipQGJCEwUwu1,5.0,images/choice_trial_2.png,images/choice_trial_16.png,images/pattern_3.png,j,j,7000.0,2.0,16.0,2.0,1.0,34.0,1.0,1.0,16.0,180.0,,,,,,5bf3feb0345b9b00016ead01,09:08:31,27/02/2024
html-keyboard-response,190,394508,0.0-79.0-1.0,,"<div style=""display: flex; flex-direction: column; align-items: center; margin-top: -40px;""><img src=""images/pattern_3.png"" style=""width: 234px; height: 230px; margin-top: -50px;""><div style=""display: flex; justify-content: space-between; margin-top: 33px;""><img src=""images/choice_trial_16.png"" style=""width: 408px; height: 417px; margin-left:608px;""></div></div>",,delaylearn,learning,display_response,zL4wwa2elxgKMyyEipQGJCEwUwu1,zL4wwa2elxgKMyyEipQGJCEwUwu1,,,,,,,,,,,,,,,,,chosen stimuli: images/choice_trial_16.png,,,,,5bf3feb0345b9b00016ead01,09:08:31,27/02/2024
html-keyboard-response,191,401513,0.0-79.0-2.0,,,,delaylearn,learning,feedback_duration_window,zL4wwa2elxgKMyyEipQGJCEwUwu1,zL4wwa2elxgKMyyEipQGJCEwUwu1,,,,,,,,,,,,,,,,,,7000.0,,,,5bf3feb0345b9b00016ead01,09:08:31,27/02/2024
html-keyboard-response,192,403028,0.0-79.0-3.0,,<div style='margin:auto;width: auto; font-size: 150%'><span style='font-weight: bold; font-size: 100px; color: green;'>+10 points!</span><br><br></div>,,delaylearn,learning,feedback_image_window,zL4wwa2elxgKMyyEipQGJCEwUwu1,zL4wwa2elxgKMyyEipQGJCEwUwu1,,,,,,,,,,,,,,,,,,,,,,5bf3feb0345b9b00016ead01,09:08:31,27/02/2024
html-keyboard-response,193,405178,0.0-80.0,,"<div style=""font-size:100px;"">+</div>",,delaylearn,learning,ITI,zL4wwa2elxgKMyyEipQGJCEwUwu1,zL4wwa2elxgKMyyEipQGJCEwUwu1,,,,,,,,,,,,,,,,,,,2140.0,,,5bf3feb0345b9b00016ead01,09:08:31,27/02/2024
html-keyboard-response,194,407612,0.0-81.0-0.0,2432.5,"<div style=""display: flex; flex-direction: column; align-items: center; margin-top: -40px;""><img src=""images/pattern_4.png"" style=""width: 234px; height: 230px; margin-top: -50px;""><div style=""display: flex; justify-content: space-between; margin-top: 33px;""><img src=""images/choice_trial_4.png"" style=""width: 408px; height: 417px; margin-right: 200px;""><img src=""images/choice_trial_11.png"" style=""width: 408px; height: 417px;""></div></div>",f,delaylearn,learning,trial,zL4wwa2elxgKMyyEipQGJCEwUwu1,zL4wwa2elxgKMyyEipQGJCEwUwu1,5.0,images/choice_trial_4.png,images/choice_trial_11.png,images/pattern_4.png,f,j,7000.0,4.0,11.0,3.0,1.0,35.0,0.0,1.0,4.0,190.0,,,,,,5bf3feb0345b9b00016ead01,09:08:31,27/02/2024
html-keyboard-response,195,408623,0.0-81.0-1.0,,"<div style=""display: flex; flex-direction: column; align-items: center; margin-top: -40px;""><img src=""images/pattern_4.png"" style=""width: 234px; height: 230px; margin-top: -50px;""><div style=""display: flex; justify-content: space-between; margin-top: 33px;""><img src=""images/choice_trial_4.png"" style=""width: 408px; height: 417px; margin-right: 608px;""></div></div>",,delaylearn,learning,display_response,zL4wwa2elxgKMyyEipQGJCEwUwu1,zL4wwa2elxgKMyyEipQGJCEwUwu1,,,,,,,,,,,,,,,,,chosen stimuli: images/choice_trial_4.png,,,,,5bf3feb0345b9b00016ead01,09:08:31,27/02/2024
html-keyboard-response,196,415632,0.0-81.0-2.0,,,,delaylearn,learning,feedback_duration_window,zL4wwa2elxgKMyyEipQGJCEwUwu1,zL4wwa2elxgKMyyEipQGJCEwUwu1,,,,,,,,,,,,,,,,,,7000.0,,,,5bf3feb0345b9b00016ead01,09:08:31,27/02/2024
html-keyboard-response,197,417140,0.0-81.0-3.0,,<div style='margin:auto;width: auto; font-size: 150%'><span style='font-weight: bold; font-size: 100px; color: green;'>+10 points!</span><br><br></div>,,delaylearn,learning,feedback_image_window,zL4wwa2elxgKMyyEipQGJCEwUwu1,zL4wwa2elxgKMyyEipQGJCEwUwu1,,,,,,,,,,,,,,,,,,,,,,5bf3feb0345b9b00016ead01,09:08:31,27/02/2024
html-keyboard-response,198,418969,0.0-82.0,,"<div style=""font-size:100px;"">+</div>",,delaylearn,learning,ITI,zL4wwa2elxgKMyyEipQGJCEwUwu1,zL4wwa2elxgKMyyEipQGJCEwUwu1,,,,,,,,,,,,,,,,,,,1822.0,,,5bf3feb0345b9b00016ead01,09:08:31,27/02/2024
html-keyboard-response,199,421016,0.0-83.0-0.0,2045.8999999999069,"<div style=""display: flex; flex-direction: column; align-items: center; margin-top: -40px;""><img src=""images/pattern_7.png"" style=""width: 234px; height: 230px; margin-top: -50px;""><div style=""display: flex; justify-content: space-between; margin-top: 33px;""><img src=""images/choice_trial_8.png"" style=""width: 408px; height: 417px; margin-right: 200px;""><img src=""images/choice_trial_10.png"" style=""width: 408px; height: 417px;""></div></div>",f,delaylearn,learning,trial,zL4wwa2elxgKMyyEipQGJCEwUwu1,zL4wwa2elxgKMyyEipQGJCEwUwu1,5.0,images/choice_trial_8.png,images/choice_trial_10.png,images/pattern_7.png,f,f,750.0,8.0,10.0,6.0,0.0,36.0,1.0,1.0,8.0,200.0,,,,,,5bf3feb0345b9b00016ead01,09:08:31,27/02/2024
html-keyboard-response,200,422021,0.0-83.0-1.0,,"<div style=""display: flex; flex-direction: column; align-items: center; margin-top: -40px;""><img src=""images/pattern_7.png"" style=""width: 234px; height: 230px; margin-top: -50px;""><div style=""display: flex; justify-content: space-between; margin-top: 33px;""><img src=""images/choice_trial_8.png"" style=""width: 408px; height: 417px; margin-right: 608px;""></div></div>",,delaylearn,learning,display_response,zL4wwa2elxgKMyyEipQGJCEwUwu1,zL4wwa2elxgKMyyEipQGJCEwUwu1,,,,,,,,,,,,,,,,,chosen stimuli: images/choice_trial_8.png,,,,,5bf3feb0345b9b00016ead01,09:08:31,27/02/2024
html-keyboard-response,201,422786,0.0-83.0-2.0,,,,delaylearn,learning,feedback_duration_window,zL4wwa2elxgKMyyEipQGJCEwUwu1,zL4wwa2elxgKMyyEipQGJCEwUwu1,,,,,,,,,,,,,,,,,,750.0,,,,5bf3feb0345b9b00016ead01,09:08:31,27/02/2024
html-keyboard-response,202,424301,0.0-83.0-3.0,,<div style='margin:auto;width: auto; font-size: 150%'><span style='font-weight: bold; font-size: 100px; color: green;'>+10 points!</span><br><br></div>,,delaylearn,learning,feedback_image_window,zL4wwa2elxgKMyyEipQGJCEwUwu1,zL4wwa2elxgKMyyEipQGJCEwUwu1,,,,,,,,,,,,,,,,,,,,,,5bf3feb0345b9b00016ead01,09:08:31,27/02/2024
html-keyboard-response,203,426248,0.0-84.0,,"<div style=""font-size:100px;"">+</div>",,delaylearn,learning,ITI,zL4wwa2elxgKMyyEipQGJCEwUwu1,zL4wwa2elxgKMyyEipQGJCEwUwu1,,,,,,,,,,,,,,,,,,,1945.0,,,5bf3feb0345b9b00016ead01,09:08:31,27/02/2024
html-keyboard-response,204,428732,0.0-85.0-0.0,2483.5,"<div style=""display: flex; flex-direction: column; align-items: center; margin-top: -40px;""><img src=""images/pattern_1.png"" style=""width: 234px; height: 230px; margin-top: -50px;""><div style=""display: flex; justify-content: space-between; margin-top: 33px;""><img src=""images/choice_trial_6.png"" style=""width: 408px; height: 417px; margin-right: 200px;""><img src=""images/choice_trial_15.png"" style=""width: 408px; height: 417px;""></div></div>",f,delaylearn,learning,trial,zL4wwa2elxgKMyyEipQGJCEwUwu1,zL4wwa2elxgKMyyEipQGJCEwUwu1,5.0,images/choice_trial_6.png,images/choice_trial_15.png,images/pattern_1.png,f,f,7000.0,6.0,15.0,1.0,0.0,37.0,1.0,1.0,6.0,210.0,,,,,,5bf3feb0345b9b00016ead01,09:08:31,27/02/2024
html-keyboard-response,205,429749,0.0-85.0-1.0,,"<div style=""display: flex; flex-direction: column; align-items: center; margin-top: -40px;""><img src=""images/pattern_1.png"" style=""width: 234px; height: 230px; margin-top: -50px;""><div style=""display: flex; justify-content: space-between; margin-top: 33px;""><img src=""images/choice_trial_6.png"" style=""width: 408px; height: 417px; margin-right: 608px;""></div></div>",,delaylearn,learning,display_response,zL4wwa2elxgKMyyEipQGJCEwUwu1,zL4wwa2elxgKMyyEipQGJCEwUwu1,,,,,,,,,,,,,,,,,chosen stimuli: images/choice_trial_6.png,,,,,5bf3feb0345b9b00016ead01,09:08:31,27/02/2024
html-keyboard-response,206,436759,0.0-85.0-2.0,,,,delaylearn,learning,feedback_duration_window,zL4wwa2elxgKMyyEipQGJCEwUwu1,zL4wwa2elxgKMyyEipQGJCEwUwu1,,,,,,,,,,,,,,,,,,7000.0,,,,5bf3feb0345b9b00016ead01,09:08:31,27/02/2024
html-keyboard-response,207,438260,0.0-85.0-3.0,,<div style='margin:auto;width: auto; font-size: 150%'><span style='font-weight: bold; font-size: 100px; color: green;'>+10 points!</span><br><br></div>,,delaylearn,learning,feedback_image_window,zL4wwa2elxgKMyyEipQGJCEwUwu1,zL4wwa2elxgKMyyEipQGJCEwUwu1,,,,,,,,,,,,,,,,,,,,,,5bf3feb0345b9b00016ead01,09:08:31,27/02/2024
html-keyboard-response,208,438775,0.0-86.0-0.0,,,,,,mood_trial_fixation,zL4wwa2elxgKMyyEipQGJCEwUwu1,,,,,,,,,,,,,,,,,,,,,,,5bf3feb0345b9b00016ead01,09:08:31,27/02/2024
lmdlab-html-vas-response,209,442401,0.0-86.0-1.0,2615.0,How happy are you right now?,0.4988425925925926,delaylearn,learning,mood_trial,zL4wwa2elxgKMyyEipQGJCEwUwu1,zL4wwa2elxgKMyyEipQGJCEwUwu1,,,,,,,,,,,,,,,,,,,,"['Very unhappy', 'Very happy']",,5bf3feb0345b9b00016ead01,09:08:31,27/02/2024
html-keyboard-response,210,444690,0.0-87.0,,"<div style=""font-size:100px;"">+</div>",,delaylearn,learning,ITI,zL4wwa2elxgKMyyEipQGJCEwUwu1,zL4wwa2elxgKMyyEipQGJCEwUwu1,,,,,,,,,,,,,,,,,,,2281.0,,,5bf3feb0345b9b00016ead01,09:08:31,27/02/2024
html-keyboard-response,211,446653,0.0-88.0-0.0,1961.6000000000931,"<div style=""display: flex; flex-direction: column; align-items: center; margin-top: -40px;""><img src=""images/pattern_3.png"" style=""width: 234px; height: 230px; margin-top: -50px;""><div style=""display: flex; justify-content: space-between; margin-top: 33px;""><img src=""images/choice_trial_16.png"" style=""width: 408px; height: 417px; margin-right: 200px;""><img src=""images/choice_trial_2.png"" style=""width: 408px; height: 417px;""></div></div>",f,delaylearn,learning,trial,zL4wwa2elxgKMyyEipQGJCEwUwu1,zL4wwa2elxgKMyyEipQGJCEwUwu1,5.0,images/choice_trial_16.png,images/choice_trial_2.png,images/pattern_3.png,j,f,7000.0,16.0,2.0,2.0,0.0,38.0,1.0,0.0,16.0,210.0,,,,,,5bf3feb0345b9b00016ead01,09:08:31,27/02/2024
html-keyboard-response,212,447667,0.0-88.0-1.0,,"<div style=""display: flex; flex-direction: column; align-items: center; margin-top: -40px;""><img src=""images/pattern_3.png"" style=""width: 234px; height: 230px; margin-top: -50px;""><div style=""display: flex; justify-content: space-between; margin-top: 33px;""><img src=""images/choice_trial_16.png"" style=""width: 408px; height: 417px; margin-right: 608px;""></div></div>",,delaylearn,learning,display_response,zL4wwa2elxgKMyyEipQGJCEwUwu1,zL4wwa2elxgKMyyEipQGJCEwUwu1,,,,,,,,,,,,,,,,,chosen stimuli: images/choice_trial_16.png,,,,,5bf3feb0345b9b00016ead01,09:08:31,27/02/2024
html-keyboard-response,213,454680,0.0-88.0-2.0,,,,delaylearn,learning,feedback_duration_window,zL4wwa2elxgKMyyEipQGJCEwUwu1,zL4wwa2elxgKMyyEipQGJCEwUwu1,,,,,,,,,,,,,,,,,,7000.0,,,,5bf3feb0345b9b00016ead01,09:08:31,27/02/2024
html-keyboard-response,214,456192,0.0-88.0-3.0,,<div style='margin:auto;width: auto; font-size: 150%'><span style='font-weight: bold; font-size: 100px; color: red;'>0 points!</span><br><br></div>,,delaylearn,learning,feedback_image_window,zL4wwa2elxgKMyyEipQGJCEwUwu1,zL4wwa2elxgKMyyEipQGJCEwUwu1,,,,,,,,,,,,,,,,,,,,,,5bf3feb0345b9b00016ead01,09:08:31,27/02/2024
html-keyboard-response,215,457839,0.0-89.0,,"<div style=""font-size:100px;"">+</div>",,delaylearn,learning,ITI,zL4wwa2elxgKMyyEipQGJCEwUwu1,zL4wwa2elxgKMyyEipQGJCEwUwu1,,,,,,,,,,,,,,,,,,,1636.0,,,5bf3feb0345b9b00016ead01,09:08:31,27/02/2024
html-keyboard-response,216,459856,0.0-90.0-0.0,2015.7999999998137,"<div style=""display: flex; flex-direction: column; align-items: center; margin-top: -40px;""><img src=""images/pattern_7.png"" style=""width: 234px; height: 230px; margin-top: -50px;""><div style=""display: flex; justify-content: space-between; margin-top: 33px;""><img src=""images/choice_trial_10.png"" style=""width: 408px; height: 417px; margin-right: 200px;""><img src=""images/choice_trial_8.png"" style=""width: 408px; height: 417px;""></div></div>",j,delaylearn,learning,trial,zL4wwa2elxgKMyyEipQGJCEwUwu1,zL4wwa2elxgKMyyEipQGJCEwUwu1,5.0,images/choice_trial_10.png,images/choice_trial_8.png,images/pattern_7.png,j,j,750.0,10.0,8.0,6.0,1.0,39.0,1.0,1.0,8.0,220.0,,,,,,5bf3feb0345b9b00016ead01,09:08:31,27/02/2024
html-keyboard-response,217,460861,0.0-90.0-1.0,,"<div style=""display: flex; flex-direction: column; align-items: center; margin-top: -40px;""><img src=""images/pattern_7.png"" style=""width: 234px; height: 230px; margin-top: -50px;""><div style=""display: flex; justify-content: space-between; margin-top: 33px;""><img src=""images/choice_trial_8.png"" style=""width: 408px; height: 417px; margin-left:608px;""></div></div>",,delaylearn,learning,display_response,zL4wwa2elxgKMyyEipQGJCEwUwu1,zL4wwa2elxgKMyyEipQGJCEwUwu1,,,,,,,,,,,,,,,,,chosen stimuli: images/choice_trial_8.png,,,,,5bf3feb0345b9b00016ead01,09:08:31,27/02/2024
html-keyboard-response,218,461623,0.0-90.0-2.0,,,,delaylearn,learning,feedback_duration_window,zL4wwa2elxgKMyyEipQGJCEwUwu1,zL4wwa2elxgKMyyEipQGJCEwUwu1,,,,,,,,,,,,,,,,,,750.0,,,,5bf3feb0345b9b00016ead01,09:08:31,27/02/2024
html-keyboard-response,219,463133,0.0-90.0-3.0,,<div style='margin:auto;width: auto; font-size: 150%'><span style='font-weight: bold; font-size: 100px; color: green;'>+10 points!</span><br><br></div>,,delaylearn,learning,feedback_image_window,zL4wwa2elxgKMyyEipQGJCEwUwu1,zL4wwa2elxgKMyyEipQGJCEwUwu1,,,,,,,,,,,,,,,,,,,,,,5bf3feb0345b9b00016ead01,09:08:31,27/02/2024
html-keyboard-response,220,464664,0.0-91.0,,"<div style=""font-size:100px;"">+</div>",,delaylearn,learning,ITI,zL4wwa2elxgKMyyEipQGJCEwUwu1,zL4wwa2elxgKMyyEipQGJCEwUwu1,,,,,,,,,,,,,,,,,,,1527.0,,,5bf3feb0345b9b00016ead01,09:08:31,27/02/2024
html-keyboard-response,221,466646,0.0-92.0-0.0,1980.7999999998137,"<div style=""display: flex; flex-direction: column; align-items: center; margin-top: -40px;""><img src=""images/pattern_5.png"" style=""width: 234px; height: 230px; margin-top: -50px;""><div style=""display: flex; justify-content: space-between; margin-top: 33px;""><img src=""images/choice_trial_13.png"" style=""width: 408px; height: 417px; margin-right: 200px;""><img src=""images/choice_trial_7.png"" style=""width: 408px; height: 417px;""></div></div>",j,delaylearn,learning,trial,zL4wwa2elxgKMyyEipQGJCEwUwu1,zL4wwa2elxgKMyyEipQGJCEwUwu1,5.0,images/choice_trial_13.png,images/choice_trial_7.png,images/pattern_5.png,j,j,750.0,13.0,7.0,4.0,1.0,40.0,1.0,1.0,7.0,230.0,,,,,,5bf3feb0345b9b00016ead01,09:08:31,27/02/2024
html-keyboard-response,222,467655,0.0-92.0-1.0,,"<div style=""display: flex; flex-direction: column; align-items: center; margin-top: -40px;""><img src=""images/pattern_5.png"" style=""width: 234px; height: 230px; margin-top: -50px;""><div style=""display: flex; justify-content: space-between; margin-top: 33px;""><img src=""images/choice_trial_7.png"" style=""width: 408px; height: 417px; margin-left:608px;""></div></div>",,delaylearn,learning,display_response,zL4wwa2elxgKMyyEipQGJCEwUwu1,zL4wwa2elxgKMyyEipQGJCEwUwu1,,,,,,,,,,,,,,,,,chosen stimuli: images/choice_trial_7.png,,,,,5bf3feb0345b9b00016ead01,09:08:31,27/02/2024
html-keyboard-response,223,468416,0.0-92.0-2.0,,,,delaylearn,learning,feedback_duration_window,zL4wwa2elxgKMyyEipQGJCEwUwu1,zL4wwa2elxgKMyyEipQGJCEwUwu1,,,,,,,,,,,,,,,,,,750.0,,,,5bf3feb0345b9b00016ead01,09:08:31,27/02/2024
html-keyboard-response,224,469924,0.0-92.0-3.0,,<div style='margin:auto;width: auto; font-size: 150%'><span style='font-weight: bold; font-size: 100px; color: green;'>+10 points!</span><br><br></div>,,delaylearn,learning,feedback_image_window,zL4wwa2elxgKMyyEipQGJCEwUwu1,zL4wwa2elxgKMyyEipQGJCEwUwu1,,,,,,,,,,,,,,,,,,,,,,5bf3feb0345b9b00016ead01,09:08:31,27/02/2024
html-keyboard-response,225,470439,0.0-93.0-0.0,,,,,,mood_trial_fixation,zL4wwa2elxgKMyyEipQGJCEwUwu1,,,,,,,,,,,,,,,,,,,,,,,5bf3feb0345b9b00016ead01,09:08:31,27/02/2024
lmdlab-html-vas-response,226,474564,0.0-93.0-1.0,3123.0,How happy are you right now?,0.5057870370370371,delaylearn,learning,mood_trial,zL4wwa2elxgKMyyEipQGJCEwUwu1,zL4wwa2elxgKMyyEipQGJCEwUwu1,,,,,,,,,,,,,,,,,,,,"['Very unhappy', 'Very happy']",,5bf3feb0345b9b00016ead01,09:08:31,27/02/2024
html-keyboard-response,227,476540,0.0-94.0,,"<div style=""font-size:100px;"">+</div>",,delaylearn,learning,ITI,zL4wwa2elxgKMyyEipQGJCEwUwu1,zL4wwa2elxgKMyyEipQGJCEwUwu1,,,,,,,,,,,,,,,,,,,1960.0,,,5bf3feb0345b9b00016ead01,09:08:31,27/02/2024
html-keyboard-response,228,478266,0.0-95.0-0.0,1724.5,"<div style=""display: flex; flex-direction: column; align-items: center; margin-top: -40px;""><img src=""images/pattern_4.png"" style=""width: 234px; height: 230px; margin-top: -50px;""><div style=""display: flex; justify-content: space-between; margin-top: 33px;""><img src=""images/choice_trial_11.png"" style=""width: 408px; height: 417px; margin-right: 200px;""><img src=""images/choice_trial_4.png"" style=""width: 408px; height: 417px;""></div></div>",f,delaylearn,learning,trial,zL4wwa2elxgKMyyEipQGJCEwUwu1,zL4wwa2elxgKMyyEipQGJCEwUwu1,5.0,images/choice_trial_11.png,images/choice_trial_4.png,images/pattern_4.png,f,f,7000.0,11.0,4.0,3.0,0.0,41.0,1.0,1.0,11.0,240.0,,,,,,5bf3feb0345b9b00016ead01,09:08:31,27/02/2024
html-keyboard-response,229,479281,0.0-95.0-1.0,,"<div style=""display: flex; flex-direction: column; align-items: center; margin-top: -40px;""><img src=""images/pattern_4.png"" style=""width: 234px; height: 230px; margin-top: -50px;""><div style=""display: flex; justify-content: space-between; margin-top: 33px;""><img src=""images/choice_trial_11.png"" style=""width: 408px; height: 417px; margin-right: 608px;""></div></div>",,delaylearn,learning,display_response,zL4wwa2elxgKMyyEipQGJCEwUwu1,zL4wwa2elxgKMyyEipQGJCEwUwu1,,,,,,,,,,,,,,,,,chosen stimuli: images/choice_trial_11.png,,,,,5bf3feb0345b9b00016ead01,09:08:31,27/02/2024
html-keyboard-response,230,486283,0.0-95.0-2.0,,,,delaylearn,learning,feedback_duration_window,zL4wwa2elxgKMyyEipQGJCEwUwu1,zL4wwa2elxgKMyyEipQGJCEwUwu1,,,,,,,,,,,,,,,,,,7000.0,,,,5bf3feb0345b9b00016ead01,09:08:31,27/02/2024
html-keyboard-response,231,487789,0.0-95.0-3.0,,<div style='margin:auto;width: auto; font-size: 150%'><span style='font-weight: bold; font-size: 100px; color: green;'>+10 points!</span><br><br></div>,,delaylearn,learning,feedback_image_window,zL4wwa2elxgKMyyEipQGJCEwUwu1,zL4wwa2elxgKMyyEipQGJCEwUwu1,,,,,,,,,,,,,,,,,,,,,,5bf3feb0345b9b00016ead01,09:08:31,27/02/2024
html-keyboard-response,232,490215,0.0-96.0,,"<div style=""font-size:100px;"">+</div>",,delaylearn,learning,ITI,zL4wwa2elxgKMyyEipQGJCEwUwu1,zL4wwa2elxgKMyyEipQGJCEwUwu1,,,,,,,,,,,,,,,,,,,2418.0,,,5bf3feb0345b9b00016ead01,09:08:31,27/02/2024
