trial_type,trial_index,time_elapsed,internal_node_id,rt,stimulus,response,exp_name,exp_stage,test_part,subjectID,databaseID,counterbal,choice_stimuli_1,choice_stimuli_2,pattern_stimuli,rewarded_answer,correct_answer,feedback_duration_times,stim_left,stim_right,pair,leftright_counter,trial,response_correct,response_rewarded,chosen_stim,counter,displayed_choice,feedback_durations,ITI_duration,labels,rest_warning,prolificID,start_time,date
pavlovia,0,516,0.0-0.0,,,,,,,mxfavF5YdvbJDxWwvO8nmCs5ZZv2,,,,,,,,,,,,,,,,,,,,,,,5eb85799cc3ea50a5f3591ad,16:42:28,27/03/2024
html-keyboard-response,1,3518,0.0-1.0,,"<div style=""font-size:100px;"">+</div>",,delaylearn,learning,pre_fixation,mxfavF5YdvbJDxWwvO8nmCs5ZZv2,,,,,,,,,,,,,,,,,,,,,,,5eb85799cc3ea50a5f3591ad,16:42:28,27/03/2024
html-keyboard-response,2,4352,0.0-2.0-0.0,831.7999999970198,"<div style=""display: flex; flex-direction: column; align-items: center; margin-top: -40px;""><img src=""images/demo_images/pattern_1.png"" style=""width: 234px; height: 230px; margin-top: -50px;""><div style=""display: flex; justify-content: space-between; margin-top: 33px;""><img src=""images/demo_images/choice_trial_2.png"" style=""width: 408px; height: 417px; margin-right: 200px;""><img src=""images/demo_images/choice_trial_1.png"" style=""width: 408px; height: 417px;""></div></div>",f,delaylearn,learning,trial,mxfavF5YdvbJDxWwvO8nmCs5ZZv2,mxfavF5YdvbJDxWwvO8nmCs5ZZv2,1.0,images/demo_images/choice_trial_2.png,images/demo_images/choice_trial_1.png,images/demo_images/pattern_1.png,j,j,3000.0,2.0,1.0,20.0,1.0,1.0,0.0,0.0,2.0,0.0,,,,,,5eb85799cc3ea50a5f3591ad,16:42:28,27/03/2024
html-keyboard-response,3,5354,0.0-2.0-1.0,,"<div style=""display: flex; flex-direction: column; align-items: center; margin-top: -40px;""><img src=""images/demo_images/pattern_1.png"" style=""width: 234px; height: 230px; margin-top: -50px;""><div style=""display: flex; justify-content: space-between; margin-top: 33px;""><img src=""images/demo_images/choice_trial_2.png"" style=""width: 408px; height: 417px; margin-right: 608px;""></div></div>",,delaylearn,learning,display_response,mxfavF5YdvbJDxWwvO8nmCs5ZZv2,mxfavF5YdvbJDxWwvO8nmCs5ZZv2,,,,,,,,,,,,,,,,,chosen stimuli: images/demo_images/choice_trial_2.png,,,,,5eb85799cc3ea50a5f3591ad,16:42:28,27/03/2024
html-keyboard-response,4,8356,0.0-2.0-2.0,,,,delaylearn,learning,feedback_duration_window,mxfavF5YdvbJDxWwvO8nmCs5ZZv2,mxfavF5YdvbJDxWwvO8nmCs5ZZv2,,,,,,,,,,,,,,,,,,3000.0,,,,5eb85799cc3ea50a5f3591ad,16:42:28,27/03/2024
html-keyboard-response,5,9859,0.0-2.0-3.0,,<div style='margin:auto;width: auto; font-size: 150%'><span style='font-weight: bold; font-size: 100px; color: red;'>0 points!</span><br><br></div>,,delaylearn,learning,feedback_image_window,mxfavF5YdvbJDxWwvO8nmCs5ZZv2,mxfavF5YdvbJDxWwvO8nmCs5ZZv2,,,,,,,,,,,,,,,,,,,,,,5eb85799cc3ea50a5f3591ad,16:42:28,27/03/2024
html-keyboard-response,6,11914,0.0-3.0,,"<div style=""font-size:100px;"">+</div>",,delaylearn,learning,ITI,mxfavF5YdvbJDxWwvO8nmCs5ZZv2,mxfavF5YdvbJDxWwvO8nmCs5ZZv2,,,,,,,,,,,,,,,,,,,2053.0,,,5eb85799cc3ea50a5f3591ad,16:42:28,27/03/2024
html-keyboard-response,7,13210,0.0-4.0-0.0,1294.3000000044703,"<div style=""display: flex; flex-direction: column; align-items: center; margin-top: -40px;""><img src=""images/demo_images/pattern_1.png"" style=""width: 234px; height: 230px; margin-top: -50px;""><div style=""display: flex; justify-content: space-between; margin-top: 33px;""><img src=""images/demo_images/choice_trial_2.png"" style=""width: 408px; height: 417px; margin-right: 200px;""><img src=""images/demo_images/choice_trial_1.png"" style=""width: 408px; height: 417px;""></div></div>",j,delaylearn,learning,trial,mxfavF5YdvbJDxWwvO8nmCs5ZZv2,mxfavF5YdvbJDxWwvO8nmCs5ZZv2,1.0,images/demo_images/choice_trial_2.png,images/demo_images/choice_trial_1.png,images/demo_images/pattern_1.png,j,j,3000.0,2.0,1.0,20.0,1.0,2.0,1.0,1.0,1.0,10.0,,,,,,5eb85799cc3ea50a5f3591ad,16:42:28,27/03/2024
html-keyboard-response,8,14212,0.0-4.0-1.0,,"<div style=""display: flex; flex-direction: column; align-items: center; margin-top: -40px;""><img src=""images/demo_images/pattern_1.png"" style=""width: 234px; height: 230px; margin-top: -50px;""><div style=""display: flex; justify-content: space-between; margin-top: 33px;""><img src=""images/demo_images/choice_trial_1.png"" style=""width: 408px; height: 417px; margin-left:608px;""></div></div>",,delaylearn,learning,display_response,mxfavF5YdvbJDxWwvO8nmCs5ZZv2,mxfavF5YdvbJDxWwvO8nmCs5ZZv2,,,,,,,,,,,,,,,,,chosen stimuli: images/demo_images/choice_trial_1.png,,,,,5eb85799cc3ea50a5f3591ad,16:42:28,27/03/2024
html-keyboard-response,9,17213,0.0-4.0-2.0,,,,delaylearn,learning,feedback_duration_window,mxfavF5YdvbJDxWwvO8nmCs5ZZv2,mxfavF5YdvbJDxWwvO8nmCs5ZZv2,,,,,,,,,,,,,,,,,,3000.0,,,,5eb85799cc3ea50a5f3591ad,16:42:28,27/03/2024
html-keyboard-response,10,18715,0.0-4.0-3.0,,<div style='margin:auto;width: auto; font-size: 150%'><span style='font-weight: bold; font-size: 100px; color: green;'>+10 points!</span><br><br></div>,,delaylearn,learning,feedback_image_window,mxfavF5YdvbJDxWwvO8nmCs5ZZv2,mxfavF5YdvbJDxWwvO8nmCs5ZZv2,,,,,,,,,,,,,,,,,,,,,,5eb85799cc3ea50a5f3591ad,16:42:28,27/03/2024
html-keyboard-response,11,20687,0.0-5.0,,"<div style=""font-size:100px;"">+</div>",,delaylearn,learning,ITI,mxfavF5YdvbJDxWwvO8nmCs5ZZv2,mxfavF5YdvbJDxWwvO8nmCs5ZZv2,,,,,,,,,,,,,,,,,,,1971.0,,,5eb85799cc3ea50a5f3591ad,16:42:28,27/03/2024
html-keyboard-response,12,21313,0.0-6.0-0.0,623.7999999970198,"<div style=""display: flex; flex-direction: column; align-items: center; margin-top: -40px;""><img src=""images/demo_images/pattern_1.png"" style=""width: 234px; height: 230px; margin-top: -50px;""><div style=""display: flex; justify-content: space-between; margin-top: 33px;""><img src=""images/demo_images/choice_trial_1.png"" style=""width: 408px; height: 417px; margin-right: 200px;""><img src=""images/demo_images/choice_trial_2.png"" style=""width: 408px; height: 417px;""></div></div>",f,delaylearn,learning,trial,mxfavF5YdvbJDxWwvO8nmCs5ZZv2,mxfavF5YdvbJDxWwvO8nmCs5ZZv2,1.0,images/demo_images/choice_trial_1.png,images/demo_images/choice_trial_2.png,images/demo_images/pattern_1.png,j,f,3000.0,1.0,2.0,20.0,0.0,3.0,1.0,0.0,1.0,10.0,,,,,,5eb85799cc3ea50a5f3591ad,16:42:28,27/03/2024
html-keyboard-response,13,22314,0.0-6.0-1.0,,"<div style=""display: flex; flex-direction: column; align-items: center; margin-top: -40px;""><img src=""images/demo_images/pattern_1.png"" style=""width: 234px; height: 230px; margin-top: -50px;""><div style=""display: flex; justify-content: space-between; margin-top: 33px;""><img src=""images/demo_images/choice_trial_1.png"" style=""width: 408px; height: 417px; margin-right: 608px;""></div></div>",,delaylearn,learning,display_response,mxfavF5YdvbJDxWwvO8nmCs5ZZv2,mxfavF5YdvbJDxWwvO8nmCs5ZZv2,,,,,,,,,,,,,,,,,chosen stimuli: images/demo_images/choice_trial_1.png,,,,,5eb85799cc3ea50a5f3591ad,16:42:28,27/03/2024
html-keyboard-response,14,25316,0.0-6.0-2.0,,,,delaylearn,learning,feedback_duration_window,mxfavF5YdvbJDxWwvO8nmCs5ZZv2,mxfavF5YdvbJDxWwvO8nmCs5ZZv2,,,,,,,,,,,,,,,,,,3000.0,,,,5eb85799cc3ea50a5f3591ad,16:42:28,27/03/2024
html-keyboard-response,15,26817,0.0-6.0-3.0,,<div style='margin:auto;width: auto; font-size: 150%'><span style='font-weight: bold; font-size: 100px; color: red;'>0 points!</span><br><br></div>,,delaylearn,learning,feedback_image_window,mxfavF5YdvbJDxWwvO8nmCs5ZZv2,mxfavF5YdvbJDxWwvO8nmCs5ZZv2,,,,,,,,,,,,,,,,,,,,,,5eb85799cc3ea50a5f3591ad,16:42:28,27/03/2024
html-keyboard-response,16,29086,0.0-7.0,,"<div style=""font-size:100px;"">+</div>",,delaylearn,learning,ITI,mxfavF5YdvbJDxWwvO8nmCs5ZZv2,mxfavF5YdvbJDxWwvO8nmCs5ZZv2,,,,,,,,,,,,,,,,,,,2267.0,,,5eb85799cc3ea50a5f3591ad,16:42:28,27/03/2024
html-keyboard-response,17,31427,0.0-8.0-0.0,2339.3000000044703,"<div style=""display: flex; flex-direction: column; align-items: center; margin-top: -40px;""><img src=""images/demo_images/pattern_1.png"" style=""width: 234px; height: 230px; margin-top: -50px;""><div style=""display: flex; justify-content: space-between; margin-top: 33px;""><img src=""images/demo_images/choice_trial_1.png"" style=""width: 408px; height: 417px; margin-right: 200px;""><img src=""images/demo_images/choice_trial_2.png"" style=""width: 408px; height: 417px;""></div></div>",f,delaylearn,learning,trial,mxfavF5YdvbJDxWwvO8nmCs5ZZv2,mxfavF5YdvbJDxWwvO8nmCs5ZZv2,1.0,images/demo_images/choice_trial_1.png,images/demo_images/choice_trial_2.png,images/demo_images/pattern_1.png,f,f,3000.0,1.0,2.0,20.0,0.0,4.0,1.0,1.0,1.0,20.0,,,,,,5eb85799cc3ea50a5f3591ad,16:42:28,27/03/2024
html-keyboard-response,18,32429,0.0-8.0-1.0,,"<div style=""display: flex; flex-direction: column; align-items: center; margin-top: -40px;""><img src=""images/demo_images/pattern_1.png"" style=""width: 234px; height: 230px; margin-top: -50px;""><div style=""display: flex; justify-content: space-between; margin-top: 33px;""><img src=""images/demo_images/choice_trial_1.png"" style=""width: 408px; height: 417px; margin-right: 608px;""></div></div>",,delaylearn,learning,display_response,mxfavF5YdvbJDxWwvO8nmCs5ZZv2,mxfavF5YdvbJDxWwvO8nmCs5ZZv2,,,,,,,,,,,,,,,,,chosen stimuli: images/demo_images/choice_trial_1.png,,,,,5eb85799cc3ea50a5f3591ad,16:42:28,27/03/2024
html-keyboard-response,19,35430,0.0-8.0-2.0,,,,delaylearn,learning,feedback_duration_window,mxfavF5YdvbJDxWwvO8nmCs5ZZv2,mxfavF5YdvbJDxWwvO8nmCs5ZZv2,,,,,,,,,,,,,,,,,,3000.0,,,,5eb85799cc3ea50a5f3591ad,16:42:28,27/03/2024
html-keyboard-response,20,36932,0.0-8.0-3.0,,<div style='margin:auto;width: auto; font-size: 150%'><span style='font-weight: bold; font-size: 100px; color: green;'>+10 points!</span><br><br></div>,,delaylearn,learning,feedback_image_window,mxfavF5YdvbJDxWwvO8nmCs5ZZv2,mxfavF5YdvbJDxWwvO8nmCs5ZZv2,,,,,,,,,,,,,,,,,,,,,,5eb85799cc3ea50a5f3591ad,16:42:28,27/03/2024
html-keyboard-response,21,37433,0.0-9.0-0.0,,,,,,mood_trial_fixation,mxfavF5YdvbJDxWwvO8nmCs5ZZv2,,,,,,,,,,,,,,,,,,,,,,,5eb85799cc3ea50a5f3591ad,16:42:28,27/03/2024
lmdlab-html-vas-response,22,41640,0.0-9.0-1.0,3196.0,How happy are you right now?,0.6574074074074074,delaylearn,learning,mood_trial,mxfavF5YdvbJDxWwvO8nmCs5ZZv2,mxfavF5YdvbJDxWwvO8nmCs5ZZv2,,,,,,,,,,,,,,,,,,,,"['Very unhappy', 'Very happy']",,5eb85799cc3ea50a5f3591ad,16:42:28,27/03/2024
html-keyboard-response,23,43829,0.0-10.0,,"<div style=""font-size:100px;"">+</div>",,delaylearn,learning,ITI,mxfavF5YdvbJDxWwvO8nmCs5ZZv2,mxfavF5YdvbJDxWwvO8nmCs5ZZv2,,,,,,,,,,,,,,,,,,,2187.0,,,5eb85799cc3ea50a5f3591ad,16:42:28,27/03/2024
html-keyboard-response,24,45512,0.0-11.0-0.0,1681.7999999970198,"<div style=""display: flex; flex-direction: column; align-items: center; margin-top: -40px;""><img src=""images/demo_images/pattern_1.png"" style=""width: 234px; height: 230px; margin-top: -50px;""><div style=""display: flex; justify-content: space-between; margin-top: 33px;""><img src=""images/demo_images/choice_trial_2.png"" style=""width: 408px; height: 417px; margin-right: 200px;""><img src=""images/demo_images/choice_trial_1.png"" style=""width: 408px; height: 417px;""></div></div>",f,delaylearn,learning,trial,mxfavF5YdvbJDxWwvO8nmCs5ZZv2,mxfavF5YdvbJDxWwvO8nmCs5ZZv2,1.0,images/demo_images/choice_trial_2.png,images/demo_images/choice_trial_1.png,images/demo_images/pattern_1.png,j,j,3000.0,2.0,1.0,20.0,1.0,5.0,0.0,0.0,2.0,20.0,,,,,,5eb85799cc3ea50a5f3591ad,16:42:28,27/03/2024
html-keyboard-response,25,46515,0.0-11.0-1.0,,"<div style=""display: flex; flex-direction: column; align-items: center; margin-top: -40px;""><img src=""images/demo_images/pattern_1.png"" style=""width: 234px; height: 230px; margin-top: -50px;""><div style=""display: flex; justify-content: space-between; margin-top: 33px;""><img src=""images/demo_images/choice_trial_2.png"" style=""width: 408px; height: 417px; margin-right: 608px;""></div></div>",,delaylearn,learning,display_response,mxfavF5YdvbJDxWwvO8nmCs5ZZv2,mxfavF5YdvbJDxWwvO8nmCs5ZZv2,,,,,,,,,,,,,,,,,chosen stimuli: images/demo_images/choice_trial_2.png,,,,,5eb85799cc3ea50a5f3591ad,16:42:28,27/03/2024
html-keyboard-response,26,49516,0.0-11.0-2.0,,,,delaylearn,learning,feedback_duration_window,mxfavF5YdvbJDxWwvO8nmCs5ZZv2,mxfavF5YdvbJDxWwvO8nmCs5ZZv2,,,,,,,,,,,,,,,,,,3000.0,,,,5eb85799cc3ea50a5f3591ad,16:42:28,27/03/2024
html-keyboard-response,27,51017,0.0-11.0-3.0,,<div style='margin:auto;width: auto; font-size: 150%'><span style='font-weight: bold; font-size: 100px; color: red;'>0 points!</span><br><br></div>,,delaylearn,learning,feedback_image_window,mxfavF5YdvbJDxWwvO8nmCs5ZZv2,mxfavF5YdvbJDxWwvO8nmCs5ZZv2,,,,,,,,,,,,,,,,,,,,,,5eb85799cc3ea50a5f3591ad,16:42:28,27/03/2024
html-keyboard-response,28,52537,0.0-12.0,,"<div style=""font-size:100px;"">+</div>",,delaylearn,learning,ITI,mxfavF5YdvbJDxWwvO8nmCs5ZZv2,mxfavF5YdvbJDxWwvO8nmCs5ZZv2,,,,,,,,,,,,,,,,,,,1519.0,,,5eb85799cc3ea50a5f3591ad,16:42:28,27/03/2024
html-keyboard-response,29,53852,0.0-13.0-0.0,1314.5,"<div style=""display: flex; flex-direction: column; align-items: center; margin-top: -40px;""><img src=""images/demo_images/pattern_1.png"" style=""width: 234px; height: 230px; margin-top: -50px;""><div style=""display: flex; justify-content: space-between; margin-top: 33px;""><img src=""images/demo_images/choice_trial_1.png"" style=""width: 408px; height: 417px; margin-right: 200px;""><img src=""images/demo_images/choice_trial_2.png"" style=""width: 408px; height: 417px;""></div></div>",f,delaylearn,learning,trial,mxfavF5YdvbJDxWwvO8nmCs5ZZv2,mxfavF5YdvbJDxWwvO8nmCs5ZZv2,1.0,images/demo_images/choice_trial_1.png,images/demo_images/choice_trial_2.png,images/demo_images/pattern_1.png,f,f,3000.0,1.0,2.0,20.0,0.0,6.0,1.0,1.0,1.0,30.0,,,,,,5eb85799cc3ea50a5f3591ad,16:42:28,27/03/2024
html-keyboard-response,30,54854,0.0-13.0-1.0,,"<div style=""display: flex; flex-direction: column; align-items: center; margin-top: -40px;""><img src=""images/demo_images/pattern_1.png"" style=""width: 234px; height: 230px; margin-top: -50px;""><div style=""display: flex; justify-content: space-between; margin-top: 33px;""><img src=""images/demo_images/choice_trial_1.png"" style=""width: 408px; height: 417px; margin-right: 608px;""></div></div>",,delaylearn,learning,display_response,mxfavF5YdvbJDxWwvO8nmCs5ZZv2,mxfavF5YdvbJDxWwvO8nmCs5ZZv2,,,,,,,,,,,,,,,,,chosen stimuli: images/demo_images/choice_trial_1.png,,,,,5eb85799cc3ea50a5f3591ad,16:42:28,27/03/2024
html-keyboard-response,31,57855,0.0-13.0-2.0,,,,delaylearn,learning,feedback_duration_window,mxfavF5YdvbJDxWwvO8nmCs5ZZv2,mxfavF5YdvbJDxWwvO8nmCs5ZZv2,,,,,,,,,,,,,,,,,,3000.0,,,,5eb85799cc3ea50a5f3591ad,16:42:28,27/03/2024
html-keyboard-response,32,59356,0.0-13.0-3.0,,<div style='margin:auto;width: auto; font-size: 150%'><span style='font-weight: bold; font-size: 100px; color: green;'>+10 points!</span><br><br></div>,,delaylearn,learning,feedback_image_window,mxfavF5YdvbJDxWwvO8nmCs5ZZv2,mxfavF5YdvbJDxWwvO8nmCs5ZZv2,,,,,,,,,,,,,,,,,,,,,,5eb85799cc3ea50a5f3591ad,16:42:28,27/03/2024
html-keyboard-response,33,61492,0.0-14.0,,"<div style=""font-size:100px;"">+</div>",,delaylearn,learning,ITI,mxfavF5YdvbJDxWwvO8nmCs5ZZv2,mxfavF5YdvbJDxWwvO8nmCs5ZZv2,,,,,,,,,,,,,,,,,,,2135.0,,,5eb85799cc3ea50a5f3591ad,16:42:28,27/03/2024
html-keyboard-response,34,62116,0.0-15.0-0.0,622.2000000029802,"<div style=""display: flex; flex-direction: column; align-items: center; margin-top: -40px;""><img src=""images/demo_images/pattern_1.png"" style=""width: 234px; height: 230px; margin-top: -50px;""><div style=""display: flex; justify-content: space-between; margin-top: 33px;""><img src=""images/demo_images/choice_trial_2.png"" style=""width: 408px; height: 417px; margin-right: 200px;""><img src=""images/demo_images/choice_trial_1.png"" style=""width: 408px; height: 417px;""></div></div>",j,delaylearn,learning,trial,mxfavF5YdvbJDxWwvO8nmCs5ZZv2,mxfavF5YdvbJDxWwvO8nmCs5ZZv2,1.0,images/demo_images/choice_trial_2.png,images/demo_images/choice_trial_1.png,images/demo_images/pattern_1.png,j,j,3000.0,2.0,1.0,20.0,1.0,7.0,1.0,1.0,1.0,40.0,,,,,,5eb85799cc3ea50a5f3591ad,16:42:28,27/03/2024
html-keyboard-response,35,63118,0.0-15.0-1.0,,"<div style=""display: flex; flex-direction: column; align-items: center; margin-top: -40px;""><img src=""images/demo_images/pattern_1.png"" style=""width: 234px; height: 230px; margin-top: -50px;""><div style=""display: flex; justify-content: space-between; margin-top: 33px;""><img src=""images/demo_images/choice_trial_1.png"" style=""width: 408px; height: 417px; margin-left:608px;""></div></div>",,delaylearn,learning,display_response,mxfavF5YdvbJDxWwvO8nmCs5ZZv2,mxfavF5YdvbJDxWwvO8nmCs5ZZv2,,,,,,,,,,,,,,,,,chosen stimuli: images/demo_images/choice_trial_1.png,,,,,5eb85799cc3ea50a5f3591ad,16:42:28,27/03/2024
html-keyboard-response,36,66120,0.0-15.0-2.0,,,,delaylearn,learning,feedback_duration_window,mxfavF5YdvbJDxWwvO8nmCs5ZZv2,mxfavF5YdvbJDxWwvO8nmCs5ZZv2,,,,,,,,,,,,,,,,,,3000.0,,,,5eb85799cc3ea50a5f3591ad,16:42:28,27/03/2024
html-keyboard-response,37,67621,0.0-15.0-3.0,,<div style='margin:auto;width: auto; font-size: 150%'><span style='font-weight: bold; font-size: 100px; color: green;'>+10 points!</span><br><br></div>,,delaylearn,learning,feedback_image_window,mxfavF5YdvbJDxWwvO8nmCs5ZZv2,mxfavF5YdvbJDxWwvO8nmCs5ZZv2,,,,,,,,,,,,,,,,,,,,,,5eb85799cc3ea50a5f3591ad,16:42:28,27/03/2024
html-keyboard-response,38,69374,0.0-16.0,,"<div style=""font-size:100px;"">+</div>",,delaylearn,learning,ITI,mxfavF5YdvbJDxWwvO8nmCs5ZZv2,mxfavF5YdvbJDxWwvO8nmCs5ZZv2,,,,,,,,,,,,,,,,,,,1752.0,,,5eb85799cc3ea50a5f3591ad,16:42:28,27/03/2024
html-keyboard-response,39,69982,0.0-17.0-0.0,606.0,"<div style=""display: flex; flex-direction: column; align-items: center; margin-top: -40px;""><img src=""images/demo_images/pattern_1.png"" style=""width: 234px; height: 230px; margin-top: -50px;""><div style=""display: flex; justify-content: space-between; margin-top: 33px;""><img src=""images/demo_images/choice_trial_1.png"" style=""width: 408px; height: 417px; margin-right: 200px;""><img src=""images/demo_images/choice_trial_2.png"" style=""width: 408px; height: 417px;""></div></div>",f,delaylearn,learning,trial,mxfavF5YdvbJDxWwvO8nmCs5ZZv2,mxfavF5YdvbJDxWwvO8nmCs5ZZv2,1.0,images/demo_images/choice_trial_1.png,images/demo_images/choice_trial_2.png,images/demo_images/pattern_1.png,f,f,3000.0,1.0,2.0,20.0,0.0,8.0,1.0,1.0,1.0,50.0,,,,,,5eb85799cc3ea50a5f3591ad,16:42:28,27/03/2024
html-keyboard-response,40,70983,0.0-17.0-1.0,,"<div style=""display: flex; flex-direction: column; align-items: center; margin-top: -40px;""><img src=""images/demo_images/pattern_1.png"" style=""width: 234px; height: 230px; margin-top: -50px;""><div style=""display: flex; justify-content: space-between; margin-top: 33px;""><img src=""images/demo_images/choice_trial_1.png"" style=""width: 408px; height: 417px; margin-right: 608px;""></div></div>",,delaylearn,learning,display_response,mxfavF5YdvbJDxWwvO8nmCs5ZZv2,mxfavF5YdvbJDxWwvO8nmCs5ZZv2,,,,,,,,,,,,,,,,,chosen stimuli: images/demo_images/choice_trial_1.png,,,,,5eb85799cc3ea50a5f3591ad,16:42:28,27/03/2024
html-keyboard-response,41,73985,0.0-17.0-2.0,,,,delaylearn,learning,feedback_duration_window,mxfavF5YdvbJDxWwvO8nmCs5ZZv2,mxfavF5YdvbJDxWwvO8nmCs5ZZv2,,,,,,,,,,,,,,,,,,3000.0,,,,5eb85799cc3ea50a5f3591ad,16:42:28,27/03/2024
html-keyboard-response,42,75487,0.0-17.0-3.0,,<div style='margin:auto;width: auto; font-size: 150%'><span style='font-weight: bold; font-size: 100px; color: green;'>+10 points!</span><br><br></div>,,delaylearn,learning,feedback_image_window,mxfavF5YdvbJDxWwvO8nmCs5ZZv2,mxfavF5YdvbJDxWwvO8nmCs5ZZv2,,,,,,,,,,,,,,,,,,,,,,5eb85799cc3ea50a5f3591ad,16:42:28,27/03/2024
html-button-response,43,78904,0.0-18.0,3415.2999999970198,"
  <div style=""display: flex; align-items: center; justify-content: center; height: 80vh;"">
  <div>
          <img src=""images/inst_demo_finish.png"" style=""width: 80vw; height:auto;"">
          <br><br>
      </div>
      <br><br>
  </div>",0,,,,mxfavF5YdvbJDxWwvO8nmCs5ZZv2,,,,,,,,,,,,,,,,,,,,,,,5eb85799cc3ea50a5f3591ad,16:42:28,27/03/2024
html-keyboard-response,44,83395,0.0-19.0,4490.39999999851,"
  <div style=""display: flex; align-items: center; justify-content: center; height: 80vh;"">
  <div>
          <img src=""images/inst_6.png"" style=""width: 80vw; height:auto;"">
          <br><br>
      </div>
      <br><br>
  </div>",j,,,,mxfavF5YdvbJDxWwvO8nmCs5ZZv2,,,,,,,,,,,,,,,,,,,,,,,5eb85799cc3ea50a5f3591ad,16:42:28,27/03/2024
html-keyboard-response,45,86396,0.0-20.0,,"<div style=""font-size:100px;"">+</div>",,delaylearn,learning,pre_fixation,mxfavF5YdvbJDxWwvO8nmCs5ZZv2,,,,,,,,,,,,,,,,,,,,,,,5eb85799cc3ea50a5f3591ad,16:42:28,27/03/2024
html-keyboard-response,46,88708,0.0-21.0,,"<div style=""font-size:100px;"">+</div>",,delaylearn,learning,ITI,mxfavF5YdvbJDxWwvO8nmCs5ZZv2,mxfavF5YdvbJDxWwvO8nmCs5ZZv2,,,,,,,,,,,,,,,,,,,2310.0,,,5eb85799cc3ea50a5f3591ad,16:42:28,27/03/2024
html-keyboard-response,47,89538,0.0-22.0-0.0,828.8999999985099,"<div style=""display: flex; flex-direction: column; align-items: center; margin-top: -40px;""><img src=""images/pattern_3.png"" style=""width: 234px; height: 230px; margin-top: -50px;""><div style=""display: flex; justify-content: space-between; margin-top: 33px;""><img src=""images/choice_trial_5.png"" style=""width: 408px; height: 417px; margin-right: 200px;""><img src=""images/choice_trial_6.png"" style=""width: 408px; height: 417px;""></div></div>",j,delaylearn,learning,trial,mxfavF5YdvbJDxWwvO8nmCs5ZZv2,mxfavF5YdvbJDxWwvO8nmCs5ZZv2,1.0,images/choice_trial_5.png,images/choice_trial_6.png,images/pattern_3.png,f,f,7000.0,5.0,6.0,2.0,0.0,9.0,0.0,0.0,6.0,50.0,,,,,,5eb85799cc3ea50a5f3591ad,16:42:28,27/03/2024
html-keyboard-response,48,90539,0.0-22.0-1.0,,"<div style=""display: flex; flex-direction: column; align-items: center; margin-top: -40px;""><img src=""images/pattern_3.png"" style=""width: 234px; height: 230px; margin-top: -50px;""><div style=""display: flex; justify-content: space-between; margin-top: 33px;""><img src=""images/choice_trial_6.png"" style=""width: 408px; height: 417px; margin-left:608px;""></div></div>",,delaylearn,learning,display_response,mxfavF5YdvbJDxWwvO8nmCs5ZZv2,mxfavF5YdvbJDxWwvO8nmCs5ZZv2,,,,,,,,,,,,,,,,,chosen stimuli: images/choice_trial_6.png,,,,,5eb85799cc3ea50a5f3591ad,16:42:28,27/03/2024
html-keyboard-response,49,97540,0.0-22.0-2.0,,,,delaylearn,learning,feedback_duration_window,mxfavF5YdvbJDxWwvO8nmCs5ZZv2,mxfavF5YdvbJDxWwvO8nmCs5ZZv2,,,,,,,,,,,,,,,,,,7000.0,,,,5eb85799cc3ea50a5f3591ad,16:42:28,27/03/2024
html-keyboard-response,50,99042,0.0-22.0-3.0,,<div style='margin:auto;width: auto; font-size: 150%'><span style='font-weight: bold; font-size: 100px; color: red;'>0 points!</span><br><br></div>,,delaylearn,learning,feedback_image_window,mxfavF5YdvbJDxWwvO8nmCs5ZZv2,mxfavF5YdvbJDxWwvO8nmCs5ZZv2,,,,,,,,,,,,,,,,,,,,,,5eb85799cc3ea50a5f3591ad,16:42:28,27/03/2024
html-keyboard-response,51,100627,0.0-23.0,,"<div style=""font-size:100px;"">+</div>",,delaylearn,learning,ITI,mxfavF5YdvbJDxWwvO8nmCs5ZZv2,mxfavF5YdvbJDxWwvO8nmCs5ZZv2,,,,,,,,,,,,,,,,,,,1583.0,,,5eb85799cc3ea50a5f3591ad,16:42:28,27/03/2024
html-keyboard-response,52,103103,0.0-24.0-0.0,2475.39999999851,"<div style=""display: flex; flex-direction: column; align-items: center; margin-top: -40px;""><img src=""images/pattern_7.png"" style=""width: 234px; height: 230px; margin-top: -50px;""><div style=""display: flex; justify-content: space-between; margin-top: 33px;""><img src=""images/choice_trial_14.png"" style=""width: 408px; height: 417px; margin-right: 200px;""><img src=""images/choice_trial_13.png"" style=""width: 408px; height: 417px;""></div></div>",j,delaylearn,learning,trial,mxfavF5YdvbJDxWwvO8nmCs5ZZv2,mxfavF5YdvbJDxWwvO8nmCs5ZZv2,1.0,images/choice_trial_14.png,images/choice_trial_13.png,images/pattern_7.png,j,j,750.0,14.0,13.0,6.0,1.0,10.0,1.0,1.0,13.0,60.0,,,,,,5eb85799cc3ea50a5f3591ad,16:42:28,27/03/2024
html-keyboard-response,53,104105,0.0-24.0-1.0,,"<div style=""display: flex; flex-direction: column; align-items: center; margin-top: -40px;""><img src=""images/pattern_7.png"" style=""width: 234px; height: 230px; margin-top: -50px;""><div style=""display: flex; justify-content: space-between; margin-top: 33px;""><img src=""images/choice_trial_13.png"" style=""width: 408px; height: 417px; margin-left:608px;""></div></div>",,delaylearn,learning,display_response,mxfavF5YdvbJDxWwvO8nmCs5ZZv2,mxfavF5YdvbJDxWwvO8nmCs5ZZv2,,,,,,,,,,,,,,,,,chosen stimuli: images/choice_trial_13.png,,,,,5eb85799cc3ea50a5f3591ad,16:42:28,27/03/2024
html-keyboard-response,54,104856,0.0-24.0-2.0,,,,delaylearn,learning,feedback_duration_window,mxfavF5YdvbJDxWwvO8nmCs5ZZv2,mxfavF5YdvbJDxWwvO8nmCs5ZZv2,,,,,,,,,,,,,,,,,,750.0,,,,5eb85799cc3ea50a5f3591ad,16:42:28,27/03/2024
html-keyboard-response,55,106358,0.0-24.0-3.0,,<div style='margin:auto;width: auto; font-size: 150%'><span style='font-weight: bold; font-size: 100px; color: green;'>+10 points!</span><br><br></div>,,delaylearn,learning,feedback_image_window,mxfavF5YdvbJDxWwvO8nmCs5ZZv2,mxfavF5YdvbJDxWwvO8nmCs5ZZv2,,,,,,,,,,,,,,,,,,,,,,5eb85799cc3ea50a5f3591ad,16:42:28,27/03/2024
html-keyboard-response,56,108640,0.0-25.0,,"<div style=""font-size:100px;"">+</div>",,delaylearn,learning,ITI,mxfavF5YdvbJDxWwvO8nmCs5ZZv2,mxfavF5YdvbJDxWwvO8nmCs5ZZv2,,,,,,,,,,,,,,,,,,,2281.0,,,5eb85799cc3ea50a5f3591ad,16:42:28,27/03/2024
html-keyboard-response,57,110890,0.0-26.0-0.0,2248.89999999851,"<div style=""display: flex; flex-direction: column; align-items: center; margin-top: -40px;""><img src=""images/pattern_4.png"" style=""width: 234px; height: 230px; margin-top: -50px;""><div style=""display: flex; justify-content: space-between; margin-top: 33px;""><img src=""images/choice_trial_7.png"" style=""width: 408px; height: 417px; margin-right: 200px;""><img src=""images/choice_trial_8.png"" style=""width: 408px; height: 417px;""></div></div>",f,delaylearn,learning,trial,mxfavF5YdvbJDxWwvO8nmCs5ZZv2,mxfavF5YdvbJDxWwvO8nmCs5ZZv2,1.0,images/choice_trial_7.png,images/choice_trial_8.png,images/pattern_4.png,f,f,7000.0,7.0,8.0,3.0,0.0,11.0,1.0,1.0,7.0,70.0,,,,,,5eb85799cc3ea50a5f3591ad,16:42:28,27/03/2024
html-keyboard-response,58,111892,0.0-26.0-1.0,,"<div style=""display: flex; flex-direction: column; align-items: center; margin-top: -40px;""><img src=""images/pattern_4.png"" style=""width: 234px; height: 230px; margin-top: -50px;""><div style=""display: flex; justify-content: space-between; margin-top: 33px;""><img src=""images/choice_trial_7.png"" style=""width: 408px; height: 417px; margin-right: 608px;""></div></div>",,delaylearn,learning,display_response,mxfavF5YdvbJDxWwvO8nmCs5ZZv2,mxfavF5YdvbJDxWwvO8nmCs5ZZv2,,,,,,,,,,,,,,,,,chosen stimuli: images/choice_trial_7.png,,,,,5eb85799cc3ea50a5f3591ad,16:42:28,27/03/2024
html-keyboard-response,59,118893,0.0-26.0-2.0,,,,delaylearn,learning,feedback_duration_window,mxfavF5YdvbJDxWwvO8nmCs5ZZv2,mxfavF5YdvbJDxWwvO8nmCs5ZZv2,,,,,,,,,,,,,,,,,,7000.0,,,,5eb85799cc3ea50a5f3591ad,16:42:28,27/03/2024
html-keyboard-response,60,120395,0.0-26.0-3.0,,<div style='margin:auto;width: auto; font-size: 150%'><span style='font-weight: bold; font-size: 100px; color: green;'>+10 points!</span><br><br></div>,,delaylearn,learning,feedback_image_window,mxfavF5YdvbJDxWwvO8nmCs5ZZv2,mxfavF5YdvbJDxWwvO8nmCs5ZZv2,,,,,,,,,,,,,,,,,,,,,,5eb85799cc3ea50a5f3591ad,16:42:28,27/03/2024
html-keyboard-response,61,122589,0.0-27.0,,"<div style=""font-size:100px;"">+</div>",,delaylearn,learning,ITI,mxfavF5YdvbJDxWwvO8nmCs5ZZv2,mxfavF5YdvbJDxWwvO8nmCs5ZZv2,,,,,,,,,,,,,,,,,,,2193.0,,,5eb85799cc3ea50a5f3591ad,16:42:28,27/03/2024
html-keyboard-response,62,124536,0.0-28.0-0.0,1944.9000000059605,"<div style=""display: flex; flex-direction: column; align-items: center; margin-top: -40px;""><img src=""images/pattern_5.png"" style=""width: 234px; height: 230px; margin-top: -50px;""><div style=""display: flex; justify-content: space-between; margin-top: 33px;""><img src=""images/choice_trial_10.png"" style=""width: 408px; height: 417px; margin-right: 200px;""><img src=""images/choice_trial_9.png"" style=""width: 408px; height: 417px;""></div></div>",j,delaylearn,learning,trial,mxfavF5YdvbJDxWwvO8nmCs5ZZv2,mxfavF5YdvbJDxWwvO8nmCs5ZZv2,1.0,images/choice_trial_10.png,images/choice_trial_9.png,images/pattern_5.png,j,j,750.0,10.0,9.0,4.0,1.0,12.0,1.0,1.0,9.0,80.0,,,,,,5eb85799cc3ea50a5f3591ad,16:42:28,27/03/2024
html-keyboard-response,63,125537,0.0-28.0-1.0,,"<div style=""display: flex; flex-direction: column; align-items: center; margin-top: -40px;""><img src=""images/pattern_5.png"" style=""width: 234px; height: 230px; margin-top: -50px;""><div style=""display: flex; justify-content: space-between; margin-top: 33px;""><img src=""images/choice_trial_9.png"" style=""width: 408px; height: 417px; margin-left:608px;""></div></div>",,delaylearn,learning,display_response,mxfavF5YdvbJDxWwvO8nmCs5ZZv2,mxfavF5YdvbJDxWwvO8nmCs5ZZv2,,,,,,,,,,,,,,,,,chosen stimuli: images/choice_trial_9.png,,,,,5eb85799cc3ea50a5f3591ad,16:42:28,27/03/2024
html-keyboard-response,64,126288,0.0-28.0-2.0,,,,delaylearn,learning,feedback_duration_window,mxfavF5YdvbJDxWwvO8nmCs5ZZv2,mxfavF5YdvbJDxWwvO8nmCs5ZZv2,,,,,,,,,,,,,,,,,,750.0,,,,5eb85799cc3ea50a5f3591ad,16:42:28,27/03/2024
html-keyboard-response,65,127789,0.0-28.0-3.0,,<div style='margin:auto;width: auto; font-size: 150%'><span style='font-weight: bold; font-size: 100px; color: green;'>+10 points!</span><br><br></div>,,delaylearn,learning,feedback_image_window,mxfavF5YdvbJDxWwvO8nmCs5ZZv2,mxfavF5YdvbJDxWwvO8nmCs5ZZv2,,,,,,,,,,,,,,,,,,,,,,5eb85799cc3ea50a5f3591ad,16:42:28,27/03/2024
html-keyboard-response,66,129799,0.0-29.0,,"<div style=""font-size:100px;"">+</div>",,delaylearn,learning,ITI,mxfavF5YdvbJDxWwvO8nmCs5ZZv2,mxfavF5YdvbJDxWwvO8nmCs5ZZv2,,,,,,,,,,,,,,,,,,,2009.0,,,5eb85799cc3ea50a5f3591ad,16:42:28,27/03/2024
html-keyboard-response,67,131892,0.0-30.0-0.0,2091.10000000149,"<div style=""display: flex; flex-direction: column; align-items: center; margin-top: -40px;""><img src=""images/pattern_6.png"" style=""width: 234px; height: 230px; margin-top: -50px;""><div style=""display: flex; justify-content: space-between; margin-top: 33px;""><img src=""images/choice_trial_11.png"" style=""width: 408px; height: 417px; margin-right: 200px;""><img src=""images/choice_trial_12.png"" style=""width: 408px; height: 417px;""></div></div>",f,delaylearn,learning,trial,mxfavF5YdvbJDxWwvO8nmCs5ZZv2,mxfavF5YdvbJDxWwvO8nmCs5ZZv2,1.0,images/choice_trial_11.png,images/choice_trial_12.png,images/pattern_6.png,j,f,750.0,11.0,12.0,5.0,0.0,13.0,1.0,0.0,11.0,80.0,,,,,,5eb85799cc3ea50a5f3591ad,16:42:28,27/03/2024
html-keyboard-response,68,132894,0.0-30.0-1.0,,"<div style=""display: flex; flex-direction: column; align-items: center; margin-top: -40px;""><img src=""images/pattern_6.png"" style=""width: 234px; height: 230px; margin-top: -50px;""><div style=""display: flex; justify-content: space-between; margin-top: 33px;""><img src=""images/choice_trial_11.png"" style=""width: 408px; height: 417px; margin-right: 608px;""></div></div>",,delaylearn,learning,display_response,mxfavF5YdvbJDxWwvO8nmCs5ZZv2,mxfavF5YdvbJDxWwvO8nmCs5ZZv2,,,,,,,,,,,,,,,,,chosen stimuli: images/choice_trial_11.png,,,,,5eb85799cc3ea50a5f3591ad,16:42:28,27/03/2024
html-keyboard-response,69,133645,0.0-30.0-2.0,,,,delaylearn,learning,feedback_duration_window,mxfavF5YdvbJDxWwvO8nmCs5ZZv2,mxfavF5YdvbJDxWwvO8nmCs5ZZv2,,,,,,,,,,,,,,,,,,750.0,,,,5eb85799cc3ea50a5f3591ad,16:42:28,27/03/2024
html-keyboard-response,70,135147,0.0-30.0-3.0,,<div style='margin:auto;width: auto; font-size: 150%'><span style='font-weight: bold; font-size: 100px; color: red;'>0 points!</span><br><br></div>,,delaylearn,learning,feedback_image_window,mxfavF5YdvbJDxWwvO8nmCs5ZZv2,mxfavF5YdvbJDxWwvO8nmCs5ZZv2,,,,,,,,,,,,,,,,,,,,,,5eb85799cc3ea50a5f3591ad,16:42:28,27/03/2024
html-keyboard-response,71,135648,0.0-31.0-0.0,,,,,,mood_trial_fixation,mxfavF5YdvbJDxWwvO8nmCs5ZZv2,,,,,,,,,,,,,,,,,,,,,,,5eb85799cc3ea50a5f3591ad,16:42:28,27/03/2024
lmdlab-html-vas-response,72,139873,0.0-31.0-1.0,3221.0,How happy are you right now?,0.7074074074074074,delaylearn,learning,mood_trial,mxfavF5YdvbJDxWwvO8nmCs5ZZv2,mxfavF5YdvbJDxWwvO8nmCs5ZZv2,,,,,,,,,,,,,,,,,,,,"['Very unhappy', 'Very happy']",,5eb85799cc3ea50a5f3591ad,16:42:28,27/03/2024
html-keyboard-response,73,142254,0.0-32.0,,"<div style=""font-size:100px;"">+</div>",,delaylearn,learning,ITI,mxfavF5YdvbJDxWwvO8nmCs5ZZv2,mxfavF5YdvbJDxWwvO8nmCs5ZZv2,,,,,,,,,,,,,,,,,,,2379.0,,,5eb85799cc3ea50a5f3591ad,16:42:28,27/03/2024
html-keyboard-response,74,143622,0.0-33.0-0.0,1366.8000000044703,"<div style=""display: flex; flex-direction: column; align-items: center; margin-top: -40px;""><img src=""images/pattern_1.png"" style=""width: 234px; height: 230px; margin-top: -50px;""><div style=""display: flex; justify-content: space-between; margin-top: 33px;""><img src=""images/choice_trial_2.png"" style=""width: 408px; height: 417px; margin-right: 200px;""><img src=""images/choice_trial_1.png"" style=""width: 408px; height: 417px;""></div></div>",f,delaylearn,learning,trial,mxfavF5YdvbJDxWwvO8nmCs5ZZv2,mxfavF5YdvbJDxWwvO8nmCs5ZZv2,1.0,images/choice_trial_2.png,images/choice_trial_1.png,images/pattern_1.png,j,j,7000.0,2.0,1.0,1.0,1.0,14.0,0.0,0.0,2.0,80.0,,,,,,5eb85799cc3ea50a5f3591ad,16:42:28,27/03/2024
html-keyboard-response,75,144623,0.0-33.0-1.0,,"<div style=""display: flex; flex-direction: column; align-items: center; margin-top: -40px;""><img src=""images/pattern_1.png"" style=""width: 234px; height: 230px; margin-top: -50px;""><div style=""display: flex; justify-content: space-between; margin-top: 33px;""><img src=""images/choice_trial_2.png"" style=""width: 408px; height: 417px; margin-right: 608px;""></div></div>",,delaylearn,learning,display_response,mxfavF5YdvbJDxWwvO8nmCs5ZZv2,mxfavF5YdvbJDxWwvO8nmCs5ZZv2,,,,,,,,,,,,,,,,,chosen stimuli: images/choice_trial_2.png,,,,,5eb85799cc3ea50a5f3591ad,16:42:28,27/03/2024
html-keyboard-response,76,151625,0.0-33.0-2.0,,,,delaylearn,learning,feedback_duration_window,mxfavF5YdvbJDxWwvO8nmCs5ZZv2,mxfavF5YdvbJDxWwvO8nmCs5ZZv2,,,,,,,,,,,,,,,,,,7000.0,,,,5eb85799cc3ea50a5f3591ad,16:42:28,27/03/2024
html-keyboard-response,77,153126,0.0-33.0-3.0,,<div style='margin:auto;width: auto; font-size: 150%'><span style='font-weight: bold; font-size: 100px; color: red;'>0 points!</span><br><br></div>,,delaylearn,learning,feedback_image_window,mxfavF5YdvbJDxWwvO8nmCs5ZZv2,mxfavF5YdvbJDxWwvO8nmCs5ZZv2,,,,,,,,,,,,,,,,,,,,,,5eb85799cc3ea50a5f3591ad,16:42:28,27/03/2024
html-keyboard-response,78,155320,0.0-34.0,,"<div style=""font-size:100px;"">+</div>",,delaylearn,learning,ITI,mxfavF5YdvbJDxWwvO8nmCs5ZZv2,mxfavF5YdvbJDxWwvO8nmCs5ZZv2,,,,,,,,,,,,,,,,,,,2194.0,,,5eb85799cc3ea50a5f3591ad,16:42:28,27/03/2024
html-keyboard-response,79,157627,0.0-35.0-0.0,2305.5,"<div style=""display: flex; flex-direction: column; align-items: center; margin-top: -40px;""><img src=""images/pattern_3.png"" style=""width: 234px; height: 230px; margin-top: -50px;""><div style=""display: flex; justify-content: space-between; margin-top: 33px;""><img src=""images/choice_trial_6.png"" style=""width: 408px; height: 417px; margin-right: 200px;""><img src=""images/choice_trial_5.png"" style=""width: 408px; height: 417px;""></div></div>",j,delaylearn,learning,trial,mxfavF5YdvbJDxWwvO8nmCs5ZZv2,mxfavF5YdvbJDxWwvO8nmCs5ZZv2,1.0,images/choice_trial_6.png,images/choice_trial_5.png,images/pattern_3.png,f,j,7000.0,6.0,5.0,2.0,1.0,15.0,1.0,0.0,5.0,80.0,,,,,,5eb85799cc3ea50a5f3591ad,16:42:28,27/03/2024
html-keyboard-response,80,158629,0.0-35.0-1.0,,"<div style=""display: flex; flex-direction: column; align-items: center; margin-top: -40px;""><img src=""images/pattern_3.png"" style=""width: 234px; height: 230px; margin-top: -50px;""><div style=""display: flex; justify-content: space-between; margin-top: 33px;""><img src=""images/choice_trial_5.png"" style=""width: 408px; height: 417px; margin-left:608px;""></div></div>",,delaylearn,learning,display_response,mxfavF5YdvbJDxWwvO8nmCs5ZZv2,mxfavF5YdvbJDxWwvO8nmCs5ZZv2,,,,,,,,,,,,,,,,,chosen stimuli: images/choice_trial_5.png,,,,,5eb85799cc3ea50a5f3591ad,16:42:28,27/03/2024
html-keyboard-response,81,165631,0.0-35.0-2.0,,,,delaylearn,learning,feedback_duration_window,mxfavF5YdvbJDxWwvO8nmCs5ZZv2,mxfavF5YdvbJDxWwvO8nmCs5ZZv2,,,,,,,,,,,,,,,,,,7000.0,,,,5eb85799cc3ea50a5f3591ad,16:42:28,27/03/2024
html-keyboard-response,82,167132,0.0-35.0-3.0,,<div style='margin:auto;width: auto; font-size: 150%'><span style='font-weight: bold; font-size: 100px; color: red;'>0 points!</span><br><br></div>,,delaylearn,learning,feedback_image_window,mxfavF5YdvbJDxWwvO8nmCs5ZZv2,mxfavF5YdvbJDxWwvO8nmCs5ZZv2,,,,,,,,,,,,,,,,,,,,,,5eb85799cc3ea50a5f3591ad,16:42:28,27/03/2024
html-keyboard-response,83,169427,0.0-36.0,,"<div style=""font-size:100px;"">+</div>",,delaylearn,learning,ITI,mxfavF5YdvbJDxWwvO8nmCs5ZZv2,mxfavF5YdvbJDxWwvO8nmCs5ZZv2,,,,,,,,,,,,,,,,,,,2293.0,,,5eb85799cc3ea50a5f3591ad,16:42:28,27/03/2024
html-keyboard-response,84,171532,0.0-37.0-0.0,2103.39999999851,"<div style=""display: flex; flex-direction: column; align-items: center; margin-top: -40px;""><img src=""images/pattern_5.png"" style=""width: 234px; height: 230px; margin-top: -50px;""><div style=""display: flex; justify-content: space-between; margin-top: 33px;""><img src=""images/choice_trial_9.png"" style=""width: 408px; height: 417px; margin-right: 200px;""><img src=""images/choice_trial_10.png"" style=""width: 408px; height: 417px;""></div></div>",f,delaylearn,learning,trial,mxfavF5YdvbJDxWwvO8nmCs5ZZv2,mxfavF5YdvbJDxWwvO8nmCs5ZZv2,1.0,images/choice_trial_9.png,images/choice_trial_10.png,images/pattern_5.png,f,f,750.0,9.0,10.0,4.0,0.0,16.0,1.0,1.0,9.0,90.0,,,,,,5eb85799cc3ea50a5f3591ad,16:42:28,27/03/2024
html-keyboard-response,85,172534,0.0-37.0-1.0,,"<div style=""display: flex; flex-direction: column; align-items: center; margin-top: -40px;""><img src=""images/pattern_5.png"" style=""width: 234px; height: 230px; margin-top: -50px;""><div style=""display: flex; justify-content: space-between; margin-top: 33px;""><img src=""images/choice_trial_9.png"" style=""width: 408px; height: 417px; margin-right: 608px;""></div></div>",,delaylearn,learning,display_response,mxfavF5YdvbJDxWwvO8nmCs5ZZv2,mxfavF5YdvbJDxWwvO8nmCs5ZZv2,,,,,,,,,,,,,,,,,chosen stimuli: images/choice_trial_9.png,,,,,5eb85799cc3ea50a5f3591ad,16:42:28,27/03/2024
html-keyboard-response,86,173285,0.0-37.0-2.0,,,,delaylearn,learning,feedback_duration_window,mxfavF5YdvbJDxWwvO8nmCs5ZZv2,mxfavF5YdvbJDxWwvO8nmCs5ZZv2,,,,,,,,,,,,,,,,,,750.0,,,,5eb85799cc3ea50a5f3591ad,16:42:28,27/03/2024
html-keyboard-response,87,174788,0.0-37.0-3.0,,<div style='margin:auto;width: auto; font-size: 150%'><span style='font-weight: bold; font-size: 100px; color: green;'>+10 points!</span><br><br></div>,,delaylearn,learning,feedback_image_window,mxfavF5YdvbJDxWwvO8nmCs5ZZv2,mxfavF5YdvbJDxWwvO8nmCs5ZZv2,,,,,,,,,,,,,,,,,,,,,,5eb85799cc3ea50a5f3591ad,16:42:28,27/03/2024
html-keyboard-response,88,175289,0.0-38.0-0.0,,,,,,mood_trial_fixation,mxfavF5YdvbJDxWwvO8nmCs5ZZv2,,,,,,,,,,,,,,,,,,,,,,,5eb85799cc3ea50a5f3591ad,16:42:28,27/03/2024
lmdlab-html-vas-response,89,178647,0.0-38.0-1.0,2355.0,How happy are you right now?,0.7722222222222223,delaylearn,learning,mood_trial,mxfavF5YdvbJDxWwvO8nmCs5ZZv2,mxfavF5YdvbJDxWwvO8nmCs5ZZv2,,,,,,,,,,,,,,,,,,,,"['Very unhappy', 'Very happy']",,5eb85799cc3ea50a5f3591ad,16:42:28,27/03/2024
html-keyboard-response,90,180313,0.0-39.0,,"<div style=""font-size:100px;"">+</div>",,delaylearn,learning,ITI,mxfavF5YdvbJDxWwvO8nmCs5ZZv2,mxfavF5YdvbJDxWwvO8nmCs5ZZv2,,,,,,,,,,,,,,,,,,,1665.0,,,5eb85799cc3ea50a5f3591ad,16:42:28,27/03/2024
html-keyboard-response,91,183315,0.0-40.0-0.0,,"<div style=""display: flex; flex-direction: column; align-items: center; margin-top: -40px;""><img src=""images/pattern_6.png"" style=""width: 234px; height: 230px; margin-top: -50px;""><div style=""display: flex; justify-content: space-between; margin-top: 33px;""><img src=""images/choice_trial_11.png"" style=""width: 408px; height: 417px; margin-right: 200px;""><img src=""images/choice_trial_12.png"" style=""width: 408px; height: 417px;""></div></div>",,delaylearn,learning,trial,mxfavF5YdvbJDxWwvO8nmCs5ZZv2,mxfavF5YdvbJDxWwvO8nmCs5ZZv2,1.0,images/choice_trial_11.png,images/choice_trial_12.png,images/pattern_6.png,f,f,750.0,11.0,12.0,5.0,0.0,17.0,0.0,0.0,0.0,90.0,,,,,,5eb85799cc3ea50a5f3591ad,16:42:28,27/03/2024
html-keyboard-response,92,184317,0.0-40.0-1.0,,<div style='font-weight: bold; font-size: 75px; color: red;'>Missed Trial <br><br><br><br> Please respond faster</div>,,delaylearn,learning,display_response,mxfavF5YdvbJDxWwvO8nmCs5ZZv2,mxfavF5YdvbJDxWwvO8nmCs5ZZv2,,,,,,,,,,,,,,,,,Missed trial,,,,,5eb85799cc3ea50a5f3591ad,16:42:28,27/03/2024
html-keyboard-response,93,184322,0.0-40.0-2.0,,,,delaylearn,learning,feedback_duration_window,mxfavF5YdvbJDxWwvO8nmCs5ZZv2,mxfavF5YdvbJDxWwvO8nmCs5ZZv2,,,,,,,,,,,,,,,,,,0.0,,,,5eb85799cc3ea50a5f3591ad,16:42:28,27/03/2024
html-keyboard-response,94,184328,0.0-40.0-3.0,,,,delaylearn,learning,feedback_image_window,mxfavF5YdvbJDxWwvO8nmCs5ZZv2,mxfavF5YdvbJDxWwvO8nmCs5ZZv2,,,,,,,,,,,,,,,,,,,,,,5eb85799cc3ea50a5f3591ad,16:42:28,27/03/2024
html-keyboard-response,95,186680,0.0-41.0,,"<div style=""font-size:100px;"">+</div>",,delaylearn,learning,ITI,mxfavF5YdvbJDxWwvO8nmCs5ZZv2,mxfavF5YdvbJDxWwvO8nmCs5ZZv2,,,,,,,,,,,,,,,,,,,2351.0,,,5eb85799cc3ea50a5f3591ad,16:42:28,27/03/2024
html-keyboard-response,96,188416,0.0-42.0-0.0,1734.3000000044703,"<div style=""display: flex; flex-direction: column; align-items: center; margin-top: -40px;""><img src=""images/pattern_4.png"" style=""width: 234px; height: 230px; margin-top: -50px;""><div style=""display: flex; justify-content: space-between; margin-top: 33px;""><img src=""images/choice_trial_8.png"" style=""width: 408px; height: 417px; margin-right: 200px;""><img src=""images/choice_trial_7.png"" style=""width: 408px; height: 417px;""></div></div>",j,delaylearn,learning,trial,mxfavF5YdvbJDxWwvO8nmCs5ZZv2,mxfavF5YdvbJDxWwvO8nmCs5ZZv2,1.0,images/choice_trial_8.png,images/choice_trial_7.png,images/pattern_4.png,j,j,7000.0,8.0,7.0,3.0,1.0,18.0,1.0,1.0,7.0,100.0,,,,,,5eb85799cc3ea50a5f3591ad,16:42:28,27/03/2024
html-keyboard-response,97,189417,0.0-42.0-1.0,,"<div style=""display: flex; flex-direction: column; align-items: center; margin-top: -40px;""><img src=""images/pattern_4.png"" style=""width: 234px; height: 230px; margin-top: -50px;""><div style=""display: flex; justify-content: space-between; margin-top: 33px;""><img src=""images/choice_trial_7.png"" style=""width: 408px; height: 417px; margin-left:608px;""></div></div>",,delaylearn,learning,display_response,mxfavF5YdvbJDxWwvO8nmCs5ZZv2,mxfavF5YdvbJDxWwvO8nmCs5ZZv2,,,,,,,,,,,,,,,,,chosen stimuli: images/choice_trial_7.png,,,,,5eb85799cc3ea50a5f3591ad,16:42:28,27/03/2024
html-keyboard-response,98,196418,0.0-42.0-2.0,,,,delaylearn,learning,feedback_duration_window,mxfavF5YdvbJDxWwvO8nmCs5ZZv2,mxfavF5YdvbJDxWwvO8nmCs5ZZv2,,,,,,,,,,,,,,,,,,7000.0,,,,5eb85799cc3ea50a5f3591ad,16:42:28,27/03/2024
html-keyboard-response,99,197920,0.0-42.0-3.0,,<div style='margin:auto;width: auto; font-size: 150%'><span style='font-weight: bold; font-size: 100px; color: green;'>+10 points!</span><br><br></div>,,delaylearn,learning,feedback_image_window,mxfavF5YdvbJDxWwvO8nmCs5ZZv2,mxfavF5YdvbJDxWwvO8nmCs5ZZv2,,,,,,,,,,,,,,,,,,,,,,5eb85799cc3ea50a5f3591ad,16:42:28,27/03/2024
html-keyboard-response,100,200067,0.0-43.0,,"<div style=""font-size:100px;"">+</div>",,delaylearn,learning,ITI,mxfavF5YdvbJDxWwvO8nmCs5ZZv2,mxfavF5YdvbJDxWwvO8nmCs5ZZv2,,,,,,,,,,,,,,,,,,,2146.0,,,5eb85799cc3ea50a5f3591ad,16:42:28,27/03/2024
html-keyboard-response,101,201338,0.0-44.0-0.0,1269.6000000014901,"<div style=""display: flex; flex-direction: column; align-items: center; margin-top: -40px;""><img src=""images/pattern_7.png"" style=""width: 234px; height: 230px; margin-top: -50px;""><div style=""display: flex; justify-content: space-between; margin-top: 33px;""><img src=""images/choice_trial_13.png"" style=""width: 408px; height: 417px; margin-right: 200px;""><img src=""images/choice_trial_14.png"" style=""width: 408px; height: 417px;""></div></div>",f,delaylearn,learning,trial,mxfavF5YdvbJDxWwvO8nmCs5ZZv2,mxfavF5YdvbJDxWwvO8nmCs5ZZv2,1.0,images/choice_trial_13.png,images/choice_trial_14.png,images/pattern_7.png,j,f,750.0,13.0,14.0,6.0,0.0,19.0,1.0,0.0,13.0,100.0,,,,,,5eb85799cc3ea50a5f3591ad,16:42:28,27/03/2024
html-keyboard-response,102,202340,0.0-44.0-1.0,,"<div style=""display: flex; flex-direction: column; align-items: center; margin-top: -40px;""><img src=""images/pattern_7.png"" style=""width: 234px; height: 230px; margin-top: -50px;""><div style=""display: flex; justify-content: space-between; margin-top: 33px;""><img src=""images/choice_trial_13.png"" style=""width: 408px; height: 417px; margin-right: 608px;""></div></div>",,delaylearn,learning,display_response,mxfavF5YdvbJDxWwvO8nmCs5ZZv2,mxfavF5YdvbJDxWwvO8nmCs5ZZv2,,,,,,,,,,,,,,,,,chosen stimuli: images/choice_trial_13.png,,,,,5eb85799cc3ea50a5f3591ad,16:42:28,27/03/2024
html-keyboard-response,103,203092,0.0-44.0-2.0,,,,delaylearn,learning,feedback_duration_window,mxfavF5YdvbJDxWwvO8nmCs5ZZv2,mxfavF5YdvbJDxWwvO8nmCs5ZZv2,,,,,,,,,,,,,,,,,,750.0,,,,5eb85799cc3ea50a5f3591ad,16:42:28,27/03/2024
html-keyboard-response,104,204594,0.0-44.0-3.0,,<div style='margin:auto;width: auto; font-size: 150%'><span style='font-weight: bold; font-size: 100px; color: red;'>0 points!</span><br><br></div>,,delaylearn,learning,feedback_image_window,mxfavF5YdvbJDxWwvO8nmCs5ZZv2,mxfavF5YdvbJDxWwvO8nmCs5ZZv2,,,,,,,,,,,,,,,,,,,,,,5eb85799cc3ea50a5f3591ad,16:42:28,27/03/2024
html-keyboard-response,105,206375,0.0-45.0,,"<div style=""font-size:100px;"">+</div>",,delaylearn,learning,ITI,mxfavF5YdvbJDxWwvO8nmCs5ZZv2,mxfavF5YdvbJDxWwvO8nmCs5ZZv2,,,,,,,,,,,,,,,,,,,1780.0,,,5eb85799cc3ea50a5f3591ad,16:42:28,27/03/2024
html-keyboard-response,106,208037,0.0-46.0-0.0,1660.2000000029802,"<div style=""display: flex; flex-direction: column; align-items: center; margin-top: -40px;""><img src=""images/pattern_1.png"" style=""width: 234px; height: 230px; margin-top: -50px;""><div style=""display: flex; justify-content: space-between; margin-top: 33px;""><img src=""images/choice_trial_1.png"" style=""width: 408px; height: 417px; margin-right: 200px;""><img src=""images/choice_trial_2.png"" style=""width: 408px; height: 417px;""></div></div>",j,delaylearn,learning,trial,mxfavF5YdvbJDxWwvO8nmCs5ZZv2,mxfavF5YdvbJDxWwvO8nmCs5ZZv2,1.0,images/choice_trial_1.png,images/choice_trial_2.png,images/pattern_1.png,f,f,7000.0,1.0,2.0,1.0,0.0,20.0,0.0,0.0,2.0,100.0,,,,,,5eb85799cc3ea50a5f3591ad,16:42:28,27/03/2024
html-keyboard-response,107,209039,0.0-46.0-1.0,,"<div style=""display: flex; flex-direction: column; align-items: center; margin-top: -40px;""><img src=""images/pattern_1.png"" style=""width: 234px; height: 230px; margin-top: -50px;""><div style=""display: flex; justify-content: space-between; margin-top: 33px;""><img src=""images/choice_trial_2.png"" style=""width: 408px; height: 417px; margin-left:608px;""></div></div>",,delaylearn,learning,display_response,mxfavF5YdvbJDxWwvO8nmCs5ZZv2,mxfavF5YdvbJDxWwvO8nmCs5ZZv2,,,,,,,,,,,,,,,,,chosen stimuli: images/choice_trial_2.png,,,,,5eb85799cc3ea50a5f3591ad,16:42:28,27/03/2024
html-keyboard-response,108,216040,0.0-46.0-2.0,,,,delaylearn,learning,feedback_duration_window,mxfavF5YdvbJDxWwvO8nmCs5ZZv2,mxfavF5YdvbJDxWwvO8nmCs5ZZv2,,,,,,,,,,,,,,,,,,7000.0,,,,5eb85799cc3ea50a5f3591ad,16:42:28,27/03/2024
html-keyboard-response,109,217542,0.0-46.0-3.0,,<div style='margin:auto;width: auto; font-size: 150%'><span style='font-weight: bold; font-size: 100px; color: red;'>0 points!</span><br><br></div>,,delaylearn,learning,feedback_image_window,mxfavF5YdvbJDxWwvO8nmCs5ZZv2,mxfavF5YdvbJDxWwvO8nmCs5ZZv2,,,,,,,,,,,,,,,,,,,,,,5eb85799cc3ea50a5f3591ad,16:42:28,27/03/2024
html-keyboard-response,110,219356,0.0-47.0,,"<div style=""font-size:100px;"">+</div>",,delaylearn,learning,ITI,mxfavF5YdvbJDxWwvO8nmCs5ZZv2,mxfavF5YdvbJDxWwvO8nmCs5ZZv2,,,,,,,,,,,,,,,,,,,1814.0,,,5eb85799cc3ea50a5f3591ad,16:42:28,27/03/2024
html-keyboard-response,111,222358,0.0-48.0-0.0,,"<div style=""display: flex; flex-direction: column; align-items: center; margin-top: -40px;""><img src=""images/pattern_6.png"" style=""width: 234px; height: 230px; margin-top: -50px;""><div style=""display: flex; justify-content: space-between; margin-top: 33px;""><img src=""images/choice_trial_12.png"" style=""width: 408px; height: 417px; margin-right: 200px;""><img src=""images/choice_trial_11.png"" style=""width: 408px; height: 417px;""></div></div>",,delaylearn,learning,trial,mxfavF5YdvbJDxWwvO8nmCs5ZZv2,mxfavF5YdvbJDxWwvO8nmCs5ZZv2,1.0,images/choice_trial_12.png,images/choice_trial_11.png,images/pattern_6.png,j,j,750.0,12.0,11.0,5.0,1.0,21.0,0.0,0.0,0.0,100.0,,,,,,5eb85799cc3ea50a5f3591ad,16:42:28,27/03/2024
html-keyboard-response,112,223359,0.0-48.0-1.0,,<div style='font-weight: bold; font-size: 75px; color: red;'>Missed Trial <br><br><br><br> Please respond faster</div>,,delaylearn,learning,display_response,mxfavF5YdvbJDxWwvO8nmCs5ZZv2,mxfavF5YdvbJDxWwvO8nmCs5ZZv2,,,,,,,,,,,,,,,,,Missed trial,,,,,5eb85799cc3ea50a5f3591ad,16:42:28,27/03/2024
html-keyboard-response,113,223365,0.0-48.0-2.0,,,,delaylearn,learning,feedback_duration_window,mxfavF5YdvbJDxWwvO8nmCs5ZZv2,mxfavF5YdvbJDxWwvO8nmCs5ZZv2,,,,,,,,,,,,,,,,,,0.0,,,,5eb85799cc3ea50a5f3591ad,16:42:28,27/03/2024
html-keyboard-response,114,223369,0.0-48.0-3.0,,,,delaylearn,learning,feedback_image_window,mxfavF5YdvbJDxWwvO8nmCs5ZZv2,mxfavF5YdvbJDxWwvO8nmCs5ZZv2,,,,,,,,,,,,,,,,,,,,,,5eb85799cc3ea50a5f3591ad,16:42:28,27/03/2024
html-keyboard-response,115,224950,0.0-49.0,,"<div style=""font-size:100px;"">+</div>",,delaylearn,learning,ITI,mxfavF5YdvbJDxWwvO8nmCs5ZZv2,mxfavF5YdvbJDxWwvO8nmCs5ZZv2,,,,,,,,,,,,,,,,,,,1579.0,,,5eb85799cc3ea50a5f3591ad,16:42:28,27/03/2024
html-keyboard-response,116,226020,0.0-50.0-0.0,1067.7999999970198,"<div style=""display: flex; flex-direction: column; align-items: center; margin-top: -40px;""><img src=""images/pattern_4.png"" style=""width: 234px; height: 230px; margin-top: -50px;""><div style=""display: flex; justify-content: space-between; margin-top: 33px;""><img src=""images/choice_trial_7.png"" style=""width: 408px; height: 417px; margin-right: 200px;""><img src=""images/choice_trial_8.png"" style=""width: 408px; height: 417px;""></div></div>",f,delaylearn,learning,trial,mxfavF5YdvbJDxWwvO8nmCs5ZZv2,mxfavF5YdvbJDxWwvO8nmCs5ZZv2,1.0,images/choice_trial_7.png,images/choice_trial_8.png,images/pattern_4.png,f,f,7000.0,7.0,8.0,3.0,0.0,22.0,1.0,1.0,7.0,110.0,,,,,,5eb85799cc3ea50a5f3591ad,16:42:28,27/03/2024
html-keyboard-response,117,227022,0.0-50.0-1.0,,"<div style=""display: flex; flex-direction: column; align-items: center; margin-top: -40px;""><img src=""images/pattern_4.png"" style=""width: 234px; height: 230px; margin-top: -50px;""><div style=""display: flex; justify-content: space-between; margin-top: 33px;""><img src=""images/choice_trial_7.png"" style=""width: 408px; height: 417px; margin-right: 608px;""></div></div>",,delaylearn,learning,display_response,mxfavF5YdvbJDxWwvO8nmCs5ZZv2,mxfavF5YdvbJDxWwvO8nmCs5ZZv2,,,,,,,,,,,,,,,,,chosen stimuli: images/choice_trial_7.png,,,,,5eb85799cc3ea50a5f3591ad,16:42:28,27/03/2024
html-keyboard-response,118,234024,0.0-50.0-2.0,,,,delaylearn,learning,feedback_duration_window,mxfavF5YdvbJDxWwvO8nmCs5ZZv2,mxfavF5YdvbJDxWwvO8nmCs5ZZv2,,,,,,,,,,,,,,,,,,7000.0,,,,5eb85799cc3ea50a5f3591ad,16:42:28,27/03/2024
html-keyboard-response,119,235525,0.0-50.0-3.0,,<div style='margin:auto;width: auto; font-size: 150%'><span style='font-weight: bold; font-size: 100px; color: green;'>+10 points!</span><br><br></div>,,delaylearn,learning,feedback_image_window,mxfavF5YdvbJDxWwvO8nmCs5ZZv2,mxfavF5YdvbJDxWwvO8nmCs5ZZv2,,,,,,,,,,,,,,,,,,,,,,5eb85799cc3ea50a5f3591ad,16:42:28,27/03/2024
html-keyboard-response,120,236026,0.0-51.0-0.0,,,,,,mood_trial_fixation,mxfavF5YdvbJDxWwvO8nmCs5ZZv2,,,,,,,,,,,,,,,,,,,,,,,5eb85799cc3ea50a5f3591ad,16:42:28,27/03/2024
lmdlab-html-vas-response,121,240358,0.0-51.0-1.0,3329.0,How happy are you right now?,0.6333333333333333,delaylearn,learning,mood_trial,mxfavF5YdvbJDxWwvO8nmCs5ZZv2,mxfavF5YdvbJDxWwvO8nmCs5ZZv2,,,,,,,,,,,,,,,,,,,,"['Very unhappy', 'Very happy']",,5eb85799cc3ea50a5f3591ad,16:42:28,27/03/2024
html-keyboard-response,122,242650,0.0-52.0,,"<div style=""font-size:100px;"">+</div>",,delaylearn,learning,ITI,mxfavF5YdvbJDxWwvO8nmCs5ZZv2,mxfavF5YdvbJDxWwvO8nmCs5ZZv2,,,,,,,,,,,,,,,,,,,2291.0,,,5eb85799cc3ea50a5f3591ad,16:42:28,27/03/2024
html-keyboard-response,123,243605,0.0-53.0-0.0,953.3999999985099,"<div style=""display: flex; flex-direction: column; align-items: center; margin-top: -40px;""><img src=""images/pattern_7.png"" style=""width: 234px; height: 230px; margin-top: -50px;""><div style=""display: flex; justify-content: space-between; margin-top: 33px;""><img src=""images/choice_trial_14.png"" style=""width: 408px; height: 417px; margin-right: 200px;""><img src=""images/choice_trial_13.png"" style=""width: 408px; height: 417px;""></div></div>",j,delaylearn,learning,trial,mxfavF5YdvbJDxWwvO8nmCs5ZZv2,mxfavF5YdvbJDxWwvO8nmCs5ZZv2,1.0,images/choice_trial_14.png,images/choice_trial_13.png,images/pattern_7.png,j,j,750.0,14.0,13.0,6.0,1.0,23.0,1.0,1.0,13.0,120.0,,,,,,5eb85799cc3ea50a5f3591ad,16:42:28,27/03/2024
html-keyboard-response,124,244608,0.0-53.0-1.0,,"<div style=""display: flex; flex-direction: column; align-items: center; margin-top: -40px;""><img src=""images/pattern_7.png"" style=""width: 234px; height: 230px; margin-top: -50px;""><div style=""display: flex; justify-content: space-between; margin-top: 33px;""><img src=""images/choice_trial_13.png"" style=""width: 408px; height: 417px; margin-left:608px;""></div></div>",,delaylearn,learning,display_response,mxfavF5YdvbJDxWwvO8nmCs5ZZv2,mxfavF5YdvbJDxWwvO8nmCs5ZZv2,,,,,,,,,,,,,,,,,chosen stimuli: images/choice_trial_13.png,,,,,5eb85799cc3ea50a5f3591ad,16:42:28,27/03/2024
html-keyboard-response,125,245360,0.0-53.0-2.0,,,,delaylearn,learning,feedback_duration_window,mxfavF5YdvbJDxWwvO8nmCs5ZZv2,mxfavF5YdvbJDxWwvO8nmCs5ZZv2,,,,,,,,,,,,,,,,,,750.0,,,,5eb85799cc3ea50a5f3591ad,16:42:28,27/03/2024
html-keyboard-response,126,246860,0.0-53.0-3.0,,<div style='margin:auto;width: auto; font-size: 150%'><span style='font-weight: bold; font-size: 100px; color: green;'>+10 points!</span><br><br></div>,,delaylearn,learning,feedback_image_window,mxfavF5YdvbJDxWwvO8nmCs5ZZv2,mxfavF5YdvbJDxWwvO8nmCs5ZZv2,,,,,,,,,,,,,,,,,,,,,,5eb85799cc3ea50a5f3591ad,16:42:28,27/03/2024
html-keyboard-response,127,248404,0.0-54.0,,"<div style=""font-size:100px;"">+</div>",,delaylearn,learning,ITI,mxfavF5YdvbJDxWwvO8nmCs5ZZv2,mxfavF5YdvbJDxWwvO8nmCs5ZZv2,,,,,,,,,,,,,,,,,,,1542.0,,,5eb85799cc3ea50a5f3591ad,16:42:28,27/03/2024
html-keyboard-response,128,250364,0.0-55.0-0.0,1958.3999999985099,"<div style=""display: flex; flex-direction: column; align-items: center; margin-top: -40px;""><img src=""images/pattern_1.png"" style=""width: 234px; height: 230px; margin-top: -50px;""><div style=""display: flex; justify-content: space-between; margin-top: 33px;""><img src=""images/choice_trial_2.png"" style=""width: 408px; height: 417px; margin-right: 200px;""><img src=""images/choice_trial_1.png"" style=""width: 408px; height: 417px;""></div></div>",f,delaylearn,learning,trial,mxfavF5YdvbJDxWwvO8nmCs5ZZv2,mxfavF5YdvbJDxWwvO8nmCs5ZZv2,1.0,images/choice_trial_2.png,images/choice_trial_1.png,images/pattern_1.png,f,j,7000.0,2.0,1.0,1.0,1.0,24.0,0.0,1.0,2.0,130.0,,,,,,5eb85799cc3ea50a5f3591ad,16:42:28,27/03/2024
html-keyboard-response,129,251366,0.0-55.0-1.0,,"<div style=""display: flex; flex-direction: column; align-items: center; margin-top: -40px;""><img src=""images/pattern_1.png"" style=""width: 234px; height: 230px; margin-top: -50px;""><div style=""display: flex; justify-content: space-between; margin-top: 33px;""><img src=""images/choice_trial_2.png"" style=""width: 408px; height: 417px; margin-right: 608px;""></div></div>",,delaylearn,learning,display_response,mxfavF5YdvbJDxWwvO8nmCs5ZZv2,mxfavF5YdvbJDxWwvO8nmCs5ZZv2,,,,,,,,,,,,,,,,,chosen stimuli: images/choice_trial_2.png,,,,,5eb85799cc3ea50a5f3591ad,16:42:28,27/03/2024
html-keyboard-response,130,258368,0.0-55.0-2.0,,,,delaylearn,learning,feedback_duration_window,mxfavF5YdvbJDxWwvO8nmCs5ZZv2,mxfavF5YdvbJDxWwvO8nmCs5ZZv2,,,,,,,,,,,,,,,,,,7000.0,,,,5eb85799cc3ea50a5f3591ad,16:42:28,27/03/2024
html-keyboard-response,131,259869,0.0-55.0-3.0,,<div style='margin:auto;width: auto; font-size: 150%'><span style='font-weight: bold; font-size: 100px; color: green;'>+10 points!</span><br><br></div>,,delaylearn,learning,feedback_image_window,mxfavF5YdvbJDxWwvO8nmCs5ZZv2,mxfavF5YdvbJDxWwvO8nmCs5ZZv2,,,,,,,,,,,,,,,,,,,,,,5eb85799cc3ea50a5f3591ad,16:42:28,27/03/2024
html-keyboard-response,132,261680,0.0-56.0,,"<div style=""font-size:100px;"">+</div>",,delaylearn,learning,ITI,mxfavF5YdvbJDxWwvO8nmCs5ZZv2,mxfavF5YdvbJDxWwvO8nmCs5ZZv2,,,,,,,,,,,,,,,,,,,1809.0,,,5eb85799cc3ea50a5f3591ad,16:42:28,27/03/2024
html-keyboard-response,133,263336,0.0-57.0-0.0,1654.3999999985099,"<div style=""display: flex; flex-direction: column; align-items: center; margin-top: -40px;""><img src=""images/pattern_5.png"" style=""width: 234px; height: 230px; margin-top: -50px;""><div style=""display: flex; justify-content: space-between; margin-top: 33px;""><img src=""images/choice_trial_10.png"" style=""width: 408px; height: 417px; margin-right: 200px;""><img src=""images/choice_trial_9.png"" style=""width: 408px; height: 417px;""></div></div>",f,delaylearn,learning,trial,mxfavF5YdvbJDxWwvO8nmCs5ZZv2,mxfavF5YdvbJDxWwvO8nmCs5ZZv2,1.0,images/choice_trial_10.png,images/choice_trial_9.png,images/pattern_5.png,j,j,750.0,10.0,9.0,4.0,1.0,25.0,0.0,0.0,10.0,130.0,,,,,,5eb85799cc3ea50a5f3591ad,16:42:28,27/03/2024
html-keyboard-response,134,264338,0.0-57.0-1.0,,"<div style=""display: flex; flex-direction: column; align-items: center; margin-top: -40px;""><img src=""images/pattern_5.png"" style=""width: 234px; height: 230px; margin-top: -50px;""><div style=""display: flex; justify-content: space-between; margin-top: 33px;""><img src=""images/choice_trial_10.png"" style=""width: 408px; height: 417px; margin-right: 608px;""></div></div>",,delaylearn,learning,display_response,mxfavF5YdvbJDxWwvO8nmCs5ZZv2,mxfavF5YdvbJDxWwvO8nmCs5ZZv2,,,,,,,,,,,,,,,,,chosen stimuli: images/choice_trial_10.png,,,,,5eb85799cc3ea50a5f3591ad,16:42:28,27/03/2024
html-keyboard-response,135,265089,0.0-57.0-2.0,,,,delaylearn,learning,feedback_duration_window,mxfavF5YdvbJDxWwvO8nmCs5ZZv2,mxfavF5YdvbJDxWwvO8nmCs5ZZv2,,,,,,,,,,,,,,,,,,750.0,,,,5eb85799cc3ea50a5f3591ad,16:42:28,27/03/2024
html-keyboard-response,136,266591,0.0-57.0-3.0,,<div style='margin:auto;width: auto; font-size: 150%'><span style='font-weight: bold; font-size: 100px; color: red;'>0 points!</span><br><br></div>,,delaylearn,learning,feedback_image_window,mxfavF5YdvbJDxWwvO8nmCs5ZZv2,mxfavF5YdvbJDxWwvO8nmCs5ZZv2,,,,,,,,,,,,,,,,,,,,,,5eb85799cc3ea50a5f3591ad,16:42:28,27/03/2024
html-keyboard-response,137,268126,0.0-58.0,,"<div style=""font-size:100px;"">+</div>",,delaylearn,learning,ITI,mxfavF5YdvbJDxWwvO8nmCs5ZZv2,mxfavF5YdvbJDxWwvO8nmCs5ZZv2,,,,,,,,,,,,,,,,,,,1533.0,,,5eb85799cc3ea50a5f3591ad,16:42:28,27/03/2024
html-keyboard-response,138,270345,0.0-59.0-0.0,2217.6999999955297,"<div style=""display: flex; flex-direction: column; align-items: center; margin-top: -40px;""><img src=""images/pattern_3.png"" style=""width: 234px; height: 230px; margin-top: -50px;""><div style=""display: flex; justify-content: space-between; margin-top: 33px;""><img src=""images/choice_trial_6.png"" style=""width: 408px; height: 417px; margin-right: 200px;""><img src=""images/choice_trial_5.png"" style=""width: 408px; height: 417px;""></div></div>",f,delaylearn,learning,trial,mxfavF5YdvbJDxWwvO8nmCs5ZZv2,mxfavF5YdvbJDxWwvO8nmCs5ZZv2,1.0,images/choice_trial_6.png,images/choice_trial_5.png,images/pattern_3.png,j,j,7000.0,6.0,5.0,2.0,1.0,26.0,0.0,0.0,6.0,130.0,,,,,,5eb85799cc3ea50a5f3591ad,16:42:28,27/03/2024
html-keyboard-response,139,271347,0.0-59.0-1.0,,"<div style=""display: flex; flex-direction: column; align-items: center; margin-top: -40px;""><img src=""images/pattern_3.png"" style=""width: 234px; height: 230px; margin-top: -50px;""><div style=""display: flex; justify-content: space-between; margin-top: 33px;""><img src=""images/choice_trial_6.png"" style=""width: 408px; height: 417px; margin-right: 608px;""></div></div>",,delaylearn,learning,display_response,mxfavF5YdvbJDxWwvO8nmCs5ZZv2,mxfavF5YdvbJDxWwvO8nmCs5ZZv2,,,,,,,,,,,,,,,,,chosen stimuli: images/choice_trial_6.png,,,,,5eb85799cc3ea50a5f3591ad,16:42:28,27/03/2024
html-keyboard-response,140,278348,0.0-59.0-2.0,,,,delaylearn,learning,feedback_duration_window,mxfavF5YdvbJDxWwvO8nmCs5ZZv2,mxfavF5YdvbJDxWwvO8nmCs5ZZv2,,,,,,,,,,,,,,,,,,7000.0,,,,5eb85799cc3ea50a5f3591ad,16:42:28,27/03/2024
html-keyboard-response,141,279849,0.0-59.0-3.0,,<div style='margin:auto;width: auto; font-size: 150%'><span style='font-weight: bold; font-size: 100px; color: red;'>0 points!</span><br><br></div>,,delaylearn,learning,feedback_image_window,mxfavF5YdvbJDxWwvO8nmCs5ZZv2,mxfavF5YdvbJDxWwvO8nmCs5ZZv2,,,,,,,,,,,,,,,,,,,,,,5eb85799cc3ea50a5f3591ad,16:42:28,27/03/2024
lmdlab-html-vas-response,142,288673,0.0-60.0-0.0,7319.0,*How <b><u>confident</u></b> are you feeling about your answers at this moment?*,0.3814814814814815,rewlearn,rate_confidence,,mxfavF5YdvbJDxWwvO8nmCs5ZZv2,mxfavF5YdvbJDxWwvO8nmCs5ZZv2,,,,,,,,,,,,,,,,,,,,"['No confidence', 'Complete confidence']",,5eb85799cc3ea50a5f3591ad,16:42:28,27/03/2024
lmdlab-rest-trial-limit,143,295815,0.0-60.0-1.0,5639.0,"<div style=""font-size:40px;""><b>Please take a break!</b><br><br><br><br><p>Great work: you earned 130 points.<br><br><br><p>You have completed part(s) 1 of 5.<br><br><br><br>When you are ready to continue<br><br><br>please click the button.</p><br><br>",0,delaylearn,learning,break,mxfavF5YdvbJDxWwvO8nmCs5ZZv2,mxfavF5YdvbJDxWwvO8nmCs5ZZv2,,,,,,,,,,,,,,,,,,,,,0.0,5eb85799cc3ea50a5f3591ad,16:42:28,27/03/2024
html-keyboard-response,144,298817,0.0-60.0-2.0,,"<div style=""font-size:100px;"">+</div>",,delaylearn,learning,pre_fixation,mxfavF5YdvbJDxWwvO8nmCs5ZZv2,,,,,,,,,,,,,,,,,,,,,,,5eb85799cc3ea50a5f3591ad,16:42:28,27/03/2024
lmdlab-html-vas-response,145,302499,0.0-60.0-3.0-0.0,2678.0,How happy are you right now?,0.7870370370370371,delaylearn,learning,mood_baseline,mxfavF5YdvbJDxWwvO8nmCs5ZZv2,mxfavF5YdvbJDxWwvO8nmCs5ZZv2,,,,,,,,,,,,,,,,,,,,"['Very unhappy', 'Very happy']",,5eb85799cc3ea50a5f3591ad,16:42:28,27/03/2024
html-keyboard-response,146,304001,0.0-60.0-3.0-1.0,,,,,,mood_baseline_fixation,mxfavF5YdvbJDxWwvO8nmCs5ZZv2,,,,,,,,,,,,,,,,,,,,,,,5eb85799cc3ea50a5f3591ad,16:42:28,27/03/2024
html-keyboard-response,147,306033,0.0-61.0,,"<div style=""font-size:100px;"">+</div>",,delaylearn,learning,ITI,mxfavF5YdvbJDxWwvO8nmCs5ZZv2,mxfavF5YdvbJDxWwvO8nmCs5ZZv2,,,,,,,,,,,,,,,,,,,2031.0,,,5eb85799cc3ea50a5f3591ad,16:42:28,27/03/2024
html-keyboard-response,148,307012,0.0-62.0-0.0,977.6999999955297,"<div style=""display: flex; flex-direction: column; align-items: center; margin-top: -40px;""><img src=""images/pattern_7.png"" style=""width: 234px; height: 230px; margin-top: -50px;""><div style=""display: flex; justify-content: space-between; margin-top: 33px;""><img src=""images/choice_trial_14.png"" style=""width: 408px; height: 417px; margin-right: 200px;""><img src=""images/choice_trial_13.png"" style=""width: 408px; height: 417px;""></div></div>",j,delaylearn,learning,trial,mxfavF5YdvbJDxWwvO8nmCs5ZZv2,mxfavF5YdvbJDxWwvO8nmCs5ZZv2,1.0,images/choice_trial_14.png,images/choice_trial_13.png,images/pattern_7.png,j,j,750.0,14.0,13.0,6.0,1.0,27.0,1.0,1.0,13.0,140.0,,,,,,5eb85799cc3ea50a5f3591ad,16:42:28,27/03/2024
html-keyboard-response,149,308014,0.0-62.0-1.0,,"<div style=""display: flex; flex-direction: column; align-items: center; margin-top: -40px;""><img src=""images/pattern_7.png"" style=""width: 234px; height: 230px; margin-top: -50px;""><div style=""display: flex; justify-content: space-between; margin-top: 33px;""><img src=""images/choice_trial_13.png"" style=""width: 408px; height: 417px; margin-left:608px;""></div></div>",,delaylearn,learning,display_response,mxfavF5YdvbJDxWwvO8nmCs5ZZv2,mxfavF5YdvbJDxWwvO8nmCs5ZZv2,,,,,,,,,,,,,,,,,chosen stimuli: images/choice_trial_13.png,,,,,5eb85799cc3ea50a5f3591ad,16:42:28,27/03/2024
html-keyboard-response,150,308765,0.0-62.0-2.0,,,,delaylearn,learning,feedback_duration_window,mxfavF5YdvbJDxWwvO8nmCs5ZZv2,mxfavF5YdvbJDxWwvO8nmCs5ZZv2,,,,,,,,,,,,,,,,,,750.0,,,,5eb85799cc3ea50a5f3591ad,16:42:28,27/03/2024
html-keyboard-response,151,310267,0.0-62.0-3.0,,<div style='margin:auto;width: auto; font-size: 150%'><span style='font-weight: bold; font-size: 100px; color: green;'>+10 points!</span><br><br></div>,,delaylearn,learning,feedback_image_window,mxfavF5YdvbJDxWwvO8nmCs5ZZv2,mxfavF5YdvbJDxWwvO8nmCs5ZZv2,,,,,,,,,,,,,,,,,,,,,,5eb85799cc3ea50a5f3591ad,16:42:28,27/03/2024
html-keyboard-response,152,310769,0.0-63.0-0.0,,,,,,mood_trial_fixation,mxfavF5YdvbJDxWwvO8nmCs5ZZv2,,,,,,,,,,,,,,,,,,,,,,,5eb85799cc3ea50a5f3591ad,16:42:28,27/03/2024
lmdlab-html-vas-response,153,314054,0.0-63.0-1.0,2283.0,How happy are you right now?,0.8,delaylearn,learning,mood_trial,mxfavF5YdvbJDxWwvO8nmCs5ZZv2,mxfavF5YdvbJDxWwvO8nmCs5ZZv2,,,,,,,,,,,,,,,,,,,,"['Very unhappy', 'Very happy']",,5eb85799cc3ea50a5f3591ad,16:42:28,27/03/2024
html-keyboard-response,154,316207,0.0-64.0,,"<div style=""font-size:100px;"">+</div>",,delaylearn,learning,ITI,mxfavF5YdvbJDxWwvO8nmCs5ZZv2,mxfavF5YdvbJDxWwvO8nmCs5ZZv2,,,,,,,,,,,,,,,,,,,2151.0,,,5eb85799cc3ea50a5f3591ad,16:42:28,27/03/2024
html-keyboard-response,155,319209,0.0-65.0-0.0,,"<div style=""display: flex; flex-direction: column; align-items: center; margin-top: -40px;""><img src=""images/pattern_1.png"" style=""width: 234px; height: 230px; margin-top: -50px;""><div style=""display: flex; justify-content: space-between; margin-top: 33px;""><img src=""images/choice_trial_1.png"" style=""width: 408px; height: 417px; margin-right: 200px;""><img src=""images/choice_trial_2.png"" style=""width: 408px; height: 417px;""></div></div>",,delaylearn,learning,trial,mxfavF5YdvbJDxWwvO8nmCs5ZZv2,mxfavF5YdvbJDxWwvO8nmCs5ZZv2,1.0,images/choice_trial_1.png,images/choice_trial_2.png,images/pattern_1.png,f,f,7000.0,1.0,2.0,1.0,0.0,28.0,0.0,0.0,0.0,140.0,,,,,,5eb85799cc3ea50a5f3591ad,16:42:28,27/03/2024
html-keyboard-response,156,320211,0.0-65.0-1.0,,<div style='font-weight: bold; font-size: 75px; color: red;'>Missed Trial <br><br><br><br> Please respond faster</div>,,delaylearn,learning,display_response,mxfavF5YdvbJDxWwvO8nmCs5ZZv2,mxfavF5YdvbJDxWwvO8nmCs5ZZv2,,,,,,,,,,,,,,,,,Missed trial,,,,,5eb85799cc3ea50a5f3591ad,16:42:28,27/03/2024
html-keyboard-response,157,320216,0.0-65.0-2.0,,,,delaylearn,learning,feedback_duration_window,mxfavF5YdvbJDxWwvO8nmCs5ZZv2,mxfavF5YdvbJDxWwvO8nmCs5ZZv2,,,,,,,,,,,,,,,,,,0.0,,,,5eb85799cc3ea50a5f3591ad,16:42:28,27/03/2024
html-keyboard-response,158,320221,0.0-65.0-3.0,,,,delaylearn,learning,feedback_image_window,mxfavF5YdvbJDxWwvO8nmCs5ZZv2,mxfavF5YdvbJDxWwvO8nmCs5ZZv2,,,,,,,,,,,,,,,,,,,,,,5eb85799cc3ea50a5f3591ad,16:42:28,27/03/2024
html-keyboard-response,159,322468,0.0-66.0,,"<div style=""font-size:100px;"">+</div>",,delaylearn,learning,ITI,mxfavF5YdvbJDxWwvO8nmCs5ZZv2,mxfavF5YdvbJDxWwvO8nmCs5ZZv2,,,,,,,,,,,,,,,,,,,2246.0,,,5eb85799cc3ea50a5f3591ad,16:42:28,27/03/2024
html-keyboard-response,160,323482,0.0-67.0-0.0,1013.0,"<div style=""display: flex; flex-direction: column; align-items: center; margin-top: -40px;""><img src=""images/pattern_5.png"" style=""width: 234px; height: 230px; margin-top: -50px;""><div style=""display: flex; justify-content: space-between; margin-top: 33px;""><img src=""images/choice_trial_9.png"" style=""width: 408px; height: 417px; margin-right: 200px;""><img src=""images/choice_trial_10.png"" style=""width: 408px; height: 417px;""></div></div>",f,delaylearn,learning,trial,mxfavF5YdvbJDxWwvO8nmCs5ZZv2,mxfavF5YdvbJDxWwvO8nmCs5ZZv2,1.0,images/choice_trial_9.png,images/choice_trial_10.png,images/pattern_5.png,f,f,750.0,9.0,10.0,4.0,0.0,29.0,1.0,1.0,9.0,150.0,,,,,,5eb85799cc3ea50a5f3591ad,16:42:28,27/03/2024
html-keyboard-response,161,324484,0.0-67.0-1.0,,"<div style=""display: flex; flex-direction: column; align-items: center; margin-top: -40px;""><img src=""images/pattern_5.png"" style=""width: 234px; height: 230px; margin-top: -50px;""><div style=""display: flex; justify-content: space-between; margin-top: 33px;""><img src=""images/choice_trial_9.png"" style=""width: 408px; height: 417px; margin-right: 608px;""></div></div>",,delaylearn,learning,display_response,mxfavF5YdvbJDxWwvO8nmCs5ZZv2,mxfavF5YdvbJDxWwvO8nmCs5ZZv2,,,,,,,,,,,,,,,,,chosen stimuli: images/choice_trial_9.png,,,,,5eb85799cc3ea50a5f3591ad,16:42:28,27/03/2024
html-keyboard-response,162,325235,0.0-67.0-2.0,,,,delaylearn,learning,feedback_duration_window,mxfavF5YdvbJDxWwvO8nmCs5ZZv2,mxfavF5YdvbJDxWwvO8nmCs5ZZv2,,,,,,,,,,,,,,,,,,750.0,,,,5eb85799cc3ea50a5f3591ad,16:42:28,27/03/2024
html-keyboard-response,163,326737,0.0-67.0-3.0,,<div style='margin:auto;width: auto; font-size: 150%'><span style='font-weight: bold; font-size: 100px; color: green;'>+10 points!</span><br><br></div>,,delaylearn,learning,feedback_image_window,mxfavF5YdvbJDxWwvO8nmCs5ZZv2,mxfavF5YdvbJDxWwvO8nmCs5ZZv2,,,,,,,,,,,,,,,,,,,,,,5eb85799cc3ea50a5f3591ad,16:42:28,27/03/2024
html-keyboard-response,164,328447,0.0-68.0,,"<div style=""font-size:100px;"">+</div>",,delaylearn,learning,ITI,mxfavF5YdvbJDxWwvO8nmCs5ZZv2,mxfavF5YdvbJDxWwvO8nmCs5ZZv2,,,,,,,,,,,,,,,,,,,1709.0,,,5eb85799cc3ea50a5f3591ad,16:42:28,27/03/2024
html-keyboard-response,165,329846,0.0-69.0-0.0,1397.0,"<div style=""display: flex; flex-direction: column; align-items: center; margin-top: -40px;""><img src=""images/pattern_6.png"" style=""width: 234px; height: 230px; margin-top: -50px;""><div style=""display: flex; justify-content: space-between; margin-top: 33px;""><img src=""images/choice_trial_12.png"" style=""width: 408px; height: 417px; margin-right: 200px;""><img src=""images/choice_trial_11.png"" style=""width: 408px; height: 417px;""></div></div>",j,delaylearn,learning,trial,mxfavF5YdvbJDxWwvO8nmCs5ZZv2,mxfavF5YdvbJDxWwvO8nmCs5ZZv2,1.0,images/choice_trial_12.png,images/choice_trial_11.png,images/pattern_6.png,j,j,750.0,12.0,11.0,5.0,1.0,30.0,1.0,1.0,11.0,160.0,,,,,,5eb85799cc3ea50a5f3591ad,16:42:28,27/03/2024
html-keyboard-response,166,330848,0.0-69.0-1.0,,"<div style=""display: flex; flex-direction: column; align-items: center; margin-top: -40px;""><img src=""images/pattern_6.png"" style=""width: 234px; height: 230px; margin-top: -50px;""><div style=""display: flex; justify-content: space-between; margin-top: 33px;""><img src=""images/choice_trial_11.png"" style=""width: 408px; height: 417px; margin-left:608px;""></div></div>",,delaylearn,learning,display_response,mxfavF5YdvbJDxWwvO8nmCs5ZZv2,mxfavF5YdvbJDxWwvO8nmCs5ZZv2,,,,,,,,,,,,,,,,,chosen stimuli: images/choice_trial_11.png,,,,,5eb85799cc3ea50a5f3591ad,16:42:28,27/03/2024
html-keyboard-response,167,331599,0.0-69.0-2.0,,,,delaylearn,learning,feedback_duration_window,mxfavF5YdvbJDxWwvO8nmCs5ZZv2,mxfavF5YdvbJDxWwvO8nmCs5ZZv2,,,,,,,,,,,,,,,,,,750.0,,,,5eb85799cc3ea50a5f3591ad,16:42:28,27/03/2024
html-keyboard-response,168,333101,0.0-69.0-3.0,,<div style='margin:auto;width: auto; font-size: 150%'><span style='font-weight: bold; font-size: 100px; color: green;'>+10 points!</span><br><br></div>,,delaylearn,learning,feedback_image_window,mxfavF5YdvbJDxWwvO8nmCs5ZZv2,mxfavF5YdvbJDxWwvO8nmCs5ZZv2,,,,,,,,,,,,,,,,,,,,,,5eb85799cc3ea50a5f3591ad,16:42:28,27/03/2024
html-keyboard-response,169,333602,0.0-70.0-0.0,,,,,,mood_trial_fixation,mxfavF5YdvbJDxWwvO8nmCs5ZZv2,,,,,,,,,,,,,,,,,,,,,,,5eb85799cc3ea50a5f3591ad,16:42:28,27/03/2024
lmdlab-html-vas-response,170,338085,0.0-70.0-1.0,3478.0,How happy are you right now?,0.9111111111111111,delaylearn,learning,mood_trial,mxfavF5YdvbJDxWwvO8nmCs5ZZv2,mxfavF5YdvbJDxWwvO8nmCs5ZZv2,,,,,,,,,,,,,,,,,,,,"['Very unhappy', 'Very happy']",,5eb85799cc3ea50a5f3591ad,16:42:28,27/03/2024
html-keyboard-response,171,340504,0.0-71.0,,"<div style=""font-size:100px;"">+</div>",,delaylearn,learning,ITI,mxfavF5YdvbJDxWwvO8nmCs5ZZv2,mxfavF5YdvbJDxWwvO8nmCs5ZZv2,,,,,,,,,,,,,,,,,,,2417.0,,,5eb85799cc3ea50a5f3591ad,16:42:28,27/03/2024
html-keyboard-response,172,341955,0.0-72.0-0.0,1449.6999999955297,"<div style=""display: flex; flex-direction: column; align-items: center; margin-top: -40px;""><img src=""images/pattern_4.png"" style=""width: 234px; height: 230px; margin-top: -50px;""><div style=""display: flex; justify-content: space-between; margin-top: 33px;""><img src=""images/choice_trial_8.png"" style=""width: 408px; height: 417px; margin-right: 200px;""><img src=""images/choice_trial_7.png"" style=""width: 408px; height: 417px;""></div></div>",f,delaylearn,learning,trial,mxfavF5YdvbJDxWwvO8nmCs5ZZv2,mxfavF5YdvbJDxWwvO8nmCs5ZZv2,1.0,images/choice_trial_8.png,images/choice_trial_7.png,images/pattern_4.png,j,j,7000.0,8.0,7.0,3.0,1.0,31.0,0.0,0.0,8.0,160.0,,,,,,5eb85799cc3ea50a5f3591ad,16:42:28,27/03/2024
html-keyboard-response,173,342958,0.0-72.0-1.0,,"<div style=""display: flex; flex-direction: column; align-items: center; margin-top: -40px;""><img src=""images/pattern_4.png"" style=""width: 234px; height: 230px; margin-top: -50px;""><div style=""display: flex; justify-content: space-between; margin-top: 33px;""><img src=""images/choice_trial_8.png"" style=""width: 408px; height: 417px; margin-right: 608px;""></div></div>",,delaylearn,learning,display_response,mxfavF5YdvbJDxWwvO8nmCs5ZZv2,mxfavF5YdvbJDxWwvO8nmCs5ZZv2,,,,,,,,,,,,,,,,,chosen stimuli: images/choice_trial_8.png,,,,,5eb85799cc3ea50a5f3591ad,16:42:28,27/03/2024
html-keyboard-response,174,349959,0.0-72.0-2.0,,,,delaylearn,learning,feedback_duration_window,mxfavF5YdvbJDxWwvO8nmCs5ZZv2,mxfavF5YdvbJDxWwvO8nmCs5ZZv2,,,,,,,,,,,,,,,,,,7000.0,,,,5eb85799cc3ea50a5f3591ad,16:42:28,27/03/2024
html-keyboard-response,175,351461,0.0-72.0-3.0,,<div style='margin:auto;width: auto; font-size: 150%'><span style='font-weight: bold; font-size: 100px; color: red;'>0 points!</span><br><br></div>,,delaylearn,learning,feedback_image_window,mxfavF5YdvbJDxWwvO8nmCs5ZZv2,mxfavF5YdvbJDxWwvO8nmCs5ZZv2,,,,,,,,,,,,,,,,,,,,,,5eb85799cc3ea50a5f3591ad,16:42:28,27/03/2024
html-keyboard-response,176,353620,0.0-73.0,,"<div style=""font-size:100px;"">+</div>",,delaylearn,learning,ITI,mxfavF5YdvbJDxWwvO8nmCs5ZZv2,mxfavF5YdvbJDxWwvO8nmCs5ZZv2,,,,,,,,,,,,,,,,,,,2158.0,,,5eb85799cc3ea50a5f3591ad,16:42:28,27/03/2024
html-keyboard-response,177,355040,0.0-74.0-0.0,1418.0,"<div style=""display: flex; flex-direction: column; align-items: center; margin-top: -40px;""><img src=""images/pattern_3.png"" style=""width: 234px; height: 230px; margin-top: -50px;""><div style=""display: flex; justify-content: space-between; margin-top: 33px;""><img src=""images/choice_trial_6.png"" style=""width: 408px; height: 417px; margin-right: 200px;""><img src=""images/choice_trial_5.png"" style=""width: 408px; height: 417px;""></div></div>",j,delaylearn,learning,trial,mxfavF5YdvbJDxWwvO8nmCs5ZZv2,mxfavF5YdvbJDxWwvO8nmCs5ZZv2,1.0,images/choice_trial_6.png,images/choice_trial_5.png,images/pattern_3.png,j,j,7000.0,6.0,5.0,2.0,1.0,32.0,1.0,1.0,5.0,170.0,,,,,,5eb85799cc3ea50a5f3591ad,16:42:28,27/03/2024
html-keyboard-response,178,356042,0.0-74.0-1.0,,"<div style=""display: flex; flex-direction: column; align-items: center; margin-top: -40px;""><img src=""images/pattern_3.png"" style=""width: 234px; height: 230px; margin-top: -50px;""><div style=""display: flex; justify-content: space-between; margin-top: 33px;""><img src=""images/choice_trial_5.png"" style=""width: 408px; height: 417px; margin-left:608px;""></div></div>",,delaylearn,learning,display_response,mxfavF5YdvbJDxWwvO8nmCs5ZZv2,mxfavF5YdvbJDxWwvO8nmCs5ZZv2,,,,,,,,,,,,,,,,,chosen stimuli: images/choice_trial_5.png,,,,,5eb85799cc3ea50a5f3591ad,16:42:28,27/03/2024
html-keyboard-response,179,363044,0.0-74.0-2.0,,,,delaylearn,learning,feedback_duration_window,mxfavF5YdvbJDxWwvO8nmCs5ZZv2,mxfavF5YdvbJDxWwvO8nmCs5ZZv2,,,,,,,,,,,,,,,,,,7000.0,,,,5eb85799cc3ea50a5f3591ad,16:42:28,27/03/2024
html-keyboard-response,180,364546,0.0-74.0-3.0,,<div style='margin:auto;width: auto; font-size: 150%'><span style='font-weight: bold; font-size: 100px; color: green;'>+10 points!</span><br><br></div>,,delaylearn,learning,feedback_image_window,mxfavF5YdvbJDxWwvO8nmCs5ZZv2,mxfavF5YdvbJDxWwvO8nmCs5ZZv2,,,,,,,,,,,,,,,,,,,,,,5eb85799cc3ea50a5f3591ad,16:42:28,27/03/2024
html-keyboard-response,181,366732,0.0-75.0,,"<div style=""font-size:100px;"">+</div>",,delaylearn,learning,ITI,mxfavF5YdvbJDxWwvO8nmCs5ZZv2,mxfavF5YdvbJDxWwvO8nmCs5ZZv2,,,,,,,,,,,,,,,,,,,2185.0,,,5eb85799cc3ea50a5f3591ad,16:42:28,27/03/2024
html-keyboard-response,182,367903,0.0-76.0-0.0,1169.5,"<div style=""display: flex; flex-direction: column; align-items: center; margin-top: -40px;""><img src=""images/pattern_5.png"" style=""width: 234px; height: 230px; margin-top: -50px;""><div style=""display: flex; justify-content: space-between; margin-top: 33px;""><img src=""images/choice_trial_9.png"" style=""width: 408px; height: 417px; margin-right: 200px;""><img src=""images/choice_trial_10.png"" style=""width: 408px; height: 417px;""></div></div>",f,delaylearn,learning,trial,mxfavF5YdvbJDxWwvO8nmCs5ZZv2,mxfavF5YdvbJDxWwvO8nmCs5ZZv2,1.0,images/choice_trial_9.png,images/choice_trial_10.png,images/pattern_5.png,j,f,750.0,9.0,10.0,4.0,0.0,33.0,1.0,0.0,9.0,170.0,,,,,,5eb85799cc3ea50a5f3591ad,16:42:28,27/03/2024
html-keyboard-response,183,368904,0.0-76.0-1.0,,"<div style=""display: flex; flex-direction: column; align-items: center; margin-top: -40px;""><img src=""images/pattern_5.png"" style=""width: 234px; height: 230px; margin-top: -50px;""><div style=""display: flex; justify-content: space-between; margin-top: 33px;""><img src=""images/choice_trial_9.png"" style=""width: 408px; height: 417px; margin-right: 608px;""></div></div>",,delaylearn,learning,display_response,mxfavF5YdvbJDxWwvO8nmCs5ZZv2,mxfavF5YdvbJDxWwvO8nmCs5ZZv2,,,,,,,,,,,,,,,,,chosen stimuli: images/choice_trial_9.png,,,,,5eb85799cc3ea50a5f3591ad,16:42:28,27/03/2024
html-keyboard-response,184,369656,0.0-76.0-2.0,,,,delaylearn,learning,feedback_duration_window,mxfavF5YdvbJDxWwvO8nmCs5ZZv2,mxfavF5YdvbJDxWwvO8nmCs5ZZv2,,,,,,,,,,,,,,,,,,750.0,,,,5eb85799cc3ea50a5f3591ad,16:42:28,27/03/2024
html-keyboard-response,185,371157,0.0-76.0-3.0,,<div style='margin:auto;width: auto; font-size: 150%'><span style='font-weight: bold; font-size: 100px; color: red;'>0 points!</span><br><br></div>,,delaylearn,learning,feedback_image_window,mxfavF5YdvbJDxWwvO8nmCs5ZZv2,mxfavF5YdvbJDxWwvO8nmCs5ZZv2,,,,,,,,,,,,,,,,,,,,,,5eb85799cc3ea50a5f3591ad,16:42:28,27/03/2024
html-keyboard-response,186,373084,0.0-77.0,,"<div style=""font-size:100px;"">+</div>",,delaylearn,learning,ITI,mxfavF5YdvbJDxWwvO8nmCs5ZZv2,mxfavF5YdvbJDxWwvO8nmCs5ZZv2,,,,,,,,,,,,,,,,,,,1924.0,,,5eb85799cc3ea50a5f3591ad,16:42:28,27/03/2024
html-keyboard-response,187,374060,0.0-78.0-0.0,973.2999999970198,"<div style=""display: flex; flex-direction: column; align-items: center; margin-top: -40px;""><img src=""images/pattern_1.png"" style=""width: 234px; height: 230px; margin-top: -50px;""><div style=""display: flex; justify-content: space-between; margin-top: 33px;""><img src=""images/choice_trial_1.png"" style=""width: 408px; height: 417px; margin-right: 200px;""><img src=""images/choice_trial_2.png"" style=""width: 408px; height: 417px;""></div></div>",j,delaylearn,learning,trial,mxfavF5YdvbJDxWwvO8nmCs5ZZv2,mxfavF5YdvbJDxWwvO8nmCs5ZZv2,1.0,images/choice_trial_1.png,images/choice_trial_2.png,images/pattern_1.png,f,f,7000.0,1.0,2.0,1.0,0.0,34.0,0.0,0.0,2.0,170.0,,,,,,5eb85799cc3ea50a5f3591ad,16:42:28,27/03/2024
html-keyboard-response,188,375062,0.0-78.0-1.0,,"<div style=""display: flex; flex-direction: column; align-items: center; margin-top: -40px;""><img src=""images/pattern_1.png"" style=""width: 234px; height: 230px; margin-top: -50px;""><div style=""display: flex; justify-content: space-between; margin-top: 33px;""><img src=""images/choice_trial_2.png"" style=""width: 408px; height: 417px; margin-left:608px;""></div></div>",,delaylearn,learning,display_response,mxfavF5YdvbJDxWwvO8nmCs5ZZv2,mxfavF5YdvbJDxWwvO8nmCs5ZZv2,,,,,,,,,,,,,,,,,chosen stimuli: images/choice_trial_2.png,,,,,5eb85799cc3ea50a5f3591ad,16:42:28,27/03/2024
html-keyboard-response,189,382063,0.0-78.0-2.0,,,,delaylearn,learning,feedback_duration_window,mxfavF5YdvbJDxWwvO8nmCs5ZZv2,mxfavF5YdvbJDxWwvO8nmCs5ZZv2,,,,,,,,,,,,,,,,,,7000.0,,,,5eb85799cc3ea50a5f3591ad,16:42:28,27/03/2024
html-keyboard-response,190,383565,0.0-78.0-3.0,,<div style='margin:auto;width: auto; font-size: 150%'><span style='font-weight: bold; font-size: 100px; color: red;'>0 points!</span><br><br></div>,,delaylearn,learning,feedback_image_window,mxfavF5YdvbJDxWwvO8nmCs5ZZv2,mxfavF5YdvbJDxWwvO8nmCs5ZZv2,,,,,,,,,,,,,,,,,,,,,,5eb85799cc3ea50a5f3591ad,16:42:28,27/03/2024
html-keyboard-response,191,384066,0.0-79.0-0.0,,,,,,mood_trial_fixation,mxfavF5YdvbJDxWwvO8nmCs5ZZv2,,,,,,,,,,,,,,,,,,,,,,,5eb85799cc3ea50a5f3591ad,16:42:28,27/03/2024
lmdlab-html-vas-response,192,388828,0.0-79.0-1.0,3759.0,How happy are you right now?,0.4962962962962963,delaylearn,learning,mood_trial,mxfavF5YdvbJDxWwvO8nmCs5ZZv2,mxfavF5YdvbJDxWwvO8nmCs5ZZv2,,,,,,,,,,,,,,,,,,,,"['Very unhappy', 'Very happy']",,5eb85799cc3ea50a5f3591ad,16:42:28,27/03/2024
html-keyboard-response,193,390640,0.0-80.0,,"<div style=""font-size:100px;"">+</div>",,delaylearn,learning,ITI,mxfavF5YdvbJDxWwvO8nmCs5ZZv2,mxfavF5YdvbJDxWwvO8nmCs5ZZv2,,,,,,,,,,,,,,,,,,,1811.0,,,5eb85799cc3ea50a5f3591ad,16:42:28,27/03/2024
html-keyboard-response,194,391916,0.0-81.0-0.0,1274.6000000014901,"<div style=""display: flex; flex-direction: column; align-items: center; margin-top: -40px;""><img src=""images/pattern_6.png"" style=""width: 234px; height: 230px; margin-top: -50px;""><div style=""display: flex; justify-content: space-between; margin-top: 33px;""><img src=""images/choice_trial_11.png"" style=""width: 408px; height: 417px; margin-right: 200px;""><img src=""images/choice_trial_12.png"" style=""width: 408px; height: 417px;""></div></div>",j,delaylearn,learning,trial,mxfavF5YdvbJDxWwvO8nmCs5ZZv2,mxfavF5YdvbJDxWwvO8nmCs5ZZv2,1.0,images/choice_trial_11.png,images/choice_trial_12.png,images/pattern_6.png,j,f,750.0,11.0,12.0,5.0,0.0,35.0,0.0,1.0,12.0,180.0,,,,,,5eb85799cc3ea50a5f3591ad,16:42:28,27/03/2024
html-keyboard-response,195,392918,0.0-81.0-1.0,,"<div style=""display: flex; flex-direction: column; align-items: center; margin-top: -40px;""><img src=""images/pattern_6.png"" style=""width: 234px; height: 230px; margin-top: -50px;""><div style=""display: flex; justify-content: space-between; margin-top: 33px;""><img src=""images/choice_trial_12.png"" style=""width: 408px; height: 417px; margin-left:608px;""></div></div>",,delaylearn,learning,display_response,mxfavF5YdvbJDxWwvO8nmCs5ZZv2,mxfavF5YdvbJDxWwvO8nmCs5ZZv2,,,,,,,,,,,,,,,,,chosen stimuli: images/choice_trial_12.png,,,,,5eb85799cc3ea50a5f3591ad,16:42:28,27/03/2024
html-keyboard-response,196,393669,0.0-81.0-2.0,,,,delaylearn,learning,feedback_duration_window,mxfavF5YdvbJDxWwvO8nmCs5ZZv2,mxfavF5YdvbJDxWwvO8nmCs5ZZv2,,,,,,,,,,,,,,,,,,750.0,,,,5eb85799cc3ea50a5f3591ad,16:42:28,27/03/2024
html-keyboard-response,197,395171,0.0-81.0-3.0,,<div style='margin:auto;width: auto; font-size: 150%'><span style='font-weight: bold; font-size: 100px; color: green;'>+10 points!</span><br><br></div>,,delaylearn,learning,feedback_image_window,mxfavF5YdvbJDxWwvO8nmCs5ZZv2,mxfavF5YdvbJDxWwvO8nmCs5ZZv2,,,,,,,,,,,,,,,,,,,,,,5eb85799cc3ea50a5f3591ad,16:42:28,27/03/2024
html-keyboard-response,198,397412,0.0-82.0,,"<div style=""font-size:100px;"">+</div>",,delaylearn,learning,ITI,mxfavF5YdvbJDxWwvO8nmCs5ZZv2,mxfavF5YdvbJDxWwvO8nmCs5ZZv2,,,,,,,,,,,,,,,,,,,2239.0,,,5eb85799cc3ea50a5f3591ad,16:42:28,27/03/2024
html-keyboard-response,199,398880,0.0-83.0-0.0,1466.3999999985099,"<div style=""display: flex; flex-direction: column; align-items: center; margin-top: -40px;""><img src=""images/pattern_3.png"" style=""width: 234px; height: 230px; margin-top: -50px;""><div style=""display: flex; justify-content: space-between; margin-top: 33px;""><img src=""images/choice_trial_6.png"" style=""width: 408px; height: 417px; margin-right: 200px;""><img src=""images/choice_trial_5.png"" style=""width: 408px; height: 417px;""></div></div>",f,delaylearn,learning,trial,mxfavF5YdvbJDxWwvO8nmCs5ZZv2,mxfavF5YdvbJDxWwvO8nmCs5ZZv2,1.0,images/choice_trial_6.png,images/choice_trial_5.png,images/pattern_3.png,j,j,7000.0,6.0,5.0,2.0,1.0,36.0,0.0,0.0,6.0,180.0,,,,,,5eb85799cc3ea50a5f3591ad,16:42:28,27/03/2024
html-keyboard-response,200,399882,0.0-83.0-1.0,,"<div style=""display: flex; flex-direction: column; align-items: center; margin-top: -40px;""><img src=""images/pattern_3.png"" style=""width: 234px; height: 230px; margin-top: -50px;""><div style=""display: flex; justify-content: space-between; margin-top: 33px;""><img src=""images/choice_trial_6.png"" style=""width: 408px; height: 417px; margin-right: 608px;""></div></div>",,delaylearn,learning,display_response,mxfavF5YdvbJDxWwvO8nmCs5ZZv2,mxfavF5YdvbJDxWwvO8nmCs5ZZv2,,,,,,,,,,,,,,,,,chosen stimuli: images/choice_trial_6.png,,,,,5eb85799cc3ea50a5f3591ad,16:42:28,27/03/2024
html-keyboard-response,201,406883,0.0-83.0-2.0,,,,delaylearn,learning,feedback_duration_window,mxfavF5YdvbJDxWwvO8nmCs5ZZv2,mxfavF5YdvbJDxWwvO8nmCs5ZZv2,,,,,,,,,,,,,,,,,,7000.0,,,,5eb85799cc3ea50a5f3591ad,16:42:28,27/03/2024
html-keyboard-response,202,408385,0.0-83.0-3.0,,<div style='margin:auto;width: auto; font-size: 150%'><span style='font-weight: bold; font-size: 100px; color: red;'>0 points!</span><br><br></div>,,delaylearn,learning,feedback_image_window,mxfavF5YdvbJDxWwvO8nmCs5ZZv2,mxfavF5YdvbJDxWwvO8nmCs5ZZv2,,,,,,,,,,,,,,,,,,,,,,5eb85799cc3ea50a5f3591ad,16:42:28,27/03/2024
html-keyboard-response,203,409979,0.0-84.0,,"<div style=""font-size:100px;"">+</div>",,delaylearn,learning,ITI,mxfavF5YdvbJDxWwvO8nmCs5ZZv2,mxfavF5YdvbJDxWwvO8nmCs5ZZv2,,,,,,,,,,,,,,,,,,,1593.0,,,5eb85799cc3ea50a5f3591ad,16:42:28,27/03/2024
html-keyboard-response,204,411580,0.0-85.0-0.0,1598.0,"<div style=""display: flex; flex-direction: column; align-items: center; margin-top: -40px;""><img src=""images/pattern_4.png"" style=""width: 234px; height: 230px; margin-top: -50px;""><div style=""display: flex; justify-content: space-between; margin-top: 33px;""><img src=""images/choice_trial_8.png"" style=""width: 408px; height: 417px; margin-right: 200px;""><img src=""images/choice_trial_7.png"" style=""width: 408px; height: 417px;""></div></div>",j,delaylearn,learning,trial,mxfavF5YdvbJDxWwvO8nmCs5ZZv2,mxfavF5YdvbJDxWwvO8nmCs5ZZv2,1.0,images/choice_trial_8.png,images/choice_trial_7.png,images/pattern_4.png,f,j,7000.0,8.0,7.0,3.0,1.0,37.0,1.0,0.0,7.0,180.0,,,,,,5eb85799cc3ea50a5f3591ad,16:42:28,27/03/2024
html-keyboard-response,205,412581,0.0-85.0-1.0,,"<div style=""display: flex; flex-direction: column; align-items: center; margin-top: -40px;""><img src=""images/pattern_4.png"" style=""width: 234px; height: 230px; margin-top: -50px;""><div style=""display: flex; justify-content: space-between; margin-top: 33px;""><img src=""images/choice_trial_7.png"" style=""width: 408px; height: 417px; margin-left:608px;""></div></div>",,delaylearn,learning,display_response,mxfavF5YdvbJDxWwvO8nmCs5ZZv2,mxfavF5YdvbJDxWwvO8nmCs5ZZv2,,,,,,,,,,,,,,,,,chosen stimuli: images/choice_trial_7.png,,,,,5eb85799cc3ea50a5f3591ad,16:42:28,27/03/2024
html-keyboard-response,206,419583,0.0-85.0-2.0,,,,delaylearn,learning,feedback_duration_window,mxfavF5YdvbJDxWwvO8nmCs5ZZv2,mxfavF5YdvbJDxWwvO8nmCs5ZZv2,,,,,,,,,,,,,,,,,,7000.0,,,,5eb85799cc3ea50a5f3591ad,16:42:28,27/03/2024
html-keyboard-response,207,421084,0.0-85.0-3.0,,<div style='margin:auto;width: auto; font-size: 150%'><span style='font-weight: bold; font-size: 100px; color: red;'>0 points!</span><br><br></div>,,delaylearn,learning,feedback_image_window,mxfavF5YdvbJDxWwvO8nmCs5ZZv2,mxfavF5YdvbJDxWwvO8nmCs5ZZv2,,,,,,,,,,,,,,,,,,,,,,5eb85799cc3ea50a5f3591ad,16:42:28,27/03/2024
html-keyboard-response,208,422940,0.0-86.0,,"<div style=""font-size:100px;"">+</div>",,delaylearn,learning,ITI,mxfavF5YdvbJDxWwvO8nmCs5ZZv2,mxfavF5YdvbJDxWwvO8nmCs5ZZv2,,,,,,,,,,,,,,,,,,,1854.0,,,5eb85799cc3ea50a5f3591ad,16:42:28,27/03/2024
html-keyboard-response,209,423788,0.0-87.0-0.0,846.3999999985099,"<div style=""display: flex; flex-direction: column; align-items: center; margin-top: -40px;""><img src=""images/pattern_7.png"" style=""width: 234px; height: 230px; margin-top: -50px;""><div style=""display: flex; justify-content: space-between; margin-top: 33px;""><img src=""images/choice_trial_13.png"" style=""width: 408px; height: 417px; margin-right: 200px;""><img src=""images/choice_trial_14.png"" style=""width: 408px; height: 417px;""></div></div>",f,delaylearn,learning,trial,mxfavF5YdvbJDxWwvO8nmCs5ZZv2,mxfavF5YdvbJDxWwvO8nmCs5ZZv2,1.0,images/choice_trial_13.png,images/choice_trial_14.png,images/pattern_7.png,f,f,750.0,13.0,14.0,6.0,0.0,38.0,1.0,1.0,13.0,190.0,,,,,,5eb85799cc3ea50a5f3591ad,16:42:28,27/03/2024
html-keyboard-response,210,424789,0.0-87.0-1.0,,"<div style=""display: flex; flex-direction: column; align-items: center; margin-top: -40px;""><img src=""images/pattern_7.png"" style=""width: 234px; height: 230px; margin-top: -50px;""><div style=""display: flex; justify-content: space-between; margin-top: 33px;""><img src=""images/choice_trial_13.png"" style=""width: 408px; height: 417px; margin-right: 608px;""></div></div>",,delaylearn,learning,display_response,mxfavF5YdvbJDxWwvO8nmCs5ZZv2,mxfavF5YdvbJDxWwvO8nmCs5ZZv2,,,,,,,,,,,,,,,,,chosen stimuli: images/choice_trial_13.png,,,,,5eb85799cc3ea50a5f3591ad,16:42:28,27/03/2024
html-keyboard-response,211,425541,0.0-87.0-2.0,,,,delaylearn,learning,feedback_duration_window,mxfavF5YdvbJDxWwvO8nmCs5ZZv2,mxfavF5YdvbJDxWwvO8nmCs5ZZv2,,,,,,,,,,,,,,,,,,750.0,,,,5eb85799cc3ea50a5f3591ad,16:42:28,27/03/2024
html-keyboard-response,212,427042,0.0-87.0-3.0,,<div style='margin:auto;width: auto; font-size: 150%'><span style='font-weight: bold; font-size: 100px; color: green;'>+10 points!</span><br><br></div>,,delaylearn,learning,feedback_image_window,mxfavF5YdvbJDxWwvO8nmCs5ZZv2,mxfavF5YdvbJDxWwvO8nmCs5ZZv2,,,,,,,,,,,,,,,,,,,,,,5eb85799cc3ea50a5f3591ad,16:42:28,27/03/2024
html-keyboard-response,213,428888,0.0-88.0,,"<div style=""font-size:100px;"">+</div>",,delaylearn,learning,ITI,mxfavF5YdvbJDxWwvO8nmCs5ZZv2,mxfavF5YdvbJDxWwvO8nmCs5ZZv2,,,,,,,,,,,,,,,,,,,1844.0,,,5eb85799cc3ea50a5f3591ad,16:42:28,27/03/2024
html-keyboard-response,214,430119,0.0-89.0-0.0,1228.9000000059605,"<div style=""display: flex; flex-direction: column; align-items: center; margin-top: -40px;""><img src=""images/pattern_1.png"" style=""width: 234px; height: 230px; margin-top: -50px;""><div style=""display: flex; justify-content: space-between; margin-top: 33px;""><img src=""images/choice_trial_1.png"" style=""width: 408px; height: 417px; margin-right: 200px;""><img src=""images/choice_trial_2.png"" style=""width: 408px; height: 417px;""></div></div>",j,delaylearn,learning,trial,mxfavF5YdvbJDxWwvO8nmCs5ZZv2,mxfavF5YdvbJDxWwvO8nmCs5ZZv2,1.0,images/choice_trial_1.png,images/choice_trial_2.png,images/pattern_1.png,f,f,7000.0,1.0,2.0,1.0,0.0,39.0,0.0,0.0,2.0,190.0,,,,,,5eb85799cc3ea50a5f3591ad,16:42:28,27/03/2024
html-keyboard-response,215,431121,0.0-89.0-1.0,,"<div style=""display: flex; flex-direction: column; align-items: center; margin-top: -40px;""><img src=""images/pattern_1.png"" style=""width: 234px; height: 230px; margin-top: -50px;""><div style=""display: flex; justify-content: space-between; margin-top: 33px;""><img src=""images/choice_trial_2.png"" style=""width: 408px; height: 417px; margin-left:608px;""></div></div>",,delaylearn,learning,display_response,mxfavF5YdvbJDxWwvO8nmCs5ZZv2,mxfavF5YdvbJDxWwvO8nmCs5ZZv2,,,,,,,,,,,,,,,,,chosen stimuli: images/choice_trial_2.png,,,,,5eb85799cc3ea50a5f3591ad,16:42:28,27/03/2024
html-keyboard-response,216,438121,0.0-89.0-2.0,,,,delaylearn,learning,feedback_duration_window,mxfavF5YdvbJDxWwvO8nmCs5ZZv2,mxfavF5YdvbJDxWwvO8nmCs5ZZv2,,,,,,,,,,,,,,,,,,7000.0,,,,5eb85799cc3ea50a5f3591ad,16:42:28,27/03/2024
html-keyboard-response,217,439624,0.0-89.0-3.0,,<div style='margin:auto;width: auto; font-size: 150%'><span style='font-weight: bold; font-size: 100px; color: red;'>0 points!</span><br><br></div>,,delaylearn,learning,feedback_image_window,mxfavF5YdvbJDxWwvO8nmCs5ZZv2,mxfavF5YdvbJDxWwvO8nmCs5ZZv2,,,,,,,,,,,,,,,,,,,,,,5eb85799cc3ea50a5f3591ad,16:42:28,27/03/2024
html-keyboard-response,218,440125,0.0-90.0-0.0,,,,,,mood_trial_fixation,mxfavF5YdvbJDxWwvO8nmCs5ZZv2,,,,,,,,,,,,,,,,,,,,,,,5eb85799cc3ea50a5f3591ad,16:42:28,27/03/2024
lmdlab-html-vas-response,219,443966,0.0-90.0-1.0,2837.0,How happy are you right now?,0.3685185185185185,delaylearn,learning,mood_trial,mxfavF5YdvbJDxWwvO8nmCs5ZZv2,mxfavF5YdvbJDxWwvO8nmCs5ZZv2,,,,,,,,,,,,,,,,,,,,"['Very unhappy', 'Very happy']",,5eb85799cc3ea50a5f3591ad,16:42:28,27/03/2024
html-keyboard-response,220,446136,0.0-91.0,,"<div style=""font-size:100px;"">+</div>",,delaylearn,learning,ITI,mxfavF5YdvbJDxWwvO8nmCs5ZZv2,mxfavF5YdvbJDxWwvO8nmCs5ZZv2,,,,,,,,,,,,,,,,,,,2168.0,,,5eb85799cc3ea50a5f3591ad,16:42:28,27/03/2024
html-keyboard-response,221,447415,0.0-92.0-0.0,1276.9000000059605,"<div style=""display: flex; flex-direction: column; align-items: center; margin-top: -40px;""><img src=""images/pattern_3.png"" style=""width: 234px; height: 230px; margin-top: -50px;""><div style=""display: flex; justify-content: space-between; margin-top: 33px;""><img src=""images/choice_trial_5.png"" style=""width: 408px; height: 417px; margin-right: 200px;""><img src=""images/choice_trial_6.png"" style=""width: 408px; height: 417px;""></div></div>",f,delaylearn,learning,trial,mxfavF5YdvbJDxWwvO8nmCs5ZZv2,mxfavF5YdvbJDxWwvO8nmCs5ZZv2,1.0,images/choice_trial_5.png,images/choice_trial_6.png,images/pattern_3.png,j,f,7000.0,5.0,6.0,2.0,0.0,40.0,1.0,0.0,5.0,190.0,,,,,,5eb85799cc3ea50a5f3591ad,16:42:28,27/03/2024
html-keyboard-response,222,448417,0.0-92.0-1.0,,"<div style=""display: flex; flex-direction: column; align-items: center; margin-top: -40px;""><img src=""images/pattern_3.png"" style=""width: 234px; height: 230px; margin-top: -50px;""><div style=""display: flex; justify-content: space-between; margin-top: 33px;""><img src=""images/choice_trial_5.png"" style=""width: 408px; height: 417px; margin-right: 608px;""></div></div>",,delaylearn,learning,display_response,mxfavF5YdvbJDxWwvO8nmCs5ZZv2,mxfavF5YdvbJDxWwvO8nmCs5ZZv2,,,,,,,,,,,,,,,,,chosen stimuli: images/choice_trial_5.png,,,,,5eb85799cc3ea50a5f3591ad,16:42:28,27/03/2024
html-keyboard-response,223,455418,0.0-92.0-2.0,,,,delaylearn,learning,feedback_duration_window,mxfavF5YdvbJDxWwvO8nmCs5ZZv2,mxfavF5YdvbJDxWwvO8nmCs5ZZv2,,,,,,,,,,,,,,,,,,7000.0,,,,5eb85799cc3ea50a5f3591ad,16:42:28,27/03/2024
html-keyboard-response,224,456919,0.0-92.0-3.0,,<div style='margin:auto;width: auto; font-size: 150%'><span style='font-weight: bold; font-size: 100px; color: red;'>0 points!</span><br><br></div>,,delaylearn,learning,feedback_image_window,mxfavF5YdvbJDxWwvO8nmCs5ZZv2,mxfavF5YdvbJDxWwvO8nmCs5ZZv2,,,,,,,,,,,,,,,,,,,,,,5eb85799cc3ea50a5f3591ad,16:42:28,27/03/2024
html-keyboard-response,225,458764,0.0-93.0,,"<div style=""font-size:100px;"">+</div>",,delaylearn,learning,ITI,mxfavF5YdvbJDxWwvO8nmCs5ZZv2,mxfavF5YdvbJDxWwvO8nmCs5ZZv2,,,,,,,,,,,,,,,,,,,1844.0,,,5eb85799cc3ea50a5f3591ad,16:42:28,27/03/2024
html-keyboard-response,226,459580,0.0-94.0-0.0,814.3000000044703,"<div style=""display: flex; flex-direction: column; align-items: center; margin-top: -40px;""><img src=""images/pattern_7.png"" style=""width: 234px; height: 230px; margin-top: -50px;""><div style=""display: flex; justify-content: space-between; margin-top: 33px;""><img src=""images/choice_trial_14.png"" style=""width: 408px; height: 417px; margin-right: 200px;""><img src=""images/choice_trial_13.png"" style=""width: 408px; height: 417px;""></div></div>",j,delaylearn,learning,trial,mxfavF5YdvbJDxWwvO8nmCs5ZZv2,mxfavF5YdvbJDxWwvO8nmCs5ZZv2,1.0,images/choice_trial_14.png,images/choice_trial_13.png,images/pattern_7.png,j,j,750.0,14.0,13.0,6.0,1.0,41.0,1.0,1.0,13.0,200.0,,,,,,5eb85799cc3ea50a5f3591ad,16:42:28,27/03/2024
html-keyboard-response,227,460582,0.0-94.0-1.0,,"<div style=""display: flex; flex-direction: column; align-items: center; margin-top: -40px;""><img src=""images/pattern_7.png"" style=""width: 234px; height: 230px; margin-top: -50px;""><div style=""display: flex; justify-content: space-between; margin-top: 33px;""><img src=""images/choice_trial_13.png"" style=""width: 408px; height: 417px; margin-left:608px;""></div></div>",,delaylearn,learning,display_response,mxfavF5YdvbJDxWwvO8nmCs5ZZv2,mxfavF5YdvbJDxWwvO8nmCs5ZZv2,,,,,,,,,,,,,,,,,chosen stimuli: images/choice_trial_13.png,,,,,5eb85799cc3ea50a5f3591ad,16:42:28,27/03/2024
html-keyboard-response,228,461334,0.0-94.0-2.0,,,,delaylearn,learning,feedback_duration_window,mxfavF5YdvbJDxWwvO8nmCs5ZZv2,mxfavF5YdvbJDxWwvO8nmCs5ZZv2,,,,,,,,,,,,,,,,,,750.0,,,,5eb85799cc3ea50a5f3591ad,16:42:28,27/03/2024
html-keyboard-response,229,462835,0.0-94.0-3.0,,<div style='margin:auto;width: auto; font-size: 150%'><span style='font-weight: bold; font-size: 100px; color: green;'>+10 points!</span><br><br></div>,,delaylearn,learning,feedback_image_window,mxfavF5YdvbJDxWwvO8nmCs5ZZv2,mxfavF5YdvbJDxWwvO8nmCs5ZZv2,,,,,,,,,,,,,,,,,,,,,,5eb85799cc3ea50a5f3591ad,16:42:28,27/03/2024
html-keyboard-response,230,465243,0.0-95.0,,"<div style=""font-size:100px;"">+</div>",,delaylearn,learning,ITI,mxfavF5YdvbJDxWwvO8nmCs5ZZv2,mxfavF5YdvbJDxWwvO8nmCs5ZZv2,,,,,,,,,,,,,,,,,,,2407.0,,,5eb85799cc3ea50a5f3591ad,16:42:28,27/03/2024
html-keyboard-response,231,466849,0.0-96.0-0.0,1604.3000000044703,"<div style=""display: flex; flex-direction: column; align-items: center; margin-top: -40px;""><img src=""images/pattern_5.png"" style=""width: 234px; height: 230px; margin-top: -50px;""><div style=""display: flex; justify-content: space-between; margin-top: 33px;""><img src=""images/choice_trial_10.png"" style=""width: 408px; height: 417px; margin-right: 200px;""><img src=""images/choice_trial_9.png"" style=""width: 408px; height: 417px;""></div></div>",f,delaylearn,learning,trial,mxfavF5YdvbJDxWwvO8nmCs5ZZv2,mxfavF5YdvbJDxWwvO8nmCs5ZZv2,1.0,images/choice_trial_10.png,images/choice_trial_9.png,images/pattern_5.png,j,j,750.0,10.0,9.0,4.0,1.0,42.0,0.0,0.0,10.0,200.0,,,,,,5eb85799cc3ea50a5f3591ad,16:42:28,27/03/2024
html-keyboard-response,232,467851,0.0-96.0-1.0,,"<div style=""display: flex; flex-direction: column; align-items: center; margin-top: -40px;""><img src=""images/pattern_5.png"" style=""width: 234px; height: 230px; margin-top: -50px;""><div style=""display: flex; justify-content: space-between; margin-top: 33px;""><img src=""images/choice_trial_10.png"" style=""width: 408px; height: 417px; margin-right: 608px;""></div></div>",,delaylearn,learning,display_response,mxfavF5YdvbJDxWwvO8nmCs5ZZv2,mxfavF5YdvbJDxWwvO8nmCs5ZZv2,,,,,,,,,,,,,,,,,chosen stimuli: images/choice_trial_10.png,,,,,5eb85799cc3ea50a5f3591ad,16:42:28,27/03/2024
