trial_type,trial_index,time_elapsed,internal_node_id,rt,stimulus,response,exp_name,exp_stage,test_part,subjectID,databaseID,counterbal,choice_stimuli_1,choice_stimuli_2,pattern_stimuli,rewarded_answer,correct_answer,feedback_duration_times,stim_left,stim_right,pair,leftright_counter,trial,response_correct,response_rewarded,chosen_stim,counter,displayed_choice,feedback_durations,ITI_duration,labels,rest_warning,prolificID,start_time,date
pavlovia,0,500,0.0-0.0,,,,,,,5Z32vkr4iae9agunNWmkpFf0imP2,,,,,,,,,,,,,,,,,,,,,,,5dbe90f8965e863667a79ca8,09:06:05,27/02/2024
html-keyboard-response,1,3502,0.0-1.0,,"<div style=""font-size:100px;"">+</div>",,delaylearn,learning,pre_fixation,5Z32vkr4iae9agunNWmkpFf0imP2,,,,,,,,,,,,,,,,,,,,,,,5dbe90f8965e863667a79ca8,09:06:05,27/02/2024
html-keyboard-response,2,4425,0.0-2.0-0.0,921.0999999642372,"<div style=""display: flex; flex-direction: column; align-items: center; margin-top: -40px;""><img src=""images/demo_images/pattern_1.png"" style=""width: 234px; height: 230px; margin-top: -50px;""><div style=""display: flex; justify-content: space-between; margin-top: 33px;""><img src=""images/demo_images/choice_trial_2.png"" style=""width: 408px; height: 417px; margin-right: 200px;""><img src=""images/demo_images/choice_trial_1.png"" style=""width: 408px; height: 417px;""></div></div>",f,delaylearn,learning,trial,5Z32vkr4iae9agunNWmkpFf0imP2,5Z32vkr4iae9agunNWmkpFf0imP2,2.0,images/demo_images/choice_trial_2.png,images/demo_images/choice_trial_1.png,images/demo_images/pattern_1.png,j,j,3000.0,2.0,1.0,20.0,1.0,1.0,0.0,0.0,2.0,0.0,,,,,,5dbe90f8965e863667a79ca8,09:06:05,27/02/2024
html-keyboard-response,3,5429,0.0-2.0-1.0,,"<div style=""display: flex; flex-direction: column; align-items: center; margin-top: -40px;""><img src=""images/demo_images/pattern_1.png"" style=""width: 234px; height: 230px; margin-top: -50px;""><div style=""display: flex; justify-content: space-between; margin-top: 33px;""><img src=""images/demo_images/choice_trial_2.png"" style=""width: 408px; height: 417px; margin-right: 608px;""></div></div>",,delaylearn,learning,display_response,5Z32vkr4iae9agunNWmkpFf0imP2,5Z32vkr4iae9agunNWmkpFf0imP2,,,,,,,,,,,,,,,,,chosen stimuli: images/demo_images/choice_trial_2.png,,,,,5dbe90f8965e863667a79ca8,09:06:05,27/02/2024
html-keyboard-response,4,8445,0.0-2.0-2.0,,,,delaylearn,learning,feedback_duration_window,5Z32vkr4iae9agunNWmkpFf0imP2,5Z32vkr4iae9agunNWmkpFf0imP2,,,,,,,,,,,,,,,,,,3000.0,,,,5dbe90f8965e863667a79ca8,09:06:05,27/02/2024
html-keyboard-response,5,9954,0.0-2.0-3.0,,<div style='margin:auto;width: auto; font-size: 150%'><span style='font-weight: bold; font-size: 100px; color: red;'>0 points!</span><br><br></div>,,delaylearn,learning,feedback_image_window,5Z32vkr4iae9agunNWmkpFf0imP2,5Z32vkr4iae9agunNWmkpFf0imP2,,,,,,,,,,,,,,,,,,,,,,5dbe90f8965e863667a79ca8,09:06:05,27/02/2024
html-keyboard-response,6,11838,0.0-3.0,,"<div style=""font-size:100px;"">+</div>",,delaylearn,learning,ITI,5Z32vkr4iae9agunNWmkpFf0imP2,5Z32vkr4iae9agunNWmkpFf0imP2,,,,,,,,,,,,,,,,,,,1879.0,,,5dbe90f8965e863667a79ca8,09:06:05,27/02/2024
html-keyboard-response,7,12979,0.0-4.0-0.0,1139.1000000238419,"<div style=""display: flex; flex-direction: column; align-items: center; margin-top: -40px;""><img src=""images/demo_images/pattern_1.png"" style=""width: 234px; height: 230px; margin-top: -50px;""><div style=""display: flex; justify-content: space-between; margin-top: 33px;""><img src=""images/demo_images/choice_trial_2.png"" style=""width: 408px; height: 417px; margin-right: 200px;""><img src=""images/demo_images/choice_trial_1.png"" style=""width: 408px; height: 417px;""></div></div>",j,delaylearn,learning,trial,5Z32vkr4iae9agunNWmkpFf0imP2,5Z32vkr4iae9agunNWmkpFf0imP2,2.0,images/demo_images/choice_trial_2.png,images/demo_images/choice_trial_1.png,images/demo_images/pattern_1.png,j,j,3000.0,2.0,1.0,20.0,1.0,2.0,1.0,1.0,1.0,10.0,,,,,,5dbe90f8965e863667a79ca8,09:06:05,27/02/2024
html-keyboard-response,8,13986,0.0-4.0-1.0,,"<div style=""display: flex; flex-direction: column; align-items: center; margin-top: -40px;""><img src=""images/demo_images/pattern_1.png"" style=""width: 234px; height: 230px; margin-top: -50px;""><div style=""display: flex; justify-content: space-between; margin-top: 33px;""><img src=""images/demo_images/choice_trial_1.png"" style=""width: 408px; height: 417px; margin-left:608px;""></div></div>",,delaylearn,learning,display_response,5Z32vkr4iae9agunNWmkpFf0imP2,5Z32vkr4iae9agunNWmkpFf0imP2,,,,,,,,,,,,,,,,,chosen stimuli: images/demo_images/choice_trial_1.png,,,,,5dbe90f8965e863667a79ca8,09:06:05,27/02/2024
html-keyboard-response,9,16993,0.0-4.0-2.0,,,,delaylearn,learning,feedback_duration_window,5Z32vkr4iae9agunNWmkpFf0imP2,5Z32vkr4iae9agunNWmkpFf0imP2,,,,,,,,,,,,,,,,,,3000.0,,,,5dbe90f8965e863667a79ca8,09:06:05,27/02/2024
html-keyboard-response,10,18498,0.0-4.0-3.0,,<div style='margin:auto;width: auto; font-size: 150%'><span style='font-weight: bold; font-size: 100px; color: green;'>+10 points!</span><br><br></div>,,delaylearn,learning,feedback_image_window,5Z32vkr4iae9agunNWmkpFf0imP2,5Z32vkr4iae9agunNWmkpFf0imP2,,,,,,,,,,,,,,,,,,,,,,5dbe90f8965e863667a79ca8,09:06:05,27/02/2024
html-keyboard-response,11,20151,0.0-5.0,,"<div style=""font-size:100px;"">+</div>",,delaylearn,learning,ITI,5Z32vkr4iae9agunNWmkpFf0imP2,5Z32vkr4iae9agunNWmkpFf0imP2,,,,,,,,,,,,,,,,,,,1648.0,,,5dbe90f8965e863667a79ca8,09:06:05,27/02/2024
html-keyboard-response,12,21336,0.0-6.0-0.0,1183.5,"<div style=""display: flex; flex-direction: column; align-items: center; margin-top: -40px;""><img src=""images/demo_images/pattern_1.png"" style=""width: 234px; height: 230px; margin-top: -50px;""><div style=""display: flex; justify-content: space-between; margin-top: 33px;""><img src=""images/demo_images/choice_trial_1.png"" style=""width: 408px; height: 417px; margin-right: 200px;""><img src=""images/demo_images/choice_trial_2.png"" style=""width: 408px; height: 417px;""></div></div>",f,delaylearn,learning,trial,5Z32vkr4iae9agunNWmkpFf0imP2,5Z32vkr4iae9agunNWmkpFf0imP2,2.0,images/demo_images/choice_trial_1.png,images/demo_images/choice_trial_2.png,images/demo_images/pattern_1.png,j,f,3000.0,1.0,2.0,20.0,0.0,3.0,1.0,0.0,1.0,10.0,,,,,,5dbe90f8965e863667a79ca8,09:06:05,27/02/2024
html-keyboard-response,13,22350,0.0-6.0-1.0,,"<div style=""display: flex; flex-direction: column; align-items: center; margin-top: -40px;""><img src=""images/demo_images/pattern_1.png"" style=""width: 234px; height: 230px; margin-top: -50px;""><div style=""display: flex; justify-content: space-between; margin-top: 33px;""><img src=""images/demo_images/choice_trial_1.png"" style=""width: 408px; height: 417px; margin-right: 608px;""></div></div>",,delaylearn,learning,display_response,5Z32vkr4iae9agunNWmkpFf0imP2,5Z32vkr4iae9agunNWmkpFf0imP2,,,,,,,,,,,,,,,,,chosen stimuli: images/demo_images/choice_trial_1.png,,,,,5dbe90f8965e863667a79ca8,09:06:05,27/02/2024
html-keyboard-response,14,25352,0.0-6.0-2.0,,,,delaylearn,learning,feedback_duration_window,5Z32vkr4iae9agunNWmkpFf0imP2,5Z32vkr4iae9agunNWmkpFf0imP2,,,,,,,,,,,,,,,,,,3000.0,,,,5dbe90f8965e863667a79ca8,09:06:05,27/02/2024
html-keyboard-response,15,26858,0.0-6.0-3.0,,<div style='margin:auto;width: auto; font-size: 150%'><span style='font-weight: bold; font-size: 100px; color: red;'>0 points!</span><br><br></div>,,delaylearn,learning,feedback_image_window,5Z32vkr4iae9agunNWmkpFf0imP2,5Z32vkr4iae9agunNWmkpFf0imP2,,,,,,,,,,,,,,,,,,,,,,5dbe90f8965e863667a79ca8,09:06:05,27/02/2024
html-keyboard-response,16,29060,0.0-7.0,,"<div style=""font-size:100px;"">+</div>",,delaylearn,learning,ITI,5Z32vkr4iae9agunNWmkpFf0imP2,5Z32vkr4iae9agunNWmkpFf0imP2,,,,,,,,,,,,,,,,,,,2190.0,,,5dbe90f8965e863667a79ca8,09:06:05,27/02/2024
html-keyboard-response,17,30184,0.0-8.0-0.0,1123.0,"<div style=""display: flex; flex-direction: column; align-items: center; margin-top: -40px;""><img src=""images/demo_images/pattern_1.png"" style=""width: 234px; height: 230px; margin-top: -50px;""><div style=""display: flex; justify-content: space-between; margin-top: 33px;""><img src=""images/demo_images/choice_trial_1.png"" style=""width: 408px; height: 417px; margin-right: 200px;""><img src=""images/demo_images/choice_trial_2.png"" style=""width: 408px; height: 417px;""></div></div>",j,delaylearn,learning,trial,5Z32vkr4iae9agunNWmkpFf0imP2,5Z32vkr4iae9agunNWmkpFf0imP2,2.0,images/demo_images/choice_trial_1.png,images/demo_images/choice_trial_2.png,images/demo_images/pattern_1.png,f,f,3000.0,1.0,2.0,20.0,0.0,4.0,0.0,0.0,2.0,10.0,,,,,,5dbe90f8965e863667a79ca8,09:06:05,27/02/2024
html-keyboard-response,18,31188,0.0-8.0-1.0,,"<div style=""display: flex; flex-direction: column; align-items: center; margin-top: -40px;""><img src=""images/demo_images/pattern_1.png"" style=""width: 234px; height: 230px; margin-top: -50px;""><div style=""display: flex; justify-content: space-between; margin-top: 33px;""><img src=""images/demo_images/choice_trial_2.png"" style=""width: 408px; height: 417px; margin-left:608px;""></div></div>",,delaylearn,learning,display_response,5Z32vkr4iae9agunNWmkpFf0imP2,5Z32vkr4iae9agunNWmkpFf0imP2,,,,,,,,,,,,,,,,,chosen stimuli: images/demo_images/choice_trial_2.png,,,,,5dbe90f8965e863667a79ca8,09:06:05,27/02/2024
html-keyboard-response,19,34192,0.0-8.0-2.0,,,,delaylearn,learning,feedback_duration_window,5Z32vkr4iae9agunNWmkpFf0imP2,5Z32vkr4iae9agunNWmkpFf0imP2,,,,,,,,,,,,,,,,,,3000.0,,,,5dbe90f8965e863667a79ca8,09:06:05,27/02/2024
html-keyboard-response,20,35695,0.0-8.0-3.0,,<div style='margin:auto;width: auto; font-size: 150%'><span style='font-weight: bold; font-size: 100px; color: red;'>0 points!</span><br><br></div>,,delaylearn,learning,feedback_image_window,5Z32vkr4iae9agunNWmkpFf0imP2,5Z32vkr4iae9agunNWmkpFf0imP2,,,,,,,,,,,,,,,,,,,,,,5dbe90f8965e863667a79ca8,09:06:05,27/02/2024
html-keyboard-response,21,36207,0.0-9.0-0.0,,,,,,mood_trial_fixation,5Z32vkr4iae9agunNWmkpFf0imP2,,,,,,,,,,,,,,,,,,,,,,,5dbe90f8965e863667a79ca8,09:06:05,27/02/2024
lmdlab-html-vas-response,22,40729,0.0-9.0-1.0,3504.0,How happy are you right now?,0.19524014106844015,delaylearn,learning,mood_trial,5Z32vkr4iae9agunNWmkpFf0imP2,5Z32vkr4iae9agunNWmkpFf0imP2,,,,,,,,,,,,,,,,,,,,"['Very unhappy', 'Very happy']",,5dbe90f8965e863667a79ca8,09:06:05,27/02/2024
html-keyboard-response,23,42783,0.0-10.0,,"<div style=""font-size:100px;"">+</div>",,delaylearn,learning,ITI,5Z32vkr4iae9agunNWmkpFf0imP2,5Z32vkr4iae9agunNWmkpFf0imP2,,,,,,,,,,,,,,,,,,,2043.0,,,5dbe90f8965e863667a79ca8,09:06:05,27/02/2024
html-keyboard-response,24,43881,0.0-11.0-0.0,1096.0999999642372,"<div style=""display: flex; flex-direction: column; align-items: center; margin-top: -40px;""><img src=""images/demo_images/pattern_1.png"" style=""width: 234px; height: 230px; margin-top: -50px;""><div style=""display: flex; justify-content: space-between; margin-top: 33px;""><img src=""images/demo_images/choice_trial_2.png"" style=""width: 408px; height: 417px; margin-right: 200px;""><img src=""images/demo_images/choice_trial_1.png"" style=""width: 408px; height: 417px;""></div></div>",j,delaylearn,learning,trial,5Z32vkr4iae9agunNWmkpFf0imP2,5Z32vkr4iae9agunNWmkpFf0imP2,2.0,images/demo_images/choice_trial_2.png,images/demo_images/choice_trial_1.png,images/demo_images/pattern_1.png,j,j,3000.0,2.0,1.0,20.0,1.0,5.0,1.0,1.0,1.0,20.0,,,,,,5dbe90f8965e863667a79ca8,09:06:05,27/02/2024
html-keyboard-response,25,44885,0.0-11.0-1.0,,"<div style=""display: flex; flex-direction: column; align-items: center; margin-top: -40px;""><img src=""images/demo_images/pattern_1.png"" style=""width: 234px; height: 230px; margin-top: -50px;""><div style=""display: flex; justify-content: space-between; margin-top: 33px;""><img src=""images/demo_images/choice_trial_1.png"" style=""width: 408px; height: 417px; margin-left:608px;""></div></div>",,delaylearn,learning,display_response,5Z32vkr4iae9agunNWmkpFf0imP2,5Z32vkr4iae9agunNWmkpFf0imP2,,,,,,,,,,,,,,,,,chosen stimuli: images/demo_images/choice_trial_1.png,,,,,5dbe90f8965e863667a79ca8,09:06:05,27/02/2024
html-keyboard-response,26,47902,0.0-11.0-2.0,,,,delaylearn,learning,feedback_duration_window,5Z32vkr4iae9agunNWmkpFf0imP2,5Z32vkr4iae9agunNWmkpFf0imP2,,,,,,,,,,,,,,,,,,3000.0,,,,5dbe90f8965e863667a79ca8,09:06:05,27/02/2024
html-keyboard-response,27,49410,0.0-11.0-3.0,,<div style='margin:auto;width: auto; font-size: 150%'><span style='font-weight: bold; font-size: 100px; color: green;'>+10 points!</span><br><br></div>,,delaylearn,learning,feedback_image_window,5Z32vkr4iae9agunNWmkpFf0imP2,5Z32vkr4iae9agunNWmkpFf0imP2,,,,,,,,,,,,,,,,,,,,,,5dbe90f8965e863667a79ca8,09:06:05,27/02/2024
html-keyboard-response,28,51559,0.0-12.0,,"<div style=""font-size:100px;"">+</div>",,delaylearn,learning,ITI,5Z32vkr4iae9agunNWmkpFf0imP2,5Z32vkr4iae9agunNWmkpFf0imP2,,,,,,,,,,,,,,,,,,,2133.0,,,5dbe90f8965e863667a79ca8,09:06:05,27/02/2024
html-keyboard-response,29,53357,0.0-13.0-0.0,1796.3999999761581,"<div style=""display: flex; flex-direction: column; align-items: center; margin-top: -40px;""><img src=""images/demo_images/pattern_1.png"" style=""width: 234px; height: 230px; margin-top: -50px;""><div style=""display: flex; justify-content: space-between; margin-top: 33px;""><img src=""images/demo_images/choice_trial_1.png"" style=""width: 408px; height: 417px; margin-right: 200px;""><img src=""images/demo_images/choice_trial_2.png"" style=""width: 408px; height: 417px;""></div></div>",j,delaylearn,learning,trial,5Z32vkr4iae9agunNWmkpFf0imP2,5Z32vkr4iae9agunNWmkpFf0imP2,2.0,images/demo_images/choice_trial_1.png,images/demo_images/choice_trial_2.png,images/demo_images/pattern_1.png,f,f,3000.0,1.0,2.0,20.0,0.0,6.0,0.0,0.0,2.0,20.0,,,,,,5dbe90f8965e863667a79ca8,09:06:05,27/02/2024
html-keyboard-response,30,54363,0.0-13.0-1.0,,"<div style=""display: flex; flex-direction: column; align-items: center; margin-top: -40px;""><img src=""images/demo_images/pattern_1.png"" style=""width: 234px; height: 230px; margin-top: -50px;""><div style=""display: flex; justify-content: space-between; margin-top: 33px;""><img src=""images/demo_images/choice_trial_2.png"" style=""width: 408px; height: 417px; margin-left:608px;""></div></div>",,delaylearn,learning,display_response,5Z32vkr4iae9agunNWmkpFf0imP2,5Z32vkr4iae9agunNWmkpFf0imP2,,,,,,,,,,,,,,,,,chosen stimuli: images/demo_images/choice_trial_2.png,,,,,5dbe90f8965e863667a79ca8,09:06:05,27/02/2024
html-keyboard-response,31,57377,0.0-13.0-2.0,,,,delaylearn,learning,feedback_duration_window,5Z32vkr4iae9agunNWmkpFf0imP2,5Z32vkr4iae9agunNWmkpFf0imP2,,,,,,,,,,,,,,,,,,3000.0,,,,5dbe90f8965e863667a79ca8,09:06:05,27/02/2024
html-keyboard-response,32,58885,0.0-13.0-3.0,,<div style='margin:auto;width: auto; font-size: 150%'><span style='font-weight: bold; font-size: 100px; color: red;'>0 points!</span><br><br></div>,,delaylearn,learning,feedback_image_window,5Z32vkr4iae9agunNWmkpFf0imP2,5Z32vkr4iae9agunNWmkpFf0imP2,,,,,,,,,,,,,,,,,,,,,,5dbe90f8965e863667a79ca8,09:06:05,27/02/2024
html-button-response,33,437071,0.0-14.0,378184.89999997616,"
  <div style=""display: flex; align-items: center; justify-content: center; height: 80vh;"">
  <div>
          <img src=""images/inst_demo_finish.png"" style=""width: 80vw; height:auto;"">
          <br><br>
      </div>
      <br><br>
  </div>",0,,,,5Z32vkr4iae9agunNWmkpFf0imP2,,,,,,,,,,,,,,,,,,,,,,,5dbe90f8965e863667a79ca8,09:06:05,27/02/2024
html-keyboard-response,34,440080,0.0-15.0,3007.600000023842,"
  <div style=""display: flex; align-items: center; justify-content: center; height: 80vh;"">
  <div>
          <img src=""images/inst_6.png"" style=""width: 80vw; height:auto;"">
          <br><br>
      </div>
      <br><br>
  </div>",f,,,,5Z32vkr4iae9agunNWmkpFf0imP2,,,,,,,,,,,,,,,,,,,,,,,5dbe90f8965e863667a79ca8,09:06:05,27/02/2024
html-keyboard-response,35,443096,0.0-16.0,,"<div style=""font-size:100px;"">+</div>",,delaylearn,learning,pre_fixation,5Z32vkr4iae9agunNWmkpFf0imP2,,,,,,,,,,,,,,,,,,,,,,,5dbe90f8965e863667a79ca8,09:06:05,27/02/2024
html-keyboard-response,36,444742,0.0-17.0,,"<div style=""font-size:100px;"">+</div>",,delaylearn,learning,ITI,5Z32vkr4iae9agunNWmkpFf0imP2,5Z32vkr4iae9agunNWmkpFf0imP2,,,,,,,,,,,,,,,,,,,1637.0,,,5dbe90f8965e863667a79ca8,09:06:05,27/02/2024
html-keyboard-response,37,445638,0.0-18.0-0.0,894.6999999880791,"<div style=""display: flex; flex-direction: column; align-items: center; margin-top: -40px;""><img src=""images/pattern_3.png"" style=""width: 234px; height: 230px; margin-top: -50px;""><div style=""display: flex; justify-content: space-between; margin-top: 33px;""><img src=""images/choice_trial_12.png"" style=""width: 408px; height: 417px; margin-right: 200px;""><img src=""images/choice_trial_14.png"" style=""width: 408px; height: 417px;""></div></div>",j,delaylearn,learning,trial,5Z32vkr4iae9agunNWmkpFf0imP2,5Z32vkr4iae9agunNWmkpFf0imP2,2.0,images/choice_trial_12.png,images/choice_trial_14.png,images/pattern_3.png,f,f,7000.0,12.0,14.0,2.0,0.0,7.0,0.0,0.0,14.0,20.0,,,,,,5dbe90f8965e863667a79ca8,09:06:05,27/02/2024
html-keyboard-response,38,446654,0.0-18.0-1.0,,"<div style=""display: flex; flex-direction: column; align-items: center; margin-top: -40px;""><img src=""images/pattern_3.png"" style=""width: 234px; height: 230px; margin-top: -50px;""><div style=""display: flex; justify-content: space-between; margin-top: 33px;""><img src=""images/choice_trial_14.png"" style=""width: 408px; height: 417px; margin-left:608px;""></div></div>",,delaylearn,learning,display_response,5Z32vkr4iae9agunNWmkpFf0imP2,5Z32vkr4iae9agunNWmkpFf0imP2,,,,,,,,,,,,,,,,,chosen stimuli: images/choice_trial_14.png,,,,,5dbe90f8965e863667a79ca8,09:06:05,27/02/2024
html-keyboard-response,39,453659,0.0-18.0-2.0,,,,delaylearn,learning,feedback_duration_window,5Z32vkr4iae9agunNWmkpFf0imP2,5Z32vkr4iae9agunNWmkpFf0imP2,,,,,,,,,,,,,,,,,,7000.0,,,,5dbe90f8965e863667a79ca8,09:06:05,27/02/2024
html-keyboard-response,40,455168,0.0-18.0-3.0,,<div style='margin:auto;width: auto; font-size: 150%'><span style='font-weight: bold; font-size: 100px; color: red;'>0 points!</span><br><br></div>,,delaylearn,learning,feedback_image_window,5Z32vkr4iae9agunNWmkpFf0imP2,5Z32vkr4iae9agunNWmkpFf0imP2,,,,,,,,,,,,,,,,,,,,,,5dbe90f8965e863667a79ca8,09:06:05,27/02/2024
html-keyboard-response,41,456834,0.0-19.0,,"<div style=""font-size:100px;"">+</div>",,delaylearn,learning,ITI,5Z32vkr4iae9agunNWmkpFf0imP2,5Z32vkr4iae9agunNWmkpFf0imP2,,,,,,,,,,,,,,,,,,,1659.0,,,5dbe90f8965e863667a79ca8,09:06:05,27/02/2024
html-keyboard-response,42,458471,0.0-20.0-0.0,1635.199999988079,"<div style=""display: flex; flex-direction: column; align-items: center; margin-top: -40px;""><img src=""images/pattern_7.png"" style=""width: 234px; height: 230px; margin-top: -50px;""><div style=""display: flex; justify-content: space-between; margin-top: 33px;""><img src=""images/choice_trial_15.png"" style=""width: 408px; height: 417px; margin-right: 200px;""><img src=""images/choice_trial_8.png"" style=""width: 408px; height: 417px;""></div></div>",f,delaylearn,learning,trial,5Z32vkr4iae9agunNWmkpFf0imP2,5Z32vkr4iae9agunNWmkpFf0imP2,2.0,images/choice_trial_15.png,images/choice_trial_8.png,images/pattern_7.png,j,j,750.0,15.0,8.0,6.0,1.0,8.0,0.0,0.0,15.0,20.0,,,,,,5dbe90f8965e863667a79ca8,09:06:05,27/02/2024
html-keyboard-response,43,459481,0.0-20.0-1.0,,"<div style=""display: flex; flex-direction: column; align-items: center; margin-top: -40px;""><img src=""images/pattern_7.png"" style=""width: 234px; height: 230px; margin-top: -50px;""><div style=""display: flex; justify-content: space-between; margin-top: 33px;""><img src=""images/choice_trial_15.png"" style=""width: 408px; height: 417px; margin-right: 608px;""></div></div>",,delaylearn,learning,display_response,5Z32vkr4iae9agunNWmkpFf0imP2,5Z32vkr4iae9agunNWmkpFf0imP2,,,,,,,,,,,,,,,,,chosen stimuli: images/choice_trial_15.png,,,,,5dbe90f8965e863667a79ca8,09:06:05,27/02/2024
html-keyboard-response,44,460235,0.0-20.0-2.0,,,,delaylearn,learning,feedback_duration_window,5Z32vkr4iae9agunNWmkpFf0imP2,5Z32vkr4iae9agunNWmkpFf0imP2,,,,,,,,,,,,,,,,,,750.0,,,,5dbe90f8965e863667a79ca8,09:06:05,27/02/2024
html-keyboard-response,45,461743,0.0-20.0-3.0,,<div style='margin:auto;width: auto; font-size: 150%'><span style='font-weight: bold; font-size: 100px; color: red;'>0 points!</span><br><br></div>,,delaylearn,learning,feedback_image_window,5Z32vkr4iae9agunNWmkpFf0imP2,5Z32vkr4iae9agunNWmkpFf0imP2,,,,,,,,,,,,,,,,,,,,,,5dbe90f8965e863667a79ca8,09:06:05,27/02/2024
html-keyboard-response,46,463909,0.0-21.0,,"<div style=""font-size:100px;"">+</div>",,delaylearn,learning,ITI,5Z32vkr4iae9agunNWmkpFf0imP2,5Z32vkr4iae9agunNWmkpFf0imP2,,,,,,,,,,,,,,,,,,,2150.0,,,5dbe90f8965e863667a79ca8,09:06:05,27/02/2024
html-keyboard-response,47,464610,0.0-22.0-0.0,699.5,"<div style=""display: flex; flex-direction: column; align-items: center; margin-top: -40px;""><img src=""images/pattern_4.png"" style=""width: 234px; height: 230px; margin-top: -50px;""><div style=""display: flex; justify-content: space-between; margin-top: 33px;""><img src=""images/choice_trial_4.png"" style=""width: 408px; height: 417px; margin-right: 200px;""><img src=""images/choice_trial_16.png"" style=""width: 408px; height: 417px;""></div></div>",j,delaylearn,learning,trial,5Z32vkr4iae9agunNWmkpFf0imP2,5Z32vkr4iae9agunNWmkpFf0imP2,2.0,images/choice_trial_4.png,images/choice_trial_16.png,images/pattern_4.png,f,f,7000.0,4.0,16.0,3.0,0.0,9.0,0.0,0.0,16.0,20.0,,,,,,5dbe90f8965e863667a79ca8,09:06:05,27/02/2024
html-keyboard-response,48,465624,0.0-22.0-1.0,,"<div style=""display: flex; flex-direction: column; align-items: center; margin-top: -40px;""><img src=""images/pattern_4.png"" style=""width: 234px; height: 230px; margin-top: -50px;""><div style=""display: flex; justify-content: space-between; margin-top: 33px;""><img src=""images/choice_trial_16.png"" style=""width: 408px; height: 417px; margin-left:608px;""></div></div>",,delaylearn,learning,display_response,5Z32vkr4iae9agunNWmkpFf0imP2,5Z32vkr4iae9agunNWmkpFf0imP2,,,,,,,,,,,,,,,,,chosen stimuli: images/choice_trial_16.png,,,,,5dbe90f8965e863667a79ca8,09:06:05,27/02/2024
html-keyboard-response,49,472631,0.0-22.0-2.0,,,,delaylearn,learning,feedback_duration_window,5Z32vkr4iae9agunNWmkpFf0imP2,5Z32vkr4iae9agunNWmkpFf0imP2,,,,,,,,,,,,,,,,,,7000.0,,,,5dbe90f8965e863667a79ca8,09:06:05,27/02/2024
html-keyboard-response,50,474140,0.0-22.0-3.0,,<div style='margin:auto;width: auto; font-size: 150%'><span style='font-weight: bold; font-size: 100px; color: red;'>0 points!</span><br><br></div>,,delaylearn,learning,feedback_image_window,5Z32vkr4iae9agunNWmkpFf0imP2,5Z32vkr4iae9agunNWmkpFf0imP2,,,,,,,,,,,,,,,,,,,,,,5dbe90f8965e863667a79ca8,09:06:05,27/02/2024
html-keyboard-response,51,476439,0.0-23.0,,"<div style=""font-size:100px;"">+</div>",,delaylearn,learning,ITI,5Z32vkr4iae9agunNWmkpFf0imP2,5Z32vkr4iae9agunNWmkpFf0imP2,,,,,,,,,,,,,,,,,,,2286.0,,,5dbe90f8965e863667a79ca8,09:06:05,27/02/2024
html-keyboard-response,52,477622,0.0-24.0-0.0,1180.800000011921,"<div style=""display: flex; flex-direction: column; align-items: center; margin-top: -40px;""><img src=""images/pattern_5.png"" style=""width: 234px; height: 230px; margin-top: -50px;""><div style=""display: flex; justify-content: space-between; margin-top: 33px;""><img src=""images/choice_trial_9.png"" style=""width: 408px; height: 417px; margin-right: 200px;""><img src=""images/choice_trial_2.png"" style=""width: 408px; height: 417px;""></div></div>",f,delaylearn,learning,trial,5Z32vkr4iae9agunNWmkpFf0imP2,5Z32vkr4iae9agunNWmkpFf0imP2,2.0,images/choice_trial_9.png,images/choice_trial_2.png,images/pattern_5.png,j,j,750.0,9.0,2.0,4.0,1.0,10.0,0.0,0.0,9.0,20.0,,,,,,5dbe90f8965e863667a79ca8,09:06:05,27/02/2024
html-keyboard-response,53,478636,0.0-24.0-1.0,,"<div style=""display: flex; flex-direction: column; align-items: center; margin-top: -40px;""><img src=""images/pattern_5.png"" style=""width: 234px; height: 230px; margin-top: -50px;""><div style=""display: flex; justify-content: space-between; margin-top: 33px;""><img src=""images/choice_trial_9.png"" style=""width: 408px; height: 417px; margin-right: 608px;""></div></div>",,delaylearn,learning,display_response,5Z32vkr4iae9agunNWmkpFf0imP2,5Z32vkr4iae9agunNWmkpFf0imP2,,,,,,,,,,,,,,,,,chosen stimuli: images/choice_trial_9.png,,,,,5dbe90f8965e863667a79ca8,09:06:05,27/02/2024
html-keyboard-response,54,479402,0.0-24.0-2.0,,,,delaylearn,learning,feedback_duration_window,5Z32vkr4iae9agunNWmkpFf0imP2,5Z32vkr4iae9agunNWmkpFf0imP2,,,,,,,,,,,,,,,,,,750.0,,,,5dbe90f8965e863667a79ca8,09:06:05,27/02/2024
html-keyboard-response,55,480909,0.0-24.0-3.0,,<div style='margin:auto;width: auto; font-size: 150%'><span style='font-weight: bold; font-size: 100px; color: red;'>0 points!</span><br><br></div>,,delaylearn,learning,feedback_image_window,5Z32vkr4iae9agunNWmkpFf0imP2,5Z32vkr4iae9agunNWmkpFf0imP2,,,,,,,,,,,,,,,,,,,,,,5dbe90f8965e863667a79ca8,09:06:05,27/02/2024
html-keyboard-response,56,483250,0.0-25.0,,"<div style=""font-size:100px;"">+</div>",,delaylearn,learning,ITI,5Z32vkr4iae9agunNWmkpFf0imP2,5Z32vkr4iae9agunNWmkpFf0imP2,,,,,,,,,,,,,,,,,,,2337.0,,,5dbe90f8965e863667a79ca8,09:06:05,27/02/2024
html-keyboard-response,57,484855,0.0-26.0-0.0,1603.300000011921,"<div style=""display: flex; flex-direction: column; align-items: center; margin-top: -40px;""><img src=""images/pattern_6.png"" style=""width: 234px; height: 230px; margin-top: -50px;""><div style=""display: flex; justify-content: space-between; margin-top: 33px;""><img src=""images/choice_trial_11.png"" style=""width: 408px; height: 417px; margin-right: 200px;""><img src=""images/choice_trial_5.png"" style=""width: 408px; height: 417px;""></div></div>",f,delaylearn,learning,trial,5Z32vkr4iae9agunNWmkpFf0imP2,5Z32vkr4iae9agunNWmkpFf0imP2,2.0,images/choice_trial_11.png,images/choice_trial_5.png,images/pattern_6.png,j,f,750.0,11.0,5.0,5.0,0.0,11.0,1.0,0.0,11.0,20.0,,,,,,5dbe90f8965e863667a79ca8,09:06:05,27/02/2024
html-keyboard-response,58,485857,0.0-26.0-1.0,,"<div style=""display: flex; flex-direction: column; align-items: center; margin-top: -40px;""><img src=""images/pattern_6.png"" style=""width: 234px; height: 230px; margin-top: -50px;""><div style=""display: flex; justify-content: space-between; margin-top: 33px;""><img src=""images/choice_trial_11.png"" style=""width: 408px; height: 417px; margin-right: 608px;""></div></div>",,delaylearn,learning,display_response,5Z32vkr4iae9agunNWmkpFf0imP2,5Z32vkr4iae9agunNWmkpFf0imP2,,,,,,,,,,,,,,,,,chosen stimuli: images/choice_trial_11.png,,,,,5dbe90f8965e863667a79ca8,09:06:05,27/02/2024
html-keyboard-response,59,486610,0.0-26.0-2.0,,,,delaylearn,learning,feedback_duration_window,5Z32vkr4iae9agunNWmkpFf0imP2,5Z32vkr4iae9agunNWmkpFf0imP2,,,,,,,,,,,,,,,,,,750.0,,,,5dbe90f8965e863667a79ca8,09:06:05,27/02/2024
html-keyboard-response,60,488122,0.0-26.0-3.0,,<div style='margin:auto;width: auto; font-size: 150%'><span style='font-weight: bold; font-size: 100px; color: red;'>0 points!</span><br><br></div>,,delaylearn,learning,feedback_image_window,5Z32vkr4iae9agunNWmkpFf0imP2,5Z32vkr4iae9agunNWmkpFf0imP2,,,,,,,,,,,,,,,,,,,,,,5dbe90f8965e863667a79ca8,09:06:05,27/02/2024
html-keyboard-response,61,488637,0.0-27.0-0.0,,,,,,mood_trial_fixation,5Z32vkr4iae9agunNWmkpFf0imP2,,,,,,,,,,,,,,,,,,,,,,,5dbe90f8965e863667a79ca8,09:06:05,27/02/2024
lmdlab-html-vas-response,62,493828,0.0-27.0-1.0,4185.0,How happy are you right now?,0.12193767538481934,delaylearn,learning,mood_trial,5Z32vkr4iae9agunNWmkpFf0imP2,5Z32vkr4iae9agunNWmkpFf0imP2,,,,,,,,,,,,,,,,,,,,"['Very unhappy', 'Very happy']",,5dbe90f8965e863667a79ca8,09:06:05,27/02/2024
html-keyboard-response,63,496141,0.0-28.0,,"<div style=""font-size:100px;"">+</div>",,delaylearn,learning,ITI,5Z32vkr4iae9agunNWmkpFf0imP2,5Z32vkr4iae9agunNWmkpFf0imP2,,,,,,,,,,,,,,,,,,,2303.0,,,5dbe90f8965e863667a79ca8,09:06:05,27/02/2024
html-keyboard-response,64,497309,0.0-29.0-0.0,1167.1000000238419,"<div style=""display: flex; flex-direction: column; align-items: center; margin-top: -40px;""><img src=""images/pattern_1.png"" style=""width: 234px; height: 230px; margin-top: -50px;""><div style=""display: flex; justify-content: space-between; margin-top: 33px;""><img src=""images/choice_trial_10.png"" style=""width: 408px; height: 417px; margin-right: 200px;""><img src=""images/choice_trial_3.png"" style=""width: 408px; height: 417px;""></div></div>",j,delaylearn,learning,trial,5Z32vkr4iae9agunNWmkpFf0imP2,5Z32vkr4iae9agunNWmkpFf0imP2,2.0,images/choice_trial_10.png,images/choice_trial_3.png,images/pattern_1.png,j,j,7000.0,10.0,3.0,1.0,1.0,12.0,1.0,1.0,3.0,30.0,,,,,,5dbe90f8965e863667a79ca8,09:06:05,27/02/2024
html-keyboard-response,65,498322,0.0-29.0-1.0,,"<div style=""display: flex; flex-direction: column; align-items: center; margin-top: -40px;""><img src=""images/pattern_1.png"" style=""width: 234px; height: 230px; margin-top: -50px;""><div style=""display: flex; justify-content: space-between; margin-top: 33px;""><img src=""images/choice_trial_3.png"" style=""width: 408px; height: 417px; margin-left:608px;""></div></div>",,delaylearn,learning,display_response,5Z32vkr4iae9agunNWmkpFf0imP2,5Z32vkr4iae9agunNWmkpFf0imP2,,,,,,,,,,,,,,,,,chosen stimuli: images/choice_trial_3.png,,,,,5dbe90f8965e863667a79ca8,09:06:05,27/02/2024
html-keyboard-response,66,505329,0.0-29.0-2.0,,,,delaylearn,learning,feedback_duration_window,5Z32vkr4iae9agunNWmkpFf0imP2,5Z32vkr4iae9agunNWmkpFf0imP2,,,,,,,,,,,,,,,,,,7000.0,,,,5dbe90f8965e863667a79ca8,09:06:05,27/02/2024
html-keyboard-response,67,506834,0.0-29.0-3.0,,<div style='margin:auto;width: auto; font-size: 150%'><span style='font-weight: bold; font-size: 100px; color: green;'>+10 points!</span><br><br></div>,,delaylearn,learning,feedback_image_window,5Z32vkr4iae9agunNWmkpFf0imP2,5Z32vkr4iae9agunNWmkpFf0imP2,,,,,,,,,,,,,,,,,,,,,,5dbe90f8965e863667a79ca8,09:06:05,27/02/2024
html-keyboard-response,68,509029,0.0-30.0,,"<div style=""font-size:100px;"">+</div>",,delaylearn,learning,ITI,5Z32vkr4iae9agunNWmkpFf0imP2,5Z32vkr4iae9agunNWmkpFf0imP2,,,,,,,,,,,,,,,,,,,2192.0,,,5dbe90f8965e863667a79ca8,09:06:05,27/02/2024
html-keyboard-response,69,510784,0.0-31.0-0.0,1753.699999988079,"<div style=""display: flex; flex-direction: column; align-items: center; margin-top: -40px;""><img src=""images/pattern_3.png"" style=""width: 234px; height: 230px; margin-top: -50px;""><div style=""display: flex; justify-content: space-between; margin-top: 33px;""><img src=""images/choice_trial_14.png"" style=""width: 408px; height: 417px; margin-right: 200px;""><img src=""images/choice_trial_12.png"" style=""width: 408px; height: 417px;""></div></div>",j,delaylearn,learning,trial,5Z32vkr4iae9agunNWmkpFf0imP2,5Z32vkr4iae9agunNWmkpFf0imP2,2.0,images/choice_trial_14.png,images/choice_trial_12.png,images/pattern_3.png,f,j,7000.0,14.0,12.0,2.0,1.0,13.0,1.0,0.0,12.0,30.0,,,,,,5dbe90f8965e863667a79ca8,09:06:05,27/02/2024
html-keyboard-response,70,511798,0.0-31.0-1.0,,"<div style=""display: flex; flex-direction: column; align-items: center; margin-top: -40px;""><img src=""images/pattern_3.png"" style=""width: 234px; height: 230px; margin-top: -50px;""><div style=""display: flex; justify-content: space-between; margin-top: 33px;""><img src=""images/choice_trial_12.png"" style=""width: 408px; height: 417px; margin-left:608px;""></div></div>",,delaylearn,learning,display_response,5Z32vkr4iae9agunNWmkpFf0imP2,5Z32vkr4iae9agunNWmkpFf0imP2,,,,,,,,,,,,,,,,,chosen stimuli: images/choice_trial_12.png,,,,,5dbe90f8965e863667a79ca8,09:06:05,27/02/2024
html-keyboard-response,71,518805,0.0-31.0-2.0,,,,delaylearn,learning,feedback_duration_window,5Z32vkr4iae9agunNWmkpFf0imP2,5Z32vkr4iae9agunNWmkpFf0imP2,,,,,,,,,,,,,,,,,,7000.0,,,,5dbe90f8965e863667a79ca8,09:06:05,27/02/2024
html-keyboard-response,72,520311,0.0-31.0-3.0,,<div style='margin:auto;width: auto; font-size: 150%'><span style='font-weight: bold; font-size: 100px; color: red;'>0 points!</span><br><br></div>,,delaylearn,learning,feedback_image_window,5Z32vkr4iae9agunNWmkpFf0imP2,5Z32vkr4iae9agunNWmkpFf0imP2,,,,,,,,,,,,,,,,,,,,,,5dbe90f8965e863667a79ca8,09:06:05,27/02/2024
html-keyboard-response,73,522234,0.0-32.0,,"<div style=""font-size:100px;"">+</div>",,delaylearn,learning,ITI,5Z32vkr4iae9agunNWmkpFf0imP2,5Z32vkr4iae9agunNWmkpFf0imP2,,,,,,,,,,,,,,,,,,,1915.0,,,5dbe90f8965e863667a79ca8,09:06:05,27/02/2024
html-keyboard-response,74,523822,0.0-33.0-0.0,1586.4000000357628,"<div style=""display: flex; flex-direction: column; align-items: center; margin-top: -40px;""><img src=""images/pattern_5.png"" style=""width: 234px; height: 230px; margin-top: -50px;""><div style=""display: flex; justify-content: space-between; margin-top: 33px;""><img src=""images/choice_trial_2.png"" style=""width: 408px; height: 417px; margin-right: 200px;""><img src=""images/choice_trial_9.png"" style=""width: 408px; height: 417px;""></div></div>",f,delaylearn,learning,trial,5Z32vkr4iae9agunNWmkpFf0imP2,5Z32vkr4iae9agunNWmkpFf0imP2,2.0,images/choice_trial_2.png,images/choice_trial_9.png,images/pattern_5.png,f,f,750.0,2.0,9.0,4.0,0.0,14.0,1.0,1.0,2.0,40.0,,,,,,5dbe90f8965e863667a79ca8,09:06:05,27/02/2024
html-keyboard-response,75,524837,0.0-33.0-1.0,,"<div style=""display: flex; flex-direction: column; align-items: center; margin-top: -40px;""><img src=""images/pattern_5.png"" style=""width: 234px; height: 230px; margin-top: -50px;""><div style=""display: flex; justify-content: space-between; margin-top: 33px;""><img src=""images/choice_trial_2.png"" style=""width: 408px; height: 417px; margin-right: 608px;""></div></div>",,delaylearn,learning,display_response,5Z32vkr4iae9agunNWmkpFf0imP2,5Z32vkr4iae9agunNWmkpFf0imP2,,,,,,,,,,,,,,,,,chosen stimuli: images/choice_trial_2.png,,,,,5dbe90f8965e863667a79ca8,09:06:05,27/02/2024
html-keyboard-response,76,525603,0.0-33.0-2.0,,,,delaylearn,learning,feedback_duration_window,5Z32vkr4iae9agunNWmkpFf0imP2,5Z32vkr4iae9agunNWmkpFf0imP2,,,,,,,,,,,,,,,,,,750.0,,,,5dbe90f8965e863667a79ca8,09:06:05,27/02/2024
html-keyboard-response,77,527110,0.0-33.0-3.0,,<div style='margin:auto;width: auto; font-size: 150%'><span style='font-weight: bold; font-size: 100px; color: green;'>+10 points!</span><br><br></div>,,delaylearn,learning,feedback_image_window,5Z32vkr4iae9agunNWmkpFf0imP2,5Z32vkr4iae9agunNWmkpFf0imP2,,,,,,,,,,,,,,,,,,,,,,5dbe90f8965e863667a79ca8,09:06:05,27/02/2024
html-keyboard-response,78,527624,0.0-34.0-0.0,,,,,,mood_trial_fixation,5Z32vkr4iae9agunNWmkpFf0imP2,,,,,,,,,,,,,,,,,,,,,,,5dbe90f8965e863667a79ca8,09:06:05,27/02/2024
lmdlab-html-vas-response,79,533840,0.0-34.0-1.0,5198.0,How happy are you right now?,0.2145302636167614,delaylearn,learning,mood_trial,5Z32vkr4iae9agunNWmkpFf0imP2,5Z32vkr4iae9agunNWmkpFf0imP2,,,,,,,,,,,,,,,,,,,,"['Very unhappy', 'Very happy']",,5dbe90f8965e863667a79ca8,09:06:05,27/02/2024
html-keyboard-response,80,536286,0.0-35.0,,"<div style=""font-size:100px;"">+</div>",,delaylearn,learning,ITI,5Z32vkr4iae9agunNWmkpFf0imP2,5Z32vkr4iae9agunNWmkpFf0imP2,,,,,,,,,,,,,,,,,,,2431.0,,,5dbe90f8965e863667a79ca8,09:06:05,27/02/2024
html-keyboard-response,81,538228,0.0-36.0-0.0,1939.699999988079,"<div style=""display: flex; flex-direction: column; align-items: center; margin-top: -40px;""><img src=""images/pattern_6.png"" style=""width: 234px; height: 230px; margin-top: -50px;""><div style=""display: flex; justify-content: space-between; margin-top: 33px;""><img src=""images/choice_trial_11.png"" style=""width: 408px; height: 417px; margin-right: 200px;""><img src=""images/choice_trial_5.png"" style=""width: 408px; height: 417px;""></div></div>",j,delaylearn,learning,trial,5Z32vkr4iae9agunNWmkpFf0imP2,5Z32vkr4iae9agunNWmkpFf0imP2,2.0,images/choice_trial_11.png,images/choice_trial_5.png,images/pattern_6.png,f,f,750.0,11.0,5.0,5.0,0.0,15.0,0.0,0.0,5.0,40.0,,,,,,5dbe90f8965e863667a79ca8,09:06:05,27/02/2024
html-keyboard-response,82,539233,0.0-36.0-1.0,,"<div style=""display: flex; flex-direction: column; align-items: center; margin-top: -40px;""><img src=""images/pattern_6.png"" style=""width: 234px; height: 230px; margin-top: -50px;""><div style=""display: flex; justify-content: space-between; margin-top: 33px;""><img src=""images/choice_trial_5.png"" style=""width: 408px; height: 417px; margin-left:608px;""></div></div>",,delaylearn,learning,display_response,5Z32vkr4iae9agunNWmkpFf0imP2,5Z32vkr4iae9agunNWmkpFf0imP2,,,,,,,,,,,,,,,,,chosen stimuli: images/choice_trial_5.png,,,,,5dbe90f8965e863667a79ca8,09:06:05,27/02/2024
html-keyboard-response,83,539999,0.0-36.0-2.0,,,,delaylearn,learning,feedback_duration_window,5Z32vkr4iae9agunNWmkpFf0imP2,5Z32vkr4iae9agunNWmkpFf0imP2,,,,,,,,,,,,,,,,,,750.0,,,,5dbe90f8965e863667a79ca8,09:06:05,27/02/2024
html-keyboard-response,84,541510,0.0-36.0-3.0,,<div style='margin:auto;width: auto; font-size: 150%'><span style='font-weight: bold; font-size: 100px; color: red;'>0 points!</span><br><br></div>,,delaylearn,learning,feedback_image_window,5Z32vkr4iae9agunNWmkpFf0imP2,5Z32vkr4iae9agunNWmkpFf0imP2,,,,,,,,,,,,,,,,,,,,,,5dbe90f8965e863667a79ca8,09:06:05,27/02/2024
html-keyboard-response,85,543950,0.0-37.0,,"<div style=""font-size:100px;"">+</div>",,delaylearn,learning,ITI,5Z32vkr4iae9agunNWmkpFf0imP2,5Z32vkr4iae9agunNWmkpFf0imP2,,,,,,,,,,,,,,,,,,,2431.0,,,5dbe90f8965e863667a79ca8,09:06:05,27/02/2024
html-keyboard-response,86,545478,0.0-38.0-0.0,1526.699999988079,"<div style=""display: flex; flex-direction: column; align-items: center; margin-top: -40px;""><img src=""images/pattern_4.png"" style=""width: 234px; height: 230px; margin-top: -50px;""><div style=""display: flex; justify-content: space-between; margin-top: 33px;""><img src=""images/choice_trial_16.png"" style=""width: 408px; height: 417px; margin-right: 200px;""><img src=""images/choice_trial_4.png"" style=""width: 408px; height: 417px;""></div></div>",j,delaylearn,learning,trial,5Z32vkr4iae9agunNWmkpFf0imP2,5Z32vkr4iae9agunNWmkpFf0imP2,2.0,images/choice_trial_16.png,images/choice_trial_4.png,images/pattern_4.png,j,j,7000.0,16.0,4.0,3.0,1.0,16.0,1.0,1.0,4.0,50.0,,,,,,5dbe90f8965e863667a79ca8,09:06:05,27/02/2024
html-keyboard-response,87,546490,0.0-38.0-1.0,,"<div style=""display: flex; flex-direction: column; align-items: center; margin-top: -40px;""><img src=""images/pattern_4.png"" style=""width: 234px; height: 230px; margin-top: -50px;""><div style=""display: flex; justify-content: space-between; margin-top: 33px;""><img src=""images/choice_trial_4.png"" style=""width: 408px; height: 417px; margin-left:608px;""></div></div>",,delaylearn,learning,display_response,5Z32vkr4iae9agunNWmkpFf0imP2,5Z32vkr4iae9agunNWmkpFf0imP2,,,,,,,,,,,,,,,,,chosen stimuli: images/choice_trial_4.png,,,,,5dbe90f8965e863667a79ca8,09:06:05,27/02/2024
html-keyboard-response,88,553494,0.0-38.0-2.0,,,,delaylearn,learning,feedback_duration_window,5Z32vkr4iae9agunNWmkpFf0imP2,5Z32vkr4iae9agunNWmkpFf0imP2,,,,,,,,,,,,,,,,,,7000.0,,,,5dbe90f8965e863667a79ca8,09:06:05,27/02/2024
html-keyboard-response,89,555000,0.0-38.0-3.0,,<div style='margin:auto;width: auto; font-size: 150%'><span style='font-weight: bold; font-size: 100px; color: green;'>+10 points!</span><br><br></div>,,delaylearn,learning,feedback_image_window,5Z32vkr4iae9agunNWmkpFf0imP2,5Z32vkr4iae9agunNWmkpFf0imP2,,,,,,,,,,,,,,,,,,,,,,5dbe90f8965e863667a79ca8,09:06:05,27/02/2024
html-keyboard-response,90,556614,0.0-39.0,,"<div style=""font-size:100px;"">+</div>",,delaylearn,learning,ITI,5Z32vkr4iae9agunNWmkpFf0imP2,5Z32vkr4iae9agunNWmkpFf0imP2,,,,,,,,,,,,,,,,,,,1608.0,,,5dbe90f8965e863667a79ca8,09:06:05,27/02/2024
html-keyboard-response,91,558045,0.0-40.0-0.0,1428.5999999642372,"<div style=""display: flex; flex-direction: column; align-items: center; margin-top: -40px;""><img src=""images/pattern_7.png"" style=""width: 234px; height: 230px; margin-top: -50px;""><div style=""display: flex; justify-content: space-between; margin-top: 33px;""><img src=""images/choice_trial_8.png"" style=""width: 408px; height: 417px; margin-right: 200px;""><img src=""images/choice_trial_15.png"" style=""width: 408px; height: 417px;""></div></div>",f,delaylearn,learning,trial,5Z32vkr4iae9agunNWmkpFf0imP2,5Z32vkr4iae9agunNWmkpFf0imP2,2.0,images/choice_trial_8.png,images/choice_trial_15.png,images/pattern_7.png,j,f,750.0,8.0,15.0,6.0,0.0,17.0,1.0,0.0,8.0,50.0,,,,,,5dbe90f8965e863667a79ca8,09:06:05,27/02/2024
html-keyboard-response,92,559062,0.0-40.0-1.0,,"<div style=""display: flex; flex-direction: column; align-items: center; margin-top: -40px;""><img src=""images/pattern_7.png"" style=""width: 234px; height: 230px; margin-top: -50px;""><div style=""display: flex; justify-content: space-between; margin-top: 33px;""><img src=""images/choice_trial_8.png"" style=""width: 408px; height: 417px; margin-right: 608px;""></div></div>",,delaylearn,learning,display_response,5Z32vkr4iae9agunNWmkpFf0imP2,5Z32vkr4iae9agunNWmkpFf0imP2,,,,,,,,,,,,,,,,,chosen stimuli: images/choice_trial_8.png,,,,,5dbe90f8965e863667a79ca8,09:06:05,27/02/2024
html-keyboard-response,93,559825,0.0-40.0-2.0,,,,delaylearn,learning,feedback_duration_window,5Z32vkr4iae9agunNWmkpFf0imP2,5Z32vkr4iae9agunNWmkpFf0imP2,,,,,,,,,,,,,,,,,,750.0,,,,5dbe90f8965e863667a79ca8,09:06:05,27/02/2024
html-keyboard-response,94,561338,0.0-40.0-3.0,,<div style='margin:auto;width: auto; font-size: 150%'><span style='font-weight: bold; font-size: 100px; color: red;'>0 points!</span><br><br></div>,,delaylearn,learning,feedback_image_window,5Z32vkr4iae9agunNWmkpFf0imP2,5Z32vkr4iae9agunNWmkpFf0imP2,,,,,,,,,,,,,,,,,,,,,,5dbe90f8965e863667a79ca8,09:06:05,27/02/2024
html-keyboard-response,95,563818,0.0-41.0,,"<div style=""font-size:100px;"">+</div>",,delaylearn,learning,ITI,5Z32vkr4iae9agunNWmkpFf0imP2,5Z32vkr4iae9agunNWmkpFf0imP2,,,,,,,,,,,,,,,,,,,2472.0,,,5dbe90f8965e863667a79ca8,09:06:05,27/02/2024
html-keyboard-response,96,565232,0.0-42.0-0.0,1412.7000000476837,"<div style=""display: flex; flex-direction: column; align-items: center; margin-top: -40px;""><img src=""images/pattern_1.png"" style=""width: 234px; height: 230px; margin-top: -50px;""><div style=""display: flex; justify-content: space-between; margin-top: 33px;""><img src=""images/choice_trial_3.png"" style=""width: 408px; height: 417px; margin-right: 200px;""><img src=""images/choice_trial_10.png"" style=""width: 408px; height: 417px;""></div></div>",j,delaylearn,learning,trial,5Z32vkr4iae9agunNWmkpFf0imP2,5Z32vkr4iae9agunNWmkpFf0imP2,2.0,images/choice_trial_3.png,images/choice_trial_10.png,images/pattern_1.png,f,f,7000.0,3.0,10.0,1.0,0.0,18.0,0.0,0.0,10.0,50.0,,,,,,5dbe90f8965e863667a79ca8,09:06:05,27/02/2024
html-keyboard-response,97,566235,0.0-42.0-1.0,,"<div style=""display: flex; flex-direction: column; align-items: center; margin-top: -40px;""><img src=""images/pattern_1.png"" style=""width: 234px; height: 230px; margin-top: -50px;""><div style=""display: flex; justify-content: space-between; margin-top: 33px;""><img src=""images/choice_trial_10.png"" style=""width: 408px; height: 417px; margin-left:608px;""></div></div>",,delaylearn,learning,display_response,5Z32vkr4iae9agunNWmkpFf0imP2,5Z32vkr4iae9agunNWmkpFf0imP2,,,,,,,,,,,,,,,,,chosen stimuli: images/choice_trial_10.png,,,,,5dbe90f8965e863667a79ca8,09:06:05,27/02/2024
html-keyboard-response,98,573243,0.0-42.0-2.0,,,,delaylearn,learning,feedback_duration_window,5Z32vkr4iae9agunNWmkpFf0imP2,5Z32vkr4iae9agunNWmkpFf0imP2,,,,,,,,,,,,,,,,,,7000.0,,,,5dbe90f8965e863667a79ca8,09:06:05,27/02/2024
html-keyboard-response,99,574758,0.0-42.0-3.0,,<div style='margin:auto;width: auto; font-size: 150%'><span style='font-weight: bold; font-size: 100px; color: red;'>0 points!</span><br><br></div>,,delaylearn,learning,feedback_image_window,5Z32vkr4iae9agunNWmkpFf0imP2,5Z32vkr4iae9agunNWmkpFf0imP2,,,,,,,,,,,,,,,,,,,,,,5dbe90f8965e863667a79ca8,09:06:05,27/02/2024
html-keyboard-response,100,576289,0.0-43.0,,"<div style=""font-size:100px;"">+</div>",,delaylearn,learning,ITI,5Z32vkr4iae9agunNWmkpFf0imP2,5Z32vkr4iae9agunNWmkpFf0imP2,,,,,,,,,,,,,,,,,,,1527.0,,,5dbe90f8965e863667a79ca8,09:06:05,27/02/2024
html-keyboard-response,101,578178,0.0-44.0-0.0,1887.699999988079,"<div style=""display: flex; flex-direction: column; align-items: center; margin-top: -40px;""><img src=""images/pattern_6.png"" style=""width: 234px; height: 230px; margin-top: -50px;""><div style=""display: flex; justify-content: space-between; margin-top: 33px;""><img src=""images/choice_trial_5.png"" style=""width: 408px; height: 417px; margin-right: 200px;""><img src=""images/choice_trial_11.png"" style=""width: 408px; height: 417px;""></div></div>",j,delaylearn,learning,trial,5Z32vkr4iae9agunNWmkpFf0imP2,5Z32vkr4iae9agunNWmkpFf0imP2,2.0,images/choice_trial_5.png,images/choice_trial_11.png,images/pattern_6.png,j,j,750.0,5.0,11.0,5.0,1.0,19.0,1.0,1.0,11.0,60.0,,,,,,5dbe90f8965e863667a79ca8,09:06:05,27/02/2024
html-keyboard-response,102,579186,0.0-44.0-1.0,,"<div style=""display: flex; flex-direction: column; align-items: center; margin-top: -40px;""><img src=""images/pattern_6.png"" style=""width: 234px; height: 230px; margin-top: -50px;""><div style=""display: flex; justify-content: space-between; margin-top: 33px;""><img src=""images/choice_trial_11.png"" style=""width: 408px; height: 417px; margin-left:608px;""></div></div>",,delaylearn,learning,display_response,5Z32vkr4iae9agunNWmkpFf0imP2,5Z32vkr4iae9agunNWmkpFf0imP2,,,,,,,,,,,,,,,,,chosen stimuli: images/choice_trial_11.png,,,,,5dbe90f8965e863667a79ca8,09:06:05,27/02/2024
html-keyboard-response,103,579938,0.0-44.0-2.0,,,,delaylearn,learning,feedback_duration_window,5Z32vkr4iae9agunNWmkpFf0imP2,5Z32vkr4iae9agunNWmkpFf0imP2,,,,,,,,,,,,,,,,,,750.0,,,,5dbe90f8965e863667a79ca8,09:06:05,27/02/2024
html-keyboard-response,104,581452,0.0-44.0-3.0,,<div style='margin:auto;width: auto; font-size: 150%'><span style='font-weight: bold; font-size: 100px; color: green;'>+10 points!</span><br><br></div>,,delaylearn,learning,feedback_image_window,5Z32vkr4iae9agunNWmkpFf0imP2,5Z32vkr4iae9agunNWmkpFf0imP2,,,,,,,,,,,,,,,,,,,,,,5dbe90f8965e863667a79ca8,09:06:05,27/02/2024
html-keyboard-response,105,583317,0.0-45.0,,"<div style=""font-size:100px;"">+</div>",,delaylearn,learning,ITI,5Z32vkr4iae9agunNWmkpFf0imP2,5Z32vkr4iae9agunNWmkpFf0imP2,,,,,,,,,,,,,,,,,,,1860.0,,,5dbe90f8965e863667a79ca8,09:06:05,27/02/2024
html-keyboard-response,106,585094,0.0-46.0-0.0,1776.1000000238419,"<div style=""display: flex; flex-direction: column; align-items: center; margin-top: -40px;""><img src=""images/pattern_4.png"" style=""width: 234px; height: 230px; margin-top: -50px;""><div style=""display: flex; justify-content: space-between; margin-top: 33px;""><img src=""images/choice_trial_4.png"" style=""width: 408px; height: 417px; margin-right: 200px;""><img src=""images/choice_trial_16.png"" style=""width: 408px; height: 417px;""></div></div>",f,delaylearn,learning,trial,5Z32vkr4iae9agunNWmkpFf0imP2,5Z32vkr4iae9agunNWmkpFf0imP2,2.0,images/choice_trial_4.png,images/choice_trial_16.png,images/pattern_4.png,f,f,7000.0,4.0,16.0,3.0,0.0,20.0,1.0,1.0,4.0,70.0,,,,,,5dbe90f8965e863667a79ca8,09:06:05,27/02/2024
html-keyboard-response,107,586097,0.0-46.0-1.0,,"<div style=""display: flex; flex-direction: column; align-items: center; margin-top: -40px;""><img src=""images/pattern_4.png"" style=""width: 234px; height: 230px; margin-top: -50px;""><div style=""display: flex; justify-content: space-between; margin-top: 33px;""><img src=""images/choice_trial_4.png"" style=""width: 408px; height: 417px; margin-right: 608px;""></div></div>",,delaylearn,learning,display_response,5Z32vkr4iae9agunNWmkpFf0imP2,5Z32vkr4iae9agunNWmkpFf0imP2,,,,,,,,,,,,,,,,,chosen stimuli: images/choice_trial_4.png,,,,,5dbe90f8965e863667a79ca8,09:06:05,27/02/2024
html-keyboard-response,108,593109,0.0-46.0-2.0,,,,delaylearn,learning,feedback_duration_window,5Z32vkr4iae9agunNWmkpFf0imP2,5Z32vkr4iae9agunNWmkpFf0imP2,,,,,,,,,,,,,,,,,,7000.0,,,,5dbe90f8965e863667a79ca8,09:06:05,27/02/2024
html-keyboard-response,109,594624,0.0-46.0-3.0,,<div style='margin:auto;width: auto; font-size: 150%'><span style='font-weight: bold; font-size: 100px; color: green;'>+10 points!</span><br><br></div>,,delaylearn,learning,feedback_image_window,5Z32vkr4iae9agunNWmkpFf0imP2,5Z32vkr4iae9agunNWmkpFf0imP2,,,,,,,,,,,,,,,,,,,,,,5dbe90f8965e863667a79ca8,09:06:05,27/02/2024
html-keyboard-response,110,595125,0.0-47.0-0.0,,,,,,mood_trial_fixation,5Z32vkr4iae9agunNWmkpFf0imP2,,,,,,,,,,,,,,,,,,,,,,,5dbe90f8965e863667a79ca8,09:06:05,27/02/2024
lmdlab-html-vas-response,111,599358,0.0-47.0-1.0,3219.0,How happy are you right now?,0.4363666729224559,delaylearn,learning,mood_trial,5Z32vkr4iae9agunNWmkpFf0imP2,5Z32vkr4iae9agunNWmkpFf0imP2,,,,,,,,,,,,,,,,,,,,"['Very unhappy', 'Very happy']",,5dbe90f8965e863667a79ca8,09:06:05,27/02/2024
html-keyboard-response,112,601359,0.0-48.0,,"<div style=""font-size:100px;"">+</div>",,delaylearn,learning,ITI,5Z32vkr4iae9agunNWmkpFf0imP2,5Z32vkr4iae9agunNWmkpFf0imP2,,,,,,,,,,,,,,,,,,,2000.0,,,5dbe90f8965e863667a79ca8,09:06:05,27/02/2024
html-keyboard-response,113,602424,0.0-49.0-0.0,1063.4000000357628,"<div style=""display: flex; flex-direction: column; align-items: center; margin-top: -40px;""><img src=""images/pattern_7.png"" style=""width: 234px; height: 230px; margin-top: -50px;""><div style=""display: flex; justify-content: space-between; margin-top: 33px;""><img src=""images/choice_trial_15.png"" style=""width: 408px; height: 417px; margin-right: 200px;""><img src=""images/choice_trial_8.png"" style=""width: 408px; height: 417px;""></div></div>",j,delaylearn,learning,trial,5Z32vkr4iae9agunNWmkpFf0imP2,5Z32vkr4iae9agunNWmkpFf0imP2,2.0,images/choice_trial_15.png,images/choice_trial_8.png,images/pattern_7.png,j,j,750.0,15.0,8.0,6.0,1.0,21.0,1.0,1.0,8.0,80.0,,,,,,5dbe90f8965e863667a79ca8,09:06:05,27/02/2024
html-keyboard-response,114,603440,0.0-49.0-1.0,,"<div style=""display: flex; flex-direction: column; align-items: center; margin-top: -40px;""><img src=""images/pattern_7.png"" style=""width: 234px; height: 230px; margin-top: -50px;""><div style=""display: flex; justify-content: space-between; margin-top: 33px;""><img src=""images/choice_trial_8.png"" style=""width: 408px; height: 417px; margin-left:608px;""></div></div>",,delaylearn,learning,display_response,5Z32vkr4iae9agunNWmkpFf0imP2,5Z32vkr4iae9agunNWmkpFf0imP2,,,,,,,,,,,,,,,,,chosen stimuli: images/choice_trial_8.png,,,,,5dbe90f8965e863667a79ca8,09:06:05,27/02/2024
html-keyboard-response,115,604203,0.0-49.0-2.0,,,,delaylearn,learning,feedback_duration_window,5Z32vkr4iae9agunNWmkpFf0imP2,5Z32vkr4iae9agunNWmkpFf0imP2,,,,,,,,,,,,,,,,,,750.0,,,,5dbe90f8965e863667a79ca8,09:06:05,27/02/2024
html-keyboard-response,116,605713,0.0-49.0-3.0,,<div style='margin:auto;width: auto; font-size: 150%'><span style='font-weight: bold; font-size: 100px; color: green;'>+10 points!</span><br><br></div>,,delaylearn,learning,feedback_image_window,5Z32vkr4iae9agunNWmkpFf0imP2,5Z32vkr4iae9agunNWmkpFf0imP2,,,,,,,,,,,,,,,,,,,,,,5dbe90f8965e863667a79ca8,09:06:05,27/02/2024
html-keyboard-response,117,607278,0.0-50.0,,"<div style=""font-size:100px;"">+</div>",,delaylearn,learning,ITI,5Z32vkr4iae9agunNWmkpFf0imP2,5Z32vkr4iae9agunNWmkpFf0imP2,,,,,,,,,,,,,,,,,,,1553.0,,,5dbe90f8965e863667a79ca8,09:06:05,27/02/2024
html-keyboard-response,118,608409,0.0-51.0-0.0,1130.0,"<div style=""display: flex; flex-direction: column; align-items: center; margin-top: -40px;""><img src=""images/pattern_1.png"" style=""width: 234px; height: 230px; margin-top: -50px;""><div style=""display: flex; justify-content: space-between; margin-top: 33px;""><img src=""images/choice_trial_10.png"" style=""width: 408px; height: 417px; margin-right: 200px;""><img src=""images/choice_trial_3.png"" style=""width: 408px; height: 417px;""></div></div>",j,delaylearn,learning,trial,5Z32vkr4iae9agunNWmkpFf0imP2,5Z32vkr4iae9agunNWmkpFf0imP2,2.0,images/choice_trial_10.png,images/choice_trial_3.png,images/pattern_1.png,f,j,7000.0,10.0,3.0,1.0,1.0,22.0,1.0,0.0,3.0,80.0,,,,,,5dbe90f8965e863667a79ca8,09:06:05,27/02/2024
html-keyboard-response,119,609420,0.0-51.0-1.0,,"<div style=""display: flex; flex-direction: column; align-items: center; margin-top: -40px;""><img src=""images/pattern_1.png"" style=""width: 234px; height: 230px; margin-top: -50px;""><div style=""display: flex; justify-content: space-between; margin-top: 33px;""><img src=""images/choice_trial_3.png"" style=""width: 408px; height: 417px; margin-left:608px;""></div></div>",,delaylearn,learning,display_response,5Z32vkr4iae9agunNWmkpFf0imP2,5Z32vkr4iae9agunNWmkpFf0imP2,,,,,,,,,,,,,,,,,chosen stimuli: images/choice_trial_3.png,,,,,5dbe90f8965e863667a79ca8,09:06:05,27/02/2024
html-keyboard-response,120,616431,0.0-51.0-2.0,,,,delaylearn,learning,feedback_duration_window,5Z32vkr4iae9agunNWmkpFf0imP2,5Z32vkr4iae9agunNWmkpFf0imP2,,,,,,,,,,,,,,,,,,7000.0,,,,5dbe90f8965e863667a79ca8,09:06:05,27/02/2024
html-keyboard-response,121,617941,0.0-51.0-3.0,,<div style='margin:auto;width: auto; font-size: 150%'><span style='font-weight: bold; font-size: 100px; color: red;'>0 points!</span><br><br></div>,,delaylearn,learning,feedback_image_window,5Z32vkr4iae9agunNWmkpFf0imP2,5Z32vkr4iae9agunNWmkpFf0imP2,,,,,,,,,,,,,,,,,,,,,,5dbe90f8965e863667a79ca8,09:06:05,27/02/2024
html-keyboard-response,122,620332,0.0-52.0,,"<div style=""font-size:100px;"">+</div>",,delaylearn,learning,ITI,5Z32vkr4iae9agunNWmkpFf0imP2,5Z32vkr4iae9agunNWmkpFf0imP2,,,,,,,,,,,,,,,,,,,2381.0,,,5dbe90f8965e863667a79ca8,09:06:05,27/02/2024
html-keyboard-response,123,622312,0.0-53.0-0.0,1978.800000011921,"<div style=""display: flex; flex-direction: column; align-items: center; margin-top: -40px;""><img src=""images/pattern_5.png"" style=""width: 234px; height: 230px; margin-top: -50px;""><div style=""display: flex; justify-content: space-between; margin-top: 33px;""><img src=""images/choice_trial_9.png"" style=""width: 408px; height: 417px; margin-right: 200px;""><img src=""images/choice_trial_2.png"" style=""width: 408px; height: 417px;""></div></div>",j,delaylearn,learning,trial,5Z32vkr4iae9agunNWmkpFf0imP2,5Z32vkr4iae9agunNWmkpFf0imP2,2.0,images/choice_trial_9.png,images/choice_trial_2.png,images/pattern_5.png,j,j,750.0,9.0,2.0,4.0,1.0,23.0,1.0,1.0,2.0,90.0,,,,,,5dbe90f8965e863667a79ca8,09:06:05,27/02/2024
html-keyboard-response,124,623323,0.0-53.0-1.0,,"<div style=""display: flex; flex-direction: column; align-items: center; margin-top: -40px;""><img src=""images/pattern_5.png"" style=""width: 234px; height: 230px; margin-top: -50px;""><div style=""display: flex; justify-content: space-between; margin-top: 33px;""><img src=""images/choice_trial_2.png"" style=""width: 408px; height: 417px; margin-left:608px;""></div></div>",,delaylearn,learning,display_response,5Z32vkr4iae9agunNWmkpFf0imP2,5Z32vkr4iae9agunNWmkpFf0imP2,,,,,,,,,,,,,,,,,chosen stimuli: images/choice_trial_2.png,,,,,5dbe90f8965e863667a79ca8,09:06:05,27/02/2024
html-keyboard-response,125,624085,0.0-53.0-2.0,,,,delaylearn,learning,feedback_duration_window,5Z32vkr4iae9agunNWmkpFf0imP2,5Z32vkr4iae9agunNWmkpFf0imP2,,,,,,,,,,,,,,,,,,750.0,,,,5dbe90f8965e863667a79ca8,09:06:05,27/02/2024
html-keyboard-response,126,625600,0.0-53.0-3.0,,<div style='margin:auto;width: auto; font-size: 150%'><span style='font-weight: bold; font-size: 100px; color: green;'>+10 points!</span><br><br></div>,,delaylearn,learning,feedback_image_window,5Z32vkr4iae9agunNWmkpFf0imP2,5Z32vkr4iae9agunNWmkpFf0imP2,,,,,,,,,,,,,,,,,,,,,,5dbe90f8965e863667a79ca8,09:06:05,27/02/2024
html-keyboard-response,127,627381,0.0-54.0,,"<div style=""font-size:100px;"">+</div>",,delaylearn,learning,ITI,5Z32vkr4iae9agunNWmkpFf0imP2,5Z32vkr4iae9agunNWmkpFf0imP2,,,,,,,,,,,,,,,,,,,1774.0,,,5dbe90f8965e863667a79ca8,09:06:05,27/02/2024
html-keyboard-response,128,628959,0.0-55.0-0.0,1576.300000011921,"<div style=""display: flex; flex-direction: column; align-items: center; margin-top: -40px;""><img src=""images/pattern_3.png"" style=""width: 234px; height: 230px; margin-top: -50px;""><div style=""display: flex; justify-content: space-between; margin-top: 33px;""><img src=""images/choice_trial_14.png"" style=""width: 408px; height: 417px; margin-right: 200px;""><img src=""images/choice_trial_12.png"" style=""width: 408px; height: 417px;""></div></div>",j,delaylearn,learning,trial,5Z32vkr4iae9agunNWmkpFf0imP2,5Z32vkr4iae9agunNWmkpFf0imP2,2.0,images/choice_trial_14.png,images/choice_trial_12.png,images/pattern_3.png,j,j,7000.0,14.0,12.0,2.0,1.0,24.0,1.0,1.0,12.0,100.0,,,,,,5dbe90f8965e863667a79ca8,09:06:05,27/02/2024
html-keyboard-response,129,629970,0.0-55.0-1.0,,"<div style=""display: flex; flex-direction: column; align-items: center; margin-top: -40px;""><img src=""images/pattern_3.png"" style=""width: 234px; height: 230px; margin-top: -50px;""><div style=""display: flex; justify-content: space-between; margin-top: 33px;""><img src=""images/choice_trial_12.png"" style=""width: 408px; height: 417px; margin-left:608px;""></div></div>",,delaylearn,learning,display_response,5Z32vkr4iae9agunNWmkpFf0imP2,5Z32vkr4iae9agunNWmkpFf0imP2,,,,,,,,,,,,,,,,,chosen stimuli: images/choice_trial_12.png,,,,,5dbe90f8965e863667a79ca8,09:06:05,27/02/2024
html-keyboard-response,130,636983,0.0-55.0-2.0,,,,delaylearn,learning,feedback_duration_window,5Z32vkr4iae9agunNWmkpFf0imP2,5Z32vkr4iae9agunNWmkpFf0imP2,,,,,,,,,,,,,,,,,,7000.0,,,,5dbe90f8965e863667a79ca8,09:06:05,27/02/2024
html-keyboard-response,131,638499,0.0-55.0-3.0,,<div style='margin:auto;width: auto; font-size: 150%'><span style='font-weight: bold; font-size: 100px; color: green;'>+10 points!</span><br><br></div>,,delaylearn,learning,feedback_image_window,5Z32vkr4iae9agunNWmkpFf0imP2,5Z32vkr4iae9agunNWmkpFf0imP2,,,,,,,,,,,,,,,,,,,,,,5dbe90f8965e863667a79ca8,09:06:05,27/02/2024
lmdlab-html-vas-response,132,644848,0.0-56.0-0.0,4838.0,*How <b><u>confident</u></b> are you feeling about your answers at this moment?*,0.36496908329296895,rewlearn,rate_confidence,,5Z32vkr4iae9agunNWmkpFf0imP2,5Z32vkr4iae9agunNWmkpFf0imP2,,,,,,,,,,,,,,,,,,,,"['No confidence', 'Complete confidence']",,5dbe90f8965e863667a79ca8,09:06:05,27/02/2024
lmdlab-rest-trial-limit,133,885917,0.0-56.0-1.0,239561.19999998808,"<div style=""font-size:40px;""><b>Please take a break!</b><br><br><br><br><p>Great work: you earned undefined points.<br><br><br><p>You have completed part(s) 1 of 6.<br><br><br><br>When you are ready to continue<br><br><br>please click the button.</p><br><br>",0,delaylearn,learning,break,5Z32vkr4iae9agunNWmkpFf0imP2,5Z32vkr4iae9agunNWmkpFf0imP2,,,,,,,,,,,,,,,,,,,,,0.0,5dbe90f8965e863667a79ca8,09:06:05,27/02/2024
html-keyboard-response,134,888924,0.0-56.0-2.0,,"<div style=""font-size:100px;"">+</div>",,delaylearn,learning,pre_fixation,5Z32vkr4iae9agunNWmkpFf0imP2,,,,,,,,,,,,,,,,,,,,,,,5dbe90f8965e863667a79ca8,09:06:05,27/02/2024
lmdlab-html-vas-response,135,893608,0.0-56.0-3.0-0.0,3675.0,How happy are you right now?,0.33798704792601747,delaylearn,learning,mood_baseline,5Z32vkr4iae9agunNWmkpFf0imP2,5Z32vkr4iae9agunNWmkpFf0imP2,,,,,,,,,,,,,,,,,,,,"['Very unhappy', 'Very happy']",,5dbe90f8965e863667a79ca8,09:06:05,27/02/2024
html-keyboard-response,136,895109,0.0-56.0-3.0-1.0,,,,,,mood_baseline_fixation,5Z32vkr4iae9agunNWmkpFf0imP2,,,,,,,,,,,,,,,,,,,,,,,5dbe90f8965e863667a79ca8,09:06:05,27/02/2024
html-keyboard-response,137,896944,0.0-57.0,,"<div style=""font-size:100px;"">+</div>",,delaylearn,learning,ITI,5Z32vkr4iae9agunNWmkpFf0imP2,5Z32vkr4iae9agunNWmkpFf0imP2,,,,,,,,,,,,,,,,,,,1832.0,,,5dbe90f8965e863667a79ca8,09:06:05,27/02/2024
html-keyboard-response,138,897884,0.0-58.0-0.0,938.1999999880791,"<div style=""display: flex; flex-direction: column; align-items: center; margin-top: -40px;""><img src=""images/pattern_7.png"" style=""width: 234px; height: 230px; margin-top: -50px;""><div style=""display: flex; justify-content: space-between; margin-top: 33px;""><img src=""images/choice_trial_15.png"" style=""width: 408px; height: 417px; margin-right: 200px;""><img src=""images/choice_trial_8.png"" style=""width: 408px; height: 417px;""></div></div>",j,delaylearn,learning,trial,5Z32vkr4iae9agunNWmkpFf0imP2,5Z32vkr4iae9agunNWmkpFf0imP2,2.0,images/choice_trial_15.png,images/choice_trial_8.png,images/pattern_7.png,j,j,750.0,15.0,8.0,6.0,1.0,25.0,1.0,1.0,8.0,110.0,,,,,,5dbe90f8965e863667a79ca8,09:06:05,27/02/2024
html-keyboard-response,139,898895,0.0-58.0-1.0,,"<div style=""display: flex; flex-direction: column; align-items: center; margin-top: -40px;""><img src=""images/pattern_7.png"" style=""width: 234px; height: 230px; margin-top: -50px;""><div style=""display: flex; justify-content: space-between; margin-top: 33px;""><img src=""images/choice_trial_8.png"" style=""width: 408px; height: 417px; margin-left:608px;""></div></div>",,delaylearn,learning,display_response,5Z32vkr4iae9agunNWmkpFf0imP2,5Z32vkr4iae9agunNWmkpFf0imP2,,,,,,,,,,,,,,,,,chosen stimuli: images/choice_trial_8.png,,,,,5dbe90f8965e863667a79ca8,09:06:05,27/02/2024
html-keyboard-response,140,899658,0.0-58.0-2.0,,,,delaylearn,learning,feedback_duration_window,5Z32vkr4iae9agunNWmkpFf0imP2,5Z32vkr4iae9agunNWmkpFf0imP2,,,,,,,,,,,,,,,,,,750.0,,,,5dbe90f8965e863667a79ca8,09:06:05,27/02/2024
html-keyboard-response,141,901169,0.0-58.0-3.0,,<div style='margin:auto;width: auto; font-size: 150%'><span style='font-weight: bold; font-size: 100px; color: green;'>+10 points!</span><br><br></div>,,delaylearn,learning,feedback_image_window,5Z32vkr4iae9agunNWmkpFf0imP2,5Z32vkr4iae9agunNWmkpFf0imP2,,,,,,,,,,,,,,,,,,,,,,5dbe90f8965e863667a79ca8,09:06:05,27/02/2024
html-keyboard-response,142,901685,0.0-59.0-0.0,,,,,,mood_trial_fixation,5Z32vkr4iae9agunNWmkpFf0imP2,,,,,,,,,,,,,,,,,,,,,,,5dbe90f8965e863667a79ca8,09:06:05,27/02/2024
lmdlab-html-vas-response,143,905899,0.0-59.0-1.0,3196.0,How happy are you right now?,0.6466290086991577,delaylearn,learning,mood_trial,5Z32vkr4iae9agunNWmkpFf0imP2,5Z32vkr4iae9agunNWmkpFf0imP2,,,,,,,,,,,,,,,,,,,,"['Very unhappy', 'Very happy']",,5dbe90f8965e863667a79ca8,09:06:05,27/02/2024
html-keyboard-response,144,908080,0.0-60.0,,"<div style=""font-size:100px;"">+</div>",,delaylearn,learning,ITI,5Z32vkr4iae9agunNWmkpFf0imP2,5Z32vkr4iae9agunNWmkpFf0imP2,,,,,,,,,,,,,,,,,,,2174.0,,,5dbe90f8965e863667a79ca8,09:06:05,27/02/2024
html-keyboard-response,145,909475,0.0-61.0-0.0,1393.9000000357628,"<div style=""display: flex; flex-direction: column; align-items: center; margin-top: -40px;""><img src=""images/pattern_1.png"" style=""width: 234px; height: 230px; margin-top: -50px;""><div style=""display: flex; justify-content: space-between; margin-top: 33px;""><img src=""images/choice_trial_3.png"" style=""width: 408px; height: 417px; margin-right: 200px;""><img src=""images/choice_trial_10.png"" style=""width: 408px; height: 417px;""></div></div>",j,delaylearn,learning,trial,5Z32vkr4iae9agunNWmkpFf0imP2,5Z32vkr4iae9agunNWmkpFf0imP2,2.0,images/choice_trial_3.png,images/choice_trial_10.png,images/pattern_1.png,f,f,7000.0,3.0,10.0,1.0,0.0,26.0,0.0,0.0,10.0,110.0,,,,,,5dbe90f8965e863667a79ca8,09:06:05,27/02/2024
html-keyboard-response,146,910483,0.0-61.0-1.0,,"<div style=""display: flex; flex-direction: column; align-items: center; margin-top: -40px;""><img src=""images/pattern_1.png"" style=""width: 234px; height: 230px; margin-top: -50px;""><div style=""display: flex; justify-content: space-between; margin-top: 33px;""><img src=""images/choice_trial_10.png"" style=""width: 408px; height: 417px; margin-left:608px;""></div></div>",,delaylearn,learning,display_response,5Z32vkr4iae9agunNWmkpFf0imP2,5Z32vkr4iae9agunNWmkpFf0imP2,,,,,,,,,,,,,,,,,chosen stimuli: images/choice_trial_10.png,,,,,5dbe90f8965e863667a79ca8,09:06:05,27/02/2024
html-keyboard-response,147,917499,0.0-61.0-2.0,,,,delaylearn,learning,feedback_duration_window,5Z32vkr4iae9agunNWmkpFf0imP2,5Z32vkr4iae9agunNWmkpFf0imP2,,,,,,,,,,,,,,,,,,7000.0,,,,5dbe90f8965e863667a79ca8,09:06:05,27/02/2024
html-keyboard-response,148,919011,0.0-61.0-3.0,,<div style='margin:auto;width: auto; font-size: 150%'><span style='font-weight: bold; font-size: 100px; color: red;'>0 points!</span><br><br></div>,,delaylearn,learning,feedback_image_window,5Z32vkr4iae9agunNWmkpFf0imP2,5Z32vkr4iae9agunNWmkpFf0imP2,,,,,,,,,,,,,,,,,,,,,,5dbe90f8965e863667a79ca8,09:06:05,27/02/2024
html-keyboard-response,149,921349,0.0-62.0,,"<div style=""font-size:100px;"">+</div>",,delaylearn,learning,ITI,5Z32vkr4iae9agunNWmkpFf0imP2,5Z32vkr4iae9agunNWmkpFf0imP2,,,,,,,,,,,,,,,,,,,2324.0,,,5dbe90f8965e863667a79ca8,09:06:05,27/02/2024
html-keyboard-response,150,923296,0.0-63.0-0.0,1945.5,"<div style=""display: flex; flex-direction: column; align-items: center; margin-top: -40px;""><img src=""images/pattern_5.png"" style=""width: 234px; height: 230px; margin-top: -50px;""><div style=""display: flex; justify-content: space-between; margin-top: 33px;""><img src=""images/choice_trial_2.png"" style=""width: 408px; height: 417px; margin-right: 200px;""><img src=""images/choice_trial_9.png"" style=""width: 408px; height: 417px;""></div></div>",f,delaylearn,learning,trial,5Z32vkr4iae9agunNWmkpFf0imP2,5Z32vkr4iae9agunNWmkpFf0imP2,2.0,images/choice_trial_2.png,images/choice_trial_9.png,images/pattern_5.png,f,f,750.0,2.0,9.0,4.0,0.0,27.0,1.0,1.0,2.0,120.0,,,,,,5dbe90f8965e863667a79ca8,09:06:05,27/02/2024
html-keyboard-response,151,924299,0.0-63.0-1.0,,"<div style=""display: flex; flex-direction: column; align-items: center; margin-top: -40px;""><img src=""images/pattern_5.png"" style=""width: 234px; height: 230px; margin-top: -50px;""><div style=""display: flex; justify-content: space-between; margin-top: 33px;""><img src=""images/choice_trial_2.png"" style=""width: 408px; height: 417px; margin-right: 608px;""></div></div>",,delaylearn,learning,display_response,5Z32vkr4iae9agunNWmkpFf0imP2,5Z32vkr4iae9agunNWmkpFf0imP2,,,,,,,,,,,,,,,,,chosen stimuli: images/choice_trial_2.png,,,,,5dbe90f8965e863667a79ca8,09:06:05,27/02/2024
html-keyboard-response,152,925058,0.0-63.0-2.0,,,,delaylearn,learning,feedback_duration_window,5Z32vkr4iae9agunNWmkpFf0imP2,5Z32vkr4iae9agunNWmkpFf0imP2,,,,,,,,,,,,,,,,,,750.0,,,,5dbe90f8965e863667a79ca8,09:06:05,27/02/2024
html-keyboard-response,153,926569,0.0-63.0-3.0,,<div style='margin:auto;width: auto; font-size: 150%'><span style='font-weight: bold; font-size: 100px; color: green;'>+10 points!</span><br><br></div>,,delaylearn,learning,feedback_image_window,5Z32vkr4iae9agunNWmkpFf0imP2,5Z32vkr4iae9agunNWmkpFf0imP2,,,,,,,,,,,,,,,,,,,,,,5dbe90f8965e863667a79ca8,09:06:05,27/02/2024
html-keyboard-response,154,928815,0.0-64.0,,"<div style=""font-size:100px;"">+</div>",,delaylearn,learning,ITI,5Z32vkr4iae9agunNWmkpFf0imP2,5Z32vkr4iae9agunNWmkpFf0imP2,,,,,,,,,,,,,,,,,,,2236.0,,,5dbe90f8965e863667a79ca8,09:06:05,27/02/2024
html-keyboard-response,155,930504,0.0-65.0-0.0,1688.199999988079,"<div style=""display: flex; flex-direction: column; align-items: center; margin-top: -40px;""><img src=""images/pattern_6.png"" style=""width: 234px; height: 230px; margin-top: -50px;""><div style=""display: flex; justify-content: space-between; margin-top: 33px;""><img src=""images/choice_trial_5.png"" style=""width: 408px; height: 417px; margin-right: 200px;""><img src=""images/choice_trial_11.png"" style=""width: 408px; height: 417px;""></div></div>",j,delaylearn,learning,trial,5Z32vkr4iae9agunNWmkpFf0imP2,5Z32vkr4iae9agunNWmkpFf0imP2,2.0,images/choice_trial_5.png,images/choice_trial_11.png,images/pattern_6.png,j,j,750.0,5.0,11.0,5.0,1.0,28.0,1.0,1.0,11.0,130.0,,,,,,5dbe90f8965e863667a79ca8,09:06:05,27/02/2024
html-keyboard-response,156,931512,0.0-65.0-1.0,,"<div style=""display: flex; flex-direction: column; align-items: center; margin-top: -40px;""><img src=""images/pattern_6.png"" style=""width: 234px; height: 230px; margin-top: -50px;""><div style=""display: flex; justify-content: space-between; margin-top: 33px;""><img src=""images/choice_trial_11.png"" style=""width: 408px; height: 417px; margin-left:608px;""></div></div>",,delaylearn,learning,display_response,5Z32vkr4iae9agunNWmkpFf0imP2,5Z32vkr4iae9agunNWmkpFf0imP2,,,,,,,,,,,,,,,,,chosen stimuli: images/choice_trial_11.png,,,,,5dbe90f8965e863667a79ca8,09:06:05,27/02/2024
html-keyboard-response,157,932278,0.0-65.0-2.0,,,,delaylearn,learning,feedback_duration_window,5Z32vkr4iae9agunNWmkpFf0imP2,5Z32vkr4iae9agunNWmkpFf0imP2,,,,,,,,,,,,,,,,,,750.0,,,,5dbe90f8965e863667a79ca8,09:06:05,27/02/2024
html-keyboard-response,158,933789,0.0-65.0-3.0,,<div style='margin:auto;width: auto; font-size: 150%'><span style='font-weight: bold; font-size: 100px; color: green;'>+10 points!</span><br><br></div>,,delaylearn,learning,feedback_image_window,5Z32vkr4iae9agunNWmkpFf0imP2,5Z32vkr4iae9agunNWmkpFf0imP2,,,,,,,,,,,,,,,,,,,,,,5dbe90f8965e863667a79ca8,09:06:05,27/02/2024
html-keyboard-response,159,934303,0.0-66.0-0.0,,,,,,mood_trial_fixation,5Z32vkr4iae9agunNWmkpFf0imP2,,,,,,,,,,,,,,,,,,,,,,,5dbe90f8965e863667a79ca8,09:06:05,27/02/2024
lmdlab-html-vas-response,160,938397,0.0-66.0-1.0,3077.0,How happy are you right now?,0.6852092537958002,delaylearn,learning,mood_trial,5Z32vkr4iae9agunNWmkpFf0imP2,5Z32vkr4iae9agunNWmkpFf0imP2,,,,,,,,,,,,,,,,,,,,"['Very unhappy', 'Very happy']",,5dbe90f8965e863667a79ca8,09:06:05,27/02/2024
html-keyboard-response,161,940609,0.0-67.0,,"<div style=""font-size:100px;"">+</div>",,delaylearn,learning,ITI,5Z32vkr4iae9agunNWmkpFf0imP2,5Z32vkr4iae9agunNWmkpFf0imP2,,,,,,,,,,,,,,,,,,,2199.0,,,5dbe90f8965e863667a79ca8,09:06:05,27/02/2024
html-keyboard-response,162,942095,0.0-68.0-0.0,1484.7999999523163,"<div style=""display: flex; flex-direction: column; align-items: center; margin-top: -40px;""><img src=""images/pattern_4.png"" style=""width: 234px; height: 230px; margin-top: -50px;""><div style=""display: flex; justify-content: space-between; margin-top: 33px;""><img src=""images/choice_trial_16.png"" style=""width: 408px; height: 417px; margin-right: 200px;""><img src=""images/choice_trial_4.png"" style=""width: 408px; height: 417px;""></div></div>",j,delaylearn,learning,trial,5Z32vkr4iae9agunNWmkpFf0imP2,5Z32vkr4iae9agunNWmkpFf0imP2,2.0,images/choice_trial_16.png,images/choice_trial_4.png,images/pattern_4.png,j,j,7000.0,16.0,4.0,3.0,1.0,29.0,1.0,1.0,4.0,140.0,,,,,,5dbe90f8965e863667a79ca8,09:06:05,27/02/2024
html-keyboard-response,163,943109,0.0-68.0-1.0,,"<div style=""display: flex; flex-direction: column; align-items: center; margin-top: -40px;""><img src=""images/pattern_4.png"" style=""width: 234px; height: 230px; margin-top: -50px;""><div style=""display: flex; justify-content: space-between; margin-top: 33px;""><img src=""images/choice_trial_4.png"" style=""width: 408px; height: 417px; margin-left:608px;""></div></div>",,delaylearn,learning,display_response,5Z32vkr4iae9agunNWmkpFf0imP2,5Z32vkr4iae9agunNWmkpFf0imP2,,,,,,,,,,,,,,,,,chosen stimuli: images/choice_trial_4.png,,,,,5dbe90f8965e863667a79ca8,09:06:05,27/02/2024
html-keyboard-response,164,950118,0.0-68.0-2.0,,,,delaylearn,learning,feedback_duration_window,5Z32vkr4iae9agunNWmkpFf0imP2,5Z32vkr4iae9agunNWmkpFf0imP2,,,,,,,,,,,,,,,,,,7000.0,,,,5dbe90f8965e863667a79ca8,09:06:05,27/02/2024
html-keyboard-response,165,951631,0.0-68.0-3.0,,<div style='margin:auto;width: auto; font-size: 150%'><span style='font-weight: bold; font-size: 100px; color: green;'>+10 points!</span><br><br></div>,,delaylearn,learning,feedback_image_window,5Z32vkr4iae9agunNWmkpFf0imP2,5Z32vkr4iae9agunNWmkpFf0imP2,,,,,,,,,,,,,,,,,,,,,,5dbe90f8965e863667a79ca8,09:06:05,27/02/2024
html-keyboard-response,166,953798,0.0-69.0,,"<div style=""font-size:100px;"">+</div>",,delaylearn,learning,ITI,5Z32vkr4iae9agunNWmkpFf0imP2,5Z32vkr4iae9agunNWmkpFf0imP2,,,,,,,,,,,,,,,,,,,2165.0,,,5dbe90f8965e863667a79ca8,09:06:05,27/02/2024
html-keyboard-response,167,955960,0.0-70.0-0.0,2159.7999999523163,"<div style=""display: flex; flex-direction: column; align-items: center; margin-top: -40px;""><img src=""images/pattern_3.png"" style=""width: 234px; height: 230px; margin-top: -50px;""><div style=""display: flex; justify-content: space-between; margin-top: 33px;""><img src=""images/choice_trial_14.png"" style=""width: 408px; height: 417px; margin-right: 200px;""><img src=""images/choice_trial_12.png"" style=""width: 408px; height: 417px;""></div></div>",f,delaylearn,learning,trial,5Z32vkr4iae9agunNWmkpFf0imP2,5Z32vkr4iae9agunNWmkpFf0imP2,2.0,images/choice_trial_14.png,images/choice_trial_12.png,images/pattern_3.png,j,j,7000.0,14.0,12.0,2.0,1.0,30.0,0.0,0.0,14.0,140.0,,,,,,5dbe90f8965e863667a79ca8,09:06:05,27/02/2024
html-keyboard-response,168,956970,0.0-70.0-1.0,,"<div style=""display: flex; flex-direction: column; align-items: center; margin-top: -40px;""><img src=""images/pattern_3.png"" style=""width: 234px; height: 230px; margin-top: -50px;""><div style=""display: flex; justify-content: space-between; margin-top: 33px;""><img src=""images/choice_trial_14.png"" style=""width: 408px; height: 417px; margin-right: 608px;""></div></div>",,delaylearn,learning,display_response,5Z32vkr4iae9agunNWmkpFf0imP2,5Z32vkr4iae9agunNWmkpFf0imP2,,,,,,,,,,,,,,,,,chosen stimuli: images/choice_trial_14.png,,,,,5dbe90f8965e863667a79ca8,09:06:05,27/02/2024
html-keyboard-response,169,963984,0.0-70.0-2.0,,,,delaylearn,learning,feedback_duration_window,5Z32vkr4iae9agunNWmkpFf0imP2,5Z32vkr4iae9agunNWmkpFf0imP2,,,,,,,,,,,,,,,,,,7000.0,,,,5dbe90f8965e863667a79ca8,09:06:05,27/02/2024
html-keyboard-response,170,965496,0.0-70.0-3.0,,<div style='margin:auto;width: auto; font-size: 150%'><span style='font-weight: bold; font-size: 100px; color: red;'>0 points!</span><br><br></div>,,delaylearn,learning,feedback_image_window,5Z32vkr4iae9agunNWmkpFf0imP2,5Z32vkr4iae9agunNWmkpFf0imP2,,,,,,,,,,,,,,,,,,,,,,5dbe90f8965e863667a79ca8,09:06:05,27/02/2024
html-keyboard-response,171,967595,0.0-71.0,,"<div style=""font-size:100px;"">+</div>",,delaylearn,learning,ITI,5Z32vkr4iae9agunNWmkpFf0imP2,5Z32vkr4iae9agunNWmkpFf0imP2,,,,,,,,,,,,,,,,,,,2086.0,,,5dbe90f8965e863667a79ca8,09:06:05,27/02/2024
html-keyboard-response,172,969104,0.0-72.0-0.0,1508.0,"<div style=""display: flex; flex-direction: column; align-items: center; margin-top: -40px;""><img src=""images/pattern_5.png"" style=""width: 234px; height: 230px; margin-top: -50px;""><div style=""display: flex; justify-content: space-between; margin-top: 33px;""><img src=""images/choice_trial_2.png"" style=""width: 408px; height: 417px; margin-right: 200px;""><img src=""images/choice_trial_9.png"" style=""width: 408px; height: 417px;""></div></div>",f,delaylearn,learning,trial,5Z32vkr4iae9agunNWmkpFf0imP2,5Z32vkr4iae9agunNWmkpFf0imP2,2.0,images/choice_trial_2.png,images/choice_trial_9.png,images/pattern_5.png,j,f,750.0,2.0,9.0,4.0,0.0,31.0,1.0,0.0,2.0,140.0,,,,,,5dbe90f8965e863667a79ca8,09:06:05,27/02/2024
html-keyboard-response,173,970119,0.0-72.0-1.0,,"<div style=""display: flex; flex-direction: column; align-items: center; margin-top: -40px;""><img src=""images/pattern_5.png"" style=""width: 234px; height: 230px; margin-top: -50px;""><div style=""display: flex; justify-content: space-between; margin-top: 33px;""><img src=""images/choice_trial_2.png"" style=""width: 408px; height: 417px; margin-right: 608px;""></div></div>",,delaylearn,learning,display_response,5Z32vkr4iae9agunNWmkpFf0imP2,5Z32vkr4iae9agunNWmkpFf0imP2,,,,,,,,,,,,,,,,,chosen stimuli: images/choice_trial_2.png,,,,,5dbe90f8965e863667a79ca8,09:06:05,27/02/2024
html-keyboard-response,174,970873,0.0-72.0-2.0,,,,delaylearn,learning,feedback_duration_window,5Z32vkr4iae9agunNWmkpFf0imP2,5Z32vkr4iae9agunNWmkpFf0imP2,,,,,,,,,,,,,,,,,,750.0,,,,5dbe90f8965e863667a79ca8,09:06:05,27/02/2024
html-keyboard-response,175,972386,0.0-72.0-3.0,,<div style='margin:auto;width: auto; font-size: 150%'><span style='font-weight: bold; font-size: 100px; color: red;'>0 points!</span><br><br></div>,,delaylearn,learning,feedback_image_window,5Z32vkr4iae9agunNWmkpFf0imP2,5Z32vkr4iae9agunNWmkpFf0imP2,,,,,,,,,,,,,,,,,,,,,,5dbe90f8965e863667a79ca8,09:06:05,27/02/2024
html-keyboard-response,176,974632,0.0-73.0,,"<div style=""font-size:100px;"">+</div>",,delaylearn,learning,ITI,5Z32vkr4iae9agunNWmkpFf0imP2,5Z32vkr4iae9agunNWmkpFf0imP2,,,,,,,,,,,,,,,,,,,2230.0,,,5dbe90f8965e863667a79ca8,09:06:05,27/02/2024
html-keyboard-response,177,976719,0.0-74.0-0.0,2085.600000023842,"<div style=""display: flex; flex-direction: column; align-items: center; margin-top: -40px;""><img src=""images/pattern_1.png"" style=""width: 234px; height: 230px; margin-top: -50px;""><div style=""display: flex; justify-content: space-between; margin-top: 33px;""><img src=""images/choice_trial_3.png"" style=""width: 408px; height: 417px; margin-right: 200px;""><img src=""images/choice_trial_10.png"" style=""width: 408px; height: 417px;""></div></div>",j,delaylearn,learning,trial,5Z32vkr4iae9agunNWmkpFf0imP2,5Z32vkr4iae9agunNWmkpFf0imP2,2.0,images/choice_trial_3.png,images/choice_trial_10.png,images/pattern_1.png,f,f,7000.0,3.0,10.0,1.0,0.0,32.0,0.0,0.0,10.0,140.0,,,,,,5dbe90f8965e863667a79ca8,09:06:05,27/02/2024
html-keyboard-response,178,977732,0.0-74.0-1.0,,"<div style=""display: flex; flex-direction: column; align-items: center; margin-top: -40px;""><img src=""images/pattern_1.png"" style=""width: 234px; height: 230px; margin-top: -50px;""><div style=""display: flex; justify-content: space-between; margin-top: 33px;""><img src=""images/choice_trial_10.png"" style=""width: 408px; height: 417px; margin-left:608px;""></div></div>",,delaylearn,learning,display_response,5Z32vkr4iae9agunNWmkpFf0imP2,5Z32vkr4iae9agunNWmkpFf0imP2,,,,,,,,,,,,,,,,,chosen stimuli: images/choice_trial_10.png,,,,,5dbe90f8965e863667a79ca8,09:06:05,27/02/2024
html-keyboard-response,179,984739,0.0-74.0-2.0,,,,delaylearn,learning,feedback_duration_window,5Z32vkr4iae9agunNWmkpFf0imP2,5Z32vkr4iae9agunNWmkpFf0imP2,,,,,,,,,,,,,,,,,,7000.0,,,,5dbe90f8965e863667a79ca8,09:06:05,27/02/2024
html-keyboard-response,180,986241,0.0-74.0-3.0,,<div style='margin:auto;width: auto; font-size: 150%'><span style='font-weight: bold; font-size: 100px; color: red;'>0 points!</span><br><br></div>,,delaylearn,learning,feedback_image_window,5Z32vkr4iae9agunNWmkpFf0imP2,5Z32vkr4iae9agunNWmkpFf0imP2,,,,,,,,,,,,,,,,,,,,,,5dbe90f8965e863667a79ca8,09:06:05,27/02/2024
html-keyboard-response,181,986755,0.0-75.0-0.0,,,,,,mood_trial_fixation,5Z32vkr4iae9agunNWmkpFf0imP2,,,,,,,,,,,,,,,,,,,,,,,5dbe90f8965e863667a79ca8,09:06:05,27/02/2024
lmdlab-html-vas-response,182,991283,0.0-75.0-1.0,3512.0,How happy are you right now?,0.47494691801909844,delaylearn,learning,mood_trial,5Z32vkr4iae9agunNWmkpFf0imP2,5Z32vkr4iae9agunNWmkpFf0imP2,,,,,,,,,,,,,,,,,,,,"['Very unhappy', 'Very happy']",,5dbe90f8965e863667a79ca8,09:06:05,27/02/2024
html-keyboard-response,183,993463,0.0-76.0,,"<div style=""font-size:100px;"">+</div>",,delaylearn,learning,ITI,5Z32vkr4iae9agunNWmkpFf0imP2,5Z32vkr4iae9agunNWmkpFf0imP2,,,,,,,,,,,,,,,,,,,2164.0,,,5dbe90f8965e863667a79ca8,09:06:05,27/02/2024
html-keyboard-response,184,994975,0.0-77.0-0.0,1510.6000000238419,"<div style=""display: flex; flex-direction: column; align-items: center; margin-top: -40px;""><img src=""images/pattern_6.png"" style=""width: 234px; height: 230px; margin-top: -50px;""><div style=""display: flex; justify-content: space-between; margin-top: 33px;""><img src=""images/choice_trial_11.png"" style=""width: 408px; height: 417px; margin-right: 200px;""><img src=""images/choice_trial_5.png"" style=""width: 408px; height: 417px;""></div></div>",f,delaylearn,learning,trial,5Z32vkr4iae9agunNWmkpFf0imP2,5Z32vkr4iae9agunNWmkpFf0imP2,2.0,images/choice_trial_11.png,images/choice_trial_5.png,images/pattern_6.png,j,f,750.0,11.0,5.0,5.0,0.0,33.0,1.0,0.0,11.0,140.0,,,,,,5dbe90f8965e863667a79ca8,09:06:05,27/02/2024
html-keyboard-response,185,995987,0.0-77.0-1.0,,"<div style=""display: flex; flex-direction: column; align-items: center; margin-top: -40px;""><img src=""images/pattern_6.png"" style=""width: 234px; height: 230px; margin-top: -50px;""><div style=""display: flex; justify-content: space-between; margin-top: 33px;""><img src=""images/choice_trial_11.png"" style=""width: 408px; height: 417px; margin-right: 608px;""></div></div>",,delaylearn,learning,display_response,5Z32vkr4iae9agunNWmkpFf0imP2,5Z32vkr4iae9agunNWmkpFf0imP2,,,,,,,,,,,,,,,,,chosen stimuli: images/choice_trial_11.png,,,,,5dbe90f8965e863667a79ca8,09:06:05,27/02/2024
html-keyboard-response,186,996739,0.0-77.0-2.0,,,,delaylearn,learning,feedback_duration_window,5Z32vkr4iae9agunNWmkpFf0imP2,5Z32vkr4iae9agunNWmkpFf0imP2,,,,,,,,,,,,,,,,,,750.0,,,,5dbe90f8965e863667a79ca8,09:06:05,27/02/2024
html-keyboard-response,187,998255,0.0-77.0-3.0,,<div style='margin:auto;width: auto; font-size: 150%'><span style='font-weight: bold; font-size: 100px; color: red;'>0 points!</span><br><br></div>,,delaylearn,learning,feedback_image_window,5Z32vkr4iae9agunNWmkpFf0imP2,5Z32vkr4iae9agunNWmkpFf0imP2,,,,,,,,,,,,,,,,,,,,,,5dbe90f8965e863667a79ca8,09:06:05,27/02/2024
html-keyboard-response,188,1000407,0.0-78.0,,"<div style=""font-size:100px;"">+</div>",,delaylearn,learning,ITI,5Z32vkr4iae9agunNWmkpFf0imP2,5Z32vkr4iae9agunNWmkpFf0imP2,,,,,,,,,,,,,,,,,,,2147.0,,,5dbe90f8965e863667a79ca8,09:06:05,27/02/2024
html-keyboard-response,189,1001702,0.0-79.0-0.0,1292.800000011921,"<div style=""display: flex; flex-direction: column; align-items: center; margin-top: -40px;""><img src=""images/pattern_3.png"" style=""width: 234px; height: 230px; margin-top: -50px;""><div style=""display: flex; justify-content: space-between; margin-top: 33px;""><img src=""images/choice_trial_14.png"" style=""width: 408px; height: 417px; margin-right: 200px;""><img src=""images/choice_trial_12.png"" style=""width: 408px; height: 417px;""></div></div>",j,delaylearn,learning,trial,5Z32vkr4iae9agunNWmkpFf0imP2,5Z32vkr4iae9agunNWmkpFf0imP2,2.0,images/choice_trial_14.png,images/choice_trial_12.png,images/pattern_3.png,j,j,7000.0,14.0,12.0,2.0,1.0,34.0,1.0,1.0,12.0,150.0,,,,,,5dbe90f8965e863667a79ca8,09:06:05,27/02/2024
html-keyboard-response,190,1002717,0.0-79.0-1.0,,"<div style=""display: flex; flex-direction: column; align-items: center; margin-top: -40px;""><img src=""images/pattern_3.png"" style=""width: 234px; height: 230px; margin-top: -50px;""><div style=""display: flex; justify-content: space-between; margin-top: 33px;""><img src=""images/choice_trial_12.png"" style=""width: 408px; height: 417px; margin-left:608px;""></div></div>",,delaylearn,learning,display_response,5Z32vkr4iae9agunNWmkpFf0imP2,5Z32vkr4iae9agunNWmkpFf0imP2,,,,,,,,,,,,,,,,,chosen stimuli: images/choice_trial_12.png,,,,,5dbe90f8965e863667a79ca8,09:06:05,27/02/2024
html-keyboard-response,191,1009726,0.0-79.0-2.0,,,,delaylearn,learning,feedback_duration_window,5Z32vkr4iae9agunNWmkpFf0imP2,5Z32vkr4iae9agunNWmkpFf0imP2,,,,,,,,,,,,,,,,,,7000.0,,,,5dbe90f8965e863667a79ca8,09:06:05,27/02/2024
html-keyboard-response,192,1011238,0.0-79.0-3.0,,<div style='margin:auto;width: auto; font-size: 150%'><span style='font-weight: bold; font-size: 100px; color: green;'>+10 points!</span><br><br></div>,,delaylearn,learning,feedback_image_window,5Z32vkr4iae9agunNWmkpFf0imP2,5Z32vkr4iae9agunNWmkpFf0imP2,,,,,,,,,,,,,,,,,,,,,,5dbe90f8965e863667a79ca8,09:06:05,27/02/2024
html-keyboard-response,193,1012930,0.0-80.0,,"<div style=""font-size:100px;"">+</div>",,delaylearn,learning,ITI,5Z32vkr4iae9agunNWmkpFf0imP2,5Z32vkr4iae9agunNWmkpFf0imP2,,,,,,,,,,,,,,,,,,,1680.0,,,5dbe90f8965e863667a79ca8,09:06:05,27/02/2024
html-keyboard-response,194,1014257,0.0-81.0-0.0,1324.8999999761581,"<div style=""display: flex; flex-direction: column; align-items: center; margin-top: -40px;""><img src=""images/pattern_4.png"" style=""width: 234px; height: 230px; margin-top: -50px;""><div style=""display: flex; justify-content: space-between; margin-top: 33px;""><img src=""images/choice_trial_16.png"" style=""width: 408px; height: 417px; margin-right: 200px;""><img src=""images/choice_trial_4.png"" style=""width: 408px; height: 417px;""></div></div>",j,delaylearn,learning,trial,5Z32vkr4iae9agunNWmkpFf0imP2,5Z32vkr4iae9agunNWmkpFf0imP2,2.0,images/choice_trial_16.png,images/choice_trial_4.png,images/pattern_4.png,f,j,7000.0,16.0,4.0,3.0,1.0,35.0,1.0,0.0,4.0,150.0,,,,,,5dbe90f8965e863667a79ca8,09:06:05,27/02/2024
html-keyboard-response,195,1015266,0.0-81.0-1.0,,"<div style=""display: flex; flex-direction: column; align-items: center; margin-top: -40px;""><img src=""images/pattern_4.png"" style=""width: 234px; height: 230px; margin-top: -50px;""><div style=""display: flex; justify-content: space-between; margin-top: 33px;""><img src=""images/choice_trial_4.png"" style=""width: 408px; height: 417px; margin-left:608px;""></div></div>",,delaylearn,learning,display_response,5Z32vkr4iae9agunNWmkpFf0imP2,5Z32vkr4iae9agunNWmkpFf0imP2,,,,,,,,,,,,,,,,,chosen stimuli: images/choice_trial_4.png,,,,,5dbe90f8965e863667a79ca8,09:06:05,27/02/2024
html-keyboard-response,196,1022278,0.0-81.0-2.0,,,,delaylearn,learning,feedback_duration_window,5Z32vkr4iae9agunNWmkpFf0imP2,5Z32vkr4iae9agunNWmkpFf0imP2,,,,,,,,,,,,,,,,,,7000.0,,,,5dbe90f8965e863667a79ca8,09:06:05,27/02/2024
html-keyboard-response,197,1023788,0.0-81.0-3.0,,<div style='margin:auto;width: auto; font-size: 150%'><span style='font-weight: bold; font-size: 100px; color: red;'>0 points!</span><br><br></div>,,delaylearn,learning,feedback_image_window,5Z32vkr4iae9agunNWmkpFf0imP2,5Z32vkr4iae9agunNWmkpFf0imP2,,,,,,,,,,,,,,,,,,,,,,5dbe90f8965e863667a79ca8,09:06:05,27/02/2024
html-keyboard-response,198,1025562,0.0-82.0,,"<div style=""font-size:100px;"">+</div>",,delaylearn,learning,ITI,5Z32vkr4iae9agunNWmkpFf0imP2,5Z32vkr4iae9agunNWmkpFf0imP2,,,,,,,,,,,,,,,,,,,1761.0,,,5dbe90f8965e863667a79ca8,09:06:05,27/02/2024
html-keyboard-response,199,1027220,0.0-83.0-0.0,1649.7999999523163,"<div style=""display: flex; flex-direction: column; align-items: center; margin-top: -40px;""><img src=""images/pattern_7.png"" style=""width: 234px; height: 230px; margin-top: -50px;""><div style=""display: flex; justify-content: space-between; margin-top: 33px;""><img src=""images/choice_trial_8.png"" style=""width: 408px; height: 417px; margin-right: 200px;""><img src=""images/choice_trial_15.png"" style=""width: 408px; height: 417px;""></div></div>",f,delaylearn,learning,trial,5Z32vkr4iae9agunNWmkpFf0imP2,5Z32vkr4iae9agunNWmkpFf0imP2,2.0,images/choice_trial_8.png,images/choice_trial_15.png,images/pattern_7.png,f,f,750.0,8.0,15.0,6.0,0.0,36.0,1.0,1.0,8.0,160.0,,,,,,5dbe90f8965e863667a79ca8,09:06:05,27/02/2024
html-keyboard-response,200,1028234,0.0-83.0-1.0,,"<div style=""display: flex; flex-direction: column; align-items: center; margin-top: -40px;""><img src=""images/pattern_7.png"" style=""width: 234px; height: 230px; margin-top: -50px;""><div style=""display: flex; justify-content: space-between; margin-top: 33px;""><img src=""images/choice_trial_8.png"" style=""width: 408px; height: 417px; margin-right: 608px;""></div></div>",,delaylearn,learning,display_response,5Z32vkr4iae9agunNWmkpFf0imP2,5Z32vkr4iae9agunNWmkpFf0imP2,,,,,,,,,,,,,,,,,chosen stimuli: images/choice_trial_8.png,,,,,5dbe90f8965e863667a79ca8,09:06:05,27/02/2024
html-keyboard-response,201,1029001,0.0-83.0-2.0,,,,delaylearn,learning,feedback_duration_window,5Z32vkr4iae9agunNWmkpFf0imP2,5Z32vkr4iae9agunNWmkpFf0imP2,,,,,,,,,,,,,,,,,,750.0,,,,5dbe90f8965e863667a79ca8,09:06:05,27/02/2024
html-keyboard-response,202,1030510,0.0-83.0-3.0,,<div style='margin:auto;width: auto; font-size: 150%'><span style='font-weight: bold; font-size: 100px; color: green;'>+10 points!</span><br><br></div>,,delaylearn,learning,feedback_image_window,5Z32vkr4iae9agunNWmkpFf0imP2,5Z32vkr4iae9agunNWmkpFf0imP2,,,,,,,,,,,,,,,,,,,,,,5dbe90f8965e863667a79ca8,09:06:05,27/02/2024
html-keyboard-response,203,1032895,0.0-84.0,,"<div style=""font-size:100px;"">+</div>",,delaylearn,learning,ITI,5Z32vkr4iae9agunNWmkpFf0imP2,5Z32vkr4iae9agunNWmkpFf0imP2,,,,,,,,,,,,,,,,,,,2380.0,,,5dbe90f8965e863667a79ca8,09:06:05,27/02/2024
html-keyboard-response,204,1034258,0.0-85.0-0.0,1361.300000011921,"<div style=""display: flex; flex-direction: column; align-items: center; margin-top: -40px;""><img src=""images/pattern_1.png"" style=""width: 234px; height: 230px; margin-top: -50px;""><div style=""display: flex; justify-content: space-between; margin-top: 33px;""><img src=""images/choice_trial_3.png"" style=""width: 408px; height: 417px; margin-right: 200px;""><img src=""images/choice_trial_10.png"" style=""width: 408px; height: 417px;""></div></div>",j,delaylearn,learning,trial,5Z32vkr4iae9agunNWmkpFf0imP2,5Z32vkr4iae9agunNWmkpFf0imP2,2.0,images/choice_trial_3.png,images/choice_trial_10.png,images/pattern_1.png,f,f,7000.0,3.0,10.0,1.0,0.0,37.0,0.0,0.0,10.0,160.0,,,,,,5dbe90f8965e863667a79ca8,09:06:05,27/02/2024
html-keyboard-response,205,1035263,0.0-85.0-1.0,,"<div style=""display: flex; flex-direction: column; align-items: center; margin-top: -40px;""><img src=""images/pattern_1.png"" style=""width: 234px; height: 230px; margin-top: -50px;""><div style=""display: flex; justify-content: space-between; margin-top: 33px;""><img src=""images/choice_trial_10.png"" style=""width: 408px; height: 417px; margin-left:608px;""></div></div>",,delaylearn,learning,display_response,5Z32vkr4iae9agunNWmkpFf0imP2,5Z32vkr4iae9agunNWmkpFf0imP2,,,,,,,,,,,,,,,,,chosen stimuli: images/choice_trial_10.png,,,,,5dbe90f8965e863667a79ca8,09:06:05,27/02/2024
html-keyboard-response,206,1042276,0.0-85.0-2.0,,,,delaylearn,learning,feedback_duration_window,5Z32vkr4iae9agunNWmkpFf0imP2,5Z32vkr4iae9agunNWmkpFf0imP2,,,,,,,,,,,,,,,,,,7000.0,,,,5dbe90f8965e863667a79ca8,09:06:05,27/02/2024
html-keyboard-response,207,1043782,0.0-85.0-3.0,,<div style='margin:auto;width: auto; font-size: 150%'><span style='font-weight: bold; font-size: 100px; color: red;'>0 points!</span><br><br></div>,,delaylearn,learning,feedback_image_window,5Z32vkr4iae9agunNWmkpFf0imP2,5Z32vkr4iae9agunNWmkpFf0imP2,,,,,,,,,,,,,,,,,,,,,,5dbe90f8965e863667a79ca8,09:06:05,27/02/2024
html-keyboard-response,208,1044284,0.0-86.0-0.0,,,,,,mood_trial_fixation,5Z32vkr4iae9agunNWmkpFf0imP2,,,,,,,,,,,,,,,,,,,,,,,5dbe90f8965e863667a79ca8,09:06:05,27/02/2024
lmdlab-html-vas-response,209,1048965,0.0-86.0-1.0,3667.0,How happy are you right now?,0.5000240773319161,delaylearn,learning,mood_trial,5Z32vkr4iae9agunNWmkpFf0imP2,5Z32vkr4iae9agunNWmkpFf0imP2,,,,,,,,,,,,,,,,,,,,"['Very unhappy', 'Very happy']",,5dbe90f8965e863667a79ca8,09:06:05,27/02/2024
html-keyboard-response,210,1051185,0.0-87.0,,"<div style=""font-size:100px;"">+</div>",,delaylearn,learning,ITI,5Z32vkr4iae9agunNWmkpFf0imP2,5Z32vkr4iae9agunNWmkpFf0imP2,,,,,,,,,,,,,,,,,,,2217.0,,,5dbe90f8965e863667a79ca8,09:06:05,27/02/2024
html-keyboard-response,211,1052763,0.0-88.0-0.0,1576.2000000476837,"<div style=""display: flex; flex-direction: column; align-items: center; margin-top: -40px;""><img src=""images/pattern_3.png"" style=""width: 234px; height: 230px; margin-top: -50px;""><div style=""display: flex; justify-content: space-between; margin-top: 33px;""><img src=""images/choice_trial_12.png"" style=""width: 408px; height: 417px; margin-right: 200px;""><img src=""images/choice_trial_14.png"" style=""width: 408px; height: 417px;""></div></div>",f,delaylearn,learning,trial,5Z32vkr4iae9agunNWmkpFf0imP2,5Z32vkr4iae9agunNWmkpFf0imP2,2.0,images/choice_trial_12.png,images/choice_trial_14.png,images/pattern_3.png,j,f,7000.0,12.0,14.0,2.0,0.0,38.0,1.0,0.0,12.0,160.0,,,,,,5dbe90f8965e863667a79ca8,09:06:05,27/02/2024
html-keyboard-response,212,1053765,0.0-88.0-1.0,,"<div style=""display: flex; flex-direction: column; align-items: center; margin-top: -40px;""><img src=""images/pattern_3.png"" style=""width: 234px; height: 230px; margin-top: -50px;""><div style=""display: flex; justify-content: space-between; margin-top: 33px;""><img src=""images/choice_trial_12.png"" style=""width: 408px; height: 417px; margin-right: 608px;""></div></div>",,delaylearn,learning,display_response,5Z32vkr4iae9agunNWmkpFf0imP2,5Z32vkr4iae9agunNWmkpFf0imP2,,,,,,,,,,,,,,,,,chosen stimuli: images/choice_trial_12.png,,,,,5dbe90f8965e863667a79ca8,09:06:05,27/02/2024
html-keyboard-response,213,1060767,0.0-88.0-2.0,,,,delaylearn,learning,feedback_duration_window,5Z32vkr4iae9agunNWmkpFf0imP2,5Z32vkr4iae9agunNWmkpFf0imP2,,,,,,,,,,,,,,,,,,7000.0,,,,5dbe90f8965e863667a79ca8,09:06:05,27/02/2024
html-keyboard-response,214,1062282,0.0-88.0-3.0,,<div style='margin:auto;width: auto; font-size: 150%'><span style='font-weight: bold; font-size: 100px; color: red;'>0 points!</span><br><br></div>,,delaylearn,learning,feedback_image_window,5Z32vkr4iae9agunNWmkpFf0imP2,5Z32vkr4iae9agunNWmkpFf0imP2,,,,,,,,,,,,,,,,,,,,,,5dbe90f8965e863667a79ca8,09:06:05,27/02/2024
html-keyboard-response,215,1064215,0.0-89.0,,"<div style=""font-size:100px;"">+</div>",,delaylearn,learning,ITI,5Z32vkr4iae9agunNWmkpFf0imP2,5Z32vkr4iae9agunNWmkpFf0imP2,,,,,,,,,,,,,,,,,,,1921.0,,,5dbe90f8965e863667a79ca8,09:06:05,27/02/2024
html-keyboard-response,216,1065319,0.0-90.0-0.0,1102.5,"<div style=""display: flex; flex-direction: column; align-items: center; margin-top: -40px;""><img src=""images/pattern_7.png"" style=""width: 234px; height: 230px; margin-top: -50px;""><div style=""display: flex; justify-content: space-between; margin-top: 33px;""><img src=""images/choice_trial_15.png"" style=""width: 408px; height: 417px; margin-right: 200px;""><img src=""images/choice_trial_8.png"" style=""width: 408px; height: 417px;""></div></div>",j,delaylearn,learning,trial,5Z32vkr4iae9agunNWmkpFf0imP2,5Z32vkr4iae9agunNWmkpFf0imP2,2.0,images/choice_trial_15.png,images/choice_trial_8.png,images/pattern_7.png,j,j,750.0,15.0,8.0,6.0,1.0,39.0,1.0,1.0,8.0,170.0,,,,,,5dbe90f8965e863667a79ca8,09:06:05,27/02/2024
html-keyboard-response,217,1066326,0.0-90.0-1.0,,"<div style=""display: flex; flex-direction: column; align-items: center; margin-top: -40px;""><img src=""images/pattern_7.png"" style=""width: 234px; height: 230px; margin-top: -50px;""><div style=""display: flex; justify-content: space-between; margin-top: 33px;""><img src=""images/choice_trial_8.png"" style=""width: 408px; height: 417px; margin-left:608px;""></div></div>",,delaylearn,learning,display_response,5Z32vkr4iae9agunNWmkpFf0imP2,5Z32vkr4iae9agunNWmkpFf0imP2,,,,,,,,,,,,,,,,,chosen stimuli: images/choice_trial_8.png,,,,,5dbe90f8965e863667a79ca8,09:06:05,27/02/2024
html-keyboard-response,218,1067088,0.0-90.0-2.0,,,,delaylearn,learning,feedback_duration_window,5Z32vkr4iae9agunNWmkpFf0imP2,5Z32vkr4iae9agunNWmkpFf0imP2,,,,,,,,,,,,,,,,,,750.0,,,,5dbe90f8965e863667a79ca8,09:06:05,27/02/2024
html-keyboard-response,219,1068590,0.0-90.0-3.0,,<div style='margin:auto;width: auto; font-size: 150%'><span style='font-weight: bold; font-size: 100px; color: green;'>+10 points!</span><br><br></div>,,delaylearn,learning,feedback_image_window,5Z32vkr4iae9agunNWmkpFf0imP2,5Z32vkr4iae9agunNWmkpFf0imP2,,,,,,,,,,,,,,,,,,,,,,5dbe90f8965e863667a79ca8,09:06:05,27/02/2024
html-keyboard-response,220,1070923,0.0-91.0,,"<div style=""font-size:100px;"">+</div>",,delaylearn,learning,ITI,5Z32vkr4iae9agunNWmkpFf0imP2,5Z32vkr4iae9agunNWmkpFf0imP2,,,,,,,,,,,,,,,,,,,2327.0,,,5dbe90f8965e863667a79ca8,09:06:05,27/02/2024
html-keyboard-response,221,1072264,0.0-92.0-0.0,1339.699999988079,"<div style=""display: flex; flex-direction: column; align-items: center; margin-top: -40px;""><img src=""images/pattern_5.png"" style=""width: 234px; height: 230px; margin-top: -50px;""><div style=""display: flex; justify-content: space-between; margin-top: 33px;""><img src=""images/choice_trial_9.png"" style=""width: 408px; height: 417px; margin-right: 200px;""><img src=""images/choice_trial_2.png"" style=""width: 408px; height: 417px;""></div></div>",f,delaylearn,learning,trial,5Z32vkr4iae9agunNWmkpFf0imP2,5Z32vkr4iae9agunNWmkpFf0imP2,2.0,images/choice_trial_9.png,images/choice_trial_2.png,images/pattern_5.png,j,j,750.0,9.0,2.0,4.0,1.0,40.0,0.0,0.0,9.0,170.0,,,,,,5dbe90f8965e863667a79ca8,09:06:05,27/02/2024
html-keyboard-response,222,1073273,0.0-92.0-1.0,,"<div style=""display: flex; flex-direction: column; align-items: center; margin-top: -40px;""><img src=""images/pattern_5.png"" style=""width: 234px; height: 230px; margin-top: -50px;""><div style=""display: flex; justify-content: space-between; margin-top: 33px;""><img src=""images/choice_trial_9.png"" style=""width: 408px; height: 417px; margin-right: 608px;""></div></div>",,delaylearn,learning,display_response,5Z32vkr4iae9agunNWmkpFf0imP2,5Z32vkr4iae9agunNWmkpFf0imP2,,,,,,,,,,,,,,,,,chosen stimuli: images/choice_trial_9.png,,,,,5dbe90f8965e863667a79ca8,09:06:05,27/02/2024
html-keyboard-response,223,1074026,0.0-92.0-2.0,,,,delaylearn,learning,feedback_duration_window,5Z32vkr4iae9agunNWmkpFf0imP2,5Z32vkr4iae9agunNWmkpFf0imP2,,,,,,,,,,,,,,,,,,750.0,,,,5dbe90f8965e863667a79ca8,09:06:05,27/02/2024
html-keyboard-response,224,1075539,0.0-92.0-3.0,,<div style='margin:auto;width: auto; font-size: 150%'><span style='font-weight: bold; font-size: 100px; color: red;'>0 points!</span><br><br></div>,,delaylearn,learning,feedback_image_window,5Z32vkr4iae9agunNWmkpFf0imP2,5Z32vkr4iae9agunNWmkpFf0imP2,,,,,,,,,,,,,,,,,,,,,,5dbe90f8965e863667a79ca8,09:06:05,27/02/2024
html-keyboard-response,225,1076055,0.0-93.0-0.0,,,,,,mood_trial_fixation,5Z32vkr4iae9agunNWmkpFf0imP2,,,,,,,,,,,,,,,,,,,,,,,5dbe90f8965e863667a79ca8,09:06:05,27/02/2024
lmdlab-html-vas-response,226,1079908,0.0-93.0-1.0,2834.0,How happy are you right now?,0.3977864278258134,delaylearn,learning,mood_trial,5Z32vkr4iae9agunNWmkpFf0imP2,5Z32vkr4iae9agunNWmkpFf0imP2,,,,,,,,,,,,,,,,,,,,"['Very unhappy', 'Very happy']",,5dbe90f8965e863667a79ca8,09:06:05,27/02/2024
html-keyboard-response,227,1082077,0.0-94.0,,"<div style=""font-size:100px;"">+</div>",,delaylearn,learning,ITI,5Z32vkr4iae9agunNWmkpFf0imP2,5Z32vkr4iae9agunNWmkpFf0imP2,,,,,,,,,,,,,,,,,,,2163.0,,,5dbe90f8965e863667a79ca8,09:06:05,27/02/2024
html-keyboard-response,228,1083111,0.0-95.0-0.0,1032.699999988079,"<div style=""display: flex; flex-direction: column; align-items: center; margin-top: -40px;""><img src=""images/pattern_4.png"" style=""width: 234px; height: 230px; margin-top: -50px;""><div style=""display: flex; justify-content: space-between; margin-top: 33px;""><img src=""images/choice_trial_4.png"" style=""width: 408px; height: 417px; margin-right: 200px;""><img src=""images/choice_trial_16.png"" style=""width: 408px; height: 417px;""></div></div>",f,delaylearn,learning,trial,5Z32vkr4iae9agunNWmkpFf0imP2,5Z32vkr4iae9agunNWmkpFf0imP2,2.0,images/choice_trial_4.png,images/choice_trial_16.png,images/pattern_4.png,f,f,7000.0,4.0,16.0,3.0,0.0,41.0,1.0,1.0,4.0,180.0,,,,,,5dbe90f8965e863667a79ca8,09:06:05,27/02/2024
html-keyboard-response,229,1084121,0.0-95.0-1.0,,"<div style=""display: flex; flex-direction: column; align-items: center; margin-top: -40px;""><img src=""images/pattern_4.png"" style=""width: 234px; height: 230px; margin-top: -50px;""><div style=""display: flex; justify-content: space-between; margin-top: 33px;""><img src=""images/choice_trial_4.png"" style=""width: 408px; height: 417px; margin-right: 608px;""></div></div>",,delaylearn,learning,display_response,5Z32vkr4iae9agunNWmkpFf0imP2,5Z32vkr4iae9agunNWmkpFf0imP2,,,,,,,,,,,,,,,,,chosen stimuli: images/choice_trial_4.png,,,,,5dbe90f8965e863667a79ca8,09:06:05,27/02/2024
html-keyboard-response,230,1091135,0.0-95.0-2.0,,,,delaylearn,learning,feedback_duration_window,5Z32vkr4iae9agunNWmkpFf0imP2,5Z32vkr4iae9agunNWmkpFf0imP2,,,,,,,,,,,,,,,,,,7000.0,,,,5dbe90f8965e863667a79ca8,09:06:05,27/02/2024
html-keyboard-response,231,1092649,0.0-95.0-3.0,,<div style='margin:auto;width: auto; font-size: 150%'><span style='font-weight: bold; font-size: 100px; color: green;'>+10 points!</span><br><br></div>,,delaylearn,learning,feedback_image_window,5Z32vkr4iae9agunNWmkpFf0imP2,5Z32vkr4iae9agunNWmkpFf0imP2,,,,,,,,,,,,,,,,,,,,,,5dbe90f8965e863667a79ca8,09:06:05,27/02/2024
