trial_type,trial_index,time_elapsed,internal_node_id,rt,stimulus,response,exp_name,exp_stage,test_part,subjectID,databaseID,counterbal,choice_stimuli_1,choice_stimuli_2,pattern_stimuli,rewarded_answer,correct_answer,feedback_duration_times,stim_left,stim_right,pair,leftright_counter,trial,response_correct,response_rewarded,chosen_stim,counter,displayed_choice,feedback_durations,ITI_duration,labels,rest_warning,prolificID,start_time,date
pavlovia,0,642,0.0-0.0,,,,,,,ffOl3UJLZFOJqE0LelmAL79nRfB3,,,,,,,,,,,,,,,,,,,,,,,5e9f897c20320b000b1cc4cb,16:53:06,27/03/2024
html-keyboard-response,1,3650,0.0-1.0,,"<div style=""font-size:100px;"">+</div>",,delaylearn,learning,pre_fixation,ffOl3UJLZFOJqE0LelmAL79nRfB3,,,,,,,,,,,,,,,,,,,,,,,5e9f897c20320b000b1cc4cb,16:53:06,27/03/2024
html-keyboard-response,2,4950,0.0-2.0-0.0,1271.5,"<div style=""display: flex; flex-direction: column; align-items: center; margin-top: -40px;""><img src=""images/demo_images/pattern_1.png"" style=""width: 234px; height: 230px; margin-top: -50px;""><div style=""display: flex; justify-content: space-between; margin-top: 33px;""><img src=""images/demo_images/choice_trial_2.png"" style=""width: 408px; height: 417px; margin-right: 200px;""><img src=""images/demo_images/choice_trial_1.png"" style=""width: 408px; height: 417px;""></div></div>",f,delaylearn,learning,trial,ffOl3UJLZFOJqE0LelmAL79nRfB3,ffOl3UJLZFOJqE0LelmAL79nRfB3,4.0,images/demo_images/choice_trial_2.png,images/demo_images/choice_trial_1.png,images/demo_images/pattern_1.png,j,j,3000.0,2.0,1.0,20.0,1.0,1.0,0.0,0.0,2.0,0.0,,,,,,5e9f897c20320b000b1cc4cb,16:53:06,27/03/2024
html-keyboard-response,3,5957,0.0-2.0-1.0,,"<div style=""display: flex; flex-direction: column; align-items: center; margin-top: -40px;""><img src=""images/demo_images/pattern_1.png"" style=""width: 234px; height: 230px; margin-top: -50px;""><div style=""display: flex; justify-content: space-between; margin-top: 33px;""><img src=""images/demo_images/choice_trial_2.png"" style=""width: 408px; height: 417px; margin-right: 608px;""></div></div>",,delaylearn,learning,display_response,ffOl3UJLZFOJqE0LelmAL79nRfB3,ffOl3UJLZFOJqE0LelmAL79nRfB3,,,,,,,,,,,,,,,,,chosen stimuli: images/demo_images/choice_trial_2.png,,,,,5e9f897c20320b000b1cc4cb,16:53:06,27/03/2024
html-keyboard-response,4,8973,0.0-2.0-2.0,,,,delaylearn,learning,feedback_duration_window,ffOl3UJLZFOJqE0LelmAL79nRfB3,ffOl3UJLZFOJqE0LelmAL79nRfB3,,,,,,,,,,,,,,,,,,3000.0,,,,5e9f897c20320b000b1cc4cb,16:53:06,27/03/2024
html-keyboard-response,5,10483,0.0-2.0-3.0,,<div style='margin:auto;width: auto; font-size: 150%'><span style='font-weight: bold; font-size: 100px; color: red;'>0 points!</span><br><br></div>,,delaylearn,learning,feedback_image_window,ffOl3UJLZFOJqE0LelmAL79nRfB3,ffOl3UJLZFOJqE0LelmAL79nRfB3,,,,,,,,,,,,,,,,,,,,,,5e9f897c20320b000b1cc4cb,16:53:06,27/03/2024
html-keyboard-response,6,12469,0.0-3.0,,"<div style=""font-size:100px;"">+</div>",,delaylearn,learning,ITI,ffOl3UJLZFOJqE0LelmAL79nRfB3,ffOl3UJLZFOJqE0LelmAL79nRfB3,,,,,,,,,,,,,,,,,,,1980.0,,,5e9f897c20320b000b1cc4cb,16:53:06,27/03/2024
html-keyboard-response,7,13568,0.0-4.0-0.0,1091.600000000035,"<div style=""display: flex; flex-direction: column; align-items: center; margin-top: -40px;""><img src=""images/demo_images/pattern_1.png"" style=""width: 234px; height: 230px; margin-top: -50px;""><div style=""display: flex; justify-content: space-between; margin-top: 33px;""><img src=""images/demo_images/choice_trial_2.png"" style=""width: 408px; height: 417px; margin-right: 200px;""><img src=""images/demo_images/choice_trial_1.png"" style=""width: 408px; height: 417px;""></div></div>",j,delaylearn,learning,trial,ffOl3UJLZFOJqE0LelmAL79nRfB3,ffOl3UJLZFOJqE0LelmAL79nRfB3,4.0,images/demo_images/choice_trial_2.png,images/demo_images/choice_trial_1.png,images/demo_images/pattern_1.png,j,j,3000.0,2.0,1.0,20.0,1.0,2.0,1.0,1.0,1.0,10.0,,,,,,5e9f897c20320b000b1cc4cb,16:53:06,27/03/2024
html-keyboard-response,8,14570,0.0-4.0-1.0,,"<div style=""display: flex; flex-direction: column; align-items: center; margin-top: -40px;""><img src=""images/demo_images/pattern_1.png"" style=""width: 234px; height: 230px; margin-top: -50px;""><div style=""display: flex; justify-content: space-between; margin-top: 33px;""><img src=""images/demo_images/choice_trial_1.png"" style=""width: 408px; height: 417px; margin-left:608px;""></div></div>",,delaylearn,learning,display_response,ffOl3UJLZFOJqE0LelmAL79nRfB3,ffOl3UJLZFOJqE0LelmAL79nRfB3,,,,,,,,,,,,,,,,,chosen stimuli: images/demo_images/choice_trial_1.png,,,,,5e9f897c20320b000b1cc4cb,16:53:06,27/03/2024
html-keyboard-response,9,17580,0.0-4.0-2.0,,,,delaylearn,learning,feedback_duration_window,ffOl3UJLZFOJqE0LelmAL79nRfB3,ffOl3UJLZFOJqE0LelmAL79nRfB3,,,,,,,,,,,,,,,,,,3000.0,,,,5e9f897c20320b000b1cc4cb,16:53:06,27/03/2024
html-keyboard-response,10,19088,0.0-4.0-3.0,,<div style='margin:auto;width: auto; font-size: 150%'><span style='font-weight: bold; font-size: 100px; color: green;'>+10 points!</span><br><br></div>,,delaylearn,learning,feedback_image_window,ffOl3UJLZFOJqE0LelmAL79nRfB3,ffOl3UJLZFOJqE0LelmAL79nRfB3,,,,,,,,,,,,,,,,,,,,,,5e9f897c20320b000b1cc4cb,16:53:06,27/03/2024
html-keyboard-response,11,21048,0.0-5.0,,"<div style=""font-size:100px;"">+</div>",,delaylearn,learning,ITI,ffOl3UJLZFOJqE0LelmAL79nRfB3,ffOl3UJLZFOJqE0LelmAL79nRfB3,,,,,,,,,,,,,,,,,,,1950.0,,,5e9f897c20320b000b1cc4cb,16:53:06,27/03/2024
html-keyboard-response,12,21897,0.0-6.0-0.0,847.2999999999884,"<div style=""display: flex; flex-direction: column; align-items: center; margin-top: -40px;""><img src=""images/demo_images/pattern_1.png"" style=""width: 234px; height: 230px; margin-top: -50px;""><div style=""display: flex; justify-content: space-between; margin-top: 33px;""><img src=""images/demo_images/choice_trial_1.png"" style=""width: 408px; height: 417px; margin-right: 200px;""><img src=""images/demo_images/choice_trial_2.png"" style=""width: 408px; height: 417px;""></div></div>",f,delaylearn,learning,trial,ffOl3UJLZFOJqE0LelmAL79nRfB3,ffOl3UJLZFOJqE0LelmAL79nRfB3,4.0,images/demo_images/choice_trial_1.png,images/demo_images/choice_trial_2.png,images/demo_images/pattern_1.png,j,f,3000.0,1.0,2.0,20.0,0.0,3.0,1.0,0.0,1.0,10.0,,,,,,5e9f897c20320b000b1cc4cb,16:53:06,27/03/2024
html-keyboard-response,13,22902,0.0-6.0-1.0,,"<div style=""display: flex; flex-direction: column; align-items: center; margin-top: -40px;""><img src=""images/demo_images/pattern_1.png"" style=""width: 234px; height: 230px; margin-top: -50px;""><div style=""display: flex; justify-content: space-between; margin-top: 33px;""><img src=""images/demo_images/choice_trial_1.png"" style=""width: 408px; height: 417px; margin-right: 608px;""></div></div>",,delaylearn,learning,display_response,ffOl3UJLZFOJqE0LelmAL79nRfB3,ffOl3UJLZFOJqE0LelmAL79nRfB3,,,,,,,,,,,,,,,,,chosen stimuli: images/demo_images/choice_trial_1.png,,,,,5e9f897c20320b000b1cc4cb,16:53:06,27/03/2024
html-keyboard-response,14,25908,0.0-6.0-2.0,,,,delaylearn,learning,feedback_duration_window,ffOl3UJLZFOJqE0LelmAL79nRfB3,ffOl3UJLZFOJqE0LelmAL79nRfB3,,,,,,,,,,,,,,,,,,3000.0,,,,5e9f897c20320b000b1cc4cb,16:53:06,27/03/2024
html-keyboard-response,15,27410,0.0-6.0-3.0,,<div style='margin:auto;width: auto; font-size: 150%'><span style='font-weight: bold; font-size: 100px; color: red;'>0 points!</span><br><br></div>,,delaylearn,learning,feedback_image_window,ffOl3UJLZFOJqE0LelmAL79nRfB3,ffOl3UJLZFOJqE0LelmAL79nRfB3,,,,,,,,,,,,,,,,,,,,,,5e9f897c20320b000b1cc4cb,16:53:06,27/03/2024
html-keyboard-response,16,29594,0.0-7.0,,"<div style=""font-size:100px;"">+</div>",,delaylearn,learning,ITI,ffOl3UJLZFOJqE0LelmAL79nRfB3,ffOl3UJLZFOJqE0LelmAL79nRfB3,,,,,,,,,,,,,,,,,,,2172.0,,,5e9f897c20320b000b1cc4cb,16:53:06,27/03/2024
html-keyboard-response,17,31112,0.0-8.0-0.0,1514.7000000000116,"<div style=""display: flex; flex-direction: column; align-items: center; margin-top: -40px;""><img src=""images/demo_images/pattern_1.png"" style=""width: 234px; height: 230px; margin-top: -50px;""><div style=""display: flex; justify-content: space-between; margin-top: 33px;""><img src=""images/demo_images/choice_trial_1.png"" style=""width: 408px; height: 417px; margin-right: 200px;""><img src=""images/demo_images/choice_trial_2.png"" style=""width: 408px; height: 417px;""></div></div>",j,delaylearn,learning,trial,ffOl3UJLZFOJqE0LelmAL79nRfB3,ffOl3UJLZFOJqE0LelmAL79nRfB3,4.0,images/demo_images/choice_trial_1.png,images/demo_images/choice_trial_2.png,images/demo_images/pattern_1.png,f,f,3000.0,1.0,2.0,20.0,0.0,4.0,0.0,0.0,2.0,10.0,,,,,,5e9f897c20320b000b1cc4cb,16:53:06,27/03/2024
html-keyboard-response,18,32114,0.0-8.0-1.0,,"<div style=""display: flex; flex-direction: column; align-items: center; margin-top: -40px;""><img src=""images/demo_images/pattern_1.png"" style=""width: 234px; height: 230px; margin-top: -50px;""><div style=""display: flex; justify-content: space-between; margin-top: 33px;""><img src=""images/demo_images/choice_trial_2.png"" style=""width: 408px; height: 417px; margin-left:608px;""></div></div>",,delaylearn,learning,display_response,ffOl3UJLZFOJqE0LelmAL79nRfB3,ffOl3UJLZFOJqE0LelmAL79nRfB3,,,,,,,,,,,,,,,,,chosen stimuli: images/demo_images/choice_trial_2.png,,,,,5e9f897c20320b000b1cc4cb,16:53:06,27/03/2024
html-keyboard-response,19,35120,0.0-8.0-2.0,,,,delaylearn,learning,feedback_duration_window,ffOl3UJLZFOJqE0LelmAL79nRfB3,ffOl3UJLZFOJqE0LelmAL79nRfB3,,,,,,,,,,,,,,,,,,3000.0,,,,5e9f897c20320b000b1cc4cb,16:53:06,27/03/2024
html-keyboard-response,20,36622,0.0-8.0-3.0,,<div style='margin:auto;width: auto; font-size: 150%'><span style='font-weight: bold; font-size: 100px; color: red;'>0 points!</span><br><br></div>,,delaylearn,learning,feedback_image_window,ffOl3UJLZFOJqE0LelmAL79nRfB3,ffOl3UJLZFOJqE0LelmAL79nRfB3,,,,,,,,,,,,,,,,,,,,,,5e9f897c20320b000b1cc4cb,16:53:06,27/03/2024
html-keyboard-response,21,37123,0.0-9.0-0.0,,,,,,mood_trial_fixation,ffOl3UJLZFOJqE0LelmAL79nRfB3,,,,,,,,,,,,,,,,,,,,,,,5e9f897c20320b000b1cc4cb,16:53:06,27/03/2024
lmdlab-html-vas-response,22,42440,0.0-9.0-1.0,4223.0,How happy are you right now?,0.6852092537958002,delaylearn,learning,mood_trial,ffOl3UJLZFOJqE0LelmAL79nRfB3,ffOl3UJLZFOJqE0LelmAL79nRfB3,,,,,,,,,,,,,,,,,,,,"['Very unhappy', 'Very happy']",,5e9f897c20320b000b1cc4cb,16:53:06,27/03/2024
html-keyboard-response,23,44584,0.0-10.0,,"<div style=""font-size:100px;"">+</div>",,delaylearn,learning,ITI,ffOl3UJLZFOJqE0LelmAL79nRfB3,ffOl3UJLZFOJqE0LelmAL79nRfB3,,,,,,,,,,,,,,,,,,,2140.0,,,5e9f897c20320b000b1cc4cb,16:53:06,27/03/2024
html-keyboard-response,24,45338,0.0-11.0-0.0,751.5,"<div style=""display: flex; flex-direction: column; align-items: center; margin-top: -40px;""><img src=""images/demo_images/pattern_1.png"" style=""width: 234px; height: 230px; margin-top: -50px;""><div style=""display: flex; justify-content: space-between; margin-top: 33px;""><img src=""images/demo_images/choice_trial_2.png"" style=""width: 408px; height: 417px; margin-right: 200px;""><img src=""images/demo_images/choice_trial_1.png"" style=""width: 408px; height: 417px;""></div></div>",f,delaylearn,learning,trial,ffOl3UJLZFOJqE0LelmAL79nRfB3,ffOl3UJLZFOJqE0LelmAL79nRfB3,4.0,images/demo_images/choice_trial_2.png,images/demo_images/choice_trial_1.png,images/demo_images/pattern_1.png,j,j,3000.0,2.0,1.0,20.0,1.0,5.0,0.0,0.0,2.0,10.0,,,,,,5e9f897c20320b000b1cc4cb,16:53:06,27/03/2024
html-keyboard-response,25,46353,0.0-11.0-1.0,,"<div style=""display: flex; flex-direction: column; align-items: center; margin-top: -40px;""><img src=""images/demo_images/pattern_1.png"" style=""width: 234px; height: 230px; margin-top: -50px;""><div style=""display: flex; justify-content: space-between; margin-top: 33px;""><img src=""images/demo_images/choice_trial_2.png"" style=""width: 408px; height: 417px; margin-right: 608px;""></div></div>",,delaylearn,learning,display_response,ffOl3UJLZFOJqE0LelmAL79nRfB3,ffOl3UJLZFOJqE0LelmAL79nRfB3,,,,,,,,,,,,,,,,,chosen stimuli: images/demo_images/choice_trial_2.png,,,,,5e9f897c20320b000b1cc4cb,16:53:06,27/03/2024
html-keyboard-response,26,49356,0.0-11.0-2.0,,,,delaylearn,learning,feedback_duration_window,ffOl3UJLZFOJqE0LelmAL79nRfB3,ffOl3UJLZFOJqE0LelmAL79nRfB3,,,,,,,,,,,,,,,,,,3000.0,,,,5e9f897c20320b000b1cc4cb,16:53:06,27/03/2024
html-keyboard-response,27,50873,0.0-11.0-3.0,,<div style='margin:auto;width: auto; font-size: 150%'><span style='font-weight: bold; font-size: 100px; color: red;'>0 points!</span><br><br></div>,,delaylearn,learning,feedback_image_window,ffOl3UJLZFOJqE0LelmAL79nRfB3,ffOl3UJLZFOJqE0LelmAL79nRfB3,,,,,,,,,,,,,,,,,,,,,,5e9f897c20320b000b1cc4cb,16:53:06,27/03/2024
html-keyboard-response,28,52690,0.0-12.0,,"<div style=""font-size:100px;"">+</div>",,delaylearn,learning,ITI,ffOl3UJLZFOJqE0LelmAL79nRfB3,ffOl3UJLZFOJqE0LelmAL79nRfB3,,,,,,,,,,,,,,,,,,,1814.0,,,5e9f897c20320b000b1cc4cb,16:53:06,27/03/2024
html-keyboard-response,29,55110,0.0-13.0-0.0,2399.0,"<div style=""display: flex; flex-direction: column; align-items: center; margin-top: -40px;""><img src=""images/demo_images/pattern_1.png"" style=""width: 234px; height: 230px; margin-top: -50px;""><div style=""display: flex; justify-content: space-between; margin-top: 33px;""><img src=""images/demo_images/choice_trial_1.png"" style=""width: 408px; height: 417px; margin-right: 200px;""><img src=""images/demo_images/choice_trial_2.png"" style=""width: 408px; height: 417px;""></div></div>",f,delaylearn,learning,trial,ffOl3UJLZFOJqE0LelmAL79nRfB3,ffOl3UJLZFOJqE0LelmAL79nRfB3,4.0,images/demo_images/choice_trial_1.png,images/demo_images/choice_trial_2.png,images/demo_images/pattern_1.png,f,f,3000.0,1.0,2.0,20.0,0.0,6.0,1.0,1.0,1.0,20.0,,,,,,5e9f897c20320b000b1cc4cb,16:53:06,27/03/2024
html-keyboard-response,30,56124,0.0-13.0-1.0,,"<div style=""display: flex; flex-direction: column; align-items: center; margin-top: -40px;""><img src=""images/demo_images/pattern_1.png"" style=""width: 234px; height: 230px; margin-top: -50px;""><div style=""display: flex; justify-content: space-between; margin-top: 33px;""><img src=""images/demo_images/choice_trial_1.png"" style=""width: 408px; height: 417px; margin-right: 608px;""></div></div>",,delaylearn,learning,display_response,ffOl3UJLZFOJqE0LelmAL79nRfB3,ffOl3UJLZFOJqE0LelmAL79nRfB3,,,,,,,,,,,,,,,,,chosen stimuli: images/demo_images/choice_trial_1.png,,,,,5e9f897c20320b000b1cc4cb,16:53:06,27/03/2024
html-keyboard-response,31,59129,0.0-13.0-2.0,,,,delaylearn,learning,feedback_duration_window,ffOl3UJLZFOJqE0LelmAL79nRfB3,ffOl3UJLZFOJqE0LelmAL79nRfB3,,,,,,,,,,,,,,,,,,3000.0,,,,5e9f897c20320b000b1cc4cb,16:53:06,27/03/2024
html-keyboard-response,32,60643,0.0-13.0-3.0,,<div style='margin:auto;width: auto; font-size: 150%'><span style='font-weight: bold; font-size: 100px; color: green;'>+10 points!</span><br><br></div>,,delaylearn,learning,feedback_image_window,ffOl3UJLZFOJqE0LelmAL79nRfB3,ffOl3UJLZFOJqE0LelmAL79nRfB3,,,,,,,,,,,,,,,,,,,,,,5e9f897c20320b000b1cc4cb,16:53:06,27/03/2024
html-keyboard-response,33,62363,0.0-14.0,,"<div style=""font-size:100px;"">+</div>",,delaylearn,learning,ITI,ffOl3UJLZFOJqE0LelmAL79nRfB3,ffOl3UJLZFOJqE0LelmAL79nRfB3,,,,,,,,,,,,,,,,,,,1702.0,,,5e9f897c20320b000b1cc4cb,16:53:06,27/03/2024
html-keyboard-response,34,64829,0.0-15.0-0.0,2461.100000000035,"<div style=""display: flex; flex-direction: column; align-items: center; margin-top: -40px;""><img src=""images/demo_images/pattern_1.png"" style=""width: 234px; height: 230px; margin-top: -50px;""><div style=""display: flex; justify-content: space-between; margin-top: 33px;""><img src=""images/demo_images/choice_trial_2.png"" style=""width: 408px; height: 417px; margin-right: 200px;""><img src=""images/demo_images/choice_trial_1.png"" style=""width: 408px; height: 417px;""></div></div>",f,delaylearn,learning,trial,ffOl3UJLZFOJqE0LelmAL79nRfB3,ffOl3UJLZFOJqE0LelmAL79nRfB3,4.0,images/demo_images/choice_trial_2.png,images/demo_images/choice_trial_1.png,images/demo_images/pattern_1.png,j,j,3000.0,2.0,1.0,20.0,1.0,7.0,0.0,0.0,2.0,20.0,,,,,,5e9f897c20320b000b1cc4cb,16:53:06,27/03/2024
html-keyboard-response,35,65874,0.0-15.0-1.0,,"<div style=""display: flex; flex-direction: column; align-items: center; margin-top: -40px;""><img src=""images/demo_images/pattern_1.png"" style=""width: 234px; height: 230px; margin-top: -50px;""><div style=""display: flex; justify-content: space-between; margin-top: 33px;""><img src=""images/demo_images/choice_trial_2.png"" style=""width: 408px; height: 417px; margin-right: 608px;""></div></div>",,delaylearn,learning,display_response,ffOl3UJLZFOJqE0LelmAL79nRfB3,ffOl3UJLZFOJqE0LelmAL79nRfB3,,,,,,,,,,,,,,,,,chosen stimuli: images/demo_images/choice_trial_2.png,,,,,5e9f897c20320b000b1cc4cb,16:53:06,27/03/2024
html-keyboard-response,36,68890,0.0-15.0-2.0,,,,delaylearn,learning,feedback_duration_window,ffOl3UJLZFOJqE0LelmAL79nRfB3,ffOl3UJLZFOJqE0LelmAL79nRfB3,,,,,,,,,,,,,,,,,,3000.0,,,,5e9f897c20320b000b1cc4cb,16:53:06,27/03/2024
html-keyboard-response,37,70401,0.0-15.0-3.0,,<div style='margin:auto;width: auto; font-size: 150%'><span style='font-weight: bold; font-size: 100px; color: red;'>0 points!</span><br><br></div>,,delaylearn,learning,feedback_image_window,ffOl3UJLZFOJqE0LelmAL79nRfB3,ffOl3UJLZFOJqE0LelmAL79nRfB3,,,,,,,,,,,,,,,,,,,,,,5e9f897c20320b000b1cc4cb,16:53:06,27/03/2024
html-keyboard-response,38,72720,0.0-16.0,,"<div style=""font-size:100px;"">+</div>",,delaylearn,learning,ITI,ffOl3UJLZFOJqE0LelmAL79nRfB3,ffOl3UJLZFOJqE0LelmAL79nRfB3,,,,,,,,,,,,,,,,,,,2305.0,,,5e9f897c20320b000b1cc4cb,16:53:06,27/03/2024
html-keyboard-response,39,74925,0.0-17.0-0.0,2201.5,"<div style=""display: flex; flex-direction: column; align-items: center; margin-top: -40px;""><img src=""images/demo_images/pattern_1.png"" style=""width: 234px; height: 230px; margin-top: -50px;""><div style=""display: flex; justify-content: space-between; margin-top: 33px;""><img src=""images/demo_images/choice_trial_1.png"" style=""width: 408px; height: 417px; margin-right: 200px;""><img src=""images/demo_images/choice_trial_2.png"" style=""width: 408px; height: 417px;""></div></div>",f,delaylearn,learning,trial,ffOl3UJLZFOJqE0LelmAL79nRfB3,ffOl3UJLZFOJqE0LelmAL79nRfB3,4.0,images/demo_images/choice_trial_1.png,images/demo_images/choice_trial_2.png,images/demo_images/pattern_1.png,f,f,3000.0,1.0,2.0,20.0,0.0,8.0,1.0,1.0,1.0,30.0,,,,,,5e9f897c20320b000b1cc4cb,16:53:06,27/03/2024
html-keyboard-response,40,75941,0.0-17.0-1.0,,"<div style=""display: flex; flex-direction: column; align-items: center; margin-top: -40px;""><img src=""images/demo_images/pattern_1.png"" style=""width: 234px; height: 230px; margin-top: -50px;""><div style=""display: flex; justify-content: space-between; margin-top: 33px;""><img src=""images/demo_images/choice_trial_1.png"" style=""width: 408px; height: 417px; margin-right: 608px;""></div></div>",,delaylearn,learning,display_response,ffOl3UJLZFOJqE0LelmAL79nRfB3,ffOl3UJLZFOJqE0LelmAL79nRfB3,,,,,,,,,,,,,,,,,chosen stimuli: images/demo_images/choice_trial_1.png,,,,,5e9f897c20320b000b1cc4cb,16:53:06,27/03/2024
html-keyboard-response,41,78943,0.0-17.0-2.0,,,,delaylearn,learning,feedback_duration_window,ffOl3UJLZFOJqE0LelmAL79nRfB3,ffOl3UJLZFOJqE0LelmAL79nRfB3,,,,,,,,,,,,,,,,,,3000.0,,,,5e9f897c20320b000b1cc4cb,16:53:06,27/03/2024
html-keyboard-response,42,80453,0.0-17.0-3.0,,<div style='margin:auto;width: auto; font-size: 150%'><span style='font-weight: bold; font-size: 100px; color: green;'>+10 points!</span><br><br></div>,,delaylearn,learning,feedback_image_window,ffOl3UJLZFOJqE0LelmAL79nRfB3,ffOl3UJLZFOJqE0LelmAL79nRfB3,,,,,,,,,,,,,,,,,,,,,,5e9f897c20320b000b1cc4cb,16:53:06,27/03/2024
html-button-response,43,83635,0.0-18.0,3052.0,"
  <div style=""display: flex; align-items: center; justify-content: center; height: 80vh;"">
  <div>
          <img src=""images/inst_demo_finish.png"" style=""width: 80vw; height:auto;"">
          <br><br>
      </div>
      <br><br>
  </div>",0,,,,ffOl3UJLZFOJqE0LelmAL79nRfB3,,,,,,,,,,,,,,,,,,,,,,,5e9f897c20320b000b1cc4cb,16:53:06,27/03/2024
html-keyboard-response,44,86622,0.0-19.0,2952.399999999965,"
  <div style=""display: flex; align-items: center; justify-content: center; height: 80vh;"">
  <div>
          <img src=""images/inst_6.png"" style=""width: 80vw; height:auto;"">
          <br><br>
      </div>
      <br><br>
  </div>",f,,,,ffOl3UJLZFOJqE0LelmAL79nRfB3,,,,,,,,,,,,,,,,,,,,,,,5e9f897c20320b000b1cc4cb,16:53:06,27/03/2024
html-keyboard-response,45,89640,0.0-20.0,,"<div style=""font-size:100px;"">+</div>",,delaylearn,learning,pre_fixation,ffOl3UJLZFOJqE0LelmAL79nRfB3,,,,,,,,,,,,,,,,,,,,,,,5e9f897c20320b000b1cc4cb,16:53:06,27/03/2024
html-keyboard-response,46,91401,0.0-21.0,,"<div style=""font-size:100px;"">+</div>",,delaylearn,learning,ITI,ffOl3UJLZFOJqE0LelmAL79nRfB3,ffOl3UJLZFOJqE0LelmAL79nRfB3,,,,,,,,,,,,,,,,,,,1727.0,,,5e9f897c20320b000b1cc4cb,16:53:06,27/03/2024
html-keyboard-response,47,94206,0.0-22.0-0.0,2802.1999999999534,"<div style=""display: flex; flex-direction: column; align-items: center; margin-top: -40px;""><img src=""images/pattern_3.png"" style=""width: 234px; height: 230px; margin-top: -50px;""><div style=""display: flex; justify-content: space-between; margin-top: 33px;""><img src=""images/choice_trial_16.png"" style=""width: 408px; height: 417px; margin-right: 200px;""><img src=""images/choice_trial_6.png"" style=""width: 408px; height: 417px;""></div></div>",f,delaylearn,learning,trial,ffOl3UJLZFOJqE0LelmAL79nRfB3,ffOl3UJLZFOJqE0LelmAL79nRfB3,4.0,images/choice_trial_16.png,images/choice_trial_6.png,images/pattern_3.png,f,f,7000.0,16.0,6.0,2.0,0.0,9.0,1.0,1.0,16.0,40.0,,,,,,5e9f897c20320b000b1cc4cb,16:53:06,27/03/2024
html-keyboard-response,48,95220,0.0-22.0-1.0,,"<div style=""display: flex; flex-direction: column; align-items: center; margin-top: -40px;""><img src=""images/pattern_3.png"" style=""width: 234px; height: 230px; margin-top: -50px;""><div style=""display: flex; justify-content: space-between; margin-top: 33px;""><img src=""images/choice_trial_16.png"" style=""width: 408px; height: 417px; margin-right: 608px;""></div></div>",,delaylearn,learning,display_response,ffOl3UJLZFOJqE0LelmAL79nRfB3,ffOl3UJLZFOJqE0LelmAL79nRfB3,,,,,,,,,,,,,,,,,chosen stimuli: images/choice_trial_16.png,,,,,5e9f897c20320b000b1cc4cb,16:53:06,27/03/2024
html-keyboard-response,49,102232,0.0-22.0-2.0,,,,delaylearn,learning,feedback_duration_window,ffOl3UJLZFOJqE0LelmAL79nRfB3,ffOl3UJLZFOJqE0LelmAL79nRfB3,,,,,,,,,,,,,,,,,,7000.0,,,,5e9f897c20320b000b1cc4cb,16:53:06,27/03/2024
html-keyboard-response,50,103750,0.0-22.0-3.0,,<div style='margin:auto;width: auto; font-size: 150%'><span style='font-weight: bold; font-size: 100px; color: green;'>+10 points!</span><br><br></div>,,delaylearn,learning,feedback_image_window,ffOl3UJLZFOJqE0LelmAL79nRfB3,ffOl3UJLZFOJqE0LelmAL79nRfB3,,,,,,,,,,,,,,,,,,,,,,5e9f897c20320b000b1cc4cb,16:53:06,27/03/2024
html-keyboard-response,51,105553,0.0-23.0,,"<div style=""font-size:100px;"">+</div>",,delaylearn,learning,ITI,ffOl3UJLZFOJqE0LelmAL79nRfB3,ffOl3UJLZFOJqE0LelmAL79nRfB3,,,,,,,,,,,,,,,,,,,1797.0,,,5e9f897c20320b000b1cc4cb,16:53:06,27/03/2024
html-keyboard-response,52,108381,0.0-24.0-0.0,2826.6999999999534,"<div style=""display: flex; flex-direction: column; align-items: center; margin-top: -40px;""><img src=""images/pattern_7.png"" style=""width: 234px; height: 230px; margin-top: -50px;""><div style=""display: flex; justify-content: space-between; margin-top: 33px;""><img src=""images/choice_trial_4.png"" style=""width: 408px; height: 417px; margin-right: 200px;""><img src=""images/choice_trial_13.png"" style=""width: 408px; height: 417px;""></div></div>",j,delaylearn,learning,trial,ffOl3UJLZFOJqE0LelmAL79nRfB3,ffOl3UJLZFOJqE0LelmAL79nRfB3,4.0,images/choice_trial_4.png,images/choice_trial_13.png,images/pattern_7.png,j,j,750.0,4.0,13.0,6.0,1.0,10.0,1.0,1.0,13.0,50.0,,,,,,5e9f897c20320b000b1cc4cb,16:53:06,27/03/2024
html-keyboard-response,53,109394,0.0-24.0-1.0,,"<div style=""display: flex; flex-direction: column; align-items: center; margin-top: -40px;""><img src=""images/pattern_7.png"" style=""width: 234px; height: 230px; margin-top: -50px;""><div style=""display: flex; justify-content: space-between; margin-top: 33px;""><img src=""images/choice_trial_13.png"" style=""width: 408px; height: 417px; margin-left:608px;""></div></div>",,delaylearn,learning,display_response,ffOl3UJLZFOJqE0LelmAL79nRfB3,ffOl3UJLZFOJqE0LelmAL79nRfB3,,,,,,,,,,,,,,,,,chosen stimuli: images/choice_trial_13.png,,,,,5e9f897c20320b000b1cc4cb,16:53:06,27/03/2024
html-keyboard-response,54,110153,0.0-24.0-2.0,,,,delaylearn,learning,feedback_duration_window,ffOl3UJLZFOJqE0LelmAL79nRfB3,ffOl3UJLZFOJqE0LelmAL79nRfB3,,,,,,,,,,,,,,,,,,750.0,,,,5e9f897c20320b000b1cc4cb,16:53:06,27/03/2024
html-keyboard-response,55,111657,0.0-24.0-3.0,,<div style='margin:auto;width: auto; font-size: 150%'><span style='font-weight: bold; font-size: 100px; color: green;'>+10 points!</span><br><br></div>,,delaylearn,learning,feedback_image_window,ffOl3UJLZFOJqE0LelmAL79nRfB3,ffOl3UJLZFOJqE0LelmAL79nRfB3,,,,,,,,,,,,,,,,,,,,,,5e9f897c20320b000b1cc4cb,16:53:06,27/03/2024
html-keyboard-response,56,113867,0.0-25.0,,"<div style=""font-size:100px;"">+</div>",,delaylearn,learning,ITI,ffOl3UJLZFOJqE0LelmAL79nRfB3,ffOl3UJLZFOJqE0LelmAL79nRfB3,,,,,,,,,,,,,,,,,,,2206.0,,,5e9f897c20320b000b1cc4cb,16:53:06,27/03/2024
html-keyboard-response,57,116233,0.0-26.0-0.0,2362.8000000000466,"<div style=""display: flex; flex-direction: column; align-items: center; margin-top: -40px;""><img src=""images/pattern_4.png"" style=""width: 234px; height: 230px; margin-top: -50px;""><div style=""display: flex; justify-content: space-between; margin-top: 33px;""><img src=""images/choice_trial_8.png"" style=""width: 408px; height: 417px; margin-right: 200px;""><img src=""images/choice_trial_7.png"" style=""width: 408px; height: 417px;""></div></div>",f,delaylearn,learning,trial,ffOl3UJLZFOJqE0LelmAL79nRfB3,ffOl3UJLZFOJqE0LelmAL79nRfB3,4.0,images/choice_trial_8.png,images/choice_trial_7.png,images/pattern_4.png,f,f,7000.0,8.0,7.0,3.0,0.0,11.0,1.0,1.0,8.0,60.0,,,,,,5e9f897c20320b000b1cc4cb,16:53:06,27/03/2024
html-keyboard-response,58,117236,0.0-26.0-1.0,,"<div style=""display: flex; flex-direction: column; align-items: center; margin-top: -40px;""><img src=""images/pattern_4.png"" style=""width: 234px; height: 230px; margin-top: -50px;""><div style=""display: flex; justify-content: space-between; margin-top: 33px;""><img src=""images/choice_trial_8.png"" style=""width: 408px; height: 417px; margin-right: 608px;""></div></div>",,delaylearn,learning,display_response,ffOl3UJLZFOJqE0LelmAL79nRfB3,ffOl3UJLZFOJqE0LelmAL79nRfB3,,,,,,,,,,,,,,,,,chosen stimuli: images/choice_trial_8.png,,,,,5e9f897c20320b000b1cc4cb,16:53:06,27/03/2024
html-keyboard-response,59,124247,0.0-26.0-2.0,,,,delaylearn,learning,feedback_duration_window,ffOl3UJLZFOJqE0LelmAL79nRfB3,ffOl3UJLZFOJqE0LelmAL79nRfB3,,,,,,,,,,,,,,,,,,7000.0,,,,5e9f897c20320b000b1cc4cb,16:53:06,27/03/2024
html-keyboard-response,60,125762,0.0-26.0-3.0,,<div style='margin:auto;width: auto; font-size: 150%'><span style='font-weight: bold; font-size: 100px; color: green;'>+10 points!</span><br><br></div>,,delaylearn,learning,feedback_image_window,ffOl3UJLZFOJqE0LelmAL79nRfB3,ffOl3UJLZFOJqE0LelmAL79nRfB3,,,,,,,,,,,,,,,,,,,,,,5e9f897c20320b000b1cc4cb,16:53:06,27/03/2024
html-keyboard-response,61,127560,0.0-27.0,,"<div style=""font-size:100px;"">+</div>",,delaylearn,learning,ITI,ffOl3UJLZFOJqE0LelmAL79nRfB3,ffOl3UJLZFOJqE0LelmAL79nRfB3,,,,,,,,,,,,,,,,,,,1789.0,,,5e9f897c20320b000b1cc4cb,16:53:06,27/03/2024
html-keyboard-response,62,130499,0.0-28.0-0.0,2936.1999999999534,"<div style=""display: flex; flex-direction: column; align-items: center; margin-top: -40px;""><img src=""images/pattern_5.png"" style=""width: 234px; height: 230px; margin-top: -50px;""><div style=""display: flex; justify-content: space-between; margin-top: 33px;""><img src=""images/choice_trial_15.png"" style=""width: 408px; height: 417px; margin-right: 200px;""><img src=""images/choice_trial_5.png"" style=""width: 408px; height: 417px;""></div></div>",f,delaylearn,learning,trial,ffOl3UJLZFOJqE0LelmAL79nRfB3,ffOl3UJLZFOJqE0LelmAL79nRfB3,4.0,images/choice_trial_15.png,images/choice_trial_5.png,images/pattern_5.png,j,j,750.0,15.0,5.0,4.0,1.0,12.0,0.0,0.0,15.0,60.0,,,,,,5e9f897c20320b000b1cc4cb,16:53:06,27/03/2024
html-keyboard-response,63,131510,0.0-28.0-1.0,,"<div style=""display: flex; flex-direction: column; align-items: center; margin-top: -40px;""><img src=""images/pattern_5.png"" style=""width: 234px; height: 230px; margin-top: -50px;""><div style=""display: flex; justify-content: space-between; margin-top: 33px;""><img src=""images/choice_trial_15.png"" style=""width: 408px; height: 417px; margin-right: 608px;""></div></div>",,delaylearn,learning,display_response,ffOl3UJLZFOJqE0LelmAL79nRfB3,ffOl3UJLZFOJqE0LelmAL79nRfB3,,,,,,,,,,,,,,,,,chosen stimuli: images/choice_trial_15.png,,,,,5e9f897c20320b000b1cc4cb,16:53:06,27/03/2024
html-keyboard-response,64,132262,0.0-28.0-2.0,,,,delaylearn,learning,feedback_duration_window,ffOl3UJLZFOJqE0LelmAL79nRfB3,ffOl3UJLZFOJqE0LelmAL79nRfB3,,,,,,,,,,,,,,,,,,750.0,,,,5e9f897c20320b000b1cc4cb,16:53:06,27/03/2024
html-keyboard-response,65,133801,0.0-28.0-3.0,,<div style='margin:auto;width: auto; font-size: 150%'><span style='font-weight: bold; font-size: 100px; color: red;'>0 points!</span><br><br></div>,,delaylearn,learning,feedback_image_window,ffOl3UJLZFOJqE0LelmAL79nRfB3,ffOl3UJLZFOJqE0LelmAL79nRfB3,,,,,,,,,,,,,,,,,,,,,,5e9f897c20320b000b1cc4cb,16:53:06,27/03/2024
html-keyboard-response,66,136235,0.0-29.0,,"<div style=""font-size:100px;"">+</div>",,delaylearn,learning,ITI,ffOl3UJLZFOJqE0LelmAL79nRfB3,ffOl3UJLZFOJqE0LelmAL79nRfB3,,,,,,,,,,,,,,,,,,,2416.0,,,5e9f897c20320b000b1cc4cb,16:53:06,27/03/2024
html-keyboard-response,67,138254,0.0-30.0-0.0,2012.4000000000233,"<div style=""display: flex; flex-direction: column; align-items: center; margin-top: -40px;""><img src=""images/pattern_6.png"" style=""width: 234px; height: 230px; margin-top: -50px;""><div style=""display: flex; justify-content: space-between; margin-top: 33px;""><img src=""images/choice_trial_10.png"" style=""width: 408px; height: 417px; margin-right: 200px;""><img src=""images/choice_trial_3.png"" style=""width: 408px; height: 417px;""></div></div>",j,delaylearn,learning,trial,ffOl3UJLZFOJqE0LelmAL79nRfB3,ffOl3UJLZFOJqE0LelmAL79nRfB3,4.0,images/choice_trial_10.png,images/choice_trial_3.png,images/pattern_6.png,j,f,750.0,10.0,3.0,5.0,0.0,13.0,0.0,1.0,3.0,70.0,,,,,,5e9f897c20320b000b1cc4cb,16:53:06,27/03/2024
html-keyboard-response,68,139267,0.0-30.0-1.0,,"<div style=""display: flex; flex-direction: column; align-items: center; margin-top: -40px;""><img src=""images/pattern_6.png"" style=""width: 234px; height: 230px; margin-top: -50px;""><div style=""display: flex; justify-content: space-between; margin-top: 33px;""><img src=""images/choice_trial_3.png"" style=""width: 408px; height: 417px; margin-left:608px;""></div></div>",,delaylearn,learning,display_response,ffOl3UJLZFOJqE0LelmAL79nRfB3,ffOl3UJLZFOJqE0LelmAL79nRfB3,,,,,,,,,,,,,,,,,chosen stimuli: images/choice_trial_3.png,,,,,5e9f897c20320b000b1cc4cb,16:53:06,27/03/2024
html-keyboard-response,69,140035,0.0-30.0-2.0,,,,delaylearn,learning,feedback_duration_window,ffOl3UJLZFOJqE0LelmAL79nRfB3,ffOl3UJLZFOJqE0LelmAL79nRfB3,,,,,,,,,,,,,,,,,,750.0,,,,5e9f897c20320b000b1cc4cb,16:53:06,27/03/2024
html-keyboard-response,70,141550,0.0-30.0-3.0,,<div style='margin:auto;width: auto; font-size: 150%'><span style='font-weight: bold; font-size: 100px; color: green;'>+10 points!</span><br><br></div>,,delaylearn,learning,feedback_image_window,ffOl3UJLZFOJqE0LelmAL79nRfB3,ffOl3UJLZFOJqE0LelmAL79nRfB3,,,,,,,,,,,,,,,,,,,,,,5e9f897c20320b000b1cc4cb,16:53:06,27/03/2024
html-keyboard-response,71,142051,0.0-31.0-0.0,,,,,,mood_trial_fixation,ffOl3UJLZFOJqE0LelmAL79nRfB3,,,,,,,,,,,,,,,,,,,,,,,5e9f897c20320b000b1cc4cb,16:53:06,27/03/2024
lmdlab-html-vas-response,72,147561,0.0-31.0-1.0,4375.0,How happy are you right now?,0.7411506091859319,delaylearn,learning,mood_trial,ffOl3UJLZFOJqE0LelmAL79nRfB3,ffOl3UJLZFOJqE0LelmAL79nRfB3,,,,,,,,,,,,,,,,,,,,"['Very unhappy', 'Very happy']",,5e9f897c20320b000b1cc4cb,16:53:06,27/03/2024
html-keyboard-response,73,149200,0.0-32.0,,"<div style=""font-size:100px;"">+</div>",,delaylearn,learning,ITI,ffOl3UJLZFOJqE0LelmAL79nRfB3,ffOl3UJLZFOJqE0LelmAL79nRfB3,,,,,,,,,,,,,,,,,,,1621.0,,,5e9f897c20320b000b1cc4cb,16:53:06,27/03/2024
html-keyboard-response,74,151668,0.0-33.0-0.0,2446.0,"<div style=""display: flex; flex-direction: column; align-items: center; margin-top: -40px;""><img src=""images/pattern_1.png"" style=""width: 234px; height: 230px; margin-top: -50px;""><div style=""display: flex; justify-content: space-between; margin-top: 33px;""><img src=""images/choice_trial_9.png"" style=""width: 408px; height: 417px; margin-right: 200px;""><img src=""images/choice_trial_1.png"" style=""width: 408px; height: 417px;""></div></div>",j,delaylearn,learning,trial,ffOl3UJLZFOJqE0LelmAL79nRfB3,ffOl3UJLZFOJqE0LelmAL79nRfB3,4.0,images/choice_trial_9.png,images/choice_trial_1.png,images/pattern_1.png,j,j,7000.0,9.0,1.0,1.0,1.0,14.0,1.0,1.0,1.0,80.0,,,,,,5e9f897c20320b000b1cc4cb,16:53:06,27/03/2024
html-keyboard-response,75,152680,0.0-33.0-1.0,,"<div style=""display: flex; flex-direction: column; align-items: center; margin-top: -40px;""><img src=""images/pattern_1.png"" style=""width: 234px; height: 230px; margin-top: -50px;""><div style=""display: flex; justify-content: space-between; margin-top: 33px;""><img src=""images/choice_trial_1.png"" style=""width: 408px; height: 417px; margin-left:608px;""></div></div>",,delaylearn,learning,display_response,ffOl3UJLZFOJqE0LelmAL79nRfB3,ffOl3UJLZFOJqE0LelmAL79nRfB3,,,,,,,,,,,,,,,,,chosen stimuli: images/choice_trial_1.png,,,,,5e9f897c20320b000b1cc4cb,16:53:06,27/03/2024
html-keyboard-response,76,159699,0.0-33.0-2.0,,,,delaylearn,learning,feedback_duration_window,ffOl3UJLZFOJqE0LelmAL79nRfB3,ffOl3UJLZFOJqE0LelmAL79nRfB3,,,,,,,,,,,,,,,,,,7000.0,,,,5e9f897c20320b000b1cc4cb,16:53:06,27/03/2024
html-keyboard-response,77,161208,0.0-33.0-3.0,,<div style='margin:auto;width: auto; font-size: 150%'><span style='font-weight: bold; font-size: 100px; color: green;'>+10 points!</span><br><br></div>,,delaylearn,learning,feedback_image_window,ffOl3UJLZFOJqE0LelmAL79nRfB3,ffOl3UJLZFOJqE0LelmAL79nRfB3,,,,,,,,,,,,,,,,,,,,,,5e9f897c20320b000b1cc4cb,16:53:06,27/03/2024
html-keyboard-response,78,162800,0.0-34.0,,"<div style=""font-size:100px;"">+</div>",,delaylearn,learning,ITI,ffOl3UJLZFOJqE0LelmAL79nRfB3,ffOl3UJLZFOJqE0LelmAL79nRfB3,,,,,,,,,,,,,,,,,,,1589.0,,,5e9f897c20320b000b1cc4cb,16:53:06,27/03/2024
html-keyboard-response,79,165268,0.0-35.0-0.0,2438.5,"<div style=""display: flex; flex-direction: column; align-items: center; margin-top: -40px;""><img src=""images/pattern_3.png"" style=""width: 234px; height: 230px; margin-top: -50px;""><div style=""display: flex; justify-content: space-between; margin-top: 33px;""><img src=""images/choice_trial_6.png"" style=""width: 408px; height: 417px; margin-right: 200px;""><img src=""images/choice_trial_16.png"" style=""width: 408px; height: 417px;""></div></div>",j,delaylearn,learning,trial,ffOl3UJLZFOJqE0LelmAL79nRfB3,ffOl3UJLZFOJqE0LelmAL79nRfB3,4.0,images/choice_trial_6.png,images/choice_trial_16.png,images/pattern_3.png,f,j,7000.0,6.0,16.0,2.0,1.0,15.0,1.0,0.0,16.0,80.0,,,,,,5e9f897c20320b000b1cc4cb,16:53:06,27/03/2024
html-keyboard-response,80,166275,0.0-35.0-1.0,,"<div style=""display: flex; flex-direction: column; align-items: center; margin-top: -40px;""><img src=""images/pattern_3.png"" style=""width: 234px; height: 230px; margin-top: -50px;""><div style=""display: flex; justify-content: space-between; margin-top: 33px;""><img src=""images/choice_trial_16.png"" style=""width: 408px; height: 417px; margin-left:608px;""></div></div>",,delaylearn,learning,display_response,ffOl3UJLZFOJqE0LelmAL79nRfB3,ffOl3UJLZFOJqE0LelmAL79nRfB3,,,,,,,,,,,,,,,,,chosen stimuli: images/choice_trial_16.png,,,,,5e9f897c20320b000b1cc4cb,16:53:06,27/03/2024
html-keyboard-response,81,173278,0.0-35.0-2.0,,,,delaylearn,learning,feedback_duration_window,ffOl3UJLZFOJqE0LelmAL79nRfB3,ffOl3UJLZFOJqE0LelmAL79nRfB3,,,,,,,,,,,,,,,,,,7000.0,,,,5e9f897c20320b000b1cc4cb,16:53:06,27/03/2024
html-keyboard-response,82,174786,0.0-35.0-3.0,,<div style='margin:auto;width: auto; font-size: 150%'><span style='font-weight: bold; font-size: 100px; color: red;'>0 points!</span><br><br></div>,,delaylearn,learning,feedback_image_window,ffOl3UJLZFOJqE0LelmAL79nRfB3,ffOl3UJLZFOJqE0LelmAL79nRfB3,,,,,,,,,,,,,,,,,,,,,,5e9f897c20320b000b1cc4cb,16:53:06,27/03/2024
html-keyboard-response,83,177036,0.0-36.0,,"<div style=""font-size:100px;"">+</div>",,delaylearn,learning,ITI,ffOl3UJLZFOJqE0LelmAL79nRfB3,ffOl3UJLZFOJqE0LelmAL79nRfB3,,,,,,,,,,,,,,,,,,,2234.0,,,5e9f897c20320b000b1cc4cb,16:53:06,27/03/2024
html-keyboard-response,84,179904,0.0-37.0-0.0,2841.20000000007,"<div style=""display: flex; flex-direction: column; align-items: center; margin-top: -40px;""><img src=""images/pattern_5.png"" style=""width: 234px; height: 230px; margin-top: -50px;""><div style=""display: flex; justify-content: space-between; margin-top: 33px;""><img src=""images/choice_trial_5.png"" style=""width: 408px; height: 417px; margin-right: 200px;""><img src=""images/choice_trial_15.png"" style=""width: 408px; height: 417px;""></div></div>",f,delaylearn,learning,trial,ffOl3UJLZFOJqE0LelmAL79nRfB3,ffOl3UJLZFOJqE0LelmAL79nRfB3,4.0,images/choice_trial_5.png,images/choice_trial_15.png,images/pattern_5.png,f,f,750.0,5.0,15.0,4.0,0.0,16.0,1.0,1.0,5.0,90.0,,,,,,5e9f897c20320b000b1cc4cb,16:53:06,27/03/2024
html-keyboard-response,85,180909,0.0-37.0-1.0,,"<div style=""display: flex; flex-direction: column; align-items: center; margin-top: -40px;""><img src=""images/pattern_5.png"" style=""width: 234px; height: 230px; margin-top: -50px;""><div style=""display: flex; justify-content: space-between; margin-top: 33px;""><img src=""images/choice_trial_5.png"" style=""width: 408px; height: 417px; margin-right: 608px;""></div></div>",,delaylearn,learning,display_response,ffOl3UJLZFOJqE0LelmAL79nRfB3,ffOl3UJLZFOJqE0LelmAL79nRfB3,,,,,,,,,,,,,,,,,chosen stimuli: images/choice_trial_5.png,,,,,5e9f897c20320b000b1cc4cb,16:53:06,27/03/2024
html-keyboard-response,86,181662,0.0-37.0-2.0,,,,delaylearn,learning,feedback_duration_window,ffOl3UJLZFOJqE0LelmAL79nRfB3,ffOl3UJLZFOJqE0LelmAL79nRfB3,,,,,,,,,,,,,,,,,,750.0,,,,5e9f897c20320b000b1cc4cb,16:53:06,27/03/2024
html-keyboard-response,87,183167,0.0-37.0-3.0,,<div style='margin:auto;width: auto; font-size: 150%'><span style='font-weight: bold; font-size: 100px; color: green;'>+10 points!</span><br><br></div>,,delaylearn,learning,feedback_image_window,ffOl3UJLZFOJqE0LelmAL79nRfB3,ffOl3UJLZFOJqE0LelmAL79nRfB3,,,,,,,,,,,,,,,,,,,,,,5e9f897c20320b000b1cc4cb,16:53:06,27/03/2024
html-keyboard-response,88,183671,0.0-38.0-0.0,,,,,,mood_trial_fixation,ffOl3UJLZFOJqE0LelmAL79nRfB3,,,,,,,,,,,,,,,,,,,,,,,5e9f897c20320b000b1cc4cb,16:53:06,27/03/2024
lmdlab-html-vas-response,89,188669,0.0-38.0-1.0,3915.0,How happy are you right now?,0.8607493689855237,delaylearn,learning,mood_trial,ffOl3UJLZFOJqE0LelmAL79nRfB3,ffOl3UJLZFOJqE0LelmAL79nRfB3,,,,,,,,,,,,,,,,,,,,"['Very unhappy', 'Very happy']",,5e9f897c20320b000b1cc4cb,16:53:06,27/03/2024
html-keyboard-response,90,190992,0.0-39.0,,"<div style=""font-size:100px;"">+</div>",,delaylearn,learning,ITI,ffOl3UJLZFOJqE0LelmAL79nRfB3,ffOl3UJLZFOJqE0LelmAL79nRfB3,,,,,,,,,,,,,,,,,,,2301.0,,,5e9f897c20320b000b1cc4cb,16:53:06,27/03/2024
html-keyboard-response,91,192459,0.0-40.0-0.0,1464.2000000000698,"<div style=""display: flex; flex-direction: column; align-items: center; margin-top: -40px;""><img src=""images/pattern_6.png"" style=""width: 234px; height: 230px; margin-top: -50px;""><div style=""display: flex; justify-content: space-between; margin-top: 33px;""><img src=""images/choice_trial_10.png"" style=""width: 408px; height: 417px; margin-right: 200px;""><img src=""images/choice_trial_3.png"" style=""width: 408px; height: 417px;""></div></div>",j,delaylearn,learning,trial,ffOl3UJLZFOJqE0LelmAL79nRfB3,ffOl3UJLZFOJqE0LelmAL79nRfB3,4.0,images/choice_trial_10.png,images/choice_trial_3.png,images/pattern_6.png,f,f,750.0,10.0,3.0,5.0,0.0,17.0,0.0,0.0,3.0,90.0,,,,,,5e9f897c20320b000b1cc4cb,16:53:06,27/03/2024
html-keyboard-response,92,193467,0.0-40.0-1.0,,"<div style=""display: flex; flex-direction: column; align-items: center; margin-top: -40px;""><img src=""images/pattern_6.png"" style=""width: 234px; height: 230px; margin-top: -50px;""><div style=""display: flex; justify-content: space-between; margin-top: 33px;""><img src=""images/choice_trial_3.png"" style=""width: 408px; height: 417px; margin-left:608px;""></div></div>",,delaylearn,learning,display_response,ffOl3UJLZFOJqE0LelmAL79nRfB3,ffOl3UJLZFOJqE0LelmAL79nRfB3,,,,,,,,,,,,,,,,,chosen stimuli: images/choice_trial_3.png,,,,,5e9f897c20320b000b1cc4cb,16:53:06,27/03/2024
html-keyboard-response,93,194234,0.0-40.0-2.0,,,,delaylearn,learning,feedback_duration_window,ffOl3UJLZFOJqE0LelmAL79nRfB3,ffOl3UJLZFOJqE0LelmAL79nRfB3,,,,,,,,,,,,,,,,,,750.0,,,,5e9f897c20320b000b1cc4cb,16:53:06,27/03/2024
html-keyboard-response,94,195747,0.0-40.0-3.0,,<div style='margin:auto;width: auto; font-size: 150%'><span style='font-weight: bold; font-size: 100px; color: red;'>0 points!</span><br><br></div>,,delaylearn,learning,feedback_image_window,ffOl3UJLZFOJqE0LelmAL79nRfB3,ffOl3UJLZFOJqE0LelmAL79nRfB3,,,,,,,,,,,,,,,,,,,,,,5e9f897c20320b000b1cc4cb,16:53:06,27/03/2024
html-keyboard-response,95,198259,0.0-41.0,,"<div style=""font-size:100px;"">+</div>",,delaylearn,learning,ITI,ffOl3UJLZFOJqE0LelmAL79nRfB3,ffOl3UJLZFOJqE0LelmAL79nRfB3,,,,,,,,,,,,,,,,,,,2497.0,,,5e9f897c20320b000b1cc4cb,16:53:06,27/03/2024
html-keyboard-response,96,199699,0.0-42.0-0.0,1436.6000000000931,"<div style=""display: flex; flex-direction: column; align-items: center; margin-top: -40px;""><img src=""images/pattern_4.png"" style=""width: 234px; height: 230px; margin-top: -50px;""><div style=""display: flex; justify-content: space-between; margin-top: 33px;""><img src=""images/choice_trial_7.png"" style=""width: 408px; height: 417px; margin-right: 200px;""><img src=""images/choice_trial_8.png"" style=""width: 408px; height: 417px;""></div></div>",j,delaylearn,learning,trial,ffOl3UJLZFOJqE0LelmAL79nRfB3,ffOl3UJLZFOJqE0LelmAL79nRfB3,4.0,images/choice_trial_7.png,images/choice_trial_8.png,images/pattern_4.png,j,j,7000.0,7.0,8.0,3.0,1.0,18.0,1.0,1.0,8.0,100.0,,,,,,5e9f897c20320b000b1cc4cb,16:53:06,27/03/2024
html-keyboard-response,97,200701,0.0-42.0-1.0,,"<div style=""display: flex; flex-direction: column; align-items: center; margin-top: -40px;""><img src=""images/pattern_4.png"" style=""width: 234px; height: 230px; margin-top: -50px;""><div style=""display: flex; justify-content: space-between; margin-top: 33px;""><img src=""images/choice_trial_8.png"" style=""width: 408px; height: 417px; margin-left:608px;""></div></div>",,delaylearn,learning,display_response,ffOl3UJLZFOJqE0LelmAL79nRfB3,ffOl3UJLZFOJqE0LelmAL79nRfB3,,,,,,,,,,,,,,,,,chosen stimuli: images/choice_trial_8.png,,,,,5e9f897c20320b000b1cc4cb,16:53:06,27/03/2024
html-keyboard-response,98,207711,0.0-42.0-2.0,,,,delaylearn,learning,feedback_duration_window,ffOl3UJLZFOJqE0LelmAL79nRfB3,ffOl3UJLZFOJqE0LelmAL79nRfB3,,,,,,,,,,,,,,,,,,7000.0,,,,5e9f897c20320b000b1cc4cb,16:53:06,27/03/2024
html-keyboard-response,99,209216,0.0-42.0-3.0,,<div style='margin:auto;width: auto; font-size: 150%'><span style='font-weight: bold; font-size: 100px; color: green;'>+10 points!</span><br><br></div>,,delaylearn,learning,feedback_image_window,ffOl3UJLZFOJqE0LelmAL79nRfB3,ffOl3UJLZFOJqE0LelmAL79nRfB3,,,,,,,,,,,,,,,,,,,,,,5e9f897c20320b000b1cc4cb,16:53:06,27/03/2024
html-keyboard-response,100,211672,0.0-43.0,,"<div style=""font-size:100px;"">+</div>",,delaylearn,learning,ITI,ffOl3UJLZFOJqE0LelmAL79nRfB3,ffOl3UJLZFOJqE0LelmAL79nRfB3,,,,,,,,,,,,,,,,,,,2441.0,,,5e9f897c20320b000b1cc4cb,16:53:06,27/03/2024
html-keyboard-response,101,212668,0.0-44.0-0.0,994.9000000000233,"<div style=""display: flex; flex-direction: column; align-items: center; margin-top: -40px;""><img src=""images/pattern_7.png"" style=""width: 234px; height: 230px; margin-top: -50px;""><div style=""display: flex; justify-content: space-between; margin-top: 33px;""><img src=""images/choice_trial_13.png"" style=""width: 408px; height: 417px; margin-right: 200px;""><img src=""images/choice_trial_4.png"" style=""width: 408px; height: 417px;""></div></div>",f,delaylearn,learning,trial,ffOl3UJLZFOJqE0LelmAL79nRfB3,ffOl3UJLZFOJqE0LelmAL79nRfB3,4.0,images/choice_trial_13.png,images/choice_trial_4.png,images/pattern_7.png,j,f,750.0,13.0,4.0,6.0,0.0,19.0,1.0,0.0,13.0,100.0,,,,,,5e9f897c20320b000b1cc4cb,16:53:06,27/03/2024
html-keyboard-response,102,213672,0.0-44.0-1.0,,"<div style=""display: flex; flex-direction: column; align-items: center; margin-top: -40px;""><img src=""images/pattern_7.png"" style=""width: 234px; height: 230px; margin-top: -50px;""><div style=""display: flex; justify-content: space-between; margin-top: 33px;""><img src=""images/choice_trial_13.png"" style=""width: 408px; height: 417px; margin-right: 608px;""></div></div>",,delaylearn,learning,display_response,ffOl3UJLZFOJqE0LelmAL79nRfB3,ffOl3UJLZFOJqE0LelmAL79nRfB3,,,,,,,,,,,,,,,,,chosen stimuli: images/choice_trial_13.png,,,,,5e9f897c20320b000b1cc4cb,16:53:06,27/03/2024
html-keyboard-response,103,214436,0.0-44.0-2.0,,,,delaylearn,learning,feedback_duration_window,ffOl3UJLZFOJqE0LelmAL79nRfB3,ffOl3UJLZFOJqE0LelmAL79nRfB3,,,,,,,,,,,,,,,,,,750.0,,,,5e9f897c20320b000b1cc4cb,16:53:06,27/03/2024
html-keyboard-response,104,215944,0.0-44.0-3.0,,<div style='margin:auto;width: auto; font-size: 150%'><span style='font-weight: bold; font-size: 100px; color: red;'>0 points!</span><br><br></div>,,delaylearn,learning,feedback_image_window,ffOl3UJLZFOJqE0LelmAL79nRfB3,ffOl3UJLZFOJqE0LelmAL79nRfB3,,,,,,,,,,,,,,,,,,,,,,5e9f897c20320b000b1cc4cb,16:53:06,27/03/2024
html-keyboard-response,105,218032,0.0-45.0,,"<div style=""font-size:100px;"">+</div>",,delaylearn,learning,ITI,ffOl3UJLZFOJqE0LelmAL79nRfB3,ffOl3UJLZFOJqE0LelmAL79nRfB3,,,,,,,,,,,,,,,,,,,2086.0,,,5e9f897c20320b000b1cc4cb,16:53:06,27/03/2024
html-keyboard-response,106,219903,0.0-46.0-0.0,1870.3999999999069,"<div style=""display: flex; flex-direction: column; align-items: center; margin-top: -40px;""><img src=""images/pattern_1.png"" style=""width: 234px; height: 230px; margin-top: -50px;""><div style=""display: flex; justify-content: space-between; margin-top: 33px;""><img src=""images/choice_trial_1.png"" style=""width: 408px; height: 417px; margin-right: 200px;""><img src=""images/choice_trial_9.png"" style=""width: 408px; height: 417px;""></div></div>",f,delaylearn,learning,trial,ffOl3UJLZFOJqE0LelmAL79nRfB3,ffOl3UJLZFOJqE0LelmAL79nRfB3,4.0,images/choice_trial_1.png,images/choice_trial_9.png,images/pattern_1.png,f,f,7000.0,1.0,9.0,1.0,0.0,20.0,1.0,1.0,1.0,110.0,,,,,,5e9f897c20320b000b1cc4cb,16:53:06,27/03/2024
html-keyboard-response,107,220918,0.0-46.0-1.0,,"<div style=""display: flex; flex-direction: column; align-items: center; margin-top: -40px;""><img src=""images/pattern_1.png"" style=""width: 234px; height: 230px; margin-top: -50px;""><div style=""display: flex; justify-content: space-between; margin-top: 33px;""><img src=""images/choice_trial_1.png"" style=""width: 408px; height: 417px; margin-right: 608px;""></div></div>",,delaylearn,learning,display_response,ffOl3UJLZFOJqE0LelmAL79nRfB3,ffOl3UJLZFOJqE0LelmAL79nRfB3,,,,,,,,,,,,,,,,,chosen stimuli: images/choice_trial_1.png,,,,,5e9f897c20320b000b1cc4cb,16:53:06,27/03/2024
html-keyboard-response,108,227933,0.0-46.0-2.0,,,,delaylearn,learning,feedback_duration_window,ffOl3UJLZFOJqE0LelmAL79nRfB3,ffOl3UJLZFOJqE0LelmAL79nRfB3,,,,,,,,,,,,,,,,,,7000.0,,,,5e9f897c20320b000b1cc4cb,16:53:06,27/03/2024
html-keyboard-response,109,229436,0.0-46.0-3.0,,<div style='margin:auto;width: auto; font-size: 150%'><span style='font-weight: bold; font-size: 100px; color: green;'>+10 points!</span><br><br></div>,,delaylearn,learning,feedback_image_window,ffOl3UJLZFOJqE0LelmAL79nRfB3,ffOl3UJLZFOJqE0LelmAL79nRfB3,,,,,,,,,,,,,,,,,,,,,,5e9f897c20320b000b1cc4cb,16:53:06,27/03/2024
html-keyboard-response,110,231857,0.0-47.0,,"<div style=""font-size:100px;"">+</div>",,delaylearn,learning,ITI,ffOl3UJLZFOJqE0LelmAL79nRfB3,ffOl3UJLZFOJqE0LelmAL79nRfB3,,,,,,,,,,,,,,,,,,,2408.0,,,5e9f897c20320b000b1cc4cb,16:53:06,27/03/2024
html-keyboard-response,111,233644,0.0-48.0-0.0,1785.3999999999069,"<div style=""display: flex; flex-direction: column; align-items: center; margin-top: -40px;""><img src=""images/pattern_6.png"" style=""width: 234px; height: 230px; margin-top: -50px;""><div style=""display: flex; justify-content: space-between; margin-top: 33px;""><img src=""images/choice_trial_3.png"" style=""width: 408px; height: 417px; margin-right: 200px;""><img src=""images/choice_trial_10.png"" style=""width: 408px; height: 417px;""></div></div>",f,delaylearn,learning,trial,ffOl3UJLZFOJqE0LelmAL79nRfB3,ffOl3UJLZFOJqE0LelmAL79nRfB3,4.0,images/choice_trial_3.png,images/choice_trial_10.png,images/pattern_6.png,j,j,750.0,3.0,10.0,5.0,1.0,21.0,0.0,0.0,3.0,110.0,,,,,,5e9f897c20320b000b1cc4cb,16:53:06,27/03/2024
html-keyboard-response,112,234649,0.0-48.0-1.0,,"<div style=""display: flex; flex-direction: column; align-items: center; margin-top: -40px;""><img src=""images/pattern_6.png"" style=""width: 234px; height: 230px; margin-top: -50px;""><div style=""display: flex; justify-content: space-between; margin-top: 33px;""><img src=""images/choice_trial_3.png"" style=""width: 408px; height: 417px; margin-right: 608px;""></div></div>",,delaylearn,learning,display_response,ffOl3UJLZFOJqE0LelmAL79nRfB3,ffOl3UJLZFOJqE0LelmAL79nRfB3,,,,,,,,,,,,,,,,,chosen stimuli: images/choice_trial_3.png,,,,,5e9f897c20320b000b1cc4cb,16:53:06,27/03/2024
html-keyboard-response,113,235408,0.0-48.0-2.0,,,,delaylearn,learning,feedback_duration_window,ffOl3UJLZFOJqE0LelmAL79nRfB3,ffOl3UJLZFOJqE0LelmAL79nRfB3,,,,,,,,,,,,,,,,,,750.0,,,,5e9f897c20320b000b1cc4cb,16:53:06,27/03/2024
html-keyboard-response,114,236910,0.0-48.0-3.0,,<div style='margin:auto;width: auto; font-size: 150%'><span style='font-weight: bold; font-size: 100px; color: red;'>0 points!</span><br><br></div>,,delaylearn,learning,feedback_image_window,ffOl3UJLZFOJqE0LelmAL79nRfB3,ffOl3UJLZFOJqE0LelmAL79nRfB3,,,,,,,,,,,,,,,,,,,,,,5e9f897c20320b000b1cc4cb,16:53:06,27/03/2024
html-keyboard-response,115,238449,0.0-49.0,,"<div style=""font-size:100px;"">+</div>",,delaylearn,learning,ITI,ffOl3UJLZFOJqE0LelmAL79nRfB3,ffOl3UJLZFOJqE0LelmAL79nRfB3,,,,,,,,,,,,,,,,,,,1537.0,,,5e9f897c20320b000b1cc4cb,16:53:06,27/03/2024
html-keyboard-response,116,239948,0.0-50.0-0.0,1497.4000000000233,"<div style=""display: flex; flex-direction: column; align-items: center; margin-top: -40px;""><img src=""images/pattern_4.png"" style=""width: 234px; height: 230px; margin-top: -50px;""><div style=""display: flex; justify-content: space-between; margin-top: 33px;""><img src=""images/choice_trial_8.png"" style=""width: 408px; height: 417px; margin-right: 200px;""><img src=""images/choice_trial_7.png"" style=""width: 408px; height: 417px;""></div></div>",j,delaylearn,learning,trial,ffOl3UJLZFOJqE0LelmAL79nRfB3,ffOl3UJLZFOJqE0LelmAL79nRfB3,4.0,images/choice_trial_8.png,images/choice_trial_7.png,images/pattern_4.png,f,f,7000.0,8.0,7.0,3.0,0.0,22.0,0.0,0.0,7.0,110.0,,,,,,5e9f897c20320b000b1cc4cb,16:53:06,27/03/2024
html-keyboard-response,117,240953,0.0-50.0-1.0,,"<div style=""display: flex; flex-direction: column; align-items: center; margin-top: -40px;""><img src=""images/pattern_4.png"" style=""width: 234px; height: 230px; margin-top: -50px;""><div style=""display: flex; justify-content: space-between; margin-top: 33px;""><img src=""images/choice_trial_7.png"" style=""width: 408px; height: 417px; margin-left:608px;""></div></div>",,delaylearn,learning,display_response,ffOl3UJLZFOJqE0LelmAL79nRfB3,ffOl3UJLZFOJqE0LelmAL79nRfB3,,,,,,,,,,,,,,,,,chosen stimuli: images/choice_trial_7.png,,,,,5e9f897c20320b000b1cc4cb,16:53:06,27/03/2024
html-keyboard-response,118,247968,0.0-50.0-2.0,,,,delaylearn,learning,feedback_duration_window,ffOl3UJLZFOJqE0LelmAL79nRfB3,ffOl3UJLZFOJqE0LelmAL79nRfB3,,,,,,,,,,,,,,,,,,7000.0,,,,5e9f897c20320b000b1cc4cb,16:53:06,27/03/2024
html-keyboard-response,119,249470,0.0-50.0-3.0,,<div style='margin:auto;width: auto; font-size: 150%'><span style='font-weight: bold; font-size: 100px; color: red;'>0 points!</span><br><br></div>,,delaylearn,learning,feedback_image_window,ffOl3UJLZFOJqE0LelmAL79nRfB3,ffOl3UJLZFOJqE0LelmAL79nRfB3,,,,,,,,,,,,,,,,,,,,,,5e9f897c20320b000b1cc4cb,16:53:06,27/03/2024
html-keyboard-response,120,249978,0.0-51.0-0.0,,,,,,mood_trial_fixation,ffOl3UJLZFOJqE0LelmAL79nRfB3,,,,,,,,,,,,,,,,,,,,,,,5e9f897c20320b000b1cc4cb,16:53:06,27/03/2024
lmdlab-html-vas-response,121,254850,0.0-51.0-1.0,3829.0,How happy are you right now?,0.758511719479421,delaylearn,learning,mood_trial,ffOl3UJLZFOJqE0LelmAL79nRfB3,ffOl3UJLZFOJqE0LelmAL79nRfB3,,,,,,,,,,,,,,,,,,,,"['Very unhappy', 'Very happy']",,5e9f897c20320b000b1cc4cb,16:53:06,27/03/2024
html-keyboard-response,122,257324,0.0-52.0,,"<div style=""font-size:100px;"">+</div>",,delaylearn,learning,ITI,ffOl3UJLZFOJqE0LelmAL79nRfB3,ffOl3UJLZFOJqE0LelmAL79nRfB3,,,,,,,,,,,,,,,,,,,2458.0,,,5e9f897c20320b000b1cc4cb,16:53:06,27/03/2024
html-keyboard-response,123,259109,0.0-53.0-0.0,1784.0999999999767,"<div style=""display: flex; flex-direction: column; align-items: center; margin-top: -40px;""><img src=""images/pattern_7.png"" style=""width: 234px; height: 230px; margin-top: -50px;""><div style=""display: flex; justify-content: space-between; margin-top: 33px;""><img src=""images/choice_trial_4.png"" style=""width: 408px; height: 417px; margin-right: 200px;""><img src=""images/choice_trial_13.png"" style=""width: 408px; height: 417px;""></div></div>",f,delaylearn,learning,trial,ffOl3UJLZFOJqE0LelmAL79nRfB3,ffOl3UJLZFOJqE0LelmAL79nRfB3,4.0,images/choice_trial_4.png,images/choice_trial_13.png,images/pattern_7.png,j,j,750.0,4.0,13.0,6.0,1.0,23.0,0.0,0.0,4.0,110.0,,,,,,5e9f897c20320b000b1cc4cb,16:53:06,27/03/2024
html-keyboard-response,124,260116,0.0-53.0-1.0,,"<div style=""display: flex; flex-direction: column; align-items: center; margin-top: -40px;""><img src=""images/pattern_7.png"" style=""width: 234px; height: 230px; margin-top: -50px;""><div style=""display: flex; justify-content: space-between; margin-top: 33px;""><img src=""images/choice_trial_4.png"" style=""width: 408px; height: 417px; margin-right: 608px;""></div></div>",,delaylearn,learning,display_response,ffOl3UJLZFOJqE0LelmAL79nRfB3,ffOl3UJLZFOJqE0LelmAL79nRfB3,,,,,,,,,,,,,,,,,chosen stimuli: images/choice_trial_4.png,,,,,5e9f897c20320b000b1cc4cb,16:53:06,27/03/2024
html-keyboard-response,125,260879,0.0-53.0-2.0,,,,delaylearn,learning,feedback_duration_window,ffOl3UJLZFOJqE0LelmAL79nRfB3,ffOl3UJLZFOJqE0LelmAL79nRfB3,,,,,,,,,,,,,,,,,,750.0,,,,5e9f897c20320b000b1cc4cb,16:53:06,27/03/2024
html-keyboard-response,126,262386,0.0-53.0-3.0,,<div style='margin:auto;width: auto; font-size: 150%'><span style='font-weight: bold; font-size: 100px; color: red;'>0 points!</span><br><br></div>,,delaylearn,learning,feedback_image_window,ffOl3UJLZFOJqE0LelmAL79nRfB3,ffOl3UJLZFOJqE0LelmAL79nRfB3,,,,,,,,,,,,,,,,,,,,,,5e9f897c20320b000b1cc4cb,16:53:06,27/03/2024
html-keyboard-response,127,264686,0.0-54.0,,"<div style=""font-size:100px;"">+</div>",,delaylearn,learning,ITI,ffOl3UJLZFOJqE0LelmAL79nRfB3,ffOl3UJLZFOJqE0LelmAL79nRfB3,,,,,,,,,,,,,,,,,,,2289.0,,,5e9f897c20320b000b1cc4cb,16:53:06,27/03/2024
html-keyboard-response,128,266170,0.0-55.0-0.0,1482.4000000000233,"<div style=""display: flex; flex-direction: column; align-items: center; margin-top: -40px;""><img src=""images/pattern_1.png"" style=""width: 234px; height: 230px; margin-top: -50px;""><div style=""display: flex; justify-content: space-between; margin-top: 33px;""><img src=""images/choice_trial_9.png"" style=""width: 408px; height: 417px; margin-right: 200px;""><img src=""images/choice_trial_1.png"" style=""width: 408px; height: 417px;""></div></div>",f,delaylearn,learning,trial,ffOl3UJLZFOJqE0LelmAL79nRfB3,ffOl3UJLZFOJqE0LelmAL79nRfB3,4.0,images/choice_trial_9.png,images/choice_trial_1.png,images/pattern_1.png,f,j,7000.0,9.0,1.0,1.0,1.0,24.0,0.0,1.0,9.0,120.0,,,,,,5e9f897c20320b000b1cc4cb,16:53:06,27/03/2024
html-keyboard-response,129,267181,0.0-55.0-1.0,,"<div style=""display: flex; flex-direction: column; align-items: center; margin-top: -40px;""><img src=""images/pattern_1.png"" style=""width: 234px; height: 230px; margin-top: -50px;""><div style=""display: flex; justify-content: space-between; margin-top: 33px;""><img src=""images/choice_trial_9.png"" style=""width: 408px; height: 417px; margin-right: 608px;""></div></div>",,delaylearn,learning,display_response,ffOl3UJLZFOJqE0LelmAL79nRfB3,ffOl3UJLZFOJqE0LelmAL79nRfB3,,,,,,,,,,,,,,,,,chosen stimuli: images/choice_trial_9.png,,,,,5e9f897c20320b000b1cc4cb,16:53:06,27/03/2024
html-keyboard-response,130,274194,0.0-55.0-2.0,,,,delaylearn,learning,feedback_duration_window,ffOl3UJLZFOJqE0LelmAL79nRfB3,ffOl3UJLZFOJqE0LelmAL79nRfB3,,,,,,,,,,,,,,,,,,7000.0,,,,5e9f897c20320b000b1cc4cb,16:53:06,27/03/2024
html-keyboard-response,131,275696,0.0-55.0-3.0,,<div style='margin:auto;width: auto; font-size: 150%'><span style='font-weight: bold; font-size: 100px; color: green;'>+10 points!</span><br><br></div>,,delaylearn,learning,feedback_image_window,ffOl3UJLZFOJqE0LelmAL79nRfB3,ffOl3UJLZFOJqE0LelmAL79nRfB3,,,,,,,,,,,,,,,,,,,,,,5e9f897c20320b000b1cc4cb,16:53:06,27/03/2024
html-keyboard-response,132,277811,0.0-56.0,,"<div style=""font-size:100px;"">+</div>",,delaylearn,learning,ITI,ffOl3UJLZFOJqE0LelmAL79nRfB3,ffOl3UJLZFOJqE0LelmAL79nRfB3,,,,,,,,,,,,,,,,,,,2111.0,,,5e9f897c20320b000b1cc4cb,16:53:06,27/03/2024
html-keyboard-response,133,279825,0.0-57.0-0.0,2012.4000000000233,"<div style=""display: flex; flex-direction: column; align-items: center; margin-top: -40px;""><img src=""images/pattern_5.png"" style=""width: 234px; height: 230px; margin-top: -50px;""><div style=""display: flex; justify-content: space-between; margin-top: 33px;""><img src=""images/choice_trial_15.png"" style=""width: 408px; height: 417px; margin-right: 200px;""><img src=""images/choice_trial_5.png"" style=""width: 408px; height: 417px;""></div></div>",j,delaylearn,learning,trial,ffOl3UJLZFOJqE0LelmAL79nRfB3,ffOl3UJLZFOJqE0LelmAL79nRfB3,4.0,images/choice_trial_15.png,images/choice_trial_5.png,images/pattern_5.png,j,j,750.0,15.0,5.0,4.0,1.0,25.0,1.0,1.0,5.0,130.0,,,,,,5e9f897c20320b000b1cc4cb,16:53:06,27/03/2024
html-keyboard-response,134,280831,0.0-57.0-1.0,,"<div style=""display: flex; flex-direction: column; align-items: center; margin-top: -40px;""><img src=""images/pattern_5.png"" style=""width: 234px; height: 230px; margin-top: -50px;""><div style=""display: flex; justify-content: space-between; margin-top: 33px;""><img src=""images/choice_trial_5.png"" style=""width: 408px; height: 417px; margin-left:608px;""></div></div>",,delaylearn,learning,display_response,ffOl3UJLZFOJqE0LelmAL79nRfB3,ffOl3UJLZFOJqE0LelmAL79nRfB3,,,,,,,,,,,,,,,,,chosen stimuli: images/choice_trial_5.png,,,,,5e9f897c20320b000b1cc4cb,16:53:06,27/03/2024
html-keyboard-response,135,281584,0.0-57.0-2.0,,,,delaylearn,learning,feedback_duration_window,ffOl3UJLZFOJqE0LelmAL79nRfB3,ffOl3UJLZFOJqE0LelmAL79nRfB3,,,,,,,,,,,,,,,,,,750.0,,,,5e9f897c20320b000b1cc4cb,16:53:06,27/03/2024
html-keyboard-response,136,283089,0.0-57.0-3.0,,<div style='margin:auto;width: auto; font-size: 150%'><span style='font-weight: bold; font-size: 100px; color: green;'>+10 points!</span><br><br></div>,,delaylearn,learning,feedback_image_window,ffOl3UJLZFOJqE0LelmAL79nRfB3,ffOl3UJLZFOJqE0LelmAL79nRfB3,,,,,,,,,,,,,,,,,,,,,,5e9f897c20320b000b1cc4cb,16:53:06,27/03/2024
html-keyboard-response,137,285096,0.0-58.0,,"<div style=""font-size:100px;"">+</div>",,delaylearn,learning,ITI,ffOl3UJLZFOJqE0LelmAL79nRfB3,ffOl3UJLZFOJqE0LelmAL79nRfB3,,,,,,,,,,,,,,,,,,,2000.0,,,5e9f897c20320b000b1cc4cb,16:53:06,27/03/2024
html-keyboard-response,138,287084,0.0-59.0-0.0,1985.4000000000233,"<div style=""display: flex; flex-direction: column; align-items: center; margin-top: -40px;""><img src=""images/pattern_3.png"" style=""width: 234px; height: 230px; margin-top: -50px;""><div style=""display: flex; justify-content: space-between; margin-top: 33px;""><img src=""images/choice_trial_6.png"" style=""width: 408px; height: 417px; margin-right: 200px;""><img src=""images/choice_trial_16.png"" style=""width: 408px; height: 417px;""></div></div>",j,delaylearn,learning,trial,ffOl3UJLZFOJqE0LelmAL79nRfB3,ffOl3UJLZFOJqE0LelmAL79nRfB3,4.0,images/choice_trial_6.png,images/choice_trial_16.png,images/pattern_3.png,j,j,7000.0,6.0,16.0,2.0,1.0,26.0,1.0,1.0,16.0,140.0,,,,,,5e9f897c20320b000b1cc4cb,16:53:06,27/03/2024
html-keyboard-response,139,288092,0.0-59.0-1.0,,"<div style=""display: flex; flex-direction: column; align-items: center; margin-top: -40px;""><img src=""images/pattern_3.png"" style=""width: 234px; height: 230px; margin-top: -50px;""><div style=""display: flex; justify-content: space-between; margin-top: 33px;""><img src=""images/choice_trial_16.png"" style=""width: 408px; height: 417px; margin-left:608px;""></div></div>",,delaylearn,learning,display_response,ffOl3UJLZFOJqE0LelmAL79nRfB3,ffOl3UJLZFOJqE0LelmAL79nRfB3,,,,,,,,,,,,,,,,,chosen stimuli: images/choice_trial_16.png,,,,,5e9f897c20320b000b1cc4cb,16:53:06,27/03/2024
html-keyboard-response,140,295108,0.0-59.0-2.0,,,,delaylearn,learning,feedback_duration_window,ffOl3UJLZFOJqE0LelmAL79nRfB3,ffOl3UJLZFOJqE0LelmAL79nRfB3,,,,,,,,,,,,,,,,,,7000.0,,,,5e9f897c20320b000b1cc4cb,16:53:06,27/03/2024
html-keyboard-response,141,296616,0.0-59.0-3.0,,<div style='margin:auto;width: auto; font-size: 150%'><span style='font-weight: bold; font-size: 100px; color: green;'>+10 points!</span><br><br></div>,,delaylearn,learning,feedback_image_window,ffOl3UJLZFOJqE0LelmAL79nRfB3,ffOl3UJLZFOJqE0LelmAL79nRfB3,,,,,,,,,,,,,,,,,,,,,,5e9f897c20320b000b1cc4cb,16:53:06,27/03/2024
lmdlab-html-vas-response,142,301412,0.0-60.0-0.0,3255.0,*How <b><u>confident</u></b> are you feeling about your answers at this moment?*,0.8260030121978471,rewlearn,rate_confidence,,ffOl3UJLZFOJqE0LelmAL79nRfB3,ffOl3UJLZFOJqE0LelmAL79nRfB3,,,,,,,,,,,,,,,,,,,,"['No confidence', 'Complete confidence']",,5e9f897c20320b000b1cc4cb,16:53:06,27/03/2024
lmdlab-rest-trial-limit,143,330010,0.0-60.0-1.0,27066.599999999977,"<div style=""font-size:40px;""><b>Please take a break!</b><br><br><br><br><p>Great work: you earned 140 points.<br><br><br><p>You have completed part(s) 1 of 5.<br><br><br><br>When you are ready to continue<br><br><br>please click the button.</p><br><br>",0,delaylearn,learning,break,ffOl3UJLZFOJqE0LelmAL79nRfB3,ffOl3UJLZFOJqE0LelmAL79nRfB3,,,,,,,,,,,,,,,,,,,,,0.0,5e9f897c20320b000b1cc4cb,16:53:06,27/03/2024
html-keyboard-response,144,333016,0.0-60.0-2.0,,"<div style=""font-size:100px;"">+</div>",,delaylearn,learning,pre_fixation,ffOl3UJLZFOJqE0LelmAL79nRfB3,,,,,,,,,,,,,,,,,,,,,,,5e9f897c20320b000b1cc4cb,16:53:06,27/03/2024
lmdlab-html-vas-response,145,338228,0.0-60.0-3.0-0.0,4185.0,How happy are you right now?,0.7874469033019029,delaylearn,learning,mood_baseline,ffOl3UJLZFOJqE0LelmAL79nRfB3,ffOl3UJLZFOJqE0LelmAL79nRfB3,,,,,,,,,,,,,,,,,,,,"['Very unhappy', 'Very happy']",,5e9f897c20320b000b1cc4cb,16:53:06,27/03/2024
html-keyboard-response,146,339736,0.0-60.0-3.0-1.0,,,,,,mood_baseline_fixation,ffOl3UJLZFOJqE0LelmAL79nRfB3,,,,,,,,,,,,,,,,,,,,,,,5e9f897c20320b000b1cc4cb,16:53:06,27/03/2024
html-keyboard-response,147,341559,0.0-61.0,,"<div style=""font-size:100px;"">+</div>",,delaylearn,learning,ITI,ffOl3UJLZFOJqE0LelmAL79nRfB3,ffOl3UJLZFOJqE0LelmAL79nRfB3,,,,,,,,,,,,,,,,,,,1809.0,,,5e9f897c20320b000b1cc4cb,16:53:06,27/03/2024
html-keyboard-response,148,342948,0.0-62.0-0.0,1382.0,"<div style=""display: flex; flex-direction: column; align-items: center; margin-top: -40px;""><img src=""images/pattern_7.png"" style=""width: 234px; height: 230px; margin-top: -50px;""><div style=""display: flex; justify-content: space-between; margin-top: 33px;""><img src=""images/choice_trial_4.png"" style=""width: 408px; height: 417px; margin-right: 200px;""><img src=""images/choice_trial_13.png"" style=""width: 408px; height: 417px;""></div></div>",j,delaylearn,learning,trial,ffOl3UJLZFOJqE0LelmAL79nRfB3,ffOl3UJLZFOJqE0LelmAL79nRfB3,4.0,images/choice_trial_4.png,images/choice_trial_13.png,images/pattern_7.png,j,j,750.0,4.0,13.0,6.0,1.0,27.0,1.0,1.0,13.0,150.0,,,,,,5e9f897c20320b000b1cc4cb,16:53:06,27/03/2024
html-keyboard-response,149,343966,0.0-62.0-1.0,,"<div style=""display: flex; flex-direction: column; align-items: center; margin-top: -40px;""><img src=""images/pattern_7.png"" style=""width: 234px; height: 230px; margin-top: -50px;""><div style=""display: flex; justify-content: space-between; margin-top: 33px;""><img src=""images/choice_trial_13.png"" style=""width: 408px; height: 417px; margin-left:608px;""></div></div>",,delaylearn,learning,display_response,ffOl3UJLZFOJqE0LelmAL79nRfB3,ffOl3UJLZFOJqE0LelmAL79nRfB3,,,,,,,,,,,,,,,,,chosen stimuli: images/choice_trial_13.png,,,,,5e9f897c20320b000b1cc4cb,16:53:06,27/03/2024
html-keyboard-response,150,344718,0.0-62.0-2.0,,,,delaylearn,learning,feedback_duration_window,ffOl3UJLZFOJqE0LelmAL79nRfB3,ffOl3UJLZFOJqE0LelmAL79nRfB3,,,,,,,,,,,,,,,,,,750.0,,,,5e9f897c20320b000b1cc4cb,16:53:06,27/03/2024
html-keyboard-response,151,346221,0.0-62.0-3.0,,<div style='margin:auto;width: auto; font-size: 150%'><span style='font-weight: bold; font-size: 100px; color: green;'>+10 points!</span><br><br></div>,,delaylearn,learning,feedback_image_window,ffOl3UJLZFOJqE0LelmAL79nRfB3,ffOl3UJLZFOJqE0LelmAL79nRfB3,,,,,,,,,,,,,,,,,,,,,,5e9f897c20320b000b1cc4cb,16:53:06,27/03/2024
html-keyboard-response,152,346735,0.0-63.0-0.0,,,,,,mood_trial_fixation,ffOl3UJLZFOJqE0LelmAL79nRfB3,,,,,,,,,,,,,,,,,,,,,,,5e9f897c20320b000b1cc4cb,16:53:06,27/03/2024
lmdlab-html-vas-response,153,351417,0.0-63.0-1.0,3651.0,How happy are you right now?,0.7816598665374065,delaylearn,learning,mood_trial,ffOl3UJLZFOJqE0LelmAL79nRfB3,ffOl3UJLZFOJqE0LelmAL79nRfB3,,,,,,,,,,,,,,,,,,,,"['Very unhappy', 'Very happy']",,5e9f897c20320b000b1cc4cb,16:53:06,27/03/2024
html-keyboard-response,154,352979,0.0-64.0,,"<div style=""font-size:100px;"">+</div>",,delaylearn,learning,ITI,ffOl3UJLZFOJqE0LelmAL79nRfB3,ffOl3UJLZFOJqE0LelmAL79nRfB3,,,,,,,,,,,,,,,,,,,1557.0,,,5e9f897c20320b000b1cc4cb,16:53:06,27/03/2024
html-keyboard-response,155,354344,0.0-65.0-0.0,1359.7999999999302,"<div style=""display: flex; flex-direction: column; align-items: center; margin-top: -40px;""><img src=""images/pattern_1.png"" style=""width: 234px; height: 230px; margin-top: -50px;""><div style=""display: flex; justify-content: space-between; margin-top: 33px;""><img src=""images/choice_trial_1.png"" style=""width: 408px; height: 417px; margin-right: 200px;""><img src=""images/choice_trial_9.png"" style=""width: 408px; height: 417px;""></div></div>",f,delaylearn,learning,trial,ffOl3UJLZFOJqE0LelmAL79nRfB3,ffOl3UJLZFOJqE0LelmAL79nRfB3,4.0,images/choice_trial_1.png,images/choice_trial_9.png,images/pattern_1.png,f,f,7000.0,1.0,9.0,1.0,0.0,28.0,1.0,1.0,1.0,160.0,,,,,,5e9f897c20320b000b1cc4cb,16:53:06,27/03/2024
html-keyboard-response,156,355353,0.0-65.0-1.0,,"<div style=""display: flex; flex-direction: column; align-items: center; margin-top: -40px;""><img src=""images/pattern_1.png"" style=""width: 234px; height: 230px; margin-top: -50px;""><div style=""display: flex; justify-content: space-between; margin-top: 33px;""><img src=""images/choice_trial_1.png"" style=""width: 408px; height: 417px; margin-right: 608px;""></div></div>",,delaylearn,learning,display_response,ffOl3UJLZFOJqE0LelmAL79nRfB3,ffOl3UJLZFOJqE0LelmAL79nRfB3,,,,,,,,,,,,,,,,,chosen stimuli: images/choice_trial_1.png,,,,,5e9f897c20320b000b1cc4cb,16:53:06,27/03/2024
html-keyboard-response,157,362357,0.0-65.0-2.0,,,,delaylearn,learning,feedback_duration_window,ffOl3UJLZFOJqE0LelmAL79nRfB3,ffOl3UJLZFOJqE0LelmAL79nRfB3,,,,,,,,,,,,,,,,,,7000.0,,,,5e9f897c20320b000b1cc4cb,16:53:06,27/03/2024
html-keyboard-response,158,363894,0.0-65.0-3.0,,<div style='margin:auto;width: auto; font-size: 150%'><span style='font-weight: bold; font-size: 100px; color: green;'>+10 points!</span><br><br></div>,,delaylearn,learning,feedback_image_window,ffOl3UJLZFOJqE0LelmAL79nRfB3,ffOl3UJLZFOJqE0LelmAL79nRfB3,,,,,,,,,,,,,,,,,,,,,,5e9f897c20320b000b1cc4cb,16:53:06,27/03/2024
html-keyboard-response,159,366121,0.0-66.0,,"<div style=""font-size:100px;"">+</div>",,delaylearn,learning,ITI,ffOl3UJLZFOJqE0LelmAL79nRfB3,ffOl3UJLZFOJqE0LelmAL79nRfB3,,,,,,,,,,,,,,,,,,,2220.0,,,5e9f897c20320b000b1cc4cb,16:53:06,27/03/2024
html-keyboard-response,160,368296,0.0-67.0-0.0,2173.0999999999767,"<div style=""display: flex; flex-direction: column; align-items: center; margin-top: -40px;""><img src=""images/pattern_5.png"" style=""width: 234px; height: 230px; margin-top: -50px;""><div style=""display: flex; justify-content: space-between; margin-top: 33px;""><img src=""images/choice_trial_5.png"" style=""width: 408px; height: 417px; margin-right: 200px;""><img src=""images/choice_trial_15.png"" style=""width: 408px; height: 417px;""></div></div>",f,delaylearn,learning,trial,ffOl3UJLZFOJqE0LelmAL79nRfB3,ffOl3UJLZFOJqE0LelmAL79nRfB3,4.0,images/choice_trial_5.png,images/choice_trial_15.png,images/pattern_5.png,f,f,750.0,5.0,15.0,4.0,0.0,29.0,1.0,1.0,5.0,170.0,,,,,,5e9f897c20320b000b1cc4cb,16:53:06,27/03/2024
html-keyboard-response,161,369310,0.0-67.0-1.0,,"<div style=""display: flex; flex-direction: column; align-items: center; margin-top: -40px;""><img src=""images/pattern_5.png"" style=""width: 234px; height: 230px; margin-top: -50px;""><div style=""display: flex; justify-content: space-between; margin-top: 33px;""><img src=""images/choice_trial_5.png"" style=""width: 408px; height: 417px; margin-right: 608px;""></div></div>",,delaylearn,learning,display_response,ffOl3UJLZFOJqE0LelmAL79nRfB3,ffOl3UJLZFOJqE0LelmAL79nRfB3,,,,,,,,,,,,,,,,,chosen stimuli: images/choice_trial_5.png,,,,,5e9f897c20320b000b1cc4cb,16:53:06,27/03/2024
html-keyboard-response,162,370071,0.0-67.0-2.0,,,,delaylearn,learning,feedback_duration_window,ffOl3UJLZFOJqE0LelmAL79nRfB3,ffOl3UJLZFOJqE0LelmAL79nRfB3,,,,,,,,,,,,,,,,,,750.0,,,,5e9f897c20320b000b1cc4cb,16:53:06,27/03/2024
html-keyboard-response,163,371573,0.0-67.0-3.0,,<div style='margin:auto;width: auto; font-size: 150%'><span style='font-weight: bold; font-size: 100px; color: green;'>+10 points!</span><br><br></div>,,delaylearn,learning,feedback_image_window,ffOl3UJLZFOJqE0LelmAL79nRfB3,ffOl3UJLZFOJqE0LelmAL79nRfB3,,,,,,,,,,,,,,,,,,,,,,5e9f897c20320b000b1cc4cb,16:53:06,27/03/2024
html-keyboard-response,164,373588,0.0-68.0,,"<div style=""font-size:100px;"">+</div>",,delaylearn,learning,ITI,ffOl3UJLZFOJqE0LelmAL79nRfB3,ffOl3UJLZFOJqE0LelmAL79nRfB3,,,,,,,,,,,,,,,,,,,2005.0,,,5e9f897c20320b000b1cc4cb,16:53:06,27/03/2024
html-keyboard-response,165,375665,0.0-69.0-0.0,2074.9000000000233,"<div style=""display: flex; flex-direction: column; align-items: center; margin-top: -40px;""><img src=""images/pattern_6.png"" style=""width: 234px; height: 230px; margin-top: -50px;""><div style=""display: flex; justify-content: space-between; margin-top: 33px;""><img src=""images/choice_trial_3.png"" style=""width: 408px; height: 417px; margin-right: 200px;""><img src=""images/choice_trial_10.png"" style=""width: 408px; height: 417px;""></div></div>",f,delaylearn,learning,trial,ffOl3UJLZFOJqE0LelmAL79nRfB3,ffOl3UJLZFOJqE0LelmAL79nRfB3,4.0,images/choice_trial_3.png,images/choice_trial_10.png,images/pattern_6.png,j,j,750.0,3.0,10.0,5.0,1.0,30.0,0.0,0.0,3.0,170.0,,,,,,5e9f897c20320b000b1cc4cb,16:53:06,27/03/2024
html-keyboard-response,166,376682,0.0-69.0-1.0,,"<div style=""display: flex; flex-direction: column; align-items: center; margin-top: -40px;""><img src=""images/pattern_6.png"" style=""width: 234px; height: 230px; margin-top: -50px;""><div style=""display: flex; justify-content: space-between; margin-top: 33px;""><img src=""images/choice_trial_3.png"" style=""width: 408px; height: 417px; margin-right: 608px;""></div></div>",,delaylearn,learning,display_response,ffOl3UJLZFOJqE0LelmAL79nRfB3,ffOl3UJLZFOJqE0LelmAL79nRfB3,,,,,,,,,,,,,,,,,chosen stimuli: images/choice_trial_3.png,,,,,5e9f897c20320b000b1cc4cb,16:53:06,27/03/2024
html-keyboard-response,167,377443,0.0-69.0-2.0,,,,delaylearn,learning,feedback_duration_window,ffOl3UJLZFOJqE0LelmAL79nRfB3,ffOl3UJLZFOJqE0LelmAL79nRfB3,,,,,,,,,,,,,,,,,,750.0,,,,5e9f897c20320b000b1cc4cb,16:53:06,27/03/2024
html-keyboard-response,168,378960,0.0-69.0-3.0,,<div style='margin:auto;width: auto; font-size: 150%'><span style='font-weight: bold; font-size: 100px; color: red;'>0 points!</span><br><br></div>,,delaylearn,learning,feedback_image_window,ffOl3UJLZFOJqE0LelmAL79nRfB3,ffOl3UJLZFOJqE0LelmAL79nRfB3,,,,,,,,,,,,,,,,,,,,,,5e9f897c20320b000b1cc4cb,16:53:06,27/03/2024
html-keyboard-response,169,379467,0.0-70.0-0.0,,,,,,mood_trial_fixation,ffOl3UJLZFOJqE0LelmAL79nRfB3,,,,,,,,,,,,,,,,,,,,,,,5e9f897c20320b000b1cc4cb,16:53:06,27/03/2024
lmdlab-html-vas-response,170,384675,0.0-70.0-1.0,4188.0,How happy are you right now?,0.7353635724214355,delaylearn,learning,mood_trial,ffOl3UJLZFOJqE0LelmAL79nRfB3,ffOl3UJLZFOJqE0LelmAL79nRfB3,,,,,,,,,,,,,,,,,,,,"['Very unhappy', 'Very happy']",,5e9f897c20320b000b1cc4cb,16:53:06,27/03/2024
html-keyboard-response,171,386599,0.0-71.0,,"<div style=""font-size:100px;"">+</div>",,delaylearn,learning,ITI,ffOl3UJLZFOJqE0LelmAL79nRfB3,ffOl3UJLZFOJqE0LelmAL79nRfB3,,,,,,,,,,,,,,,,,,,1915.0,,,5e9f897c20320b000b1cc4cb,16:53:06,27/03/2024
html-keyboard-response,172,388519,0.0-72.0-0.0,1918.8000000000466,"<div style=""display: flex; flex-direction: column; align-items: center; margin-top: -40px;""><img src=""images/pattern_4.png"" style=""width: 234px; height: 230px; margin-top: -50px;""><div style=""display: flex; justify-content: space-between; margin-top: 33px;""><img src=""images/choice_trial_7.png"" style=""width: 408px; height: 417px; margin-right: 200px;""><img src=""images/choice_trial_8.png"" style=""width: 408px; height: 417px;""></div></div>",f,delaylearn,learning,trial,ffOl3UJLZFOJqE0LelmAL79nRfB3,ffOl3UJLZFOJqE0LelmAL79nRfB3,4.0,images/choice_trial_7.png,images/choice_trial_8.png,images/pattern_4.png,j,j,7000.0,7.0,8.0,3.0,1.0,31.0,0.0,0.0,7.0,170.0,,,,,,5e9f897c20320b000b1cc4cb,16:53:06,27/03/2024
html-keyboard-response,173,389524,0.0-72.0-1.0,,"<div style=""display: flex; flex-direction: column; align-items: center; margin-top: -40px;""><img src=""images/pattern_4.png"" style=""width: 234px; height: 230px; margin-top: -50px;""><div style=""display: flex; justify-content: space-between; margin-top: 33px;""><img src=""images/choice_trial_7.png"" style=""width: 408px; height: 417px; margin-right: 608px;""></div></div>",,delaylearn,learning,display_response,ffOl3UJLZFOJqE0LelmAL79nRfB3,ffOl3UJLZFOJqE0LelmAL79nRfB3,,,,,,,,,,,,,,,,,chosen stimuli: images/choice_trial_7.png,,,,,5e9f897c20320b000b1cc4cb,16:53:06,27/03/2024
html-keyboard-response,174,396539,0.0-72.0-2.0,,,,delaylearn,learning,feedback_duration_window,ffOl3UJLZFOJqE0LelmAL79nRfB3,ffOl3UJLZFOJqE0LelmAL79nRfB3,,,,,,,,,,,,,,,,,,7000.0,,,,5e9f897c20320b000b1cc4cb,16:53:06,27/03/2024
html-keyboard-response,175,398041,0.0-72.0-3.0,,<div style='margin:auto;width: auto; font-size: 150%'><span style='font-weight: bold; font-size: 100px; color: red;'>0 points!</span><br><br></div>,,delaylearn,learning,feedback_image_window,ffOl3UJLZFOJqE0LelmAL79nRfB3,ffOl3UJLZFOJqE0LelmAL79nRfB3,,,,,,,,,,,,,,,,,,,,,,5e9f897c20320b000b1cc4cb,16:53:06,27/03/2024
html-keyboard-response,176,400437,0.0-73.0,,"<div style=""font-size:100px;"">+</div>",,delaylearn,learning,ITI,ffOl3UJLZFOJqE0LelmAL79nRfB3,ffOl3UJLZFOJqE0LelmAL79nRfB3,,,,,,,,,,,,,,,,,,,2381.0,,,5e9f897c20320b000b1cc4cb,16:53:06,27/03/2024
html-keyboard-response,177,402262,0.0-74.0-0.0,1820.9000000000233,"<div style=""display: flex; flex-direction: column; align-items: center; margin-top: -40px;""><img src=""images/pattern_3.png"" style=""width: 234px; height: 230px; margin-top: -50px;""><div style=""display: flex; justify-content: space-between; margin-top: 33px;""><img src=""images/choice_trial_6.png"" style=""width: 408px; height: 417px; margin-right: 200px;""><img src=""images/choice_trial_16.png"" style=""width: 408px; height: 417px;""></div></div>",j,delaylearn,learning,trial,ffOl3UJLZFOJqE0LelmAL79nRfB3,ffOl3UJLZFOJqE0LelmAL79nRfB3,4.0,images/choice_trial_6.png,images/choice_trial_16.png,images/pattern_3.png,j,j,7000.0,6.0,16.0,2.0,1.0,32.0,1.0,1.0,16.0,180.0,,,,,,5e9f897c20320b000b1cc4cb,16:53:06,27/03/2024
html-keyboard-response,178,403269,0.0-74.0-1.0,,"<div style=""display: flex; flex-direction: column; align-items: center; margin-top: -40px;""><img src=""images/pattern_3.png"" style=""width: 234px; height: 230px; margin-top: -50px;""><div style=""display: flex; justify-content: space-between; margin-top: 33px;""><img src=""images/choice_trial_16.png"" style=""width: 408px; height: 417px; margin-left:608px;""></div></div>",,delaylearn,learning,display_response,ffOl3UJLZFOJqE0LelmAL79nRfB3,ffOl3UJLZFOJqE0LelmAL79nRfB3,,,,,,,,,,,,,,,,,chosen stimuli: images/choice_trial_16.png,,,,,5e9f897c20320b000b1cc4cb,16:53:06,27/03/2024
html-keyboard-response,179,410273,0.0-74.0-2.0,,,,delaylearn,learning,feedback_duration_window,ffOl3UJLZFOJqE0LelmAL79nRfB3,ffOl3UJLZFOJqE0LelmAL79nRfB3,,,,,,,,,,,,,,,,,,7000.0,,,,5e9f897c20320b000b1cc4cb,16:53:06,27/03/2024
html-keyboard-response,180,411784,0.0-74.0-3.0,,<div style='margin:auto;width: auto; font-size: 150%'><span style='font-weight: bold; font-size: 100px; color: green;'>+10 points!</span><br><br></div>,,delaylearn,learning,feedback_image_window,ffOl3UJLZFOJqE0LelmAL79nRfB3,ffOl3UJLZFOJqE0LelmAL79nRfB3,,,,,,,,,,,,,,,,,,,,,,5e9f897c20320b000b1cc4cb,16:53:06,27/03/2024
html-keyboard-response,181,413792,0.0-75.0,,"<div style=""font-size:100px;"">+</div>",,delaylearn,learning,ITI,ffOl3UJLZFOJqE0LelmAL79nRfB3,ffOl3UJLZFOJqE0LelmAL79nRfB3,,,,,,,,,,,,,,,,,,,1998.0,,,5e9f897c20320b000b1cc4cb,16:53:06,27/03/2024
html-keyboard-response,182,416136,0.0-76.0-0.0,2340.9000000000233,"<div style=""display: flex; flex-direction: column; align-items: center; margin-top: -40px;""><img src=""images/pattern_5.png"" style=""width: 234px; height: 230px; margin-top: -50px;""><div style=""display: flex; justify-content: space-between; margin-top: 33px;""><img src=""images/choice_trial_5.png"" style=""width: 408px; height: 417px; margin-right: 200px;""><img src=""images/choice_trial_15.png"" style=""width: 408px; height: 417px;""></div></div>",j,delaylearn,learning,trial,ffOl3UJLZFOJqE0LelmAL79nRfB3,ffOl3UJLZFOJqE0LelmAL79nRfB3,4.0,images/choice_trial_5.png,images/choice_trial_15.png,images/pattern_5.png,j,f,750.0,5.0,15.0,4.0,0.0,33.0,0.0,1.0,15.0,190.0,,,,,,5e9f897c20320b000b1cc4cb,16:53:06,27/03/2024
html-keyboard-response,183,417141,0.0-76.0-1.0,,"<div style=""display: flex; flex-direction: column; align-items: center; margin-top: -40px;""><img src=""images/pattern_5.png"" style=""width: 234px; height: 230px; margin-top: -50px;""><div style=""display: flex; justify-content: space-between; margin-top: 33px;""><img src=""images/choice_trial_15.png"" style=""width: 408px; height: 417px; margin-left:608px;""></div></div>",,delaylearn,learning,display_response,ffOl3UJLZFOJqE0LelmAL79nRfB3,ffOl3UJLZFOJqE0LelmAL79nRfB3,,,,,,,,,,,,,,,,,chosen stimuli: images/choice_trial_15.png,,,,,5e9f897c20320b000b1cc4cb,16:53:06,27/03/2024
html-keyboard-response,184,417901,0.0-76.0-2.0,,,,delaylearn,learning,feedback_duration_window,ffOl3UJLZFOJqE0LelmAL79nRfB3,ffOl3UJLZFOJqE0LelmAL79nRfB3,,,,,,,,,,,,,,,,,,750.0,,,,5e9f897c20320b000b1cc4cb,16:53:06,27/03/2024
html-keyboard-response,185,419404,0.0-76.0-3.0,,<div style='margin:auto;width: auto; font-size: 150%'><span style='font-weight: bold; font-size: 100px; color: green;'>+10 points!</span><br><br></div>,,delaylearn,learning,feedback_image_window,ffOl3UJLZFOJqE0LelmAL79nRfB3,ffOl3UJLZFOJqE0LelmAL79nRfB3,,,,,,,,,,,,,,,,,,,,,,5e9f897c20320b000b1cc4cb,16:53:06,27/03/2024
html-keyboard-response,186,421247,0.0-77.0,,"<div style=""font-size:100px;"">+</div>",,delaylearn,learning,ITI,ffOl3UJLZFOJqE0LelmAL79nRfB3,ffOl3UJLZFOJqE0LelmAL79nRfB3,,,,,,,,,,,,,,,,,,,1838.0,,,5e9f897c20320b000b1cc4cb,16:53:06,27/03/2024
html-keyboard-response,187,423386,0.0-78.0-0.0,2137.399999999907,"<div style=""display: flex; flex-direction: column; align-items: center; margin-top: -40px;""><img src=""images/pattern_1.png"" style=""width: 234px; height: 230px; margin-top: -50px;""><div style=""display: flex; justify-content: space-between; margin-top: 33px;""><img src=""images/choice_trial_1.png"" style=""width: 408px; height: 417px; margin-right: 200px;""><img src=""images/choice_trial_9.png"" style=""width: 408px; height: 417px;""></div></div>",f,delaylearn,learning,trial,ffOl3UJLZFOJqE0LelmAL79nRfB3,ffOl3UJLZFOJqE0LelmAL79nRfB3,4.0,images/choice_trial_1.png,images/choice_trial_9.png,images/pattern_1.png,f,f,7000.0,1.0,9.0,1.0,0.0,34.0,1.0,1.0,1.0,200.0,,,,,,5e9f897c20320b000b1cc4cb,16:53:06,27/03/2024
html-keyboard-response,188,424394,0.0-78.0-1.0,,"<div style=""display: flex; flex-direction: column; align-items: center; margin-top: -40px;""><img src=""images/pattern_1.png"" style=""width: 234px; height: 230px; margin-top: -50px;""><div style=""display: flex; justify-content: space-between; margin-top: 33px;""><img src=""images/choice_trial_1.png"" style=""width: 408px; height: 417px; margin-right: 608px;""></div></div>",,delaylearn,learning,display_response,ffOl3UJLZFOJqE0LelmAL79nRfB3,ffOl3UJLZFOJqE0LelmAL79nRfB3,,,,,,,,,,,,,,,,,chosen stimuli: images/choice_trial_1.png,,,,,5e9f897c20320b000b1cc4cb,16:53:06,27/03/2024
html-keyboard-response,189,431396,0.0-78.0-2.0,,,,delaylearn,learning,feedback_duration_window,ffOl3UJLZFOJqE0LelmAL79nRfB3,ffOl3UJLZFOJqE0LelmAL79nRfB3,,,,,,,,,,,,,,,,,,7000.0,,,,5e9f897c20320b000b1cc4cb,16:53:06,27/03/2024
html-keyboard-response,190,432898,0.0-78.0-3.0,,<div style='margin:auto;width: auto; font-size: 150%'><span style='font-weight: bold; font-size: 100px; color: green;'>+10 points!</span><br><br></div>,,delaylearn,learning,feedback_image_window,ffOl3UJLZFOJqE0LelmAL79nRfB3,ffOl3UJLZFOJqE0LelmAL79nRfB3,,,,,,,,,,,,,,,,,,,,,,5e9f897c20320b000b1cc4cb,16:53:06,27/03/2024
html-keyboard-response,191,433401,0.0-79.0-0.0,,,,,,mood_trial_fixation,ffOl3UJLZFOJqE0LelmAL79nRfB3,,,,,,,,,,,,,,,,,,,,,,,5e9f897c20320b000b1cc4cb,16:53:06,27/03/2024
lmdlab-html-vas-response,192,437513,0.0-79.0-1.0,3103.0,How happy are you right now?,0.7295765356569391,delaylearn,learning,mood_trial,ffOl3UJLZFOJqE0LelmAL79nRfB3,ffOl3UJLZFOJqE0LelmAL79nRfB3,,,,,,,,,,,,,,,,,,,,"['Very unhappy', 'Very happy']",,5e9f897c20320b000b1cc4cb,16:53:06,27/03/2024
html-keyboard-response,193,439276,0.0-80.0,,"<div style=""font-size:100px;"">+</div>",,delaylearn,learning,ITI,ffOl3UJLZFOJqE0LelmAL79nRfB3,ffOl3UJLZFOJqE0LelmAL79nRfB3,,,,,,,,,,,,,,,,,,,1748.0,,,5e9f897c20320b000b1cc4cb,16:53:06,27/03/2024
html-keyboard-response,194,440904,0.0-81.0-0.0,1625.2999999999302,"<div style=""display: flex; flex-direction: column; align-items: center; margin-top: -40px;""><img src=""images/pattern_6.png"" style=""width: 234px; height: 230px; margin-top: -50px;""><div style=""display: flex; justify-content: space-between; margin-top: 33px;""><img src=""images/choice_trial_10.png"" style=""width: 408px; height: 417px; margin-right: 200px;""><img src=""images/choice_trial_3.png"" style=""width: 408px; height: 417px;""></div></div>",j,delaylearn,learning,trial,ffOl3UJLZFOJqE0LelmAL79nRfB3,ffOl3UJLZFOJqE0LelmAL79nRfB3,4.0,images/choice_trial_10.png,images/choice_trial_3.png,images/pattern_6.png,j,f,750.0,10.0,3.0,5.0,0.0,35.0,0.0,1.0,3.0,210.0,,,,,,5e9f897c20320b000b1cc4cb,16:53:06,27/03/2024
html-keyboard-response,195,441914,0.0-81.0-1.0,,"<div style=""display: flex; flex-direction: column; align-items: center; margin-top: -40px;""><img src=""images/pattern_6.png"" style=""width: 234px; height: 230px; margin-top: -50px;""><div style=""display: flex; justify-content: space-between; margin-top: 33px;""><img src=""images/choice_trial_3.png"" style=""width: 408px; height: 417px; margin-left:608px;""></div></div>",,delaylearn,learning,display_response,ffOl3UJLZFOJqE0LelmAL79nRfB3,ffOl3UJLZFOJqE0LelmAL79nRfB3,,,,,,,,,,,,,,,,,chosen stimuli: images/choice_trial_3.png,,,,,5e9f897c20320b000b1cc4cb,16:53:06,27/03/2024
html-keyboard-response,196,442680,0.0-81.0-2.0,,,,delaylearn,learning,feedback_duration_window,ffOl3UJLZFOJqE0LelmAL79nRfB3,ffOl3UJLZFOJqE0LelmAL79nRfB3,,,,,,,,,,,,,,,,,,750.0,,,,5e9f897c20320b000b1cc4cb,16:53:06,27/03/2024
html-keyboard-response,197,444194,0.0-81.0-3.0,,<div style='margin:auto;width: auto; font-size: 150%'><span style='font-weight: bold; font-size: 100px; color: green;'>+10 points!</span><br><br></div>,,delaylearn,learning,feedback_image_window,ffOl3UJLZFOJqE0LelmAL79nRfB3,ffOl3UJLZFOJqE0LelmAL79nRfB3,,,,,,,,,,,,,,,,,,,,,,5e9f897c20320b000b1cc4cb,16:53:06,27/03/2024
html-keyboard-response,198,446233,0.0-82.0,,"<div style=""font-size:100px;"">+</div>",,delaylearn,learning,ITI,ffOl3UJLZFOJqE0LelmAL79nRfB3,ffOl3UJLZFOJqE0LelmAL79nRfB3,,,,,,,,,,,,,,,,,,,2024.0,,,5e9f897c20320b000b1cc4cb,16:53:06,27/03/2024
html-keyboard-response,199,447679,0.0-83.0-0.0,1443.4000000000233,"<div style=""display: flex; flex-direction: column; align-items: center; margin-top: -40px;""><img src=""images/pattern_3.png"" style=""width: 234px; height: 230px; margin-top: -50px;""><div style=""display: flex; justify-content: space-between; margin-top: 33px;""><img src=""images/choice_trial_6.png"" style=""width: 408px; height: 417px; margin-right: 200px;""><img src=""images/choice_trial_16.png"" style=""width: 408px; height: 417px;""></div></div>",j,delaylearn,learning,trial,ffOl3UJLZFOJqE0LelmAL79nRfB3,ffOl3UJLZFOJqE0LelmAL79nRfB3,4.0,images/choice_trial_6.png,images/choice_trial_16.png,images/pattern_3.png,j,j,7000.0,6.0,16.0,2.0,1.0,36.0,1.0,1.0,16.0,220.0,,,,,,5e9f897c20320b000b1cc4cb,16:53:06,27/03/2024
html-keyboard-response,200,448683,0.0-83.0-1.0,,"<div style=""display: flex; flex-direction: column; align-items: center; margin-top: -40px;""><img src=""images/pattern_3.png"" style=""width: 234px; height: 230px; margin-top: -50px;""><div style=""display: flex; justify-content: space-between; margin-top: 33px;""><img src=""images/choice_trial_16.png"" style=""width: 408px; height: 417px; margin-left:608px;""></div></div>",,delaylearn,learning,display_response,ffOl3UJLZFOJqE0LelmAL79nRfB3,ffOl3UJLZFOJqE0LelmAL79nRfB3,,,,,,,,,,,,,,,,,chosen stimuli: images/choice_trial_16.png,,,,,5e9f897c20320b000b1cc4cb,16:53:06,27/03/2024
html-keyboard-response,201,455687,0.0-83.0-2.0,,,,delaylearn,learning,feedback_duration_window,ffOl3UJLZFOJqE0LelmAL79nRfB3,ffOl3UJLZFOJqE0LelmAL79nRfB3,,,,,,,,,,,,,,,,,,7000.0,,,,5e9f897c20320b000b1cc4cb,16:53:06,27/03/2024
html-keyboard-response,202,457198,0.0-83.0-3.0,,<div style='margin:auto;width: auto; font-size: 150%'><span style='font-weight: bold; font-size: 100px; color: green;'>+10 points!</span><br><br></div>,,delaylearn,learning,feedback_image_window,ffOl3UJLZFOJqE0LelmAL79nRfB3,ffOl3UJLZFOJqE0LelmAL79nRfB3,,,,,,,,,,,,,,,,,,,,,,5e9f897c20320b000b1cc4cb,16:53:06,27/03/2024
html-keyboard-response,203,458862,0.0-84.0,,"<div style=""font-size:100px;"">+</div>",,delaylearn,learning,ITI,ffOl3UJLZFOJqE0LelmAL79nRfB3,ffOl3UJLZFOJqE0LelmAL79nRfB3,,,,,,,,,,,,,,,,,,,1655.0,,,5e9f897c20320b000b1cc4cb,16:53:06,27/03/2024
html-keyboard-response,204,461301,0.0-85.0-0.0,2437.3000000000466,"<div style=""display: flex; flex-direction: column; align-items: center; margin-top: -40px;""><img src=""images/pattern_4.png"" style=""width: 234px; height: 230px; margin-top: -50px;""><div style=""display: flex; justify-content: space-between; margin-top: 33px;""><img src=""images/choice_trial_7.png"" style=""width: 408px; height: 417px; margin-right: 200px;""><img src=""images/choice_trial_8.png"" style=""width: 408px; height: 417px;""></div></div>",f,delaylearn,learning,trial,ffOl3UJLZFOJqE0LelmAL79nRfB3,ffOl3UJLZFOJqE0LelmAL79nRfB3,4.0,images/choice_trial_7.png,images/choice_trial_8.png,images/pattern_4.png,f,j,7000.0,7.0,8.0,3.0,1.0,37.0,0.0,1.0,7.0,230.0,,,,,,5e9f897c20320b000b1cc4cb,16:53:06,27/03/2024
html-keyboard-response,205,462317,0.0-85.0-1.0,,"<div style=""display: flex; flex-direction: column; align-items: center; margin-top: -40px;""><img src=""images/pattern_4.png"" style=""width: 234px; height: 230px; margin-top: -50px;""><div style=""display: flex; justify-content: space-between; margin-top: 33px;""><img src=""images/choice_trial_7.png"" style=""width: 408px; height: 417px; margin-right: 608px;""></div></div>",,delaylearn,learning,display_response,ffOl3UJLZFOJqE0LelmAL79nRfB3,ffOl3UJLZFOJqE0LelmAL79nRfB3,,,,,,,,,,,,,,,,,chosen stimuli: images/choice_trial_7.png,,,,,5e9f897c20320b000b1cc4cb,16:53:06,27/03/2024
html-keyboard-response,206,469325,0.0-85.0-2.0,,,,delaylearn,learning,feedback_duration_window,ffOl3UJLZFOJqE0LelmAL79nRfB3,ffOl3UJLZFOJqE0LelmAL79nRfB3,,,,,,,,,,,,,,,,,,7000.0,,,,5e9f897c20320b000b1cc4cb,16:53:06,27/03/2024
html-keyboard-response,207,470845,0.0-85.0-3.0,,<div style='margin:auto;width: auto; font-size: 150%'><span style='font-weight: bold; font-size: 100px; color: green;'>+10 points!</span><br><br></div>,,delaylearn,learning,feedback_image_window,ffOl3UJLZFOJqE0LelmAL79nRfB3,ffOl3UJLZFOJqE0LelmAL79nRfB3,,,,,,,,,,,,,,,,,,,,,,5e9f897c20320b000b1cc4cb,16:53:06,27/03/2024
html-keyboard-response,208,472902,0.0-86.0,,"<div style=""font-size:100px;"">+</div>",,delaylearn,learning,ITI,ffOl3UJLZFOJqE0LelmAL79nRfB3,ffOl3UJLZFOJqE0LelmAL79nRfB3,,,,,,,,,,,,,,,,,,,2053.0,,,5e9f897c20320b000b1cc4cb,16:53:06,27/03/2024
html-keyboard-response,209,474612,0.0-87.0-0.0,1708.3000000000466,"<div style=""display: flex; flex-direction: column; align-items: center; margin-top: -40px;""><img src=""images/pattern_7.png"" style=""width: 234px; height: 230px; margin-top: -50px;""><div style=""display: flex; justify-content: space-between; margin-top: 33px;""><img src=""images/choice_trial_13.png"" style=""width: 408px; height: 417px; margin-right: 200px;""><img src=""images/choice_trial_4.png"" style=""width: 408px; height: 417px;""></div></div>",f,delaylearn,learning,trial,ffOl3UJLZFOJqE0LelmAL79nRfB3,ffOl3UJLZFOJqE0LelmAL79nRfB3,4.0,images/choice_trial_13.png,images/choice_trial_4.png,images/pattern_7.png,f,f,750.0,13.0,4.0,6.0,0.0,38.0,1.0,1.0,13.0,240.0,,,,,,5e9f897c20320b000b1cc4cb,16:53:06,27/03/2024
html-keyboard-response,210,475626,0.0-87.0-1.0,,"<div style=""display: flex; flex-direction: column; align-items: center; margin-top: -40px;""><img src=""images/pattern_7.png"" style=""width: 234px; height: 230px; margin-top: -50px;""><div style=""display: flex; justify-content: space-between; margin-top: 33px;""><img src=""images/choice_trial_13.png"" style=""width: 408px; height: 417px; margin-right: 608px;""></div></div>",,delaylearn,learning,display_response,ffOl3UJLZFOJqE0LelmAL79nRfB3,ffOl3UJLZFOJqE0LelmAL79nRfB3,,,,,,,,,,,,,,,,,chosen stimuli: images/choice_trial_13.png,,,,,5e9f897c20320b000b1cc4cb,16:53:06,27/03/2024
html-keyboard-response,211,476386,0.0-87.0-2.0,,,,delaylearn,learning,feedback_duration_window,ffOl3UJLZFOJqE0LelmAL79nRfB3,ffOl3UJLZFOJqE0LelmAL79nRfB3,,,,,,,,,,,,,,,,,,750.0,,,,5e9f897c20320b000b1cc4cb,16:53:06,27/03/2024
html-keyboard-response,212,477898,0.0-87.0-3.0,,<div style='margin:auto;width: auto; font-size: 150%'><span style='font-weight: bold; font-size: 100px; color: green;'>+10 points!</span><br><br></div>,,delaylearn,learning,feedback_image_window,ffOl3UJLZFOJqE0LelmAL79nRfB3,ffOl3UJLZFOJqE0LelmAL79nRfB3,,,,,,,,,,,,,,,,,,,,,,5e9f897c20320b000b1cc4cb,16:53:06,27/03/2024
html-keyboard-response,213,479995,0.0-88.0,,"<div style=""font-size:100px;"">+</div>",,delaylearn,learning,ITI,ffOl3UJLZFOJqE0LelmAL79nRfB3,ffOl3UJLZFOJqE0LelmAL79nRfB3,,,,,,,,,,,,,,,,,,,2087.0,,,5e9f897c20320b000b1cc4cb,16:53:06,27/03/2024
html-keyboard-response,214,481654,0.0-89.0-0.0,1656.8000000000466,"<div style=""display: flex; flex-direction: column; align-items: center; margin-top: -40px;""><img src=""images/pattern_1.png"" style=""width: 234px; height: 230px; margin-top: -50px;""><div style=""display: flex; justify-content: space-between; margin-top: 33px;""><img src=""images/choice_trial_1.png"" style=""width: 408px; height: 417px; margin-right: 200px;""><img src=""images/choice_trial_9.png"" style=""width: 408px; height: 417px;""></div></div>",f,delaylearn,learning,trial,ffOl3UJLZFOJqE0LelmAL79nRfB3,ffOl3UJLZFOJqE0LelmAL79nRfB3,4.0,images/choice_trial_1.png,images/choice_trial_9.png,images/pattern_1.png,f,f,7000.0,1.0,9.0,1.0,0.0,39.0,1.0,1.0,1.0,250.0,,,,,,5e9f897c20320b000b1cc4cb,16:53:06,27/03/2024
html-keyboard-response,215,482664,0.0-89.0-1.0,,"<div style=""display: flex; flex-direction: column; align-items: center; margin-top: -40px;""><img src=""images/pattern_1.png"" style=""width: 234px; height: 230px; margin-top: -50px;""><div style=""display: flex; justify-content: space-between; margin-top: 33px;""><img src=""images/choice_trial_1.png"" style=""width: 408px; height: 417px; margin-right: 608px;""></div></div>",,delaylearn,learning,display_response,ffOl3UJLZFOJqE0LelmAL79nRfB3,ffOl3UJLZFOJqE0LelmAL79nRfB3,,,,,,,,,,,,,,,,,chosen stimuli: images/choice_trial_1.png,,,,,5e9f897c20320b000b1cc4cb,16:53:06,27/03/2024
html-keyboard-response,216,489668,0.0-89.0-2.0,,,,delaylearn,learning,feedback_duration_window,ffOl3UJLZFOJqE0LelmAL79nRfB3,ffOl3UJLZFOJqE0LelmAL79nRfB3,,,,,,,,,,,,,,,,,,7000.0,,,,5e9f897c20320b000b1cc4cb,16:53:06,27/03/2024
html-keyboard-response,217,491180,0.0-89.0-3.0,,<div style='margin:auto;width: auto; font-size: 150%'><span style='font-weight: bold; font-size: 100px; color: green;'>+10 points!</span><br><br></div>,,delaylearn,learning,feedback_image_window,ffOl3UJLZFOJqE0LelmAL79nRfB3,ffOl3UJLZFOJqE0LelmAL79nRfB3,,,,,,,,,,,,,,,,,,,,,,5e9f897c20320b000b1cc4cb,16:53:06,27/03/2024
html-keyboard-response,218,491691,0.0-90.0-0.0,,,,,,mood_trial_fixation,ffOl3UJLZFOJqE0LelmAL79nRfB3,,,,,,,,,,,,,,,,,,,,,,,5e9f897c20320b000b1cc4cb,16:53:06,27/03/2024
lmdlab-html-vas-response,219,496517,0.0-90.0-1.0,3798.0,How happy are you right now?,0.7874469033019029,delaylearn,learning,mood_trial,ffOl3UJLZFOJqE0LelmAL79nRfB3,ffOl3UJLZFOJqE0LelmAL79nRfB3,,,,,,,,,,,,,,,,,,,,"['Very unhappy', 'Very happy']",,5e9f897c20320b000b1cc4cb,16:53:06,27/03/2024
html-keyboard-response,220,499004,0.0-91.0,,"<div style=""font-size:100px;"">+</div>",,delaylearn,learning,ITI,ffOl3UJLZFOJqE0LelmAL79nRfB3,ffOl3UJLZFOJqE0LelmAL79nRfB3,,,,,,,,,,,,,,,,,,,2483.0,,,5e9f897c20320b000b1cc4cb,16:53:06,27/03/2024
html-keyboard-response,221,500291,0.0-92.0-0.0,1179.6999999999534,"<div style=""display: flex; flex-direction: column; align-items: center; margin-top: -40px;""><img src=""images/pattern_3.png"" style=""width: 234px; height: 230px; margin-top: -50px;""><div style=""display: flex; justify-content: space-between; margin-top: 33px;""><img src=""images/choice_trial_16.png"" style=""width: 408px; height: 417px; margin-right: 200px;""><img src=""images/choice_trial_6.png"" style=""width: 408px; height: 417px;""></div></div>",f,delaylearn,learning,trial,ffOl3UJLZFOJqE0LelmAL79nRfB3,ffOl3UJLZFOJqE0LelmAL79nRfB3,4.0,images/choice_trial_16.png,images/choice_trial_6.png,images/pattern_3.png,j,f,7000.0,16.0,6.0,2.0,0.0,40.0,1.0,0.0,16.0,250.0,,,,,,5e9f897c20320b000b1cc4cb,16:53:06,27/03/2024
html-keyboard-response,222,501302,0.0-92.0-1.0,,"<div style=""display: flex; flex-direction: column; align-items: center; margin-top: -40px;""><img src=""images/pattern_3.png"" style=""width: 234px; height: 230px; margin-top: -50px;""><div style=""display: flex; justify-content: space-between; margin-top: 33px;""><img src=""images/choice_trial_16.png"" style=""width: 408px; height: 417px; margin-right: 608px;""></div></div>",,delaylearn,learning,display_response,ffOl3UJLZFOJqE0LelmAL79nRfB3,ffOl3UJLZFOJqE0LelmAL79nRfB3,,,,,,,,,,,,,,,,,chosen stimuli: images/choice_trial_16.png,,,,,5e9f897c20320b000b1cc4cb,16:53:06,27/03/2024
html-keyboard-response,223,508316,0.0-92.0-2.0,,,,delaylearn,learning,feedback_duration_window,ffOl3UJLZFOJqE0LelmAL79nRfB3,ffOl3UJLZFOJqE0LelmAL79nRfB3,,,,,,,,,,,,,,,,,,7000.0,,,,5e9f897c20320b000b1cc4cb,16:53:06,27/03/2024
html-keyboard-response,224,509826,0.0-92.0-3.0,,<div style='margin:auto;width: auto; font-size: 150%'><span style='font-weight: bold; font-size: 100px; color: red;'>0 points!</span><br><br></div>,,delaylearn,learning,feedback_image_window,ffOl3UJLZFOJqE0LelmAL79nRfB3,ffOl3UJLZFOJqE0LelmAL79nRfB3,,,,,,,,,,,,,,,,,,,,,,5e9f897c20320b000b1cc4cb,16:53:06,27/03/2024
html-keyboard-response,225,511435,0.0-93.0,,"<div style=""font-size:100px;"">+</div>",,delaylearn,learning,ITI,ffOl3UJLZFOJqE0LelmAL79nRfB3,ffOl3UJLZFOJqE0LelmAL79nRfB3,,,,,,,,,,,,,,,,,,,1603.0,,,5e9f897c20320b000b1cc4cb,16:53:06,27/03/2024
html-keyboard-response,226,513169,0.0-94.0-0.0,1731.1000000000931,"<div style=""display: flex; flex-direction: column; align-items: center; margin-top: -40px;""><img src=""images/pattern_7.png"" style=""width: 234px; height: 230px; margin-top: -50px;""><div style=""display: flex; justify-content: space-between; margin-top: 33px;""><img src=""images/choice_trial_4.png"" style=""width: 408px; height: 417px; margin-right: 200px;""><img src=""images/choice_trial_13.png"" style=""width: 408px; height: 417px;""></div></div>",j,delaylearn,learning,trial,ffOl3UJLZFOJqE0LelmAL79nRfB3,ffOl3UJLZFOJqE0LelmAL79nRfB3,4.0,images/choice_trial_4.png,images/choice_trial_13.png,images/pattern_7.png,j,j,750.0,4.0,13.0,6.0,1.0,41.0,1.0,1.0,13.0,260.0,,,,,,5e9f897c20320b000b1cc4cb,16:53:06,27/03/2024
html-keyboard-response,227,514177,0.0-94.0-1.0,,"<div style=""display: flex; flex-direction: column; align-items: center; margin-top: -40px;""><img src=""images/pattern_7.png"" style=""width: 234px; height: 230px; margin-top: -50px;""><div style=""display: flex; justify-content: space-between; margin-top: 33px;""><img src=""images/choice_trial_13.png"" style=""width: 408px; height: 417px; margin-left:608px;""></div></div>",,delaylearn,learning,display_response,ffOl3UJLZFOJqE0LelmAL79nRfB3,ffOl3UJLZFOJqE0LelmAL79nRfB3,,,,,,,,,,,,,,,,,chosen stimuli: images/choice_trial_13.png,,,,,5e9f897c20320b000b1cc4cb,16:53:06,27/03/2024
html-keyboard-response,228,514938,0.0-94.0-2.0,,,,delaylearn,learning,feedback_duration_window,ffOl3UJLZFOJqE0LelmAL79nRfB3,ffOl3UJLZFOJqE0LelmAL79nRfB3,,,,,,,,,,,,,,,,,,750.0,,,,5e9f897c20320b000b1cc4cb,16:53:06,27/03/2024
html-keyboard-response,229,516442,0.0-94.0-3.0,,<div style='margin:auto;width: auto; font-size: 150%'><span style='font-weight: bold; font-size: 100px; color: green;'>+10 points!</span><br><br></div>,,delaylearn,learning,feedback_image_window,ffOl3UJLZFOJqE0LelmAL79nRfB3,ffOl3UJLZFOJqE0LelmAL79nRfB3,,,,,,,,,,,,,,,,,,,,,,5e9f897c20320b000b1cc4cb,16:53:06,27/03/2024
html-keyboard-response,230,518915,0.0-95.0,,"<div style=""font-size:100px;"">+</div>",,delaylearn,learning,ITI,ffOl3UJLZFOJqE0LelmAL79nRfB3,ffOl3UJLZFOJqE0LelmAL79nRfB3,,,,,,,,,,,,,,,,,,,2460.0,,,5e9f897c20320b000b1cc4cb,16:53:06,27/03/2024
