trial_type,trial_index,time_elapsed,internal_node_id,rt,stimulus,response,exp_name,exp_stage,test_part,subjectID,databaseID,counterbal,choice_stimuli_1,choice_stimuli_2,pattern_stimuli,rewarded_answer,correct_answer,feedback_duration_times,stim_left,stim_right,pair,leftright_counter,trial,response_correct,response_rewarded,chosen_stim,counter,displayed_choice,feedback_durations,ITI_duration,labels,rest_warning,prolificID,start_time,date
pavlovia,0,1284,0.0-0.0,,,,,,,IJ6C5IDrq0gBFRSUqRNXYAhVdaa2,,,,,,,,,,,,,,,,,,,,,,,65cfd63f31c934ef41d14881,10:05:55,27/02/2024
html-keyboard-response,1,4287,0.0-1.0,,"<div style=""font-size:100px;"">+</div>",,delaylearn,learning,pre_fixation,IJ6C5IDrq0gBFRSUqRNXYAhVdaa2,,,,,,,,,,,,,,,,,,,,,,,65cfd63f31c934ef41d14881,10:05:55,27/02/2024
html-keyboard-response,2,6271,0.0-2.0-0.0,1981.0,"<div style=""display: flex; flex-direction: column; align-items: center; margin-top: -40px;""><img src=""images/demo_images/pattern_1.png"" style=""width: 234px; height: 230px; margin-top: -50px;""><div style=""display: flex; justify-content: space-between; margin-top: 33px;""><img src=""images/demo_images/choice_trial_2.png"" style=""width: 408px; height: 417px; margin-right: 200px;""><img src=""images/demo_images/choice_trial_1.png"" style=""width: 408px; height: 417px;""></div></div>",j,delaylearn,learning,trial,IJ6C5IDrq0gBFRSUqRNXYAhVdaa2,IJ6C5IDrq0gBFRSUqRNXYAhVdaa2,5.0,images/demo_images/choice_trial_2.png,images/demo_images/choice_trial_1.png,images/demo_images/pattern_1.png,j,j,3000.0,2.0,1.0,20.0,1.0,1.0,1.0,1.0,1.0,10.0,,,,,,65cfd63f31c934ef41d14881,10:05:55,27/02/2024
html-keyboard-response,3,7287,0.0-2.0-1.0,,"<div style=""display: flex; flex-direction: column; align-items: center; margin-top: -40px;""><img src=""images/demo_images/pattern_1.png"" style=""width: 234px; height: 230px; margin-top: -50px;""><div style=""display: flex; justify-content: space-between; margin-top: 33px;""><img src=""images/demo_images/choice_trial_1.png"" style=""width: 408px; height: 417px; margin-left:608px;""></div></div>",,delaylearn,learning,display_response,IJ6C5IDrq0gBFRSUqRNXYAhVdaa2,IJ6C5IDrq0gBFRSUqRNXYAhVdaa2,,,,,,,,,,,,,,,,,chosen stimuli: images/demo_images/choice_trial_1.png,,,,,65cfd63f31c934ef41d14881,10:05:55,27/02/2024
html-keyboard-response,4,10301,0.0-2.0-2.0,,,,delaylearn,learning,feedback_duration_window,IJ6C5IDrq0gBFRSUqRNXYAhVdaa2,IJ6C5IDrq0gBFRSUqRNXYAhVdaa2,,,,,,,,,,,,,,,,,,3000.0,,,,65cfd63f31c934ef41d14881,10:05:55,27/02/2024
html-keyboard-response,5,11808,0.0-2.0-3.0,,<div style='margin:auto;width: auto; font-size: 150%'><span style='font-weight: bold; font-size: 100px; color: green;'>+10 points!</span><br><br></div>,,delaylearn,learning,feedback_image_window,IJ6C5IDrq0gBFRSUqRNXYAhVdaa2,IJ6C5IDrq0gBFRSUqRNXYAhVdaa2,,,,,,,,,,,,,,,,,,,,,,65cfd63f31c934ef41d14881,10:05:55,27/02/2024
html-keyboard-response,6,13628,0.0-3.0,,"<div style=""font-size:100px;"">+</div>",,delaylearn,learning,ITI,IJ6C5IDrq0gBFRSUqRNXYAhVdaa2,IJ6C5IDrq0gBFRSUqRNXYAhVdaa2,,,,,,,,,,,,,,,,,,,1808.0,,,65cfd63f31c934ef41d14881,10:05:55,27/02/2024
html-keyboard-response,7,14139,0.0-4.0-0.0,507.0,"<div style=""display: flex; flex-direction: column; align-items: center; margin-top: -40px;""><img src=""images/demo_images/pattern_1.png"" style=""width: 234px; height: 230px; margin-top: -50px;""><div style=""display: flex; justify-content: space-between; margin-top: 33px;""><img src=""images/demo_images/choice_trial_2.png"" style=""width: 408px; height: 417px; margin-right: 200px;""><img src=""images/demo_images/choice_trial_1.png"" style=""width: 408px; height: 417px;""></div></div>",j,delaylearn,learning,trial,IJ6C5IDrq0gBFRSUqRNXYAhVdaa2,IJ6C5IDrq0gBFRSUqRNXYAhVdaa2,5.0,images/demo_images/choice_trial_2.png,images/demo_images/choice_trial_1.png,images/demo_images/pattern_1.png,j,j,3000.0,2.0,1.0,20.0,1.0,2.0,1.0,1.0,1.0,20.0,,,,,,65cfd63f31c934ef41d14881,10:05:55,27/02/2024
html-keyboard-response,8,15146,0.0-4.0-1.0,,"<div style=""display: flex; flex-direction: column; align-items: center; margin-top: -40px;""><img src=""images/demo_images/pattern_1.png"" style=""width: 234px; height: 230px; margin-top: -50px;""><div style=""display: flex; justify-content: space-between; margin-top: 33px;""><img src=""images/demo_images/choice_trial_1.png"" style=""width: 408px; height: 417px; margin-left:608px;""></div></div>",,delaylearn,learning,display_response,IJ6C5IDrq0gBFRSUqRNXYAhVdaa2,IJ6C5IDrq0gBFRSUqRNXYAhVdaa2,,,,,,,,,,,,,,,,,chosen stimuli: images/demo_images/choice_trial_1.png,,,,,65cfd63f31c934ef41d14881,10:05:55,27/02/2024
html-keyboard-response,9,18149,0.0-4.0-2.0,,,,delaylearn,learning,feedback_duration_window,IJ6C5IDrq0gBFRSUqRNXYAhVdaa2,IJ6C5IDrq0gBFRSUqRNXYAhVdaa2,,,,,,,,,,,,,,,,,,3000.0,,,,65cfd63f31c934ef41d14881,10:05:55,27/02/2024
html-keyboard-response,10,19660,0.0-4.0-3.0,,<div style='margin:auto;width: auto; font-size: 150%'><span style='font-weight: bold; font-size: 100px; color: green;'>+10 points!</span><br><br></div>,,delaylearn,learning,feedback_image_window,IJ6C5IDrq0gBFRSUqRNXYAhVdaa2,IJ6C5IDrq0gBFRSUqRNXYAhVdaa2,,,,,,,,,,,,,,,,,,,,,,65cfd63f31c934ef41d14881,10:05:55,27/02/2024
html-keyboard-response,11,22067,0.0-5.0,,"<div style=""font-size:100px;"">+</div>",,delaylearn,learning,ITI,IJ6C5IDrq0gBFRSUqRNXYAhVdaa2,IJ6C5IDrq0gBFRSUqRNXYAhVdaa2,,,,,,,,,,,,,,,,,,,2392.0,,,65cfd63f31c934ef41d14881,10:05:55,27/02/2024
html-keyboard-response,12,22760,0.0-6.0-0.0,690.3999999761581,"<div style=""display: flex; flex-direction: column; align-items: center; margin-top: -40px;""><img src=""images/demo_images/pattern_1.png"" style=""width: 234px; height: 230px; margin-top: -50px;""><div style=""display: flex; justify-content: space-between; margin-top: 33px;""><img src=""images/demo_images/choice_trial_1.png"" style=""width: 408px; height: 417px; margin-right: 200px;""><img src=""images/demo_images/choice_trial_2.png"" style=""width: 408px; height: 417px;""></div></div>",f,delaylearn,learning,trial,IJ6C5IDrq0gBFRSUqRNXYAhVdaa2,IJ6C5IDrq0gBFRSUqRNXYAhVdaa2,5.0,images/demo_images/choice_trial_1.png,images/demo_images/choice_trial_2.png,images/demo_images/pattern_1.png,j,f,3000.0,1.0,2.0,20.0,0.0,3.0,1.0,0.0,1.0,20.0,,,,,,65cfd63f31c934ef41d14881,10:05:55,27/02/2024
html-keyboard-response,13,23771,0.0-6.0-1.0,,"<div style=""display: flex; flex-direction: column; align-items: center; margin-top: -40px;""><img src=""images/demo_images/pattern_1.png"" style=""width: 234px; height: 230px; margin-top: -50px;""><div style=""display: flex; justify-content: space-between; margin-top: 33px;""><img src=""images/demo_images/choice_trial_1.png"" style=""width: 408px; height: 417px; margin-right: 608px;""></div></div>",,delaylearn,learning,display_response,IJ6C5IDrq0gBFRSUqRNXYAhVdaa2,IJ6C5IDrq0gBFRSUqRNXYAhVdaa2,,,,,,,,,,,,,,,,,chosen stimuli: images/demo_images/choice_trial_1.png,,,,,65cfd63f31c934ef41d14881,10:05:55,27/02/2024
html-keyboard-response,14,26788,0.0-6.0-2.0,,,,delaylearn,learning,feedback_duration_window,IJ6C5IDrq0gBFRSUqRNXYAhVdaa2,IJ6C5IDrq0gBFRSUqRNXYAhVdaa2,,,,,,,,,,,,,,,,,,3000.0,,,,65cfd63f31c934ef41d14881,10:05:55,27/02/2024
html-keyboard-response,15,28290,0.0-6.0-3.0,,<div style='margin:auto;width: auto; font-size: 150%'><span style='font-weight: bold; font-size: 100px; color: red;'>0 points!</span><br><br></div>,,delaylearn,learning,feedback_image_window,IJ6C5IDrq0gBFRSUqRNXYAhVdaa2,IJ6C5IDrq0gBFRSUqRNXYAhVdaa2,,,,,,,,,,,,,,,,,,,,,,65cfd63f31c934ef41d14881,10:05:55,27/02/2024
html-keyboard-response,16,30091,0.0-7.0,,"<div style=""font-size:100px;"">+</div>",,delaylearn,learning,ITI,IJ6C5IDrq0gBFRSUqRNXYAhVdaa2,IJ6C5IDrq0gBFRSUqRNXYAhVdaa2,,,,,,,,,,,,,,,,,,,1796.0,,,65cfd63f31c934ef41d14881,10:05:55,27/02/2024
html-keyboard-response,17,30803,0.0-8.0-0.0,708.9000000357628,"<div style=""display: flex; flex-direction: column; align-items: center; margin-top: -40px;""><img src=""images/demo_images/pattern_1.png"" style=""width: 234px; height: 230px; margin-top: -50px;""><div style=""display: flex; justify-content: space-between; margin-top: 33px;""><img src=""images/demo_images/choice_trial_1.png"" style=""width: 408px; height: 417px; margin-right: 200px;""><img src=""images/demo_images/choice_trial_2.png"" style=""width: 408px; height: 417px;""></div></div>",f,delaylearn,learning,trial,IJ6C5IDrq0gBFRSUqRNXYAhVdaa2,IJ6C5IDrq0gBFRSUqRNXYAhVdaa2,5.0,images/demo_images/choice_trial_1.png,images/demo_images/choice_trial_2.png,images/demo_images/pattern_1.png,f,f,3000.0,1.0,2.0,20.0,0.0,4.0,1.0,1.0,1.0,30.0,,,,,,65cfd63f31c934ef41d14881,10:05:55,27/02/2024
html-keyboard-response,18,31817,0.0-8.0-1.0,,"<div style=""display: flex; flex-direction: column; align-items: center; margin-top: -40px;""><img src=""images/demo_images/pattern_1.png"" style=""width: 234px; height: 230px; margin-top: -50px;""><div style=""display: flex; justify-content: space-between; margin-top: 33px;""><img src=""images/demo_images/choice_trial_1.png"" style=""width: 408px; height: 417px; margin-right: 608px;""></div></div>",,delaylearn,learning,display_response,IJ6C5IDrq0gBFRSUqRNXYAhVdaa2,IJ6C5IDrq0gBFRSUqRNXYAhVdaa2,,,,,,,,,,,,,,,,,chosen stimuli: images/demo_images/choice_trial_1.png,,,,,65cfd63f31c934ef41d14881,10:05:55,27/02/2024
html-keyboard-response,19,34826,0.0-8.0-2.0,,,,delaylearn,learning,feedback_duration_window,IJ6C5IDrq0gBFRSUqRNXYAhVdaa2,IJ6C5IDrq0gBFRSUqRNXYAhVdaa2,,,,,,,,,,,,,,,,,,3000.0,,,,65cfd63f31c934ef41d14881,10:05:55,27/02/2024
html-keyboard-response,20,36333,0.0-8.0-3.0,,<div style='margin:auto;width: auto; font-size: 150%'><span style='font-weight: bold; font-size: 100px; color: green;'>+10 points!</span><br><br></div>,,delaylearn,learning,feedback_image_window,IJ6C5IDrq0gBFRSUqRNXYAhVdaa2,IJ6C5IDrq0gBFRSUqRNXYAhVdaa2,,,,,,,,,,,,,,,,,,,,,,65cfd63f31c934ef41d14881,10:05:55,27/02/2024
html-keyboard-response,21,36848,0.0-9.0-0.0,,,,,,mood_trial_fixation,IJ6C5IDrq0gBFRSUqRNXYAhVdaa2,,,,,,,,,,,,,,,,,,,,,,,65cfd63f31c934ef41d14881,10:05:55,27/02/2024
lmdlab-html-vas-response,22,41980,0.0-9.0-1.0,4098.0,How happy are you right now?,1,delaylearn,learning,mood_trial,IJ6C5IDrq0gBFRSUqRNXYAhVdaa2,IJ6C5IDrq0gBFRSUqRNXYAhVdaa2,,,,,,,,,,,,,,,,,,,,"['Very unhappy', 'Very happy']",,65cfd63f31c934ef41d14881,10:05:55,27/02/2024
html-keyboard-response,23,43531,0.0-10.0,,"<div style=""font-size:100px;"">+</div>",,delaylearn,learning,ITI,IJ6C5IDrq0gBFRSUqRNXYAhVdaa2,IJ6C5IDrq0gBFRSUqRNXYAhVdaa2,,,,,,,,,,,,,,,,,,,1536.0,,,65cfd63f31c934ef41d14881,10:05:55,27/02/2024
html-keyboard-response,24,44541,0.0-11.0-0.0,1008.5,"<div style=""display: flex; flex-direction: column; align-items: center; margin-top: -40px;""><img src=""images/demo_images/pattern_1.png"" style=""width: 234px; height: 230px; margin-top: -50px;""><div style=""display: flex; justify-content: space-between; margin-top: 33px;""><img src=""images/demo_images/choice_trial_2.png"" style=""width: 408px; height: 417px; margin-right: 200px;""><img src=""images/demo_images/choice_trial_1.png"" style=""width: 408px; height: 417px;""></div></div>",j,delaylearn,learning,trial,IJ6C5IDrq0gBFRSUqRNXYAhVdaa2,IJ6C5IDrq0gBFRSUqRNXYAhVdaa2,5.0,images/demo_images/choice_trial_2.png,images/demo_images/choice_trial_1.png,images/demo_images/pattern_1.png,j,j,3000.0,2.0,1.0,20.0,1.0,5.0,1.0,1.0,1.0,40.0,,,,,,65cfd63f31c934ef41d14881,10:05:55,27/02/2024
html-keyboard-response,25,45552,0.0-11.0-1.0,,"<div style=""display: flex; flex-direction: column; align-items: center; margin-top: -40px;""><img src=""images/demo_images/pattern_1.png"" style=""width: 234px; height: 230px; margin-top: -50px;""><div style=""display: flex; justify-content: space-between; margin-top: 33px;""><img src=""images/demo_images/choice_trial_1.png"" style=""width: 408px; height: 417px; margin-left:608px;""></div></div>",,delaylearn,learning,display_response,IJ6C5IDrq0gBFRSUqRNXYAhVdaa2,IJ6C5IDrq0gBFRSUqRNXYAhVdaa2,,,,,,,,,,,,,,,,,chosen stimuli: images/demo_images/choice_trial_1.png,,,,,65cfd63f31c934ef41d14881,10:05:55,27/02/2024
html-keyboard-response,26,48561,0.0-11.0-2.0,,,,delaylearn,learning,feedback_duration_window,IJ6C5IDrq0gBFRSUqRNXYAhVdaa2,IJ6C5IDrq0gBFRSUqRNXYAhVdaa2,,,,,,,,,,,,,,,,,,3000.0,,,,65cfd63f31c934ef41d14881,10:05:55,27/02/2024
html-keyboard-response,27,50067,0.0-11.0-3.0,,<div style='margin:auto;width: auto; font-size: 150%'><span style='font-weight: bold; font-size: 100px; color: green;'>+10 points!</span><br><br></div>,,delaylearn,learning,feedback_image_window,IJ6C5IDrq0gBFRSUqRNXYAhVdaa2,IJ6C5IDrq0gBFRSUqRNXYAhVdaa2,,,,,,,,,,,,,,,,,,,,,,65cfd63f31c934ef41d14881,10:05:55,27/02/2024
html-keyboard-response,28,51676,0.0-12.0,,"<div style=""font-size:100px;"">+</div>",,delaylearn,learning,ITI,IJ6C5IDrq0gBFRSUqRNXYAhVdaa2,IJ6C5IDrq0gBFRSUqRNXYAhVdaa2,,,,,,,,,,,,,,,,,,,1594.0,,,65cfd63f31c934ef41d14881,10:05:55,27/02/2024
html-keyboard-response,29,52875,0.0-13.0-0.0,1196.3999999761581,"<div style=""display: flex; flex-direction: column; align-items: center; margin-top: -40px;""><img src=""images/demo_images/pattern_1.png"" style=""width: 234px; height: 230px; margin-top: -50px;""><div style=""display: flex; justify-content: space-between; margin-top: 33px;""><img src=""images/demo_images/choice_trial_1.png"" style=""width: 408px; height: 417px; margin-right: 200px;""><img src=""images/demo_images/choice_trial_2.png"" style=""width: 408px; height: 417px;""></div></div>",f,delaylearn,learning,trial,IJ6C5IDrq0gBFRSUqRNXYAhVdaa2,IJ6C5IDrq0gBFRSUqRNXYAhVdaa2,5.0,images/demo_images/choice_trial_1.png,images/demo_images/choice_trial_2.png,images/demo_images/pattern_1.png,f,f,3000.0,1.0,2.0,20.0,0.0,6.0,1.0,1.0,1.0,50.0,,,,,,65cfd63f31c934ef41d14881,10:05:55,27/02/2024
html-keyboard-response,30,53881,0.0-13.0-1.0,,"<div style=""display: flex; flex-direction: column; align-items: center; margin-top: -40px;""><img src=""images/demo_images/pattern_1.png"" style=""width: 234px; height: 230px; margin-top: -50px;""><div style=""display: flex; justify-content: space-between; margin-top: 33px;""><img src=""images/demo_images/choice_trial_1.png"" style=""width: 408px; height: 417px; margin-right: 608px;""></div></div>",,delaylearn,learning,display_response,IJ6C5IDrq0gBFRSUqRNXYAhVdaa2,IJ6C5IDrq0gBFRSUqRNXYAhVdaa2,,,,,,,,,,,,,,,,,chosen stimuli: images/demo_images/choice_trial_1.png,,,,,65cfd63f31c934ef41d14881,10:05:55,27/02/2024
html-keyboard-response,31,56897,0.0-13.0-2.0,,,,delaylearn,learning,feedback_duration_window,IJ6C5IDrq0gBFRSUqRNXYAhVdaa2,IJ6C5IDrq0gBFRSUqRNXYAhVdaa2,,,,,,,,,,,,,,,,,,3000.0,,,,65cfd63f31c934ef41d14881,10:05:55,27/02/2024
html-keyboard-response,32,58411,0.0-13.0-3.0,,<div style='margin:auto;width: auto; font-size: 150%'><span style='font-weight: bold; font-size: 100px; color: green;'>+10 points!</span><br><br></div>,,delaylearn,learning,feedback_image_window,IJ6C5IDrq0gBFRSUqRNXYAhVdaa2,IJ6C5IDrq0gBFRSUqRNXYAhVdaa2,,,,,,,,,,,,,,,,,,,,,,65cfd63f31c934ef41d14881,10:05:55,27/02/2024
html-button-response,33,59831,0.0-14.0,1419.4000000357628,"
  <div style=""display: flex; align-items: center; justify-content: center; height: 80vh;"">
  <div>
          <img src=""images/inst_demo_finish.png"" style=""width: 80vw; height:auto;"">
          <br><br>
      </div>
      <br><br>
  </div>",0,,,,IJ6C5IDrq0gBFRSUqRNXYAhVdaa2,,,,,,,,,,,,,,,,,,,,,,,65cfd63f31c934ef41d14881,10:05:55,27/02/2024
html-keyboard-response,34,63079,0.0-15.0,3247.5,"
  <div style=""display: flex; align-items: center; justify-content: center; height: 80vh;"">
  <div>
          <img src=""images/inst_6.png"" style=""width: 80vw; height:auto;"">
          <br><br>
      </div>
      <br><br>
  </div>",f,,,,IJ6C5IDrq0gBFRSUqRNXYAhVdaa2,,,,,,,,,,,,,,,,,,,,,,,65cfd63f31c934ef41d14881,10:05:55,27/02/2024
html-keyboard-response,35,66082,0.0-16.0,,"<div style=""font-size:100px;"">+</div>",,delaylearn,learning,pre_fixation,IJ6C5IDrq0gBFRSUqRNXYAhVdaa2,,,,,,,,,,,,,,,,,,,,,,,65cfd63f31c934ef41d14881,10:05:55,27/02/2024
html-keyboard-response,36,68577,0.0-17.0,,"<div style=""font-size:100px;"">+</div>",,delaylearn,learning,ITI,IJ6C5IDrq0gBFRSUqRNXYAhVdaa2,IJ6C5IDrq0gBFRSUqRNXYAhVdaa2,,,,,,,,,,,,,,,,,,,2480.0,,,65cfd63f31c934ef41d14881,10:05:55,27/02/2024
html-keyboard-response,37,70099,0.0-18.0-0.0,1519.800000011921,"<div style=""display: flex; flex-direction: column; align-items: center; margin-top: -40px;""><img src=""images/pattern_3.png"" style=""width: 234px; height: 230px; margin-top: -50px;""><div style=""display: flex; justify-content: space-between; margin-top: 33px;""><img src=""images/choice_trial_16.png"" style=""width: 408px; height: 417px; margin-right: 200px;""><img src=""images/choice_trial_2.png"" style=""width: 408px; height: 417px;""></div></div>",f,delaylearn,learning,trial,IJ6C5IDrq0gBFRSUqRNXYAhVdaa2,IJ6C5IDrq0gBFRSUqRNXYAhVdaa2,5.0,images/choice_trial_16.png,images/choice_trial_2.png,images/pattern_3.png,f,f,7000.0,16.0,2.0,2.0,0.0,7.0,1.0,1.0,16.0,60.0,,,,,,65cfd63f31c934ef41d14881,10:05:55,27/02/2024
html-keyboard-response,38,71117,0.0-18.0-1.0,,"<div style=""display: flex; flex-direction: column; align-items: center; margin-top: -40px;""><img src=""images/pattern_3.png"" style=""width: 234px; height: 230px; margin-top: -50px;""><div style=""display: flex; justify-content: space-between; margin-top: 33px;""><img src=""images/choice_trial_16.png"" style=""width: 408px; height: 417px; margin-right: 608px;""></div></div>",,delaylearn,learning,display_response,IJ6C5IDrq0gBFRSUqRNXYAhVdaa2,IJ6C5IDrq0gBFRSUqRNXYAhVdaa2,,,,,,,,,,,,,,,,,chosen stimuli: images/choice_trial_16.png,,,,,65cfd63f31c934ef41d14881,10:05:55,27/02/2024
html-keyboard-response,39,78125,0.0-18.0-2.0,,,,delaylearn,learning,feedback_duration_window,IJ6C5IDrq0gBFRSUqRNXYAhVdaa2,IJ6C5IDrq0gBFRSUqRNXYAhVdaa2,,,,,,,,,,,,,,,,,,7000.0,,,,65cfd63f31c934ef41d14881,10:05:55,27/02/2024
html-keyboard-response,40,79636,0.0-18.0-3.0,,<div style='margin:auto;width: auto; font-size: 150%'><span style='font-weight: bold; font-size: 100px; color: green;'>+10 points!</span><br><br></div>,,delaylearn,learning,feedback_image_window,IJ6C5IDrq0gBFRSUqRNXYAhVdaa2,IJ6C5IDrq0gBFRSUqRNXYAhVdaa2,,,,,,,,,,,,,,,,,,,,,,65cfd63f31c934ef41d14881,10:05:55,27/02/2024
html-keyboard-response,41,81874,0.0-19.0,,"<div style=""font-size:100px;"">+</div>",,delaylearn,learning,ITI,IJ6C5IDrq0gBFRSUqRNXYAhVdaa2,IJ6C5IDrq0gBFRSUqRNXYAhVdaa2,,,,,,,,,,,,,,,,,,,2227.0,,,65cfd63f31c934ef41d14881,10:05:55,27/02/2024
html-keyboard-response,42,82639,0.0-20.0-0.0,762.8000000119209,"<div style=""display: flex; flex-direction: column; align-items: center; margin-top: -40px;""><img src=""images/pattern_7.png"" style=""width: 234px; height: 230px; margin-top: -50px;""><div style=""display: flex; justify-content: space-between; margin-top: 33px;""><img src=""images/choice_trial_10.png"" style=""width: 408px; height: 417px; margin-right: 200px;""><img src=""images/choice_trial_8.png"" style=""width: 408px; height: 417px;""></div></div>",j,delaylearn,learning,trial,IJ6C5IDrq0gBFRSUqRNXYAhVdaa2,IJ6C5IDrq0gBFRSUqRNXYAhVdaa2,5.0,images/choice_trial_10.png,images/choice_trial_8.png,images/pattern_7.png,j,j,750.0,10.0,8.0,6.0,1.0,8.0,1.0,1.0,8.0,70.0,,,,,,65cfd63f31c934ef41d14881,10:05:55,27/02/2024
html-keyboard-response,43,83644,0.0-20.0-1.0,,"<div style=""display: flex; flex-direction: column; align-items: center; margin-top: -40px;""><img src=""images/pattern_7.png"" style=""width: 234px; height: 230px; margin-top: -50px;""><div style=""display: flex; justify-content: space-between; margin-top: 33px;""><img src=""images/choice_trial_8.png"" style=""width: 408px; height: 417px; margin-left:608px;""></div></div>",,delaylearn,learning,display_response,IJ6C5IDrq0gBFRSUqRNXYAhVdaa2,IJ6C5IDrq0gBFRSUqRNXYAhVdaa2,,,,,,,,,,,,,,,,,chosen stimuli: images/choice_trial_8.png,,,,,65cfd63f31c934ef41d14881,10:05:55,27/02/2024
html-keyboard-response,44,84411,0.0-20.0-2.0,,,,delaylearn,learning,feedback_duration_window,IJ6C5IDrq0gBFRSUqRNXYAhVdaa2,IJ6C5IDrq0gBFRSUqRNXYAhVdaa2,,,,,,,,,,,,,,,,,,750.0,,,,65cfd63f31c934ef41d14881,10:05:55,27/02/2024
html-keyboard-response,45,85928,0.0-20.0-3.0,,<div style='margin:auto;width: auto; font-size: 150%'><span style='font-weight: bold; font-size: 100px; color: green;'>+10 points!</span><br><br></div>,,delaylearn,learning,feedback_image_window,IJ6C5IDrq0gBFRSUqRNXYAhVdaa2,IJ6C5IDrq0gBFRSUqRNXYAhVdaa2,,,,,,,,,,,,,,,,,,,,,,65cfd63f31c934ef41d14881,10:05:55,27/02/2024
html-keyboard-response,46,88384,0.0-21.0,,"<div style=""font-size:100px;"">+</div>",,delaylearn,learning,ITI,IJ6C5IDrq0gBFRSUqRNXYAhVdaa2,IJ6C5IDrq0gBFRSUqRNXYAhVdaa2,,,,,,,,,,,,,,,,,,,2453.0,,,65cfd63f31c934ef41d14881,10:05:55,27/02/2024
html-keyboard-response,47,89487,0.0-22.0-0.0,1101.1000000238419,"<div style=""display: flex; flex-direction: column; align-items: center; margin-top: -40px;""><img src=""images/pattern_4.png"" style=""width: 234px; height: 230px; margin-top: -50px;""><div style=""display: flex; justify-content: space-between; margin-top: 33px;""><img src=""images/choice_trial_11.png"" style=""width: 408px; height: 417px; margin-right: 200px;""><img src=""images/choice_trial_4.png"" style=""width: 408px; height: 417px;""></div></div>",f,delaylearn,learning,trial,IJ6C5IDrq0gBFRSUqRNXYAhVdaa2,IJ6C5IDrq0gBFRSUqRNXYAhVdaa2,5.0,images/choice_trial_11.png,images/choice_trial_4.png,images/pattern_4.png,f,f,7000.0,11.0,4.0,3.0,0.0,9.0,1.0,1.0,11.0,80.0,,,,,,65cfd63f31c934ef41d14881,10:05:55,27/02/2024
html-keyboard-response,48,90490,0.0-22.0-1.0,,"<div style=""display: flex; flex-direction: column; align-items: center; margin-top: -40px;""><img src=""images/pattern_4.png"" style=""width: 234px; height: 230px; margin-top: -50px;""><div style=""display: flex; justify-content: space-between; margin-top: 33px;""><img src=""images/choice_trial_11.png"" style=""width: 408px; height: 417px; margin-right: 608px;""></div></div>",,delaylearn,learning,display_response,IJ6C5IDrq0gBFRSUqRNXYAhVdaa2,IJ6C5IDrq0gBFRSUqRNXYAhVdaa2,,,,,,,,,,,,,,,,,chosen stimuli: images/choice_trial_11.png,,,,,65cfd63f31c934ef41d14881,10:05:55,27/02/2024
html-keyboard-response,49,97495,0.0-22.0-2.0,,,,delaylearn,learning,feedback_duration_window,IJ6C5IDrq0gBFRSUqRNXYAhVdaa2,IJ6C5IDrq0gBFRSUqRNXYAhVdaa2,,,,,,,,,,,,,,,,,,7000.0,,,,65cfd63f31c934ef41d14881,10:05:55,27/02/2024
html-keyboard-response,50,99007,0.0-22.0-3.0,,<div style='margin:auto;width: auto; font-size: 150%'><span style='font-weight: bold; font-size: 100px; color: green;'>+10 points!</span><br><br></div>,,delaylearn,learning,feedback_image_window,IJ6C5IDrq0gBFRSUqRNXYAhVdaa2,IJ6C5IDrq0gBFRSUqRNXYAhVdaa2,,,,,,,,,,,,,,,,,,,,,,65cfd63f31c934ef41d14881,10:05:55,27/02/2024
html-keyboard-response,51,101131,0.0-23.0,,"<div style=""font-size:100px;"">+</div>",,delaylearn,learning,ITI,IJ6C5IDrq0gBFRSUqRNXYAhVdaa2,IJ6C5IDrq0gBFRSUqRNXYAhVdaa2,,,,,,,,,,,,,,,,,,,2120.0,,,65cfd63f31c934ef41d14881,10:05:55,27/02/2024
html-keyboard-response,52,102370,0.0-24.0-0.0,1236.3999999761581,"<div style=""display: flex; flex-direction: column; align-items: center; margin-top: -40px;""><img src=""images/pattern_5.png"" style=""width: 234px; height: 230px; margin-top: -50px;""><div style=""display: flex; justify-content: space-between; margin-top: 33px;""><img src=""images/choice_trial_13.png"" style=""width: 408px; height: 417px; margin-right: 200px;""><img src=""images/choice_trial_7.png"" style=""width: 408px; height: 417px;""></div></div>",f,delaylearn,learning,trial,IJ6C5IDrq0gBFRSUqRNXYAhVdaa2,IJ6C5IDrq0gBFRSUqRNXYAhVdaa2,5.0,images/choice_trial_13.png,images/choice_trial_7.png,images/pattern_5.png,j,j,750.0,13.0,7.0,4.0,1.0,10.0,0.0,0.0,13.0,80.0,,,,,,65cfd63f31c934ef41d14881,10:05:55,27/02/2024
html-keyboard-response,53,103378,0.0-24.0-1.0,,"<div style=""display: flex; flex-direction: column; align-items: center; margin-top: -40px;""><img src=""images/pattern_5.png"" style=""width: 234px; height: 230px; margin-top: -50px;""><div style=""display: flex; justify-content: space-between; margin-top: 33px;""><img src=""images/choice_trial_13.png"" style=""width: 408px; height: 417px; margin-right: 608px;""></div></div>",,delaylearn,learning,display_response,IJ6C5IDrq0gBFRSUqRNXYAhVdaa2,IJ6C5IDrq0gBFRSUqRNXYAhVdaa2,,,,,,,,,,,,,,,,,chosen stimuli: images/choice_trial_13.png,,,,,65cfd63f31c934ef41d14881,10:05:55,27/02/2024
html-keyboard-response,54,104141,0.0-24.0-2.0,,,,delaylearn,learning,feedback_duration_window,IJ6C5IDrq0gBFRSUqRNXYAhVdaa2,IJ6C5IDrq0gBFRSUqRNXYAhVdaa2,,,,,,,,,,,,,,,,,,750.0,,,,65cfd63f31c934ef41d14881,10:05:55,27/02/2024
html-keyboard-response,55,105650,0.0-24.0-3.0,,<div style='margin:auto;width: auto; font-size: 150%'><span style='font-weight: bold; font-size: 100px; color: red;'>0 points!</span><br><br></div>,,delaylearn,learning,feedback_image_window,IJ6C5IDrq0gBFRSUqRNXYAhVdaa2,IJ6C5IDrq0gBFRSUqRNXYAhVdaa2,,,,,,,,,,,,,,,,,,,,,,65cfd63f31c934ef41d14881,10:05:55,27/02/2024
html-keyboard-response,56,107817,0.0-25.0,,"<div style=""font-size:100px;"">+</div>",,delaylearn,learning,ITI,IJ6C5IDrq0gBFRSUqRNXYAhVdaa2,IJ6C5IDrq0gBFRSUqRNXYAhVdaa2,,,,,,,,,,,,,,,,,,,2153.0,,,65cfd63f31c934ef41d14881,10:05:55,27/02/2024
html-keyboard-response,57,108721,0.0-26.0-0.0,901.3000000119209,"<div style=""display: flex; flex-direction: column; align-items: center; margin-top: -40px;""><img src=""images/pattern_6.png"" style=""width: 234px; height: 230px; margin-top: -50px;""><div style=""display: flex; justify-content: space-between; margin-top: 33px;""><img src=""images/choice_trial_14.png"" style=""width: 408px; height: 417px; margin-right: 200px;""><img src=""images/choice_trial_9.png"" style=""width: 408px; height: 417px;""></div></div>",f,delaylearn,learning,trial,IJ6C5IDrq0gBFRSUqRNXYAhVdaa2,IJ6C5IDrq0gBFRSUqRNXYAhVdaa2,5.0,images/choice_trial_14.png,images/choice_trial_9.png,images/pattern_6.png,j,f,750.0,14.0,9.0,5.0,0.0,11.0,1.0,0.0,14.0,80.0,,,,,,65cfd63f31c934ef41d14881,10:05:55,27/02/2024
html-keyboard-response,58,109725,0.0-26.0-1.0,,"<div style=""display: flex; flex-direction: column; align-items: center; margin-top: -40px;""><img src=""images/pattern_6.png"" style=""width: 234px; height: 230px; margin-top: -50px;""><div style=""display: flex; justify-content: space-between; margin-top: 33px;""><img src=""images/choice_trial_14.png"" style=""width: 408px; height: 417px; margin-right: 608px;""></div></div>",,delaylearn,learning,display_response,IJ6C5IDrq0gBFRSUqRNXYAhVdaa2,IJ6C5IDrq0gBFRSUqRNXYAhVdaa2,,,,,,,,,,,,,,,,,chosen stimuli: images/choice_trial_14.png,,,,,65cfd63f31c934ef41d14881,10:05:55,27/02/2024
html-keyboard-response,59,110488,0.0-26.0-2.0,,,,delaylearn,learning,feedback_duration_window,IJ6C5IDrq0gBFRSUqRNXYAhVdaa2,IJ6C5IDrq0gBFRSUqRNXYAhVdaa2,,,,,,,,,,,,,,,,,,750.0,,,,65cfd63f31c934ef41d14881,10:05:55,27/02/2024
html-keyboard-response,60,112000,0.0-26.0-3.0,,<div style='margin:auto;width: auto; font-size: 150%'><span style='font-weight: bold; font-size: 100px; color: red;'>0 points!</span><br><br></div>,,delaylearn,learning,feedback_image_window,IJ6C5IDrq0gBFRSUqRNXYAhVdaa2,IJ6C5IDrq0gBFRSUqRNXYAhVdaa2,,,,,,,,,,,,,,,,,,,,,,65cfd63f31c934ef41d14881,10:05:55,27/02/2024
html-keyboard-response,61,112508,0.0-27.0-0.0,,,,,,mood_trial_fixation,IJ6C5IDrq0gBFRSUqRNXYAhVdaa2,,,,,,,,,,,,,,,,,,,,,,,65cfd63f31c934ef41d14881,10:05:55,27/02/2024
lmdlab-html-vas-response,62,115366,0.0-27.0-1.0,1847.0,How happy are you right now?,0.4050925925925926,delaylearn,learning,mood_trial,IJ6C5IDrq0gBFRSUqRNXYAhVdaa2,IJ6C5IDrq0gBFRSUqRNXYAhVdaa2,,,,,,,,,,,,,,,,,,,,"['Very unhappy', 'Very happy']",,65cfd63f31c934ef41d14881,10:05:55,27/02/2024
html-keyboard-response,63,117639,0.0-28.0,,"<div style=""font-size:100px;"">+</div>",,delaylearn,learning,ITI,IJ6C5IDrq0gBFRSUqRNXYAhVdaa2,IJ6C5IDrq0gBFRSUqRNXYAhVdaa2,,,,,,,,,,,,,,,,,,,2267.0,,,65cfd63f31c934ef41d14881,10:05:55,27/02/2024
html-keyboard-response,64,118813,0.0-29.0-0.0,1171.5999999642372,"<div style=""display: flex; flex-direction: column; align-items: center; margin-top: -40px;""><img src=""images/pattern_1.png"" style=""width: 234px; height: 230px; margin-top: -50px;""><div style=""display: flex; justify-content: space-between; margin-top: 33px;""><img src=""images/choice_trial_15.png"" style=""width: 408px; height: 417px; margin-right: 200px;""><img src=""images/choice_trial_6.png"" style=""width: 408px; height: 417px;""></div></div>",j,delaylearn,learning,trial,IJ6C5IDrq0gBFRSUqRNXYAhVdaa2,IJ6C5IDrq0gBFRSUqRNXYAhVdaa2,5.0,images/choice_trial_15.png,images/choice_trial_6.png,images/pattern_1.png,j,j,7000.0,15.0,6.0,1.0,1.0,12.0,1.0,1.0,6.0,90.0,,,,,,65cfd63f31c934ef41d14881,10:05:55,27/02/2024
html-keyboard-response,65,119825,0.0-29.0-1.0,,"<div style=""display: flex; flex-direction: column; align-items: center; margin-top: -40px;""><img src=""images/pattern_1.png"" style=""width: 234px; height: 230px; margin-top: -50px;""><div style=""display: flex; justify-content: space-between; margin-top: 33px;""><img src=""images/choice_trial_6.png"" style=""width: 408px; height: 417px; margin-left:608px;""></div></div>",,delaylearn,learning,display_response,IJ6C5IDrq0gBFRSUqRNXYAhVdaa2,IJ6C5IDrq0gBFRSUqRNXYAhVdaa2,,,,,,,,,,,,,,,,,chosen stimuli: images/choice_trial_6.png,,,,,65cfd63f31c934ef41d14881,10:05:55,27/02/2024
html-keyboard-response,66,126839,0.0-29.0-2.0,,,,delaylearn,learning,feedback_duration_window,IJ6C5IDrq0gBFRSUqRNXYAhVdaa2,IJ6C5IDrq0gBFRSUqRNXYAhVdaa2,,,,,,,,,,,,,,,,,,7000.0,,,,65cfd63f31c934ef41d14881,10:05:55,27/02/2024
html-keyboard-response,67,128346,0.0-29.0-3.0,,<div style='margin:auto;width: auto; font-size: 150%'><span style='font-weight: bold; font-size: 100px; color: green;'>+10 points!</span><br><br></div>,,delaylearn,learning,feedback_image_window,IJ6C5IDrq0gBFRSUqRNXYAhVdaa2,IJ6C5IDrq0gBFRSUqRNXYAhVdaa2,,,,,,,,,,,,,,,,,,,,,,65cfd63f31c934ef41d14881,10:05:55,27/02/2024
html-keyboard-response,68,130575,0.0-30.0,,"<div style=""font-size:100px;"">+</div>",,delaylearn,learning,ITI,IJ6C5IDrq0gBFRSUqRNXYAhVdaa2,IJ6C5IDrq0gBFRSUqRNXYAhVdaa2,,,,,,,,,,,,,,,,,,,2223.0,,,65cfd63f31c934ef41d14881,10:05:55,27/02/2024
html-keyboard-response,69,132444,0.0-31.0-0.0,1866.699999988079,"<div style=""display: flex; flex-direction: column; align-items: center; margin-top: -40px;""><img src=""images/pattern_3.png"" style=""width: 234px; height: 230px; margin-top: -50px;""><div style=""display: flex; justify-content: space-between; margin-top: 33px;""><img src=""images/choice_trial_2.png"" style=""width: 408px; height: 417px; margin-right: 200px;""><img src=""images/choice_trial_16.png"" style=""width: 408px; height: 417px;""></div></div>",j,delaylearn,learning,trial,IJ6C5IDrq0gBFRSUqRNXYAhVdaa2,IJ6C5IDrq0gBFRSUqRNXYAhVdaa2,5.0,images/choice_trial_2.png,images/choice_trial_16.png,images/pattern_3.png,f,j,7000.0,2.0,16.0,2.0,1.0,13.0,1.0,0.0,16.0,90.0,,,,,,65cfd63f31c934ef41d14881,10:05:55,27/02/2024
html-keyboard-response,70,133456,0.0-31.0-1.0,,"<div style=""display: flex; flex-direction: column; align-items: center; margin-top: -40px;""><img src=""images/pattern_3.png"" style=""width: 234px; height: 230px; margin-top: -50px;""><div style=""display: flex; justify-content: space-between; margin-top: 33px;""><img src=""images/choice_trial_16.png"" style=""width: 408px; height: 417px; margin-left:608px;""></div></div>",,delaylearn,learning,display_response,IJ6C5IDrq0gBFRSUqRNXYAhVdaa2,IJ6C5IDrq0gBFRSUqRNXYAhVdaa2,,,,,,,,,,,,,,,,,chosen stimuli: images/choice_trial_16.png,,,,,65cfd63f31c934ef41d14881,10:05:55,27/02/2024
html-keyboard-response,71,140461,0.0-31.0-2.0,,,,delaylearn,learning,feedback_duration_window,IJ6C5IDrq0gBFRSUqRNXYAhVdaa2,IJ6C5IDrq0gBFRSUqRNXYAhVdaa2,,,,,,,,,,,,,,,,,,7000.0,,,,65cfd63f31c934ef41d14881,10:05:55,27/02/2024
html-keyboard-response,72,141974,0.0-31.0-3.0,,<div style='margin:auto;width: auto; font-size: 150%'><span style='font-weight: bold; font-size: 100px; color: red;'>0 points!</span><br><br></div>,,delaylearn,learning,feedback_image_window,IJ6C5IDrq0gBFRSUqRNXYAhVdaa2,IJ6C5IDrq0gBFRSUqRNXYAhVdaa2,,,,,,,,,,,,,,,,,,,,,,65cfd63f31c934ef41d14881,10:05:55,27/02/2024
html-keyboard-response,73,144295,0.0-32.0,,"<div style=""font-size:100px;"">+</div>",,delaylearn,learning,ITI,IJ6C5IDrq0gBFRSUqRNXYAhVdaa2,IJ6C5IDrq0gBFRSUqRNXYAhVdaa2,,,,,,,,,,,,,,,,,,,2314.0,,,65cfd63f31c934ef41d14881,10:05:55,27/02/2024
html-keyboard-response,74,146123,0.0-33.0-0.0,1824.9000000357628,"<div style=""display: flex; flex-direction: column; align-items: center; margin-top: -40px;""><img src=""images/pattern_5.png"" style=""width: 234px; height: 230px; margin-top: -50px;""><div style=""display: flex; justify-content: space-between; margin-top: 33px;""><img src=""images/choice_trial_7.png"" style=""width: 408px; height: 417px; margin-right: 200px;""><img src=""images/choice_trial_13.png"" style=""width: 408px; height: 417px;""></div></div>",f,delaylearn,learning,trial,IJ6C5IDrq0gBFRSUqRNXYAhVdaa2,IJ6C5IDrq0gBFRSUqRNXYAhVdaa2,5.0,images/choice_trial_7.png,images/choice_trial_13.png,images/pattern_5.png,f,f,750.0,7.0,13.0,4.0,0.0,14.0,1.0,1.0,7.0,100.0,,,,,,65cfd63f31c934ef41d14881,10:05:55,27/02/2024
html-keyboard-response,75,147131,0.0-33.0-1.0,,"<div style=""display: flex; flex-direction: column; align-items: center; margin-top: -40px;""><img src=""images/pattern_5.png"" style=""width: 234px; height: 230px; margin-top: -50px;""><div style=""display: flex; justify-content: space-between; margin-top: 33px;""><img src=""images/choice_trial_7.png"" style=""width: 408px; height: 417px; margin-right: 608px;""></div></div>",,delaylearn,learning,display_response,IJ6C5IDrq0gBFRSUqRNXYAhVdaa2,IJ6C5IDrq0gBFRSUqRNXYAhVdaa2,,,,,,,,,,,,,,,,,chosen stimuli: images/choice_trial_7.png,,,,,65cfd63f31c934ef41d14881,10:05:55,27/02/2024
html-keyboard-response,76,147894,0.0-33.0-2.0,,,,delaylearn,learning,feedback_duration_window,IJ6C5IDrq0gBFRSUqRNXYAhVdaa2,IJ6C5IDrq0gBFRSUqRNXYAhVdaa2,,,,,,,,,,,,,,,,,,750.0,,,,65cfd63f31c934ef41d14881,10:05:55,27/02/2024
html-keyboard-response,77,149409,0.0-33.0-3.0,,<div style='margin:auto;width: auto; font-size: 150%'><span style='font-weight: bold; font-size: 100px; color: green;'>+10 points!</span><br><br></div>,,delaylearn,learning,feedback_image_window,IJ6C5IDrq0gBFRSUqRNXYAhVdaa2,IJ6C5IDrq0gBFRSUqRNXYAhVdaa2,,,,,,,,,,,,,,,,,,,,,,65cfd63f31c934ef41d14881,10:05:55,27/02/2024
html-keyboard-response,78,149914,0.0-34.0-0.0,,,,,,mood_trial_fixation,IJ6C5IDrq0gBFRSUqRNXYAhVdaa2,,,,,,,,,,,,,,,,,,,,,,,65cfd63f31c934ef41d14881,10:05:55,27/02/2024
lmdlab-html-vas-response,79,152838,0.0-34.0-1.0,1918.0,How happy are you right now?,0.6620370370370371,delaylearn,learning,mood_trial,IJ6C5IDrq0gBFRSUqRNXYAhVdaa2,IJ6C5IDrq0gBFRSUqRNXYAhVdaa2,,,,,,,,,,,,,,,,,,,,"['Very unhappy', 'Very happy']",,65cfd63f31c934ef41d14881,10:05:55,27/02/2024
html-keyboard-response,80,154918,0.0-35.0,,"<div style=""font-size:100px;"">+</div>",,delaylearn,learning,ITI,IJ6C5IDrq0gBFRSUqRNXYAhVdaa2,IJ6C5IDrq0gBFRSUqRNXYAhVdaa2,,,,,,,,,,,,,,,,,,,2072.0,,,65cfd63f31c934ef41d14881,10:05:55,27/02/2024
html-keyboard-response,81,156012,0.0-36.0-0.0,1091.199999988079,"<div style=""display: flex; flex-direction: column; align-items: center; margin-top: -40px;""><img src=""images/pattern_6.png"" style=""width: 234px; height: 230px; margin-top: -50px;""><div style=""display: flex; justify-content: space-between; margin-top: 33px;""><img src=""images/choice_trial_14.png"" style=""width: 408px; height: 417px; margin-right: 200px;""><img src=""images/choice_trial_9.png"" style=""width: 408px; height: 417px;""></div></div>",f,delaylearn,learning,trial,IJ6C5IDrq0gBFRSUqRNXYAhVdaa2,IJ6C5IDrq0gBFRSUqRNXYAhVdaa2,5.0,images/choice_trial_14.png,images/choice_trial_9.png,images/pattern_6.png,f,f,750.0,14.0,9.0,5.0,0.0,15.0,1.0,1.0,14.0,110.0,,,,,,65cfd63f31c934ef41d14881,10:05:55,27/02/2024
html-keyboard-response,82,157019,0.0-36.0-1.0,,"<div style=""display: flex; flex-direction: column; align-items: center; margin-top: -40px;""><img src=""images/pattern_6.png"" style=""width: 234px; height: 230px; margin-top: -50px;""><div style=""display: flex; justify-content: space-between; margin-top: 33px;""><img src=""images/choice_trial_14.png"" style=""width: 408px; height: 417px; margin-right: 608px;""></div></div>",,delaylearn,learning,display_response,IJ6C5IDrq0gBFRSUqRNXYAhVdaa2,IJ6C5IDrq0gBFRSUqRNXYAhVdaa2,,,,,,,,,,,,,,,,,chosen stimuli: images/choice_trial_14.png,,,,,65cfd63f31c934ef41d14881,10:05:55,27/02/2024
html-keyboard-response,83,157783,0.0-36.0-2.0,,,,delaylearn,learning,feedback_duration_window,IJ6C5IDrq0gBFRSUqRNXYAhVdaa2,IJ6C5IDrq0gBFRSUqRNXYAhVdaa2,,,,,,,,,,,,,,,,,,750.0,,,,65cfd63f31c934ef41d14881,10:05:55,27/02/2024
html-keyboard-response,84,159297,0.0-36.0-3.0,,<div style='margin:auto;width: auto; font-size: 150%'><span style='font-weight: bold; font-size: 100px; color: green;'>+10 points!</span><br><br></div>,,delaylearn,learning,feedback_image_window,IJ6C5IDrq0gBFRSUqRNXYAhVdaa2,IJ6C5IDrq0gBFRSUqRNXYAhVdaa2,,,,,,,,,,,,,,,,,,,,,,65cfd63f31c934ef41d14881,10:05:55,27/02/2024
html-keyboard-response,85,160991,0.0-37.0,,"<div style=""font-size:100px;"">+</div>",,delaylearn,learning,ITI,IJ6C5IDrq0gBFRSUqRNXYAhVdaa2,IJ6C5IDrq0gBFRSUqRNXYAhVdaa2,,,,,,,,,,,,,,,,,,,1683.0,,,65cfd63f31c934ef41d14881,10:05:55,27/02/2024
html-keyboard-response,86,162470,0.0-38.0-0.0,1476.800000011921,"<div style=""display: flex; flex-direction: column; align-items: center; margin-top: -40px;""><img src=""images/pattern_4.png"" style=""width: 234px; height: 230px; margin-top: -50px;""><div style=""display: flex; justify-content: space-between; margin-top: 33px;""><img src=""images/choice_trial_4.png"" style=""width: 408px; height: 417px; margin-right: 200px;""><img src=""images/choice_trial_11.png"" style=""width: 408px; height: 417px;""></div></div>",j,delaylearn,learning,trial,IJ6C5IDrq0gBFRSUqRNXYAhVdaa2,IJ6C5IDrq0gBFRSUqRNXYAhVdaa2,5.0,images/choice_trial_4.png,images/choice_trial_11.png,images/pattern_4.png,j,j,7000.0,4.0,11.0,3.0,1.0,16.0,1.0,1.0,11.0,120.0,,,,,,65cfd63f31c934ef41d14881,10:05:55,27/02/2024
html-keyboard-response,87,163477,0.0-38.0-1.0,,"<div style=""display: flex; flex-direction: column; align-items: center; margin-top: -40px;""><img src=""images/pattern_4.png"" style=""width: 234px; height: 230px; margin-top: -50px;""><div style=""display: flex; justify-content: space-between; margin-top: 33px;""><img src=""images/choice_trial_11.png"" style=""width: 408px; height: 417px; margin-left:608px;""></div></div>",,delaylearn,learning,display_response,IJ6C5IDrq0gBFRSUqRNXYAhVdaa2,IJ6C5IDrq0gBFRSUqRNXYAhVdaa2,,,,,,,,,,,,,,,,,chosen stimuli: images/choice_trial_11.png,,,,,65cfd63f31c934ef41d14881,10:05:55,27/02/2024
html-keyboard-response,88,170480,0.0-38.0-2.0,,,,delaylearn,learning,feedback_duration_window,IJ6C5IDrq0gBFRSUqRNXYAhVdaa2,IJ6C5IDrq0gBFRSUqRNXYAhVdaa2,,,,,,,,,,,,,,,,,,7000.0,,,,65cfd63f31c934ef41d14881,10:05:55,27/02/2024
html-keyboard-response,89,171991,0.0-38.0-3.0,,<div style='margin:auto;width: auto; font-size: 150%'><span style='font-weight: bold; font-size: 100px; color: green;'>+10 points!</span><br><br></div>,,delaylearn,learning,feedback_image_window,IJ6C5IDrq0gBFRSUqRNXYAhVdaa2,IJ6C5IDrq0gBFRSUqRNXYAhVdaa2,,,,,,,,,,,,,,,,,,,,,,65cfd63f31c934ef41d14881,10:05:55,27/02/2024
html-keyboard-response,90,174448,0.0-39.0,,"<div style=""font-size:100px;"">+</div>",,delaylearn,learning,ITI,IJ6C5IDrq0gBFRSUqRNXYAhVdaa2,IJ6C5IDrq0gBFRSUqRNXYAhVdaa2,,,,,,,,,,,,,,,,,,,2453.0,,,65cfd63f31c934ef41d14881,10:05:55,27/02/2024
html-keyboard-response,91,175773,0.0-40.0-0.0,1321.7000000476837,"<div style=""display: flex; flex-direction: column; align-items: center; margin-top: -40px;""><img src=""images/pattern_7.png"" style=""width: 234px; height: 230px; margin-top: -50px;""><div style=""display: flex; justify-content: space-between; margin-top: 33px;""><img src=""images/choice_trial_8.png"" style=""width: 408px; height: 417px; margin-right: 200px;""><img src=""images/choice_trial_10.png"" style=""width: 408px; height: 417px;""></div></div>",f,delaylearn,learning,trial,IJ6C5IDrq0gBFRSUqRNXYAhVdaa2,IJ6C5IDrq0gBFRSUqRNXYAhVdaa2,5.0,images/choice_trial_8.png,images/choice_trial_10.png,images/pattern_7.png,j,f,750.0,8.0,10.0,6.0,0.0,17.0,1.0,0.0,8.0,120.0,,,,,,65cfd63f31c934ef41d14881,10:05:55,27/02/2024
html-keyboard-response,92,176782,0.0-40.0-1.0,,"<div style=""display: flex; flex-direction: column; align-items: center; margin-top: -40px;""><img src=""images/pattern_7.png"" style=""width: 234px; height: 230px; margin-top: -50px;""><div style=""display: flex; justify-content: space-between; margin-top: 33px;""><img src=""images/choice_trial_8.png"" style=""width: 408px; height: 417px; margin-right: 608px;""></div></div>",,delaylearn,learning,display_response,IJ6C5IDrq0gBFRSUqRNXYAhVdaa2,IJ6C5IDrq0gBFRSUqRNXYAhVdaa2,,,,,,,,,,,,,,,,,chosen stimuli: images/choice_trial_8.png,,,,,65cfd63f31c934ef41d14881,10:05:55,27/02/2024
html-keyboard-response,93,177544,0.0-40.0-2.0,,,,delaylearn,learning,feedback_duration_window,IJ6C5IDrq0gBFRSUqRNXYAhVdaa2,IJ6C5IDrq0gBFRSUqRNXYAhVdaa2,,,,,,,,,,,,,,,,,,750.0,,,,65cfd63f31c934ef41d14881,10:05:55,27/02/2024
html-keyboard-response,94,179057,0.0-40.0-3.0,,<div style='margin:auto;width: auto; font-size: 150%'><span style='font-weight: bold; font-size: 100px; color: red;'>0 points!</span><br><br></div>,,delaylearn,learning,feedback_image_window,IJ6C5IDrq0gBFRSUqRNXYAhVdaa2,IJ6C5IDrq0gBFRSUqRNXYAhVdaa2,,,,,,,,,,,,,,,,,,,,,,65cfd63f31c934ef41d14881,10:05:55,27/02/2024
html-keyboard-response,95,181369,0.0-41.0,,"<div style=""font-size:100px;"">+</div>",,delaylearn,learning,ITI,IJ6C5IDrq0gBFRSUqRNXYAhVdaa2,IJ6C5IDrq0gBFRSUqRNXYAhVdaa2,,,,,,,,,,,,,,,,,,,2300.0,,,65cfd63f31c934ef41d14881,10:05:55,27/02/2024
html-keyboard-response,96,182591,0.0-42.0-0.0,1219.300000011921,"<div style=""display: flex; flex-direction: column; align-items: center; margin-top: -40px;""><img src=""images/pattern_1.png"" style=""width: 234px; height: 230px; margin-top: -50px;""><div style=""display: flex; justify-content: space-between; margin-top: 33px;""><img src=""images/choice_trial_6.png"" style=""width: 408px; height: 417px; margin-right: 200px;""><img src=""images/choice_trial_15.png"" style=""width: 408px; height: 417px;""></div></div>",j,delaylearn,learning,trial,IJ6C5IDrq0gBFRSUqRNXYAhVdaa2,IJ6C5IDrq0gBFRSUqRNXYAhVdaa2,5.0,images/choice_trial_6.png,images/choice_trial_15.png,images/pattern_1.png,f,f,7000.0,6.0,15.0,1.0,0.0,18.0,0.0,0.0,15.0,120.0,,,,,,65cfd63f31c934ef41d14881,10:05:55,27/02/2024
html-keyboard-response,97,183608,0.0-42.0-1.0,,"<div style=""display: flex; flex-direction: column; align-items: center; margin-top: -40px;""><img src=""images/pattern_1.png"" style=""width: 234px; height: 230px; margin-top: -50px;""><div style=""display: flex; justify-content: space-between; margin-top: 33px;""><img src=""images/choice_trial_15.png"" style=""width: 408px; height: 417px; margin-left:608px;""></div></div>",,delaylearn,learning,display_response,IJ6C5IDrq0gBFRSUqRNXYAhVdaa2,IJ6C5IDrq0gBFRSUqRNXYAhVdaa2,,,,,,,,,,,,,,,,,chosen stimuli: images/choice_trial_15.png,,,,,65cfd63f31c934ef41d14881,10:05:55,27/02/2024
html-keyboard-response,98,190611,0.0-42.0-2.0,,,,delaylearn,learning,feedback_duration_window,IJ6C5IDrq0gBFRSUqRNXYAhVdaa2,IJ6C5IDrq0gBFRSUqRNXYAhVdaa2,,,,,,,,,,,,,,,,,,7000.0,,,,65cfd63f31c934ef41d14881,10:05:55,27/02/2024
html-keyboard-response,99,192127,0.0-42.0-3.0,,<div style='margin:auto;width: auto; font-size: 150%'><span style='font-weight: bold; font-size: 100px; color: red;'>0 points!</span><br><br></div>,,delaylearn,learning,feedback_image_window,IJ6C5IDrq0gBFRSUqRNXYAhVdaa2,IJ6C5IDrq0gBFRSUqRNXYAhVdaa2,,,,,,,,,,,,,,,,,,,,,,65cfd63f31c934ef41d14881,10:05:55,27/02/2024
html-keyboard-response,100,194257,0.0-43.0,,"<div style=""font-size:100px;"">+</div>",,delaylearn,learning,ITI,IJ6C5IDrq0gBFRSUqRNXYAhVdaa2,IJ6C5IDrq0gBFRSUqRNXYAhVdaa2,,,,,,,,,,,,,,,,,,,2119.0,,,65cfd63f31c934ef41d14881,10:05:55,27/02/2024
html-keyboard-response,101,195934,0.0-44.0-0.0,1674.0,"<div style=""display: flex; flex-direction: column; align-items: center; margin-top: -40px;""><img src=""images/pattern_6.png"" style=""width: 234px; height: 230px; margin-top: -50px;""><div style=""display: flex; justify-content: space-between; margin-top: 33px;""><img src=""images/choice_trial_9.png"" style=""width: 408px; height: 417px; margin-right: 200px;""><img src=""images/choice_trial_14.png"" style=""width: 408px; height: 417px;""></div></div>",j,delaylearn,learning,trial,IJ6C5IDrq0gBFRSUqRNXYAhVdaa2,IJ6C5IDrq0gBFRSUqRNXYAhVdaa2,5.0,images/choice_trial_9.png,images/choice_trial_14.png,images/pattern_6.png,j,j,750.0,9.0,14.0,5.0,1.0,19.0,1.0,1.0,14.0,130.0,,,,,,65cfd63f31c934ef41d14881,10:05:55,27/02/2024
html-keyboard-response,102,196937,0.0-44.0-1.0,,"<div style=""display: flex; flex-direction: column; align-items: center; margin-top: -40px;""><img src=""images/pattern_6.png"" style=""width: 234px; height: 230px; margin-top: -50px;""><div style=""display: flex; justify-content: space-between; margin-top: 33px;""><img src=""images/choice_trial_14.png"" style=""width: 408px; height: 417px; margin-left:608px;""></div></div>",,delaylearn,learning,display_response,IJ6C5IDrq0gBFRSUqRNXYAhVdaa2,IJ6C5IDrq0gBFRSUqRNXYAhVdaa2,,,,,,,,,,,,,,,,,chosen stimuli: images/choice_trial_14.png,,,,,65cfd63f31c934ef41d14881,10:05:55,27/02/2024
html-keyboard-response,103,197700,0.0-44.0-2.0,,,,delaylearn,learning,feedback_duration_window,IJ6C5IDrq0gBFRSUqRNXYAhVdaa2,IJ6C5IDrq0gBFRSUqRNXYAhVdaa2,,,,,,,,,,,,,,,,,,750.0,,,,65cfd63f31c934ef41d14881,10:05:55,27/02/2024
html-keyboard-response,104,199204,0.0-44.0-3.0,,<div style='margin:auto;width: auto; font-size: 150%'><span style='font-weight: bold; font-size: 100px; color: green;'>+10 points!</span><br><br></div>,,delaylearn,learning,feedback_image_window,IJ6C5IDrq0gBFRSUqRNXYAhVdaa2,IJ6C5IDrq0gBFRSUqRNXYAhVdaa2,,,,,,,,,,,,,,,,,,,,,,65cfd63f31c934ef41d14881,10:05:55,27/02/2024
html-keyboard-response,105,201556,0.0-45.0,,"<div style=""font-size:100px;"">+</div>",,delaylearn,learning,ITI,IJ6C5IDrq0gBFRSUqRNXYAhVdaa2,IJ6C5IDrq0gBFRSUqRNXYAhVdaa2,,,,,,,,,,,,,,,,,,,2336.0,,,65cfd63f31c934ef41d14881,10:05:55,27/02/2024
html-keyboard-response,106,202662,0.0-46.0-0.0,1103.2000000476837,"<div style=""display: flex; flex-direction: column; align-items: center; margin-top: -40px;""><img src=""images/pattern_4.png"" style=""width: 234px; height: 230px; margin-top: -50px;""><div style=""display: flex; justify-content: space-between; margin-top: 33px;""><img src=""images/choice_trial_11.png"" style=""width: 408px; height: 417px; margin-right: 200px;""><img src=""images/choice_trial_4.png"" style=""width: 408px; height: 417px;""></div></div>",f,delaylearn,learning,trial,IJ6C5IDrq0gBFRSUqRNXYAhVdaa2,IJ6C5IDrq0gBFRSUqRNXYAhVdaa2,5.0,images/choice_trial_11.png,images/choice_trial_4.png,images/pattern_4.png,f,f,7000.0,11.0,4.0,3.0,0.0,20.0,1.0,1.0,11.0,140.0,,,,,,65cfd63f31c934ef41d14881,10:05:55,27/02/2024
html-keyboard-response,107,203666,0.0-46.0-1.0,,"<div style=""display: flex; flex-direction: column; align-items: center; margin-top: -40px;""><img src=""images/pattern_4.png"" style=""width: 234px; height: 230px; margin-top: -50px;""><div style=""display: flex; justify-content: space-between; margin-top: 33px;""><img src=""images/choice_trial_11.png"" style=""width: 408px; height: 417px; margin-right: 608px;""></div></div>",,delaylearn,learning,display_response,IJ6C5IDrq0gBFRSUqRNXYAhVdaa2,IJ6C5IDrq0gBFRSUqRNXYAhVdaa2,,,,,,,,,,,,,,,,,chosen stimuli: images/choice_trial_11.png,,,,,65cfd63f31c934ef41d14881,10:05:55,27/02/2024
html-keyboard-response,108,210682,0.0-46.0-2.0,,,,delaylearn,learning,feedback_duration_window,IJ6C5IDrq0gBFRSUqRNXYAhVdaa2,IJ6C5IDrq0gBFRSUqRNXYAhVdaa2,,,,,,,,,,,,,,,,,,7000.0,,,,65cfd63f31c934ef41d14881,10:05:55,27/02/2024
html-keyboard-response,109,212195,0.0-46.0-3.0,,<div style='margin:auto;width: auto; font-size: 150%'><span style='font-weight: bold; font-size: 100px; color: green;'>+10 points!</span><br><br></div>,,delaylearn,learning,feedback_image_window,IJ6C5IDrq0gBFRSUqRNXYAhVdaa2,IJ6C5IDrq0gBFRSUqRNXYAhVdaa2,,,,,,,,,,,,,,,,,,,,,,65cfd63f31c934ef41d14881,10:05:55,27/02/2024
html-keyboard-response,110,212702,0.0-47.0-0.0,,,,,,mood_trial_fixation,IJ6C5IDrq0gBFRSUqRNXYAhVdaa2,,,,,,,,,,,,,,,,,,,,,,,65cfd63f31c934ef41d14881,10:05:55,27/02/2024
lmdlab-html-vas-response,111,215544,0.0-47.0-1.0,1824.0,How happy are you right now?,0.9467592592592593,delaylearn,learning,mood_trial,IJ6C5IDrq0gBFRSUqRNXYAhVdaa2,IJ6C5IDrq0gBFRSUqRNXYAhVdaa2,,,,,,,,,,,,,,,,,,,,"['Very unhappy', 'Very happy']",,65cfd63f31c934ef41d14881,10:05:55,27/02/2024
html-keyboard-response,112,217631,0.0-48.0,,"<div style=""font-size:100px;"">+</div>",,delaylearn,learning,ITI,IJ6C5IDrq0gBFRSUqRNXYAhVdaa2,IJ6C5IDrq0gBFRSUqRNXYAhVdaa2,,,,,,,,,,,,,,,,,,,2081.0,,,65cfd63f31c934ef41d14881,10:05:55,27/02/2024
html-keyboard-response,113,218574,0.0-49.0-0.0,939.1999999880791,"<div style=""display: flex; flex-direction: column; align-items: center; margin-top: -40px;""><img src=""images/pattern_7.png"" style=""width: 234px; height: 230px; margin-top: -50px;""><div style=""display: flex; justify-content: space-between; margin-top: 33px;""><img src=""images/choice_trial_10.png"" style=""width: 408px; height: 417px; margin-right: 200px;""><img src=""images/choice_trial_8.png"" style=""width: 408px; height: 417px;""></div></div>",f,delaylearn,learning,trial,IJ6C5IDrq0gBFRSUqRNXYAhVdaa2,IJ6C5IDrq0gBFRSUqRNXYAhVdaa2,5.0,images/choice_trial_10.png,images/choice_trial_8.png,images/pattern_7.png,j,j,750.0,10.0,8.0,6.0,1.0,21.0,0.0,0.0,10.0,140.0,,,,,,65cfd63f31c934ef41d14881,10:05:55,27/02/2024
html-keyboard-response,114,219582,0.0-49.0-1.0,,"<div style=""display: flex; flex-direction: column; align-items: center; margin-top: -40px;""><img src=""images/pattern_7.png"" style=""width: 234px; height: 230px; margin-top: -50px;""><div style=""display: flex; justify-content: space-between; margin-top: 33px;""><img src=""images/choice_trial_10.png"" style=""width: 408px; height: 417px; margin-right: 608px;""></div></div>",,delaylearn,learning,display_response,IJ6C5IDrq0gBFRSUqRNXYAhVdaa2,IJ6C5IDrq0gBFRSUqRNXYAhVdaa2,,,,,,,,,,,,,,,,,chosen stimuli: images/choice_trial_10.png,,,,,65cfd63f31c934ef41d14881,10:05:55,27/02/2024
html-keyboard-response,115,220348,0.0-49.0-2.0,,,,delaylearn,learning,feedback_duration_window,IJ6C5IDrq0gBFRSUqRNXYAhVdaa2,IJ6C5IDrq0gBFRSUqRNXYAhVdaa2,,,,,,,,,,,,,,,,,,750.0,,,,65cfd63f31c934ef41d14881,10:05:55,27/02/2024
html-keyboard-response,116,221859,0.0-49.0-3.0,,<div style='margin:auto;width: auto; font-size: 150%'><span style='font-weight: bold; font-size: 100px; color: red;'>0 points!</span><br><br></div>,,delaylearn,learning,feedback_image_window,IJ6C5IDrq0gBFRSUqRNXYAhVdaa2,IJ6C5IDrq0gBFRSUqRNXYAhVdaa2,,,,,,,,,,,,,,,,,,,,,,65cfd63f31c934ef41d14881,10:05:55,27/02/2024
html-keyboard-response,117,224211,0.0-50.0,,"<div style=""font-size:100px;"">+</div>",,delaylearn,learning,ITI,IJ6C5IDrq0gBFRSUqRNXYAhVdaa2,IJ6C5IDrq0gBFRSUqRNXYAhVdaa2,,,,,,,,,,,,,,,,,,,2339.0,,,65cfd63f31c934ef41d14881,10:05:55,27/02/2024
html-keyboard-response,118,225847,0.0-51.0-0.0,1632.9000000357628,"<div style=""display: flex; flex-direction: column; align-items: center; margin-top: -40px;""><img src=""images/pattern_1.png"" style=""width: 234px; height: 230px; margin-top: -50px;""><div style=""display: flex; justify-content: space-between; margin-top: 33px;""><img src=""images/choice_trial_15.png"" style=""width: 408px; height: 417px; margin-right: 200px;""><img src=""images/choice_trial_6.png"" style=""width: 408px; height: 417px;""></div></div>",f,delaylearn,learning,trial,IJ6C5IDrq0gBFRSUqRNXYAhVdaa2,IJ6C5IDrq0gBFRSUqRNXYAhVdaa2,5.0,images/choice_trial_15.png,images/choice_trial_6.png,images/pattern_1.png,f,j,7000.0,15.0,6.0,1.0,1.0,22.0,0.0,1.0,15.0,150.0,,,,,,65cfd63f31c934ef41d14881,10:05:55,27/02/2024
html-keyboard-response,119,226853,0.0-51.0-1.0,,"<div style=""display: flex; flex-direction: column; align-items: center; margin-top: -40px;""><img src=""images/pattern_1.png"" style=""width: 234px; height: 230px; margin-top: -50px;""><div style=""display: flex; justify-content: space-between; margin-top: 33px;""><img src=""images/choice_trial_15.png"" style=""width: 408px; height: 417px; margin-right: 608px;""></div></div>",,delaylearn,learning,display_response,IJ6C5IDrq0gBFRSUqRNXYAhVdaa2,IJ6C5IDrq0gBFRSUqRNXYAhVdaa2,,,,,,,,,,,,,,,,,chosen stimuli: images/choice_trial_15.png,,,,,65cfd63f31c934ef41d14881,10:05:55,27/02/2024
html-keyboard-response,120,233858,0.0-51.0-2.0,,,,delaylearn,learning,feedback_duration_window,IJ6C5IDrq0gBFRSUqRNXYAhVdaa2,IJ6C5IDrq0gBFRSUqRNXYAhVdaa2,,,,,,,,,,,,,,,,,,7000.0,,,,65cfd63f31c934ef41d14881,10:05:55,27/02/2024
html-keyboard-response,121,235371,0.0-51.0-3.0,,<div style='margin:auto;width: auto; font-size: 150%'><span style='font-weight: bold; font-size: 100px; color: green;'>+10 points!</span><br><br></div>,,delaylearn,learning,feedback_image_window,IJ6C5IDrq0gBFRSUqRNXYAhVdaa2,IJ6C5IDrq0gBFRSUqRNXYAhVdaa2,,,,,,,,,,,,,,,,,,,,,,65cfd63f31c934ef41d14881,10:05:55,27/02/2024
html-keyboard-response,122,237097,0.0-52.0,,"<div style=""font-size:100px;"">+</div>",,delaylearn,learning,ITI,IJ6C5IDrq0gBFRSUqRNXYAhVdaa2,IJ6C5IDrq0gBFRSUqRNXYAhVdaa2,,,,,,,,,,,,,,,,,,,1714.0,,,65cfd63f31c934ef41d14881,10:05:55,27/02/2024
html-keyboard-response,123,238642,0.0-53.0-0.0,1542.300000011921,"<div style=""display: flex; flex-direction: column; align-items: center; margin-top: -40px;""><img src=""images/pattern_5.png"" style=""width: 234px; height: 230px; margin-top: -50px;""><div style=""display: flex; justify-content: space-between; margin-top: 33px;""><img src=""images/choice_trial_13.png"" style=""width: 408px; height: 417px; margin-right: 200px;""><img src=""images/choice_trial_7.png"" style=""width: 408px; height: 417px;""></div></div>",j,delaylearn,learning,trial,IJ6C5IDrq0gBFRSUqRNXYAhVdaa2,IJ6C5IDrq0gBFRSUqRNXYAhVdaa2,5.0,images/choice_trial_13.png,images/choice_trial_7.png,images/pattern_5.png,j,j,750.0,13.0,7.0,4.0,1.0,23.0,1.0,1.0,7.0,160.0,,,,,,65cfd63f31c934ef41d14881,10:05:55,27/02/2024
html-keyboard-response,124,239660,0.0-53.0-1.0,,"<div style=""display: flex; flex-direction: column; align-items: center; margin-top: -40px;""><img src=""images/pattern_5.png"" style=""width: 234px; height: 230px; margin-top: -50px;""><div style=""display: flex; justify-content: space-between; margin-top: 33px;""><img src=""images/choice_trial_7.png"" style=""width: 408px; height: 417px; margin-left:608px;""></div></div>",,delaylearn,learning,display_response,IJ6C5IDrq0gBFRSUqRNXYAhVdaa2,IJ6C5IDrq0gBFRSUqRNXYAhVdaa2,,,,,,,,,,,,,,,,,chosen stimuli: images/choice_trial_7.png,,,,,65cfd63f31c934ef41d14881,10:05:55,27/02/2024
html-keyboard-response,125,240417,0.0-53.0-2.0,,,,delaylearn,learning,feedback_duration_window,IJ6C5IDrq0gBFRSUqRNXYAhVdaa2,IJ6C5IDrq0gBFRSUqRNXYAhVdaa2,,,,,,,,,,,,,,,,,,750.0,,,,65cfd63f31c934ef41d14881,10:05:55,27/02/2024
html-keyboard-response,126,241933,0.0-53.0-3.0,,<div style='margin:auto;width: auto; font-size: 150%'><span style='font-weight: bold; font-size: 100px; color: green;'>+10 points!</span><br><br></div>,,delaylearn,learning,feedback_image_window,IJ6C5IDrq0gBFRSUqRNXYAhVdaa2,IJ6C5IDrq0gBFRSUqRNXYAhVdaa2,,,,,,,,,,,,,,,,,,,,,,65cfd63f31c934ef41d14881,10:05:55,27/02/2024
html-keyboard-response,127,244245,0.0-54.0,,"<div style=""font-size:100px;"">+</div>",,delaylearn,learning,ITI,IJ6C5IDrq0gBFRSUqRNXYAhVdaa2,IJ6C5IDrq0gBFRSUqRNXYAhVdaa2,,,,,,,,,,,,,,,,,,,2306.0,,,65cfd63f31c934ef41d14881,10:05:55,27/02/2024
html-keyboard-response,128,245691,0.0-55.0-0.0,1443.699999988079,"<div style=""display: flex; flex-direction: column; align-items: center; margin-top: -40px;""><img src=""images/pattern_3.png"" style=""width: 234px; height: 230px; margin-top: -50px;""><div style=""display: flex; justify-content: space-between; margin-top: 33px;""><img src=""images/choice_trial_2.png"" style=""width: 408px; height: 417px; margin-right: 200px;""><img src=""images/choice_trial_16.png"" style=""width: 408px; height: 417px;""></div></div>",f,delaylearn,learning,trial,IJ6C5IDrq0gBFRSUqRNXYAhVdaa2,IJ6C5IDrq0gBFRSUqRNXYAhVdaa2,5.0,images/choice_trial_2.png,images/choice_trial_16.png,images/pattern_3.png,j,j,7000.0,2.0,16.0,2.0,1.0,24.0,0.0,0.0,2.0,160.0,,,,,,65cfd63f31c934ef41d14881,10:05:55,27/02/2024
html-keyboard-response,129,246710,0.0-55.0-1.0,,"<div style=""display: flex; flex-direction: column; align-items: center; margin-top: -40px;""><img src=""images/pattern_3.png"" style=""width: 234px; height: 230px; margin-top: -50px;""><div style=""display: flex; justify-content: space-between; margin-top: 33px;""><img src=""images/choice_trial_2.png"" style=""width: 408px; height: 417px; margin-right: 608px;""></div></div>",,delaylearn,learning,display_response,IJ6C5IDrq0gBFRSUqRNXYAhVdaa2,IJ6C5IDrq0gBFRSUqRNXYAhVdaa2,,,,,,,,,,,,,,,,,chosen stimuli: images/choice_trial_2.png,,,,,65cfd63f31c934ef41d14881,10:05:55,27/02/2024
html-keyboard-response,130,253719,0.0-55.0-2.0,,,,delaylearn,learning,feedback_duration_window,IJ6C5IDrq0gBFRSUqRNXYAhVdaa2,IJ6C5IDrq0gBFRSUqRNXYAhVdaa2,,,,,,,,,,,,,,,,,,7000.0,,,,65cfd63f31c934ef41d14881,10:05:55,27/02/2024
html-keyboard-response,131,255234,0.0-55.0-3.0,,<div style='margin:auto;width: auto; font-size: 150%'><span style='font-weight: bold; font-size: 100px; color: red;'>0 points!</span><br><br></div>,,delaylearn,learning,feedback_image_window,IJ6C5IDrq0gBFRSUqRNXYAhVdaa2,IJ6C5IDrq0gBFRSUqRNXYAhVdaa2,,,,,,,,,,,,,,,,,,,,,,65cfd63f31c934ef41d14881,10:05:55,27/02/2024
lmdlab-html-vas-response,132,258620,0.0-56.0-0.0,1854.0,*How <b><u>confident</u></b> are you feeling about your answers at this moment?*,0.6111111111111112,rewlearn,rate_confidence,,IJ6C5IDrq0gBFRSUqRNXYAhVdaa2,IJ6C5IDrq0gBFRSUqRNXYAhVdaa2,,,,,,,,,,,,,,,,,,,,"['No confidence', 'Complete confidence']",,65cfd63f31c934ef41d14881,10:05:55,27/02/2024
lmdlab-rest-trial-limit,133,262829,0.0-56.0-1.0,2697.099999964237,"<div style=""font-size:40px;""><b>Please take a break!</b><br><br><br><br><p>Great work: you earned undefined points.<br><br><br><p>You have completed part(s) 1 of 6.<br><br><br><br>When you are ready to continue<br><br><br>please click the button.</p><br><br>",0,delaylearn,learning,break,IJ6C5IDrq0gBFRSUqRNXYAhVdaa2,IJ6C5IDrq0gBFRSUqRNXYAhVdaa2,,,,,,,,,,,,,,,,,,,,,0.0,65cfd63f31c934ef41d14881,10:05:55,27/02/2024
html-keyboard-response,134,265832,0.0-56.0-2.0,,"<div style=""font-size:100px;"">+</div>",,delaylearn,learning,pre_fixation,IJ6C5IDrq0gBFRSUqRNXYAhVdaa2,,,,,,,,,,,,,,,,,,,,,,,65cfd63f31c934ef41d14881,10:05:55,27/02/2024
lmdlab-html-vas-response,135,268521,0.0-56.0-3.0-0.0,1671.0,How happy are you right now?,0.9490740740740741,delaylearn,learning,mood_baseline,IJ6C5IDrq0gBFRSUqRNXYAhVdaa2,IJ6C5IDrq0gBFRSUqRNXYAhVdaa2,,,,,,,,,,,,,,,,,,,,"['Very unhappy', 'Very happy']",,65cfd63f31c934ef41d14881,10:05:55,27/02/2024
html-keyboard-response,136,270027,0.0-56.0-3.0-1.0,,,,,,mood_baseline_fixation,IJ6C5IDrq0gBFRSUqRNXYAhVdaa2,,,,,,,,,,,,,,,,,,,,,,,65cfd63f31c934ef41d14881,10:05:55,27/02/2024
html-keyboard-response,137,272203,0.0-57.0,,"<div style=""font-size:100px;"">+</div>",,delaylearn,learning,ITI,IJ6C5IDrq0gBFRSUqRNXYAhVdaa2,IJ6C5IDrq0gBFRSUqRNXYAhVdaa2,,,,,,,,,,,,,,,,,,,2172.0,,,65cfd63f31c934ef41d14881,10:05:55,27/02/2024
html-keyboard-response,138,273298,0.0-58.0-0.0,1092.199999988079,"<div style=""display: flex; flex-direction: column; align-items: center; margin-top: -40px;""><img src=""images/pattern_7.png"" style=""width: 234px; height: 230px; margin-top: -50px;""><div style=""display: flex; justify-content: space-between; margin-top: 33px;""><img src=""images/choice_trial_10.png"" style=""width: 408px; height: 417px; margin-right: 200px;""><img src=""images/choice_trial_8.png"" style=""width: 408px; height: 417px;""></div></div>",f,delaylearn,learning,trial,IJ6C5IDrq0gBFRSUqRNXYAhVdaa2,IJ6C5IDrq0gBFRSUqRNXYAhVdaa2,5.0,images/choice_trial_10.png,images/choice_trial_8.png,images/pattern_7.png,j,j,750.0,10.0,8.0,6.0,1.0,25.0,0.0,0.0,10.0,160.0,,,,,,65cfd63f31c934ef41d14881,10:05:55,27/02/2024
html-keyboard-response,139,274309,0.0-58.0-1.0,,"<div style=""display: flex; flex-direction: column; align-items: center; margin-top: -40px;""><img src=""images/pattern_7.png"" style=""width: 234px; height: 230px; margin-top: -50px;""><div style=""display: flex; justify-content: space-between; margin-top: 33px;""><img src=""images/choice_trial_10.png"" style=""width: 408px; height: 417px; margin-right: 608px;""></div></div>",,delaylearn,learning,display_response,IJ6C5IDrq0gBFRSUqRNXYAhVdaa2,IJ6C5IDrq0gBFRSUqRNXYAhVdaa2,,,,,,,,,,,,,,,,,chosen stimuli: images/choice_trial_10.png,,,,,65cfd63f31c934ef41d14881,10:05:55,27/02/2024
html-keyboard-response,140,275064,0.0-58.0-2.0,,,,delaylearn,learning,feedback_duration_window,IJ6C5IDrq0gBFRSUqRNXYAhVdaa2,IJ6C5IDrq0gBFRSUqRNXYAhVdaa2,,,,,,,,,,,,,,,,,,750.0,,,,65cfd63f31c934ef41d14881,10:05:55,27/02/2024
html-keyboard-response,141,276568,0.0-58.0-3.0,,<div style='margin:auto;width: auto; font-size: 150%'><span style='font-weight: bold; font-size: 100px; color: red;'>0 points!</span><br><br></div>,,delaylearn,learning,feedback_image_window,IJ6C5IDrq0gBFRSUqRNXYAhVdaa2,IJ6C5IDrq0gBFRSUqRNXYAhVdaa2,,,,,,,,,,,,,,,,,,,,,,65cfd63f31c934ef41d14881,10:05:55,27/02/2024
html-keyboard-response,142,277082,0.0-59.0-0.0,,,,,,mood_trial_fixation,IJ6C5IDrq0gBFRSUqRNXYAhVdaa2,,,,,,,,,,,,,,,,,,,,,,,65cfd63f31c934ef41d14881,10:05:55,27/02/2024
lmdlab-html-vas-response,143,279975,0.0-59.0-1.0,1876.0,How happy are you right now?,0.4837962962962963,delaylearn,learning,mood_trial,IJ6C5IDrq0gBFRSUqRNXYAhVdaa2,IJ6C5IDrq0gBFRSUqRNXYAhVdaa2,,,,,,,,,,,,,,,,,,,,"['Very unhappy', 'Very happy']",,65cfd63f31c934ef41d14881,10:05:55,27/02/2024
html-keyboard-response,144,282398,0.0-60.0,,"<div style=""font-size:100px;"">+</div>",,delaylearn,learning,ITI,IJ6C5IDrq0gBFRSUqRNXYAhVdaa2,IJ6C5IDrq0gBFRSUqRNXYAhVdaa2,,,,,,,,,,,,,,,,,,,2415.0,,,65cfd63f31c934ef41d14881,10:05:55,27/02/2024
html-keyboard-response,145,284368,0.0-61.0-0.0,1968.0999999642372,"<div style=""display: flex; flex-direction: column; align-items: center; margin-top: -40px;""><img src=""images/pattern_1.png"" style=""width: 234px; height: 230px; margin-top: -50px;""><div style=""display: flex; justify-content: space-between; margin-top: 33px;""><img src=""images/choice_trial_6.png"" style=""width: 408px; height: 417px; margin-right: 200px;""><img src=""images/choice_trial_15.png"" style=""width: 408px; height: 417px;""></div></div>",j,delaylearn,learning,trial,IJ6C5IDrq0gBFRSUqRNXYAhVdaa2,IJ6C5IDrq0gBFRSUqRNXYAhVdaa2,5.0,images/choice_trial_6.png,images/choice_trial_15.png,images/pattern_1.png,f,f,7000.0,6.0,15.0,1.0,0.0,26.0,0.0,0.0,15.0,160.0,,,,,,65cfd63f31c934ef41d14881,10:05:55,27/02/2024
html-keyboard-response,146,285380,0.0-61.0-1.0,,"<div style=""display: flex; flex-direction: column; align-items: center; margin-top: -40px;""><img src=""images/pattern_1.png"" style=""width: 234px; height: 230px; margin-top: -50px;""><div style=""display: flex; justify-content: space-between; margin-top: 33px;""><img src=""images/choice_trial_15.png"" style=""width: 408px; height: 417px; margin-left:608px;""></div></div>",,delaylearn,learning,display_response,IJ6C5IDrq0gBFRSUqRNXYAhVdaa2,IJ6C5IDrq0gBFRSUqRNXYAhVdaa2,,,,,,,,,,,,,,,,,chosen stimuli: images/choice_trial_15.png,,,,,65cfd63f31c934ef41d14881,10:05:55,27/02/2024
html-keyboard-response,147,292390,0.0-61.0-2.0,,,,delaylearn,learning,feedback_duration_window,IJ6C5IDrq0gBFRSUqRNXYAhVdaa2,IJ6C5IDrq0gBFRSUqRNXYAhVdaa2,,,,,,,,,,,,,,,,,,7000.0,,,,65cfd63f31c934ef41d14881,10:05:55,27/02/2024
html-keyboard-response,148,293902,0.0-61.0-3.0,,<div style='margin:auto;width: auto; font-size: 150%'><span style='font-weight: bold; font-size: 100px; color: red;'>0 points!</span><br><br></div>,,delaylearn,learning,feedback_image_window,IJ6C5IDrq0gBFRSUqRNXYAhVdaa2,IJ6C5IDrq0gBFRSUqRNXYAhVdaa2,,,,,,,,,,,,,,,,,,,,,,65cfd63f31c934ef41d14881,10:05:55,27/02/2024
html-keyboard-response,149,295894,0.0-62.0,,"<div style=""font-size:100px;"">+</div>",,delaylearn,learning,ITI,IJ6C5IDrq0gBFRSUqRNXYAhVdaa2,IJ6C5IDrq0gBFRSUqRNXYAhVdaa2,,,,,,,,,,,,,,,,,,,1982.0,,,65cfd63f31c934ef41d14881,10:05:55,27/02/2024
html-keyboard-response,150,297187,0.0-63.0-0.0,1290.4000000357628,"<div style=""display: flex; flex-direction: column; align-items: center; margin-top: -40px;""><img src=""images/pattern_5.png"" style=""width: 234px; height: 230px; margin-top: -50px;""><div style=""display: flex; justify-content: space-between; margin-top: 33px;""><img src=""images/choice_trial_7.png"" style=""width: 408px; height: 417px; margin-right: 200px;""><img src=""images/choice_trial_13.png"" style=""width: 408px; height: 417px;""></div></div>",f,delaylearn,learning,trial,IJ6C5IDrq0gBFRSUqRNXYAhVdaa2,IJ6C5IDrq0gBFRSUqRNXYAhVdaa2,5.0,images/choice_trial_7.png,images/choice_trial_13.png,images/pattern_5.png,f,f,750.0,7.0,13.0,4.0,0.0,27.0,1.0,1.0,7.0,170.0,,,,,,65cfd63f31c934ef41d14881,10:05:55,27/02/2024
html-keyboard-response,151,298193,0.0-63.0-1.0,,"<div style=""display: flex; flex-direction: column; align-items: center; margin-top: -40px;""><img src=""images/pattern_5.png"" style=""width: 234px; height: 230px; margin-top: -50px;""><div style=""display: flex; justify-content: space-between; margin-top: 33px;""><img src=""images/choice_trial_7.png"" style=""width: 408px; height: 417px; margin-right: 608px;""></div></div>",,delaylearn,learning,display_response,IJ6C5IDrq0gBFRSUqRNXYAhVdaa2,IJ6C5IDrq0gBFRSUqRNXYAhVdaa2,,,,,,,,,,,,,,,,,chosen stimuli: images/choice_trial_7.png,,,,,65cfd63f31c934ef41d14881,10:05:55,27/02/2024
html-keyboard-response,152,298958,0.0-63.0-2.0,,,,delaylearn,learning,feedback_duration_window,IJ6C5IDrq0gBFRSUqRNXYAhVdaa2,IJ6C5IDrq0gBFRSUqRNXYAhVdaa2,,,,,,,,,,,,,,,,,,750.0,,,,65cfd63f31c934ef41d14881,10:05:55,27/02/2024
html-keyboard-response,153,300474,0.0-63.0-3.0,,<div style='margin:auto;width: auto; font-size: 150%'><span style='font-weight: bold; font-size: 100px; color: green;'>+10 points!</span><br><br></div>,,delaylearn,learning,feedback_image_window,IJ6C5IDrq0gBFRSUqRNXYAhVdaa2,IJ6C5IDrq0gBFRSUqRNXYAhVdaa2,,,,,,,,,,,,,,,,,,,,,,65cfd63f31c934ef41d14881,10:05:55,27/02/2024
html-keyboard-response,154,302345,0.0-64.0,,"<div style=""font-size:100px;"">+</div>",,delaylearn,learning,ITI,IJ6C5IDrq0gBFRSUqRNXYAhVdaa2,IJ6C5IDrq0gBFRSUqRNXYAhVdaa2,,,,,,,,,,,,,,,,,,,1862.0,,,65cfd63f31c934ef41d14881,10:05:55,27/02/2024
html-keyboard-response,155,303730,0.0-65.0-0.0,1381.699999988079,"<div style=""display: flex; flex-direction: column; align-items: center; margin-top: -40px;""><img src=""images/pattern_6.png"" style=""width: 234px; height: 230px; margin-top: -50px;""><div style=""display: flex; justify-content: space-between; margin-top: 33px;""><img src=""images/choice_trial_9.png"" style=""width: 408px; height: 417px; margin-right: 200px;""><img src=""images/choice_trial_14.png"" style=""width: 408px; height: 417px;""></div></div>",j,delaylearn,learning,trial,IJ6C5IDrq0gBFRSUqRNXYAhVdaa2,IJ6C5IDrq0gBFRSUqRNXYAhVdaa2,5.0,images/choice_trial_9.png,images/choice_trial_14.png,images/pattern_6.png,j,j,750.0,9.0,14.0,5.0,1.0,28.0,1.0,1.0,14.0,180.0,,,,,,65cfd63f31c934ef41d14881,10:05:55,27/02/2024
html-keyboard-response,156,304745,0.0-65.0-1.0,,"<div style=""display: flex; flex-direction: column; align-items: center; margin-top: -40px;""><img src=""images/pattern_6.png"" style=""width: 234px; height: 230px; margin-top: -50px;""><div style=""display: flex; justify-content: space-between; margin-top: 33px;""><img src=""images/choice_trial_14.png"" style=""width: 408px; height: 417px; margin-left:608px;""></div></div>",,delaylearn,learning,display_response,IJ6C5IDrq0gBFRSUqRNXYAhVdaa2,IJ6C5IDrq0gBFRSUqRNXYAhVdaa2,,,,,,,,,,,,,,,,,chosen stimuli: images/choice_trial_14.png,,,,,65cfd63f31c934ef41d14881,10:05:55,27/02/2024
html-keyboard-response,157,305500,0.0-65.0-2.0,,,,delaylearn,learning,feedback_duration_window,IJ6C5IDrq0gBFRSUqRNXYAhVdaa2,IJ6C5IDrq0gBFRSUqRNXYAhVdaa2,,,,,,,,,,,,,,,,,,750.0,,,,65cfd63f31c934ef41d14881,10:05:55,27/02/2024
html-keyboard-response,158,307008,0.0-65.0-3.0,,<div style='margin:auto;width: auto; font-size: 150%'><span style='font-weight: bold; font-size: 100px; color: green;'>+10 points!</span><br><br></div>,,delaylearn,learning,feedback_image_window,IJ6C5IDrq0gBFRSUqRNXYAhVdaa2,IJ6C5IDrq0gBFRSUqRNXYAhVdaa2,,,,,,,,,,,,,,,,,,,,,,65cfd63f31c934ef41d14881,10:05:55,27/02/2024
html-keyboard-response,159,307517,0.0-66.0-0.0,,,,,,mood_trial_fixation,IJ6C5IDrq0gBFRSUqRNXYAhVdaa2,,,,,,,,,,,,,,,,,,,,,,,65cfd63f31c934ef41d14881,10:05:55,27/02/2024
lmdlab-html-vas-response,160,310677,0.0-66.0-1.0,2156.0,How happy are you right now?,0.9282407407407407,delaylearn,learning,mood_trial,IJ6C5IDrq0gBFRSUqRNXYAhVdaa2,IJ6C5IDrq0gBFRSUqRNXYAhVdaa2,,,,,,,,,,,,,,,,,,,,"['Very unhappy', 'Very happy']",,65cfd63f31c934ef41d14881,10:05:55,27/02/2024
html-keyboard-response,161,312748,0.0-67.0,,"<div style=""font-size:100px;"">+</div>",,delaylearn,learning,ITI,IJ6C5IDrq0gBFRSUqRNXYAhVdaa2,IJ6C5IDrq0gBFRSUqRNXYAhVdaa2,,,,,,,,,,,,,,,,,,,2055.0,,,65cfd63f31c934ef41d14881,10:05:55,27/02/2024
html-keyboard-response,162,313885,0.0-68.0-0.0,1134.800000011921,"<div style=""display: flex; flex-direction: column; align-items: center; margin-top: -40px;""><img src=""images/pattern_4.png"" style=""width: 234px; height: 230px; margin-top: -50px;""><div style=""display: flex; justify-content: space-between; margin-top: 33px;""><img src=""images/choice_trial_4.png"" style=""width: 408px; height: 417px; margin-right: 200px;""><img src=""images/choice_trial_11.png"" style=""width: 408px; height: 417px;""></div></div>",j,delaylearn,learning,trial,IJ6C5IDrq0gBFRSUqRNXYAhVdaa2,IJ6C5IDrq0gBFRSUqRNXYAhVdaa2,5.0,images/choice_trial_4.png,images/choice_trial_11.png,images/pattern_4.png,j,j,7000.0,4.0,11.0,3.0,1.0,29.0,1.0,1.0,11.0,190.0,,,,,,65cfd63f31c934ef41d14881,10:05:55,27/02/2024
html-keyboard-response,163,314890,0.0-68.0-1.0,,"<div style=""display: flex; flex-direction: column; align-items: center; margin-top: -40px;""><img src=""images/pattern_4.png"" style=""width: 234px; height: 230px; margin-top: -50px;""><div style=""display: flex; justify-content: space-between; margin-top: 33px;""><img src=""images/choice_trial_11.png"" style=""width: 408px; height: 417px; margin-left:608px;""></div></div>",,delaylearn,learning,display_response,IJ6C5IDrq0gBFRSUqRNXYAhVdaa2,IJ6C5IDrq0gBFRSUqRNXYAhVdaa2,,,,,,,,,,,,,,,,,chosen stimuli: images/choice_trial_11.png,,,,,65cfd63f31c934ef41d14881,10:05:55,27/02/2024
html-keyboard-response,164,321897,0.0-68.0-2.0,,,,delaylearn,learning,feedback_duration_window,IJ6C5IDrq0gBFRSUqRNXYAhVdaa2,IJ6C5IDrq0gBFRSUqRNXYAhVdaa2,,,,,,,,,,,,,,,,,,7000.0,,,,65cfd63f31c934ef41d14881,10:05:55,27/02/2024
html-keyboard-response,165,323412,0.0-68.0-3.0,,<div style='margin:auto;width: auto; font-size: 150%'><span style='font-weight: bold; font-size: 100px; color: green;'>+10 points!</span><br><br></div>,,delaylearn,learning,feedback_image_window,IJ6C5IDrq0gBFRSUqRNXYAhVdaa2,IJ6C5IDrq0gBFRSUqRNXYAhVdaa2,,,,,,,,,,,,,,,,,,,,,,65cfd63f31c934ef41d14881,10:05:55,27/02/2024
html-keyboard-response,166,324974,0.0-69.0,,"<div style=""font-size:100px;"">+</div>",,delaylearn,learning,ITI,IJ6C5IDrq0gBFRSUqRNXYAhVdaa2,IJ6C5IDrq0gBFRSUqRNXYAhVdaa2,,,,,,,,,,,,,,,,,,,1559.0,,,65cfd63f31c934ef41d14881,10:05:55,27/02/2024
html-keyboard-response,167,326369,0.0-70.0-0.0,1391.6000000238419,"<div style=""display: flex; flex-direction: column; align-items: center; margin-top: -40px;""><img src=""images/pattern_3.png"" style=""width: 234px; height: 230px; margin-top: -50px;""><div style=""display: flex; justify-content: space-between; margin-top: 33px;""><img src=""images/choice_trial_2.png"" style=""width: 408px; height: 417px; margin-right: 200px;""><img src=""images/choice_trial_16.png"" style=""width: 408px; height: 417px;""></div></div>",j,delaylearn,learning,trial,IJ6C5IDrq0gBFRSUqRNXYAhVdaa2,IJ6C5IDrq0gBFRSUqRNXYAhVdaa2,5.0,images/choice_trial_2.png,images/choice_trial_16.png,images/pattern_3.png,j,j,7000.0,2.0,16.0,2.0,1.0,30.0,1.0,1.0,16.0,200.0,,,,,,65cfd63f31c934ef41d14881,10:05:55,27/02/2024
html-keyboard-response,168,327381,0.0-70.0-1.0,,"<div style=""display: flex; flex-direction: column; align-items: center; margin-top: -40px;""><img src=""images/pattern_3.png"" style=""width: 234px; height: 230px; margin-top: -50px;""><div style=""display: flex; justify-content: space-between; margin-top: 33px;""><img src=""images/choice_trial_16.png"" style=""width: 408px; height: 417px; margin-left:608px;""></div></div>",,delaylearn,learning,display_response,IJ6C5IDrq0gBFRSUqRNXYAhVdaa2,IJ6C5IDrq0gBFRSUqRNXYAhVdaa2,,,,,,,,,,,,,,,,,chosen stimuli: images/choice_trial_16.png,,,,,65cfd63f31c934ef41d14881,10:05:55,27/02/2024
html-keyboard-response,169,334394,0.0-70.0-2.0,,,,delaylearn,learning,feedback_duration_window,IJ6C5IDrq0gBFRSUqRNXYAhVdaa2,IJ6C5IDrq0gBFRSUqRNXYAhVdaa2,,,,,,,,,,,,,,,,,,7000.0,,,,65cfd63f31c934ef41d14881,10:05:55,27/02/2024
html-keyboard-response,170,335897,0.0-70.0-3.0,,<div style='margin:auto;width: auto; font-size: 150%'><span style='font-weight: bold; font-size: 100px; color: green;'>+10 points!</span><br><br></div>,,delaylearn,learning,feedback_image_window,IJ6C5IDrq0gBFRSUqRNXYAhVdaa2,IJ6C5IDrq0gBFRSUqRNXYAhVdaa2,,,,,,,,,,,,,,,,,,,,,,65cfd63f31c934ef41d14881,10:05:55,27/02/2024
html-keyboard-response,171,338206,0.0-71.0,,"<div style=""font-size:100px;"">+</div>",,delaylearn,learning,ITI,IJ6C5IDrq0gBFRSUqRNXYAhVdaa2,IJ6C5IDrq0gBFRSUqRNXYAhVdaa2,,,,,,,,,,,,,,,,,,,2294.0,,,65cfd63f31c934ef41d14881,10:05:55,27/02/2024
html-keyboard-response,172,339430,0.0-72.0-0.0,1220.4000000357628,"<div style=""display: flex; flex-direction: column; align-items: center; margin-top: -40px;""><img src=""images/pattern_5.png"" style=""width: 234px; height: 230px; margin-top: -50px;""><div style=""display: flex; justify-content: space-between; margin-top: 33px;""><img src=""images/choice_trial_7.png"" style=""width: 408px; height: 417px; margin-right: 200px;""><img src=""images/choice_trial_13.png"" style=""width: 408px; height: 417px;""></div></div>",f,delaylearn,learning,trial,IJ6C5IDrq0gBFRSUqRNXYAhVdaa2,IJ6C5IDrq0gBFRSUqRNXYAhVdaa2,5.0,images/choice_trial_7.png,images/choice_trial_13.png,images/pattern_5.png,j,f,750.0,7.0,13.0,4.0,0.0,31.0,1.0,0.0,7.0,200.0,,,,,,65cfd63f31c934ef41d14881,10:05:55,27/02/2024
html-keyboard-response,173,340441,0.0-72.0-1.0,,"<div style=""display: flex; flex-direction: column; align-items: center; margin-top: -40px;""><img src=""images/pattern_5.png"" style=""width: 234px; height: 230px; margin-top: -50px;""><div style=""display: flex; justify-content: space-between; margin-top: 33px;""><img src=""images/choice_trial_7.png"" style=""width: 408px; height: 417px; margin-right: 608px;""></div></div>",,delaylearn,learning,display_response,IJ6C5IDrq0gBFRSUqRNXYAhVdaa2,IJ6C5IDrq0gBFRSUqRNXYAhVdaa2,,,,,,,,,,,,,,,,,chosen stimuli: images/choice_trial_7.png,,,,,65cfd63f31c934ef41d14881,10:05:55,27/02/2024
html-keyboard-response,174,341194,0.0-72.0-2.0,,,,delaylearn,learning,feedback_duration_window,IJ6C5IDrq0gBFRSUqRNXYAhVdaa2,IJ6C5IDrq0gBFRSUqRNXYAhVdaa2,,,,,,,,,,,,,,,,,,750.0,,,,65cfd63f31c934ef41d14881,10:05:55,27/02/2024
html-keyboard-response,175,342707,0.0-72.0-3.0,,<div style='margin:auto;width: auto; font-size: 150%'><span style='font-weight: bold; font-size: 100px; color: red;'>0 points!</span><br><br></div>,,delaylearn,learning,feedback_image_window,IJ6C5IDrq0gBFRSUqRNXYAhVdaa2,IJ6C5IDrq0gBFRSUqRNXYAhVdaa2,,,,,,,,,,,,,,,,,,,,,,65cfd63f31c934ef41d14881,10:05:55,27/02/2024
html-keyboard-response,176,344862,0.0-73.0,,"<div style=""font-size:100px;"">+</div>",,delaylearn,learning,ITI,IJ6C5IDrq0gBFRSUqRNXYAhVdaa2,IJ6C5IDrq0gBFRSUqRNXYAhVdaa2,,,,,,,,,,,,,,,,,,,2149.0,,,65cfd63f31c934ef41d14881,10:05:55,27/02/2024
html-keyboard-response,177,346187,0.0-74.0-0.0,1321.8999999761581,"<div style=""display: flex; flex-direction: column; align-items: center; margin-top: -40px;""><img src=""images/pattern_1.png"" style=""width: 234px; height: 230px; margin-top: -50px;""><div style=""display: flex; justify-content: space-between; margin-top: 33px;""><img src=""images/choice_trial_6.png"" style=""width: 408px; height: 417px; margin-right: 200px;""><img src=""images/choice_trial_15.png"" style=""width: 408px; height: 417px;""></div></div>",j,delaylearn,learning,trial,IJ6C5IDrq0gBFRSUqRNXYAhVdaa2,IJ6C5IDrq0gBFRSUqRNXYAhVdaa2,5.0,images/choice_trial_6.png,images/choice_trial_15.png,images/pattern_1.png,f,f,7000.0,6.0,15.0,1.0,0.0,32.0,0.0,0.0,15.0,200.0,,,,,,65cfd63f31c934ef41d14881,10:05:55,27/02/2024
html-keyboard-response,178,347197,0.0-74.0-1.0,,"<div style=""display: flex; flex-direction: column; align-items: center; margin-top: -40px;""><img src=""images/pattern_1.png"" style=""width: 234px; height: 230px; margin-top: -50px;""><div style=""display: flex; justify-content: space-between; margin-top: 33px;""><img src=""images/choice_trial_15.png"" style=""width: 408px; height: 417px; margin-left:608px;""></div></div>",,delaylearn,learning,display_response,IJ6C5IDrq0gBFRSUqRNXYAhVdaa2,IJ6C5IDrq0gBFRSUqRNXYAhVdaa2,,,,,,,,,,,,,,,,,chosen stimuli: images/choice_trial_15.png,,,,,65cfd63f31c934ef41d14881,10:05:55,27/02/2024
html-keyboard-response,179,354202,0.0-74.0-2.0,,,,delaylearn,learning,feedback_duration_window,IJ6C5IDrq0gBFRSUqRNXYAhVdaa2,IJ6C5IDrq0gBFRSUqRNXYAhVdaa2,,,,,,,,,,,,,,,,,,7000.0,,,,65cfd63f31c934ef41d14881,10:05:55,27/02/2024
html-keyboard-response,180,355708,0.0-74.0-3.0,,<div style='margin:auto;width: auto; font-size: 150%'><span style='font-weight: bold; font-size: 100px; color: red;'>0 points!</span><br><br></div>,,delaylearn,learning,feedback_image_window,IJ6C5IDrq0gBFRSUqRNXYAhVdaa2,IJ6C5IDrq0gBFRSUqRNXYAhVdaa2,,,,,,,,,,,,,,,,,,,,,,65cfd63f31c934ef41d14881,10:05:55,27/02/2024
html-keyboard-response,181,356210,0.0-75.0-0.0,,,,,,mood_trial_fixation,IJ6C5IDrq0gBFRSUqRNXYAhVdaa2,,,,,,,,,,,,,,,,,,,,,,,65cfd63f31c934ef41d14881,10:05:55,27/02/2024
lmdlab-html-vas-response,182,359147,0.0-75.0-1.0,1921.0,How happy are you right now?,0.3773148148148148,delaylearn,learning,mood_trial,IJ6C5IDrq0gBFRSUqRNXYAhVdaa2,IJ6C5IDrq0gBFRSUqRNXYAhVdaa2,,,,,,,,,,,,,,,,,,,,"['Very unhappy', 'Very happy']",,65cfd63f31c934ef41d14881,10:05:55,27/02/2024
html-keyboard-response,183,361182,0.0-76.0,,"<div style=""font-size:100px;"">+</div>",,delaylearn,learning,ITI,IJ6C5IDrq0gBFRSUqRNXYAhVdaa2,IJ6C5IDrq0gBFRSUqRNXYAhVdaa2,,,,,,,,,,,,,,,,,,,2029.0,,,65cfd63f31c934ef41d14881,10:05:55,27/02/2024
html-keyboard-response,184,364098,0.0-77.0-0.0,2912.800000011921,"<div style=""display: flex; flex-direction: column; align-items: center; margin-top: -40px;""><img src=""images/pattern_6.png"" style=""width: 234px; height: 230px; margin-top: -50px;""><div style=""display: flex; justify-content: space-between; margin-top: 33px;""><img src=""images/choice_trial_14.png"" style=""width: 408px; height: 417px; margin-right: 200px;""><img src=""images/choice_trial_9.png"" style=""width: 408px; height: 417px;""></div></div>",f,delaylearn,learning,trial,IJ6C5IDrq0gBFRSUqRNXYAhVdaa2,IJ6C5IDrq0gBFRSUqRNXYAhVdaa2,5.0,images/choice_trial_14.png,images/choice_trial_9.png,images/pattern_6.png,j,f,750.0,14.0,9.0,5.0,0.0,33.0,1.0,0.0,14.0,200.0,,,,,,65cfd63f31c934ef41d14881,10:05:55,27/02/2024
html-keyboard-response,185,365106,0.0-77.0-1.0,,"<div style=""display: flex; flex-direction: column; align-items: center; margin-top: -40px;""><img src=""images/pattern_6.png"" style=""width: 234px; height: 230px; margin-top: -50px;""><div style=""display: flex; justify-content: space-between; margin-top: 33px;""><img src=""images/choice_trial_14.png"" style=""width: 408px; height: 417px; margin-right: 608px;""></div></div>",,delaylearn,learning,display_response,IJ6C5IDrq0gBFRSUqRNXYAhVdaa2,IJ6C5IDrq0gBFRSUqRNXYAhVdaa2,,,,,,,,,,,,,,,,,chosen stimuli: images/choice_trial_14.png,,,,,65cfd63f31c934ef41d14881,10:05:55,27/02/2024
html-keyboard-response,186,365865,0.0-77.0-2.0,,,,delaylearn,learning,feedback_duration_window,IJ6C5IDrq0gBFRSUqRNXYAhVdaa2,IJ6C5IDrq0gBFRSUqRNXYAhVdaa2,,,,,,,,,,,,,,,,,,750.0,,,,65cfd63f31c934ef41d14881,10:05:55,27/02/2024
html-keyboard-response,187,367379,0.0-77.0-3.0,,<div style='margin:auto;width: auto; font-size: 150%'><span style='font-weight: bold; font-size: 100px; color: red;'>0 points!</span><br><br></div>,,delaylearn,learning,feedback_image_window,IJ6C5IDrq0gBFRSUqRNXYAhVdaa2,IJ6C5IDrq0gBFRSUqRNXYAhVdaa2,,,,,,,,,,,,,,,,,,,,,,65cfd63f31c934ef41d14881,10:05:55,27/02/2024
html-keyboard-response,188,369125,0.0-78.0,,"<div style=""font-size:100px;"">+</div>",,delaylearn,learning,ITI,IJ6C5IDrq0gBFRSUqRNXYAhVdaa2,IJ6C5IDrq0gBFRSUqRNXYAhVdaa2,,,,,,,,,,,,,,,,,,,1745.0,,,65cfd63f31c934ef41d14881,10:05:55,27/02/2024
html-keyboard-response,189,371176,0.0-79.0-0.0,2047.1000000238419,"<div style=""display: flex; flex-direction: column; align-items: center; margin-top: -40px;""><img src=""images/pattern_3.png"" style=""width: 234px; height: 230px; margin-top: -50px;""><div style=""display: flex; justify-content: space-between; margin-top: 33px;""><img src=""images/choice_trial_2.png"" style=""width: 408px; height: 417px; margin-right: 200px;""><img src=""images/choice_trial_16.png"" style=""width: 408px; height: 417px;""></div></div>",j,delaylearn,learning,trial,IJ6C5IDrq0gBFRSUqRNXYAhVdaa2,IJ6C5IDrq0gBFRSUqRNXYAhVdaa2,5.0,images/choice_trial_2.png,images/choice_trial_16.png,images/pattern_3.png,j,j,7000.0,2.0,16.0,2.0,1.0,34.0,1.0,1.0,16.0,210.0,,,,,,65cfd63f31c934ef41d14881,10:05:55,27/02/2024
html-keyboard-response,190,372193,0.0-79.0-1.0,,"<div style=""display: flex; flex-direction: column; align-items: center; margin-top: -40px;""><img src=""images/pattern_3.png"" style=""width: 234px; height: 230px; margin-top: -50px;""><div style=""display: flex; justify-content: space-between; margin-top: 33px;""><img src=""images/choice_trial_16.png"" style=""width: 408px; height: 417px; margin-left:608px;""></div></div>",,delaylearn,learning,display_response,IJ6C5IDrq0gBFRSUqRNXYAhVdaa2,IJ6C5IDrq0gBFRSUqRNXYAhVdaa2,,,,,,,,,,,,,,,,,chosen stimuli: images/choice_trial_16.png,,,,,65cfd63f31c934ef41d14881,10:05:55,27/02/2024
html-keyboard-response,191,379200,0.0-79.0-2.0,,,,delaylearn,learning,feedback_duration_window,IJ6C5IDrq0gBFRSUqRNXYAhVdaa2,IJ6C5IDrq0gBFRSUqRNXYAhVdaa2,,,,,,,,,,,,,,,,,,7000.0,,,,65cfd63f31c934ef41d14881,10:05:55,27/02/2024
html-keyboard-response,192,380715,0.0-79.0-3.0,,<div style='margin:auto;width: auto; font-size: 150%'><span style='font-weight: bold; font-size: 100px; color: green;'>+10 points!</span><br><br></div>,,delaylearn,learning,feedback_image_window,IJ6C5IDrq0gBFRSUqRNXYAhVdaa2,IJ6C5IDrq0gBFRSUqRNXYAhVdaa2,,,,,,,,,,,,,,,,,,,,,,65cfd63f31c934ef41d14881,10:05:55,27/02/2024
html-keyboard-response,193,383129,0.0-80.0,,"<div style=""font-size:100px;"">+</div>",,delaylearn,learning,ITI,IJ6C5IDrq0gBFRSUqRNXYAhVdaa2,IJ6C5IDrq0gBFRSUqRNXYAhVdaa2,,,,,,,,,,,,,,,,,,,2398.0,,,65cfd63f31c934ef41d14881,10:05:55,27/02/2024
html-keyboard-response,194,384318,0.0-81.0-0.0,1186.300000011921,"<div style=""display: flex; flex-direction: column; align-items: center; margin-top: -40px;""><img src=""images/pattern_4.png"" style=""width: 234px; height: 230px; margin-top: -50px;""><div style=""display: flex; justify-content: space-between; margin-top: 33px;""><img src=""images/choice_trial_4.png"" style=""width: 408px; height: 417px; margin-right: 200px;""><img src=""images/choice_trial_11.png"" style=""width: 408px; height: 417px;""></div></div>",j,delaylearn,learning,trial,IJ6C5IDrq0gBFRSUqRNXYAhVdaa2,IJ6C5IDrq0gBFRSUqRNXYAhVdaa2,5.0,images/choice_trial_4.png,images/choice_trial_11.png,images/pattern_4.png,f,j,7000.0,4.0,11.0,3.0,1.0,35.0,1.0,0.0,11.0,210.0,,,,,,65cfd63f31c934ef41d14881,10:05:55,27/02/2024
html-keyboard-response,195,385323,0.0-81.0-1.0,,"<div style=""display: flex; flex-direction: column; align-items: center; margin-top: -40px;""><img src=""images/pattern_4.png"" style=""width: 234px; height: 230px; margin-top: -50px;""><div style=""display: flex; justify-content: space-between; margin-top: 33px;""><img src=""images/choice_trial_11.png"" style=""width: 408px; height: 417px; margin-left:608px;""></div></div>",,delaylearn,learning,display_response,IJ6C5IDrq0gBFRSUqRNXYAhVdaa2,IJ6C5IDrq0gBFRSUqRNXYAhVdaa2,,,,,,,,,,,,,,,,,chosen stimuli: images/choice_trial_11.png,,,,,65cfd63f31c934ef41d14881,10:05:55,27/02/2024
html-keyboard-response,196,392334,0.0-81.0-2.0,,,,delaylearn,learning,feedback_duration_window,IJ6C5IDrq0gBFRSUqRNXYAhVdaa2,IJ6C5IDrq0gBFRSUqRNXYAhVdaa2,,,,,,,,,,,,,,,,,,7000.0,,,,65cfd63f31c934ef41d14881,10:05:55,27/02/2024
html-keyboard-response,197,393843,0.0-81.0-3.0,,<div style='margin:auto;width: auto; font-size: 150%'><span style='font-weight: bold; font-size: 100px; color: red;'>0 points!</span><br><br></div>,,delaylearn,learning,feedback_image_window,IJ6C5IDrq0gBFRSUqRNXYAhVdaa2,IJ6C5IDrq0gBFRSUqRNXYAhVdaa2,,,,,,,,,,,,,,,,,,,,,,65cfd63f31c934ef41d14881,10:05:55,27/02/2024
html-keyboard-response,198,396347,0.0-82.0,,"<div style=""font-size:100px;"">+</div>",,delaylearn,learning,ITI,IJ6C5IDrq0gBFRSUqRNXYAhVdaa2,IJ6C5IDrq0gBFRSUqRNXYAhVdaa2,,,,,,,,,,,,,,,,,,,2488.0,,,65cfd63f31c934ef41d14881,10:05:55,27/02/2024
html-keyboard-response,199,397643,0.0-83.0-0.0,1292.8999999761581,"<div style=""display: flex; flex-direction: column; align-items: center; margin-top: -40px;""><img src=""images/pattern_7.png"" style=""width: 234px; height: 230px; margin-top: -50px;""><div style=""display: flex; justify-content: space-between; margin-top: 33px;""><img src=""images/choice_trial_8.png"" style=""width: 408px; height: 417px; margin-right: 200px;""><img src=""images/choice_trial_10.png"" style=""width: 408px; height: 417px;""></div></div>",j,delaylearn,learning,trial,IJ6C5IDrq0gBFRSUqRNXYAhVdaa2,IJ6C5IDrq0gBFRSUqRNXYAhVdaa2,5.0,images/choice_trial_8.png,images/choice_trial_10.png,images/pattern_7.png,f,f,750.0,8.0,10.0,6.0,0.0,36.0,0.0,0.0,10.0,210.0,,,,,,65cfd63f31c934ef41d14881,10:05:55,27/02/2024
html-keyboard-response,200,398646,0.0-83.0-1.0,,"<div style=""display: flex; flex-direction: column; align-items: center; margin-top: -40px;""><img src=""images/pattern_7.png"" style=""width: 234px; height: 230px; margin-top: -50px;""><div style=""display: flex; justify-content: space-between; margin-top: 33px;""><img src=""images/choice_trial_10.png"" style=""width: 408px; height: 417px; margin-left:608px;""></div></div>",,delaylearn,learning,display_response,IJ6C5IDrq0gBFRSUqRNXYAhVdaa2,IJ6C5IDrq0gBFRSUqRNXYAhVdaa2,,,,,,,,,,,,,,,,,chosen stimuli: images/choice_trial_10.png,,,,,65cfd63f31c934ef41d14881,10:05:55,27/02/2024
html-keyboard-response,201,399402,0.0-83.0-2.0,,,,delaylearn,learning,feedback_duration_window,IJ6C5IDrq0gBFRSUqRNXYAhVdaa2,IJ6C5IDrq0gBFRSUqRNXYAhVdaa2,,,,,,,,,,,,,,,,,,750.0,,,,65cfd63f31c934ef41d14881,10:05:55,27/02/2024
html-keyboard-response,202,400912,0.0-83.0-3.0,,<div style='margin:auto;width: auto; font-size: 150%'><span style='font-weight: bold; font-size: 100px; color: red;'>0 points!</span><br><br></div>,,delaylearn,learning,feedback_image_window,IJ6C5IDrq0gBFRSUqRNXYAhVdaa2,IJ6C5IDrq0gBFRSUqRNXYAhVdaa2,,,,,,,,,,,,,,,,,,,,,,65cfd63f31c934ef41d14881,10:05:55,27/02/2024
html-keyboard-response,203,403333,0.0-84.0,,"<div style=""font-size:100px;"">+</div>",,delaylearn,learning,ITI,IJ6C5IDrq0gBFRSUqRNXYAhVdaa2,IJ6C5IDrq0gBFRSUqRNXYAhVdaa2,,,,,,,,,,,,,,,,,,,2407.0,,,65cfd63f31c934ef41d14881,10:05:55,27/02/2024
html-keyboard-response,204,405294,0.0-85.0-0.0,1957.5,"<div style=""display: flex; flex-direction: column; align-items: center; margin-top: -40px;""><img src=""images/pattern_1.png"" style=""width: 234px; height: 230px; margin-top: -50px;""><div style=""display: flex; justify-content: space-between; margin-top: 33px;""><img src=""images/choice_trial_6.png"" style=""width: 408px; height: 417px; margin-right: 200px;""><img src=""images/choice_trial_15.png"" style=""width: 408px; height: 417px;""></div></div>",f,delaylearn,learning,trial,IJ6C5IDrq0gBFRSUqRNXYAhVdaa2,IJ6C5IDrq0gBFRSUqRNXYAhVdaa2,5.0,images/choice_trial_6.png,images/choice_trial_15.png,images/pattern_1.png,f,f,7000.0,6.0,15.0,1.0,0.0,37.0,1.0,1.0,6.0,220.0,,,,,,65cfd63f31c934ef41d14881,10:05:55,27/02/2024
html-keyboard-response,205,406300,0.0-85.0-1.0,,"<div style=""display: flex; flex-direction: column; align-items: center; margin-top: -40px;""><img src=""images/pattern_1.png"" style=""width: 234px; height: 230px; margin-top: -50px;""><div style=""display: flex; justify-content: space-between; margin-top: 33px;""><img src=""images/choice_trial_6.png"" style=""width: 408px; height: 417px; margin-right: 608px;""></div></div>",,delaylearn,learning,display_response,IJ6C5IDrq0gBFRSUqRNXYAhVdaa2,IJ6C5IDrq0gBFRSUqRNXYAhVdaa2,,,,,,,,,,,,,,,,,chosen stimuli: images/choice_trial_6.png,,,,,65cfd63f31c934ef41d14881,10:05:55,27/02/2024
html-keyboard-response,206,413303,0.0-85.0-2.0,,,,delaylearn,learning,feedback_duration_window,IJ6C5IDrq0gBFRSUqRNXYAhVdaa2,IJ6C5IDrq0gBFRSUqRNXYAhVdaa2,,,,,,,,,,,,,,,,,,7000.0,,,,65cfd63f31c934ef41d14881,10:05:55,27/02/2024
html-keyboard-response,207,414814,0.0-85.0-3.0,,<div style='margin:auto;width: auto; font-size: 150%'><span style='font-weight: bold; font-size: 100px; color: green;'>+10 points!</span><br><br></div>,,delaylearn,learning,feedback_image_window,IJ6C5IDrq0gBFRSUqRNXYAhVdaa2,IJ6C5IDrq0gBFRSUqRNXYAhVdaa2,,,,,,,,,,,,,,,,,,,,,,65cfd63f31c934ef41d14881,10:05:55,27/02/2024
html-keyboard-response,208,415328,0.0-86.0-0.0,,,,,,mood_trial_fixation,IJ6C5IDrq0gBFRSUqRNXYAhVdaa2,,,,,,,,,,,,,,,,,,,,,,,65cfd63f31c934ef41d14881,10:05:55,27/02/2024
lmdlab-html-vas-response,209,418195,0.0-86.0-1.0,1852.0,How happy are you right now?,0.5717592592592593,delaylearn,learning,mood_trial,IJ6C5IDrq0gBFRSUqRNXYAhVdaa2,IJ6C5IDrq0gBFRSUqRNXYAhVdaa2,,,,,,,,,,,,,,,,,,,,"['Very unhappy', 'Very happy']",,65cfd63f31c934ef41d14881,10:05:55,27/02/2024
html-keyboard-response,210,420410,0.0-87.0,,"<div style=""font-size:100px;"">+</div>",,delaylearn,learning,ITI,IJ6C5IDrq0gBFRSUqRNXYAhVdaa2,IJ6C5IDrq0gBFRSUqRNXYAhVdaa2,,,,,,,,,,,,,,,,,,,2204.0,,,65cfd63f31c934ef41d14881,10:05:55,27/02/2024
html-keyboard-response,211,422216,0.0-88.0-0.0,1803.0,"<div style=""display: flex; flex-direction: column; align-items: center; margin-top: -40px;""><img src=""images/pattern_3.png"" style=""width: 234px; height: 230px; margin-top: -50px;""><div style=""display: flex; justify-content: space-between; margin-top: 33px;""><img src=""images/choice_trial_16.png"" style=""width: 408px; height: 417px; margin-right: 200px;""><img src=""images/choice_trial_2.png"" style=""width: 408px; height: 417px;""></div></div>",f,delaylearn,learning,trial,IJ6C5IDrq0gBFRSUqRNXYAhVdaa2,IJ6C5IDrq0gBFRSUqRNXYAhVdaa2,5.0,images/choice_trial_16.png,images/choice_trial_2.png,images/pattern_3.png,j,f,7000.0,16.0,2.0,2.0,0.0,38.0,1.0,0.0,16.0,220.0,,,,,,65cfd63f31c934ef41d14881,10:05:55,27/02/2024
html-keyboard-response,212,423219,0.0-88.0-1.0,,"<div style=""display: flex; flex-direction: column; align-items: center; margin-top: -40px;""><img src=""images/pattern_3.png"" style=""width: 234px; height: 230px; margin-top: -50px;""><div style=""display: flex; justify-content: space-between; margin-top: 33px;""><img src=""images/choice_trial_16.png"" style=""width: 408px; height: 417px; margin-right: 608px;""></div></div>",,delaylearn,learning,display_response,IJ6C5IDrq0gBFRSUqRNXYAhVdaa2,IJ6C5IDrq0gBFRSUqRNXYAhVdaa2,,,,,,,,,,,,,,,,,chosen stimuli: images/choice_trial_16.png,,,,,65cfd63f31c934ef41d14881,10:05:55,27/02/2024
html-keyboard-response,213,430226,0.0-88.0-2.0,,,,delaylearn,learning,feedback_duration_window,IJ6C5IDrq0gBFRSUqRNXYAhVdaa2,IJ6C5IDrq0gBFRSUqRNXYAhVdaa2,,,,,,,,,,,,,,,,,,7000.0,,,,65cfd63f31c934ef41d14881,10:05:55,27/02/2024
html-keyboard-response,214,431741,0.0-88.0-3.0,,<div style='margin:auto;width: auto; font-size: 150%'><span style='font-weight: bold; font-size: 100px; color: red;'>0 points!</span><br><br></div>,,delaylearn,learning,feedback_image_window,IJ6C5IDrq0gBFRSUqRNXYAhVdaa2,IJ6C5IDrq0gBFRSUqRNXYAhVdaa2,,,,,,,,,,,,,,,,,,,,,,65cfd63f31c934ef41d14881,10:05:55,27/02/2024
html-keyboard-response,215,433880,0.0-89.0,,"<div style=""font-size:100px;"">+</div>",,delaylearn,learning,ITI,IJ6C5IDrq0gBFRSUqRNXYAhVdaa2,IJ6C5IDrq0gBFRSUqRNXYAhVdaa2,,,,,,,,,,,,,,,,,,,2137.0,,,65cfd63f31c934ef41d14881,10:05:55,27/02/2024
html-keyboard-response,216,436609,0.0-90.0-0.0,2724.900000035763,"<div style=""display: flex; flex-direction: column; align-items: center; margin-top: -40px;""><img src=""images/pattern_7.png"" style=""width: 234px; height: 230px; margin-top: -50px;""><div style=""display: flex; justify-content: space-between; margin-top: 33px;""><img src=""images/choice_trial_10.png"" style=""width: 408px; height: 417px; margin-right: 200px;""><img src=""images/choice_trial_8.png"" style=""width: 408px; height: 417px;""></div></div>",f,delaylearn,learning,trial,IJ6C5IDrq0gBFRSUqRNXYAhVdaa2,IJ6C5IDrq0gBFRSUqRNXYAhVdaa2,5.0,images/choice_trial_10.png,images/choice_trial_8.png,images/pattern_7.png,j,j,750.0,10.0,8.0,6.0,1.0,39.0,0.0,0.0,10.0,220.0,,,,,,65cfd63f31c934ef41d14881,10:05:55,27/02/2024
html-keyboard-response,217,437621,0.0-90.0-1.0,,"<div style=""display: flex; flex-direction: column; align-items: center; margin-top: -40px;""><img src=""images/pattern_7.png"" style=""width: 234px; height: 230px; margin-top: -50px;""><div style=""display: flex; justify-content: space-between; margin-top: 33px;""><img src=""images/choice_trial_10.png"" style=""width: 408px; height: 417px; margin-right: 608px;""></div></div>",,delaylearn,learning,display_response,IJ6C5IDrq0gBFRSUqRNXYAhVdaa2,IJ6C5IDrq0gBFRSUqRNXYAhVdaa2,,,,,,,,,,,,,,,,,chosen stimuli: images/choice_trial_10.png,,,,,65cfd63f31c934ef41d14881,10:05:55,27/02/2024
html-keyboard-response,218,438380,0.0-90.0-2.0,,,,delaylearn,learning,feedback_duration_window,IJ6C5IDrq0gBFRSUqRNXYAhVdaa2,IJ6C5IDrq0gBFRSUqRNXYAhVdaa2,,,,,,,,,,,,,,,,,,750.0,,,,65cfd63f31c934ef41d14881,10:05:55,27/02/2024
html-keyboard-response,219,439891,0.0-90.0-3.0,,<div style='margin:auto;width: auto; font-size: 150%'><span style='font-weight: bold; font-size: 100px; color: red;'>0 points!</span><br><br></div>,,delaylearn,learning,feedback_image_window,IJ6C5IDrq0gBFRSUqRNXYAhVdaa2,IJ6C5IDrq0gBFRSUqRNXYAhVdaa2,,,,,,,,,,,,,,,,,,,,,,65cfd63f31c934ef41d14881,10:05:55,27/02/2024
html-keyboard-response,220,442166,0.0-91.0,,"<div style=""font-size:100px;"">+</div>",,delaylearn,learning,ITI,IJ6C5IDrq0gBFRSUqRNXYAhVdaa2,IJ6C5IDrq0gBFRSUqRNXYAhVdaa2,,,,,,,,,,,,,,,,,,,2267.0,,,65cfd63f31c934ef41d14881,10:05:55,27/02/2024
html-keyboard-response,221,443739,0.0-92.0-0.0,1570.0,"<div style=""display: flex; flex-direction: column; align-items: center; margin-top: -40px;""><img src=""images/pattern_5.png"" style=""width: 234px; height: 230px; margin-top: -50px;""><div style=""display: flex; justify-content: space-between; margin-top: 33px;""><img src=""images/choice_trial_13.png"" style=""width: 408px; height: 417px; margin-right: 200px;""><img src=""images/choice_trial_7.png"" style=""width: 408px; height: 417px;""></div></div>",j,delaylearn,learning,trial,IJ6C5IDrq0gBFRSUqRNXYAhVdaa2,IJ6C5IDrq0gBFRSUqRNXYAhVdaa2,5.0,images/choice_trial_13.png,images/choice_trial_7.png,images/pattern_5.png,j,j,750.0,13.0,7.0,4.0,1.0,40.0,1.0,1.0,7.0,230.0,,,,,,65cfd63f31c934ef41d14881,10:05:55,27/02/2024
html-keyboard-response,222,444754,0.0-92.0-1.0,,"<div style=""display: flex; flex-direction: column; align-items: center; margin-top: -40px;""><img src=""images/pattern_5.png"" style=""width: 234px; height: 230px; margin-top: -50px;""><div style=""display: flex; justify-content: space-between; margin-top: 33px;""><img src=""images/choice_trial_7.png"" style=""width: 408px; height: 417px; margin-left:608px;""></div></div>",,delaylearn,learning,display_response,IJ6C5IDrq0gBFRSUqRNXYAhVdaa2,IJ6C5IDrq0gBFRSUqRNXYAhVdaa2,,,,,,,,,,,,,,,,,chosen stimuli: images/choice_trial_7.png,,,,,65cfd63f31c934ef41d14881,10:05:55,27/02/2024
html-keyboard-response,223,445509,0.0-92.0-2.0,,,,delaylearn,learning,feedback_duration_window,IJ6C5IDrq0gBFRSUqRNXYAhVdaa2,IJ6C5IDrq0gBFRSUqRNXYAhVdaa2,,,,,,,,,,,,,,,,,,750.0,,,,65cfd63f31c934ef41d14881,10:05:55,27/02/2024
html-keyboard-response,224,447018,0.0-92.0-3.0,,<div style='margin:auto;width: auto; font-size: 150%'><span style='font-weight: bold; font-size: 100px; color: green;'>+10 points!</span><br><br></div>,,delaylearn,learning,feedback_image_window,IJ6C5IDrq0gBFRSUqRNXYAhVdaa2,IJ6C5IDrq0gBFRSUqRNXYAhVdaa2,,,,,,,,,,,,,,,,,,,,,,65cfd63f31c934ef41d14881,10:05:55,27/02/2024
html-keyboard-response,225,447534,0.0-93.0-0.0,,,,,,mood_trial_fixation,IJ6C5IDrq0gBFRSUqRNXYAhVdaa2,,,,,,,,,,,,,,,,,,,,,,,65cfd63f31c934ef41d14881,10:05:55,27/02/2024
lmdlab-html-vas-response,226,450393,0.0-93.0-1.0,1855.0,How happy are you right now?,0.5370370370370371,delaylearn,learning,mood_trial,IJ6C5IDrq0gBFRSUqRNXYAhVdaa2,IJ6C5IDrq0gBFRSUqRNXYAhVdaa2,,,,,,,,,,,,,,,,,,,,"['Very unhappy', 'Very happy']",,65cfd63f31c934ef41d14881,10:05:55,27/02/2024
html-keyboard-response,227,452557,0.0-94.0,,"<div style=""font-size:100px;"">+</div>",,delaylearn,learning,ITI,IJ6C5IDrq0gBFRSUqRNXYAhVdaa2,IJ6C5IDrq0gBFRSUqRNXYAhVdaa2,,,,,,,,,,,,,,,,,,,2148.0,,,65cfd63f31c934ef41d14881,10:05:55,27/02/2024
html-keyboard-response,228,453365,0.0-95.0-0.0,805.5999999642372,"<div style=""display: flex; flex-direction: column; align-items: center; margin-top: -40px;""><img src=""images/pattern_4.png"" style=""width: 234px; height: 230px; margin-top: -50px;""><div style=""display: flex; justify-content: space-between; margin-top: 33px;""><img src=""images/choice_trial_11.png"" style=""width: 408px; height: 417px; margin-right: 200px;""><img src=""images/choice_trial_4.png"" style=""width: 408px; height: 417px;""></div></div>",f,delaylearn,learning,trial,IJ6C5IDrq0gBFRSUqRNXYAhVdaa2,IJ6C5IDrq0gBFRSUqRNXYAhVdaa2,5.0,images/choice_trial_11.png,images/choice_trial_4.png,images/pattern_4.png,f,f,7000.0,11.0,4.0,3.0,0.0,41.0,1.0,1.0,11.0,240.0,,,,,,65cfd63f31c934ef41d14881,10:05:55,27/02/2024
html-keyboard-response,229,454382,0.0-95.0-1.0,,"<div style=""display: flex; flex-direction: column; align-items: center; margin-top: -40px;""><img src=""images/pattern_4.png"" style=""width: 234px; height: 230px; margin-top: -50px;""><div style=""display: flex; justify-content: space-between; margin-top: 33px;""><img src=""images/choice_trial_11.png"" style=""width: 408px; height: 417px; margin-right: 608px;""></div></div>",,delaylearn,learning,display_response,IJ6C5IDrq0gBFRSUqRNXYAhVdaa2,IJ6C5IDrq0gBFRSUqRNXYAhVdaa2,,,,,,,,,,,,,,,,,chosen stimuli: images/choice_trial_11.png,,,,,65cfd63f31c934ef41d14881,10:05:55,27/02/2024
html-keyboard-response,230,461398,0.0-95.0-2.0,,,,delaylearn,learning,feedback_duration_window,IJ6C5IDrq0gBFRSUqRNXYAhVdaa2,IJ6C5IDrq0gBFRSUqRNXYAhVdaa2,,,,,,,,,,,,,,,,,,7000.0,,,,65cfd63f31c934ef41d14881,10:05:55,27/02/2024
html-keyboard-response,231,462905,0.0-95.0-3.0,,<div style='margin:auto;width: auto; font-size: 150%'><span style='font-weight: bold; font-size: 100px; color: green;'>+10 points!</span><br><br></div>,,delaylearn,learning,feedback_image_window,IJ6C5IDrq0gBFRSUqRNXYAhVdaa2,IJ6C5IDrq0gBFRSUqRNXYAhVdaa2,,,,,,,,,,,,,,,,,,,,,,65cfd63f31c934ef41d14881,10:05:55,27/02/2024
