trial_type,trial_index,time_elapsed,internal_node_id,rt,stimulus,response,exp_name,exp_stage,test_part,subjectID,databaseID,counterbal,choice_stimuli_1,choice_stimuli_2,pattern_stimuli,rewarded_answer,correct_answer,feedback_duration_times,stim_left,stim_right,pair,leftright_counter,trial,response_correct,response_rewarded,chosen_stim,counter,displayed_choice,feedback_durations,ITI_duration,labels,rest_warning,prolificID,start_time,date
pavlovia,0,558,0.0-0.0,,,,,,,zWzQXqSXaMg2Fo4B32nGyjbjNNr2,,,,,,,,,,,,,,,,,,,,,,,63d166c1300217760a719112,09:11:51,27/02/2024
html-keyboard-response,1,3568,0.0-1.0,,"<div style=""font-size:100px;"">+</div>",,delaylearn,learning,pre_fixation,zWzQXqSXaMg2Fo4B32nGyjbjNNr2,,,,,,,,,,,,,,,,,,,,,,,63d166c1300217760a719112,09:11:51,27/02/2024
html-keyboard-response,2,5122,0.0-2.0-0.0,1550.699999988079,"<div style=""display: flex; flex-direction: column; align-items: center; margin-top: -40px;""><img src=""images/demo_images/pattern_1.png"" style=""width: 234px; height: 230px; margin-top: -50px;""><div style=""display: flex; justify-content: space-between; margin-top: 33px;""><img src=""images/demo_images/choice_trial_2.png"" style=""width: 408px; height: 417px; margin-right: 200px;""><img src=""images/demo_images/choice_trial_1.png"" style=""width: 408px; height: 417px;""></div></div>",f,delaylearn,learning,trial,zWzQXqSXaMg2Fo4B32nGyjbjNNr2,zWzQXqSXaMg2Fo4B32nGyjbjNNr2,1.0,images/demo_images/choice_trial_2.png,images/demo_images/choice_trial_1.png,images/demo_images/pattern_1.png,j,j,3000.0,2.0,1.0,20.0,1.0,1.0,0.0,0.0,2.0,0.0,,,,,,63d166c1300217760a719112,09:11:51,27/02/2024
html-keyboard-response,3,6138,0.0-2.0-1.0,,"<div style=""display: flex; flex-direction: column; align-items: center; margin-top: -40px;""><img src=""images/demo_images/pattern_1.png"" style=""width: 234px; height: 230px; margin-top: -50px;""><div style=""display: flex; justify-content: space-between; margin-top: 33px;""><img src=""images/demo_images/choice_trial_2.png"" style=""width: 408px; height: 417px; margin-right: 608px;""></div></div>",,delaylearn,learning,display_response,zWzQXqSXaMg2Fo4B32nGyjbjNNr2,zWzQXqSXaMg2Fo4B32nGyjbjNNr2,,,,,,,,,,,,,,,,,chosen stimuli: images/demo_images/choice_trial_2.png,,,,,63d166c1300217760a719112,09:11:51,27/02/2024
html-keyboard-response,4,9141,0.0-2.0-2.0,,,,delaylearn,learning,feedback_duration_window,zWzQXqSXaMg2Fo4B32nGyjbjNNr2,zWzQXqSXaMg2Fo4B32nGyjbjNNr2,,,,,,,,,,,,,,,,,,3000.0,,,,63d166c1300217760a719112,09:11:51,27/02/2024
html-keyboard-response,5,10668,0.0-2.0-3.0,,<div style='margin:auto;width: auto; font-size: 150%'><span style='font-weight: bold; font-size: 100px; color: red;'>0 points!</span><br><br></div>,,delaylearn,learning,feedback_image_window,zWzQXqSXaMg2Fo4B32nGyjbjNNr2,zWzQXqSXaMg2Fo4B32nGyjbjNNr2,,,,,,,,,,,,,,,,,,,,,,63d166c1300217760a719112,09:11:51,27/02/2024
html-keyboard-response,6,12218,0.0-3.0,,"<div style=""font-size:100px;"">+</div>",,delaylearn,learning,ITI,zWzQXqSXaMg2Fo4B32nGyjbjNNr2,zWzQXqSXaMg2Fo4B32nGyjbjNNr2,,,,,,,,,,,,,,,,,,,1542.0,,,63d166c1300217760a719112,09:11:51,27/02/2024
html-keyboard-response,7,13136,0.0-4.0-0.0,914.2999999523163,"<div style=""display: flex; flex-direction: column; align-items: center; margin-top: -40px;""><img src=""images/demo_images/pattern_1.png"" style=""width: 234px; height: 230px; margin-top: -50px;""><div style=""display: flex; justify-content: space-between; margin-top: 33px;""><img src=""images/demo_images/choice_trial_2.png"" style=""width: 408px; height: 417px; margin-right: 200px;""><img src=""images/demo_images/choice_trial_1.png"" style=""width: 408px; height: 417px;""></div></div>",f,delaylearn,learning,trial,zWzQXqSXaMg2Fo4B32nGyjbjNNr2,zWzQXqSXaMg2Fo4B32nGyjbjNNr2,1.0,images/demo_images/choice_trial_2.png,images/demo_images/choice_trial_1.png,images/demo_images/pattern_1.png,j,j,3000.0,2.0,1.0,20.0,1.0,2.0,0.0,0.0,2.0,0.0,,,,,,63d166c1300217760a719112,09:11:51,27/02/2024
html-keyboard-response,8,14140,0.0-4.0-1.0,,"<div style=""display: flex; flex-direction: column; align-items: center; margin-top: -40px;""><img src=""images/demo_images/pattern_1.png"" style=""width: 234px; height: 230px; margin-top: -50px;""><div style=""display: flex; justify-content: space-between; margin-top: 33px;""><img src=""images/demo_images/choice_trial_2.png"" style=""width: 408px; height: 417px; margin-right: 608px;""></div></div>",,delaylearn,learning,display_response,zWzQXqSXaMg2Fo4B32nGyjbjNNr2,zWzQXqSXaMg2Fo4B32nGyjbjNNr2,,,,,,,,,,,,,,,,,chosen stimuli: images/demo_images/choice_trial_2.png,,,,,63d166c1300217760a719112,09:11:51,27/02/2024
html-keyboard-response,9,17150,0.0-4.0-2.0,,,,delaylearn,learning,feedback_duration_window,zWzQXqSXaMg2Fo4B32nGyjbjNNr2,zWzQXqSXaMg2Fo4B32nGyjbjNNr2,,,,,,,,,,,,,,,,,,3000.0,,,,63d166c1300217760a719112,09:11:51,27/02/2024
html-keyboard-response,10,18662,0.0-4.0-3.0,,<div style='margin:auto;width: auto; font-size: 150%'><span style='font-weight: bold; font-size: 100px; color: red;'>0 points!</span><br><br></div>,,delaylearn,learning,feedback_image_window,zWzQXqSXaMg2Fo4B32nGyjbjNNr2,zWzQXqSXaMg2Fo4B32nGyjbjNNr2,,,,,,,,,,,,,,,,,,,,,,63d166c1300217760a719112,09:11:51,27/02/2024
html-keyboard-response,11,20186,0.0-5.0,,"<div style=""font-size:100px;"">+</div>",,delaylearn,learning,ITI,zWzQXqSXaMg2Fo4B32nGyjbjNNr2,zWzQXqSXaMg2Fo4B32nGyjbjNNr2,,,,,,,,,,,,,,,,,,,1511.0,,,63d166c1300217760a719112,09:11:51,27/02/2024
html-keyboard-response,12,21880,0.0-6.0-0.0,1691.699999988079,"<div style=""display: flex; flex-direction: column; align-items: center; margin-top: -40px;""><img src=""images/demo_images/pattern_1.png"" style=""width: 234px; height: 230px; margin-top: -50px;""><div style=""display: flex; justify-content: space-between; margin-top: 33px;""><img src=""images/demo_images/choice_trial_1.png"" style=""width: 408px; height: 417px; margin-right: 200px;""><img src=""images/demo_images/choice_trial_2.png"" style=""width: 408px; height: 417px;""></div></div>",f,delaylearn,learning,trial,zWzQXqSXaMg2Fo4B32nGyjbjNNr2,zWzQXqSXaMg2Fo4B32nGyjbjNNr2,1.0,images/demo_images/choice_trial_1.png,images/demo_images/choice_trial_2.png,images/demo_images/pattern_1.png,j,f,3000.0,1.0,2.0,20.0,0.0,3.0,1.0,0.0,1.0,0.0,,,,,,63d166c1300217760a719112,09:11:51,27/02/2024
html-keyboard-response,13,22885,0.0-6.0-1.0,,"<div style=""display: flex; flex-direction: column; align-items: center; margin-top: -40px;""><img src=""images/demo_images/pattern_1.png"" style=""width: 234px; height: 230px; margin-top: -50px;""><div style=""display: flex; justify-content: space-between; margin-top: 33px;""><img src=""images/demo_images/choice_trial_1.png"" style=""width: 408px; height: 417px; margin-right: 608px;""></div></div>",,delaylearn,learning,display_response,zWzQXqSXaMg2Fo4B32nGyjbjNNr2,zWzQXqSXaMg2Fo4B32nGyjbjNNr2,,,,,,,,,,,,,,,,,chosen stimuli: images/demo_images/choice_trial_1.png,,,,,63d166c1300217760a719112,09:11:51,27/02/2024
html-keyboard-response,14,25903,0.0-6.0-2.0,,,,delaylearn,learning,feedback_duration_window,zWzQXqSXaMg2Fo4B32nGyjbjNNr2,zWzQXqSXaMg2Fo4B32nGyjbjNNr2,,,,,,,,,,,,,,,,,,3000.0,,,,63d166c1300217760a719112,09:11:51,27/02/2024
html-keyboard-response,15,27418,0.0-6.0-3.0,,<div style='margin:auto;width: auto; font-size: 150%'><span style='font-weight: bold; font-size: 100px; color: red;'>0 points!</span><br><br></div>,,delaylearn,learning,feedback_image_window,zWzQXqSXaMg2Fo4B32nGyjbjNNr2,zWzQXqSXaMg2Fo4B32nGyjbjNNr2,,,,,,,,,,,,,,,,,,,,,,63d166c1300217760a719112,09:11:51,27/02/2024
html-keyboard-response,16,29649,0.0-7.0,,"<div style=""font-size:100px;"">+</div>",,delaylearn,learning,ITI,zWzQXqSXaMg2Fo4B32nGyjbjNNr2,zWzQXqSXaMg2Fo4B32nGyjbjNNr2,,,,,,,,,,,,,,,,,,,2221.0,,,63d166c1300217760a719112,09:11:51,27/02/2024
html-keyboard-response,17,30970,0.0-8.0-0.0,1309.1000000238419,"<div style=""display: flex; flex-direction: column; align-items: center; margin-top: -40px;""><img src=""images/demo_images/pattern_1.png"" style=""width: 234px; height: 230px; margin-top: -50px;""><div style=""display: flex; justify-content: space-between; margin-top: 33px;""><img src=""images/demo_images/choice_trial_1.png"" style=""width: 408px; height: 417px; margin-right: 200px;""><img src=""images/demo_images/choice_trial_2.png"" style=""width: 408px; height: 417px;""></div></div>",j,delaylearn,learning,trial,zWzQXqSXaMg2Fo4B32nGyjbjNNr2,zWzQXqSXaMg2Fo4B32nGyjbjNNr2,1.0,images/demo_images/choice_trial_1.png,images/demo_images/choice_trial_2.png,images/demo_images/pattern_1.png,f,f,3000.0,1.0,2.0,20.0,0.0,4.0,0.0,0.0,2.0,0.0,,,,,,63d166c1300217760a719112,09:11:51,27/02/2024
html-keyboard-response,18,31983,0.0-8.0-1.0,,"<div style=""display: flex; flex-direction: column; align-items: center; margin-top: -40px;""><img src=""images/demo_images/pattern_1.png"" style=""width: 234px; height: 230px; margin-top: -50px;""><div style=""display: flex; justify-content: space-between; margin-top: 33px;""><img src=""images/demo_images/choice_trial_2.png"" style=""width: 408px; height: 417px; margin-left:608px;""></div></div>",,delaylearn,learning,display_response,zWzQXqSXaMg2Fo4B32nGyjbjNNr2,zWzQXqSXaMg2Fo4B32nGyjbjNNr2,,,,,,,,,,,,,,,,,chosen stimuli: images/demo_images/choice_trial_2.png,,,,,63d166c1300217760a719112,09:11:51,27/02/2024
html-keyboard-response,19,34995,0.0-8.0-2.0,,,,delaylearn,learning,feedback_duration_window,zWzQXqSXaMg2Fo4B32nGyjbjNNr2,zWzQXqSXaMg2Fo4B32nGyjbjNNr2,,,,,,,,,,,,,,,,,,3000.0,,,,63d166c1300217760a719112,09:11:51,27/02/2024
html-keyboard-response,20,36498,0.0-8.0-3.0,,<div style='margin:auto;width: auto; font-size: 150%'><span style='font-weight: bold; font-size: 100px; color: red;'>0 points!</span><br><br></div>,,delaylearn,learning,feedback_image_window,zWzQXqSXaMg2Fo4B32nGyjbjNNr2,zWzQXqSXaMg2Fo4B32nGyjbjNNr2,,,,,,,,,,,,,,,,,,,,,,63d166c1300217760a719112,09:11:51,27/02/2024
html-keyboard-response,21,37014,0.0-9.0-0.0,,,,,,mood_trial_fixation,zWzQXqSXaMg2Fo4B32nGyjbjNNr2,,,,,,,,,,,,,,,,,,,,,,,63d166c1300217760a719112,09:11:51,27/02/2024
lmdlab-html-vas-response,22,43648,0.0-9.0-1.0,5615.0,How happy are you right now?,0.35678681631684245,delaylearn,learning,mood_trial,zWzQXqSXaMg2Fo4B32nGyjbjNNr2,zWzQXqSXaMg2Fo4B32nGyjbjNNr2,,,,,,,,,,,,,,,,,,,,"['Very unhappy', 'Very happy']",,63d166c1300217760a719112,09:11:51,27/02/2024
html-keyboard-response,23,46037,0.0-10.0,,"<div style=""font-size:100px;"">+</div>",,delaylearn,learning,ITI,zWzQXqSXaMg2Fo4B32nGyjbjNNr2,zWzQXqSXaMg2Fo4B32nGyjbjNNr2,,,,,,,,,,,,,,,,,,,2378.0,,,63d166c1300217760a719112,09:11:51,27/02/2024
html-keyboard-response,24,47147,0.0-11.0-0.0,1108.0,"<div style=""display: flex; flex-direction: column; align-items: center; margin-top: -40px;""><img src=""images/demo_images/pattern_1.png"" style=""width: 234px; height: 230px; margin-top: -50px;""><div style=""display: flex; justify-content: space-between; margin-top: 33px;""><img src=""images/demo_images/choice_trial_2.png"" style=""width: 408px; height: 417px; margin-right: 200px;""><img src=""images/demo_images/choice_trial_1.png"" style=""width: 408px; height: 417px;""></div></div>",j,delaylearn,learning,trial,zWzQXqSXaMg2Fo4B32nGyjbjNNr2,zWzQXqSXaMg2Fo4B32nGyjbjNNr2,1.0,images/demo_images/choice_trial_2.png,images/demo_images/choice_trial_1.png,images/demo_images/pattern_1.png,j,j,3000.0,2.0,1.0,20.0,1.0,5.0,1.0,1.0,1.0,10.0,,,,,,63d166c1300217760a719112,09:11:51,27/02/2024
html-keyboard-response,25,48162,0.0-11.0-1.0,,"<div style=""display: flex; flex-direction: column; align-items: center; margin-top: -40px;""><img src=""images/demo_images/pattern_1.png"" style=""width: 234px; height: 230px; margin-top: -50px;""><div style=""display: flex; justify-content: space-between; margin-top: 33px;""><img src=""images/demo_images/choice_trial_1.png"" style=""width: 408px; height: 417px; margin-left:608px;""></div></div>",,delaylearn,learning,display_response,zWzQXqSXaMg2Fo4B32nGyjbjNNr2,zWzQXqSXaMg2Fo4B32nGyjbjNNr2,,,,,,,,,,,,,,,,,chosen stimuli: images/demo_images/choice_trial_1.png,,,,,63d166c1300217760a719112,09:11:51,27/02/2024
html-keyboard-response,26,51179,0.0-11.0-2.0,,,,delaylearn,learning,feedback_duration_window,zWzQXqSXaMg2Fo4B32nGyjbjNNr2,zWzQXqSXaMg2Fo4B32nGyjbjNNr2,,,,,,,,,,,,,,,,,,3000.0,,,,63d166c1300217760a719112,09:11:51,27/02/2024
html-keyboard-response,27,52695,0.0-11.0-3.0,,<div style='margin:auto;width: auto; font-size: 150%'><span style='font-weight: bold; font-size: 100px; color: green;'>+10 points!</span><br><br></div>,,delaylearn,learning,feedback_image_window,zWzQXqSXaMg2Fo4B32nGyjbjNNr2,zWzQXqSXaMg2Fo4B32nGyjbjNNr2,,,,,,,,,,,,,,,,,,,,,,63d166c1300217760a719112,09:11:51,27/02/2024
html-keyboard-response,28,54958,0.0-12.0,,"<div style=""font-size:100px;"">+</div>",,delaylearn,learning,ITI,zWzQXqSXaMg2Fo4B32nGyjbjNNr2,zWzQXqSXaMg2Fo4B32nGyjbjNNr2,,,,,,,,,,,,,,,,,,,2248.0,,,63d166c1300217760a719112,09:11:51,27/02/2024
html-keyboard-response,29,55320,0.0-13.0-0.0,358.80000001192093,"<div style=""display: flex; flex-direction: column; align-items: center; margin-top: -40px;""><img src=""images/demo_images/pattern_1.png"" style=""width: 234px; height: 230px; margin-top: -50px;""><div style=""display: flex; justify-content: space-between; margin-top: 33px;""><img src=""images/demo_images/choice_trial_1.png"" style=""width: 408px; height: 417px; margin-right: 200px;""><img src=""images/demo_images/choice_trial_2.png"" style=""width: 408px; height: 417px;""></div></div>",f,delaylearn,learning,trial,zWzQXqSXaMg2Fo4B32nGyjbjNNr2,zWzQXqSXaMg2Fo4B32nGyjbjNNr2,1.0,images/demo_images/choice_trial_1.png,images/demo_images/choice_trial_2.png,images/demo_images/pattern_1.png,f,f,3000.0,1.0,2.0,20.0,0.0,6.0,1.0,1.0,1.0,20.0,,,,,,63d166c1300217760a719112,09:11:51,27/02/2024
html-keyboard-response,30,56328,0.0-13.0-1.0,,"<div style=""display: flex; flex-direction: column; align-items: center; margin-top: -40px;""><img src=""images/demo_images/pattern_1.png"" style=""width: 234px; height: 230px; margin-top: -50px;""><div style=""display: flex; justify-content: space-between; margin-top: 33px;""><img src=""images/demo_images/choice_trial_1.png"" style=""width: 408px; height: 417px; margin-right: 608px;""></div></div>",,delaylearn,learning,display_response,zWzQXqSXaMg2Fo4B32nGyjbjNNr2,zWzQXqSXaMg2Fo4B32nGyjbjNNr2,,,,,,,,,,,,,,,,,chosen stimuli: images/demo_images/choice_trial_1.png,,,,,63d166c1300217760a719112,09:11:51,27/02/2024
html-keyboard-response,31,59344,0.0-13.0-2.0,,,,delaylearn,learning,feedback_duration_window,zWzQXqSXaMg2Fo4B32nGyjbjNNr2,zWzQXqSXaMg2Fo4B32nGyjbjNNr2,,,,,,,,,,,,,,,,,,3000.0,,,,63d166c1300217760a719112,09:11:51,27/02/2024
html-keyboard-response,32,60860,0.0-13.0-3.0,,<div style='margin:auto;width: auto; font-size: 150%'><span style='font-weight: bold; font-size: 100px; color: green;'>+10 points!</span><br><br></div>,,delaylearn,learning,feedback_image_window,zWzQXqSXaMg2Fo4B32nGyjbjNNr2,zWzQXqSXaMg2Fo4B32nGyjbjNNr2,,,,,,,,,,,,,,,,,,,,,,63d166c1300217760a719112,09:11:51,27/02/2024
html-button-response,33,65023,0.0-14.0,4161.5,"
  <div style=""display: flex; align-items: center; justify-content: center; height: 80vh;"">
  <div>
          <img src=""images/inst_demo_finish.png"" style=""width: 80vw; height:auto;"">
          <br><br>
      </div>
      <br><br>
  </div>",0,,,,zWzQXqSXaMg2Fo4B32nGyjbjNNr2,,,,,,,,,,,,,,,,,,,,,,,63d166c1300217760a719112,09:11:51,27/02/2024
html-keyboard-response,34,69267,0.0-15.0,4242.100000023842,"
  <div style=""display: flex; align-items: center; justify-content: center; height: 80vh;"">
  <div>
          <img src=""images/inst_6.png"" style=""width: 80vw; height:auto;"">
          <br><br>
      </div>
      <br><br>
  </div>",j,,,,zWzQXqSXaMg2Fo4B32nGyjbjNNr2,,,,,,,,,,,,,,,,,,,,,,,63d166c1300217760a719112,09:11:51,27/02/2024
html-keyboard-response,35,72277,0.0-16.0,,"<div style=""font-size:100px;"">+</div>",,delaylearn,learning,pre_fixation,zWzQXqSXaMg2Fo4B32nGyjbjNNr2,,,,,,,,,,,,,,,,,,,,,,,63d166c1300217760a719112,09:11:51,27/02/2024
html-keyboard-response,36,73933,0.0-17.0,,"<div style=""font-size:100px;"">+</div>",,delaylearn,learning,ITI,zWzQXqSXaMg2Fo4B32nGyjbjNNr2,zWzQXqSXaMg2Fo4B32nGyjbjNNr2,,,,,,,,,,,,,,,,,,,1647.0,,,63d166c1300217760a719112,09:11:51,27/02/2024
html-keyboard-response,37,75264,0.0-18.0-0.0,1328.8999999761581,"<div style=""display: flex; flex-direction: column; align-items: center; margin-top: -40px;""><img src=""images/pattern_3.png"" style=""width: 234px; height: 230px; margin-top: -50px;""><div style=""display: flex; justify-content: space-between; margin-top: 33px;""><img src=""images/choice_trial_5.png"" style=""width: 408px; height: 417px; margin-right: 200px;""><img src=""images/choice_trial_6.png"" style=""width: 408px; height: 417px;""></div></div>",j,delaylearn,learning,trial,zWzQXqSXaMg2Fo4B32nGyjbjNNr2,zWzQXqSXaMg2Fo4B32nGyjbjNNr2,1.0,images/choice_trial_5.png,images/choice_trial_6.png,images/pattern_3.png,f,f,7000.0,5.0,6.0,2.0,0.0,7.0,0.0,0.0,6.0,20.0,,,,,,63d166c1300217760a719112,09:11:51,27/02/2024
html-keyboard-response,38,76269,0.0-18.0-1.0,,"<div style=""display: flex; flex-direction: column; align-items: center; margin-top: -40px;""><img src=""images/pattern_3.png"" style=""width: 234px; height: 230px; margin-top: -50px;""><div style=""display: flex; justify-content: space-between; margin-top: 33px;""><img src=""images/choice_trial_6.png"" style=""width: 408px; height: 417px; margin-left:608px;""></div></div>",,delaylearn,learning,display_response,zWzQXqSXaMg2Fo4B32nGyjbjNNr2,zWzQXqSXaMg2Fo4B32nGyjbjNNr2,,,,,,,,,,,,,,,,,chosen stimuli: images/choice_trial_6.png,,,,,63d166c1300217760a719112,09:11:51,27/02/2024
html-keyboard-response,39,83280,0.0-18.0-2.0,,,,delaylearn,learning,feedback_duration_window,zWzQXqSXaMg2Fo4B32nGyjbjNNr2,zWzQXqSXaMg2Fo4B32nGyjbjNNr2,,,,,,,,,,,,,,,,,,7000.0,,,,63d166c1300217760a719112,09:11:51,27/02/2024
html-keyboard-response,40,84789,0.0-18.0-3.0,,<div style='margin:auto;width: auto; font-size: 150%'><span style='font-weight: bold; font-size: 100px; color: red;'>0 points!</span><br><br></div>,,delaylearn,learning,feedback_image_window,zWzQXqSXaMg2Fo4B32nGyjbjNNr2,zWzQXqSXaMg2Fo4B32nGyjbjNNr2,,,,,,,,,,,,,,,,,,,,,,63d166c1300217760a719112,09:11:51,27/02/2024
html-keyboard-response,41,87164,0.0-19.0,,"<div style=""font-size:100px;"">+</div>",,delaylearn,learning,ITI,zWzQXqSXaMg2Fo4B32nGyjbjNNr2,zWzQXqSXaMg2Fo4B32nGyjbjNNr2,,,,,,,,,,,,,,,,,,,2362.0,,,63d166c1300217760a719112,09:11:51,27/02/2024
html-keyboard-response,42,88310,0.0-20.0-0.0,1143.0,"<div style=""display: flex; flex-direction: column; align-items: center; margin-top: -40px;""><img src=""images/pattern_7.png"" style=""width: 234px; height: 230px; margin-top: -50px;""><div style=""display: flex; justify-content: space-between; margin-top: 33px;""><img src=""images/choice_trial_14.png"" style=""width: 408px; height: 417px; margin-right: 200px;""><img src=""images/choice_trial_13.png"" style=""width: 408px; height: 417px;""></div></div>",f,delaylearn,learning,trial,zWzQXqSXaMg2Fo4B32nGyjbjNNr2,zWzQXqSXaMg2Fo4B32nGyjbjNNr2,1.0,images/choice_trial_14.png,images/choice_trial_13.png,images/pattern_7.png,j,j,750.0,14.0,13.0,6.0,1.0,8.0,0.0,0.0,14.0,20.0,,,,,,63d166c1300217760a719112,09:11:51,27/02/2024
html-keyboard-response,43,89322,0.0-20.0-1.0,,"<div style=""display: flex; flex-direction: column; align-items: center; margin-top: -40px;""><img src=""images/pattern_7.png"" style=""width: 234px; height: 230px; margin-top: -50px;""><div style=""display: flex; justify-content: space-between; margin-top: 33px;""><img src=""images/choice_trial_14.png"" style=""width: 408px; height: 417px; margin-right: 608px;""></div></div>",,delaylearn,learning,display_response,zWzQXqSXaMg2Fo4B32nGyjbjNNr2,zWzQXqSXaMg2Fo4B32nGyjbjNNr2,,,,,,,,,,,,,,,,,chosen stimuli: images/choice_trial_14.png,,,,,63d166c1300217760a719112,09:11:51,27/02/2024
html-keyboard-response,44,90088,0.0-20.0-2.0,,,,delaylearn,learning,feedback_duration_window,zWzQXqSXaMg2Fo4B32nGyjbjNNr2,zWzQXqSXaMg2Fo4B32nGyjbjNNr2,,,,,,,,,,,,,,,,,,750.0,,,,63d166c1300217760a719112,09:11:51,27/02/2024
html-keyboard-response,45,91596,0.0-20.0-3.0,,<div style='margin:auto;width: auto; font-size: 150%'><span style='font-weight: bold; font-size: 100px; color: red;'>0 points!</span><br><br></div>,,delaylearn,learning,feedback_image_window,zWzQXqSXaMg2Fo4B32nGyjbjNNr2,zWzQXqSXaMg2Fo4B32nGyjbjNNr2,,,,,,,,,,,,,,,,,,,,,,63d166c1300217760a719112,09:11:51,27/02/2024
html-keyboard-response,46,93304,0.0-21.0,,"<div style=""font-size:100px;"">+</div>",,delaylearn,learning,ITI,zWzQXqSXaMg2Fo4B32nGyjbjNNr2,zWzQXqSXaMg2Fo4B32nGyjbjNNr2,,,,,,,,,,,,,,,,,,,1706.0,,,63d166c1300217760a719112,09:11:51,27/02/2024
html-keyboard-response,47,94738,0.0-22.0-0.0,1431.5,"<div style=""display: flex; flex-direction: column; align-items: center; margin-top: -40px;""><img src=""images/pattern_4.png"" style=""width: 234px; height: 230px; margin-top: -50px;""><div style=""display: flex; justify-content: space-between; margin-top: 33px;""><img src=""images/choice_trial_7.png"" style=""width: 408px; height: 417px; margin-right: 200px;""><img src=""images/choice_trial_8.png"" style=""width: 408px; height: 417px;""></div></div>",f,delaylearn,learning,trial,zWzQXqSXaMg2Fo4B32nGyjbjNNr2,zWzQXqSXaMg2Fo4B32nGyjbjNNr2,1.0,images/choice_trial_7.png,images/choice_trial_8.png,images/pattern_4.png,f,f,7000.0,7.0,8.0,3.0,0.0,9.0,1.0,1.0,7.0,30.0,,,,,,63d166c1300217760a719112,09:11:51,27/02/2024
html-keyboard-response,48,95753,0.0-22.0-1.0,,"<div style=""display: flex; flex-direction: column; align-items: center; margin-top: -40px;""><img src=""images/pattern_4.png"" style=""width: 234px; height: 230px; margin-top: -50px;""><div style=""display: flex; justify-content: space-between; margin-top: 33px;""><img src=""images/choice_trial_7.png"" style=""width: 408px; height: 417px; margin-right: 608px;""></div></div>",,delaylearn,learning,display_response,zWzQXqSXaMg2Fo4B32nGyjbjNNr2,zWzQXqSXaMg2Fo4B32nGyjbjNNr2,,,,,,,,,,,,,,,,,chosen stimuli: images/choice_trial_7.png,,,,,63d166c1300217760a719112,09:11:51,27/02/2024
html-keyboard-response,49,102760,0.0-22.0-2.0,,,,delaylearn,learning,feedback_duration_window,zWzQXqSXaMg2Fo4B32nGyjbjNNr2,zWzQXqSXaMg2Fo4B32nGyjbjNNr2,,,,,,,,,,,,,,,,,,7000.0,,,,63d166c1300217760a719112,09:11:51,27/02/2024
html-keyboard-response,50,104262,0.0-22.0-3.0,,<div style='margin:auto;width: auto; font-size: 150%'><span style='font-weight: bold; font-size: 100px; color: green;'>+10 points!</span><br><br></div>,,delaylearn,learning,feedback_image_window,zWzQXqSXaMg2Fo4B32nGyjbjNNr2,zWzQXqSXaMg2Fo4B32nGyjbjNNr2,,,,,,,,,,,,,,,,,,,,,,63d166c1300217760a719112,09:11:51,27/02/2024
html-keyboard-response,51,106177,0.0-23.0,,"<div style=""font-size:100px;"">+</div>",,delaylearn,learning,ITI,zWzQXqSXaMg2Fo4B32nGyjbjNNr2,zWzQXqSXaMg2Fo4B32nGyjbjNNr2,,,,,,,,,,,,,,,,,,,1910.0,,,63d166c1300217760a719112,09:11:51,27/02/2024
html-keyboard-response,52,107957,0.0-24.0-0.0,1778.199999988079,"<div style=""display: flex; flex-direction: column; align-items: center; margin-top: -40px;""><img src=""images/pattern_5.png"" style=""width: 234px; height: 230px; margin-top: -50px;""><div style=""display: flex; justify-content: space-between; margin-top: 33px;""><img src=""images/choice_trial_10.png"" style=""width: 408px; height: 417px; margin-right: 200px;""><img src=""images/choice_trial_9.png"" style=""width: 408px; height: 417px;""></div></div>",f,delaylearn,learning,trial,zWzQXqSXaMg2Fo4B32nGyjbjNNr2,zWzQXqSXaMg2Fo4B32nGyjbjNNr2,1.0,images/choice_trial_10.png,images/choice_trial_9.png,images/pattern_5.png,j,j,750.0,10.0,9.0,4.0,1.0,10.0,0.0,0.0,10.0,30.0,,,,,,63d166c1300217760a719112,09:11:51,27/02/2024
html-keyboard-response,53,108968,0.0-24.0-1.0,,"<div style=""display: flex; flex-direction: column; align-items: center; margin-top: -40px;""><img src=""images/pattern_5.png"" style=""width: 234px; height: 230px; margin-top: -50px;""><div style=""display: flex; justify-content: space-between; margin-top: 33px;""><img src=""images/choice_trial_10.png"" style=""width: 408px; height: 417px; margin-right: 608px;""></div></div>",,delaylearn,learning,display_response,zWzQXqSXaMg2Fo4B32nGyjbjNNr2,zWzQXqSXaMg2Fo4B32nGyjbjNNr2,,,,,,,,,,,,,,,,,chosen stimuli: images/choice_trial_10.png,,,,,63d166c1300217760a719112,09:11:51,27/02/2024
html-keyboard-response,54,109733,0.0-24.0-2.0,,,,delaylearn,learning,feedback_duration_window,zWzQXqSXaMg2Fo4B32nGyjbjNNr2,zWzQXqSXaMg2Fo4B32nGyjbjNNr2,,,,,,,,,,,,,,,,,,750.0,,,,63d166c1300217760a719112,09:11:51,27/02/2024
html-keyboard-response,55,111250,0.0-24.0-3.0,,<div style='margin:auto;width: auto; font-size: 150%'><span style='font-weight: bold; font-size: 100px; color: red;'>0 points!</span><br><br></div>,,delaylearn,learning,feedback_image_window,zWzQXqSXaMg2Fo4B32nGyjbjNNr2,zWzQXqSXaMg2Fo4B32nGyjbjNNr2,,,,,,,,,,,,,,,,,,,,,,63d166c1300217760a719112,09:11:51,27/02/2024
html-keyboard-response,56,113391,0.0-25.0,,"<div style=""font-size:100px;"">+</div>",,delaylearn,learning,ITI,zWzQXqSXaMg2Fo4B32nGyjbjNNr2,zWzQXqSXaMg2Fo4B32nGyjbjNNr2,,,,,,,,,,,,,,,,,,,2128.0,,,63d166c1300217760a719112,09:11:51,27/02/2024
html-keyboard-response,57,114618,0.0-26.0-0.0,1224.699999988079,"<div style=""display: flex; flex-direction: column; align-items: center; margin-top: -40px;""><img src=""images/pattern_6.png"" style=""width: 234px; height: 230px; margin-top: -50px;""><div style=""display: flex; justify-content: space-between; margin-top: 33px;""><img src=""images/choice_trial_11.png"" style=""width: 408px; height: 417px; margin-right: 200px;""><img src=""images/choice_trial_12.png"" style=""width: 408px; height: 417px;""></div></div>",j,delaylearn,learning,trial,zWzQXqSXaMg2Fo4B32nGyjbjNNr2,zWzQXqSXaMg2Fo4B32nGyjbjNNr2,1.0,images/choice_trial_11.png,images/choice_trial_12.png,images/pattern_6.png,j,f,750.0,11.0,12.0,5.0,0.0,11.0,0.0,1.0,12.0,40.0,,,,,,63d166c1300217760a719112,09:11:51,27/02/2024
html-keyboard-response,58,115632,0.0-26.0-1.0,,"<div style=""display: flex; flex-direction: column; align-items: center; margin-top: -40px;""><img src=""images/pattern_6.png"" style=""width: 234px; height: 230px; margin-top: -50px;""><div style=""display: flex; justify-content: space-between; margin-top: 33px;""><img src=""images/choice_trial_12.png"" style=""width: 408px; height: 417px; margin-left:608px;""></div></div>",,delaylearn,learning,display_response,zWzQXqSXaMg2Fo4B32nGyjbjNNr2,zWzQXqSXaMg2Fo4B32nGyjbjNNr2,,,,,,,,,,,,,,,,,chosen stimuli: images/choice_trial_12.png,,,,,63d166c1300217760a719112,09:11:51,27/02/2024
html-keyboard-response,59,116398,0.0-26.0-2.0,,,,delaylearn,learning,feedback_duration_window,zWzQXqSXaMg2Fo4B32nGyjbjNNr2,zWzQXqSXaMg2Fo4B32nGyjbjNNr2,,,,,,,,,,,,,,,,,,750.0,,,,63d166c1300217760a719112,09:11:51,27/02/2024
html-keyboard-response,60,117901,0.0-26.0-3.0,,<div style='margin:auto;width: auto; font-size: 150%'><span style='font-weight: bold; font-size: 100px; color: green;'>+10 points!</span><br><br></div>,,delaylearn,learning,feedback_image_window,zWzQXqSXaMg2Fo4B32nGyjbjNNr2,zWzQXqSXaMg2Fo4B32nGyjbjNNr2,,,,,,,,,,,,,,,,,,,,,,63d166c1300217760a719112,09:11:51,27/02/2024
html-keyboard-response,61,118414,0.0-27.0-0.0,,,,,,mood_trial_fixation,zWzQXqSXaMg2Fo4B32nGyjbjNNr2,,,,,,,,,,,,,,,,,,,,,,,63d166c1300217760a719112,09:11:51,27/02/2024
lmdlab-html-vas-response,62,122912,0.0-27.0-1.0,3493.0,How happy are you right now?,0.7843070767352752,delaylearn,learning,mood_trial,zWzQXqSXaMg2Fo4B32nGyjbjNNr2,zWzQXqSXaMg2Fo4B32nGyjbjNNr2,,,,,,,,,,,,,,,,,,,,"['Very unhappy', 'Very happy']",,63d166c1300217760a719112,09:11:51,27/02/2024
html-keyboard-response,63,124806,0.0-28.0,,"<div style=""font-size:100px;"">+</div>",,delaylearn,learning,ITI,zWzQXqSXaMg2Fo4B32nGyjbjNNr2,zWzQXqSXaMg2Fo4B32nGyjbjNNr2,,,,,,,,,,,,,,,,,,,1881.0,,,63d166c1300217760a719112,09:11:51,27/02/2024
html-keyboard-response,64,125760,0.0-29.0-0.0,951.0999999642372,"<div style=""display: flex; flex-direction: column; align-items: center; margin-top: -40px;""><img src=""images/pattern_1.png"" style=""width: 234px; height: 230px; margin-top: -50px;""><div style=""display: flex; justify-content: space-between; margin-top: 33px;""><img src=""images/choice_trial_2.png"" style=""width: 408px; height: 417px; margin-right: 200px;""><img src=""images/choice_trial_1.png"" style=""width: 408px; height: 417px;""></div></div>",j,delaylearn,learning,trial,zWzQXqSXaMg2Fo4B32nGyjbjNNr2,zWzQXqSXaMg2Fo4B32nGyjbjNNr2,1.0,images/choice_trial_2.png,images/choice_trial_1.png,images/pattern_1.png,j,j,7000.0,2.0,1.0,1.0,1.0,12.0,1.0,1.0,1.0,50.0,,,,,,63d166c1300217760a719112,09:11:51,27/02/2024
html-keyboard-response,65,126764,0.0-29.0-1.0,,"<div style=""display: flex; flex-direction: column; align-items: center; margin-top: -40px;""><img src=""images/pattern_1.png"" style=""width: 234px; height: 230px; margin-top: -50px;""><div style=""display: flex; justify-content: space-between; margin-top: 33px;""><img src=""images/choice_trial_1.png"" style=""width: 408px; height: 417px; margin-left:608px;""></div></div>",,delaylearn,learning,display_response,zWzQXqSXaMg2Fo4B32nGyjbjNNr2,zWzQXqSXaMg2Fo4B32nGyjbjNNr2,,,,,,,,,,,,,,,,,chosen stimuli: images/choice_trial_1.png,,,,,63d166c1300217760a719112,09:11:51,27/02/2024
html-keyboard-response,66,133780,0.0-29.0-2.0,,,,delaylearn,learning,feedback_duration_window,zWzQXqSXaMg2Fo4B32nGyjbjNNr2,zWzQXqSXaMg2Fo4B32nGyjbjNNr2,,,,,,,,,,,,,,,,,,7000.0,,,,63d166c1300217760a719112,09:11:51,27/02/2024
html-keyboard-response,67,135296,0.0-29.0-3.0,,<div style='margin:auto;width: auto; font-size: 150%'><span style='font-weight: bold; font-size: 100px; color: green;'>+10 points!</span><br><br></div>,,delaylearn,learning,feedback_image_window,zWzQXqSXaMg2Fo4B32nGyjbjNNr2,zWzQXqSXaMg2Fo4B32nGyjbjNNr2,,,,,,,,,,,,,,,,,,,,,,63d166c1300217760a719112,09:11:51,27/02/2024
html-keyboard-response,68,137221,0.0-30.0,,"<div style=""font-size:100px;"">+</div>",,delaylearn,learning,ITI,zWzQXqSXaMg2Fo4B32nGyjbjNNr2,zWzQXqSXaMg2Fo4B32nGyjbjNNr2,,,,,,,,,,,,,,,,,,,1914.0,,,63d166c1300217760a719112,09:11:51,27/02/2024
html-keyboard-response,69,139167,0.0-31.0-0.0,1941.3999999761581,"<div style=""display: flex; flex-direction: column; align-items: center; margin-top: -40px;""><img src=""images/pattern_3.png"" style=""width: 234px; height: 230px; margin-top: -50px;""><div style=""display: flex; justify-content: space-between; margin-top: 33px;""><img src=""images/choice_trial_6.png"" style=""width: 408px; height: 417px; margin-right: 200px;""><img src=""images/choice_trial_5.png"" style=""width: 408px; height: 417px;""></div></div>",j,delaylearn,learning,trial,zWzQXqSXaMg2Fo4B32nGyjbjNNr2,zWzQXqSXaMg2Fo4B32nGyjbjNNr2,1.0,images/choice_trial_6.png,images/choice_trial_5.png,images/pattern_3.png,f,j,7000.0,6.0,5.0,2.0,1.0,13.0,1.0,0.0,5.0,50.0,,,,,,63d166c1300217760a719112,09:11:51,27/02/2024
html-keyboard-response,70,140178,0.0-31.0-1.0,,"<div style=""display: flex; flex-direction: column; align-items: center; margin-top: -40px;""><img src=""images/pattern_3.png"" style=""width: 234px; height: 230px; margin-top: -50px;""><div style=""display: flex; justify-content: space-between; margin-top: 33px;""><img src=""images/choice_trial_5.png"" style=""width: 408px; height: 417px; margin-left:608px;""></div></div>",,delaylearn,learning,display_response,zWzQXqSXaMg2Fo4B32nGyjbjNNr2,zWzQXqSXaMg2Fo4B32nGyjbjNNr2,,,,,,,,,,,,,,,,,chosen stimuli: images/choice_trial_5.png,,,,,63d166c1300217760a719112,09:11:51,27/02/2024
html-keyboard-response,71,147196,0.0-31.0-2.0,,,,delaylearn,learning,feedback_duration_window,zWzQXqSXaMg2Fo4B32nGyjbjNNr2,zWzQXqSXaMg2Fo4B32nGyjbjNNr2,,,,,,,,,,,,,,,,,,7000.0,,,,63d166c1300217760a719112,09:11:51,27/02/2024
html-keyboard-response,72,148715,0.0-31.0-3.0,,<div style='margin:auto;width: auto; font-size: 150%'><span style='font-weight: bold; font-size: 100px; color: red;'>0 points!</span><br><br></div>,,delaylearn,learning,feedback_image_window,zWzQXqSXaMg2Fo4B32nGyjbjNNr2,zWzQXqSXaMg2Fo4B32nGyjbjNNr2,,,,,,,,,,,,,,,,,,,,,,63d166c1300217760a719112,09:11:51,27/02/2024
html-keyboard-response,73,150699,0.0-32.0,,"<div style=""font-size:100px;"">+</div>",,delaylearn,learning,ITI,zWzQXqSXaMg2Fo4B32nGyjbjNNr2,zWzQXqSXaMg2Fo4B32nGyjbjNNr2,,,,,,,,,,,,,,,,,,,1978.0,,,63d166c1300217760a719112,09:11:51,27/02/2024
html-keyboard-response,74,152377,0.0-33.0-0.0,1672.2000000476837,"<div style=""display: flex; flex-direction: column; align-items: center; margin-top: -40px;""><img src=""images/pattern_5.png"" style=""width: 234px; height: 230px; margin-top: -50px;""><div style=""display: flex; justify-content: space-between; margin-top: 33px;""><img src=""images/choice_trial_9.png"" style=""width: 408px; height: 417px; margin-right: 200px;""><img src=""images/choice_trial_10.png"" style=""width: 408px; height: 417px;""></div></div>",j,delaylearn,learning,trial,zWzQXqSXaMg2Fo4B32nGyjbjNNr2,zWzQXqSXaMg2Fo4B32nGyjbjNNr2,1.0,images/choice_trial_9.png,images/choice_trial_10.png,images/pattern_5.png,f,f,750.0,9.0,10.0,4.0,0.0,14.0,0.0,0.0,10.0,50.0,,,,,,63d166c1300217760a719112,09:11:51,27/02/2024
html-keyboard-response,75,153392,0.0-33.0-1.0,,"<div style=""display: flex; flex-direction: column; align-items: center; margin-top: -40px;""><img src=""images/pattern_5.png"" style=""width: 234px; height: 230px; margin-top: -50px;""><div style=""display: flex; justify-content: space-between; margin-top: 33px;""><img src=""images/choice_trial_10.png"" style=""width: 408px; height: 417px; margin-left:608px;""></div></div>",,delaylearn,learning,display_response,zWzQXqSXaMg2Fo4B32nGyjbjNNr2,zWzQXqSXaMg2Fo4B32nGyjbjNNr2,,,,,,,,,,,,,,,,,chosen stimuli: images/choice_trial_10.png,,,,,63d166c1300217760a719112,09:11:51,27/02/2024
html-keyboard-response,76,154157,0.0-33.0-2.0,,,,delaylearn,learning,feedback_duration_window,zWzQXqSXaMg2Fo4B32nGyjbjNNr2,zWzQXqSXaMg2Fo4B32nGyjbjNNr2,,,,,,,,,,,,,,,,,,750.0,,,,63d166c1300217760a719112,09:11:51,27/02/2024
html-keyboard-response,77,155667,0.0-33.0-3.0,,<div style='margin:auto;width: auto; font-size: 150%'><span style='font-weight: bold; font-size: 100px; color: red;'>0 points!</span><br><br></div>,,delaylearn,learning,feedback_image_window,zWzQXqSXaMg2Fo4B32nGyjbjNNr2,zWzQXqSXaMg2Fo4B32nGyjbjNNr2,,,,,,,,,,,,,,,,,,,,,,63d166c1300217760a719112,09:11:51,27/02/2024
html-keyboard-response,78,156174,0.0-34.0-0.0,,,,,,mood_trial_fixation,zWzQXqSXaMg2Fo4B32nGyjbjNNr2,,,,,,,,,,,,,,,,,,,,,,,63d166c1300217760a719112,09:11:51,27/02/2024
lmdlab-html-vas-response,79,160460,0.0-34.0-1.0,3278.0,How happy are you right now?,0.23308806076430097,delaylearn,learning,mood_trial,zWzQXqSXaMg2Fo4B32nGyjbjNNr2,zWzQXqSXaMg2Fo4B32nGyjbjNNr2,,,,,,,,,,,,,,,,,,,,"['Very unhappy', 'Very happy']",,63d166c1300217760a719112,09:11:51,27/02/2024
html-keyboard-response,80,162180,0.0-35.0,,"<div style=""font-size:100px;"">+</div>",,delaylearn,learning,ITI,zWzQXqSXaMg2Fo4B32nGyjbjNNr2,zWzQXqSXaMg2Fo4B32nGyjbjNNr2,,,,,,,,,,,,,,,,,,,1713.0,,,63d166c1300217760a719112,09:11:51,27/02/2024
html-keyboard-response,81,164227,0.0-36.0-0.0,2041.2000000476837,"<div style=""display: flex; flex-direction: column; align-items: center; margin-top: -40px;""><img src=""images/pattern_6.png"" style=""width: 234px; height: 230px; margin-top: -50px;""><div style=""display: flex; justify-content: space-between; margin-top: 33px;""><img src=""images/choice_trial_11.png"" style=""width: 408px; height: 417px; margin-right: 200px;""><img src=""images/choice_trial_12.png"" style=""width: 408px; height: 417px;""></div></div>",j,delaylearn,learning,trial,zWzQXqSXaMg2Fo4B32nGyjbjNNr2,zWzQXqSXaMg2Fo4B32nGyjbjNNr2,1.0,images/choice_trial_11.png,images/choice_trial_12.png,images/pattern_6.png,f,f,750.0,11.0,12.0,5.0,0.0,15.0,0.0,0.0,12.0,50.0,,,,,,63d166c1300217760a719112,09:11:51,27/02/2024
html-keyboard-response,82,165231,0.0-36.0-1.0,,"<div style=""display: flex; flex-direction: column; align-items: center; margin-top: -40px;""><img src=""images/pattern_6.png"" style=""width: 234px; height: 230px; margin-top: -50px;""><div style=""display: flex; justify-content: space-between; margin-top: 33px;""><img src=""images/choice_trial_12.png"" style=""width: 408px; height: 417px; margin-left:608px;""></div></div>",,delaylearn,learning,display_response,zWzQXqSXaMg2Fo4B32nGyjbjNNr2,zWzQXqSXaMg2Fo4B32nGyjbjNNr2,,,,,,,,,,,,,,,,,chosen stimuli: images/choice_trial_12.png,,,,,63d166c1300217760a719112,09:11:51,27/02/2024
html-keyboard-response,83,165991,0.0-36.0-2.0,,,,delaylearn,learning,feedback_duration_window,zWzQXqSXaMg2Fo4B32nGyjbjNNr2,zWzQXqSXaMg2Fo4B32nGyjbjNNr2,,,,,,,,,,,,,,,,,,750.0,,,,63d166c1300217760a719112,09:11:51,27/02/2024
html-keyboard-response,84,167507,0.0-36.0-3.0,,<div style='margin:auto;width: auto; font-size: 150%'><span style='font-weight: bold; font-size: 100px; color: red;'>0 points!</span><br><br></div>,,delaylearn,learning,feedback_image_window,zWzQXqSXaMg2Fo4B32nGyjbjNNr2,zWzQXqSXaMg2Fo4B32nGyjbjNNr2,,,,,,,,,,,,,,,,,,,,,,63d166c1300217760a719112,09:11:51,27/02/2024
html-keyboard-response,85,169954,0.0-37.0,,"<div style=""font-size:100px;"">+</div>",,delaylearn,learning,ITI,zWzQXqSXaMg2Fo4B32nGyjbjNNr2,zWzQXqSXaMg2Fo4B32nGyjbjNNr2,,,,,,,,,,,,,,,,,,,2435.0,,,63d166c1300217760a719112,09:11:51,27/02/2024
html-keyboard-response,86,171199,0.0-38.0-0.0,1239.199999988079,"<div style=""display: flex; flex-direction: column; align-items: center; margin-top: -40px;""><img src=""images/pattern_4.png"" style=""width: 234px; height: 230px; margin-top: -50px;""><div style=""display: flex; justify-content: space-between; margin-top: 33px;""><img src=""images/choice_trial_8.png"" style=""width: 408px; height: 417px; margin-right: 200px;""><img src=""images/choice_trial_7.png"" style=""width: 408px; height: 417px;""></div></div>",j,delaylearn,learning,trial,zWzQXqSXaMg2Fo4B32nGyjbjNNr2,zWzQXqSXaMg2Fo4B32nGyjbjNNr2,1.0,images/choice_trial_8.png,images/choice_trial_7.png,images/pattern_4.png,j,j,7000.0,8.0,7.0,3.0,1.0,16.0,1.0,1.0,7.0,60.0,,,,,,63d166c1300217760a719112,09:11:51,27/02/2024
html-keyboard-response,87,172208,0.0-38.0-1.0,,"<div style=""display: flex; flex-direction: column; align-items: center; margin-top: -40px;""><img src=""images/pattern_4.png"" style=""width: 234px; height: 230px; margin-top: -50px;""><div style=""display: flex; justify-content: space-between; margin-top: 33px;""><img src=""images/choice_trial_7.png"" style=""width: 408px; height: 417px; margin-left:608px;""></div></div>",,delaylearn,learning,display_response,zWzQXqSXaMg2Fo4B32nGyjbjNNr2,zWzQXqSXaMg2Fo4B32nGyjbjNNr2,,,,,,,,,,,,,,,,,chosen stimuli: images/choice_trial_7.png,,,,,63d166c1300217760a719112,09:11:51,27/02/2024
html-keyboard-response,88,179224,0.0-38.0-2.0,,,,delaylearn,learning,feedback_duration_window,zWzQXqSXaMg2Fo4B32nGyjbjNNr2,zWzQXqSXaMg2Fo4B32nGyjbjNNr2,,,,,,,,,,,,,,,,,,7000.0,,,,63d166c1300217760a719112,09:11:51,27/02/2024
html-keyboard-response,89,180730,0.0-38.0-3.0,,<div style='margin:auto;width: auto; font-size: 150%'><span style='font-weight: bold; font-size: 100px; color: green;'>+10 points!</span><br><br></div>,,delaylearn,learning,feedback_image_window,zWzQXqSXaMg2Fo4B32nGyjbjNNr2,zWzQXqSXaMg2Fo4B32nGyjbjNNr2,,,,,,,,,,,,,,,,,,,,,,63d166c1300217760a719112,09:11:51,27/02/2024
html-keyboard-response,90,182677,0.0-39.0,,"<div style=""font-size:100px;"">+</div>",,delaylearn,learning,ITI,zWzQXqSXaMg2Fo4B32nGyjbjNNr2,zWzQXqSXaMg2Fo4B32nGyjbjNNr2,,,,,,,,,,,,,,,,,,,1940.0,,,63d166c1300217760a719112,09:11:51,27/02/2024
html-keyboard-response,91,184467,0.0-40.0-0.0,1783.5,"<div style=""display: flex; flex-direction: column; align-items: center; margin-top: -40px;""><img src=""images/pattern_7.png"" style=""width: 234px; height: 230px; margin-top: -50px;""><div style=""display: flex; justify-content: space-between; margin-top: 33px;""><img src=""images/choice_trial_13.png"" style=""width: 408px; height: 417px; margin-right: 200px;""><img src=""images/choice_trial_14.png"" style=""width: 408px; height: 417px;""></div></div>",f,delaylearn,learning,trial,zWzQXqSXaMg2Fo4B32nGyjbjNNr2,zWzQXqSXaMg2Fo4B32nGyjbjNNr2,1.0,images/choice_trial_13.png,images/choice_trial_14.png,images/pattern_7.png,j,f,750.0,13.0,14.0,6.0,0.0,17.0,1.0,0.0,13.0,60.0,,,,,,63d166c1300217760a719112,09:11:51,27/02/2024
html-keyboard-response,92,185474,0.0-40.0-1.0,,"<div style=""display: flex; flex-direction: column; align-items: center; margin-top: -40px;""><img src=""images/pattern_7.png"" style=""width: 234px; height: 230px; margin-top: -50px;""><div style=""display: flex; justify-content: space-between; margin-top: 33px;""><img src=""images/choice_trial_13.png"" style=""width: 408px; height: 417px; margin-right: 608px;""></div></div>",,delaylearn,learning,display_response,zWzQXqSXaMg2Fo4B32nGyjbjNNr2,zWzQXqSXaMg2Fo4B32nGyjbjNNr2,,,,,,,,,,,,,,,,,chosen stimuli: images/choice_trial_13.png,,,,,63d166c1300217760a719112,09:11:51,27/02/2024
html-keyboard-response,93,186233,0.0-40.0-2.0,,,,delaylearn,learning,feedback_duration_window,zWzQXqSXaMg2Fo4B32nGyjbjNNr2,zWzQXqSXaMg2Fo4B32nGyjbjNNr2,,,,,,,,,,,,,,,,,,750.0,,,,63d166c1300217760a719112,09:11:51,27/02/2024
html-keyboard-response,94,187738,0.0-40.0-3.0,,<div style='margin:auto;width: auto; font-size: 150%'><span style='font-weight: bold; font-size: 100px; color: red;'>0 points!</span><br><br></div>,,delaylearn,learning,feedback_image_window,zWzQXqSXaMg2Fo4B32nGyjbjNNr2,zWzQXqSXaMg2Fo4B32nGyjbjNNr2,,,,,,,,,,,,,,,,,,,,,,63d166c1300217760a719112,09:11:51,27/02/2024
html-keyboard-response,95,190137,0.0-41.0,,"<div style=""font-size:100px;"">+</div>",,delaylearn,learning,ITI,zWzQXqSXaMg2Fo4B32nGyjbjNNr2,zWzQXqSXaMg2Fo4B32nGyjbjNNr2,,,,,,,,,,,,,,,,,,,2395.0,,,63d166c1300217760a719112,09:11:51,27/02/2024
html-keyboard-response,96,191349,0.0-42.0-0.0,1206.1000000238419,"<div style=""display: flex; flex-direction: column; align-items: center; margin-top: -40px;""><img src=""images/pattern_1.png"" style=""width: 234px; height: 230px; margin-top: -50px;""><div style=""display: flex; justify-content: space-between; margin-top: 33px;""><img src=""images/choice_trial_1.png"" style=""width: 408px; height: 417px; margin-right: 200px;""><img src=""images/choice_trial_2.png"" style=""width: 408px; height: 417px;""></div></div>",f,delaylearn,learning,trial,zWzQXqSXaMg2Fo4B32nGyjbjNNr2,zWzQXqSXaMg2Fo4B32nGyjbjNNr2,1.0,images/choice_trial_1.png,images/choice_trial_2.png,images/pattern_1.png,f,f,7000.0,1.0,2.0,1.0,0.0,18.0,1.0,1.0,1.0,70.0,,,,,,63d166c1300217760a719112,09:11:51,27/02/2024
html-keyboard-response,97,192356,0.0-42.0-1.0,,"<div style=""display: flex; flex-direction: column; align-items: center; margin-top: -40px;""><img src=""images/pattern_1.png"" style=""width: 234px; height: 230px; margin-top: -50px;""><div style=""display: flex; justify-content: space-between; margin-top: 33px;""><img src=""images/choice_trial_1.png"" style=""width: 408px; height: 417px; margin-right: 608px;""></div></div>",,delaylearn,learning,display_response,zWzQXqSXaMg2Fo4B32nGyjbjNNr2,zWzQXqSXaMg2Fo4B32nGyjbjNNr2,,,,,,,,,,,,,,,,,chosen stimuli: images/choice_trial_1.png,,,,,63d166c1300217760a719112,09:11:51,27/02/2024
html-keyboard-response,98,199368,0.0-42.0-2.0,,,,delaylearn,learning,feedback_duration_window,zWzQXqSXaMg2Fo4B32nGyjbjNNr2,zWzQXqSXaMg2Fo4B32nGyjbjNNr2,,,,,,,,,,,,,,,,,,7000.0,,,,63d166c1300217760a719112,09:11:51,27/02/2024
html-keyboard-response,99,200878,0.0-42.0-3.0,,<div style='margin:auto;width: auto; font-size: 150%'><span style='font-weight: bold; font-size: 100px; color: green;'>+10 points!</span><br><br></div>,,delaylearn,learning,feedback_image_window,zWzQXqSXaMg2Fo4B32nGyjbjNNr2,zWzQXqSXaMg2Fo4B32nGyjbjNNr2,,,,,,,,,,,,,,,,,,,,,,63d166c1300217760a719112,09:11:51,27/02/2024
html-keyboard-response,100,202391,0.0-43.0,,"<div style=""font-size:100px;"">+</div>",,delaylearn,learning,ITI,zWzQXqSXaMg2Fo4B32nGyjbjNNr2,zWzQXqSXaMg2Fo4B32nGyjbjNNr2,,,,,,,,,,,,,,,,,,,1503.0,,,63d166c1300217760a719112,09:11:51,27/02/2024
html-keyboard-response,101,203552,0.0-44.0-0.0,1156.0,"<div style=""display: flex; flex-direction: column; align-items: center; margin-top: -40px;""><img src=""images/pattern_6.png"" style=""width: 234px; height: 230px; margin-top: -50px;""><div style=""display: flex; justify-content: space-between; margin-top: 33px;""><img src=""images/choice_trial_12.png"" style=""width: 408px; height: 417px; margin-right: 200px;""><img src=""images/choice_trial_11.png"" style=""width: 408px; height: 417px;""></div></div>",f,delaylearn,learning,trial,zWzQXqSXaMg2Fo4B32nGyjbjNNr2,zWzQXqSXaMg2Fo4B32nGyjbjNNr2,1.0,images/choice_trial_12.png,images/choice_trial_11.png,images/pattern_6.png,j,j,750.0,12.0,11.0,5.0,1.0,19.0,0.0,0.0,12.0,70.0,,,,,,63d166c1300217760a719112,09:11:51,27/02/2024
html-keyboard-response,102,204567,0.0-44.0-1.0,,"<div style=""display: flex; flex-direction: column; align-items: center; margin-top: -40px;""><img src=""images/pattern_6.png"" style=""width: 234px; height: 230px; margin-top: -50px;""><div style=""display: flex; justify-content: space-between; margin-top: 33px;""><img src=""images/choice_trial_12.png"" style=""width: 408px; height: 417px; margin-right: 608px;""></div></div>",,delaylearn,learning,display_response,zWzQXqSXaMg2Fo4B32nGyjbjNNr2,zWzQXqSXaMg2Fo4B32nGyjbjNNr2,,,,,,,,,,,,,,,,,chosen stimuli: images/choice_trial_12.png,,,,,63d166c1300217760a719112,09:11:51,27/02/2024
html-keyboard-response,103,205323,0.0-44.0-2.0,,,,delaylearn,learning,feedback_duration_window,zWzQXqSXaMg2Fo4B32nGyjbjNNr2,zWzQXqSXaMg2Fo4B32nGyjbjNNr2,,,,,,,,,,,,,,,,,,750.0,,,,63d166c1300217760a719112,09:11:51,27/02/2024
html-keyboard-response,104,206840,0.0-44.0-3.0,,<div style='margin:auto;width: auto; font-size: 150%'><span style='font-weight: bold; font-size: 100px; color: red;'>0 points!</span><br><br></div>,,delaylearn,learning,feedback_image_window,zWzQXqSXaMg2Fo4B32nGyjbjNNr2,zWzQXqSXaMg2Fo4B32nGyjbjNNr2,,,,,,,,,,,,,,,,,,,,,,63d166c1300217760a719112,09:11:51,27/02/2024
html-keyboard-response,105,209153,0.0-45.0,,"<div style=""font-size:100px;"">+</div>",,delaylearn,learning,ITI,zWzQXqSXaMg2Fo4B32nGyjbjNNr2,zWzQXqSXaMg2Fo4B32nGyjbjNNr2,,,,,,,,,,,,,,,,,,,2305.0,,,63d166c1300217760a719112,09:11:51,27/02/2024
html-keyboard-response,106,210109,0.0-46.0-0.0,950.0,"<div style=""display: flex; flex-direction: column; align-items: center; margin-top: -40px;""><img src=""images/pattern_4.png"" style=""width: 234px; height: 230px; margin-top: -50px;""><div style=""display: flex; justify-content: space-between; margin-top: 33px;""><img src=""images/choice_trial_7.png"" style=""width: 408px; height: 417px; margin-right: 200px;""><img src=""images/choice_trial_8.png"" style=""width: 408px; height: 417px;""></div></div>",f,delaylearn,learning,trial,zWzQXqSXaMg2Fo4B32nGyjbjNNr2,zWzQXqSXaMg2Fo4B32nGyjbjNNr2,1.0,images/choice_trial_7.png,images/choice_trial_8.png,images/pattern_4.png,f,f,7000.0,7.0,8.0,3.0,0.0,20.0,1.0,1.0,7.0,80.0,,,,,,63d166c1300217760a719112,09:11:51,27/02/2024
html-keyboard-response,107,211115,0.0-46.0-1.0,,"<div style=""display: flex; flex-direction: column; align-items: center; margin-top: -40px;""><img src=""images/pattern_4.png"" style=""width: 234px; height: 230px; margin-top: -50px;""><div style=""display: flex; justify-content: space-between; margin-top: 33px;""><img src=""images/choice_trial_7.png"" style=""width: 408px; height: 417px; margin-right: 608px;""></div></div>",,delaylearn,learning,display_response,zWzQXqSXaMg2Fo4B32nGyjbjNNr2,zWzQXqSXaMg2Fo4B32nGyjbjNNr2,,,,,,,,,,,,,,,,,chosen stimuli: images/choice_trial_7.png,,,,,63d166c1300217760a719112,09:11:51,27/02/2024
html-keyboard-response,108,218121,0.0-46.0-2.0,,,,delaylearn,learning,feedback_duration_window,zWzQXqSXaMg2Fo4B32nGyjbjNNr2,zWzQXqSXaMg2Fo4B32nGyjbjNNr2,,,,,,,,,,,,,,,,,,7000.0,,,,63d166c1300217760a719112,09:11:51,27/02/2024
html-keyboard-response,109,219628,0.0-46.0-3.0,,<div style='margin:auto;width: auto; font-size: 150%'><span style='font-weight: bold; font-size: 100px; color: green;'>+10 points!</span><br><br></div>,,delaylearn,learning,feedback_image_window,zWzQXqSXaMg2Fo4B32nGyjbjNNr2,zWzQXqSXaMg2Fo4B32nGyjbjNNr2,,,,,,,,,,,,,,,,,,,,,,63d166c1300217760a719112,09:11:51,27/02/2024
html-keyboard-response,110,220133,0.0-47.0-0.0,,,,,,mood_trial_fixation,zWzQXqSXaMg2Fo4B32nGyjbjNNr2,,,,,,,,,,,,,,,,,,,,,,,63d166c1300217760a719112,09:11:51,27/02/2024
lmdlab-html-vas-response,111,224448,0.0-47.0-1.0,3291.0,How happy are you right now?,0.5694618697229663,delaylearn,learning,mood_trial,zWzQXqSXaMg2Fo4B32nGyjbjNNr2,zWzQXqSXaMg2Fo4B32nGyjbjNNr2,,,,,,,,,,,,,,,,,,,,"['Very unhappy', 'Very happy']",,63d166c1300217760a719112,09:11:51,27/02/2024
html-keyboard-response,112,226231,0.0-48.0,,"<div style=""font-size:100px;"">+</div>",,delaylearn,learning,ITI,zWzQXqSXaMg2Fo4B32nGyjbjNNr2,zWzQXqSXaMg2Fo4B32nGyjbjNNr2,,,,,,,,,,,,,,,,,,,1769.0,,,63d166c1300217760a719112,09:11:51,27/02/2024
html-keyboard-response,113,227656,0.0-49.0-0.0,1418.300000011921,"<div style=""display: flex; flex-direction: column; align-items: center; margin-top: -40px;""><img src=""images/pattern_7.png"" style=""width: 234px; height: 230px; margin-top: -50px;""><div style=""display: flex; justify-content: space-between; margin-top: 33px;""><img src=""images/choice_trial_14.png"" style=""width: 408px; height: 417px; margin-right: 200px;""><img src=""images/choice_trial_13.png"" style=""width: 408px; height: 417px;""></div></div>",j,delaylearn,learning,trial,zWzQXqSXaMg2Fo4B32nGyjbjNNr2,zWzQXqSXaMg2Fo4B32nGyjbjNNr2,1.0,images/choice_trial_14.png,images/choice_trial_13.png,images/pattern_7.png,j,j,750.0,14.0,13.0,6.0,1.0,21.0,1.0,1.0,13.0,90.0,,,,,,63d166c1300217760a719112,09:11:51,27/02/2024
html-keyboard-response,114,228669,0.0-49.0-1.0,,"<div style=""display: flex; flex-direction: column; align-items: center; margin-top: -40px;""><img src=""images/pattern_7.png"" style=""width: 234px; height: 230px; margin-top: -50px;""><div style=""display: flex; justify-content: space-between; margin-top: 33px;""><img src=""images/choice_trial_13.png"" style=""width: 408px; height: 417px; margin-left:608px;""></div></div>",,delaylearn,learning,display_response,zWzQXqSXaMg2Fo4B32nGyjbjNNr2,zWzQXqSXaMg2Fo4B32nGyjbjNNr2,,,,,,,,,,,,,,,,,chosen stimuli: images/choice_trial_13.png,,,,,63d166c1300217760a719112,09:11:51,27/02/2024
html-keyboard-response,115,229435,0.0-49.0-2.0,,,,delaylearn,learning,feedback_duration_window,zWzQXqSXaMg2Fo4B32nGyjbjNNr2,zWzQXqSXaMg2Fo4B32nGyjbjNNr2,,,,,,,,,,,,,,,,,,750.0,,,,63d166c1300217760a719112,09:11:51,27/02/2024
html-keyboard-response,116,230952,0.0-49.0-3.0,,<div style='margin:auto;width: auto; font-size: 150%'><span style='font-weight: bold; font-size: 100px; color: green;'>+10 points!</span><br><br></div>,,delaylearn,learning,feedback_image_window,zWzQXqSXaMg2Fo4B32nGyjbjNNr2,zWzQXqSXaMg2Fo4B32nGyjbjNNr2,,,,,,,,,,,,,,,,,,,,,,63d166c1300217760a719112,09:11:51,27/02/2024
html-keyboard-response,117,232848,0.0-50.0,,"<div style=""font-size:100px;"">+</div>",,delaylearn,learning,ITI,zWzQXqSXaMg2Fo4B32nGyjbjNNr2,zWzQXqSXaMg2Fo4B32nGyjbjNNr2,,,,,,,,,,,,,,,,,,,1885.0,,,63d166c1300217760a719112,09:11:51,27/02/2024
html-keyboard-response,118,234099,0.0-51.0-0.0,1245.199999988079,"<div style=""display: flex; flex-direction: column; align-items: center; margin-top: -40px;""><img src=""images/pattern_1.png"" style=""width: 234px; height: 230px; margin-top: -50px;""><div style=""display: flex; justify-content: space-between; margin-top: 33px;""><img src=""images/choice_trial_2.png"" style=""width: 408px; height: 417px; margin-right: 200px;""><img src=""images/choice_trial_1.png"" style=""width: 408px; height: 417px;""></div></div>",j,delaylearn,learning,trial,zWzQXqSXaMg2Fo4B32nGyjbjNNr2,zWzQXqSXaMg2Fo4B32nGyjbjNNr2,1.0,images/choice_trial_2.png,images/choice_trial_1.png,images/pattern_1.png,f,j,7000.0,2.0,1.0,1.0,1.0,22.0,1.0,0.0,1.0,90.0,,,,,,63d166c1300217760a719112,09:11:51,27/02/2024
html-keyboard-response,119,235109,0.0-51.0-1.0,,"<div style=""display: flex; flex-direction: column; align-items: center; margin-top: -40px;""><img src=""images/pattern_1.png"" style=""width: 234px; height: 230px; margin-top: -50px;""><div style=""display: flex; justify-content: space-between; margin-top: 33px;""><img src=""images/choice_trial_1.png"" style=""width: 408px; height: 417px; margin-left:608px;""></div></div>",,delaylearn,learning,display_response,zWzQXqSXaMg2Fo4B32nGyjbjNNr2,zWzQXqSXaMg2Fo4B32nGyjbjNNr2,,,,,,,,,,,,,,,,,chosen stimuli: images/choice_trial_1.png,,,,,63d166c1300217760a719112,09:11:51,27/02/2024
html-keyboard-response,120,242114,0.0-51.0-2.0,,,,delaylearn,learning,feedback_duration_window,zWzQXqSXaMg2Fo4B32nGyjbjNNr2,zWzQXqSXaMg2Fo4B32nGyjbjNNr2,,,,,,,,,,,,,,,,,,7000.0,,,,63d166c1300217760a719112,09:11:51,27/02/2024
html-keyboard-response,121,243620,0.0-51.0-3.0,,<div style='margin:auto;width: auto; font-size: 150%'><span style='font-weight: bold; font-size: 100px; color: red;'>0 points!</span><br><br></div>,,delaylearn,learning,feedback_image_window,zWzQXqSXaMg2Fo4B32nGyjbjNNr2,zWzQXqSXaMg2Fo4B32nGyjbjNNr2,,,,,,,,,,,,,,,,,,,,,,63d166c1300217760a719112,09:11:51,27/02/2024
html-keyboard-response,122,245150,0.0-52.0,,"<div style=""font-size:100px;"">+</div>",,delaylearn,learning,ITI,zWzQXqSXaMg2Fo4B32nGyjbjNNr2,zWzQXqSXaMg2Fo4B32nGyjbjNNr2,,,,,,,,,,,,,,,,,,,1522.0,,,63d166c1300217760a719112,09:11:51,27/02/2024
html-keyboard-response,123,246366,0.0-53.0-0.0,1210.1000000238419,"<div style=""display: flex; flex-direction: column; align-items: center; margin-top: -40px;""><img src=""images/pattern_5.png"" style=""width: 234px; height: 230px; margin-top: -50px;""><div style=""display: flex; justify-content: space-between; margin-top: 33px;""><img src=""images/choice_trial_10.png"" style=""width: 408px; height: 417px; margin-right: 200px;""><img src=""images/choice_trial_9.png"" style=""width: 408px; height: 417px;""></div></div>",f,delaylearn,learning,trial,zWzQXqSXaMg2Fo4B32nGyjbjNNr2,zWzQXqSXaMg2Fo4B32nGyjbjNNr2,1.0,images/choice_trial_10.png,images/choice_trial_9.png,images/pattern_5.png,j,j,750.0,10.0,9.0,4.0,1.0,23.0,0.0,0.0,10.0,90.0,,,,,,63d166c1300217760a719112,09:11:51,27/02/2024
html-keyboard-response,124,247374,0.0-53.0-1.0,,"<div style=""display: flex; flex-direction: column; align-items: center; margin-top: -40px;""><img src=""images/pattern_5.png"" style=""width: 234px; height: 230px; margin-top: -50px;""><div style=""display: flex; justify-content: space-between; margin-top: 33px;""><img src=""images/choice_trial_10.png"" style=""width: 408px; height: 417px; margin-right: 608px;""></div></div>",,delaylearn,learning,display_response,zWzQXqSXaMg2Fo4B32nGyjbjNNr2,zWzQXqSXaMg2Fo4B32nGyjbjNNr2,,,,,,,,,,,,,,,,,chosen stimuli: images/choice_trial_10.png,,,,,63d166c1300217760a719112,09:11:51,27/02/2024
html-keyboard-response,125,248132,0.0-53.0-2.0,,,,delaylearn,learning,feedback_duration_window,zWzQXqSXaMg2Fo4B32nGyjbjNNr2,zWzQXqSXaMg2Fo4B32nGyjbjNNr2,,,,,,,,,,,,,,,,,,750.0,,,,63d166c1300217760a719112,09:11:51,27/02/2024
html-keyboard-response,126,249638,0.0-53.0-3.0,,<div style='margin:auto;width: auto; font-size: 150%'><span style='font-weight: bold; font-size: 100px; color: red;'>0 points!</span><br><br></div>,,delaylearn,learning,feedback_image_window,zWzQXqSXaMg2Fo4B32nGyjbjNNr2,zWzQXqSXaMg2Fo4B32nGyjbjNNr2,,,,,,,,,,,,,,,,,,,,,,63d166c1300217760a719112,09:11:51,27/02/2024
html-keyboard-response,127,251435,0.0-54.0,,"<div style=""font-size:100px;"">+</div>",,delaylearn,learning,ITI,zWzQXqSXaMg2Fo4B32nGyjbjNNr2,zWzQXqSXaMg2Fo4B32nGyjbjNNr2,,,,,,,,,,,,,,,,,,,1791.0,,,63d166c1300217760a719112,09:11:51,27/02/2024
html-keyboard-response,128,253086,0.0-55.0-0.0,1644.0,"<div style=""display: flex; flex-direction: column; align-items: center; margin-top: -40px;""><img src=""images/pattern_3.png"" style=""width: 234px; height: 230px; margin-top: -50px;""><div style=""display: flex; justify-content: space-between; margin-top: 33px;""><img src=""images/choice_trial_6.png"" style=""width: 408px; height: 417px; margin-right: 200px;""><img src=""images/choice_trial_5.png"" style=""width: 408px; height: 417px;""></div></div>",j,delaylearn,learning,trial,zWzQXqSXaMg2Fo4B32nGyjbjNNr2,zWzQXqSXaMg2Fo4B32nGyjbjNNr2,1.0,images/choice_trial_6.png,images/choice_trial_5.png,images/pattern_3.png,j,j,7000.0,6.0,5.0,2.0,1.0,24.0,1.0,1.0,5.0,100.0,,,,,,63d166c1300217760a719112,09:11:51,27/02/2024
html-keyboard-response,129,254091,0.0-55.0-1.0,,"<div style=""display: flex; flex-direction: column; align-items: center; margin-top: -40px;""><img src=""images/pattern_3.png"" style=""width: 234px; height: 230px; margin-top: -50px;""><div style=""display: flex; justify-content: space-between; margin-top: 33px;""><img src=""images/choice_trial_5.png"" style=""width: 408px; height: 417px; margin-left:608px;""></div></div>",,delaylearn,learning,display_response,zWzQXqSXaMg2Fo4B32nGyjbjNNr2,zWzQXqSXaMg2Fo4B32nGyjbjNNr2,,,,,,,,,,,,,,,,,chosen stimuli: images/choice_trial_5.png,,,,,63d166c1300217760a719112,09:11:51,27/02/2024
html-keyboard-response,130,261106,0.0-55.0-2.0,,,,delaylearn,learning,feedback_duration_window,zWzQXqSXaMg2Fo4B32nGyjbjNNr2,zWzQXqSXaMg2Fo4B32nGyjbjNNr2,,,,,,,,,,,,,,,,,,7000.0,,,,63d166c1300217760a719112,09:11:51,27/02/2024
html-keyboard-response,131,262615,0.0-55.0-3.0,,<div style='margin:auto;width: auto; font-size: 150%'><span style='font-weight: bold; font-size: 100px; color: green;'>+10 points!</span><br><br></div>,,delaylearn,learning,feedback_image_window,zWzQXqSXaMg2Fo4B32nGyjbjNNr2,zWzQXqSXaMg2Fo4B32nGyjbjNNr2,,,,,,,,,,,,,,,,,,,,,,63d166c1300217760a719112,09:11:51,27/02/2024
lmdlab-html-vas-response,132,268121,0.0-56.0-0.0,3967.0,*How <b><u>confident</u></b> are you feeling about your answers at this moment?*,0.7148621613373571,rewlearn,rate_confidence,,zWzQXqSXaMg2Fo4B32nGyjbjNNr2,zWzQXqSXaMg2Fo4B32nGyjbjNNr2,,,,,,,,,,,,,,,,,,,,"['No confidence', 'Complete confidence']",,63d166c1300217760a719112,09:11:51,27/02/2024
lmdlab-rest-trial-limit,133,274269,0.0-56.0-1.0,4638.100000023842,"<div style=""font-size:40px;""><b>Please take a break!</b><br><br><br><br><p>Great work: you earned undefined points.<br><br><br><p>You have completed part(s) 1 of 6.<br><br><br><br>When you are ready to continue<br><br><br>please click the button.</p><br><br>",0,delaylearn,learning,break,zWzQXqSXaMg2Fo4B32nGyjbjNNr2,zWzQXqSXaMg2Fo4B32nGyjbjNNr2,,,,,,,,,,,,,,,,,,,,,0.0,63d166c1300217760a719112,09:11:51,27/02/2024
html-keyboard-response,134,277286,0.0-56.0-2.0,,"<div style=""font-size:100px;"">+</div>",,delaylearn,learning,pre_fixation,zWzQXqSXaMg2Fo4B32nGyjbjNNr2,,,,,,,,,,,,,,,,,,,,,,,63d166c1300217760a719112,09:11:51,27/02/2024
lmdlab-html-vas-response,135,281762,0.0-56.0-3.0-0.0,3450.0,How happy are you right now?,0.5868230985724459,delaylearn,learning,mood_baseline,zWzQXqSXaMg2Fo4B32nGyjbjNNr2,zWzQXqSXaMg2Fo4B32nGyjbjNNr2,,,,,,,,,,,,,,,,,,,,"['Very unhappy', 'Very happy']",,63d166c1300217760a719112,09:11:51,27/02/2024
html-keyboard-response,136,283275,0.0-56.0-3.0-1.0,,,,,,mood_baseline_fixation,zWzQXqSXaMg2Fo4B32nGyjbjNNr2,,,,,,,,,,,,,,,,,,,,,,,63d166c1300217760a719112,09:11:51,27/02/2024
html-keyboard-response,137,285299,0.0-57.0,,"<div style=""font-size:100px;"">+</div>",,delaylearn,learning,ITI,zWzQXqSXaMg2Fo4B32nGyjbjNNr2,zWzQXqSXaMg2Fo4B32nGyjbjNNr2,,,,,,,,,,,,,,,,,,,2010.0,,,63d166c1300217760a719112,09:11:51,27/02/2024
html-keyboard-response,138,286581,0.0-58.0-0.0,1273.1000000238419,"<div style=""display: flex; flex-direction: column; align-items: center; margin-top: -40px;""><img src=""images/pattern_7.png"" style=""width: 234px; height: 230px; margin-top: -50px;""><div style=""display: flex; justify-content: space-between; margin-top: 33px;""><img src=""images/choice_trial_14.png"" style=""width: 408px; height: 417px; margin-right: 200px;""><img src=""images/choice_trial_13.png"" style=""width: 408px; height: 417px;""></div></div>",j,delaylearn,learning,trial,zWzQXqSXaMg2Fo4B32nGyjbjNNr2,zWzQXqSXaMg2Fo4B32nGyjbjNNr2,1.0,images/choice_trial_14.png,images/choice_trial_13.png,images/pattern_7.png,j,j,750.0,14.0,13.0,6.0,1.0,25.0,1.0,1.0,13.0,110.0,,,,,,63d166c1300217760a719112,09:11:51,27/02/2024
html-keyboard-response,139,287588,0.0-58.0-1.0,,"<div style=""display: flex; flex-direction: column; align-items: center; margin-top: -40px;""><img src=""images/pattern_7.png"" style=""width: 234px; height: 230px; margin-top: -50px;""><div style=""display: flex; justify-content: space-between; margin-top: 33px;""><img src=""images/choice_trial_13.png"" style=""width: 408px; height: 417px; margin-left:608px;""></div></div>",,delaylearn,learning,display_response,zWzQXqSXaMg2Fo4B32nGyjbjNNr2,zWzQXqSXaMg2Fo4B32nGyjbjNNr2,,,,,,,,,,,,,,,,,chosen stimuli: images/choice_trial_13.png,,,,,63d166c1300217760a719112,09:11:51,27/02/2024
html-keyboard-response,140,288353,0.0-58.0-2.0,,,,delaylearn,learning,feedback_duration_window,zWzQXqSXaMg2Fo4B32nGyjbjNNr2,zWzQXqSXaMg2Fo4B32nGyjbjNNr2,,,,,,,,,,,,,,,,,,750.0,,,,63d166c1300217760a719112,09:11:51,27/02/2024
html-keyboard-response,141,289858,0.0-58.0-3.0,,<div style='margin:auto;width: auto; font-size: 150%'><span style='font-weight: bold; font-size: 100px; color: green;'>+10 points!</span><br><br></div>,,delaylearn,learning,feedback_image_window,zWzQXqSXaMg2Fo4B32nGyjbjNNr2,zWzQXqSXaMg2Fo4B32nGyjbjNNr2,,,,,,,,,,,,,,,,,,,,,,63d166c1300217760a719112,09:11:51,27/02/2024
html-keyboard-response,142,290369,0.0-59.0-0.0,,,,,,mood_trial_fixation,zWzQXqSXaMg2Fo4B32nGyjbjNNr2,,,,,,,,,,,,,,,,,,,,,,,63d166c1300217760a719112,09:11:51,27/02/2024
lmdlab-html-vas-response,143,294642,0.0-59.0-1.0,3264.0,How happy are you right now?,0.6432470923332542,delaylearn,learning,mood_trial,zWzQXqSXaMg2Fo4B32nGyjbjNNr2,zWzQXqSXaMg2Fo4B32nGyjbjNNr2,,,,,,,,,,,,,,,,,,,,"['Very unhappy', 'Very happy']",,63d166c1300217760a719112,09:11:51,27/02/2024
html-keyboard-response,144,296742,0.0-60.0,,"<div style=""font-size:100px;"">+</div>",,delaylearn,learning,ITI,zWzQXqSXaMg2Fo4B32nGyjbjNNr2,zWzQXqSXaMg2Fo4B32nGyjbjNNr2,,,,,,,,,,,,,,,,,,,2086.0,,,63d166c1300217760a719112,09:11:51,27/02/2024
html-keyboard-response,145,297863,0.0-61.0-0.0,1114.8999999761581,"<div style=""display: flex; flex-direction: column; align-items: center; margin-top: -40px;""><img src=""images/pattern_1.png"" style=""width: 234px; height: 230px; margin-top: -50px;""><div style=""display: flex; justify-content: space-between; margin-top: 33px;""><img src=""images/choice_trial_1.png"" style=""width: 408px; height: 417px; margin-right: 200px;""><img src=""images/choice_trial_2.png"" style=""width: 408px; height: 417px;""></div></div>",f,delaylearn,learning,trial,zWzQXqSXaMg2Fo4B32nGyjbjNNr2,zWzQXqSXaMg2Fo4B32nGyjbjNNr2,1.0,images/choice_trial_1.png,images/choice_trial_2.png,images/pattern_1.png,f,f,7000.0,1.0,2.0,1.0,0.0,26.0,1.0,1.0,1.0,120.0,,,,,,63d166c1300217760a719112,09:11:51,27/02/2024
html-keyboard-response,146,298868,0.0-61.0-1.0,,"<div style=""display: flex; flex-direction: column; align-items: center; margin-top: -40px;""><img src=""images/pattern_1.png"" style=""width: 234px; height: 230px; margin-top: -50px;""><div style=""display: flex; justify-content: space-between; margin-top: 33px;""><img src=""images/choice_trial_1.png"" style=""width: 408px; height: 417px; margin-right: 608px;""></div></div>",,delaylearn,learning,display_response,zWzQXqSXaMg2Fo4B32nGyjbjNNr2,zWzQXqSXaMg2Fo4B32nGyjbjNNr2,,,,,,,,,,,,,,,,,chosen stimuli: images/choice_trial_1.png,,,,,63d166c1300217760a719112,09:11:51,27/02/2024
html-keyboard-response,147,305874,0.0-61.0-2.0,,,,delaylearn,learning,feedback_duration_window,zWzQXqSXaMg2Fo4B32nGyjbjNNr2,zWzQXqSXaMg2Fo4B32nGyjbjNNr2,,,,,,,,,,,,,,,,,,7000.0,,,,63d166c1300217760a719112,09:11:51,27/02/2024
html-keyboard-response,148,307384,0.0-61.0-3.0,,<div style='margin:auto;width: auto; font-size: 150%'><span style='font-weight: bold; font-size: 100px; color: green;'>+10 points!</span><br><br></div>,,delaylearn,learning,feedback_image_window,zWzQXqSXaMg2Fo4B32nGyjbjNNr2,zWzQXqSXaMg2Fo4B32nGyjbjNNr2,,,,,,,,,,,,,,,,,,,,,,63d166c1300217760a719112,09:11:51,27/02/2024
html-keyboard-response,149,309395,0.0-62.0,,"<div style=""font-size:100px;"">+</div>",,delaylearn,learning,ITI,zWzQXqSXaMg2Fo4B32nGyjbjNNr2,zWzQXqSXaMg2Fo4B32nGyjbjNNr2,,,,,,,,,,,,,,,,,,,1998.0,,,63d166c1300217760a719112,09:11:51,27/02/2024
html-keyboard-response,150,310459,0.0-63.0-0.0,1056.800000011921,"<div style=""display: flex; flex-direction: column; align-items: center; margin-top: -40px;""><img src=""images/pattern_5.png"" style=""width: 234px; height: 230px; margin-top: -50px;""><div style=""display: flex; justify-content: space-between; margin-top: 33px;""><img src=""images/choice_trial_9.png"" style=""width: 408px; height: 417px; margin-right: 200px;""><img src=""images/choice_trial_10.png"" style=""width: 408px; height: 417px;""></div></div>",j,delaylearn,learning,trial,zWzQXqSXaMg2Fo4B32nGyjbjNNr2,zWzQXqSXaMg2Fo4B32nGyjbjNNr2,1.0,images/choice_trial_9.png,images/choice_trial_10.png,images/pattern_5.png,f,f,750.0,9.0,10.0,4.0,0.0,27.0,0.0,0.0,10.0,120.0,,,,,,63d166c1300217760a719112,09:11:51,27/02/2024
html-keyboard-response,151,311467,0.0-63.0-1.0,,"<div style=""display: flex; flex-direction: column; align-items: center; margin-top: -40px;""><img src=""images/pattern_5.png"" style=""width: 234px; height: 230px; margin-top: -50px;""><div style=""display: flex; justify-content: space-between; margin-top: 33px;""><img src=""images/choice_trial_10.png"" style=""width: 408px; height: 417px; margin-left:608px;""></div></div>",,delaylearn,learning,display_response,zWzQXqSXaMg2Fo4B32nGyjbjNNr2,zWzQXqSXaMg2Fo4B32nGyjbjNNr2,,,,,,,,,,,,,,,,,chosen stimuli: images/choice_trial_10.png,,,,,63d166c1300217760a719112,09:11:51,27/02/2024
html-keyboard-response,152,312230,0.0-63.0-2.0,,,,delaylearn,learning,feedback_duration_window,zWzQXqSXaMg2Fo4B32nGyjbjNNr2,zWzQXqSXaMg2Fo4B32nGyjbjNNr2,,,,,,,,,,,,,,,,,,750.0,,,,63d166c1300217760a719112,09:11:51,27/02/2024
html-keyboard-response,153,313749,0.0-63.0-3.0,,<div style='margin:auto;width: auto; font-size: 150%'><span style='font-weight: bold; font-size: 100px; color: red;'>0 points!</span><br><br></div>,,delaylearn,learning,feedback_image_window,zWzQXqSXaMg2Fo4B32nGyjbjNNr2,zWzQXqSXaMg2Fo4B32nGyjbjNNr2,,,,,,,,,,,,,,,,,,,,,,63d166c1300217760a719112,09:11:51,27/02/2024
html-keyboard-response,154,316207,0.0-64.0,,"<div style=""font-size:100px;"">+</div>",,delaylearn,learning,ITI,zWzQXqSXaMg2Fo4B32nGyjbjNNr2,zWzQXqSXaMg2Fo4B32nGyjbjNNr2,,,,,,,,,,,,,,,,,,,2445.0,,,63d166c1300217760a719112,09:11:51,27/02/2024
html-keyboard-response,155,317631,0.0-65.0-0.0,1417.3999999761581,"<div style=""display: flex; flex-direction: column; align-items: center; margin-top: -40px;""><img src=""images/pattern_6.png"" style=""width: 234px; height: 230px; margin-top: -50px;""><div style=""display: flex; justify-content: space-between; margin-top: 33px;""><img src=""images/choice_trial_12.png"" style=""width: 408px; height: 417px; margin-right: 200px;""><img src=""images/choice_trial_11.png"" style=""width: 408px; height: 417px;""></div></div>",f,delaylearn,learning,trial,zWzQXqSXaMg2Fo4B32nGyjbjNNr2,zWzQXqSXaMg2Fo4B32nGyjbjNNr2,1.0,images/choice_trial_12.png,images/choice_trial_11.png,images/pattern_6.png,j,j,750.0,12.0,11.0,5.0,1.0,28.0,0.0,0.0,12.0,120.0,,,,,,63d166c1300217760a719112,09:11:51,27/02/2024
html-keyboard-response,156,318650,0.0-65.0-1.0,,"<div style=""display: flex; flex-direction: column; align-items: center; margin-top: -40px;""><img src=""images/pattern_6.png"" style=""width: 234px; height: 230px; margin-top: -50px;""><div style=""display: flex; justify-content: space-between; margin-top: 33px;""><img src=""images/choice_trial_12.png"" style=""width: 408px; height: 417px; margin-right: 608px;""></div></div>",,delaylearn,learning,display_response,zWzQXqSXaMg2Fo4B32nGyjbjNNr2,zWzQXqSXaMg2Fo4B32nGyjbjNNr2,,,,,,,,,,,,,,,,,chosen stimuli: images/choice_trial_12.png,,,,,63d166c1300217760a719112,09:11:51,27/02/2024
html-keyboard-response,157,319416,0.0-65.0-2.0,,,,delaylearn,learning,feedback_duration_window,zWzQXqSXaMg2Fo4B32nGyjbjNNr2,zWzQXqSXaMg2Fo4B32nGyjbjNNr2,,,,,,,,,,,,,,,,,,750.0,,,,63d166c1300217760a719112,09:11:51,27/02/2024
html-keyboard-response,158,320933,0.0-65.0-3.0,,<div style='margin:auto;width: auto; font-size: 150%'><span style='font-weight: bold; font-size: 100px; color: red;'>0 points!</span><br><br></div>,,delaylearn,learning,feedback_image_window,zWzQXqSXaMg2Fo4B32nGyjbjNNr2,zWzQXqSXaMg2Fo4B32nGyjbjNNr2,,,,,,,,,,,,,,,,,,,,,,63d166c1300217760a719112,09:11:51,27/02/2024
html-keyboard-response,159,321443,0.0-66.0-0.0,,,,,,mood_trial_fixation,zWzQXqSXaMg2Fo4B32nGyjbjNNr2,,,,,,,,,,,,,,,,,,,,,,,63d166c1300217760a719112,09:11:51,27/02/2024
lmdlab-html-vas-response,160,325869,0.0-66.0-1.0,3415.0,How happy are you right now?,0.30687328337458886,delaylearn,learning,mood_trial,zWzQXqSXaMg2Fo4B32nGyjbjNNr2,zWzQXqSXaMg2Fo4B32nGyjbjNNr2,,,,,,,,,,,,,,,,,,,,"['Very unhappy', 'Very happy']",,63d166c1300217760a719112,09:11:51,27/02/2024
html-keyboard-response,161,328033,0.0-67.0,,"<div style=""font-size:100px;"">+</div>",,delaylearn,learning,ITI,zWzQXqSXaMg2Fo4B32nGyjbjNNr2,zWzQXqSXaMg2Fo4B32nGyjbjNNr2,,,,,,,,,,,,,,,,,,,2145.0,,,63d166c1300217760a719112,09:11:51,27/02/2024
html-keyboard-response,162,329179,0.0-68.0-0.0,1139.1000000238419,"<div style=""display: flex; flex-direction: column; align-items: center; margin-top: -40px;""><img src=""images/pattern_4.png"" style=""width: 234px; height: 230px; margin-top: -50px;""><div style=""display: flex; justify-content: space-between; margin-top: 33px;""><img src=""images/choice_trial_8.png"" style=""width: 408px; height: 417px; margin-right: 200px;""><img src=""images/choice_trial_7.png"" style=""width: 408px; height: 417px;""></div></div>",j,delaylearn,learning,trial,zWzQXqSXaMg2Fo4B32nGyjbjNNr2,zWzQXqSXaMg2Fo4B32nGyjbjNNr2,1.0,images/choice_trial_8.png,images/choice_trial_7.png,images/pattern_4.png,j,j,7000.0,8.0,7.0,3.0,1.0,29.0,1.0,1.0,7.0,130.0,,,,,,63d166c1300217760a719112,09:11:51,27/02/2024
html-keyboard-response,163,330198,0.0-68.0-1.0,,"<div style=""display: flex; flex-direction: column; align-items: center; margin-top: -40px;""><img src=""images/pattern_4.png"" style=""width: 234px; height: 230px; margin-top: -50px;""><div style=""display: flex; justify-content: space-between; margin-top: 33px;""><img src=""images/choice_trial_7.png"" style=""width: 408px; height: 417px; margin-left:608px;""></div></div>",,delaylearn,learning,display_response,zWzQXqSXaMg2Fo4B32nGyjbjNNr2,zWzQXqSXaMg2Fo4B32nGyjbjNNr2,,,,,,,,,,,,,,,,,chosen stimuli: images/choice_trial_7.png,,,,,63d166c1300217760a719112,09:11:51,27/02/2024
html-keyboard-response,164,337214,0.0-68.0-2.0,,,,delaylearn,learning,feedback_duration_window,zWzQXqSXaMg2Fo4B32nGyjbjNNr2,zWzQXqSXaMg2Fo4B32nGyjbjNNr2,,,,,,,,,,,,,,,,,,7000.0,,,,63d166c1300217760a719112,09:11:51,27/02/2024
html-keyboard-response,165,338725,0.0-68.0-3.0,,<div style='margin:auto;width: auto; font-size: 150%'><span style='font-weight: bold; font-size: 100px; color: green;'>+10 points!</span><br><br></div>,,delaylearn,learning,feedback_image_window,zWzQXqSXaMg2Fo4B32nGyjbjNNr2,zWzQXqSXaMg2Fo4B32nGyjbjNNr2,,,,,,,,,,,,,,,,,,,,,,63d166c1300217760a719112,09:11:51,27/02/2024
html-keyboard-response,166,340335,0.0-69.0,,"<div style=""font-size:100px;"">+</div>",,delaylearn,learning,ITI,zWzQXqSXaMg2Fo4B32nGyjbjNNr2,zWzQXqSXaMg2Fo4B32nGyjbjNNr2,,,,,,,,,,,,,,,,,,,1592.0,,,63d166c1300217760a719112,09:11:51,27/02/2024
html-keyboard-response,167,341779,0.0-70.0-0.0,1437.5999999642372,"<div style=""display: flex; flex-direction: column; align-items: center; margin-top: -40px;""><img src=""images/pattern_3.png"" style=""width: 234px; height: 230px; margin-top: -50px;""><div style=""display: flex; justify-content: space-between; margin-top: 33px;""><img src=""images/choice_trial_6.png"" style=""width: 408px; height: 417px; margin-right: 200px;""><img src=""images/choice_trial_5.png"" style=""width: 408px; height: 417px;""></div></div>",j,delaylearn,learning,trial,zWzQXqSXaMg2Fo4B32nGyjbjNNr2,zWzQXqSXaMg2Fo4B32nGyjbjNNr2,1.0,images/choice_trial_6.png,images/choice_trial_5.png,images/pattern_3.png,j,j,7000.0,6.0,5.0,2.0,1.0,30.0,1.0,1.0,5.0,140.0,,,,,,63d166c1300217760a719112,09:11:51,27/02/2024
html-keyboard-response,168,342789,0.0-70.0-1.0,,"<div style=""display: flex; flex-direction: column; align-items: center; margin-top: -40px;""><img src=""images/pattern_3.png"" style=""width: 234px; height: 230px; margin-top: -50px;""><div style=""display: flex; justify-content: space-between; margin-top: 33px;""><img src=""images/choice_trial_5.png"" style=""width: 408px; height: 417px; margin-left:608px;""></div></div>",,delaylearn,learning,display_response,zWzQXqSXaMg2Fo4B32nGyjbjNNr2,zWzQXqSXaMg2Fo4B32nGyjbjNNr2,,,,,,,,,,,,,,,,,chosen stimuli: images/choice_trial_5.png,,,,,63d166c1300217760a719112,09:11:51,27/02/2024
html-keyboard-response,169,349791,0.0-70.0-2.0,,,,delaylearn,learning,feedback_duration_window,zWzQXqSXaMg2Fo4B32nGyjbjNNr2,zWzQXqSXaMg2Fo4B32nGyjbjNNr2,,,,,,,,,,,,,,,,,,7000.0,,,,63d166c1300217760a719112,09:11:51,27/02/2024
html-keyboard-response,170,351303,0.0-70.0-3.0,,<div style='margin:auto;width: auto; font-size: 150%'><span style='font-weight: bold; font-size: 100px; color: green;'>+10 points!</span><br><br></div>,,delaylearn,learning,feedback_image_window,zWzQXqSXaMg2Fo4B32nGyjbjNNr2,zWzQXqSXaMg2Fo4B32nGyjbjNNr2,,,,,,,,,,,,,,,,,,,,,,63d166c1300217760a719112,09:11:51,27/02/2024
html-keyboard-response,171,352857,0.0-71.0,,"<div style=""font-size:100px;"">+</div>",,delaylearn,learning,ITI,zWzQXqSXaMg2Fo4B32nGyjbjNNr2,zWzQXqSXaMg2Fo4B32nGyjbjNNr2,,,,,,,,,,,,,,,,,,,1539.0,,,63d166c1300217760a719112,09:11:51,27/02/2024
html-keyboard-response,172,353664,0.0-72.0-0.0,800.5,"<div style=""display: flex; flex-direction: column; align-items: center; margin-top: -40px;""><img src=""images/pattern_5.png"" style=""width: 234px; height: 230px; margin-top: -50px;""><div style=""display: flex; justify-content: space-between; margin-top: 33px;""><img src=""images/choice_trial_9.png"" style=""width: 408px; height: 417px; margin-right: 200px;""><img src=""images/choice_trial_10.png"" style=""width: 408px; height: 417px;""></div></div>",j,delaylearn,learning,trial,zWzQXqSXaMg2Fo4B32nGyjbjNNr2,zWzQXqSXaMg2Fo4B32nGyjbjNNr2,1.0,images/choice_trial_9.png,images/choice_trial_10.png,images/pattern_5.png,j,f,750.0,9.0,10.0,4.0,0.0,31.0,0.0,1.0,10.0,150.0,,,,,,63d166c1300217760a719112,09:11:51,27/02/2024
html-keyboard-response,173,354680,0.0-72.0-1.0,,"<div style=""display: flex; flex-direction: column; align-items: center; margin-top: -40px;""><img src=""images/pattern_5.png"" style=""width: 234px; height: 230px; margin-top: -50px;""><div style=""display: flex; justify-content: space-between; margin-top: 33px;""><img src=""images/choice_trial_10.png"" style=""width: 408px; height: 417px; margin-left:608px;""></div></div>",,delaylearn,learning,display_response,zWzQXqSXaMg2Fo4B32nGyjbjNNr2,zWzQXqSXaMg2Fo4B32nGyjbjNNr2,,,,,,,,,,,,,,,,,chosen stimuli: images/choice_trial_10.png,,,,,63d166c1300217760a719112,09:11:51,27/02/2024
html-keyboard-response,174,355444,0.0-72.0-2.0,,,,delaylearn,learning,feedback_duration_window,zWzQXqSXaMg2Fo4B32nGyjbjNNr2,zWzQXqSXaMg2Fo4B32nGyjbjNNr2,,,,,,,,,,,,,,,,,,750.0,,,,63d166c1300217760a719112,09:11:51,27/02/2024
html-keyboard-response,175,356959,0.0-72.0-3.0,,<div style='margin:auto;width: auto; font-size: 150%'><span style='font-weight: bold; font-size: 100px; color: green;'>+10 points!</span><br><br></div>,,delaylearn,learning,feedback_image_window,zWzQXqSXaMg2Fo4B32nGyjbjNNr2,zWzQXqSXaMg2Fo4B32nGyjbjNNr2,,,,,,,,,,,,,,,,,,,,,,63d166c1300217760a719112,09:11:51,27/02/2024
html-keyboard-response,176,358500,0.0-73.0,,"<div style=""font-size:100px;"">+</div>",,delaylearn,learning,ITI,zWzQXqSXaMg2Fo4B32nGyjbjNNr2,zWzQXqSXaMg2Fo4B32nGyjbjNNr2,,,,,,,,,,,,,,,,,,,1524.0,,,63d166c1300217760a719112,09:11:51,27/02/2024
html-keyboard-response,177,359497,0.0-74.0-0.0,989.3000000119209,"<div style=""display: flex; flex-direction: column; align-items: center; margin-top: -40px;""><img src=""images/pattern_1.png"" style=""width: 234px; height: 230px; margin-top: -50px;""><div style=""display: flex; justify-content: space-between; margin-top: 33px;""><img src=""images/choice_trial_1.png"" style=""width: 408px; height: 417px; margin-right: 200px;""><img src=""images/choice_trial_2.png"" style=""width: 408px; height: 417px;""></div></div>",f,delaylearn,learning,trial,zWzQXqSXaMg2Fo4B32nGyjbjNNr2,zWzQXqSXaMg2Fo4B32nGyjbjNNr2,1.0,images/choice_trial_1.png,images/choice_trial_2.png,images/pattern_1.png,f,f,7000.0,1.0,2.0,1.0,0.0,32.0,1.0,1.0,1.0,160.0,,,,,,63d166c1300217760a719112,09:11:51,27/02/2024
html-keyboard-response,178,360516,0.0-74.0-1.0,,"<div style=""display: flex; flex-direction: column; align-items: center; margin-top: -40px;""><img src=""images/pattern_1.png"" style=""width: 234px; height: 230px; margin-top: -50px;""><div style=""display: flex; justify-content: space-between; margin-top: 33px;""><img src=""images/choice_trial_1.png"" style=""width: 408px; height: 417px; margin-right: 608px;""></div></div>",,delaylearn,learning,display_response,zWzQXqSXaMg2Fo4B32nGyjbjNNr2,zWzQXqSXaMg2Fo4B32nGyjbjNNr2,,,,,,,,,,,,,,,,,chosen stimuli: images/choice_trial_1.png,,,,,63d166c1300217760a719112,09:11:51,27/02/2024
html-keyboard-response,179,367532,0.0-74.0-2.0,,,,delaylearn,learning,feedback_duration_window,zWzQXqSXaMg2Fo4B32nGyjbjNNr2,zWzQXqSXaMg2Fo4B32nGyjbjNNr2,,,,,,,,,,,,,,,,,,7000.0,,,,63d166c1300217760a719112,09:11:51,27/02/2024
html-keyboard-response,180,369051,0.0-74.0-3.0,,<div style='margin:auto;width: auto; font-size: 150%'><span style='font-weight: bold; font-size: 100px; color: green;'>+10 points!</span><br><br></div>,,delaylearn,learning,feedback_image_window,zWzQXqSXaMg2Fo4B32nGyjbjNNr2,zWzQXqSXaMg2Fo4B32nGyjbjNNr2,,,,,,,,,,,,,,,,,,,,,,63d166c1300217760a719112,09:11:51,27/02/2024
html-keyboard-response,181,369565,0.0-75.0-0.0,,,,,,mood_trial_fixation,zWzQXqSXaMg2Fo4B32nGyjbjNNr2,,,,,,,,,,,,,,,,,,,,,,,63d166c1300217760a719112,09:11:51,27/02/2024
lmdlab-html-vas-response,182,374192,0.0-75.0-1.0,3604.0,How happy are you right now?,0.7061815469126174,delaylearn,learning,mood_trial,zWzQXqSXaMg2Fo4B32nGyjbjNNr2,zWzQXqSXaMg2Fo4B32nGyjbjNNr2,,,,,,,,,,,,,,,,,,,,"['Very unhappy', 'Very happy']",,63d166c1300217760a719112,09:11:51,27/02/2024
html-keyboard-response,183,376523,0.0-76.0,,"<div style=""font-size:100px;"">+</div>",,delaylearn,learning,ITI,zWzQXqSXaMg2Fo4B32nGyjbjNNr2,zWzQXqSXaMg2Fo4B32nGyjbjNNr2,,,,,,,,,,,,,,,,,,,2326.0,,,63d166c1300217760a719112,09:11:51,27/02/2024
html-keyboard-response,184,377716,0.0-77.0-0.0,1186.7999999523163,"<div style=""display: flex; flex-direction: column; align-items: center; margin-top: -40px;""><img src=""images/pattern_6.png"" style=""width: 234px; height: 230px; margin-top: -50px;""><div style=""display: flex; justify-content: space-between; margin-top: 33px;""><img src=""images/choice_trial_11.png"" style=""width: 408px; height: 417px; margin-right: 200px;""><img src=""images/choice_trial_12.png"" style=""width: 408px; height: 417px;""></div></div>",j,delaylearn,learning,trial,zWzQXqSXaMg2Fo4B32nGyjbjNNr2,zWzQXqSXaMg2Fo4B32nGyjbjNNr2,1.0,images/choice_trial_11.png,images/choice_trial_12.png,images/pattern_6.png,j,f,750.0,11.0,12.0,5.0,0.0,33.0,0.0,1.0,12.0,170.0,,,,,,63d166c1300217760a719112,09:11:51,27/02/2024
html-keyboard-response,185,378730,0.0-77.0-1.0,,"<div style=""display: flex; flex-direction: column; align-items: center; margin-top: -40px;""><img src=""images/pattern_6.png"" style=""width: 234px; height: 230px; margin-top: -50px;""><div style=""display: flex; justify-content: space-between; margin-top: 33px;""><img src=""images/choice_trial_12.png"" style=""width: 408px; height: 417px; margin-left:608px;""></div></div>",,delaylearn,learning,display_response,zWzQXqSXaMg2Fo4B32nGyjbjNNr2,zWzQXqSXaMg2Fo4B32nGyjbjNNr2,,,,,,,,,,,,,,,,,chosen stimuli: images/choice_trial_12.png,,,,,63d166c1300217760a719112,09:11:51,27/02/2024
html-keyboard-response,186,379495,0.0-77.0-2.0,,,,delaylearn,learning,feedback_duration_window,zWzQXqSXaMg2Fo4B32nGyjbjNNr2,zWzQXqSXaMg2Fo4B32nGyjbjNNr2,,,,,,,,,,,,,,,,,,750.0,,,,63d166c1300217760a719112,09:11:51,27/02/2024
html-keyboard-response,187,381005,0.0-77.0-3.0,,<div style='margin:auto;width: auto; font-size: 150%'><span style='font-weight: bold; font-size: 100px; color: green;'>+10 points!</span><br><br></div>,,delaylearn,learning,feedback_image_window,zWzQXqSXaMg2Fo4B32nGyjbjNNr2,zWzQXqSXaMg2Fo4B32nGyjbjNNr2,,,,,,,,,,,,,,,,,,,,,,63d166c1300217760a719112,09:11:51,27/02/2024
html-keyboard-response,188,382937,0.0-78.0,,"<div style=""font-size:100px;"">+</div>",,delaylearn,learning,ITI,zWzQXqSXaMg2Fo4B32nGyjbjNNr2,zWzQXqSXaMg2Fo4B32nGyjbjNNr2,,,,,,,,,,,,,,,,,,,1918.0,,,63d166c1300217760a719112,09:11:51,27/02/2024
html-keyboard-response,189,383915,0.0-79.0-0.0,971.5,"<div style=""display: flex; flex-direction: column; align-items: center; margin-top: -40px;""><img src=""images/pattern_3.png"" style=""width: 234px; height: 230px; margin-top: -50px;""><div style=""display: flex; justify-content: space-between; margin-top: 33px;""><img src=""images/choice_trial_6.png"" style=""width: 408px; height: 417px; margin-right: 200px;""><img src=""images/choice_trial_5.png"" style=""width: 408px; height: 417px;""></div></div>",j,delaylearn,learning,trial,zWzQXqSXaMg2Fo4B32nGyjbjNNr2,zWzQXqSXaMg2Fo4B32nGyjbjNNr2,1.0,images/choice_trial_6.png,images/choice_trial_5.png,images/pattern_3.png,j,j,7000.0,6.0,5.0,2.0,1.0,34.0,1.0,1.0,5.0,180.0,,,,,,63d166c1300217760a719112,09:11:51,27/02/2024
html-keyboard-response,190,384925,0.0-79.0-1.0,,"<div style=""display: flex; flex-direction: column; align-items: center; margin-top: -40px;""><img src=""images/pattern_3.png"" style=""width: 234px; height: 230px; margin-top: -50px;""><div style=""display: flex; justify-content: space-between; margin-top: 33px;""><img src=""images/choice_trial_5.png"" style=""width: 408px; height: 417px; margin-left:608px;""></div></div>",,delaylearn,learning,display_response,zWzQXqSXaMg2Fo4B32nGyjbjNNr2,zWzQXqSXaMg2Fo4B32nGyjbjNNr2,,,,,,,,,,,,,,,,,chosen stimuli: images/choice_trial_5.png,,,,,63d166c1300217760a719112,09:11:51,27/02/2024
html-keyboard-response,191,391942,0.0-79.0-2.0,,,,delaylearn,learning,feedback_duration_window,zWzQXqSXaMg2Fo4B32nGyjbjNNr2,zWzQXqSXaMg2Fo4B32nGyjbjNNr2,,,,,,,,,,,,,,,,,,7000.0,,,,63d166c1300217760a719112,09:11:51,27/02/2024
html-keyboard-response,192,393447,0.0-79.0-3.0,,<div style='margin:auto;width: auto; font-size: 150%'><span style='font-weight: bold; font-size: 100px; color: green;'>+10 points!</span><br><br></div>,,delaylearn,learning,feedback_image_window,zWzQXqSXaMg2Fo4B32nGyjbjNNr2,zWzQXqSXaMg2Fo4B32nGyjbjNNr2,,,,,,,,,,,,,,,,,,,,,,63d166c1300217760a719112,09:11:51,27/02/2024
html-keyboard-response,193,395893,0.0-80.0,,"<div style=""font-size:100px;"">+</div>",,delaylearn,learning,ITI,zWzQXqSXaMg2Fo4B32nGyjbjNNr2,zWzQXqSXaMg2Fo4B32nGyjbjNNr2,,,,,,,,,,,,,,,,,,,2431.0,,,63d166c1300217760a719112,09:11:51,27/02/2024
html-keyboard-response,194,397076,0.0-81.0-0.0,1174.1000000238419,"<div style=""display: flex; flex-direction: column; align-items: center; margin-top: -40px;""><img src=""images/pattern_4.png"" style=""width: 234px; height: 230px; margin-top: -50px;""><div style=""display: flex; justify-content: space-between; margin-top: 33px;""><img src=""images/choice_trial_8.png"" style=""width: 408px; height: 417px; margin-right: 200px;""><img src=""images/choice_trial_7.png"" style=""width: 408px; height: 417px;""></div></div>",j,delaylearn,learning,trial,zWzQXqSXaMg2Fo4B32nGyjbjNNr2,zWzQXqSXaMg2Fo4B32nGyjbjNNr2,1.0,images/choice_trial_8.png,images/choice_trial_7.png,images/pattern_4.png,f,j,7000.0,8.0,7.0,3.0,1.0,35.0,1.0,0.0,7.0,180.0,,,,,,63d166c1300217760a719112,09:11:51,27/02/2024
html-keyboard-response,195,398087,0.0-81.0-1.0,,"<div style=""display: flex; flex-direction: column; align-items: center; margin-top: -40px;""><img src=""images/pattern_4.png"" style=""width: 234px; height: 230px; margin-top: -50px;""><div style=""display: flex; justify-content: space-between; margin-top: 33px;""><img src=""images/choice_trial_7.png"" style=""width: 408px; height: 417px; margin-left:608px;""></div></div>",,delaylearn,learning,display_response,zWzQXqSXaMg2Fo4B32nGyjbjNNr2,zWzQXqSXaMg2Fo4B32nGyjbjNNr2,,,,,,,,,,,,,,,,,chosen stimuli: images/choice_trial_7.png,,,,,63d166c1300217760a719112,09:11:51,27/02/2024
html-keyboard-response,196,405094,0.0-81.0-2.0,,,,delaylearn,learning,feedback_duration_window,zWzQXqSXaMg2Fo4B32nGyjbjNNr2,zWzQXqSXaMg2Fo4B32nGyjbjNNr2,,,,,,,,,,,,,,,,,,7000.0,,,,63d166c1300217760a719112,09:11:51,27/02/2024
html-keyboard-response,197,406614,0.0-81.0-3.0,,<div style='margin:auto;width: auto; font-size: 150%'><span style='font-weight: bold; font-size: 100px; color: red;'>0 points!</span><br><br></div>,,delaylearn,learning,feedback_image_window,zWzQXqSXaMg2Fo4B32nGyjbjNNr2,zWzQXqSXaMg2Fo4B32nGyjbjNNr2,,,,,,,,,,,,,,,,,,,,,,63d166c1300217760a719112,09:11:51,27/02/2024
html-keyboard-response,198,408534,0.0-82.0,,"<div style=""font-size:100px;"">+</div>",,delaylearn,learning,ITI,zWzQXqSXaMg2Fo4B32nGyjbjNNr2,zWzQXqSXaMg2Fo4B32nGyjbjNNr2,,,,,,,,,,,,,,,,,,,1916.0,,,63d166c1300217760a719112,09:11:51,27/02/2024
html-keyboard-response,199,410043,0.0-83.0-0.0,1502.0,"<div style=""display: flex; flex-direction: column; align-items: center; margin-top: -40px;""><img src=""images/pattern_7.png"" style=""width: 234px; height: 230px; margin-top: -50px;""><div style=""display: flex; justify-content: space-between; margin-top: 33px;""><img src=""images/choice_trial_13.png"" style=""width: 408px; height: 417px; margin-right: 200px;""><img src=""images/choice_trial_14.png"" style=""width: 408px; height: 417px;""></div></div>",f,delaylearn,learning,trial,zWzQXqSXaMg2Fo4B32nGyjbjNNr2,zWzQXqSXaMg2Fo4B32nGyjbjNNr2,1.0,images/choice_trial_13.png,images/choice_trial_14.png,images/pattern_7.png,f,f,750.0,13.0,14.0,6.0,0.0,36.0,1.0,1.0,13.0,190.0,,,,,,63d166c1300217760a719112,09:11:51,27/02/2024
html-keyboard-response,200,411049,0.0-83.0-1.0,,"<div style=""display: flex; flex-direction: column; align-items: center; margin-top: -40px;""><img src=""images/pattern_7.png"" style=""width: 234px; height: 230px; margin-top: -50px;""><div style=""display: flex; justify-content: space-between; margin-top: 33px;""><img src=""images/choice_trial_13.png"" style=""width: 408px; height: 417px; margin-right: 608px;""></div></div>",,delaylearn,learning,display_response,zWzQXqSXaMg2Fo4B32nGyjbjNNr2,zWzQXqSXaMg2Fo4B32nGyjbjNNr2,,,,,,,,,,,,,,,,,chosen stimuli: images/choice_trial_13.png,,,,,63d166c1300217760a719112,09:11:51,27/02/2024
html-keyboard-response,201,411815,0.0-83.0-2.0,,,,delaylearn,learning,feedback_duration_window,zWzQXqSXaMg2Fo4B32nGyjbjNNr2,zWzQXqSXaMg2Fo4B32nGyjbjNNr2,,,,,,,,,,,,,,,,,,750.0,,,,63d166c1300217760a719112,09:11:51,27/02/2024
html-keyboard-response,202,413323,0.0-83.0-3.0,,<div style='margin:auto;width: auto; font-size: 150%'><span style='font-weight: bold; font-size: 100px; color: green;'>+10 points!</span><br><br></div>,,delaylearn,learning,feedback_image_window,zWzQXqSXaMg2Fo4B32nGyjbjNNr2,zWzQXqSXaMg2Fo4B32nGyjbjNNr2,,,,,,,,,,,,,,,,,,,,,,63d166c1300217760a719112,09:11:51,27/02/2024
html-keyboard-response,203,415433,0.0-84.0,,"<div style=""font-size:100px;"">+</div>",,delaylearn,learning,ITI,zWzQXqSXaMg2Fo4B32nGyjbjNNr2,zWzQXqSXaMg2Fo4B32nGyjbjNNr2,,,,,,,,,,,,,,,,,,,2107.0,,,63d166c1300217760a719112,09:11:51,27/02/2024
html-keyboard-response,204,416868,0.0-85.0-0.0,1428.1000000238419,"<div style=""display: flex; flex-direction: column; align-items: center; margin-top: -40px;""><img src=""images/pattern_1.png"" style=""width: 234px; height: 230px; margin-top: -50px;""><div style=""display: flex; justify-content: space-between; margin-top: 33px;""><img src=""images/choice_trial_1.png"" style=""width: 408px; height: 417px; margin-right: 200px;""><img src=""images/choice_trial_2.png"" style=""width: 408px; height: 417px;""></div></div>",f,delaylearn,learning,trial,zWzQXqSXaMg2Fo4B32nGyjbjNNr2,zWzQXqSXaMg2Fo4B32nGyjbjNNr2,1.0,images/choice_trial_1.png,images/choice_trial_2.png,images/pattern_1.png,f,f,7000.0,1.0,2.0,1.0,0.0,37.0,1.0,1.0,1.0,200.0,,,,,,63d166c1300217760a719112,09:11:51,27/02/2024
html-keyboard-response,205,417873,0.0-85.0-1.0,,"<div style=""display: flex; flex-direction: column; align-items: center; margin-top: -40px;""><img src=""images/pattern_1.png"" style=""width: 234px; height: 230px; margin-top: -50px;""><div style=""display: flex; justify-content: space-between; margin-top: 33px;""><img src=""images/choice_trial_1.png"" style=""width: 408px; height: 417px; margin-right: 608px;""></div></div>",,delaylearn,learning,display_response,zWzQXqSXaMg2Fo4B32nGyjbjNNr2,zWzQXqSXaMg2Fo4B32nGyjbjNNr2,,,,,,,,,,,,,,,,,chosen stimuli: images/choice_trial_1.png,,,,,63d166c1300217760a719112,09:11:51,27/02/2024
html-keyboard-response,206,424879,0.0-85.0-2.0,,,,delaylearn,learning,feedback_duration_window,zWzQXqSXaMg2Fo4B32nGyjbjNNr2,zWzQXqSXaMg2Fo4B32nGyjbjNNr2,,,,,,,,,,,,,,,,,,7000.0,,,,63d166c1300217760a719112,09:11:51,27/02/2024
html-keyboard-response,207,426395,0.0-85.0-3.0,,<div style='margin:auto;width: auto; font-size: 150%'><span style='font-weight: bold; font-size: 100px; color: green;'>+10 points!</span><br><br></div>,,delaylearn,learning,feedback_image_window,zWzQXqSXaMg2Fo4B32nGyjbjNNr2,zWzQXqSXaMg2Fo4B32nGyjbjNNr2,,,,,,,,,,,,,,,,,,,,,,63d166c1300217760a719112,09:11:51,27/02/2024
html-keyboard-response,208,426912,0.0-86.0-0.0,,,,,,mood_trial_fixation,zWzQXqSXaMg2Fo4B32nGyjbjNNr2,,,,,,,,,,,,,,,,,,,,,,,63d166c1300217760a719112,09:11:51,27/02/2024
lmdlab-html-vas-response,209,430885,0.0-86.0-1.0,2946.0,How happy are you right now?,0.4978468007188634,delaylearn,learning,mood_trial,zWzQXqSXaMg2Fo4B32nGyjbjNNr2,zWzQXqSXaMg2Fo4B32nGyjbjNNr2,,,,,,,,,,,,,,,,,,,,"['Very unhappy', 'Very happy']",,63d166c1300217760a719112,09:11:51,27/02/2024
html-keyboard-response,210,432848,0.0-87.0,,"<div style=""font-size:100px;"">+</div>",,delaylearn,learning,ITI,zWzQXqSXaMg2Fo4B32nGyjbjNNr2,zWzQXqSXaMg2Fo4B32nGyjbjNNr2,,,,,,,,,,,,,,,,,,,1948.0,,,63d166c1300217760a719112,09:11:51,27/02/2024
html-keyboard-response,211,434650,0.0-88.0-0.0,1795.0,"<div style=""display: flex; flex-direction: column; align-items: center; margin-top: -40px;""><img src=""images/pattern_3.png"" style=""width: 234px; height: 230px; margin-top: -50px;""><div style=""display: flex; justify-content: space-between; margin-top: 33px;""><img src=""images/choice_trial_5.png"" style=""width: 408px; height: 417px; margin-right: 200px;""><img src=""images/choice_trial_6.png"" style=""width: 408px; height: 417px;""></div></div>",f,delaylearn,learning,trial,zWzQXqSXaMg2Fo4B32nGyjbjNNr2,zWzQXqSXaMg2Fo4B32nGyjbjNNr2,1.0,images/choice_trial_5.png,images/choice_trial_6.png,images/pattern_3.png,j,f,7000.0,5.0,6.0,2.0,0.0,38.0,1.0,0.0,5.0,200.0,,,,,,63d166c1300217760a719112,09:11:51,27/02/2024
html-keyboard-response,212,435667,0.0-88.0-1.0,,"<div style=""display: flex; flex-direction: column; align-items: center; margin-top: -40px;""><img src=""images/pattern_3.png"" style=""width: 234px; height: 230px; margin-top: -50px;""><div style=""display: flex; justify-content: space-between; margin-top: 33px;""><img src=""images/choice_trial_5.png"" style=""width: 408px; height: 417px; margin-right: 608px;""></div></div>",,delaylearn,learning,display_response,zWzQXqSXaMg2Fo4B32nGyjbjNNr2,zWzQXqSXaMg2Fo4B32nGyjbjNNr2,,,,,,,,,,,,,,,,,chosen stimuli: images/choice_trial_5.png,,,,,63d166c1300217760a719112,09:11:51,27/02/2024
html-keyboard-response,213,442677,0.0-88.0-2.0,,,,delaylearn,learning,feedback_duration_window,zWzQXqSXaMg2Fo4B32nGyjbjNNr2,zWzQXqSXaMg2Fo4B32nGyjbjNNr2,,,,,,,,,,,,,,,,,,7000.0,,,,63d166c1300217760a719112,09:11:51,27/02/2024
html-keyboard-response,214,444183,0.0-88.0-3.0,,<div style='margin:auto;width: auto; font-size: 150%'><span style='font-weight: bold; font-size: 100px; color: red;'>0 points!</span><br><br></div>,,delaylearn,learning,feedback_image_window,zWzQXqSXaMg2Fo4B32nGyjbjNNr2,zWzQXqSXaMg2Fo4B32nGyjbjNNr2,,,,,,,,,,,,,,,,,,,,,,63d166c1300217760a719112,09:11:51,27/02/2024
html-keyboard-response,215,445785,0.0-89.0,,"<div style=""font-size:100px;"">+</div>",,delaylearn,learning,ITI,zWzQXqSXaMg2Fo4B32nGyjbjNNr2,zWzQXqSXaMg2Fo4B32nGyjbjNNr2,,,,,,,,,,,,,,,,,,,1596.0,,,63d166c1300217760a719112,09:11:51,27/02/2024
html-keyboard-response,216,447155,0.0-90.0-0.0,1363.1000000238419,"<div style=""display: flex; flex-direction: column; align-items: center; margin-top: -40px;""><img src=""images/pattern_7.png"" style=""width: 234px; height: 230px; margin-top: -50px;""><div style=""display: flex; justify-content: space-between; margin-top: 33px;""><img src=""images/choice_trial_14.png"" style=""width: 408px; height: 417px; margin-right: 200px;""><img src=""images/choice_trial_13.png"" style=""width: 408px; height: 417px;""></div></div>",j,delaylearn,learning,trial,zWzQXqSXaMg2Fo4B32nGyjbjNNr2,zWzQXqSXaMg2Fo4B32nGyjbjNNr2,1.0,images/choice_trial_14.png,images/choice_trial_13.png,images/pattern_7.png,j,j,750.0,14.0,13.0,6.0,1.0,39.0,1.0,1.0,13.0,210.0,,,,,,63d166c1300217760a719112,09:11:51,27/02/2024
html-keyboard-response,217,448175,0.0-90.0-1.0,,"<div style=""display: flex; flex-direction: column; align-items: center; margin-top: -40px;""><img src=""images/pattern_7.png"" style=""width: 234px; height: 230px; margin-top: -50px;""><div style=""display: flex; justify-content: space-between; margin-top: 33px;""><img src=""images/choice_trial_13.png"" style=""width: 408px; height: 417px; margin-left:608px;""></div></div>",,delaylearn,learning,display_response,zWzQXqSXaMg2Fo4B32nGyjbjNNr2,zWzQXqSXaMg2Fo4B32nGyjbjNNr2,,,,,,,,,,,,,,,,,chosen stimuli: images/choice_trial_13.png,,,,,63d166c1300217760a719112,09:11:51,27/02/2024
html-keyboard-response,218,448937,0.0-90.0-2.0,,,,delaylearn,learning,feedback_duration_window,zWzQXqSXaMg2Fo4B32nGyjbjNNr2,zWzQXqSXaMg2Fo4B32nGyjbjNNr2,,,,,,,,,,,,,,,,,,750.0,,,,63d166c1300217760a719112,09:11:51,27/02/2024
html-keyboard-response,219,450453,0.0-90.0-3.0,,<div style='margin:auto;width: auto; font-size: 150%'><span style='font-weight: bold; font-size: 100px; color: green;'>+10 points!</span><br><br></div>,,delaylearn,learning,feedback_image_window,zWzQXqSXaMg2Fo4B32nGyjbjNNr2,zWzQXqSXaMg2Fo4B32nGyjbjNNr2,,,,,,,,,,,,,,,,,,,,,,63d166c1300217760a719112,09:11:51,27/02/2024
html-keyboard-response,220,452361,0.0-91.0,,"<div style=""font-size:100px;"">+</div>",,delaylearn,learning,ITI,zWzQXqSXaMg2Fo4B32nGyjbjNNr2,zWzQXqSXaMg2Fo4B32nGyjbjNNr2,,,,,,,,,,,,,,,,,,,1894.0,,,63d166c1300217760a719112,09:11:51,27/02/2024
html-keyboard-response,221,455362,0.0-92.0-0.0,2994.300000011921,"<div style=""display: flex; flex-direction: column; align-items: center; margin-top: -40px;""><img src=""images/pattern_5.png"" style=""width: 234px; height: 230px; margin-top: -50px;""><div style=""display: flex; justify-content: space-between; margin-top: 33px;""><img src=""images/choice_trial_10.png"" style=""width: 408px; height: 417px; margin-right: 200px;""><img src=""images/choice_trial_9.png"" style=""width: 408px; height: 417px;""></div></div>",f,delaylearn,learning,trial,zWzQXqSXaMg2Fo4B32nGyjbjNNr2,zWzQXqSXaMg2Fo4B32nGyjbjNNr2,1.0,images/choice_trial_10.png,images/choice_trial_9.png,images/pattern_5.png,j,j,750.0,10.0,9.0,4.0,1.0,40.0,0.0,0.0,10.0,210.0,,,,,,63d166c1300217760a719112,09:11:51,27/02/2024
html-keyboard-response,222,456377,0.0-92.0-1.0,,"<div style=""display: flex; flex-direction: column; align-items: center; margin-top: -40px;""><img src=""images/pattern_5.png"" style=""width: 234px; height: 230px; margin-top: -50px;""><div style=""display: flex; justify-content: space-between; margin-top: 33px;""><img src=""images/choice_trial_10.png"" style=""width: 408px; height: 417px; margin-right: 608px;""></div></div>",,delaylearn,learning,display_response,zWzQXqSXaMg2Fo4B32nGyjbjNNr2,zWzQXqSXaMg2Fo4B32nGyjbjNNr2,,,,,,,,,,,,,,,,,chosen stimuli: images/choice_trial_10.png,,,,,63d166c1300217760a719112,09:11:51,27/02/2024
html-keyboard-response,223,457138,0.0-92.0-2.0,,,,delaylearn,learning,feedback_duration_window,zWzQXqSXaMg2Fo4B32nGyjbjNNr2,zWzQXqSXaMg2Fo4B32nGyjbjNNr2,,,,,,,,,,,,,,,,,,750.0,,,,63d166c1300217760a719112,09:11:51,27/02/2024
html-keyboard-response,224,458654,0.0-92.0-3.0,,<div style='margin:auto;width: auto; font-size: 150%'><span style='font-weight: bold; font-size: 100px; color: red;'>0 points!</span><br><br></div>,,delaylearn,learning,feedback_image_window,zWzQXqSXaMg2Fo4B32nGyjbjNNr2,zWzQXqSXaMg2Fo4B32nGyjbjNNr2,,,,,,,,,,,,,,,,,,,,,,63d166c1300217760a719112,09:11:51,27/02/2024
html-keyboard-response,225,459170,0.0-93.0-0.0,,,,,,mood_trial_fixation,zWzQXqSXaMg2Fo4B32nGyjbjNNr2,,,,,,,,,,,,,,,,,,,,,,,63d166c1300217760a719112,09:11:51,27/02/2024
lmdlab-html-vas-response,226,463332,0.0-93.0-1.0,3149.0,How happy are you right now?,0.5521006408734869,delaylearn,learning,mood_trial,zWzQXqSXaMg2Fo4B32nGyjbjNNr2,zWzQXqSXaMg2Fo4B32nGyjbjNNr2,,,,,,,,,,,,,,,,,,,,"['Very unhappy', 'Very happy']",,63d166c1300217760a719112,09:11:51,27/02/2024
html-keyboard-response,227,465786,0.0-94.0,,"<div style=""font-size:100px;"">+</div>",,delaylearn,learning,ITI,zWzQXqSXaMg2Fo4B32nGyjbjNNr2,zWzQXqSXaMg2Fo4B32nGyjbjNNr2,,,,,,,,,,,,,,,,,,,2444.0,,,63d166c1300217760a719112,09:11:51,27/02/2024
html-keyboard-response,228,467219,0.0-95.0-0.0,1425.8999999761581,"<div style=""display: flex; flex-direction: column; align-items: center; margin-top: -40px;""><img src=""images/pattern_4.png"" style=""width: 234px; height: 230px; margin-top: -50px;""><div style=""display: flex; justify-content: space-between; margin-top: 33px;""><img src=""images/choice_trial_7.png"" style=""width: 408px; height: 417px; margin-right: 200px;""><img src=""images/choice_trial_8.png"" style=""width: 408px; height: 417px;""></div></div>",f,delaylearn,learning,trial,zWzQXqSXaMg2Fo4B32nGyjbjNNr2,zWzQXqSXaMg2Fo4B32nGyjbjNNr2,1.0,images/choice_trial_7.png,images/choice_trial_8.png,images/pattern_4.png,f,f,7000.0,7.0,8.0,3.0,0.0,41.0,1.0,1.0,7.0,220.0,,,,,,63d166c1300217760a719112,09:11:51,27/02/2024
html-keyboard-response,229,468236,0.0-95.0-1.0,,"<div style=""display: flex; flex-direction: column; align-items: center; margin-top: -40px;""><img src=""images/pattern_4.png"" style=""width: 234px; height: 230px; margin-top: -50px;""><div style=""display: flex; justify-content: space-between; margin-top: 33px;""><img src=""images/choice_trial_7.png"" style=""width: 408px; height: 417px; margin-right: 608px;""></div></div>",,delaylearn,learning,display_response,zWzQXqSXaMg2Fo4B32nGyjbjNNr2,zWzQXqSXaMg2Fo4B32nGyjbjNNr2,,,,,,,,,,,,,,,,,chosen stimuli: images/choice_trial_7.png,,,,,63d166c1300217760a719112,09:11:51,27/02/2024
html-keyboard-response,230,475253,0.0-95.0-2.0,,,,delaylearn,learning,feedback_duration_window,zWzQXqSXaMg2Fo4B32nGyjbjNNr2,zWzQXqSXaMg2Fo4B32nGyjbjNNr2,,,,,,,,,,,,,,,,,,7000.0,,,,63d166c1300217760a719112,09:11:51,27/02/2024
html-keyboard-response,231,476769,0.0-95.0-3.0,,<div style='margin:auto;width: auto; font-size: 150%'><span style='font-weight: bold; font-size: 100px; color: green;'>+10 points!</span><br><br></div>,,delaylearn,learning,feedback_image_window,zWzQXqSXaMg2Fo4B32nGyjbjNNr2,zWzQXqSXaMg2Fo4B32nGyjbjNNr2,,,,,,,,,,,,,,,,,,,,,,63d166c1300217760a719112,09:11:51,27/02/2024
