trial_type,trial_index,time_elapsed,internal_node_id,rt,stimulus,response,exp_name,exp_stage,test_part,subjectID,databaseID,counterbal,choice_stimuli_1,choice_stimuli_2,pattern_stimuli,rewarded_answer,correct_answer,feedback_duration_times,stim_left,stim_right,pair,leftright_counter,trial,response_correct,response_rewarded,chosen_stim,counter,displayed_choice,feedback_durations,ITI_duration,labels,rest_warning,prolificID,start_time,date
pavlovia,0,617,0.0-0.0,,,,,,,oVF65tyxAgR3dg8sHMpEdi0wMim2,,,,,,,,,,,,,,,,,,,,,,,613b94b83b5cb4c72904f8b3,16:51:29,27/03/2024
html-keyboard-response,1,3621,0.0-1.0,,"<div style=""font-size:100px;"">+</div>",,delaylearn,learning,pre_fixation,oVF65tyxAgR3dg8sHMpEdi0wMim2,,,,,,,,,,,,,,,,,,,,,,,613b94b83b5cb4c72904f8b3,16:51:29,27/03/2024
html-keyboard-response,2,5254,0.0-2.0-0.0,1629.1000000238419,"<div style=""display: flex; flex-direction: column; align-items: center; margin-top: -40px;""><img src=""images/demo_images/pattern_1.png"" style=""width: 234px; height: 230px; margin-top: -50px;""><div style=""display: flex; justify-content: space-between; margin-top: 33px;""><img src=""images/demo_images/choice_trial_2.png"" style=""width: 408px; height: 417px; margin-right: 200px;""><img src=""images/demo_images/choice_trial_1.png"" style=""width: 408px; height: 417px;""></div></div>",f,delaylearn,learning,trial,oVF65tyxAgR3dg8sHMpEdi0wMim2,oVF65tyxAgR3dg8sHMpEdi0wMim2,2.0,images/demo_images/choice_trial_2.png,images/demo_images/choice_trial_1.png,images/demo_images/pattern_1.png,j,j,3000.0,2.0,1.0,20.0,1.0,1.0,0.0,0.0,2.0,0.0,,,,,,613b94b83b5cb4c72904f8b3,16:51:29,27/03/2024
html-keyboard-response,3,6260,0.0-2.0-1.0,,"<div style=""display: flex; flex-direction: column; align-items: center; margin-top: -40px;""><img src=""images/demo_images/pattern_1.png"" style=""width: 234px; height: 230px; margin-top: -50px;""><div style=""display: flex; justify-content: space-between; margin-top: 33px;""><img src=""images/demo_images/choice_trial_2.png"" style=""width: 408px; height: 417px; margin-right: 608px;""></div></div>",,delaylearn,learning,display_response,oVF65tyxAgR3dg8sHMpEdi0wMim2,oVF65tyxAgR3dg8sHMpEdi0wMim2,,,,,,,,,,,,,,,,,chosen stimuli: images/demo_images/choice_trial_2.png,,,,,613b94b83b5cb4c72904f8b3,16:51:29,27/03/2024
html-keyboard-response,4,9262,0.0-2.0-2.0,,,,delaylearn,learning,feedback_duration_window,oVF65tyxAgR3dg8sHMpEdi0wMim2,oVF65tyxAgR3dg8sHMpEdi0wMim2,,,,,,,,,,,,,,,,,,3000.0,,,,613b94b83b5cb4c72904f8b3,16:51:29,27/03/2024
html-keyboard-response,5,10768,0.0-2.0-3.0,,<div style='margin:auto;width: auto; font-size: 150%'><span style='font-weight: bold; font-size: 100px; color: red;'>0 points!</span><br><br></div>,,delaylearn,learning,feedback_image_window,oVF65tyxAgR3dg8sHMpEdi0wMim2,oVF65tyxAgR3dg8sHMpEdi0wMim2,,,,,,,,,,,,,,,,,,,,,,613b94b83b5cb4c72904f8b3,16:51:29,27/03/2024
html-keyboard-response,6,12455,0.0-3.0,,"<div style=""font-size:100px;"">+</div>",,delaylearn,learning,ITI,oVF65tyxAgR3dg8sHMpEdi0wMim2,oVF65tyxAgR3dg8sHMpEdi0wMim2,,,,,,,,,,,,,,,,,,,1675.0,,,613b94b83b5cb4c72904f8b3,16:51:29,27/03/2024
html-keyboard-response,7,13737,0.0-4.0-0.0,1277.6000000238419,"<div style=""display: flex; flex-direction: column; align-items: center; margin-top: -40px;""><img src=""images/demo_images/pattern_1.png"" style=""width: 234px; height: 230px; margin-top: -50px;""><div style=""display: flex; justify-content: space-between; margin-top: 33px;""><img src=""images/demo_images/choice_trial_2.png"" style=""width: 408px; height: 417px; margin-right: 200px;""><img src=""images/demo_images/choice_trial_1.png"" style=""width: 408px; height: 417px;""></div></div>",j,delaylearn,learning,trial,oVF65tyxAgR3dg8sHMpEdi0wMim2,oVF65tyxAgR3dg8sHMpEdi0wMim2,2.0,images/demo_images/choice_trial_2.png,images/demo_images/choice_trial_1.png,images/demo_images/pattern_1.png,j,j,3000.0,2.0,1.0,20.0,1.0,2.0,1.0,1.0,1.0,10.0,,,,,,613b94b83b5cb4c72904f8b3,16:51:29,27/03/2024
html-keyboard-response,8,14741,0.0-4.0-1.0,,"<div style=""display: flex; flex-direction: column; align-items: center; margin-top: -40px;""><img src=""images/demo_images/pattern_1.png"" style=""width: 234px; height: 230px; margin-top: -50px;""><div style=""display: flex; justify-content: space-between; margin-top: 33px;""><img src=""images/demo_images/choice_trial_1.png"" style=""width: 408px; height: 417px; margin-left:608px;""></div></div>",,delaylearn,learning,display_response,oVF65tyxAgR3dg8sHMpEdi0wMim2,oVF65tyxAgR3dg8sHMpEdi0wMim2,,,,,,,,,,,,,,,,,chosen stimuli: images/demo_images/choice_trial_1.png,,,,,613b94b83b5cb4c72904f8b3,16:51:29,27/03/2024
html-keyboard-response,9,17751,0.0-4.0-2.0,,,,delaylearn,learning,feedback_duration_window,oVF65tyxAgR3dg8sHMpEdi0wMim2,oVF65tyxAgR3dg8sHMpEdi0wMim2,,,,,,,,,,,,,,,,,,3000.0,,,,613b94b83b5cb4c72904f8b3,16:51:29,27/03/2024
html-keyboard-response,10,19260,0.0-4.0-3.0,,<div style='margin:auto;width: auto; font-size: 150%'><span style='font-weight: bold; font-size: 100px; color: green;'>+10 points!</span><br><br></div>,,delaylearn,learning,feedback_image_window,oVF65tyxAgR3dg8sHMpEdi0wMim2,oVF65tyxAgR3dg8sHMpEdi0wMim2,,,,,,,,,,,,,,,,,,,,,,613b94b83b5cb4c72904f8b3,16:51:29,27/03/2024
html-keyboard-response,11,21165,0.0-5.0,,"<div style=""font-size:100px;"">+</div>",,delaylearn,learning,ITI,oVF65tyxAgR3dg8sHMpEdi0wMim2,oVF65tyxAgR3dg8sHMpEdi0wMim2,,,,,,,,,,,,,,,,,,,1892.0,,,613b94b83b5cb4c72904f8b3,16:51:29,27/03/2024
html-keyboard-response,12,22165,0.0-6.0-0.0,996.9000000953674,"<div style=""display: flex; flex-direction: column; align-items: center; margin-top: -40px;""><img src=""images/demo_images/pattern_1.png"" style=""width: 234px; height: 230px; margin-top: -50px;""><div style=""display: flex; justify-content: space-between; margin-top: 33px;""><img src=""images/demo_images/choice_trial_1.png"" style=""width: 408px; height: 417px; margin-right: 200px;""><img src=""images/demo_images/choice_trial_2.png"" style=""width: 408px; height: 417px;""></div></div>",f,delaylearn,learning,trial,oVF65tyxAgR3dg8sHMpEdi0wMim2,oVF65tyxAgR3dg8sHMpEdi0wMim2,2.0,images/demo_images/choice_trial_1.png,images/demo_images/choice_trial_2.png,images/demo_images/pattern_1.png,j,f,3000.0,1.0,2.0,20.0,0.0,3.0,1.0,0.0,1.0,10.0,,,,,,613b94b83b5cb4c72904f8b3,16:51:29,27/03/2024
html-keyboard-response,13,23177,0.0-6.0-1.0,,"<div style=""display: flex; flex-direction: column; align-items: center; margin-top: -40px;""><img src=""images/demo_images/pattern_1.png"" style=""width: 234px; height: 230px; margin-top: -50px;""><div style=""display: flex; justify-content: space-between; margin-top: 33px;""><img src=""images/demo_images/choice_trial_1.png"" style=""width: 408px; height: 417px; margin-right: 608px;""></div></div>",,delaylearn,learning,display_response,oVF65tyxAgR3dg8sHMpEdi0wMim2,oVF65tyxAgR3dg8sHMpEdi0wMim2,,,,,,,,,,,,,,,,,chosen stimuli: images/demo_images/choice_trial_1.png,,,,,613b94b83b5cb4c72904f8b3,16:51:29,27/03/2024
html-keyboard-response,14,26181,0.0-6.0-2.0,,,,delaylearn,learning,feedback_duration_window,oVF65tyxAgR3dg8sHMpEdi0wMim2,oVF65tyxAgR3dg8sHMpEdi0wMim2,,,,,,,,,,,,,,,,,,3000.0,,,,613b94b83b5cb4c72904f8b3,16:51:29,27/03/2024
html-keyboard-response,15,27695,0.0-6.0-3.0,,<div style='margin:auto;width: auto; font-size: 150%'><span style='font-weight: bold; font-size: 100px; color: red;'>0 points!</span><br><br></div>,,delaylearn,learning,feedback_image_window,oVF65tyxAgR3dg8sHMpEdi0wMim2,oVF65tyxAgR3dg8sHMpEdi0wMim2,,,,,,,,,,,,,,,,,,,,,,613b94b83b5cb4c72904f8b3,16:51:29,27/03/2024
html-keyboard-response,16,29955,0.0-7.0,,"<div style=""font-size:100px;"">+</div>",,delaylearn,learning,ITI,oVF65tyxAgR3dg8sHMpEdi0wMim2,oVF65tyxAgR3dg8sHMpEdi0wMim2,,,,,,,,,,,,,,,,,,,2253.0,,,613b94b83b5cb4c72904f8b3,16:51:29,27/03/2024
html-keyboard-response,17,32769,0.0-8.0-0.0,2810.399999976158,"<div style=""display: flex; flex-direction: column; align-items: center; margin-top: -40px;""><img src=""images/demo_images/pattern_1.png"" style=""width: 234px; height: 230px; margin-top: -50px;""><div style=""display: flex; justify-content: space-between; margin-top: 33px;""><img src=""images/demo_images/choice_trial_1.png"" style=""width: 408px; height: 417px; margin-right: 200px;""><img src=""images/demo_images/choice_trial_2.png"" style=""width: 408px; height: 417px;""></div></div>",f,delaylearn,learning,trial,oVF65tyxAgR3dg8sHMpEdi0wMim2,oVF65tyxAgR3dg8sHMpEdi0wMim2,2.0,images/demo_images/choice_trial_1.png,images/demo_images/choice_trial_2.png,images/demo_images/pattern_1.png,f,f,3000.0,1.0,2.0,20.0,0.0,4.0,1.0,1.0,1.0,20.0,,,,,,613b94b83b5cb4c72904f8b3,16:51:29,27/03/2024
html-keyboard-response,18,33787,0.0-8.0-1.0,,"<div style=""display: flex; flex-direction: column; align-items: center; margin-top: -40px;""><img src=""images/demo_images/pattern_1.png"" style=""width: 234px; height: 230px; margin-top: -50px;""><div style=""display: flex; justify-content: space-between; margin-top: 33px;""><img src=""images/demo_images/choice_trial_1.png"" style=""width: 408px; height: 417px; margin-right: 608px;""></div></div>",,delaylearn,learning,display_response,oVF65tyxAgR3dg8sHMpEdi0wMim2,oVF65tyxAgR3dg8sHMpEdi0wMim2,,,,,,,,,,,,,,,,,chosen stimuli: images/demo_images/choice_trial_1.png,,,,,613b94b83b5cb4c72904f8b3,16:51:29,27/03/2024
html-keyboard-response,19,36792,0.0-8.0-2.0,,,,delaylearn,learning,feedback_duration_window,oVF65tyxAgR3dg8sHMpEdi0wMim2,oVF65tyxAgR3dg8sHMpEdi0wMim2,,,,,,,,,,,,,,,,,,3000.0,,,,613b94b83b5cb4c72904f8b3,16:51:29,27/03/2024
html-keyboard-response,20,38297,0.0-8.0-3.0,,<div style='margin:auto;width: auto; font-size: 150%'><span style='font-weight: bold; font-size: 100px; color: green;'>+10 points!</span><br><br></div>,,delaylearn,learning,feedback_image_window,oVF65tyxAgR3dg8sHMpEdi0wMim2,oVF65tyxAgR3dg8sHMpEdi0wMim2,,,,,,,,,,,,,,,,,,,,,,613b94b83b5cb4c72904f8b3,16:51:29,27/03/2024
html-keyboard-response,21,38805,0.0-9.0-0.0,,,,,,mood_trial_fixation,oVF65tyxAgR3dg8sHMpEdi0wMim2,,,,,,,,,,,,,,,,,,,,,,,613b94b83b5cb4c72904f8b3,16:51:29,27/03/2024
lmdlab-html-vas-response,22,43553,0.0-9.0-1.0,3725.0,How happy are you right now?,0.5634902469418377,delaylearn,learning,mood_trial,oVF65tyxAgR3dg8sHMpEdi0wMim2,oVF65tyxAgR3dg8sHMpEdi0wMim2,,,,,,,,,,,,,,,,,,,,"['Very unhappy', 'Very happy']",,613b94b83b5cb4c72904f8b3,16:51:29,27/03/2024
html-keyboard-response,23,45189,0.0-10.0,,"<div style=""font-size:100px;"">+</div>",,delaylearn,learning,ITI,oVF65tyxAgR3dg8sHMpEdi0wMim2,oVF65tyxAgR3dg8sHMpEdi0wMim2,,,,,,,,,,,,,,,,,,,1623.0,,,613b94b83b5cb4c72904f8b3,16:51:29,27/03/2024
html-keyboard-response,24,45703,0.0-11.0-0.0,510.6999999284744,"<div style=""display: flex; flex-direction: column; align-items: center; margin-top: -40px;""><img src=""images/demo_images/pattern_1.png"" style=""width: 234px; height: 230px; margin-top: -50px;""><div style=""display: flex; justify-content: space-between; margin-top: 33px;""><img src=""images/demo_images/choice_trial_2.png"" style=""width: 408px; height: 417px; margin-right: 200px;""><img src=""images/demo_images/choice_trial_1.png"" style=""width: 408px; height: 417px;""></div></div>",j,delaylearn,learning,trial,oVF65tyxAgR3dg8sHMpEdi0wMim2,oVF65tyxAgR3dg8sHMpEdi0wMim2,2.0,images/demo_images/choice_trial_2.png,images/demo_images/choice_trial_1.png,images/demo_images/pattern_1.png,j,j,3000.0,2.0,1.0,20.0,1.0,5.0,1.0,1.0,1.0,30.0,,,,,,613b94b83b5cb4c72904f8b3,16:51:29,27/03/2024
html-keyboard-response,25,46720,0.0-11.0-1.0,,"<div style=""display: flex; flex-direction: column; align-items: center; margin-top: -40px;""><img src=""images/demo_images/pattern_1.png"" style=""width: 234px; height: 230px; margin-top: -50px;""><div style=""display: flex; justify-content: space-between; margin-top: 33px;""><img src=""images/demo_images/choice_trial_1.png"" style=""width: 408px; height: 417px; margin-left:608px;""></div></div>",,delaylearn,learning,display_response,oVF65tyxAgR3dg8sHMpEdi0wMim2,oVF65tyxAgR3dg8sHMpEdi0wMim2,,,,,,,,,,,,,,,,,chosen stimuli: images/demo_images/choice_trial_1.png,,,,,613b94b83b5cb4c72904f8b3,16:51:29,27/03/2024
html-keyboard-response,26,49733,0.0-11.0-2.0,,,,delaylearn,learning,feedback_duration_window,oVF65tyxAgR3dg8sHMpEdi0wMim2,oVF65tyxAgR3dg8sHMpEdi0wMim2,,,,,,,,,,,,,,,,,,3000.0,,,,613b94b83b5cb4c72904f8b3,16:51:29,27/03/2024
html-keyboard-response,27,51238,0.0-11.0-3.0,,<div style='margin:auto;width: auto; font-size: 150%'><span style='font-weight: bold; font-size: 100px; color: green;'>+10 points!</span><br><br></div>,,delaylearn,learning,feedback_image_window,oVF65tyxAgR3dg8sHMpEdi0wMim2,oVF65tyxAgR3dg8sHMpEdi0wMim2,,,,,,,,,,,,,,,,,,,,,,613b94b83b5cb4c72904f8b3,16:51:29,27/03/2024
html-keyboard-response,28,52989,0.0-12.0,,"<div style=""font-size:100px;"">+</div>",,delaylearn,learning,ITI,oVF65tyxAgR3dg8sHMpEdi0wMim2,oVF65tyxAgR3dg8sHMpEdi0wMim2,,,,,,,,,,,,,,,,,,,1737.0,,,613b94b83b5cb4c72904f8b3,16:51:29,27/03/2024
html-keyboard-response,29,53508,0.0-13.0-0.0,516.0,"<div style=""display: flex; flex-direction: column; align-items: center; margin-top: -40px;""><img src=""images/demo_images/pattern_1.png"" style=""width: 234px; height: 230px; margin-top: -50px;""><div style=""display: flex; justify-content: space-between; margin-top: 33px;""><img src=""images/demo_images/choice_trial_1.png"" style=""width: 408px; height: 417px; margin-right: 200px;""><img src=""images/demo_images/choice_trial_2.png"" style=""width: 408px; height: 417px;""></div></div>",f,delaylearn,learning,trial,oVF65tyxAgR3dg8sHMpEdi0wMim2,oVF65tyxAgR3dg8sHMpEdi0wMim2,2.0,images/demo_images/choice_trial_1.png,images/demo_images/choice_trial_2.png,images/demo_images/pattern_1.png,f,f,3000.0,1.0,2.0,20.0,0.0,6.0,1.0,1.0,1.0,40.0,,,,,,613b94b83b5cb4c72904f8b3,16:51:29,27/03/2024
html-keyboard-response,30,54516,0.0-13.0-1.0,,"<div style=""display: flex; flex-direction: column; align-items: center; margin-top: -40px;""><img src=""images/demo_images/pattern_1.png"" style=""width: 234px; height: 230px; margin-top: -50px;""><div style=""display: flex; justify-content: space-between; margin-top: 33px;""><img src=""images/demo_images/choice_trial_1.png"" style=""width: 408px; height: 417px; margin-right: 608px;""></div></div>",,delaylearn,learning,display_response,oVF65tyxAgR3dg8sHMpEdi0wMim2,oVF65tyxAgR3dg8sHMpEdi0wMim2,,,,,,,,,,,,,,,,,chosen stimuli: images/demo_images/choice_trial_1.png,,,,,613b94b83b5cb4c72904f8b3,16:51:29,27/03/2024
html-keyboard-response,31,57527,0.0-13.0-2.0,,,,delaylearn,learning,feedback_duration_window,oVF65tyxAgR3dg8sHMpEdi0wMim2,oVF65tyxAgR3dg8sHMpEdi0wMim2,,,,,,,,,,,,,,,,,,3000.0,,,,613b94b83b5cb4c72904f8b3,16:51:29,27/03/2024
html-keyboard-response,32,59039,0.0-13.0-3.0,,<div style='margin:auto;width: auto; font-size: 150%'><span style='font-weight: bold; font-size: 100px; color: green;'>+10 points!</span><br><br></div>,,delaylearn,learning,feedback_image_window,oVF65tyxAgR3dg8sHMpEdi0wMim2,oVF65tyxAgR3dg8sHMpEdi0wMim2,,,,,,,,,,,,,,,,,,,,,,613b94b83b5cb4c72904f8b3,16:51:29,27/03/2024
html-keyboard-response,33,60850,0.0-14.0,,"<div style=""font-size:100px;"">+</div>",,delaylearn,learning,ITI,oVF65tyxAgR3dg8sHMpEdi0wMim2,oVF65tyxAgR3dg8sHMpEdi0wMim2,,,,,,,,,,,,,,,,,,,1799.0,,,613b94b83b5cb4c72904f8b3,16:51:29,27/03/2024
html-keyboard-response,34,61308,0.0-15.0-0.0,454.89999997615814,"<div style=""display: flex; flex-direction: column; align-items: center; margin-top: -40px;""><img src=""images/demo_images/pattern_1.png"" style=""width: 234px; height: 230px; margin-top: -50px;""><div style=""display: flex; justify-content: space-between; margin-top: 33px;""><img src=""images/demo_images/choice_trial_2.png"" style=""width: 408px; height: 417px; margin-right: 200px;""><img src=""images/demo_images/choice_trial_1.png"" style=""width: 408px; height: 417px;""></div></div>",j,delaylearn,learning,trial,oVF65tyxAgR3dg8sHMpEdi0wMim2,oVF65tyxAgR3dg8sHMpEdi0wMim2,2.0,images/demo_images/choice_trial_2.png,images/demo_images/choice_trial_1.png,images/demo_images/pattern_1.png,j,j,3000.0,2.0,1.0,20.0,1.0,7.0,1.0,1.0,1.0,50.0,,,,,,613b94b83b5cb4c72904f8b3,16:51:29,27/03/2024
html-keyboard-response,35,62313,0.0-15.0-1.0,,"<div style=""display: flex; flex-direction: column; align-items: center; margin-top: -40px;""><img src=""images/demo_images/pattern_1.png"" style=""width: 234px; height: 230px; margin-top: -50px;""><div style=""display: flex; justify-content: space-between; margin-top: 33px;""><img src=""images/demo_images/choice_trial_1.png"" style=""width: 408px; height: 417px; margin-left:608px;""></div></div>",,delaylearn,learning,display_response,oVF65tyxAgR3dg8sHMpEdi0wMim2,oVF65tyxAgR3dg8sHMpEdi0wMim2,,,,,,,,,,,,,,,,,chosen stimuli: images/demo_images/choice_trial_1.png,,,,,613b94b83b5cb4c72904f8b3,16:51:29,27/03/2024
html-keyboard-response,36,65330,0.0-15.0-2.0,,,,delaylearn,learning,feedback_duration_window,oVF65tyxAgR3dg8sHMpEdi0wMim2,oVF65tyxAgR3dg8sHMpEdi0wMim2,,,,,,,,,,,,,,,,,,3000.0,,,,613b94b83b5cb4c72904f8b3,16:51:29,27/03/2024
html-keyboard-response,37,66845,0.0-15.0-3.0,,<div style='margin:auto;width: auto; font-size: 150%'><span style='font-weight: bold; font-size: 100px; color: green;'>+10 points!</span><br><br></div>,,delaylearn,learning,feedback_image_window,oVF65tyxAgR3dg8sHMpEdi0wMim2,oVF65tyxAgR3dg8sHMpEdi0wMim2,,,,,,,,,,,,,,,,,,,,,,613b94b83b5cb4c72904f8b3,16:51:29,27/03/2024
html-keyboard-response,38,68656,0.0-16.0,,"<div style=""font-size:100px;"">+</div>",,delaylearn,learning,ITI,oVF65tyxAgR3dg8sHMpEdi0wMim2,oVF65tyxAgR3dg8sHMpEdi0wMim2,,,,,,,,,,,,,,,,,,,1800.0,,,613b94b83b5cb4c72904f8b3,16:51:29,27/03/2024
html-keyboard-response,39,69054,0.0-17.0-0.0,395.5,"<div style=""display: flex; flex-direction: column; align-items: center; margin-top: -40px;""><img src=""images/demo_images/pattern_1.png"" style=""width: 234px; height: 230px; margin-top: -50px;""><div style=""display: flex; justify-content: space-between; margin-top: 33px;""><img src=""images/demo_images/choice_trial_1.png"" style=""width: 408px; height: 417px; margin-right: 200px;""><img src=""images/demo_images/choice_trial_2.png"" style=""width: 408px; height: 417px;""></div></div>",f,delaylearn,learning,trial,oVF65tyxAgR3dg8sHMpEdi0wMim2,oVF65tyxAgR3dg8sHMpEdi0wMim2,2.0,images/demo_images/choice_trial_1.png,images/demo_images/choice_trial_2.png,images/demo_images/pattern_1.png,f,f,3000.0,1.0,2.0,20.0,0.0,8.0,1.0,1.0,1.0,60.0,,,,,,613b94b83b5cb4c72904f8b3,16:51:29,27/03/2024
html-keyboard-response,40,70070,0.0-17.0-1.0,,"<div style=""display: flex; flex-direction: column; align-items: center; margin-top: -40px;""><img src=""images/demo_images/pattern_1.png"" style=""width: 234px; height: 230px; margin-top: -50px;""><div style=""display: flex; justify-content: space-between; margin-top: 33px;""><img src=""images/demo_images/choice_trial_1.png"" style=""width: 408px; height: 417px; margin-right: 608px;""></div></div>",,delaylearn,learning,display_response,oVF65tyxAgR3dg8sHMpEdi0wMim2,oVF65tyxAgR3dg8sHMpEdi0wMim2,,,,,,,,,,,,,,,,,chosen stimuli: images/demo_images/choice_trial_1.png,,,,,613b94b83b5cb4c72904f8b3,16:51:29,27/03/2024
html-keyboard-response,41,73074,0.0-17.0-2.0,,,,delaylearn,learning,feedback_duration_window,oVF65tyxAgR3dg8sHMpEdi0wMim2,oVF65tyxAgR3dg8sHMpEdi0wMim2,,,,,,,,,,,,,,,,,,3000.0,,,,613b94b83b5cb4c72904f8b3,16:51:29,27/03/2024
html-keyboard-response,42,74578,0.0-17.0-3.0,,<div style='margin:auto;width: auto; font-size: 150%'><span style='font-weight: bold; font-size: 100px; color: green;'>+10 points!</span><br><br></div>,,delaylearn,learning,feedback_image_window,oVF65tyxAgR3dg8sHMpEdi0wMim2,oVF65tyxAgR3dg8sHMpEdi0wMim2,,,,,,,,,,,,,,,,,,,,,,613b94b83b5cb4c72904f8b3,16:51:29,27/03/2024
html-button-response,43,77676,0.0-18.0,3095.100000023842,"
  <div style=""display: flex; align-items: center; justify-content: center; height: 80vh;"">
  <div>
          <img src=""images/inst_demo_finish.png"" style=""width: 80vw; height:auto;"">
          <br><br>
      </div>
      <br><br>
  </div>",0,,,,oVF65tyxAgR3dg8sHMpEdi0wMim2,,,,,,,,,,,,,,,,,,,,,,,613b94b83b5cb4c72904f8b3,16:51:29,27/03/2024
html-keyboard-response,44,79837,0.0-19.0,2158.899999976158,"
  <div style=""display: flex; align-items: center; justify-content: center; height: 80vh;"">
  <div>
          <img src=""images/inst_6.png"" style=""width: 80vw; height:auto;"">
          <br><br>
      </div>
      <br><br>
  </div>",f,,,,oVF65tyxAgR3dg8sHMpEdi0wMim2,,,,,,,,,,,,,,,,,,,,,,,613b94b83b5cb4c72904f8b3,16:51:29,27/03/2024
html-keyboard-response,45,82843,0.0-20.0,,"<div style=""font-size:100px;"">+</div>",,delaylearn,learning,pre_fixation,oVF65tyxAgR3dg8sHMpEdi0wMim2,,,,,,,,,,,,,,,,,,,,,,,613b94b83b5cb4c72904f8b3,16:51:29,27/03/2024
html-keyboard-response,46,84540,0.0-21.0,,"<div style=""font-size:100px;"">+</div>",,delaylearn,learning,ITI,oVF65tyxAgR3dg8sHMpEdi0wMim2,oVF65tyxAgR3dg8sHMpEdi0wMim2,,,,,,,,,,,,,,,,,,,1694.0,,,613b94b83b5cb4c72904f8b3,16:51:29,27/03/2024
html-keyboard-response,47,87547,0.0-22.0-0.0,,"<div style=""display: flex; flex-direction: column; align-items: center; margin-top: -40px;""><img src=""images/pattern_3.png"" style=""width: 234px; height: 230px; margin-top: -50px;""><div style=""display: flex; justify-content: space-between; margin-top: 33px;""><img src=""images/choice_trial_12.png"" style=""width: 408px; height: 417px; margin-right: 200px;""><img src=""images/choice_trial_14.png"" style=""width: 408px; height: 417px;""></div></div>",,delaylearn,learning,trial,oVF65tyxAgR3dg8sHMpEdi0wMim2,oVF65tyxAgR3dg8sHMpEdi0wMim2,2.0,images/choice_trial_12.png,images/choice_trial_14.png,images/pattern_3.png,f,f,7000.0,12.0,14.0,2.0,0.0,9.0,0.0,0.0,0.0,60.0,,,,,,613b94b83b5cb4c72904f8b3,16:51:29,27/03/2024
html-keyboard-response,48,88550,0.0-22.0-1.0,,<div style='font-weight: bold; font-size: 75px; color: red;'>Missed Trial <br><br><br><br> Please respond faster</div>,,delaylearn,learning,display_response,oVF65tyxAgR3dg8sHMpEdi0wMim2,oVF65tyxAgR3dg8sHMpEdi0wMim2,,,,,,,,,,,,,,,,,Missed trial,,,,,613b94b83b5cb4c72904f8b3,16:51:29,27/03/2024
html-keyboard-response,49,88558,0.0-22.0-2.0,,,,delaylearn,learning,feedback_duration_window,oVF65tyxAgR3dg8sHMpEdi0wMim2,oVF65tyxAgR3dg8sHMpEdi0wMim2,,,,,,,,,,,,,,,,,,0.0,,,,613b94b83b5cb4c72904f8b3,16:51:29,27/03/2024
html-keyboard-response,50,88567,0.0-22.0-3.0,,,,delaylearn,learning,feedback_image_window,oVF65tyxAgR3dg8sHMpEdi0wMim2,oVF65tyxAgR3dg8sHMpEdi0wMim2,,,,,,,,,,,,,,,,,,,,,,613b94b83b5cb4c72904f8b3,16:51:29,27/03/2024
html-keyboard-response,51,90917,0.0-23.0,,"<div style=""font-size:100px;"">+</div>",,delaylearn,learning,ITI,oVF65tyxAgR3dg8sHMpEdi0wMim2,oVF65tyxAgR3dg8sHMpEdi0wMim2,,,,,,,,,,,,,,,,,,,2349.0,,,613b94b83b5cb4c72904f8b3,16:51:29,27/03/2024
html-keyboard-response,52,91850,0.0-24.0-0.0,930.3000000715256,"<div style=""display: flex; flex-direction: column; align-items: center; margin-top: -40px;""><img src=""images/pattern_7.png"" style=""width: 234px; height: 230px; margin-top: -50px;""><div style=""display: flex; justify-content: space-between; margin-top: 33px;""><img src=""images/choice_trial_15.png"" style=""width: 408px; height: 417px; margin-right: 200px;""><img src=""images/choice_trial_8.png"" style=""width: 408px; height: 417px;""></div></div>",f,delaylearn,learning,trial,oVF65tyxAgR3dg8sHMpEdi0wMim2,oVF65tyxAgR3dg8sHMpEdi0wMim2,2.0,images/choice_trial_15.png,images/choice_trial_8.png,images/pattern_7.png,j,j,750.0,15.0,8.0,6.0,1.0,10.0,0.0,0.0,15.0,60.0,,,,,,613b94b83b5cb4c72904f8b3,16:51:29,27/03/2024
html-keyboard-response,53,92858,0.0-24.0-1.0,,"<div style=""display: flex; flex-direction: column; align-items: center; margin-top: -40px;""><img src=""images/pattern_7.png"" style=""width: 234px; height: 230px; margin-top: -50px;""><div style=""display: flex; justify-content: space-between; margin-top: 33px;""><img src=""images/choice_trial_15.png"" style=""width: 408px; height: 417px; margin-right: 608px;""></div></div>",,delaylearn,learning,display_response,oVF65tyxAgR3dg8sHMpEdi0wMim2,oVF65tyxAgR3dg8sHMpEdi0wMim2,,,,,,,,,,,,,,,,,chosen stimuli: images/choice_trial_15.png,,,,,613b94b83b5cb4c72904f8b3,16:51:29,27/03/2024
html-keyboard-response,54,93622,0.0-24.0-2.0,,,,delaylearn,learning,feedback_duration_window,oVF65tyxAgR3dg8sHMpEdi0wMim2,oVF65tyxAgR3dg8sHMpEdi0wMim2,,,,,,,,,,,,,,,,,,750.0,,,,613b94b83b5cb4c72904f8b3,16:51:29,27/03/2024
html-keyboard-response,55,95137,0.0-24.0-3.0,,<div style='margin:auto;width: auto; font-size: 150%'><span style='font-weight: bold; font-size: 100px; color: red;'>0 points!</span><br><br></div>,,delaylearn,learning,feedback_image_window,oVF65tyxAgR3dg8sHMpEdi0wMim2,oVF65tyxAgR3dg8sHMpEdi0wMim2,,,,,,,,,,,,,,,,,,,,,,613b94b83b5cb4c72904f8b3,16:51:29,27/03/2024
html-keyboard-response,56,97007,0.0-25.0,,"<div style=""font-size:100px;"">+</div>",,delaylearn,learning,ITI,oVF65tyxAgR3dg8sHMpEdi0wMim2,oVF65tyxAgR3dg8sHMpEdi0wMim2,,,,,,,,,,,,,,,,,,,1853.0,,,613b94b83b5cb4c72904f8b3,16:51:29,27/03/2024
html-keyboard-response,57,99168,0.0-26.0-0.0,2157.0,"<div style=""display: flex; flex-direction: column; align-items: center; margin-top: -40px;""><img src=""images/pattern_4.png"" style=""width: 234px; height: 230px; margin-top: -50px;""><div style=""display: flex; justify-content: space-between; margin-top: 33px;""><img src=""images/choice_trial_4.png"" style=""width: 408px; height: 417px; margin-right: 200px;""><img src=""images/choice_trial_16.png"" style=""width: 408px; height: 417px;""></div></div>",j,delaylearn,learning,trial,oVF65tyxAgR3dg8sHMpEdi0wMim2,oVF65tyxAgR3dg8sHMpEdi0wMim2,2.0,images/choice_trial_4.png,images/choice_trial_16.png,images/pattern_4.png,f,f,7000.0,4.0,16.0,3.0,0.0,11.0,0.0,0.0,16.0,60.0,,,,,,613b94b83b5cb4c72904f8b3,16:51:29,27/03/2024
html-keyboard-response,58,100172,0.0-26.0-1.0,,"<div style=""display: flex; flex-direction: column; align-items: center; margin-top: -40px;""><img src=""images/pattern_4.png"" style=""width: 234px; height: 230px; margin-top: -50px;""><div style=""display: flex; justify-content: space-between; margin-top: 33px;""><img src=""images/choice_trial_16.png"" style=""width: 408px; height: 417px; margin-left:608px;""></div></div>",,delaylearn,learning,display_response,oVF65tyxAgR3dg8sHMpEdi0wMim2,oVF65tyxAgR3dg8sHMpEdi0wMim2,,,,,,,,,,,,,,,,,chosen stimuli: images/choice_trial_16.png,,,,,613b94b83b5cb4c72904f8b3,16:51:29,27/03/2024
html-keyboard-response,59,107186,0.0-26.0-2.0,,,,delaylearn,learning,feedback_duration_window,oVF65tyxAgR3dg8sHMpEdi0wMim2,oVF65tyxAgR3dg8sHMpEdi0wMim2,,,,,,,,,,,,,,,,,,7000.0,,,,613b94b83b5cb4c72904f8b3,16:51:29,27/03/2024
html-keyboard-response,60,108689,0.0-26.0-3.0,,<div style='margin:auto;width: auto; font-size: 150%'><span style='font-weight: bold; font-size: 100px; color: red;'>0 points!</span><br><br></div>,,delaylearn,learning,feedback_image_window,oVF65tyxAgR3dg8sHMpEdi0wMim2,oVF65tyxAgR3dg8sHMpEdi0wMim2,,,,,,,,,,,,,,,,,,,,,,613b94b83b5cb4c72904f8b3,16:51:29,27/03/2024
html-keyboard-response,61,110321,0.0-27.0,,"<div style=""font-size:100px;"">+</div>",,delaylearn,learning,ITI,oVF65tyxAgR3dg8sHMpEdi0wMim2,oVF65tyxAgR3dg8sHMpEdi0wMim2,,,,,,,,,,,,,,,,,,,1615.0,,,613b94b83b5cb4c72904f8b3,16:51:29,27/03/2024
html-keyboard-response,62,112318,0.0-28.0-0.0,1993.8999999761581,"<div style=""display: flex; flex-direction: column; align-items: center; margin-top: -40px;""><img src=""images/pattern_5.png"" style=""width: 234px; height: 230px; margin-top: -50px;""><div style=""display: flex; justify-content: space-between; margin-top: 33px;""><img src=""images/choice_trial_9.png"" style=""width: 408px; height: 417px; margin-right: 200px;""><img src=""images/choice_trial_2.png"" style=""width: 408px; height: 417px;""></div></div>",f,delaylearn,learning,trial,oVF65tyxAgR3dg8sHMpEdi0wMim2,oVF65tyxAgR3dg8sHMpEdi0wMim2,2.0,images/choice_trial_9.png,images/choice_trial_2.png,images/pattern_5.png,j,j,750.0,9.0,2.0,4.0,1.0,12.0,0.0,0.0,9.0,60.0,,,,,,613b94b83b5cb4c72904f8b3,16:51:29,27/03/2024
html-keyboard-response,63,113331,0.0-28.0-1.0,,"<div style=""display: flex; flex-direction: column; align-items: center; margin-top: -40px;""><img src=""images/pattern_5.png"" style=""width: 234px; height: 230px; margin-top: -50px;""><div style=""display: flex; justify-content: space-between; margin-top: 33px;""><img src=""images/choice_trial_9.png"" style=""width: 408px; height: 417px; margin-right: 608px;""></div></div>",,delaylearn,learning,display_response,oVF65tyxAgR3dg8sHMpEdi0wMim2,oVF65tyxAgR3dg8sHMpEdi0wMim2,,,,,,,,,,,,,,,,,chosen stimuli: images/choice_trial_9.png,,,,,613b94b83b5cb4c72904f8b3,16:51:29,27/03/2024
html-keyboard-response,64,114085,0.0-28.0-2.0,,,,delaylearn,learning,feedback_duration_window,oVF65tyxAgR3dg8sHMpEdi0wMim2,oVF65tyxAgR3dg8sHMpEdi0wMim2,,,,,,,,,,,,,,,,,,750.0,,,,613b94b83b5cb4c72904f8b3,16:51:29,27/03/2024
html-keyboard-response,65,115597,0.0-28.0-3.0,,<div style='margin:auto;width: auto; font-size: 150%'><span style='font-weight: bold; font-size: 100px; color: red;'>0 points!</span><br><br></div>,,delaylearn,learning,feedback_image_window,oVF65tyxAgR3dg8sHMpEdi0wMim2,oVF65tyxAgR3dg8sHMpEdi0wMim2,,,,,,,,,,,,,,,,,,,,,,613b94b83b5cb4c72904f8b3,16:51:29,27/03/2024
html-keyboard-response,66,117453,0.0-29.0,,"<div style=""font-size:100px;"">+</div>",,delaylearn,learning,ITI,oVF65tyxAgR3dg8sHMpEdi0wMim2,oVF65tyxAgR3dg8sHMpEdi0wMim2,,,,,,,,,,,,,,,,,,,1848.0,,,613b94b83b5cb4c72904f8b3,16:51:29,27/03/2024
html-keyboard-response,67,119370,0.0-30.0-0.0,1914.3999999761581,"<div style=""display: flex; flex-direction: column; align-items: center; margin-top: -40px;""><img src=""images/pattern_6.png"" style=""width: 234px; height: 230px; margin-top: -50px;""><div style=""display: flex; justify-content: space-between; margin-top: 33px;""><img src=""images/choice_trial_11.png"" style=""width: 408px; height: 417px; margin-right: 200px;""><img src=""images/choice_trial_5.png"" style=""width: 408px; height: 417px;""></div></div>",j,delaylearn,learning,trial,oVF65tyxAgR3dg8sHMpEdi0wMim2,oVF65tyxAgR3dg8sHMpEdi0wMim2,2.0,images/choice_trial_11.png,images/choice_trial_5.png,images/pattern_6.png,j,f,750.0,11.0,5.0,5.0,0.0,13.0,0.0,1.0,5.0,70.0,,,,,,613b94b83b5cb4c72904f8b3,16:51:29,27/03/2024
html-keyboard-response,68,120390,0.0-30.0-1.0,,"<div style=""display: flex; flex-direction: column; align-items: center; margin-top: -40px;""><img src=""images/pattern_6.png"" style=""width: 234px; height: 230px; margin-top: -50px;""><div style=""display: flex; justify-content: space-between; margin-top: 33px;""><img src=""images/choice_trial_5.png"" style=""width: 408px; height: 417px; margin-left:608px;""></div></div>",,delaylearn,learning,display_response,oVF65tyxAgR3dg8sHMpEdi0wMim2,oVF65tyxAgR3dg8sHMpEdi0wMim2,,,,,,,,,,,,,,,,,chosen stimuli: images/choice_trial_5.png,,,,,613b94b83b5cb4c72904f8b3,16:51:29,27/03/2024
html-keyboard-response,69,121151,0.0-30.0-2.0,,,,delaylearn,learning,feedback_duration_window,oVF65tyxAgR3dg8sHMpEdi0wMim2,oVF65tyxAgR3dg8sHMpEdi0wMim2,,,,,,,,,,,,,,,,,,750.0,,,,613b94b83b5cb4c72904f8b3,16:51:29,27/03/2024
html-keyboard-response,70,122654,0.0-30.0-3.0,,<div style='margin:auto;width: auto; font-size: 150%'><span style='font-weight: bold; font-size: 100px; color: green;'>+10 points!</span><br><br></div>,,delaylearn,learning,feedback_image_window,oVF65tyxAgR3dg8sHMpEdi0wMim2,oVF65tyxAgR3dg8sHMpEdi0wMim2,,,,,,,,,,,,,,,,,,,,,,613b94b83b5cb4c72904f8b3,16:51:29,27/03/2024
html-keyboard-response,71,123168,0.0-31.0-0.0,,,,,,mood_trial_fixation,oVF65tyxAgR3dg8sHMpEdi0wMim2,,,,,,,,,,,,,,,,,,,,,,,613b94b83b5cb4c72904f8b3,16:51:29,27/03/2024
lmdlab-html-vas-response,72,127731,0.0-31.0-1.0,3553.0,How happy are you right now?,0.4674601358052949,delaylearn,learning,mood_trial,oVF65tyxAgR3dg8sHMpEdi0wMim2,oVF65tyxAgR3dg8sHMpEdi0wMim2,,,,,,,,,,,,,,,,,,,,"['Very unhappy', 'Very happy']",,613b94b83b5cb4c72904f8b3,16:51:29,27/03/2024
html-keyboard-response,73,129766,0.0-32.0,,"<div style=""font-size:100px;"">+</div>",,delaylearn,learning,ITI,oVF65tyxAgR3dg8sHMpEdi0wMim2,oVF65tyxAgR3dg8sHMpEdi0wMim2,,,,,,,,,,,,,,,,,,,2021.0,,,613b94b83b5cb4c72904f8b3,16:51:29,27/03/2024
html-keyboard-response,74,131560,0.0-33.0-0.0,1790.7000000476837,"<div style=""display: flex; flex-direction: column; align-items: center; margin-top: -40px;""><img src=""images/pattern_1.png"" style=""width: 234px; height: 230px; margin-top: -50px;""><div style=""display: flex; justify-content: space-between; margin-top: 33px;""><img src=""images/choice_trial_10.png"" style=""width: 408px; height: 417px; margin-right: 200px;""><img src=""images/choice_trial_3.png"" style=""width: 408px; height: 417px;""></div></div>",j,delaylearn,learning,trial,oVF65tyxAgR3dg8sHMpEdi0wMim2,oVF65tyxAgR3dg8sHMpEdi0wMim2,2.0,images/choice_trial_10.png,images/choice_trial_3.png,images/pattern_1.png,j,j,7000.0,10.0,3.0,1.0,1.0,14.0,1.0,1.0,3.0,80.0,,,,,,613b94b83b5cb4c72904f8b3,16:51:29,27/03/2024
html-keyboard-response,75,132565,0.0-33.0-1.0,,"<div style=""display: flex; flex-direction: column; align-items: center; margin-top: -40px;""><img src=""images/pattern_1.png"" style=""width: 234px; height: 230px; margin-top: -50px;""><div style=""display: flex; justify-content: space-between; margin-top: 33px;""><img src=""images/choice_trial_3.png"" style=""width: 408px; height: 417px; margin-left:608px;""></div></div>",,delaylearn,learning,display_response,oVF65tyxAgR3dg8sHMpEdi0wMim2,oVF65tyxAgR3dg8sHMpEdi0wMim2,,,,,,,,,,,,,,,,,chosen stimuli: images/choice_trial_3.png,,,,,613b94b83b5cb4c72904f8b3,16:51:29,27/03/2024
html-keyboard-response,76,139571,0.0-33.0-2.0,,,,delaylearn,learning,feedback_duration_window,oVF65tyxAgR3dg8sHMpEdi0wMim2,oVF65tyxAgR3dg8sHMpEdi0wMim2,,,,,,,,,,,,,,,,,,7000.0,,,,613b94b83b5cb4c72904f8b3,16:51:29,27/03/2024
html-keyboard-response,77,141084,0.0-33.0-3.0,,<div style='margin:auto;width: auto; font-size: 150%'><span style='font-weight: bold; font-size: 100px; color: green;'>+10 points!</span><br><br></div>,,delaylearn,learning,feedback_image_window,oVF65tyxAgR3dg8sHMpEdi0wMim2,oVF65tyxAgR3dg8sHMpEdi0wMim2,,,,,,,,,,,,,,,,,,,,,,613b94b83b5cb4c72904f8b3,16:51:29,27/03/2024
html-keyboard-response,78,143288,0.0-34.0,,"<div style=""font-size:100px;"">+</div>",,delaylearn,learning,ITI,oVF65tyxAgR3dg8sHMpEdi0wMim2,oVF65tyxAgR3dg8sHMpEdi0wMim2,,,,,,,,,,,,,,,,,,,2197.0,,,613b94b83b5cb4c72904f8b3,16:51:29,27/03/2024
html-keyboard-response,79,145483,0.0-35.0-0.0,2192.600000023842,"<div style=""display: flex; flex-direction: column; align-items: center; margin-top: -40px;""><img src=""images/pattern_3.png"" style=""width: 234px; height: 230px; margin-top: -50px;""><div style=""display: flex; justify-content: space-between; margin-top: 33px;""><img src=""images/choice_trial_14.png"" style=""width: 408px; height: 417px; margin-right: 200px;""><img src=""images/choice_trial_12.png"" style=""width: 408px; height: 417px;""></div></div>",f,delaylearn,learning,trial,oVF65tyxAgR3dg8sHMpEdi0wMim2,oVF65tyxAgR3dg8sHMpEdi0wMim2,2.0,images/choice_trial_14.png,images/choice_trial_12.png,images/pattern_3.png,f,j,7000.0,14.0,12.0,2.0,1.0,15.0,0.0,1.0,14.0,90.0,,,,,,613b94b83b5cb4c72904f8b3,16:51:29,27/03/2024
html-keyboard-response,80,146497,0.0-35.0-1.0,,"<div style=""display: flex; flex-direction: column; align-items: center; margin-top: -40px;""><img src=""images/pattern_3.png"" style=""width: 234px; height: 230px; margin-top: -50px;""><div style=""display: flex; justify-content: space-between; margin-top: 33px;""><img src=""images/choice_trial_14.png"" style=""width: 408px; height: 417px; margin-right: 608px;""></div></div>",,delaylearn,learning,display_response,oVF65tyxAgR3dg8sHMpEdi0wMim2,oVF65tyxAgR3dg8sHMpEdi0wMim2,,,,,,,,,,,,,,,,,chosen stimuli: images/choice_trial_14.png,,,,,613b94b83b5cb4c72904f8b3,16:51:29,27/03/2024
html-keyboard-response,81,153509,0.0-35.0-2.0,,,,delaylearn,learning,feedback_duration_window,oVF65tyxAgR3dg8sHMpEdi0wMim2,oVF65tyxAgR3dg8sHMpEdi0wMim2,,,,,,,,,,,,,,,,,,7000.0,,,,613b94b83b5cb4c72904f8b3,16:51:29,27/03/2024
html-keyboard-response,82,155016,0.0-35.0-3.0,,<div style='margin:auto;width: auto; font-size: 150%'><span style='font-weight: bold; font-size: 100px; color: green;'>+10 points!</span><br><br></div>,,delaylearn,learning,feedback_image_window,oVF65tyxAgR3dg8sHMpEdi0wMim2,oVF65tyxAgR3dg8sHMpEdi0wMim2,,,,,,,,,,,,,,,,,,,,,,613b94b83b5cb4c72904f8b3,16:51:29,27/03/2024
html-keyboard-response,83,156809,0.0-36.0,,"<div style=""font-size:100px;"">+</div>",,delaylearn,learning,ITI,oVF65tyxAgR3dg8sHMpEdi0wMim2,oVF65tyxAgR3dg8sHMpEdi0wMim2,,,,,,,,,,,,,,,,,,,1791.0,,,613b94b83b5cb4c72904f8b3,16:51:29,27/03/2024
html-keyboard-response,84,158629,0.0-37.0-0.0,1815.3999999761581,"<div style=""display: flex; flex-direction: column; align-items: center; margin-top: -40px;""><img src=""images/pattern_5.png"" style=""width: 234px; height: 230px; margin-top: -50px;""><div style=""display: flex; justify-content: space-between; margin-top: 33px;""><img src=""images/choice_trial_2.png"" style=""width: 408px; height: 417px; margin-right: 200px;""><img src=""images/choice_trial_9.png"" style=""width: 408px; height: 417px;""></div></div>",f,delaylearn,learning,trial,oVF65tyxAgR3dg8sHMpEdi0wMim2,oVF65tyxAgR3dg8sHMpEdi0wMim2,2.0,images/choice_trial_2.png,images/choice_trial_9.png,images/pattern_5.png,f,f,750.0,2.0,9.0,4.0,0.0,16.0,1.0,1.0,2.0,100.0,,,,,,613b94b83b5cb4c72904f8b3,16:51:29,27/03/2024
html-keyboard-response,85,159646,0.0-37.0-1.0,,"<div style=""display: flex; flex-direction: column; align-items: center; margin-top: -40px;""><img src=""images/pattern_5.png"" style=""width: 234px; height: 230px; margin-top: -50px;""><div style=""display: flex; justify-content: space-between; margin-top: 33px;""><img src=""images/choice_trial_2.png"" style=""width: 408px; height: 417px; margin-right: 608px;""></div></div>",,delaylearn,learning,display_response,oVF65tyxAgR3dg8sHMpEdi0wMim2,oVF65tyxAgR3dg8sHMpEdi0wMim2,,,,,,,,,,,,,,,,,chosen stimuli: images/choice_trial_2.png,,,,,613b94b83b5cb4c72904f8b3,16:51:29,27/03/2024
html-keyboard-response,86,160398,0.0-37.0-2.0,,,,delaylearn,learning,feedback_duration_window,oVF65tyxAgR3dg8sHMpEdi0wMim2,oVF65tyxAgR3dg8sHMpEdi0wMim2,,,,,,,,,,,,,,,,,,750.0,,,,613b94b83b5cb4c72904f8b3,16:51:29,27/03/2024
html-keyboard-response,87,161907,0.0-37.0-3.0,,<div style='margin:auto;width: auto; font-size: 150%'><span style='font-weight: bold; font-size: 100px; color: green;'>+10 points!</span><br><br></div>,,delaylearn,learning,feedback_image_window,oVF65tyxAgR3dg8sHMpEdi0wMim2,oVF65tyxAgR3dg8sHMpEdi0wMim2,,,,,,,,,,,,,,,,,,,,,,613b94b83b5cb4c72904f8b3,16:51:29,27/03/2024
html-keyboard-response,88,162416,0.0-38.0-0.0,,,,,,mood_trial_fixation,oVF65tyxAgR3dg8sHMpEdi0wMim2,,,,,,,,,,,,,,,,,,,,,,,613b94b83b5cb4c72904f8b3,16:51:29,27/03/2024
lmdlab-html-vas-response,89,167505,0.0-38.0-1.0,4080.0,How happy are you right now?,0.5179166348770378,delaylearn,learning,mood_trial,oVF65tyxAgR3dg8sHMpEdi0wMim2,oVF65tyxAgR3dg8sHMpEdi0wMim2,,,,,,,,,,,,,,,,,,,,"['Very unhappy', 'Very happy']",,613b94b83b5cb4c72904f8b3,16:51:29,27/03/2024
html-keyboard-response,90,169428,0.0-39.0,,"<div style=""font-size:100px;"">+</div>",,delaylearn,learning,ITI,oVF65tyxAgR3dg8sHMpEdi0wMim2,oVF65tyxAgR3dg8sHMpEdi0wMim2,,,,,,,,,,,,,,,,,,,1920.0,,,613b94b83b5cb4c72904f8b3,16:51:29,27/03/2024
html-keyboard-response,91,171030,0.0-40.0-0.0,1597.6999999284744,"<div style=""display: flex; flex-direction: column; align-items: center; margin-top: -40px;""><img src=""images/pattern_6.png"" style=""width: 234px; height: 230px; margin-top: -50px;""><div style=""display: flex; justify-content: space-between; margin-top: 33px;""><img src=""images/choice_trial_11.png"" style=""width: 408px; height: 417px; margin-right: 200px;""><img src=""images/choice_trial_5.png"" style=""width: 408px; height: 417px;""></div></div>",f,delaylearn,learning,trial,oVF65tyxAgR3dg8sHMpEdi0wMim2,oVF65tyxAgR3dg8sHMpEdi0wMim2,2.0,images/choice_trial_11.png,images/choice_trial_5.png,images/pattern_6.png,f,f,750.0,11.0,5.0,5.0,0.0,17.0,1.0,1.0,11.0,110.0,,,,,,613b94b83b5cb4c72904f8b3,16:51:29,27/03/2024
html-keyboard-response,92,172040,0.0-40.0-1.0,,"<div style=""display: flex; flex-direction: column; align-items: center; margin-top: -40px;""><img src=""images/pattern_6.png"" style=""width: 234px; height: 230px; margin-top: -50px;""><div style=""display: flex; justify-content: space-between; margin-top: 33px;""><img src=""images/choice_trial_11.png"" style=""width: 408px; height: 417px; margin-right: 608px;""></div></div>",,delaylearn,learning,display_response,oVF65tyxAgR3dg8sHMpEdi0wMim2,oVF65tyxAgR3dg8sHMpEdi0wMim2,,,,,,,,,,,,,,,,,chosen stimuli: images/choice_trial_11.png,,,,,613b94b83b5cb4c72904f8b3,16:51:29,27/03/2024
html-keyboard-response,93,172798,0.0-40.0-2.0,,,,delaylearn,learning,feedback_duration_window,oVF65tyxAgR3dg8sHMpEdi0wMim2,oVF65tyxAgR3dg8sHMpEdi0wMim2,,,,,,,,,,,,,,,,,,750.0,,,,613b94b83b5cb4c72904f8b3,16:51:29,27/03/2024
html-keyboard-response,94,174304,0.0-40.0-3.0,,<div style='margin:auto;width: auto; font-size: 150%'><span style='font-weight: bold; font-size: 100px; color: green;'>+10 points!</span><br><br></div>,,delaylearn,learning,feedback_image_window,oVF65tyxAgR3dg8sHMpEdi0wMim2,oVF65tyxAgR3dg8sHMpEdi0wMim2,,,,,,,,,,,,,,,,,,,,,,613b94b83b5cb4c72904f8b3,16:51:29,27/03/2024
html-keyboard-response,95,176229,0.0-41.0,,"<div style=""font-size:100px;"">+</div>",,delaylearn,learning,ITI,oVF65tyxAgR3dg8sHMpEdi0wMim2,oVF65tyxAgR3dg8sHMpEdi0wMim2,,,,,,,,,,,,,,,,,,,1919.0,,,613b94b83b5cb4c72904f8b3,16:51:29,27/03/2024
html-keyboard-response,96,177407,0.0-42.0-0.0,1174.6000000238419,"<div style=""display: flex; flex-direction: column; align-items: center; margin-top: -40px;""><img src=""images/pattern_4.png"" style=""width: 234px; height: 230px; margin-top: -50px;""><div style=""display: flex; justify-content: space-between; margin-top: 33px;""><img src=""images/choice_trial_16.png"" style=""width: 408px; height: 417px; margin-right: 200px;""><img src=""images/choice_trial_4.png"" style=""width: 408px; height: 417px;""></div></div>",j,delaylearn,learning,trial,oVF65tyxAgR3dg8sHMpEdi0wMim2,oVF65tyxAgR3dg8sHMpEdi0wMim2,2.0,images/choice_trial_16.png,images/choice_trial_4.png,images/pattern_4.png,j,j,7000.0,16.0,4.0,3.0,1.0,18.0,1.0,1.0,4.0,120.0,,,,,,613b94b83b5cb4c72904f8b3,16:51:29,27/03/2024
html-keyboard-response,97,178424,0.0-42.0-1.0,,"<div style=""display: flex; flex-direction: column; align-items: center; margin-top: -40px;""><img src=""images/pattern_4.png"" style=""width: 234px; height: 230px; margin-top: -50px;""><div style=""display: flex; justify-content: space-between; margin-top: 33px;""><img src=""images/choice_trial_4.png"" style=""width: 408px; height: 417px; margin-left:608px;""></div></div>",,delaylearn,learning,display_response,oVF65tyxAgR3dg8sHMpEdi0wMim2,oVF65tyxAgR3dg8sHMpEdi0wMim2,,,,,,,,,,,,,,,,,chosen stimuli: images/choice_trial_4.png,,,,,613b94b83b5cb4c72904f8b3,16:51:29,27/03/2024
html-keyboard-response,98,185428,0.0-42.0-2.0,,,,delaylearn,learning,feedback_duration_window,oVF65tyxAgR3dg8sHMpEdi0wMim2,oVF65tyxAgR3dg8sHMpEdi0wMim2,,,,,,,,,,,,,,,,,,7000.0,,,,613b94b83b5cb4c72904f8b3,16:51:29,27/03/2024
html-keyboard-response,99,186939,0.0-42.0-3.0,,<div style='margin:auto;width: auto; font-size: 150%'><span style='font-weight: bold; font-size: 100px; color: green;'>+10 points!</span><br><br></div>,,delaylearn,learning,feedback_image_window,oVF65tyxAgR3dg8sHMpEdi0wMim2,oVF65tyxAgR3dg8sHMpEdi0wMim2,,,,,,,,,,,,,,,,,,,,,,613b94b83b5cb4c72904f8b3,16:51:29,27/03/2024
html-keyboard-response,100,189094,0.0-43.0,,"<div style=""font-size:100px;"">+</div>",,delaylearn,learning,ITI,oVF65tyxAgR3dg8sHMpEdi0wMim2,oVF65tyxAgR3dg8sHMpEdi0wMim2,,,,,,,,,,,,,,,,,,,2140.0,,,613b94b83b5cb4c72904f8b3,16:51:29,27/03/2024
html-keyboard-response,101,190346,0.0-44.0-0.0,1249.0999999046326,"<div style=""display: flex; flex-direction: column; align-items: center; margin-top: -40px;""><img src=""images/pattern_7.png"" style=""width: 234px; height: 230px; margin-top: -50px;""><div style=""display: flex; justify-content: space-between; margin-top: 33px;""><img src=""images/choice_trial_8.png"" style=""width: 408px; height: 417px; margin-right: 200px;""><img src=""images/choice_trial_15.png"" style=""width: 408px; height: 417px;""></div></div>",f,delaylearn,learning,trial,oVF65tyxAgR3dg8sHMpEdi0wMim2,oVF65tyxAgR3dg8sHMpEdi0wMim2,2.0,images/choice_trial_8.png,images/choice_trial_15.png,images/pattern_7.png,j,f,750.0,8.0,15.0,6.0,0.0,19.0,1.0,0.0,8.0,120.0,,,,,,613b94b83b5cb4c72904f8b3,16:51:29,27/03/2024
html-keyboard-response,102,191363,0.0-44.0-1.0,,"<div style=""display: flex; flex-direction: column; align-items: center; margin-top: -40px;""><img src=""images/pattern_7.png"" style=""width: 234px; height: 230px; margin-top: -50px;""><div style=""display: flex; justify-content: space-between; margin-top: 33px;""><img src=""images/choice_trial_8.png"" style=""width: 408px; height: 417px; margin-right: 608px;""></div></div>",,delaylearn,learning,display_response,oVF65tyxAgR3dg8sHMpEdi0wMim2,oVF65tyxAgR3dg8sHMpEdi0wMim2,,,,,,,,,,,,,,,,,chosen stimuli: images/choice_trial_8.png,,,,,613b94b83b5cb4c72904f8b3,16:51:29,27/03/2024
html-keyboard-response,103,192120,0.0-44.0-2.0,,,,delaylearn,learning,feedback_duration_window,oVF65tyxAgR3dg8sHMpEdi0wMim2,oVF65tyxAgR3dg8sHMpEdi0wMim2,,,,,,,,,,,,,,,,,,750.0,,,,613b94b83b5cb4c72904f8b3,16:51:29,27/03/2024
html-keyboard-response,104,193629,0.0-44.0-3.0,,<div style='margin:auto;width: auto; font-size: 150%'><span style='font-weight: bold; font-size: 100px; color: red;'>0 points!</span><br><br></div>,,delaylearn,learning,feedback_image_window,oVF65tyxAgR3dg8sHMpEdi0wMim2,oVF65tyxAgR3dg8sHMpEdi0wMim2,,,,,,,,,,,,,,,,,,,,,,613b94b83b5cb4c72904f8b3,16:51:29,27/03/2024
html-keyboard-response,105,195949,0.0-45.0,,"<div style=""font-size:100px;"">+</div>",,delaylearn,learning,ITI,oVF65tyxAgR3dg8sHMpEdi0wMim2,oVF65tyxAgR3dg8sHMpEdi0wMim2,,,,,,,,,,,,,,,,,,,2309.0,,,613b94b83b5cb4c72904f8b3,16:51:29,27/03/2024
html-keyboard-response,106,198150,0.0-46.0-0.0,2197.5,"<div style=""display: flex; flex-direction: column; align-items: center; margin-top: -40px;""><img src=""images/pattern_1.png"" style=""width: 234px; height: 230px; margin-top: -50px;""><div style=""display: flex; justify-content: space-between; margin-top: 33px;""><img src=""images/choice_trial_3.png"" style=""width: 408px; height: 417px; margin-right: 200px;""><img src=""images/choice_trial_10.png"" style=""width: 408px; height: 417px;""></div></div>",f,delaylearn,learning,trial,oVF65tyxAgR3dg8sHMpEdi0wMim2,oVF65tyxAgR3dg8sHMpEdi0wMim2,2.0,images/choice_trial_3.png,images/choice_trial_10.png,images/pattern_1.png,f,f,7000.0,3.0,10.0,1.0,0.0,20.0,1.0,1.0,3.0,130.0,,,,,,613b94b83b5cb4c72904f8b3,16:51:29,27/03/2024
html-keyboard-response,107,199166,0.0-46.0-1.0,,"<div style=""display: flex; flex-direction: column; align-items: center; margin-top: -40px;""><img src=""images/pattern_1.png"" style=""width: 234px; height: 230px; margin-top: -50px;""><div style=""display: flex; justify-content: space-between; margin-top: 33px;""><img src=""images/choice_trial_3.png"" style=""width: 408px; height: 417px; margin-right: 608px;""></div></div>",,delaylearn,learning,display_response,oVF65tyxAgR3dg8sHMpEdi0wMim2,oVF65tyxAgR3dg8sHMpEdi0wMim2,,,,,,,,,,,,,,,,,chosen stimuli: images/choice_trial_3.png,,,,,613b94b83b5cb4c72904f8b3,16:51:29,27/03/2024
html-keyboard-response,108,206177,0.0-46.0-2.0,,,,delaylearn,learning,feedback_duration_window,oVF65tyxAgR3dg8sHMpEdi0wMim2,oVF65tyxAgR3dg8sHMpEdi0wMim2,,,,,,,,,,,,,,,,,,7000.0,,,,613b94b83b5cb4c72904f8b3,16:51:29,27/03/2024
html-keyboard-response,109,207681,0.0-46.0-3.0,,<div style='margin:auto;width: auto; font-size: 150%'><span style='font-weight: bold; font-size: 100px; color: green;'>+10 points!</span><br><br></div>,,delaylearn,learning,feedback_image_window,oVF65tyxAgR3dg8sHMpEdi0wMim2,oVF65tyxAgR3dg8sHMpEdi0wMim2,,,,,,,,,,,,,,,,,,,,,,613b94b83b5cb4c72904f8b3,16:51:29,27/03/2024
html-keyboard-response,110,209627,0.0-47.0,,"<div style=""font-size:100px;"">+</div>",,delaylearn,learning,ITI,oVF65tyxAgR3dg8sHMpEdi0wMim2,oVF65tyxAgR3dg8sHMpEdi0wMim2,,,,,,,,,,,,,,,,,,,1943.0,,,613b94b83b5cb4c72904f8b3,16:51:29,27/03/2024
html-keyboard-response,111,211200,0.0-48.0-0.0,1570.7000000476837,"<div style=""display: flex; flex-direction: column; align-items: center; margin-top: -40px;""><img src=""images/pattern_6.png"" style=""width: 234px; height: 230px; margin-top: -50px;""><div style=""display: flex; justify-content: space-between; margin-top: 33px;""><img src=""images/choice_trial_5.png"" style=""width: 408px; height: 417px; margin-right: 200px;""><img src=""images/choice_trial_11.png"" style=""width: 408px; height: 417px;""></div></div>",f,delaylearn,learning,trial,oVF65tyxAgR3dg8sHMpEdi0wMim2,oVF65tyxAgR3dg8sHMpEdi0wMim2,2.0,images/choice_trial_5.png,images/choice_trial_11.png,images/pattern_6.png,j,j,750.0,5.0,11.0,5.0,1.0,21.0,0.0,0.0,5.0,130.0,,,,,,613b94b83b5cb4c72904f8b3,16:51:29,27/03/2024
html-keyboard-response,112,212216,0.0-48.0-1.0,,"<div style=""display: flex; flex-direction: column; align-items: center; margin-top: -40px;""><img src=""images/pattern_6.png"" style=""width: 234px; height: 230px; margin-top: -50px;""><div style=""display: flex; justify-content: space-between; margin-top: 33px;""><img src=""images/choice_trial_5.png"" style=""width: 408px; height: 417px; margin-right: 608px;""></div></div>",,delaylearn,learning,display_response,oVF65tyxAgR3dg8sHMpEdi0wMim2,oVF65tyxAgR3dg8sHMpEdi0wMim2,,,,,,,,,,,,,,,,,chosen stimuli: images/choice_trial_5.png,,,,,613b94b83b5cb4c72904f8b3,16:51:29,27/03/2024
html-keyboard-response,113,212975,0.0-48.0-2.0,,,,delaylearn,learning,feedback_duration_window,oVF65tyxAgR3dg8sHMpEdi0wMim2,oVF65tyxAgR3dg8sHMpEdi0wMim2,,,,,,,,,,,,,,,,,,750.0,,,,613b94b83b5cb4c72904f8b3,16:51:29,27/03/2024
html-keyboard-response,114,214479,0.0-48.0-3.0,,<div style='margin:auto;width: auto; font-size: 150%'><span style='font-weight: bold; font-size: 100px; color: red;'>0 points!</span><br><br></div>,,delaylearn,learning,feedback_image_window,oVF65tyxAgR3dg8sHMpEdi0wMim2,oVF65tyxAgR3dg8sHMpEdi0wMim2,,,,,,,,,,,,,,,,,,,,,,613b94b83b5cb4c72904f8b3,16:51:29,27/03/2024
html-keyboard-response,115,216846,0.0-49.0,,"<div style=""font-size:100px;"">+</div>",,delaylearn,learning,ITI,oVF65tyxAgR3dg8sHMpEdi0wMim2,oVF65tyxAgR3dg8sHMpEdi0wMim2,,,,,,,,,,,,,,,,,,,2362.0,,,613b94b83b5cb4c72904f8b3,16:51:29,27/03/2024
html-keyboard-response,116,218322,0.0-50.0-0.0,1471.8999999761581,"<div style=""display: flex; flex-direction: column; align-items: center; margin-top: -40px;""><img src=""images/pattern_4.png"" style=""width: 234px; height: 230px; margin-top: -50px;""><div style=""display: flex; justify-content: space-between; margin-top: 33px;""><img src=""images/choice_trial_4.png"" style=""width: 408px; height: 417px; margin-right: 200px;""><img src=""images/choice_trial_16.png"" style=""width: 408px; height: 417px;""></div></div>",f,delaylearn,learning,trial,oVF65tyxAgR3dg8sHMpEdi0wMim2,oVF65tyxAgR3dg8sHMpEdi0wMim2,2.0,images/choice_trial_4.png,images/choice_trial_16.png,images/pattern_4.png,f,f,7000.0,4.0,16.0,3.0,0.0,22.0,1.0,1.0,4.0,140.0,,,,,,613b94b83b5cb4c72904f8b3,16:51:29,27/03/2024
html-keyboard-response,117,219336,0.0-50.0-1.0,,"<div style=""display: flex; flex-direction: column; align-items: center; margin-top: -40px;""><img src=""images/pattern_4.png"" style=""width: 234px; height: 230px; margin-top: -50px;""><div style=""display: flex; justify-content: space-between; margin-top: 33px;""><img src=""images/choice_trial_4.png"" style=""width: 408px; height: 417px; margin-right: 608px;""></div></div>",,delaylearn,learning,display_response,oVF65tyxAgR3dg8sHMpEdi0wMim2,oVF65tyxAgR3dg8sHMpEdi0wMim2,,,,,,,,,,,,,,,,,chosen stimuli: images/choice_trial_4.png,,,,,613b94b83b5cb4c72904f8b3,16:51:29,27/03/2024
html-keyboard-response,118,226344,0.0-50.0-2.0,,,,delaylearn,learning,feedback_duration_window,oVF65tyxAgR3dg8sHMpEdi0wMim2,oVF65tyxAgR3dg8sHMpEdi0wMim2,,,,,,,,,,,,,,,,,,7000.0,,,,613b94b83b5cb4c72904f8b3,16:51:29,27/03/2024
html-keyboard-response,119,227852,0.0-50.0-3.0,,<div style='margin:auto;width: auto; font-size: 150%'><span style='font-weight: bold; font-size: 100px; color: green;'>+10 points!</span><br><br></div>,,delaylearn,learning,feedback_image_window,oVF65tyxAgR3dg8sHMpEdi0wMim2,oVF65tyxAgR3dg8sHMpEdi0wMim2,,,,,,,,,,,,,,,,,,,,,,613b94b83b5cb4c72904f8b3,16:51:29,27/03/2024
html-keyboard-response,120,228358,0.0-51.0-0.0,,,,,,mood_trial_fixation,oVF65tyxAgR3dg8sHMpEdi0wMim2,,,,,,,,,,,,,,,,,,,,,,,613b94b83b5cb4c72904f8b3,16:51:29,27/03/2024
lmdlab-html-vas-response,121,233492,0.0-51.0-1.0,4122.0,How happy are you right now?,0.5488415859210092,delaylearn,learning,mood_trial,oVF65tyxAgR3dg8sHMpEdi0wMim2,oVF65tyxAgR3dg8sHMpEdi0wMim2,,,,,,,,,,,,,,,,,,,,"['Very unhappy', 'Very happy']",,613b94b83b5cb4c72904f8b3,16:51:29,27/03/2024
html-keyboard-response,122,235616,0.0-52.0,,"<div style=""font-size:100px;"">+</div>",,delaylearn,learning,ITI,oVF65tyxAgR3dg8sHMpEdi0wMim2,oVF65tyxAgR3dg8sHMpEdi0wMim2,,,,,,,,,,,,,,,,,,,2109.0,,,613b94b83b5cb4c72904f8b3,16:51:29,27/03/2024
html-keyboard-response,123,237683,0.0-53.0-0.0,2064.5,"<div style=""display: flex; flex-direction: column; align-items: center; margin-top: -40px;""><img src=""images/pattern_7.png"" style=""width: 234px; height: 230px; margin-top: -50px;""><div style=""display: flex; justify-content: space-between; margin-top: 33px;""><img src=""images/choice_trial_15.png"" style=""width: 408px; height: 417px; margin-right: 200px;""><img src=""images/choice_trial_8.png"" style=""width: 408px; height: 417px;""></div></div>",j,delaylearn,learning,trial,oVF65tyxAgR3dg8sHMpEdi0wMim2,oVF65tyxAgR3dg8sHMpEdi0wMim2,2.0,images/choice_trial_15.png,images/choice_trial_8.png,images/pattern_7.png,j,j,750.0,15.0,8.0,6.0,1.0,23.0,1.0,1.0,8.0,150.0,,,,,,613b94b83b5cb4c72904f8b3,16:51:29,27/03/2024
html-keyboard-response,124,238694,0.0-53.0-1.0,,"<div style=""display: flex; flex-direction: column; align-items: center; margin-top: -40px;""><img src=""images/pattern_7.png"" style=""width: 234px; height: 230px; margin-top: -50px;""><div style=""display: flex; justify-content: space-between; margin-top: 33px;""><img src=""images/choice_trial_8.png"" style=""width: 408px; height: 417px; margin-left:608px;""></div></div>",,delaylearn,learning,display_response,oVF65tyxAgR3dg8sHMpEdi0wMim2,oVF65tyxAgR3dg8sHMpEdi0wMim2,,,,,,,,,,,,,,,,,chosen stimuli: images/choice_trial_8.png,,,,,613b94b83b5cb4c72904f8b3,16:51:29,27/03/2024
html-keyboard-response,125,239455,0.0-53.0-2.0,,,,delaylearn,learning,feedback_duration_window,oVF65tyxAgR3dg8sHMpEdi0wMim2,oVF65tyxAgR3dg8sHMpEdi0wMim2,,,,,,,,,,,,,,,,,,750.0,,,,613b94b83b5cb4c72904f8b3,16:51:29,27/03/2024
html-keyboard-response,126,240970,0.0-53.0-3.0,,<div style='margin:auto;width: auto; font-size: 150%'><span style='font-weight: bold; font-size: 100px; color: green;'>+10 points!</span><br><br></div>,,delaylearn,learning,feedback_image_window,oVF65tyxAgR3dg8sHMpEdi0wMim2,oVF65tyxAgR3dg8sHMpEdi0wMim2,,,,,,,,,,,,,,,,,,,,,,613b94b83b5cb4c72904f8b3,16:51:29,27/03/2024
html-keyboard-response,127,243461,0.0-54.0,,"<div style=""font-size:100px;"">+</div>",,delaylearn,learning,ITI,oVF65tyxAgR3dg8sHMpEdi0wMim2,oVF65tyxAgR3dg8sHMpEdi0wMim2,,,,,,,,,,,,,,,,,,,2476.0,,,613b94b83b5cb4c72904f8b3,16:51:29,27/03/2024
html-keyboard-response,128,245041,0.0-55.0-0.0,1574.8999999761581,"<div style=""display: flex; flex-direction: column; align-items: center; margin-top: -40px;""><img src=""images/pattern_1.png"" style=""width: 234px; height: 230px; margin-top: -50px;""><div style=""display: flex; justify-content: space-between; margin-top: 33px;""><img src=""images/choice_trial_10.png"" style=""width: 408px; height: 417px; margin-right: 200px;""><img src=""images/choice_trial_3.png"" style=""width: 408px; height: 417px;""></div></div>",j,delaylearn,learning,trial,oVF65tyxAgR3dg8sHMpEdi0wMim2,oVF65tyxAgR3dg8sHMpEdi0wMim2,2.0,images/choice_trial_10.png,images/choice_trial_3.png,images/pattern_1.png,f,j,7000.0,10.0,3.0,1.0,1.0,24.0,1.0,0.0,3.0,150.0,,,,,,613b94b83b5cb4c72904f8b3,16:51:29,27/03/2024
html-keyboard-response,129,246057,0.0-55.0-1.0,,"<div style=""display: flex; flex-direction: column; align-items: center; margin-top: -40px;""><img src=""images/pattern_1.png"" style=""width: 234px; height: 230px; margin-top: -50px;""><div style=""display: flex; justify-content: space-between; margin-top: 33px;""><img src=""images/choice_trial_3.png"" style=""width: 408px; height: 417px; margin-left:608px;""></div></div>",,delaylearn,learning,display_response,oVF65tyxAgR3dg8sHMpEdi0wMim2,oVF65tyxAgR3dg8sHMpEdi0wMim2,,,,,,,,,,,,,,,,,chosen stimuli: images/choice_trial_3.png,,,,,613b94b83b5cb4c72904f8b3,16:51:29,27/03/2024
html-keyboard-response,130,253065,0.0-55.0-2.0,,,,delaylearn,learning,feedback_duration_window,oVF65tyxAgR3dg8sHMpEdi0wMim2,oVF65tyxAgR3dg8sHMpEdi0wMim2,,,,,,,,,,,,,,,,,,7000.0,,,,613b94b83b5cb4c72904f8b3,16:51:29,27/03/2024
html-keyboard-response,131,254568,0.0-55.0-3.0,,<div style='margin:auto;width: auto; font-size: 150%'><span style='font-weight: bold; font-size: 100px; color: red;'>0 points!</span><br><br></div>,,delaylearn,learning,feedback_image_window,oVF65tyxAgR3dg8sHMpEdi0wMim2,oVF65tyxAgR3dg8sHMpEdi0wMim2,,,,,,,,,,,,,,,,,,,,,,613b94b83b5cb4c72904f8b3,16:51:29,27/03/2024
html-keyboard-response,132,256348,0.0-56.0,,"<div style=""font-size:100px;"">+</div>",,delaylearn,learning,ITI,oVF65tyxAgR3dg8sHMpEdi0wMim2,oVF65tyxAgR3dg8sHMpEdi0wMim2,,,,,,,,,,,,,,,,,,,1768.0,,,613b94b83b5cb4c72904f8b3,16:51:29,27/03/2024
html-keyboard-response,133,258170,0.0-57.0-0.0,1818.0,"<div style=""display: flex; flex-direction: column; align-items: center; margin-top: -40px;""><img src=""images/pattern_5.png"" style=""width: 234px; height: 230px; margin-top: -50px;""><div style=""display: flex; justify-content: space-between; margin-top: 33px;""><img src=""images/choice_trial_9.png"" style=""width: 408px; height: 417px; margin-right: 200px;""><img src=""images/choice_trial_2.png"" style=""width: 408px; height: 417px;""></div></div>",j,delaylearn,learning,trial,oVF65tyxAgR3dg8sHMpEdi0wMim2,oVF65tyxAgR3dg8sHMpEdi0wMim2,2.0,images/choice_trial_9.png,images/choice_trial_2.png,images/pattern_5.png,j,j,750.0,9.0,2.0,4.0,1.0,25.0,1.0,1.0,2.0,160.0,,,,,,613b94b83b5cb4c72904f8b3,16:51:29,27/03/2024
html-keyboard-response,134,259184,0.0-57.0-1.0,,"<div style=""display: flex; flex-direction: column; align-items: center; margin-top: -40px;""><img src=""images/pattern_5.png"" style=""width: 234px; height: 230px; margin-top: -50px;""><div style=""display: flex; justify-content: space-between; margin-top: 33px;""><img src=""images/choice_trial_2.png"" style=""width: 408px; height: 417px; margin-left:608px;""></div></div>",,delaylearn,learning,display_response,oVF65tyxAgR3dg8sHMpEdi0wMim2,oVF65tyxAgR3dg8sHMpEdi0wMim2,,,,,,,,,,,,,,,,,chosen stimuli: images/choice_trial_2.png,,,,,613b94b83b5cb4c72904f8b3,16:51:29,27/03/2024
html-keyboard-response,135,259942,0.0-57.0-2.0,,,,delaylearn,learning,feedback_duration_window,oVF65tyxAgR3dg8sHMpEdi0wMim2,oVF65tyxAgR3dg8sHMpEdi0wMim2,,,,,,,,,,,,,,,,,,750.0,,,,613b94b83b5cb4c72904f8b3,16:51:29,27/03/2024
html-keyboard-response,136,261448,0.0-57.0-3.0,,<div style='margin:auto;width: auto; font-size: 150%'><span style='font-weight: bold; font-size: 100px; color: green;'>+10 points!</span><br><br></div>,,delaylearn,learning,feedback_image_window,oVF65tyxAgR3dg8sHMpEdi0wMim2,oVF65tyxAgR3dg8sHMpEdi0wMim2,,,,,,,,,,,,,,,,,,,,,,613b94b83b5cb4c72904f8b3,16:51:29,27/03/2024
html-keyboard-response,137,263345,0.0-58.0,,"<div style=""font-size:100px;"">+</div>",,delaylearn,learning,ITI,oVF65tyxAgR3dg8sHMpEdi0wMim2,oVF65tyxAgR3dg8sHMpEdi0wMim2,,,,,,,,,,,,,,,,,,,1893.0,,,613b94b83b5cb4c72904f8b3,16:51:29,27/03/2024
html-keyboard-response,138,264870,0.0-59.0-0.0,1520.6999999284744,"<div style=""display: flex; flex-direction: column; align-items: center; margin-top: -40px;""><img src=""images/pattern_3.png"" style=""width: 234px; height: 230px; margin-top: -50px;""><div style=""display: flex; justify-content: space-between; margin-top: 33px;""><img src=""images/choice_trial_14.png"" style=""width: 408px; height: 417px; margin-right: 200px;""><img src=""images/choice_trial_12.png"" style=""width: 408px; height: 417px;""></div></div>",f,delaylearn,learning,trial,oVF65tyxAgR3dg8sHMpEdi0wMim2,oVF65tyxAgR3dg8sHMpEdi0wMim2,2.0,images/choice_trial_14.png,images/choice_trial_12.png,images/pattern_3.png,j,j,7000.0,14.0,12.0,2.0,1.0,26.0,0.0,0.0,14.0,160.0,,,,,,613b94b83b5cb4c72904f8b3,16:51:29,27/03/2024
html-keyboard-response,139,265883,0.0-59.0-1.0,,"<div style=""display: flex; flex-direction: column; align-items: center; margin-top: -40px;""><img src=""images/pattern_3.png"" style=""width: 234px; height: 230px; margin-top: -50px;""><div style=""display: flex; justify-content: space-between; margin-top: 33px;""><img src=""images/choice_trial_14.png"" style=""width: 408px; height: 417px; margin-right: 608px;""></div></div>",,delaylearn,learning,display_response,oVF65tyxAgR3dg8sHMpEdi0wMim2,oVF65tyxAgR3dg8sHMpEdi0wMim2,,,,,,,,,,,,,,,,,chosen stimuli: images/choice_trial_14.png,,,,,613b94b83b5cb4c72904f8b3,16:51:29,27/03/2024
html-keyboard-response,140,272889,0.0-59.0-2.0,,,,delaylearn,learning,feedback_duration_window,oVF65tyxAgR3dg8sHMpEdi0wMim2,oVF65tyxAgR3dg8sHMpEdi0wMim2,,,,,,,,,,,,,,,,,,7000.0,,,,613b94b83b5cb4c72904f8b3,16:51:29,27/03/2024
html-keyboard-response,141,274398,0.0-59.0-3.0,,<div style='margin:auto;width: auto; font-size: 150%'><span style='font-weight: bold; font-size: 100px; color: red;'>0 points!</span><br><br></div>,,delaylearn,learning,feedback_image_window,oVF65tyxAgR3dg8sHMpEdi0wMim2,oVF65tyxAgR3dg8sHMpEdi0wMim2,,,,,,,,,,,,,,,,,,,,,,613b94b83b5cb4c72904f8b3,16:51:29,27/03/2024
lmdlab-html-vas-response,142,279872,0.0-60.0-0.0,3951.0,*How <b><u>confident</u></b> are you feeling about your answers at this moment?*,0.3909615726965235,rewlearn,rate_confidence,,oVF65tyxAgR3dg8sHMpEdi0wMim2,oVF65tyxAgR3dg8sHMpEdi0wMim2,,,,,,,,,,,,,,,,,,,,"['No confidence', 'Complete confidence']",,613b94b83b5cb4c72904f8b3,16:51:29,27/03/2024
lmdlab-rest-trial-limit,143,285452,0.0-60.0-1.0,4068.399999976158,"<div style=""font-size:40px;""><b>Please take a break!</b><br><br><br><br><p>Great work: you earned 160 points.<br><br><br><p>You have completed part(s) 1 of 5.<br><br><br><br>When you are ready to continue<br><br><br>please click the button.</p><br><br>",0,delaylearn,learning,break,oVF65tyxAgR3dg8sHMpEdi0wMim2,oVF65tyxAgR3dg8sHMpEdi0wMim2,,,,,,,,,,,,,,,,,,,,,0.0,613b94b83b5cb4c72904f8b3,16:51:29,27/03/2024
html-keyboard-response,144,288456,0.0-60.0-2.0,,"<div style=""font-size:100px;"">+</div>",,delaylearn,learning,pre_fixation,oVF65tyxAgR3dg8sHMpEdi0wMim2,,,,,,,,,,,,,,,,,,,,,,,613b94b83b5cb4c72904f8b3,16:51:29,27/03/2024
lmdlab-html-vas-response,145,293081,0.0-60.0-3.0-0.0,3608.0,How happy are you right now?,0.4788535388214949,delaylearn,learning,mood_baseline,oVF65tyxAgR3dg8sHMpEdi0wMim2,oVF65tyxAgR3dg8sHMpEdi0wMim2,,,,,,,,,,,,,,,,,,,,"['Very unhappy', 'Very happy']",,613b94b83b5cb4c72904f8b3,16:51:29,27/03/2024
html-keyboard-response,146,294588,0.0-60.0-3.0-1.0,,,,,,mood_baseline_fixation,oVF65tyxAgR3dg8sHMpEdi0wMim2,,,,,,,,,,,,,,,,,,,,,,,613b94b83b5cb4c72904f8b3,16:51:29,27/03/2024
html-keyboard-response,147,296526,0.0-61.0,,"<div style=""font-size:100px;"">+</div>",,delaylearn,learning,ITI,oVF65tyxAgR3dg8sHMpEdi0wMim2,oVF65tyxAgR3dg8sHMpEdi0wMim2,,,,,,,,,,,,,,,,,,,1930.0,,,613b94b83b5cb4c72904f8b3,16:51:29,27/03/2024
html-keyboard-response,148,298156,0.0-62.0-0.0,1627.3000000715256,"<div style=""display: flex; flex-direction: column; align-items: center; margin-top: -40px;""><img src=""images/pattern_7.png"" style=""width: 234px; height: 230px; margin-top: -50px;""><div style=""display: flex; justify-content: space-between; margin-top: 33px;""><img src=""images/choice_trial_15.png"" style=""width: 408px; height: 417px; margin-right: 200px;""><img src=""images/choice_trial_8.png"" style=""width: 408px; height: 417px;""></div></div>",f,delaylearn,learning,trial,oVF65tyxAgR3dg8sHMpEdi0wMim2,oVF65tyxAgR3dg8sHMpEdi0wMim2,2.0,images/choice_trial_15.png,images/choice_trial_8.png,images/pattern_7.png,j,j,750.0,15.0,8.0,6.0,1.0,27.0,0.0,0.0,15.0,160.0,,,,,,613b94b83b5cb4c72904f8b3,16:51:29,27/03/2024
html-keyboard-response,149,299164,0.0-62.0-1.0,,"<div style=""display: flex; flex-direction: column; align-items: center; margin-top: -40px;""><img src=""images/pattern_7.png"" style=""width: 234px; height: 230px; margin-top: -50px;""><div style=""display: flex; justify-content: space-between; margin-top: 33px;""><img src=""images/choice_trial_15.png"" style=""width: 408px; height: 417px; margin-right: 608px;""></div></div>",,delaylearn,learning,display_response,oVF65tyxAgR3dg8sHMpEdi0wMim2,oVF65tyxAgR3dg8sHMpEdi0wMim2,,,,,,,,,,,,,,,,,chosen stimuli: images/choice_trial_15.png,,,,,613b94b83b5cb4c72904f8b3,16:51:29,27/03/2024
html-keyboard-response,150,299928,0.0-62.0-2.0,,,,delaylearn,learning,feedback_duration_window,oVF65tyxAgR3dg8sHMpEdi0wMim2,oVF65tyxAgR3dg8sHMpEdi0wMim2,,,,,,,,,,,,,,,,,,750.0,,,,613b94b83b5cb4c72904f8b3,16:51:29,27/03/2024
html-keyboard-response,151,301439,0.0-62.0-3.0,,<div style='margin:auto;width: auto; font-size: 150%'><span style='font-weight: bold; font-size: 100px; color: red;'>0 points!</span><br><br></div>,,delaylearn,learning,feedback_image_window,oVF65tyxAgR3dg8sHMpEdi0wMim2,oVF65tyxAgR3dg8sHMpEdi0wMim2,,,,,,,,,,,,,,,,,,,,,,613b94b83b5cb4c72904f8b3,16:51:29,27/03/2024
html-keyboard-response,152,301941,0.0-63.0-0.0,,,,,,mood_trial_fixation,oVF65tyxAgR3dg8sHMpEdi0wMim2,,,,,,,,,,,,,,,,,,,,,,,613b94b83b5cb4c72904f8b3,16:51:29,27/03/2024
lmdlab-html-vas-response,153,308216,0.0-63.0-1.0,5267.0,How happy are you right now?,0.473970651814552,delaylearn,learning,mood_trial,oVF65tyxAgR3dg8sHMpEdi0wMim2,oVF65tyxAgR3dg8sHMpEdi0wMim2,,,,,,,,,,,,,,,,,,,,"['Very unhappy', 'Very happy']",,613b94b83b5cb4c72904f8b3,16:51:29,27/03/2024
html-keyboard-response,154,310290,0.0-64.0,,"<div style=""font-size:100px;"">+</div>",,delaylearn,learning,ITI,oVF65tyxAgR3dg8sHMpEdi0wMim2,oVF65tyxAgR3dg8sHMpEdi0wMim2,,,,,,,,,,,,,,,,,,,2058.0,,,613b94b83b5cb4c72904f8b3,16:51:29,27/03/2024
html-keyboard-response,155,311281,0.0-65.0-0.0,987.6000000238419,"<div style=""display: flex; flex-direction: column; align-items: center; margin-top: -40px;""><img src=""images/pattern_1.png"" style=""width: 234px; height: 230px; margin-top: -50px;""><div style=""display: flex; justify-content: space-between; margin-top: 33px;""><img src=""images/choice_trial_3.png"" style=""width: 408px; height: 417px; margin-right: 200px;""><img src=""images/choice_trial_10.png"" style=""width: 408px; height: 417px;""></div></div>",f,delaylearn,learning,trial,oVF65tyxAgR3dg8sHMpEdi0wMim2,oVF65tyxAgR3dg8sHMpEdi0wMim2,2.0,images/choice_trial_3.png,images/choice_trial_10.png,images/pattern_1.png,f,f,7000.0,3.0,10.0,1.0,0.0,28.0,1.0,1.0,3.0,170.0,,,,,,613b94b83b5cb4c72904f8b3,16:51:29,27/03/2024
html-keyboard-response,156,312299,0.0-65.0-1.0,,"<div style=""display: flex; flex-direction: column; align-items: center; margin-top: -40px;""><img src=""images/pattern_1.png"" style=""width: 234px; height: 230px; margin-top: -50px;""><div style=""display: flex; justify-content: space-between; margin-top: 33px;""><img src=""images/choice_trial_3.png"" style=""width: 408px; height: 417px; margin-right: 608px;""></div></div>",,delaylearn,learning,display_response,oVF65tyxAgR3dg8sHMpEdi0wMim2,oVF65tyxAgR3dg8sHMpEdi0wMim2,,,,,,,,,,,,,,,,,chosen stimuli: images/choice_trial_3.png,,,,,613b94b83b5cb4c72904f8b3,16:51:29,27/03/2024
html-keyboard-response,157,319304,0.0-65.0-2.0,,,,delaylearn,learning,feedback_duration_window,oVF65tyxAgR3dg8sHMpEdi0wMim2,oVF65tyxAgR3dg8sHMpEdi0wMim2,,,,,,,,,,,,,,,,,,7000.0,,,,613b94b83b5cb4c72904f8b3,16:51:29,27/03/2024
html-keyboard-response,158,320811,0.0-65.0-3.0,,<div style='margin:auto;width: auto; font-size: 150%'><span style='font-weight: bold; font-size: 100px; color: green;'>+10 points!</span><br><br></div>,,delaylearn,learning,feedback_image_window,oVF65tyxAgR3dg8sHMpEdi0wMim2,oVF65tyxAgR3dg8sHMpEdi0wMim2,,,,,,,,,,,,,,,,,,,,,,613b94b83b5cb4c72904f8b3,16:51:29,27/03/2024
html-keyboard-response,159,322755,0.0-66.0,,"<div style=""font-size:100px;"">+</div>",,delaylearn,learning,ITI,oVF65tyxAgR3dg8sHMpEdi0wMim2,oVF65tyxAgR3dg8sHMpEdi0wMim2,,,,,,,,,,,,,,,,,,,1939.0,,,613b94b83b5cb4c72904f8b3,16:51:29,27/03/2024
html-keyboard-response,160,324120,0.0-67.0-0.0,1362.1999999284744,"<div style=""display: flex; flex-direction: column; align-items: center; margin-top: -40px;""><img src=""images/pattern_5.png"" style=""width: 234px; height: 230px; margin-top: -50px;""><div style=""display: flex; justify-content: space-between; margin-top: 33px;""><img src=""images/choice_trial_2.png"" style=""width: 408px; height: 417px; margin-right: 200px;""><img src=""images/choice_trial_9.png"" style=""width: 408px; height: 417px;""></div></div>",f,delaylearn,learning,trial,oVF65tyxAgR3dg8sHMpEdi0wMim2,oVF65tyxAgR3dg8sHMpEdi0wMim2,2.0,images/choice_trial_2.png,images/choice_trial_9.png,images/pattern_5.png,f,f,750.0,2.0,9.0,4.0,0.0,29.0,1.0,1.0,2.0,180.0,,,,,,613b94b83b5cb4c72904f8b3,16:51:29,27/03/2024
html-keyboard-response,161,325132,0.0-67.0-1.0,,"<div style=""display: flex; flex-direction: column; align-items: center; margin-top: -40px;""><img src=""images/pattern_5.png"" style=""width: 234px; height: 230px; margin-top: -50px;""><div style=""display: flex; justify-content: space-between; margin-top: 33px;""><img src=""images/choice_trial_2.png"" style=""width: 408px; height: 417px; margin-right: 608px;""></div></div>",,delaylearn,learning,display_response,oVF65tyxAgR3dg8sHMpEdi0wMim2,oVF65tyxAgR3dg8sHMpEdi0wMim2,,,,,,,,,,,,,,,,,chosen stimuli: images/choice_trial_2.png,,,,,613b94b83b5cb4c72904f8b3,16:51:29,27/03/2024
html-keyboard-response,162,325895,0.0-67.0-2.0,,,,delaylearn,learning,feedback_duration_window,oVF65tyxAgR3dg8sHMpEdi0wMim2,oVF65tyxAgR3dg8sHMpEdi0wMim2,,,,,,,,,,,,,,,,,,750.0,,,,613b94b83b5cb4c72904f8b3,16:51:29,27/03/2024
html-keyboard-response,163,327410,0.0-67.0-3.0,,<div style='margin:auto;width: auto; font-size: 150%'><span style='font-weight: bold; font-size: 100px; color: green;'>+10 points!</span><br><br></div>,,delaylearn,learning,feedback_image_window,oVF65tyxAgR3dg8sHMpEdi0wMim2,oVF65tyxAgR3dg8sHMpEdi0wMim2,,,,,,,,,,,,,,,,,,,,,,613b94b83b5cb4c72904f8b3,16:51:29,27/03/2024
html-keyboard-response,164,329853,0.0-68.0,,"<div style=""font-size:100px;"">+</div>",,delaylearn,learning,ITI,oVF65tyxAgR3dg8sHMpEdi0wMim2,oVF65tyxAgR3dg8sHMpEdi0wMim2,,,,,,,,,,,,,,,,,,,2425.0,,,613b94b83b5cb4c72904f8b3,16:51:29,27/03/2024
html-keyboard-response,165,331842,0.0-69.0-0.0,1985.5999999046326,"<div style=""display: flex; flex-direction: column; align-items: center; margin-top: -40px;""><img src=""images/pattern_6.png"" style=""width: 234px; height: 230px; margin-top: -50px;""><div style=""display: flex; justify-content: space-between; margin-top: 33px;""><img src=""images/choice_trial_5.png"" style=""width: 408px; height: 417px; margin-right: 200px;""><img src=""images/choice_trial_11.png"" style=""width: 408px; height: 417px;""></div></div>",j,delaylearn,learning,trial,oVF65tyxAgR3dg8sHMpEdi0wMim2,oVF65tyxAgR3dg8sHMpEdi0wMim2,2.0,images/choice_trial_5.png,images/choice_trial_11.png,images/pattern_6.png,j,j,750.0,5.0,11.0,5.0,1.0,30.0,1.0,1.0,11.0,190.0,,,,,,613b94b83b5cb4c72904f8b3,16:51:29,27/03/2024
html-keyboard-response,166,332848,0.0-69.0-1.0,,"<div style=""display: flex; flex-direction: column; align-items: center; margin-top: -40px;""><img src=""images/pattern_6.png"" style=""width: 234px; height: 230px; margin-top: -50px;""><div style=""display: flex; justify-content: space-between; margin-top: 33px;""><img src=""images/choice_trial_11.png"" style=""width: 408px; height: 417px; margin-left:608px;""></div></div>",,delaylearn,learning,display_response,oVF65tyxAgR3dg8sHMpEdi0wMim2,oVF65tyxAgR3dg8sHMpEdi0wMim2,,,,,,,,,,,,,,,,,chosen stimuli: images/choice_trial_11.png,,,,,613b94b83b5cb4c72904f8b3,16:51:29,27/03/2024
html-keyboard-response,167,333611,0.0-69.0-2.0,,,,delaylearn,learning,feedback_duration_window,oVF65tyxAgR3dg8sHMpEdi0wMim2,oVF65tyxAgR3dg8sHMpEdi0wMim2,,,,,,,,,,,,,,,,,,750.0,,,,613b94b83b5cb4c72904f8b3,16:51:29,27/03/2024
html-keyboard-response,168,335124,0.0-69.0-3.0,,<div style='margin:auto;width: auto; font-size: 150%'><span style='font-weight: bold; font-size: 100px; color: green;'>+10 points!</span><br><br></div>,,delaylearn,learning,feedback_image_window,oVF65tyxAgR3dg8sHMpEdi0wMim2,oVF65tyxAgR3dg8sHMpEdi0wMim2,,,,,,,,,,,,,,,,,,,,,,613b94b83b5cb4c72904f8b3,16:51:29,27/03/2024
html-keyboard-response,169,335630,0.0-70.0-0.0,,,,,,mood_trial_fixation,oVF65tyxAgR3dg8sHMpEdi0wMim2,,,,,,,,,,,,,,,,,,,,,,,613b94b83b5cb4c72904f8b3,16:51:29,27/03/2024
lmdlab-html-vas-response,170,340499,0.0-70.0-1.0,3863.0,How happy are you right now?,0.5114061188677805,delaylearn,learning,mood_trial,oVF65tyxAgR3dg8sHMpEdi0wMim2,oVF65tyxAgR3dg8sHMpEdi0wMim2,,,,,,,,,,,,,,,,,,,,"['Very unhappy', 'Very happy']",,613b94b83b5cb4c72904f8b3,16:51:29,27/03/2024
html-keyboard-response,171,342617,0.0-71.0,,"<div style=""font-size:100px;"">+</div>",,delaylearn,learning,ITI,oVF65tyxAgR3dg8sHMpEdi0wMim2,oVF65tyxAgR3dg8sHMpEdi0wMim2,,,,,,,,,,,,,,,,,,,2110.0,,,613b94b83b5cb4c72904f8b3,16:51:29,27/03/2024
html-keyboard-response,172,343650,0.0-72.0-0.0,1028.2000000476837,"<div style=""display: flex; flex-direction: column; align-items: center; margin-top: -40px;""><img src=""images/pattern_4.png"" style=""width: 234px; height: 230px; margin-top: -50px;""><div style=""display: flex; justify-content: space-between; margin-top: 33px;""><img src=""images/choice_trial_16.png"" style=""width: 408px; height: 417px; margin-right: 200px;""><img src=""images/choice_trial_4.png"" style=""width: 408px; height: 417px;""></div></div>",j,delaylearn,learning,trial,oVF65tyxAgR3dg8sHMpEdi0wMim2,oVF65tyxAgR3dg8sHMpEdi0wMim2,2.0,images/choice_trial_16.png,images/choice_trial_4.png,images/pattern_4.png,j,j,7000.0,16.0,4.0,3.0,1.0,31.0,1.0,1.0,4.0,200.0,,,,,,613b94b83b5cb4c72904f8b3,16:51:29,27/03/2024
html-keyboard-response,173,344659,0.0-72.0-1.0,,"<div style=""display: flex; flex-direction: column; align-items: center; margin-top: -40px;""><img src=""images/pattern_4.png"" style=""width: 234px; height: 230px; margin-top: -50px;""><div style=""display: flex; justify-content: space-between; margin-top: 33px;""><img src=""images/choice_trial_4.png"" style=""width: 408px; height: 417px; margin-left:608px;""></div></div>",,delaylearn,learning,display_response,oVF65tyxAgR3dg8sHMpEdi0wMim2,oVF65tyxAgR3dg8sHMpEdi0wMim2,,,,,,,,,,,,,,,,,chosen stimuli: images/choice_trial_4.png,,,,,613b94b83b5cb4c72904f8b3,16:51:29,27/03/2024
html-keyboard-response,174,351675,0.0-72.0-2.0,,,,delaylearn,learning,feedback_duration_window,oVF65tyxAgR3dg8sHMpEdi0wMim2,oVF65tyxAgR3dg8sHMpEdi0wMim2,,,,,,,,,,,,,,,,,,7000.0,,,,613b94b83b5cb4c72904f8b3,16:51:29,27/03/2024
html-keyboard-response,175,353184,0.0-72.0-3.0,,<div style='margin:auto;width: auto; font-size: 150%'><span style='font-weight: bold; font-size: 100px; color: green;'>+10 points!</span><br><br></div>,,delaylearn,learning,feedback_image_window,oVF65tyxAgR3dg8sHMpEdi0wMim2,oVF65tyxAgR3dg8sHMpEdi0wMim2,,,,,,,,,,,,,,,,,,,,,,613b94b83b5cb4c72904f8b3,16:51:29,27/03/2024
html-keyboard-response,176,354990,0.0-73.0,,"<div style=""font-size:100px;"">+</div>",,delaylearn,learning,ITI,oVF65tyxAgR3dg8sHMpEdi0wMim2,oVF65tyxAgR3dg8sHMpEdi0wMim2,,,,,,,,,,,,,,,,,,,1796.0,,,613b94b83b5cb4c72904f8b3,16:51:29,27/03/2024
html-keyboard-response,177,355893,0.0-74.0-0.0,898.5,"<div style=""display: flex; flex-direction: column; align-items: center; margin-top: -40px;""><img src=""images/pattern_3.png"" style=""width: 234px; height: 230px; margin-top: -50px;""><div style=""display: flex; justify-content: space-between; margin-top: 33px;""><img src=""images/choice_trial_14.png"" style=""width: 408px; height: 417px; margin-right: 200px;""><img src=""images/choice_trial_12.png"" style=""width: 408px; height: 417px;""></div></div>",f,delaylearn,learning,trial,oVF65tyxAgR3dg8sHMpEdi0wMim2,oVF65tyxAgR3dg8sHMpEdi0wMim2,2.0,images/choice_trial_14.png,images/choice_trial_12.png,images/pattern_3.png,j,j,7000.0,14.0,12.0,2.0,1.0,32.0,0.0,0.0,14.0,200.0,,,,,,613b94b83b5cb4c72904f8b3,16:51:29,27/03/2024
html-keyboard-response,178,356904,0.0-74.0-1.0,,"<div style=""display: flex; flex-direction: column; align-items: center; margin-top: -40px;""><img src=""images/pattern_3.png"" style=""width: 234px; height: 230px; margin-top: -50px;""><div style=""display: flex; justify-content: space-between; margin-top: 33px;""><img src=""images/choice_trial_14.png"" style=""width: 408px; height: 417px; margin-right: 608px;""></div></div>",,delaylearn,learning,display_response,oVF65tyxAgR3dg8sHMpEdi0wMim2,oVF65tyxAgR3dg8sHMpEdi0wMim2,,,,,,,,,,,,,,,,,chosen stimuli: images/choice_trial_14.png,,,,,613b94b83b5cb4c72904f8b3,16:51:29,27/03/2024
html-keyboard-response,179,363918,0.0-74.0-2.0,,,,delaylearn,learning,feedback_duration_window,oVF65tyxAgR3dg8sHMpEdi0wMim2,oVF65tyxAgR3dg8sHMpEdi0wMim2,,,,,,,,,,,,,,,,,,7000.0,,,,613b94b83b5cb4c72904f8b3,16:51:29,27/03/2024
html-keyboard-response,180,365434,0.0-74.0-3.0,,<div style='margin:auto;width: auto; font-size: 150%'><span style='font-weight: bold; font-size: 100px; color: red;'>0 points!</span><br><br></div>,,delaylearn,learning,feedback_image_window,oVF65tyxAgR3dg8sHMpEdi0wMim2,oVF65tyxAgR3dg8sHMpEdi0wMim2,,,,,,,,,,,,,,,,,,,,,,613b94b83b5cb4c72904f8b3,16:51:29,27/03/2024
html-keyboard-response,181,367047,0.0-75.0,,"<div style=""font-size:100px;"">+</div>",,delaylearn,learning,ITI,oVF65tyxAgR3dg8sHMpEdi0wMim2,oVF65tyxAgR3dg8sHMpEdi0wMim2,,,,,,,,,,,,,,,,,,,1610.0,,,613b94b83b5cb4c72904f8b3,16:51:29,27/03/2024
html-keyboard-response,182,368386,0.0-76.0-0.0,1334.9000000953674,"<div style=""display: flex; flex-direction: column; align-items: center; margin-top: -40px;""><img src=""images/pattern_5.png"" style=""width: 234px; height: 230px; margin-top: -50px;""><div style=""display: flex; justify-content: space-between; margin-top: 33px;""><img src=""images/choice_trial_2.png"" style=""width: 408px; height: 417px; margin-right: 200px;""><img src=""images/choice_trial_9.png"" style=""width: 408px; height: 417px;""></div></div>",f,delaylearn,learning,trial,oVF65tyxAgR3dg8sHMpEdi0wMim2,oVF65tyxAgR3dg8sHMpEdi0wMim2,2.0,images/choice_trial_2.png,images/choice_trial_9.png,images/pattern_5.png,j,f,750.0,2.0,9.0,4.0,0.0,33.0,1.0,0.0,2.0,200.0,,,,,,613b94b83b5cb4c72904f8b3,16:51:29,27/03/2024
html-keyboard-response,183,369393,0.0-76.0-1.0,,"<div style=""display: flex; flex-direction: column; align-items: center; margin-top: -40px;""><img src=""images/pattern_5.png"" style=""width: 234px; height: 230px; margin-top: -50px;""><div style=""display: flex; justify-content: space-between; margin-top: 33px;""><img src=""images/choice_trial_2.png"" style=""width: 408px; height: 417px; margin-right: 608px;""></div></div>",,delaylearn,learning,display_response,oVF65tyxAgR3dg8sHMpEdi0wMim2,oVF65tyxAgR3dg8sHMpEdi0wMim2,,,,,,,,,,,,,,,,,chosen stimuli: images/choice_trial_2.png,,,,,613b94b83b5cb4c72904f8b3,16:51:29,27/03/2024
html-keyboard-response,184,370149,0.0-76.0-2.0,,,,delaylearn,learning,feedback_duration_window,oVF65tyxAgR3dg8sHMpEdi0wMim2,oVF65tyxAgR3dg8sHMpEdi0wMim2,,,,,,,,,,,,,,,,,,750.0,,,,613b94b83b5cb4c72904f8b3,16:51:29,27/03/2024
html-keyboard-response,185,371667,0.0-76.0-3.0,,<div style='margin:auto;width: auto; font-size: 150%'><span style='font-weight: bold; font-size: 100px; color: red;'>0 points!</span><br><br></div>,,delaylearn,learning,feedback_image_window,oVF65tyxAgR3dg8sHMpEdi0wMim2,oVF65tyxAgR3dg8sHMpEdi0wMim2,,,,,,,,,,,,,,,,,,,,,,613b94b83b5cb4c72904f8b3,16:51:29,27/03/2024
html-keyboard-response,186,373992,0.0-77.0,,"<div style=""font-size:100px;"">+</div>",,delaylearn,learning,ITI,oVF65tyxAgR3dg8sHMpEdi0wMim2,oVF65tyxAgR3dg8sHMpEdi0wMim2,,,,,,,,,,,,,,,,,,,2317.0,,,613b94b83b5cb4c72904f8b3,16:51:29,27/03/2024
html-keyboard-response,187,375692,0.0-78.0-0.0,1696.2999999523163,"<div style=""display: flex; flex-direction: column; align-items: center; margin-top: -40px;""><img src=""images/pattern_1.png"" style=""width: 234px; height: 230px; margin-top: -50px;""><div style=""display: flex; justify-content: space-between; margin-top: 33px;""><img src=""images/choice_trial_3.png"" style=""width: 408px; height: 417px; margin-right: 200px;""><img src=""images/choice_trial_10.png"" style=""width: 408px; height: 417px;""></div></div>",f,delaylearn,learning,trial,oVF65tyxAgR3dg8sHMpEdi0wMim2,oVF65tyxAgR3dg8sHMpEdi0wMim2,2.0,images/choice_trial_3.png,images/choice_trial_10.png,images/pattern_1.png,f,f,7000.0,3.0,10.0,1.0,0.0,34.0,1.0,1.0,3.0,210.0,,,,,,613b94b83b5cb4c72904f8b3,16:51:29,27/03/2024
html-keyboard-response,188,376700,0.0-78.0-1.0,,"<div style=""display: flex; flex-direction: column; align-items: center; margin-top: -40px;""><img src=""images/pattern_1.png"" style=""width: 234px; height: 230px; margin-top: -50px;""><div style=""display: flex; justify-content: space-between; margin-top: 33px;""><img src=""images/choice_trial_3.png"" style=""width: 408px; height: 417px; margin-right: 608px;""></div></div>",,delaylearn,learning,display_response,oVF65tyxAgR3dg8sHMpEdi0wMim2,oVF65tyxAgR3dg8sHMpEdi0wMim2,,,,,,,,,,,,,,,,,chosen stimuli: images/choice_trial_3.png,,,,,613b94b83b5cb4c72904f8b3,16:51:29,27/03/2024
html-keyboard-response,189,383714,0.0-78.0-2.0,,,,delaylearn,learning,feedback_duration_window,oVF65tyxAgR3dg8sHMpEdi0wMim2,oVF65tyxAgR3dg8sHMpEdi0wMim2,,,,,,,,,,,,,,,,,,7000.0,,,,613b94b83b5cb4c72904f8b3,16:51:29,27/03/2024
html-keyboard-response,190,385222,0.0-78.0-3.0,,<div style='margin:auto;width: auto; font-size: 150%'><span style='font-weight: bold; font-size: 100px; color: green;'>+10 points!</span><br><br></div>,,delaylearn,learning,feedback_image_window,oVF65tyxAgR3dg8sHMpEdi0wMim2,oVF65tyxAgR3dg8sHMpEdi0wMim2,,,,,,,,,,,,,,,,,,,,,,613b94b83b5cb4c72904f8b3,16:51:29,27/03/2024
html-keyboard-response,191,385734,0.0-79.0-0.0,,,,,,mood_trial_fixation,oVF65tyxAgR3dg8sHMpEdi0wMim2,,,,,,,,,,,,,,,,,,,,,,,613b94b83b5cb4c72904f8b3,16:51:29,27/03/2024
lmdlab-html-vas-response,192,390806,0.0-79.0-1.0,4056.0,How happy are you right now?,0.4983850868492663,delaylearn,learning,mood_trial,oVF65tyxAgR3dg8sHMpEdi0wMim2,oVF65tyxAgR3dg8sHMpEdi0wMim2,,,,,,,,,,,,,,,,,,,,"['Very unhappy', 'Very happy']",,613b94b83b5cb4c72904f8b3,16:51:29,27/03/2024
html-keyboard-response,193,392638,0.0-80.0,,"<div style=""font-size:100px;"">+</div>",,delaylearn,learning,ITI,oVF65tyxAgR3dg8sHMpEdi0wMim2,oVF65tyxAgR3dg8sHMpEdi0wMim2,,,,,,,,,,,,,,,,,,,1815.0,,,613b94b83b5cb4c72904f8b3,16:51:29,27/03/2024
html-keyboard-response,194,394796,0.0-81.0-0.0,2154.600000023842,"<div style=""display: flex; flex-direction: column; align-items: center; margin-top: -40px;""><img src=""images/pattern_6.png"" style=""width: 234px; height: 230px; margin-top: -50px;""><div style=""display: flex; justify-content: space-between; margin-top: 33px;""><img src=""images/choice_trial_11.png"" style=""width: 408px; height: 417px; margin-right: 200px;""><img src=""images/choice_trial_5.png"" style=""width: 408px; height: 417px;""></div></div>",j,delaylearn,learning,trial,oVF65tyxAgR3dg8sHMpEdi0wMim2,oVF65tyxAgR3dg8sHMpEdi0wMim2,2.0,images/choice_trial_11.png,images/choice_trial_5.png,images/pattern_6.png,j,f,750.0,11.0,5.0,5.0,0.0,35.0,0.0,1.0,5.0,220.0,,,,,,613b94b83b5cb4c72904f8b3,16:51:29,27/03/2024
html-keyboard-response,195,395810,0.0-81.0-1.0,,"<div style=""display: flex; flex-direction: column; align-items: center; margin-top: -40px;""><img src=""images/pattern_6.png"" style=""width: 234px; height: 230px; margin-top: -50px;""><div style=""display: flex; justify-content: space-between; margin-top: 33px;""><img src=""images/choice_trial_5.png"" style=""width: 408px; height: 417px; margin-left:608px;""></div></div>",,delaylearn,learning,display_response,oVF65tyxAgR3dg8sHMpEdi0wMim2,oVF65tyxAgR3dg8sHMpEdi0wMim2,,,,,,,,,,,,,,,,,chosen stimuli: images/choice_trial_5.png,,,,,613b94b83b5cb4c72904f8b3,16:51:29,27/03/2024
html-keyboard-response,196,396563,0.0-81.0-2.0,,,,delaylearn,learning,feedback_duration_window,oVF65tyxAgR3dg8sHMpEdi0wMim2,oVF65tyxAgR3dg8sHMpEdi0wMim2,,,,,,,,,,,,,,,,,,750.0,,,,613b94b83b5cb4c72904f8b3,16:51:29,27/03/2024
html-keyboard-response,197,398067,0.0-81.0-3.0,,<div style='margin:auto;width: auto; font-size: 150%'><span style='font-weight: bold; font-size: 100px; color: green;'>+10 points!</span><br><br></div>,,delaylearn,learning,feedback_image_window,oVF65tyxAgR3dg8sHMpEdi0wMim2,oVF65tyxAgR3dg8sHMpEdi0wMim2,,,,,,,,,,,,,,,,,,,,,,613b94b83b5cb4c72904f8b3,16:51:29,27/03/2024
html-keyboard-response,198,400395,0.0-82.0,,"<div style=""font-size:100px;"">+</div>",,delaylearn,learning,ITI,oVF65tyxAgR3dg8sHMpEdi0wMim2,oVF65tyxAgR3dg8sHMpEdi0wMim2,,,,,,,,,,,,,,,,,,,2319.0,,,613b94b83b5cb4c72904f8b3,16:51:29,27/03/2024
html-keyboard-response,199,402697,0.0-83.0-0.0,2298.7000000476837,"<div style=""display: flex; flex-direction: column; align-items: center; margin-top: -40px;""><img src=""images/pattern_3.png"" style=""width: 234px; height: 230px; margin-top: -50px;""><div style=""display: flex; justify-content: space-between; margin-top: 33px;""><img src=""images/choice_trial_14.png"" style=""width: 408px; height: 417px; margin-right: 200px;""><img src=""images/choice_trial_12.png"" style=""width: 408px; height: 417px;""></div></div>",f,delaylearn,learning,trial,oVF65tyxAgR3dg8sHMpEdi0wMim2,oVF65tyxAgR3dg8sHMpEdi0wMim2,2.0,images/choice_trial_14.png,images/choice_trial_12.png,images/pattern_3.png,j,j,7000.0,14.0,12.0,2.0,1.0,36.0,0.0,0.0,14.0,220.0,,,,,,613b94b83b5cb4c72904f8b3,16:51:29,27/03/2024
html-keyboard-response,200,403716,0.0-83.0-1.0,,"<div style=""display: flex; flex-direction: column; align-items: center; margin-top: -40px;""><img src=""images/pattern_3.png"" style=""width: 234px; height: 230px; margin-top: -50px;""><div style=""display: flex; justify-content: space-between; margin-top: 33px;""><img src=""images/choice_trial_14.png"" style=""width: 408px; height: 417px; margin-right: 608px;""></div></div>",,delaylearn,learning,display_response,oVF65tyxAgR3dg8sHMpEdi0wMim2,oVF65tyxAgR3dg8sHMpEdi0wMim2,,,,,,,,,,,,,,,,,chosen stimuli: images/choice_trial_14.png,,,,,613b94b83b5cb4c72904f8b3,16:51:29,27/03/2024
html-keyboard-response,201,410724,0.0-83.0-2.0,,,,delaylearn,learning,feedback_duration_window,oVF65tyxAgR3dg8sHMpEdi0wMim2,oVF65tyxAgR3dg8sHMpEdi0wMim2,,,,,,,,,,,,,,,,,,7000.0,,,,613b94b83b5cb4c72904f8b3,16:51:29,27/03/2024
html-keyboard-response,202,412227,0.0-83.0-3.0,,<div style='margin:auto;width: auto; font-size: 150%'><span style='font-weight: bold; font-size: 100px; color: red;'>0 points!</span><br><br></div>,,delaylearn,learning,feedback_image_window,oVF65tyxAgR3dg8sHMpEdi0wMim2,oVF65tyxAgR3dg8sHMpEdi0wMim2,,,,,,,,,,,,,,,,,,,,,,613b94b83b5cb4c72904f8b3,16:51:29,27/03/2024
html-keyboard-response,203,414498,0.0-84.0,,"<div style=""font-size:100px;"">+</div>",,delaylearn,learning,ITI,oVF65tyxAgR3dg8sHMpEdi0wMim2,oVF65tyxAgR3dg8sHMpEdi0wMim2,,,,,,,,,,,,,,,,,,,2266.0,,,613b94b83b5cb4c72904f8b3,16:51:29,27/03/2024
html-keyboard-response,204,416100,0.0-85.0-0.0,1598.1999999284744,"<div style=""display: flex; flex-direction: column; align-items: center; margin-top: -40px;""><img src=""images/pattern_4.png"" style=""width: 234px; height: 230px; margin-top: -50px;""><div style=""display: flex; justify-content: space-between; margin-top: 33px;""><img src=""images/choice_trial_16.png"" style=""width: 408px; height: 417px; margin-right: 200px;""><img src=""images/choice_trial_4.png"" style=""width: 408px; height: 417px;""></div></div>",j,delaylearn,learning,trial,oVF65tyxAgR3dg8sHMpEdi0wMim2,oVF65tyxAgR3dg8sHMpEdi0wMim2,2.0,images/choice_trial_16.png,images/choice_trial_4.png,images/pattern_4.png,f,j,7000.0,16.0,4.0,3.0,1.0,37.0,1.0,0.0,4.0,220.0,,,,,,613b94b83b5cb4c72904f8b3,16:51:29,27/03/2024
html-keyboard-response,205,417104,0.0-85.0-1.0,,"<div style=""display: flex; flex-direction: column; align-items: center; margin-top: -40px;""><img src=""images/pattern_4.png"" style=""width: 234px; height: 230px; margin-top: -50px;""><div style=""display: flex; justify-content: space-between; margin-top: 33px;""><img src=""images/choice_trial_4.png"" style=""width: 408px; height: 417px; margin-left:608px;""></div></div>",,delaylearn,learning,display_response,oVF65tyxAgR3dg8sHMpEdi0wMim2,oVF65tyxAgR3dg8sHMpEdi0wMim2,,,,,,,,,,,,,,,,,chosen stimuli: images/choice_trial_4.png,,,,,613b94b83b5cb4c72904f8b3,16:51:29,27/03/2024
html-keyboard-response,206,424110,0.0-85.0-2.0,,,,delaylearn,learning,feedback_duration_window,oVF65tyxAgR3dg8sHMpEdi0wMim2,oVF65tyxAgR3dg8sHMpEdi0wMim2,,,,,,,,,,,,,,,,,,7000.0,,,,613b94b83b5cb4c72904f8b3,16:51:29,27/03/2024
html-keyboard-response,207,425627,0.0-85.0-3.0,,<div style='margin:auto;width: auto; font-size: 150%'><span style='font-weight: bold; font-size: 100px; color: red;'>0 points!</span><br><br></div>,,delaylearn,learning,feedback_image_window,oVF65tyxAgR3dg8sHMpEdi0wMim2,oVF65tyxAgR3dg8sHMpEdi0wMim2,,,,,,,,,,,,,,,,,,,,,,613b94b83b5cb4c72904f8b3,16:51:29,27/03/2024
html-keyboard-response,208,427217,0.0-86.0,,"<div style=""font-size:100px;"">+</div>",,delaylearn,learning,ITI,oVF65tyxAgR3dg8sHMpEdi0wMim2,oVF65tyxAgR3dg8sHMpEdi0wMim2,,,,,,,,,,,,,,,,,,,1584.0,,,613b94b83b5cb4c72904f8b3,16:51:29,27/03/2024
html-keyboard-response,209,430151,0.0-87.0-0.0,2930.7999999523163,"<div style=""display: flex; flex-direction: column; align-items: center; margin-top: -40px;""><img src=""images/pattern_7.png"" style=""width: 234px; height: 230px; margin-top: -50px;""><div style=""display: flex; justify-content: space-between; margin-top: 33px;""><img src=""images/choice_trial_8.png"" style=""width: 408px; height: 417px; margin-right: 200px;""><img src=""images/choice_trial_15.png"" style=""width: 408px; height: 417px;""></div></div>",f,delaylearn,learning,trial,oVF65tyxAgR3dg8sHMpEdi0wMim2,oVF65tyxAgR3dg8sHMpEdi0wMim2,2.0,images/choice_trial_8.png,images/choice_trial_15.png,images/pattern_7.png,f,f,750.0,8.0,15.0,6.0,0.0,38.0,1.0,1.0,8.0,230.0,,,,,,613b94b83b5cb4c72904f8b3,16:51:29,27/03/2024
html-keyboard-response,210,431159,0.0-87.0-1.0,,"<div style=""display: flex; flex-direction: column; align-items: center; margin-top: -40px;""><img src=""images/pattern_7.png"" style=""width: 234px; height: 230px; margin-top: -50px;""><div style=""display: flex; justify-content: space-between; margin-top: 33px;""><img src=""images/choice_trial_8.png"" style=""width: 408px; height: 417px; margin-right: 608px;""></div></div>",,delaylearn,learning,display_response,oVF65tyxAgR3dg8sHMpEdi0wMim2,oVF65tyxAgR3dg8sHMpEdi0wMim2,,,,,,,,,,,,,,,,,chosen stimuli: images/choice_trial_8.png,,,,,613b94b83b5cb4c72904f8b3,16:51:29,27/03/2024
html-keyboard-response,211,431911,0.0-87.0-2.0,,,,delaylearn,learning,feedback_duration_window,oVF65tyxAgR3dg8sHMpEdi0wMim2,oVF65tyxAgR3dg8sHMpEdi0wMim2,,,,,,,,,,,,,,,,,,750.0,,,,613b94b83b5cb4c72904f8b3,16:51:29,27/03/2024
html-keyboard-response,212,433419,0.0-87.0-3.0,,<div style='margin:auto;width: auto; font-size: 150%'><span style='font-weight: bold; font-size: 100px; color: green;'>+10 points!</span><br><br></div>,,delaylearn,learning,feedback_image_window,oVF65tyxAgR3dg8sHMpEdi0wMim2,oVF65tyxAgR3dg8sHMpEdi0wMim2,,,,,,,,,,,,,,,,,,,,,,613b94b83b5cb4c72904f8b3,16:51:29,27/03/2024
html-keyboard-response,213,435156,0.0-88.0,,"<div style=""font-size:100px;"">+</div>",,delaylearn,learning,ITI,oVF65tyxAgR3dg8sHMpEdi0wMim2,oVF65tyxAgR3dg8sHMpEdi0wMim2,,,,,,,,,,,,,,,,,,,1727.0,,,613b94b83b5cb4c72904f8b3,16:51:29,27/03/2024
html-keyboard-response,214,437216,0.0-89.0-0.0,2055.899999976158,"<div style=""display: flex; flex-direction: column; align-items: center; margin-top: -40px;""><img src=""images/pattern_1.png"" style=""width: 234px; height: 230px; margin-top: -50px;""><div style=""display: flex; justify-content: space-between; margin-top: 33px;""><img src=""images/choice_trial_3.png"" style=""width: 408px; height: 417px; margin-right: 200px;""><img src=""images/choice_trial_10.png"" style=""width: 408px; height: 417px;""></div></div>",f,delaylearn,learning,trial,oVF65tyxAgR3dg8sHMpEdi0wMim2,oVF65tyxAgR3dg8sHMpEdi0wMim2,2.0,images/choice_trial_3.png,images/choice_trial_10.png,images/pattern_1.png,f,f,7000.0,3.0,10.0,1.0,0.0,39.0,1.0,1.0,3.0,240.0,,,,,,613b94b83b5cb4c72904f8b3,16:51:29,27/03/2024
html-keyboard-response,215,438221,0.0-89.0-1.0,,"<div style=""display: flex; flex-direction: column; align-items: center; margin-top: -40px;""><img src=""images/pattern_1.png"" style=""width: 234px; height: 230px; margin-top: -50px;""><div style=""display: flex; justify-content: space-between; margin-top: 33px;""><img src=""images/choice_trial_3.png"" style=""width: 408px; height: 417px; margin-right: 608px;""></div></div>",,delaylearn,learning,display_response,oVF65tyxAgR3dg8sHMpEdi0wMim2,oVF65tyxAgR3dg8sHMpEdi0wMim2,,,,,,,,,,,,,,,,,chosen stimuli: images/choice_trial_3.png,,,,,613b94b83b5cb4c72904f8b3,16:51:29,27/03/2024
html-keyboard-response,216,445224,0.0-89.0-2.0,,,,delaylearn,learning,feedback_duration_window,oVF65tyxAgR3dg8sHMpEdi0wMim2,oVF65tyxAgR3dg8sHMpEdi0wMim2,,,,,,,,,,,,,,,,,,7000.0,,,,613b94b83b5cb4c72904f8b3,16:51:29,27/03/2024
html-keyboard-response,217,446738,0.0-89.0-3.0,,<div style='margin:auto;width: auto; font-size: 150%'><span style='font-weight: bold; font-size: 100px; color: green;'>+10 points!</span><br><br></div>,,delaylearn,learning,feedback_image_window,oVF65tyxAgR3dg8sHMpEdi0wMim2,oVF65tyxAgR3dg8sHMpEdi0wMim2,,,,,,,,,,,,,,,,,,,,,,613b94b83b5cb4c72904f8b3,16:51:29,27/03/2024
html-keyboard-response,218,447255,0.0-90.0-0.0,,,,,,mood_trial_fixation,oVF65tyxAgR3dg8sHMpEdi0wMim2,,,,,,,,,,,,,,,,,,,,,,,613b94b83b5cb4c72904f8b3,16:51:29,27/03/2024
lmdlab-html-vas-response,219,451585,0.0-90.0-1.0,3309.0,How happy are you right now?,0.5146613768724091,delaylearn,learning,mood_trial,oVF65tyxAgR3dg8sHMpEdi0wMim2,oVF65tyxAgR3dg8sHMpEdi0wMim2,,,,,,,,,,,,,,,,,,,,"['Very unhappy', 'Very happy']",,613b94b83b5cb4c72904f8b3,16:51:29,27/03/2024
html-keyboard-response,220,453647,0.0-91.0,,"<div style=""font-size:100px;"">+</div>",,delaylearn,learning,ITI,oVF65tyxAgR3dg8sHMpEdi0wMim2,oVF65tyxAgR3dg8sHMpEdi0wMim2,,,,,,,,,,,,,,,,,,,2047.0,,,613b94b83b5cb4c72904f8b3,16:51:29,27/03/2024
html-keyboard-response,221,456658,0.0-92.0-0.0,,"<div style=""display: flex; flex-direction: column; align-items: center; margin-top: -40px;""><img src=""images/pattern_3.png"" style=""width: 234px; height: 230px; margin-top: -50px;""><div style=""display: flex; justify-content: space-between; margin-top: 33px;""><img src=""images/choice_trial_12.png"" style=""width: 408px; height: 417px; margin-right: 200px;""><img src=""images/choice_trial_14.png"" style=""width: 408px; height: 417px;""></div></div>",,delaylearn,learning,trial,oVF65tyxAgR3dg8sHMpEdi0wMim2,oVF65tyxAgR3dg8sHMpEdi0wMim2,2.0,images/choice_trial_12.png,images/choice_trial_14.png,images/pattern_3.png,j,f,7000.0,12.0,14.0,2.0,0.0,40.0,0.0,0.0,0.0,240.0,,,,,,613b94b83b5cb4c72904f8b3,16:51:29,27/03/2024
html-keyboard-response,222,457666,0.0-92.0-1.0,,<div style='font-weight: bold; font-size: 75px; color: red;'>Missed Trial <br><br><br><br> Please respond faster</div>,,delaylearn,learning,display_response,oVF65tyxAgR3dg8sHMpEdi0wMim2,oVF65tyxAgR3dg8sHMpEdi0wMim2,,,,,,,,,,,,,,,,,Missed trial,,,,,613b94b83b5cb4c72904f8b3,16:51:29,27/03/2024
html-keyboard-response,223,457674,0.0-92.0-2.0,,,,delaylearn,learning,feedback_duration_window,oVF65tyxAgR3dg8sHMpEdi0wMim2,oVF65tyxAgR3dg8sHMpEdi0wMim2,,,,,,,,,,,,,,,,,,0.0,,,,613b94b83b5cb4c72904f8b3,16:51:29,27/03/2024
html-keyboard-response,224,457682,0.0-92.0-3.0,,,,delaylearn,learning,feedback_image_window,oVF65tyxAgR3dg8sHMpEdi0wMim2,oVF65tyxAgR3dg8sHMpEdi0wMim2,,,,,,,,,,,,,,,,,,,,,,613b94b83b5cb4c72904f8b3,16:51:29,27/03/2024
html-keyboard-response,225,459365,0.0-93.0,,"<div style=""font-size:100px;"">+</div>",,delaylearn,learning,ITI,oVF65tyxAgR3dg8sHMpEdi0wMim2,oVF65tyxAgR3dg8sHMpEdi0wMim2,,,,,,,,,,,,,,,,,,,1668.0,,,613b94b83b5cb4c72904f8b3,16:51:29,27/03/2024
html-keyboard-response,226,460907,0.0-94.0-0.0,1538.8000000715256,"<div style=""display: flex; flex-direction: column; align-items: center; margin-top: -40px;""><img src=""images/pattern_7.png"" style=""width: 234px; height: 230px; margin-top: -50px;""><div style=""display: flex; justify-content: space-between; margin-top: 33px;""><img src=""images/choice_trial_15.png"" style=""width: 408px; height: 417px; margin-right: 200px;""><img src=""images/choice_trial_8.png"" style=""width: 408px; height: 417px;""></div></div>",f,delaylearn,learning,trial,oVF65tyxAgR3dg8sHMpEdi0wMim2,oVF65tyxAgR3dg8sHMpEdi0wMim2,2.0,images/choice_trial_15.png,images/choice_trial_8.png,images/pattern_7.png,j,j,750.0,15.0,8.0,6.0,1.0,41.0,0.0,0.0,15.0,240.0,,,,,,613b94b83b5cb4c72904f8b3,16:51:29,27/03/2024
html-keyboard-response,227,461922,0.0-94.0-1.0,,"<div style=""display: flex; flex-direction: column; align-items: center; margin-top: -40px;""><img src=""images/pattern_7.png"" style=""width: 234px; height: 230px; margin-top: -50px;""><div style=""display: flex; justify-content: space-between; margin-top: 33px;""><img src=""images/choice_trial_15.png"" style=""width: 408px; height: 417px; margin-right: 608px;""></div></div>",,delaylearn,learning,display_response,oVF65tyxAgR3dg8sHMpEdi0wMim2,oVF65tyxAgR3dg8sHMpEdi0wMim2,,,,,,,,,,,,,,,,,chosen stimuli: images/choice_trial_15.png,,,,,613b94b83b5cb4c72904f8b3,16:51:29,27/03/2024
html-keyboard-response,228,462677,0.0-94.0-2.0,,,,delaylearn,learning,feedback_duration_window,oVF65tyxAgR3dg8sHMpEdi0wMim2,oVF65tyxAgR3dg8sHMpEdi0wMim2,,,,,,,,,,,,,,,,,,750.0,,,,613b94b83b5cb4c72904f8b3,16:51:29,27/03/2024
html-keyboard-response,229,464185,0.0-94.0-3.0,,<div style='margin:auto;width: auto; font-size: 150%'><span style='font-weight: bold; font-size: 100px; color: red;'>0 points!</span><br><br></div>,,delaylearn,learning,feedback_image_window,oVF65tyxAgR3dg8sHMpEdi0wMim2,oVF65tyxAgR3dg8sHMpEdi0wMim2,,,,,,,,,,,,,,,,,,,,,,613b94b83b5cb4c72904f8b3,16:51:29,27/03/2024
html-keyboard-response,230,466050,0.0-95.0,,"<div style=""font-size:100px;"">+</div>",,delaylearn,learning,ITI,oVF65tyxAgR3dg8sHMpEdi0wMim2,oVF65tyxAgR3dg8sHMpEdi0wMim2,,,,,,,,,,,,,,,,,,,1850.0,,,613b94b83b5cb4c72904f8b3,16:51:29,27/03/2024
html-keyboard-response,231,467624,0.0-96.0-0.0,1569.3000000715256,"<div style=""display: flex; flex-direction: column; align-items: center; margin-top: -40px;""><img src=""images/pattern_5.png"" style=""width: 234px; height: 230px; margin-top: -50px;""><div style=""display: flex; justify-content: space-between; margin-top: 33px;""><img src=""images/choice_trial_9.png"" style=""width: 408px; height: 417px; margin-right: 200px;""><img src=""images/choice_trial_2.png"" style=""width: 408px; height: 417px;""></div></div>",j,delaylearn,learning,trial,oVF65tyxAgR3dg8sHMpEdi0wMim2,oVF65tyxAgR3dg8sHMpEdi0wMim2,2.0,images/choice_trial_9.png,images/choice_trial_2.png,images/pattern_5.png,j,j,750.0,9.0,2.0,4.0,1.0,42.0,1.0,1.0,2.0,250.0,,,,,,613b94b83b5cb4c72904f8b3,16:51:29,27/03/2024
