trial_type,trial_index,time_elapsed,internal_node_id,rt,stimulus,response,exp_name,exp_stage,test_part,subjectID,databaseID,counterbal,choice_stimuli_1,choice_stimuli_2,pattern_stimuli,rewarded_answer,correct_answer,feedback_duration_times,stim_left,stim_right,pair,leftright_counter,trial,response_correct,response_rewarded,chosen_stim,counter,displayed_choice,feedback_durations,ITI_duration,labels,rest_warning,prolificID,start_time,date
pavlovia,0,526,0.0-0.0,,,,,,,SlTMZmnszpYKXBZ7JiXs1kTizko2,,,,,,,,,,,,,,,,,,,,,,,5c3d48955fd1050001a99364,17:05:24,27/03/2024
html-keyboard-response,1,3539,0.0-1.0,,"<div style=""font-size:100px;"">+</div>",,delaylearn,learning,pre_fixation,SlTMZmnszpYKXBZ7JiXs1kTizko2,,,,,,,,,,,,,,,,,,,,,,,5c3d48955fd1050001a99364,17:05:24,27/03/2024
html-keyboard-response,2,4902,0.0-2.0-0.0,1360.5,"<div style=""display: flex; flex-direction: column; align-items: center; margin-top: -40px;""><img src=""images/demo_images/pattern_1.png"" style=""width: 234px; height: 230px; margin-top: -50px;""><div style=""display: flex; justify-content: space-between; margin-top: 33px;""><img src=""images/demo_images/choice_trial_2.png"" style=""width: 408px; height: 417px; margin-right: 200px;""><img src=""images/demo_images/choice_trial_1.png"" style=""width: 408px; height: 417px;""></div></div>",f,delaylearn,learning,trial,SlTMZmnszpYKXBZ7JiXs1kTizko2,SlTMZmnszpYKXBZ7JiXs1kTizko2,3.0,images/demo_images/choice_trial_2.png,images/demo_images/choice_trial_1.png,images/demo_images/pattern_1.png,j,j,3000.0,2.0,1.0,20.0,1.0,1.0,0.0,0.0,2.0,0.0,,,,,,5c3d48955fd1050001a99364,17:05:24,27/03/2024
html-keyboard-response,3,5907,0.0-2.0-1.0,,"<div style=""display: flex; flex-direction: column; align-items: center; margin-top: -40px;""><img src=""images/demo_images/pattern_1.png"" style=""width: 234px; height: 230px; margin-top: -50px;""><div style=""display: flex; justify-content: space-between; margin-top: 33px;""><img src=""images/demo_images/choice_trial_2.png"" style=""width: 408px; height: 417px; margin-right: 608px;""></div></div>",,delaylearn,learning,display_response,SlTMZmnszpYKXBZ7JiXs1kTizko2,SlTMZmnszpYKXBZ7JiXs1kTizko2,,,,,,,,,,,,,,,,,chosen stimuli: images/demo_images/choice_trial_2.png,,,,,5c3d48955fd1050001a99364,17:05:24,27/03/2024
html-keyboard-response,4,8922,0.0-2.0-2.0,,,,delaylearn,learning,feedback_duration_window,SlTMZmnszpYKXBZ7JiXs1kTizko2,SlTMZmnszpYKXBZ7JiXs1kTizko2,,,,,,,,,,,,,,,,,,3000.0,,,,5c3d48955fd1050001a99364,17:05:24,27/03/2024
html-keyboard-response,5,10438,0.0-2.0-3.0,,<div style='margin:auto;width: auto; font-size: 150%'><span style='font-weight: bold; font-size: 100px; color: red;'>0 points!</span><br><br></div>,,delaylearn,learning,feedback_image_window,SlTMZmnszpYKXBZ7JiXs1kTizko2,SlTMZmnszpYKXBZ7JiXs1kTizko2,,,,,,,,,,,,,,,,,,,,,,5c3d48955fd1050001a99364,17:05:24,27/03/2024
html-keyboard-response,6,11970,0.0-3.0,,"<div style=""font-size:100px;"">+</div>",,delaylearn,learning,ITI,SlTMZmnszpYKXBZ7JiXs1kTizko2,SlTMZmnszpYKXBZ7JiXs1kTizko2,,,,,,,,,,,,,,,,,,,1523.0,,,5c3d48955fd1050001a99364,17:05:24,27/03/2024
html-keyboard-response,7,13214,0.0-4.0-0.0,1241.9000000953674,"<div style=""display: flex; flex-direction: column; align-items: center; margin-top: -40px;""><img src=""images/demo_images/pattern_1.png"" style=""width: 234px; height: 230px; margin-top: -50px;""><div style=""display: flex; justify-content: space-between; margin-top: 33px;""><img src=""images/demo_images/choice_trial_2.png"" style=""width: 408px; height: 417px; margin-right: 200px;""><img src=""images/demo_images/choice_trial_1.png"" style=""width: 408px; height: 417px;""></div></div>",j,delaylearn,learning,trial,SlTMZmnszpYKXBZ7JiXs1kTizko2,SlTMZmnszpYKXBZ7JiXs1kTizko2,3.0,images/demo_images/choice_trial_2.png,images/demo_images/choice_trial_1.png,images/demo_images/pattern_1.png,j,j,3000.0,2.0,1.0,20.0,1.0,2.0,1.0,1.0,1.0,10.0,,,,,,5c3d48955fd1050001a99364,17:05:24,27/03/2024
html-keyboard-response,8,14220,0.0-4.0-1.0,,"<div style=""display: flex; flex-direction: column; align-items: center; margin-top: -40px;""><img src=""images/demo_images/pattern_1.png"" style=""width: 234px; height: 230px; margin-top: -50px;""><div style=""display: flex; justify-content: space-between; margin-top: 33px;""><img src=""images/demo_images/choice_trial_1.png"" style=""width: 408px; height: 417px; margin-left:608px;""></div></div>",,delaylearn,learning,display_response,SlTMZmnszpYKXBZ7JiXs1kTizko2,SlTMZmnszpYKXBZ7JiXs1kTizko2,,,,,,,,,,,,,,,,,chosen stimuli: images/demo_images/choice_trial_1.png,,,,,5c3d48955fd1050001a99364,17:05:24,27/03/2024
html-keyboard-response,9,17222,0.0-4.0-2.0,,,,delaylearn,learning,feedback_duration_window,SlTMZmnszpYKXBZ7JiXs1kTizko2,SlTMZmnszpYKXBZ7JiXs1kTizko2,,,,,,,,,,,,,,,,,,3000.0,,,,5c3d48955fd1050001a99364,17:05:24,27/03/2024
html-keyboard-response,10,18737,0.0-4.0-3.0,,<div style='margin:auto;width: auto; font-size: 150%'><span style='font-weight: bold; font-size: 100px; color: green;'>+10 points!</span><br><br></div>,,delaylearn,learning,feedback_image_window,SlTMZmnszpYKXBZ7JiXs1kTizko2,SlTMZmnszpYKXBZ7JiXs1kTizko2,,,,,,,,,,,,,,,,,,,,,,5c3d48955fd1050001a99364,17:05:24,27/03/2024
html-keyboard-response,11,21020,0.0-5.0,,"<div style=""font-size:100px;"">+</div>",,delaylearn,learning,ITI,SlTMZmnszpYKXBZ7JiXs1kTizko2,SlTMZmnszpYKXBZ7JiXs1kTizko2,,,,,,,,,,,,,,,,,,,2273.0,,,5c3d48955fd1050001a99364,17:05:24,27/03/2024
html-keyboard-response,12,23235,0.0-6.0-0.0,2213.5,"<div style=""display: flex; flex-direction: column; align-items: center; margin-top: -40px;""><img src=""images/demo_images/pattern_1.png"" style=""width: 234px; height: 230px; margin-top: -50px;""><div style=""display: flex; justify-content: space-between; margin-top: 33px;""><img src=""images/demo_images/choice_trial_1.png"" style=""width: 408px; height: 417px; margin-right: 200px;""><img src=""images/demo_images/choice_trial_2.png"" style=""width: 408px; height: 417px;""></div></div>",f,delaylearn,learning,trial,SlTMZmnszpYKXBZ7JiXs1kTizko2,SlTMZmnszpYKXBZ7JiXs1kTizko2,3.0,images/demo_images/choice_trial_1.png,images/demo_images/choice_trial_2.png,images/demo_images/pattern_1.png,j,f,3000.0,1.0,2.0,20.0,0.0,3.0,1.0,0.0,1.0,10.0,,,,,,5c3d48955fd1050001a99364,17:05:24,27/03/2024
html-keyboard-response,13,24238,0.0-6.0-1.0,,"<div style=""display: flex; flex-direction: column; align-items: center; margin-top: -40px;""><img src=""images/demo_images/pattern_1.png"" style=""width: 234px; height: 230px; margin-top: -50px;""><div style=""display: flex; justify-content: space-between; margin-top: 33px;""><img src=""images/demo_images/choice_trial_1.png"" style=""width: 408px; height: 417px; margin-right: 608px;""></div></div>",,delaylearn,learning,display_response,SlTMZmnszpYKXBZ7JiXs1kTizko2,SlTMZmnszpYKXBZ7JiXs1kTizko2,,,,,,,,,,,,,,,,,chosen stimuli: images/demo_images/choice_trial_1.png,,,,,5c3d48955fd1050001a99364,17:05:24,27/03/2024
html-keyboard-response,14,27253,0.0-6.0-2.0,,,,delaylearn,learning,feedback_duration_window,SlTMZmnszpYKXBZ7JiXs1kTizko2,SlTMZmnszpYKXBZ7JiXs1kTizko2,,,,,,,,,,,,,,,,,,3000.0,,,,5c3d48955fd1050001a99364,17:05:24,27/03/2024
html-keyboard-response,15,28754,0.0-6.0-3.0,,<div style='margin:auto;width: auto; font-size: 150%'><span style='font-weight: bold; font-size: 100px; color: red;'>0 points!</span><br><br></div>,,delaylearn,learning,feedback_image_window,SlTMZmnszpYKXBZ7JiXs1kTizko2,SlTMZmnszpYKXBZ7JiXs1kTizko2,,,,,,,,,,,,,,,,,,,,,,5c3d48955fd1050001a99364,17:05:24,27/03/2024
html-keyboard-response,16,30894,0.0-7.0,,"<div style=""font-size:100px;"">+</div>",,delaylearn,learning,ITI,SlTMZmnszpYKXBZ7JiXs1kTizko2,SlTMZmnszpYKXBZ7JiXs1kTizko2,,,,,,,,,,,,,,,,,,,2129.0,,,5c3d48955fd1050001a99364,17:05:24,27/03/2024
html-keyboard-response,17,32765,0.0-8.0-0.0,1869.5999999046326,"<div style=""display: flex; flex-direction: column; align-items: center; margin-top: -40px;""><img src=""images/demo_images/pattern_1.png"" style=""width: 234px; height: 230px; margin-top: -50px;""><div style=""display: flex; justify-content: space-between; margin-top: 33px;""><img src=""images/demo_images/choice_trial_1.png"" style=""width: 408px; height: 417px; margin-right: 200px;""><img src=""images/demo_images/choice_trial_2.png"" style=""width: 408px; height: 417px;""></div></div>",j,delaylearn,learning,trial,SlTMZmnszpYKXBZ7JiXs1kTizko2,SlTMZmnszpYKXBZ7JiXs1kTizko2,3.0,images/demo_images/choice_trial_1.png,images/demo_images/choice_trial_2.png,images/demo_images/pattern_1.png,f,f,3000.0,1.0,2.0,20.0,0.0,4.0,0.0,0.0,2.0,10.0,,,,,,5c3d48955fd1050001a99364,17:05:24,27/03/2024
html-keyboard-response,18,33774,0.0-8.0-1.0,,"<div style=""display: flex; flex-direction: column; align-items: center; margin-top: -40px;""><img src=""images/demo_images/pattern_1.png"" style=""width: 234px; height: 230px; margin-top: -50px;""><div style=""display: flex; justify-content: space-between; margin-top: 33px;""><img src=""images/demo_images/choice_trial_2.png"" style=""width: 408px; height: 417px; margin-left:608px;""></div></div>",,delaylearn,learning,display_response,SlTMZmnszpYKXBZ7JiXs1kTizko2,SlTMZmnszpYKXBZ7JiXs1kTizko2,,,,,,,,,,,,,,,,,chosen stimuli: images/demo_images/choice_trial_2.png,,,,,5c3d48955fd1050001a99364,17:05:24,27/03/2024
html-keyboard-response,19,36785,0.0-8.0-2.0,,,,delaylearn,learning,feedback_duration_window,SlTMZmnszpYKXBZ7JiXs1kTizko2,SlTMZmnszpYKXBZ7JiXs1kTizko2,,,,,,,,,,,,,,,,,,3000.0,,,,5c3d48955fd1050001a99364,17:05:24,27/03/2024
html-keyboard-response,20,38301,0.0-8.0-3.0,,<div style='margin:auto;width: auto; font-size: 150%'><span style='font-weight: bold; font-size: 100px; color: red;'>0 points!</span><br><br></div>,,delaylearn,learning,feedback_image_window,SlTMZmnszpYKXBZ7JiXs1kTizko2,SlTMZmnszpYKXBZ7JiXs1kTizko2,,,,,,,,,,,,,,,,,,,,,,5c3d48955fd1050001a99364,17:05:24,27/03/2024
html-keyboard-response,21,38804,0.0-9.0-0.0,,,,,,mood_trial_fixation,SlTMZmnszpYKXBZ7JiXs1kTizko2,,,,,,,,,,,,,,,,,,,,,,,5c3d48955fd1050001a99364,17:05:24,27/03/2024
lmdlab-html-vas-response,22,43424,0.0-9.0-1.0,3597.0,How happy are you right now?,0.4521604938271605,delaylearn,learning,mood_trial,SlTMZmnszpYKXBZ7JiXs1kTizko2,SlTMZmnszpYKXBZ7JiXs1kTizko2,,,,,,,,,,,,,,,,,,,,"['Very unhappy', 'Very happy']",,5c3d48955fd1050001a99364,17:05:24,27/03/2024
html-keyboard-response,23,45328,0.0-10.0,,"<div style=""font-size:100px;"">+</div>",,delaylearn,learning,ITI,SlTMZmnszpYKXBZ7JiXs1kTizko2,SlTMZmnszpYKXBZ7JiXs1kTizko2,,,,,,,,,,,,,,,,,,,1896.0,,,5c3d48955fd1050001a99364,17:05:24,27/03/2024
html-keyboard-response,24,47224,0.0-11.0-0.0,1894.0,"<div style=""display: flex; flex-direction: column; align-items: center; margin-top: -40px;""><img src=""images/demo_images/pattern_1.png"" style=""width: 234px; height: 230px; margin-top: -50px;""><div style=""display: flex; justify-content: space-between; margin-top: 33px;""><img src=""images/demo_images/choice_trial_2.png"" style=""width: 408px; height: 417px; margin-right: 200px;""><img src=""images/demo_images/choice_trial_1.png"" style=""width: 408px; height: 417px;""></div></div>",j,delaylearn,learning,trial,SlTMZmnszpYKXBZ7JiXs1kTizko2,SlTMZmnszpYKXBZ7JiXs1kTizko2,3.0,images/demo_images/choice_trial_2.png,images/demo_images/choice_trial_1.png,images/demo_images/pattern_1.png,j,j,3000.0,2.0,1.0,20.0,1.0,5.0,1.0,1.0,1.0,20.0,,,,,,5c3d48955fd1050001a99364,17:05:24,27/03/2024
html-keyboard-response,25,48233,0.0-11.0-1.0,,"<div style=""display: flex; flex-direction: column; align-items: center; margin-top: -40px;""><img src=""images/demo_images/pattern_1.png"" style=""width: 234px; height: 230px; margin-top: -50px;""><div style=""display: flex; justify-content: space-between; margin-top: 33px;""><img src=""images/demo_images/choice_trial_1.png"" style=""width: 408px; height: 417px; margin-left:608px;""></div></div>",,delaylearn,learning,display_response,SlTMZmnszpYKXBZ7JiXs1kTizko2,SlTMZmnszpYKXBZ7JiXs1kTizko2,,,,,,,,,,,,,,,,,chosen stimuli: images/demo_images/choice_trial_1.png,,,,,5c3d48955fd1050001a99364,17:05:24,27/03/2024
html-keyboard-response,26,51235,0.0-11.0-2.0,,,,delaylearn,learning,feedback_duration_window,SlTMZmnszpYKXBZ7JiXs1kTizko2,SlTMZmnszpYKXBZ7JiXs1kTizko2,,,,,,,,,,,,,,,,,,3000.0,,,,5c3d48955fd1050001a99364,17:05:24,27/03/2024
html-keyboard-response,27,52749,0.0-11.0-3.0,,<div style='margin:auto;width: auto; font-size: 150%'><span style='font-weight: bold; font-size: 100px; color: green;'>+10 points!</span><br><br></div>,,delaylearn,learning,feedback_image_window,SlTMZmnszpYKXBZ7JiXs1kTizko2,SlTMZmnszpYKXBZ7JiXs1kTizko2,,,,,,,,,,,,,,,,,,,,,,5c3d48955fd1050001a99364,17:05:24,27/03/2024
html-keyboard-response,28,55047,0.0-12.0,,"<div style=""font-size:100px;"">+</div>",,delaylearn,learning,ITI,SlTMZmnszpYKXBZ7JiXs1kTizko2,SlTMZmnszpYKXBZ7JiXs1kTizko2,,,,,,,,,,,,,,,,,,,2291.0,,,5c3d48955fd1050001a99364,17:05:24,27/03/2024
html-keyboard-response,29,55910,0.0-13.0-0.0,861.0,"<div style=""display: flex; flex-direction: column; align-items: center; margin-top: -40px;""><img src=""images/demo_images/pattern_1.png"" style=""width: 234px; height: 230px; margin-top: -50px;""><div style=""display: flex; justify-content: space-between; margin-top: 33px;""><img src=""images/demo_images/choice_trial_1.png"" style=""width: 408px; height: 417px; margin-right: 200px;""><img src=""images/demo_images/choice_trial_2.png"" style=""width: 408px; height: 417px;""></div></div>",f,delaylearn,learning,trial,SlTMZmnszpYKXBZ7JiXs1kTizko2,SlTMZmnszpYKXBZ7JiXs1kTizko2,3.0,images/demo_images/choice_trial_1.png,images/demo_images/choice_trial_2.png,images/demo_images/pattern_1.png,f,f,3000.0,1.0,2.0,20.0,0.0,6.0,1.0,1.0,1.0,30.0,,,,,,5c3d48955fd1050001a99364,17:05:24,27/03/2024
html-keyboard-response,30,56917,0.0-13.0-1.0,,"<div style=""display: flex; flex-direction: column; align-items: center; margin-top: -40px;""><img src=""images/demo_images/pattern_1.png"" style=""width: 234px; height: 230px; margin-top: -50px;""><div style=""display: flex; justify-content: space-between; margin-top: 33px;""><img src=""images/demo_images/choice_trial_1.png"" style=""width: 408px; height: 417px; margin-right: 608px;""></div></div>",,delaylearn,learning,display_response,SlTMZmnszpYKXBZ7JiXs1kTizko2,SlTMZmnszpYKXBZ7JiXs1kTizko2,,,,,,,,,,,,,,,,,chosen stimuli: images/demo_images/choice_trial_1.png,,,,,5c3d48955fd1050001a99364,17:05:24,27/03/2024
html-keyboard-response,31,59932,0.0-13.0-2.0,,,,delaylearn,learning,feedback_duration_window,SlTMZmnszpYKXBZ7JiXs1kTizko2,SlTMZmnszpYKXBZ7JiXs1kTizko2,,,,,,,,,,,,,,,,,,3000.0,,,,5c3d48955fd1050001a99364,17:05:24,27/03/2024
html-keyboard-response,32,61448,0.0-13.0-3.0,,<div style='margin:auto;width: auto; font-size: 150%'><span style='font-weight: bold; font-size: 100px; color: green;'>+10 points!</span><br><br></div>,,delaylearn,learning,feedback_image_window,SlTMZmnszpYKXBZ7JiXs1kTizko2,SlTMZmnszpYKXBZ7JiXs1kTizko2,,,,,,,,,,,,,,,,,,,,,,5c3d48955fd1050001a99364,17:05:24,27/03/2024
html-keyboard-response,33,63308,0.0-14.0,,"<div style=""font-size:100px;"">+</div>",,delaylearn,learning,ITI,SlTMZmnszpYKXBZ7JiXs1kTizko2,SlTMZmnszpYKXBZ7JiXs1kTizko2,,,,,,,,,,,,,,,,,,,1853.0,,,5c3d48955fd1050001a99364,17:05:24,27/03/2024
html-keyboard-response,34,64150,0.0-15.0-0.0,840.0,"<div style=""display: flex; flex-direction: column; align-items: center; margin-top: -40px;""><img src=""images/demo_images/pattern_1.png"" style=""width: 234px; height: 230px; margin-top: -50px;""><div style=""display: flex; justify-content: space-between; margin-top: 33px;""><img src=""images/demo_images/choice_trial_2.png"" style=""width: 408px; height: 417px; margin-right: 200px;""><img src=""images/demo_images/choice_trial_1.png"" style=""width: 408px; height: 417px;""></div></div>",j,delaylearn,learning,trial,SlTMZmnszpYKXBZ7JiXs1kTizko2,SlTMZmnszpYKXBZ7JiXs1kTizko2,3.0,images/demo_images/choice_trial_2.png,images/demo_images/choice_trial_1.png,images/demo_images/pattern_1.png,j,j,3000.0,2.0,1.0,20.0,1.0,7.0,1.0,1.0,1.0,40.0,,,,,,5c3d48955fd1050001a99364,17:05:24,27/03/2024
html-keyboard-response,35,65161,0.0-15.0-1.0,,"<div style=""display: flex; flex-direction: column; align-items: center; margin-top: -40px;""><img src=""images/demo_images/pattern_1.png"" style=""width: 234px; height: 230px; margin-top: -50px;""><div style=""display: flex; justify-content: space-between; margin-top: 33px;""><img src=""images/demo_images/choice_trial_1.png"" style=""width: 408px; height: 417px; margin-left:608px;""></div></div>",,delaylearn,learning,display_response,SlTMZmnszpYKXBZ7JiXs1kTizko2,SlTMZmnszpYKXBZ7JiXs1kTizko2,,,,,,,,,,,,,,,,,chosen stimuli: images/demo_images/choice_trial_1.png,,,,,5c3d48955fd1050001a99364,17:05:24,27/03/2024
html-keyboard-response,36,68166,0.0-15.0-2.0,,,,delaylearn,learning,feedback_duration_window,SlTMZmnszpYKXBZ7JiXs1kTizko2,SlTMZmnszpYKXBZ7JiXs1kTizko2,,,,,,,,,,,,,,,,,,3000.0,,,,5c3d48955fd1050001a99364,17:05:24,27/03/2024
html-keyboard-response,37,69680,0.0-15.0-3.0,,<div style='margin:auto;width: auto; font-size: 150%'><span style='font-weight: bold; font-size: 100px; color: green;'>+10 points!</span><br><br></div>,,delaylearn,learning,feedback_image_window,SlTMZmnszpYKXBZ7JiXs1kTizko2,SlTMZmnszpYKXBZ7JiXs1kTizko2,,,,,,,,,,,,,,,,,,,,,,5c3d48955fd1050001a99364,17:05:24,27/03/2024
html-keyboard-response,38,71837,0.0-16.0,,"<div style=""font-size:100px;"">+</div>",,delaylearn,learning,ITI,SlTMZmnszpYKXBZ7JiXs1kTizko2,SlTMZmnszpYKXBZ7JiXs1kTizko2,,,,,,,,,,,,,,,,,,,2155.0,,,5c3d48955fd1050001a99364,17:05:24,27/03/2024
html-keyboard-response,39,72610,0.0-17.0-0.0,771.1000003814697,"<div style=""display: flex; flex-direction: column; align-items: center; margin-top: -40px;""><img src=""images/demo_images/pattern_1.png"" style=""width: 234px; height: 230px; margin-top: -50px;""><div style=""display: flex; justify-content: space-between; margin-top: 33px;""><img src=""images/demo_images/choice_trial_1.png"" style=""width: 408px; height: 417px; margin-right: 200px;""><img src=""images/demo_images/choice_trial_2.png"" style=""width: 408px; height: 417px;""></div></div>",f,delaylearn,learning,trial,SlTMZmnszpYKXBZ7JiXs1kTizko2,SlTMZmnszpYKXBZ7JiXs1kTizko2,3.0,images/demo_images/choice_trial_1.png,images/demo_images/choice_trial_2.png,images/demo_images/pattern_1.png,f,f,3000.0,1.0,2.0,20.0,0.0,8.0,1.0,1.0,1.0,50.0,,,,,,5c3d48955fd1050001a99364,17:05:24,27/03/2024
html-keyboard-response,40,73615,0.0-17.0-1.0,,"<div style=""display: flex; flex-direction: column; align-items: center; margin-top: -40px;""><img src=""images/demo_images/pattern_1.png"" style=""width: 234px; height: 230px; margin-top: -50px;""><div style=""display: flex; justify-content: space-between; margin-top: 33px;""><img src=""images/demo_images/choice_trial_1.png"" style=""width: 408px; height: 417px; margin-right: 608px;""></div></div>",,delaylearn,learning,display_response,SlTMZmnszpYKXBZ7JiXs1kTizko2,SlTMZmnszpYKXBZ7JiXs1kTizko2,,,,,,,,,,,,,,,,,chosen stimuli: images/demo_images/choice_trial_1.png,,,,,5c3d48955fd1050001a99364,17:05:24,27/03/2024
html-keyboard-response,41,76629,0.0-17.0-2.0,,,,delaylearn,learning,feedback_duration_window,SlTMZmnszpYKXBZ7JiXs1kTizko2,SlTMZmnszpYKXBZ7JiXs1kTizko2,,,,,,,,,,,,,,,,,,3000.0,,,,5c3d48955fd1050001a99364,17:05:24,27/03/2024
html-keyboard-response,42,78146,0.0-17.0-3.0,,<div style='margin:auto;width: auto; font-size: 150%'><span style='font-weight: bold; font-size: 100px; color: green;'>+10 points!</span><br><br></div>,,delaylearn,learning,feedback_image_window,SlTMZmnszpYKXBZ7JiXs1kTizko2,SlTMZmnszpYKXBZ7JiXs1kTizko2,,,,,,,,,,,,,,,,,,,,,,5c3d48955fd1050001a99364,17:05:24,27/03/2024
html-button-response,43,82936,0.0-18.0,4788.599999904633,"
  <div style=""display: flex; align-items: center; justify-content: center; height: 80vh;"">
  <div>
          <img src=""images/inst_demo_finish.png"" style=""width: 80vw; height:auto;"">
          <br><br>
      </div>
      <br><br>
  </div>",0,,,,SlTMZmnszpYKXBZ7JiXs1kTizko2,,,,,,,,,,,,,,,,,,,,,,,5c3d48955fd1050001a99364,17:05:24,27/03/2024
html-keyboard-response,44,98880,0.0-19.0,15942.700000286102,"
  <div style=""display: flex; align-items: center; justify-content: center; height: 80vh;"">
  <div>
          <img src=""images/inst_6.png"" style=""width: 80vw; height:auto;"">
          <br><br>
      </div>
      <br><br>
  </div>",j,,,,SlTMZmnszpYKXBZ7JiXs1kTizko2,,,,,,,,,,,,,,,,,,,,,,,5c3d48955fd1050001a99364,17:05:24,27/03/2024
html-keyboard-response,45,101894,0.0-20.0,,"<div style=""font-size:100px;"">+</div>",,delaylearn,learning,pre_fixation,SlTMZmnszpYKXBZ7JiXs1kTizko2,,,,,,,,,,,,,,,,,,,,,,,5c3d48955fd1050001a99364,17:05:24,27/03/2024
html-keyboard-response,46,103941,0.0-21.0,,"<div style=""font-size:100px;"">+</div>",,delaylearn,learning,ITI,SlTMZmnszpYKXBZ7JiXs1kTizko2,SlTMZmnszpYKXBZ7JiXs1kTizko2,,,,,,,,,,,,,,,,,,,2036.0,,,5c3d48955fd1050001a99364,17:05:24,27/03/2024
html-keyboard-response,47,105996,0.0-22.0-0.0,2053.5999999046326,"<div style=""display: flex; flex-direction: column; align-items: center; margin-top: -40px;""><img src=""images/pattern_3.png"" style=""width: 234px; height: 230px; margin-top: -50px;""><div style=""display: flex; justify-content: space-between; margin-top: 33px;""><img src=""images/choice_trial_13.png"" style=""width: 408px; height: 417px; margin-right: 200px;""><img src=""images/choice_trial_10.png"" style=""width: 408px; height: 417px;""></div></div>",j,delaylearn,learning,trial,SlTMZmnszpYKXBZ7JiXs1kTizko2,SlTMZmnszpYKXBZ7JiXs1kTizko2,3.0,images/choice_trial_13.png,images/choice_trial_10.png,images/pattern_3.png,f,f,7000.0,13.0,10.0,2.0,0.0,9.0,0.0,0.0,10.0,50.0,,,,,,5c3d48955fd1050001a99364,17:05:24,27/03/2024
html-keyboard-response,48,107010,0.0-22.0-1.0,,"<div style=""display: flex; flex-direction: column; align-items: center; margin-top: -40px;""><img src=""images/pattern_3.png"" style=""width: 234px; height: 230px; margin-top: -50px;""><div style=""display: flex; justify-content: space-between; margin-top: 33px;""><img src=""images/choice_trial_10.png"" style=""width: 408px; height: 417px; margin-left:608px;""></div></div>",,delaylearn,learning,display_response,SlTMZmnszpYKXBZ7JiXs1kTizko2,SlTMZmnszpYKXBZ7JiXs1kTizko2,,,,,,,,,,,,,,,,,chosen stimuli: images/choice_trial_10.png,,,,,5c3d48955fd1050001a99364,17:05:24,27/03/2024
html-keyboard-response,49,114026,0.0-22.0-2.0,,,,delaylearn,learning,feedback_duration_window,SlTMZmnszpYKXBZ7JiXs1kTizko2,SlTMZmnszpYKXBZ7JiXs1kTizko2,,,,,,,,,,,,,,,,,,7000.0,,,,5c3d48955fd1050001a99364,17:05:24,27/03/2024
html-keyboard-response,50,115541,0.0-22.0-3.0,,<div style='margin:auto;width: auto; font-size: 150%'><span style='font-weight: bold; font-size: 100px; color: red;'>0 points!</span><br><br></div>,,delaylearn,learning,feedback_image_window,SlTMZmnszpYKXBZ7JiXs1kTizko2,SlTMZmnszpYKXBZ7JiXs1kTizko2,,,,,,,,,,,,,,,,,,,,,,5c3d48955fd1050001a99364,17:05:24,27/03/2024
html-keyboard-response,51,117152,0.0-23.0,,"<div style=""font-size:100px;"">+</div>",,delaylearn,learning,ITI,SlTMZmnszpYKXBZ7JiXs1kTizko2,SlTMZmnszpYKXBZ7JiXs1kTizko2,,,,,,,,,,,,,,,,,,,1605.0,,,5c3d48955fd1050001a99364,17:05:24,27/03/2024
html-keyboard-response,52,118940,0.0-24.0-0.0,1786.3000001907349,"<div style=""display: flex; flex-direction: column; align-items: center; margin-top: -40px;""><img src=""images/pattern_7.png"" style=""width: 234px; height: 230px; margin-top: -50px;""><div style=""display: flex; justify-content: space-between; margin-top: 33px;""><img src=""images/choice_trial_12.png"" style=""width: 408px; height: 417px; margin-right: 200px;""><img src=""images/choice_trial_6.png"" style=""width: 408px; height: 417px;""></div></div>",f,delaylearn,learning,trial,SlTMZmnszpYKXBZ7JiXs1kTizko2,SlTMZmnszpYKXBZ7JiXs1kTizko2,3.0,images/choice_trial_12.png,images/choice_trial_6.png,images/pattern_7.png,j,j,750.0,12.0,6.0,6.0,1.0,10.0,0.0,0.0,12.0,50.0,,,,,,5c3d48955fd1050001a99364,17:05:24,27/03/2024
html-keyboard-response,53,119957,0.0-24.0-1.0,,"<div style=""display: flex; flex-direction: column; align-items: center; margin-top: -40px;""><img src=""images/pattern_7.png"" style=""width: 234px; height: 230px; margin-top: -50px;""><div style=""display: flex; justify-content: space-between; margin-top: 33px;""><img src=""images/choice_trial_12.png"" style=""width: 408px; height: 417px; margin-right: 608px;""></div></div>",,delaylearn,learning,display_response,SlTMZmnszpYKXBZ7JiXs1kTizko2,SlTMZmnszpYKXBZ7JiXs1kTizko2,,,,,,,,,,,,,,,,,chosen stimuli: images/choice_trial_12.png,,,,,5c3d48955fd1050001a99364,17:05:24,27/03/2024
html-keyboard-response,54,120724,0.0-24.0-2.0,,,,delaylearn,learning,feedback_duration_window,SlTMZmnszpYKXBZ7JiXs1kTizko2,SlTMZmnszpYKXBZ7JiXs1kTizko2,,,,,,,,,,,,,,,,,,750.0,,,,5c3d48955fd1050001a99364,17:05:24,27/03/2024
html-keyboard-response,55,122240,0.0-24.0-3.0,,<div style='margin:auto;width: auto; font-size: 150%'><span style='font-weight: bold; font-size: 100px; color: red;'>0 points!</span><br><br></div>,,delaylearn,learning,feedback_image_window,SlTMZmnszpYKXBZ7JiXs1kTizko2,SlTMZmnszpYKXBZ7JiXs1kTizko2,,,,,,,,,,,,,,,,,,,,,,5c3d48955fd1050001a99364,17:05:24,27/03/2024
html-keyboard-response,56,124570,0.0-25.0,,"<div style=""font-size:100px;"">+</div>",,delaylearn,learning,ITI,SlTMZmnszpYKXBZ7JiXs1kTizko2,SlTMZmnszpYKXBZ7JiXs1kTizko2,,,,,,,,,,,,,,,,,,,2316.0,,,5c3d48955fd1050001a99364,17:05:24,27/03/2024
html-keyboard-response,57,126272,0.0-26.0-0.0,1700.6999998092651,"<div style=""display: flex; flex-direction: column; align-items: center; margin-top: -40px;""><img src=""images/pattern_4.png"" style=""width: 234px; height: 230px; margin-top: -50px;""><div style=""display: flex; justify-content: space-between; margin-top: 33px;""><img src=""images/choice_trial_15.png"" style=""width: 408px; height: 417px; margin-right: 200px;""><img src=""images/choice_trial_9.png"" style=""width: 408px; height: 417px;""></div></div>",j,delaylearn,learning,trial,SlTMZmnszpYKXBZ7JiXs1kTizko2,SlTMZmnszpYKXBZ7JiXs1kTizko2,3.0,images/choice_trial_15.png,images/choice_trial_9.png,images/pattern_4.png,f,f,7000.0,15.0,9.0,3.0,0.0,11.0,0.0,0.0,9.0,50.0,,,,,,5c3d48955fd1050001a99364,17:05:24,27/03/2024
html-keyboard-response,58,127274,0.0-26.0-1.0,,"<div style=""display: flex; flex-direction: column; align-items: center; margin-top: -40px;""><img src=""images/pattern_4.png"" style=""width: 234px; height: 230px; margin-top: -50px;""><div style=""display: flex; justify-content: space-between; margin-top: 33px;""><img src=""images/choice_trial_9.png"" style=""width: 408px; height: 417px; margin-left:608px;""></div></div>",,delaylearn,learning,display_response,SlTMZmnszpYKXBZ7JiXs1kTizko2,SlTMZmnszpYKXBZ7JiXs1kTizko2,,,,,,,,,,,,,,,,,chosen stimuli: images/choice_trial_9.png,,,,,5c3d48955fd1050001a99364,17:05:24,27/03/2024
html-keyboard-response,59,134289,0.0-26.0-2.0,,,,delaylearn,learning,feedback_duration_window,SlTMZmnszpYKXBZ7JiXs1kTizko2,SlTMZmnszpYKXBZ7JiXs1kTizko2,,,,,,,,,,,,,,,,,,7000.0,,,,5c3d48955fd1050001a99364,17:05:24,27/03/2024
html-keyboard-response,60,135790,0.0-26.0-3.0,,<div style='margin:auto;width: auto; font-size: 150%'><span style='font-weight: bold; font-size: 100px; color: red;'>0 points!</span><br><br></div>,,delaylearn,learning,feedback_image_window,SlTMZmnszpYKXBZ7JiXs1kTizko2,SlTMZmnszpYKXBZ7JiXs1kTizko2,,,,,,,,,,,,,,,,,,,,,,5c3d48955fd1050001a99364,17:05:24,27/03/2024
html-keyboard-response,61,138086,0.0-27.0,,"<div style=""font-size:100px;"">+</div>",,delaylearn,learning,ITI,SlTMZmnszpYKXBZ7JiXs1kTizko2,SlTMZmnszpYKXBZ7JiXs1kTizko2,,,,,,,,,,,,,,,,,,,2294.0,,,5c3d48955fd1050001a99364,17:05:24,27/03/2024
html-keyboard-response,62,139630,0.0-28.0-0.0,1542.5,"<div style=""display: flex; flex-direction: column; align-items: center; margin-top: -40px;""><img src=""images/pattern_5.png"" style=""width: 234px; height: 230px; margin-top: -50px;""><div style=""display: flex; justify-content: space-between; margin-top: 33px;""><img src=""images/choice_trial_2.png"" style=""width: 408px; height: 417px; margin-right: 200px;""><img src=""images/choice_trial_11.png"" style=""width: 408px; height: 417px;""></div></div>",j,delaylearn,learning,trial,SlTMZmnszpYKXBZ7JiXs1kTizko2,SlTMZmnszpYKXBZ7JiXs1kTizko2,3.0,images/choice_trial_2.png,images/choice_trial_11.png,images/pattern_5.png,j,j,750.0,2.0,11.0,4.0,1.0,12.0,1.0,1.0,11.0,60.0,,,,,,5c3d48955fd1050001a99364,17:05:24,27/03/2024
html-keyboard-response,63,140638,0.0-28.0-1.0,,"<div style=""display: flex; flex-direction: column; align-items: center; margin-top: -40px;""><img src=""images/pattern_5.png"" style=""width: 234px; height: 230px; margin-top: -50px;""><div style=""display: flex; justify-content: space-between; margin-top: 33px;""><img src=""images/choice_trial_11.png"" style=""width: 408px; height: 417px; margin-left:608px;""></div></div>",,delaylearn,learning,display_response,SlTMZmnszpYKXBZ7JiXs1kTizko2,SlTMZmnszpYKXBZ7JiXs1kTizko2,,,,,,,,,,,,,,,,,chosen stimuli: images/choice_trial_11.png,,,,,5c3d48955fd1050001a99364,17:05:24,27/03/2024
html-keyboard-response,64,141390,0.0-28.0-2.0,,,,delaylearn,learning,feedback_duration_window,SlTMZmnszpYKXBZ7JiXs1kTizko2,SlTMZmnszpYKXBZ7JiXs1kTizko2,,,,,,,,,,,,,,,,,,750.0,,,,5c3d48955fd1050001a99364,17:05:24,27/03/2024
html-keyboard-response,65,142904,0.0-28.0-3.0,,<div style='margin:auto;width: auto; font-size: 150%'><span style='font-weight: bold; font-size: 100px; color: green;'>+10 points!</span><br><br></div>,,delaylearn,learning,feedback_image_window,SlTMZmnszpYKXBZ7JiXs1kTizko2,SlTMZmnszpYKXBZ7JiXs1kTizko2,,,,,,,,,,,,,,,,,,,,,,5c3d48955fd1050001a99364,17:05:24,27/03/2024
html-keyboard-response,66,144811,0.0-29.0,,"<div style=""font-size:100px;"">+</div>",,delaylearn,learning,ITI,SlTMZmnszpYKXBZ7JiXs1kTizko2,SlTMZmnszpYKXBZ7JiXs1kTizko2,,,,,,,,,,,,,,,,,,,1896.0,,,5c3d48955fd1050001a99364,17:05:24,27/03/2024
html-keyboard-response,67,146717,0.0-30.0-0.0,1904.1999998092651,"<div style=""display: flex; flex-direction: column; align-items: center; margin-top: -40px;""><img src=""images/pattern_6.png"" style=""width: 234px; height: 230px; margin-top: -50px;""><div style=""display: flex; justify-content: space-between; margin-top: 33px;""><img src=""images/choice_trial_16.png"" style=""width: 408px; height: 417px; margin-right: 200px;""><img src=""images/choice_trial_3.png"" style=""width: 408px; height: 417px;""></div></div>",f,delaylearn,learning,trial,SlTMZmnszpYKXBZ7JiXs1kTizko2,SlTMZmnszpYKXBZ7JiXs1kTizko2,3.0,images/choice_trial_16.png,images/choice_trial_3.png,images/pattern_6.png,j,f,750.0,16.0,3.0,5.0,0.0,13.0,1.0,0.0,16.0,60.0,,,,,,5c3d48955fd1050001a99364,17:05:24,27/03/2024
html-keyboard-response,68,147722,0.0-30.0-1.0,,"<div style=""display: flex; flex-direction: column; align-items: center; margin-top: -40px;""><img src=""images/pattern_6.png"" style=""width: 234px; height: 230px; margin-top: -50px;""><div style=""display: flex; justify-content: space-between; margin-top: 33px;""><img src=""images/choice_trial_16.png"" style=""width: 408px; height: 417px; margin-right: 608px;""></div></div>",,delaylearn,learning,display_response,SlTMZmnszpYKXBZ7JiXs1kTizko2,SlTMZmnszpYKXBZ7JiXs1kTizko2,,,,,,,,,,,,,,,,,chosen stimuli: images/choice_trial_16.png,,,,,5c3d48955fd1050001a99364,17:05:24,27/03/2024
html-keyboard-response,69,148488,0.0-30.0-2.0,,,,delaylearn,learning,feedback_duration_window,SlTMZmnszpYKXBZ7JiXs1kTizko2,SlTMZmnszpYKXBZ7JiXs1kTizko2,,,,,,,,,,,,,,,,,,750.0,,,,5c3d48955fd1050001a99364,17:05:24,27/03/2024
html-keyboard-response,70,150003,0.0-30.0-3.0,,<div style='margin:auto;width: auto; font-size: 150%'><span style='font-weight: bold; font-size: 100px; color: red;'>0 points!</span><br><br></div>,,delaylearn,learning,feedback_image_window,SlTMZmnszpYKXBZ7JiXs1kTizko2,SlTMZmnszpYKXBZ7JiXs1kTizko2,,,,,,,,,,,,,,,,,,,,,,5c3d48955fd1050001a99364,17:05:24,27/03/2024
html-keyboard-response,71,150504,0.0-31.0-0.0,,,,,,mood_trial_fixation,SlTMZmnszpYKXBZ7JiXs1kTizko2,,,,,,,,,,,,,,,,,,,,,,,5c3d48955fd1050001a99364,17:05:24,27/03/2024
lmdlab-html-vas-response,72,154882,0.0-31.0-1.0,3362.0,How happy are you right now?,0.470679012345679,delaylearn,learning,mood_trial,SlTMZmnszpYKXBZ7JiXs1kTizko2,SlTMZmnszpYKXBZ7JiXs1kTizko2,,,,,,,,,,,,,,,,,,,,"['Very unhappy', 'Very happy']",,5c3d48955fd1050001a99364,17:05:24,27/03/2024
html-keyboard-response,73,156552,0.0-32.0,,"<div style=""font-size:100px;"">+</div>",,delaylearn,learning,ITI,SlTMZmnszpYKXBZ7JiXs1kTizko2,SlTMZmnszpYKXBZ7JiXs1kTizko2,,,,,,,,,,,,,,,,,,,1655.0,,,5c3d48955fd1050001a99364,17:05:24,27/03/2024
html-keyboard-response,74,158517,0.0-33.0-0.0,1963.5999999046326,"<div style=""display: flex; flex-direction: column; align-items: center; margin-top: -40px;""><img src=""images/pattern_1.png"" style=""width: 234px; height: 230px; margin-top: -50px;""><div style=""display: flex; justify-content: space-between; margin-top: 33px;""><img src=""images/choice_trial_8.png"" style=""width: 408px; height: 417px; margin-right: 200px;""><img src=""images/choice_trial_14.png"" style=""width: 408px; height: 417px;""></div></div>",j,delaylearn,learning,trial,SlTMZmnszpYKXBZ7JiXs1kTizko2,SlTMZmnszpYKXBZ7JiXs1kTizko2,3.0,images/choice_trial_8.png,images/choice_trial_14.png,images/pattern_1.png,j,j,7000.0,8.0,14.0,1.0,1.0,14.0,1.0,1.0,14.0,70.0,,,,,,5c3d48955fd1050001a99364,17:05:24,27/03/2024
html-keyboard-response,75,159520,0.0-33.0-1.0,,"<div style=""display: flex; flex-direction: column; align-items: center; margin-top: -40px;""><img src=""images/pattern_1.png"" style=""width: 234px; height: 230px; margin-top: -50px;""><div style=""display: flex; justify-content: space-between; margin-top: 33px;""><img src=""images/choice_trial_14.png"" style=""width: 408px; height: 417px; margin-left:608px;""></div></div>",,delaylearn,learning,display_response,SlTMZmnszpYKXBZ7JiXs1kTizko2,SlTMZmnszpYKXBZ7JiXs1kTizko2,,,,,,,,,,,,,,,,,chosen stimuli: images/choice_trial_14.png,,,,,5c3d48955fd1050001a99364,17:05:24,27/03/2024
html-keyboard-response,76,166528,0.0-33.0-2.0,,,,delaylearn,learning,feedback_duration_window,SlTMZmnszpYKXBZ7JiXs1kTizko2,SlTMZmnszpYKXBZ7JiXs1kTizko2,,,,,,,,,,,,,,,,,,7000.0,,,,5c3d48955fd1050001a99364,17:05:24,27/03/2024
html-keyboard-response,77,168035,0.0-33.0-3.0,,<div style='margin:auto;width: auto; font-size: 150%'><span style='font-weight: bold; font-size: 100px; color: green;'>+10 points!</span><br><br></div>,,delaylearn,learning,feedback_image_window,SlTMZmnszpYKXBZ7JiXs1kTizko2,SlTMZmnszpYKXBZ7JiXs1kTizko2,,,,,,,,,,,,,,,,,,,,,,5c3d48955fd1050001a99364,17:05:24,27/03/2024
html-keyboard-response,78,169972,0.0-34.0,,"<div style=""font-size:100px;"">+</div>",,delaylearn,learning,ITI,SlTMZmnszpYKXBZ7JiXs1kTizko2,SlTMZmnszpYKXBZ7JiXs1kTizko2,,,,,,,,,,,,,,,,,,,1927.0,,,5c3d48955fd1050001a99364,17:05:24,27/03/2024
html-keyboard-response,79,171514,0.0-35.0-0.0,1540.1000003814697,"<div style=""display: flex; flex-direction: column; align-items: center; margin-top: -40px;""><img src=""images/pattern_3.png"" style=""width: 234px; height: 230px; margin-top: -50px;""><div style=""display: flex; justify-content: space-between; margin-top: 33px;""><img src=""images/choice_trial_10.png"" style=""width: 408px; height: 417px; margin-right: 200px;""><img src=""images/choice_trial_13.png"" style=""width: 408px; height: 417px;""></div></div>",j,delaylearn,learning,trial,SlTMZmnszpYKXBZ7JiXs1kTizko2,SlTMZmnszpYKXBZ7JiXs1kTizko2,3.0,images/choice_trial_10.png,images/choice_trial_13.png,images/pattern_3.png,f,j,7000.0,10.0,13.0,2.0,1.0,15.0,1.0,0.0,13.0,70.0,,,,,,5c3d48955fd1050001a99364,17:05:24,27/03/2024
html-keyboard-response,80,172518,0.0-35.0-1.0,,"<div style=""display: flex; flex-direction: column; align-items: center; margin-top: -40px;""><img src=""images/pattern_3.png"" style=""width: 234px; height: 230px; margin-top: -50px;""><div style=""display: flex; justify-content: space-between; margin-top: 33px;""><img src=""images/choice_trial_13.png"" style=""width: 408px; height: 417px; margin-left:608px;""></div></div>",,delaylearn,learning,display_response,SlTMZmnszpYKXBZ7JiXs1kTizko2,SlTMZmnszpYKXBZ7JiXs1kTizko2,,,,,,,,,,,,,,,,,chosen stimuli: images/choice_trial_13.png,,,,,5c3d48955fd1050001a99364,17:05:24,27/03/2024
html-keyboard-response,81,179533,0.0-35.0-2.0,,,,delaylearn,learning,feedback_duration_window,SlTMZmnszpYKXBZ7JiXs1kTizko2,SlTMZmnszpYKXBZ7JiXs1kTizko2,,,,,,,,,,,,,,,,,,7000.0,,,,5c3d48955fd1050001a99364,17:05:24,27/03/2024
html-keyboard-response,82,181049,0.0-35.0-3.0,,<div style='margin:auto;width: auto; font-size: 150%'><span style='font-weight: bold; font-size: 100px; color: red;'>0 points!</span><br><br></div>,,delaylearn,learning,feedback_image_window,SlTMZmnszpYKXBZ7JiXs1kTizko2,SlTMZmnszpYKXBZ7JiXs1kTizko2,,,,,,,,,,,,,,,,,,,,,,5c3d48955fd1050001a99364,17:05:24,27/03/2024
html-keyboard-response,83,183160,0.0-36.0,,"<div style=""font-size:100px;"">+</div>",,delaylearn,learning,ITI,SlTMZmnszpYKXBZ7JiXs1kTizko2,SlTMZmnszpYKXBZ7JiXs1kTizko2,,,,,,,,,,,,,,,,,,,2105.0,,,5c3d48955fd1050001a99364,17:05:24,27/03/2024
html-keyboard-response,84,184872,0.0-37.0-0.0,1710.6999998092651,"<div style=""display: flex; flex-direction: column; align-items: center; margin-top: -40px;""><img src=""images/pattern_5.png"" style=""width: 234px; height: 230px; margin-top: -50px;""><div style=""display: flex; justify-content: space-between; margin-top: 33px;""><img src=""images/choice_trial_11.png"" style=""width: 408px; height: 417px; margin-right: 200px;""><img src=""images/choice_trial_2.png"" style=""width: 408px; height: 417px;""></div></div>",f,delaylearn,learning,trial,SlTMZmnszpYKXBZ7JiXs1kTizko2,SlTMZmnszpYKXBZ7JiXs1kTizko2,3.0,images/choice_trial_11.png,images/choice_trial_2.png,images/pattern_5.png,f,f,750.0,11.0,2.0,4.0,0.0,16.0,1.0,1.0,11.0,80.0,,,,,,5c3d48955fd1050001a99364,17:05:24,27/03/2024
html-keyboard-response,85,185882,0.0-37.0-1.0,,"<div style=""display: flex; flex-direction: column; align-items: center; margin-top: -40px;""><img src=""images/pattern_5.png"" style=""width: 234px; height: 230px; margin-top: -50px;""><div style=""display: flex; justify-content: space-between; margin-top: 33px;""><img src=""images/choice_trial_11.png"" style=""width: 408px; height: 417px; margin-right: 608px;""></div></div>",,delaylearn,learning,display_response,SlTMZmnszpYKXBZ7JiXs1kTizko2,SlTMZmnszpYKXBZ7JiXs1kTizko2,,,,,,,,,,,,,,,,,chosen stimuli: images/choice_trial_11.png,,,,,5c3d48955fd1050001a99364,17:05:24,27/03/2024
html-keyboard-response,86,186648,0.0-37.0-2.0,,,,delaylearn,learning,feedback_duration_window,SlTMZmnszpYKXBZ7JiXs1kTizko2,SlTMZmnszpYKXBZ7JiXs1kTizko2,,,,,,,,,,,,,,,,,,750.0,,,,5c3d48955fd1050001a99364,17:05:24,27/03/2024
html-keyboard-response,87,188165,0.0-37.0-3.0,,<div style='margin:auto;width: auto; font-size: 150%'><span style='font-weight: bold; font-size: 100px; color: green;'>+10 points!</span><br><br></div>,,delaylearn,learning,feedback_image_window,SlTMZmnszpYKXBZ7JiXs1kTizko2,SlTMZmnszpYKXBZ7JiXs1kTizko2,,,,,,,,,,,,,,,,,,,,,,5c3d48955fd1050001a99364,17:05:24,27/03/2024
html-keyboard-response,88,188667,0.0-38.0-0.0,,,,,,mood_trial_fixation,SlTMZmnszpYKXBZ7JiXs1kTizko2,,,,,,,,,,,,,,,,,,,,,,,5c3d48955fd1050001a99364,17:05:24,27/03/2024
lmdlab-html-vas-response,89,193808,0.0-38.0-1.0,4125.0,How happy are you right now?,0.3487654320987654,delaylearn,learning,mood_trial,SlTMZmnszpYKXBZ7JiXs1kTizko2,SlTMZmnszpYKXBZ7JiXs1kTizko2,,,,,,,,,,,,,,,,,,,,"['Very unhappy', 'Very happy']",,5c3d48955fd1050001a99364,17:05:24,27/03/2024
html-keyboard-response,90,195547,0.0-39.0,,"<div style=""font-size:100px;"">+</div>",,delaylearn,learning,ITI,SlTMZmnszpYKXBZ7JiXs1kTizko2,SlTMZmnszpYKXBZ7JiXs1kTizko2,,,,,,,,,,,,,,,,,,,1727.0,,,5c3d48955fd1050001a99364,17:05:24,27/03/2024
html-keyboard-response,91,198555,0.0-40.0-0.0,,"<div style=""display: flex; flex-direction: column; align-items: center; margin-top: -40px;""><img src=""images/pattern_6.png"" style=""width: 234px; height: 230px; margin-top: -50px;""><div style=""display: flex; justify-content: space-between; margin-top: 33px;""><img src=""images/choice_trial_16.png"" style=""width: 408px; height: 417px; margin-right: 200px;""><img src=""images/choice_trial_3.png"" style=""width: 408px; height: 417px;""></div></div>",,delaylearn,learning,trial,SlTMZmnszpYKXBZ7JiXs1kTizko2,SlTMZmnszpYKXBZ7JiXs1kTizko2,3.0,images/choice_trial_16.png,images/choice_trial_3.png,images/pattern_6.png,f,f,750.0,16.0,3.0,5.0,0.0,17.0,0.0,0.0,0.0,80.0,,,,,,5c3d48955fd1050001a99364,17:05:24,27/03/2024
html-keyboard-response,92,199564,0.0-40.0-1.0,,<div style='font-weight: bold; font-size: 75px; color: red;'>Missed Trial <br><br><br><br> Please respond faster</div>,,delaylearn,learning,display_response,SlTMZmnszpYKXBZ7JiXs1kTizko2,SlTMZmnszpYKXBZ7JiXs1kTizko2,,,,,,,,,,,,,,,,,Missed trial,,,,,5c3d48955fd1050001a99364,17:05:24,27/03/2024
html-keyboard-response,93,199570,0.0-40.0-2.0,,,,delaylearn,learning,feedback_duration_window,SlTMZmnszpYKXBZ7JiXs1kTizko2,SlTMZmnszpYKXBZ7JiXs1kTizko2,,,,,,,,,,,,,,,,,,0.0,,,,5c3d48955fd1050001a99364,17:05:24,27/03/2024
html-keyboard-response,94,199575,0.0-40.0-3.0,,,,delaylearn,learning,feedback_image_window,SlTMZmnszpYKXBZ7JiXs1kTizko2,SlTMZmnszpYKXBZ7JiXs1kTizko2,,,,,,,,,,,,,,,,,,,,,,5c3d48955fd1050001a99364,17:05:24,27/03/2024
html-keyboard-response,95,201362,0.0-41.0,,"<div style=""font-size:100px;"">+</div>",,delaylearn,learning,ITI,SlTMZmnszpYKXBZ7JiXs1kTizko2,SlTMZmnszpYKXBZ7JiXs1kTizko2,,,,,,,,,,,,,,,,,,,1774.0,,,5c3d48955fd1050001a99364,17:05:24,27/03/2024
html-keyboard-response,96,202631,0.0-42.0-0.0,1267.4000000953674,"<div style=""display: flex; flex-direction: column; align-items: center; margin-top: -40px;""><img src=""images/pattern_4.png"" style=""width: 234px; height: 230px; margin-top: -50px;""><div style=""display: flex; justify-content: space-between; margin-top: 33px;""><img src=""images/choice_trial_9.png"" style=""width: 408px; height: 417px; margin-right: 200px;""><img src=""images/choice_trial_15.png"" style=""width: 408px; height: 417px;""></div></div>",f,delaylearn,learning,trial,SlTMZmnszpYKXBZ7JiXs1kTizko2,SlTMZmnszpYKXBZ7JiXs1kTizko2,3.0,images/choice_trial_9.png,images/choice_trial_15.png,images/pattern_4.png,j,j,7000.0,9.0,15.0,3.0,1.0,18.0,0.0,0.0,9.0,80.0,,,,,,5c3d48955fd1050001a99364,17:05:24,27/03/2024
html-keyboard-response,97,203646,0.0-42.0-1.0,,"<div style=""display: flex; flex-direction: column; align-items: center; margin-top: -40px;""><img src=""images/pattern_4.png"" style=""width: 234px; height: 230px; margin-top: -50px;""><div style=""display: flex; justify-content: space-between; margin-top: 33px;""><img src=""images/choice_trial_9.png"" style=""width: 408px; height: 417px; margin-right: 608px;""></div></div>",,delaylearn,learning,display_response,SlTMZmnszpYKXBZ7JiXs1kTizko2,SlTMZmnszpYKXBZ7JiXs1kTizko2,,,,,,,,,,,,,,,,,chosen stimuli: images/choice_trial_9.png,,,,,5c3d48955fd1050001a99364,17:05:24,27/03/2024
html-keyboard-response,98,210662,0.0-42.0-2.0,,,,delaylearn,learning,feedback_duration_window,SlTMZmnszpYKXBZ7JiXs1kTizko2,SlTMZmnszpYKXBZ7JiXs1kTizko2,,,,,,,,,,,,,,,,,,7000.0,,,,5c3d48955fd1050001a99364,17:05:24,27/03/2024
html-keyboard-response,99,212178,0.0-42.0-3.0,,<div style='margin:auto;width: auto; font-size: 150%'><span style='font-weight: bold; font-size: 100px; color: red;'>0 points!</span><br><br></div>,,delaylearn,learning,feedback_image_window,SlTMZmnszpYKXBZ7JiXs1kTizko2,SlTMZmnszpYKXBZ7JiXs1kTizko2,,,,,,,,,,,,,,,,,,,,,,5c3d48955fd1050001a99364,17:05:24,27/03/2024
html-keyboard-response,100,214601,0.0-43.0,,"<div style=""font-size:100px;"">+</div>",,delaylearn,learning,ITI,SlTMZmnszpYKXBZ7JiXs1kTizko2,SlTMZmnszpYKXBZ7JiXs1kTizko2,,,,,,,,,,,,,,,,,,,2410.0,,,5c3d48955fd1050001a99364,17:05:24,27/03/2024
html-keyboard-response,101,216278,0.0-44.0-0.0,1675.2999997138977,"<div style=""display: flex; flex-direction: column; align-items: center; margin-top: -40px;""><img src=""images/pattern_7.png"" style=""width: 234px; height: 230px; margin-top: -50px;""><div style=""display: flex; justify-content: space-between; margin-top: 33px;""><img src=""images/choice_trial_6.png"" style=""width: 408px; height: 417px; margin-right: 200px;""><img src=""images/choice_trial_12.png"" style=""width: 408px; height: 417px;""></div></div>",j,delaylearn,learning,trial,SlTMZmnszpYKXBZ7JiXs1kTizko2,SlTMZmnszpYKXBZ7JiXs1kTizko2,3.0,images/choice_trial_6.png,images/choice_trial_12.png,images/pattern_7.png,j,f,750.0,6.0,12.0,6.0,0.0,19.0,0.0,1.0,12.0,90.0,,,,,,5c3d48955fd1050001a99364,17:05:24,27/03/2024
html-keyboard-response,102,217294,0.0-44.0-1.0,,"<div style=""display: flex; flex-direction: column; align-items: center; margin-top: -40px;""><img src=""images/pattern_7.png"" style=""width: 234px; height: 230px; margin-top: -50px;""><div style=""display: flex; justify-content: space-between; margin-top: 33px;""><img src=""images/choice_trial_12.png"" style=""width: 408px; height: 417px; margin-left:608px;""></div></div>",,delaylearn,learning,display_response,SlTMZmnszpYKXBZ7JiXs1kTizko2,SlTMZmnszpYKXBZ7JiXs1kTizko2,,,,,,,,,,,,,,,,,chosen stimuli: images/choice_trial_12.png,,,,,5c3d48955fd1050001a99364,17:05:24,27/03/2024
html-keyboard-response,103,218045,0.0-44.0-2.0,,,,delaylearn,learning,feedback_duration_window,SlTMZmnszpYKXBZ7JiXs1kTizko2,SlTMZmnszpYKXBZ7JiXs1kTizko2,,,,,,,,,,,,,,,,,,750.0,,,,5c3d48955fd1050001a99364,17:05:24,27/03/2024
html-keyboard-response,104,219561,0.0-44.0-3.0,,<div style='margin:auto;width: auto; font-size: 150%'><span style='font-weight: bold; font-size: 100px; color: green;'>+10 points!</span><br><br></div>,,delaylearn,learning,feedback_image_window,SlTMZmnszpYKXBZ7JiXs1kTizko2,SlTMZmnszpYKXBZ7JiXs1kTizko2,,,,,,,,,,,,,,,,,,,,,,5c3d48955fd1050001a99364,17:05:24,27/03/2024
html-keyboard-response,105,221203,0.0-45.0,,"<div style=""font-size:100px;"">+</div>",,delaylearn,learning,ITI,SlTMZmnszpYKXBZ7JiXs1kTizko2,SlTMZmnszpYKXBZ7JiXs1kTizko2,,,,,,,,,,,,,,,,,,,1631.0,,,5c3d48955fd1050001a99364,17:05:24,27/03/2024
html-keyboard-response,106,222565,0.0-46.0-0.0,1359.9000000953674,"<div style=""display: flex; flex-direction: column; align-items: center; margin-top: -40px;""><img src=""images/pattern_1.png"" style=""width: 234px; height: 230px; margin-top: -50px;""><div style=""display: flex; justify-content: space-between; margin-top: 33px;""><img src=""images/choice_trial_14.png"" style=""width: 408px; height: 417px; margin-right: 200px;""><img src=""images/choice_trial_8.png"" style=""width: 408px; height: 417px;""></div></div>",f,delaylearn,learning,trial,SlTMZmnszpYKXBZ7JiXs1kTizko2,SlTMZmnszpYKXBZ7JiXs1kTizko2,3.0,images/choice_trial_14.png,images/choice_trial_8.png,images/pattern_1.png,f,f,7000.0,14.0,8.0,1.0,0.0,20.0,1.0,1.0,14.0,100.0,,,,,,5c3d48955fd1050001a99364,17:05:24,27/03/2024
html-keyboard-response,107,223577,0.0-46.0-1.0,,"<div style=""display: flex; flex-direction: column; align-items: center; margin-top: -40px;""><img src=""images/pattern_1.png"" style=""width: 234px; height: 230px; margin-top: -50px;""><div style=""display: flex; justify-content: space-between; margin-top: 33px;""><img src=""images/choice_trial_14.png"" style=""width: 408px; height: 417px; margin-right: 608px;""></div></div>",,delaylearn,learning,display_response,SlTMZmnszpYKXBZ7JiXs1kTizko2,SlTMZmnszpYKXBZ7JiXs1kTizko2,,,,,,,,,,,,,,,,,chosen stimuli: images/choice_trial_14.png,,,,,5c3d48955fd1050001a99364,17:05:24,27/03/2024
html-keyboard-response,108,230593,0.0-46.0-2.0,,,,delaylearn,learning,feedback_duration_window,SlTMZmnszpYKXBZ7JiXs1kTizko2,SlTMZmnszpYKXBZ7JiXs1kTizko2,,,,,,,,,,,,,,,,,,7000.0,,,,5c3d48955fd1050001a99364,17:05:24,27/03/2024
html-keyboard-response,109,232109,0.0-46.0-3.0,,<div style='margin:auto;width: auto; font-size: 150%'><span style='font-weight: bold; font-size: 100px; color: green;'>+10 points!</span><br><br></div>,,delaylearn,learning,feedback_image_window,SlTMZmnszpYKXBZ7JiXs1kTizko2,SlTMZmnszpYKXBZ7JiXs1kTizko2,,,,,,,,,,,,,,,,,,,,,,5c3d48955fd1050001a99364,17:05:24,27/03/2024
html-keyboard-response,110,233954,0.0-47.0,,"<div style=""font-size:100px;"">+</div>",,delaylearn,learning,ITI,SlTMZmnszpYKXBZ7JiXs1kTizko2,SlTMZmnszpYKXBZ7JiXs1kTizko2,,,,,,,,,,,,,,,,,,,1830.0,,,5c3d48955fd1050001a99364,17:05:24,27/03/2024
html-keyboard-response,111,235216,0.0-48.0-0.0,1260.5999999046326,"<div style=""display: flex; flex-direction: column; align-items: center; margin-top: -40px;""><img src=""images/pattern_6.png"" style=""width: 234px; height: 230px; margin-top: -50px;""><div style=""display: flex; justify-content: space-between; margin-top: 33px;""><img src=""images/choice_trial_3.png"" style=""width: 408px; height: 417px; margin-right: 200px;""><img src=""images/choice_trial_16.png"" style=""width: 408px; height: 417px;""></div></div>",j,delaylearn,learning,trial,SlTMZmnszpYKXBZ7JiXs1kTizko2,SlTMZmnszpYKXBZ7JiXs1kTizko2,3.0,images/choice_trial_3.png,images/choice_trial_16.png,images/pattern_6.png,j,j,750.0,3.0,16.0,5.0,1.0,21.0,1.0,1.0,16.0,110.0,,,,,,5c3d48955fd1050001a99364,17:05:24,27/03/2024
html-keyboard-response,112,236226,0.0-48.0-1.0,,"<div style=""display: flex; flex-direction: column; align-items: center; margin-top: -40px;""><img src=""images/pattern_6.png"" style=""width: 234px; height: 230px; margin-top: -50px;""><div style=""display: flex; justify-content: space-between; margin-top: 33px;""><img src=""images/choice_trial_16.png"" style=""width: 408px; height: 417px; margin-left:608px;""></div></div>",,delaylearn,learning,display_response,SlTMZmnszpYKXBZ7JiXs1kTizko2,SlTMZmnszpYKXBZ7JiXs1kTizko2,,,,,,,,,,,,,,,,,chosen stimuli: images/choice_trial_16.png,,,,,5c3d48955fd1050001a99364,17:05:24,27/03/2024
html-keyboard-response,113,236977,0.0-48.0-2.0,,,,delaylearn,learning,feedback_duration_window,SlTMZmnszpYKXBZ7JiXs1kTizko2,SlTMZmnszpYKXBZ7JiXs1kTizko2,,,,,,,,,,,,,,,,,,750.0,,,,5c3d48955fd1050001a99364,17:05:24,27/03/2024
html-keyboard-response,114,238492,0.0-48.0-3.0,,<div style='margin:auto;width: auto; font-size: 150%'><span style='font-weight: bold; font-size: 100px; color: green;'>+10 points!</span><br><br></div>,,delaylearn,learning,feedback_image_window,SlTMZmnszpYKXBZ7JiXs1kTizko2,SlTMZmnszpYKXBZ7JiXs1kTizko2,,,,,,,,,,,,,,,,,,,,,,5c3d48955fd1050001a99364,17:05:24,27/03/2024
html-keyboard-response,115,240774,0.0-49.0,,"<div style=""font-size:100px;"">+</div>",,delaylearn,learning,ITI,SlTMZmnszpYKXBZ7JiXs1kTizko2,SlTMZmnszpYKXBZ7JiXs1kTizko2,,,,,,,,,,,,,,,,,,,2271.0,,,5c3d48955fd1050001a99364,17:05:24,27/03/2024
html-keyboard-response,116,241805,0.0-50.0-0.0,1029.4000000953674,"<div style=""display: flex; flex-direction: column; align-items: center; margin-top: -40px;""><img src=""images/pattern_4.png"" style=""width: 234px; height: 230px; margin-top: -50px;""><div style=""display: flex; justify-content: space-between; margin-top: 33px;""><img src=""images/choice_trial_15.png"" style=""width: 408px; height: 417px; margin-right: 200px;""><img src=""images/choice_trial_9.png"" style=""width: 408px; height: 417px;""></div></div>",j,delaylearn,learning,trial,SlTMZmnszpYKXBZ7JiXs1kTizko2,SlTMZmnszpYKXBZ7JiXs1kTizko2,3.0,images/choice_trial_15.png,images/choice_trial_9.png,images/pattern_4.png,f,f,7000.0,15.0,9.0,3.0,0.0,22.0,0.0,0.0,9.0,110.0,,,,,,5c3d48955fd1050001a99364,17:05:24,27/03/2024
html-keyboard-response,117,242810,0.0-50.0-1.0,,"<div style=""display: flex; flex-direction: column; align-items: center; margin-top: -40px;""><img src=""images/pattern_4.png"" style=""width: 234px; height: 230px; margin-top: -50px;""><div style=""display: flex; justify-content: space-between; margin-top: 33px;""><img src=""images/choice_trial_9.png"" style=""width: 408px; height: 417px; margin-left:608px;""></div></div>",,delaylearn,learning,display_response,SlTMZmnszpYKXBZ7JiXs1kTizko2,SlTMZmnszpYKXBZ7JiXs1kTizko2,,,,,,,,,,,,,,,,,chosen stimuli: images/choice_trial_9.png,,,,,5c3d48955fd1050001a99364,17:05:24,27/03/2024
html-keyboard-response,118,249824,0.0-50.0-2.0,,,,delaylearn,learning,feedback_duration_window,SlTMZmnszpYKXBZ7JiXs1kTizko2,SlTMZmnszpYKXBZ7JiXs1kTizko2,,,,,,,,,,,,,,,,,,7000.0,,,,5c3d48955fd1050001a99364,17:05:24,27/03/2024
html-keyboard-response,119,251340,0.0-50.0-3.0,,<div style='margin:auto;width: auto; font-size: 150%'><span style='font-weight: bold; font-size: 100px; color: red;'>0 points!</span><br><br></div>,,delaylearn,learning,feedback_image_window,SlTMZmnszpYKXBZ7JiXs1kTizko2,SlTMZmnszpYKXBZ7JiXs1kTizko2,,,,,,,,,,,,,,,,,,,,,,5c3d48955fd1050001a99364,17:05:24,27/03/2024
html-keyboard-response,120,251841,0.0-51.0-0.0,,,,,,mood_trial_fixation,SlTMZmnszpYKXBZ7JiXs1kTizko2,,,,,,,,,,,,,,,,,,,,,,,5c3d48955fd1050001a99364,17:05:24,27/03/2024
lmdlab-html-vas-response,121,256258,0.0-51.0-1.0,3400.0,How happy are you right now?,0.38580246913580246,delaylearn,learning,mood_trial,SlTMZmnszpYKXBZ7JiXs1kTizko2,SlTMZmnszpYKXBZ7JiXs1kTizko2,,,,,,,,,,,,,,,,,,,,"['Very unhappy', 'Very happy']",,5c3d48955fd1050001a99364,17:05:24,27/03/2024
html-keyboard-response,122,258139,0.0-52.0,,"<div style=""font-size:100px;"">+</div>",,delaylearn,learning,ITI,SlTMZmnszpYKXBZ7JiXs1kTizko2,SlTMZmnszpYKXBZ7JiXs1kTizko2,,,,,,,,,,,,,,,,,,,1864.0,,,5c3d48955fd1050001a99364,17:05:24,27/03/2024
html-keyboard-response,123,259338,0.0-53.0-0.0,1197.6999998092651,"<div style=""display: flex; flex-direction: column; align-items: center; margin-top: -40px;""><img src=""images/pattern_7.png"" style=""width: 234px; height: 230px; margin-top: -50px;""><div style=""display: flex; justify-content: space-between; margin-top: 33px;""><img src=""images/choice_trial_12.png"" style=""width: 408px; height: 417px; margin-right: 200px;""><img src=""images/choice_trial_6.png"" style=""width: 408px; height: 417px;""></div></div>",f,delaylearn,learning,trial,SlTMZmnszpYKXBZ7JiXs1kTizko2,SlTMZmnszpYKXBZ7JiXs1kTizko2,3.0,images/choice_trial_12.png,images/choice_trial_6.png,images/pattern_7.png,j,j,750.0,12.0,6.0,6.0,1.0,23.0,0.0,0.0,12.0,110.0,,,,,,5c3d48955fd1050001a99364,17:05:24,27/03/2024
html-keyboard-response,124,260355,0.0-53.0-1.0,,"<div style=""display: flex; flex-direction: column; align-items: center; margin-top: -40px;""><img src=""images/pattern_7.png"" style=""width: 234px; height: 230px; margin-top: -50px;""><div style=""display: flex; justify-content: space-between; margin-top: 33px;""><img src=""images/choice_trial_12.png"" style=""width: 408px; height: 417px; margin-right: 608px;""></div></div>",,delaylearn,learning,display_response,SlTMZmnszpYKXBZ7JiXs1kTizko2,SlTMZmnszpYKXBZ7JiXs1kTizko2,,,,,,,,,,,,,,,,,chosen stimuli: images/choice_trial_12.png,,,,,5c3d48955fd1050001a99364,17:05:24,27/03/2024
html-keyboard-response,125,261122,0.0-53.0-2.0,,,,delaylearn,learning,feedback_duration_window,SlTMZmnszpYKXBZ7JiXs1kTizko2,SlTMZmnszpYKXBZ7JiXs1kTizko2,,,,,,,,,,,,,,,,,,750.0,,,,5c3d48955fd1050001a99364,17:05:24,27/03/2024
html-keyboard-response,126,262623,0.0-53.0-3.0,,<div style='margin:auto;width: auto; font-size: 150%'><span style='font-weight: bold; font-size: 100px; color: red;'>0 points!</span><br><br></div>,,delaylearn,learning,feedback_image_window,SlTMZmnszpYKXBZ7JiXs1kTizko2,SlTMZmnszpYKXBZ7JiXs1kTizko2,,,,,,,,,,,,,,,,,,,,,,5c3d48955fd1050001a99364,17:05:24,27/03/2024
html-keyboard-response,127,264341,0.0-54.0,,"<div style=""font-size:100px;"">+</div>",,delaylearn,learning,ITI,SlTMZmnszpYKXBZ7JiXs1kTizko2,SlTMZmnszpYKXBZ7JiXs1kTizko2,,,,,,,,,,,,,,,,,,,1710.0,,,5c3d48955fd1050001a99364,17:05:24,27/03/2024
html-keyboard-response,128,265287,0.0-55.0-0.0,944.0,"<div style=""display: flex; flex-direction: column; align-items: center; margin-top: -40px;""><img src=""images/pattern_1.png"" style=""width: 234px; height: 230px; margin-top: -50px;""><div style=""display: flex; justify-content: space-between; margin-top: 33px;""><img src=""images/choice_trial_8.png"" style=""width: 408px; height: 417px; margin-right: 200px;""><img src=""images/choice_trial_14.png"" style=""width: 408px; height: 417px;""></div></div>",j,delaylearn,learning,trial,SlTMZmnszpYKXBZ7JiXs1kTizko2,SlTMZmnszpYKXBZ7JiXs1kTizko2,3.0,images/choice_trial_8.png,images/choice_trial_14.png,images/pattern_1.png,f,j,7000.0,8.0,14.0,1.0,1.0,24.0,1.0,0.0,14.0,110.0,,,,,,5c3d48955fd1050001a99364,17:05:24,27/03/2024
html-keyboard-response,129,266289,0.0-55.0-1.0,,"<div style=""display: flex; flex-direction: column; align-items: center; margin-top: -40px;""><img src=""images/pattern_1.png"" style=""width: 234px; height: 230px; margin-top: -50px;""><div style=""display: flex; justify-content: space-between; margin-top: 33px;""><img src=""images/choice_trial_14.png"" style=""width: 408px; height: 417px; margin-left:608px;""></div></div>",,delaylearn,learning,display_response,SlTMZmnszpYKXBZ7JiXs1kTizko2,SlTMZmnszpYKXBZ7JiXs1kTizko2,,,,,,,,,,,,,,,,,chosen stimuli: images/choice_trial_14.png,,,,,5c3d48955fd1050001a99364,17:05:24,27/03/2024
html-keyboard-response,130,273304,0.0-55.0-2.0,,,,delaylearn,learning,feedback_duration_window,SlTMZmnszpYKXBZ7JiXs1kTizko2,SlTMZmnszpYKXBZ7JiXs1kTizko2,,,,,,,,,,,,,,,,,,7000.0,,,,5c3d48955fd1050001a99364,17:05:24,27/03/2024
html-keyboard-response,131,274816,0.0-55.0-3.0,,<div style='margin:auto;width: auto; font-size: 150%'><span style='font-weight: bold; font-size: 100px; color: red;'>0 points!</span><br><br></div>,,delaylearn,learning,feedback_image_window,SlTMZmnszpYKXBZ7JiXs1kTizko2,SlTMZmnszpYKXBZ7JiXs1kTizko2,,,,,,,,,,,,,,,,,,,,,,5c3d48955fd1050001a99364,17:05:24,27/03/2024
html-keyboard-response,132,276415,0.0-56.0,,"<div style=""font-size:100px;"">+</div>",,delaylearn,learning,ITI,SlTMZmnszpYKXBZ7JiXs1kTizko2,SlTMZmnszpYKXBZ7JiXs1kTizko2,,,,,,,,,,,,,,,,,,,1596.0,,,5c3d48955fd1050001a99364,17:05:24,27/03/2024
html-keyboard-response,133,277478,0.0-57.0-0.0,1061.3999996185303,"<div style=""display: flex; flex-direction: column; align-items: center; margin-top: -40px;""><img src=""images/pattern_5.png"" style=""width: 234px; height: 230px; margin-top: -50px;""><div style=""display: flex; justify-content: space-between; margin-top: 33px;""><img src=""images/choice_trial_2.png"" style=""width: 408px; height: 417px; margin-right: 200px;""><img src=""images/choice_trial_11.png"" style=""width: 408px; height: 417px;""></div></div>",j,delaylearn,learning,trial,SlTMZmnszpYKXBZ7JiXs1kTizko2,SlTMZmnszpYKXBZ7JiXs1kTizko2,3.0,images/choice_trial_2.png,images/choice_trial_11.png,images/pattern_5.png,j,j,750.0,2.0,11.0,4.0,1.0,25.0,1.0,1.0,11.0,120.0,,,,,,5c3d48955fd1050001a99364,17:05:24,27/03/2024
html-keyboard-response,134,278487,0.0-57.0-1.0,,"<div style=""display: flex; flex-direction: column; align-items: center; margin-top: -40px;""><img src=""images/pattern_5.png"" style=""width: 234px; height: 230px; margin-top: -50px;""><div style=""display: flex; justify-content: space-between; margin-top: 33px;""><img src=""images/choice_trial_11.png"" style=""width: 408px; height: 417px; margin-left:608px;""></div></div>",,delaylearn,learning,display_response,SlTMZmnszpYKXBZ7JiXs1kTizko2,SlTMZmnszpYKXBZ7JiXs1kTizko2,,,,,,,,,,,,,,,,,chosen stimuli: images/choice_trial_11.png,,,,,5c3d48955fd1050001a99364,17:05:24,27/03/2024
html-keyboard-response,135,279253,0.0-57.0-2.0,,,,delaylearn,learning,feedback_duration_window,SlTMZmnszpYKXBZ7JiXs1kTizko2,SlTMZmnszpYKXBZ7JiXs1kTizko2,,,,,,,,,,,,,,,,,,750.0,,,,5c3d48955fd1050001a99364,17:05:24,27/03/2024
html-keyboard-response,136,280769,0.0-57.0-3.0,,<div style='margin:auto;width: auto; font-size: 150%'><span style='font-weight: bold; font-size: 100px; color: green;'>+10 points!</span><br><br></div>,,delaylearn,learning,feedback_image_window,SlTMZmnszpYKXBZ7JiXs1kTizko2,SlTMZmnszpYKXBZ7JiXs1kTizko2,,,,,,,,,,,,,,,,,,,,,,5c3d48955fd1050001a99364,17:05:24,27/03/2024
html-keyboard-response,137,282989,0.0-58.0,,"<div style=""font-size:100px;"">+</div>",,delaylearn,learning,ITI,SlTMZmnszpYKXBZ7JiXs1kTizko2,SlTMZmnszpYKXBZ7JiXs1kTizko2,,,,,,,,,,,,,,,,,,,2204.0,,,5c3d48955fd1050001a99364,17:05:24,27/03/2024
html-keyboard-response,138,284302,0.0-59.0-0.0,1311.1999998092651,"<div style=""display: flex; flex-direction: column; align-items: center; margin-top: -40px;""><img src=""images/pattern_3.png"" style=""width: 234px; height: 230px; margin-top: -50px;""><div style=""display: flex; justify-content: space-between; margin-top: 33px;""><img src=""images/choice_trial_10.png"" style=""width: 408px; height: 417px; margin-right: 200px;""><img src=""images/choice_trial_13.png"" style=""width: 408px; height: 417px;""></div></div>",f,delaylearn,learning,trial,SlTMZmnszpYKXBZ7JiXs1kTizko2,SlTMZmnszpYKXBZ7JiXs1kTizko2,3.0,images/choice_trial_10.png,images/choice_trial_13.png,images/pattern_3.png,j,j,7000.0,10.0,13.0,2.0,1.0,26.0,0.0,0.0,10.0,120.0,,,,,,5c3d48955fd1050001a99364,17:05:24,27/03/2024
html-keyboard-response,139,285303,0.0-59.0-1.0,,"<div style=""display: flex; flex-direction: column; align-items: center; margin-top: -40px;""><img src=""images/pattern_3.png"" style=""width: 234px; height: 230px; margin-top: -50px;""><div style=""display: flex; justify-content: space-between; margin-top: 33px;""><img src=""images/choice_trial_10.png"" style=""width: 408px; height: 417px; margin-right: 608px;""></div></div>",,delaylearn,learning,display_response,SlTMZmnszpYKXBZ7JiXs1kTizko2,SlTMZmnszpYKXBZ7JiXs1kTizko2,,,,,,,,,,,,,,,,,chosen stimuli: images/choice_trial_10.png,,,,,5c3d48955fd1050001a99364,17:05:24,27/03/2024
html-keyboard-response,140,292318,0.0-59.0-2.0,,,,delaylearn,learning,feedback_duration_window,SlTMZmnszpYKXBZ7JiXs1kTizko2,SlTMZmnszpYKXBZ7JiXs1kTizko2,,,,,,,,,,,,,,,,,,7000.0,,,,5c3d48955fd1050001a99364,17:05:24,27/03/2024
html-keyboard-response,141,293820,0.0-59.0-3.0,,<div style='margin:auto;width: auto; font-size: 150%'><span style='font-weight: bold; font-size: 100px; color: red;'>0 points!</span><br><br></div>,,delaylearn,learning,feedback_image_window,SlTMZmnszpYKXBZ7JiXs1kTizko2,SlTMZmnszpYKXBZ7JiXs1kTizko2,,,,,,,,,,,,,,,,,,,,,,5c3d48955fd1050001a99364,17:05:24,27/03/2024
lmdlab-html-vas-response,142,322435,0.0-60.0-0.0,27097.0,*How <b><u>confident</u></b> are you feeling about your answers at this moment?*,0.0030864197530864196,rewlearn,rate_confidence,,SlTMZmnszpYKXBZ7JiXs1kTizko2,SlTMZmnszpYKXBZ7JiXs1kTizko2,,,,,,,,,,,,,,,,,,,,"['No confidence', 'Complete confidence']",,5c3d48955fd1050001a99364,17:05:24,27/03/2024
lmdlab-rest-trial-limit,143,335162,0.0-60.0-1.0,11219.099999904633,"<div style=""font-size:40px;""><b>Please take a break!</b><br><br><br><br><p>Great work: you earned 120 points.<br><br><br><p>You have completed part(s) 1 of 5.<br><br><br><br>When you are ready to continue<br><br><br>please click the button.</p><br><br>",0,delaylearn,learning,break,SlTMZmnszpYKXBZ7JiXs1kTizko2,SlTMZmnszpYKXBZ7JiXs1kTizko2,,,,,,,,,,,,,,,,,,,,,0.0,5c3d48955fd1050001a99364,17:05:24,27/03/2024
html-keyboard-response,144,338179,0.0-60.0-2.0,,"<div style=""font-size:100px;"">+</div>",,delaylearn,learning,pre_fixation,SlTMZmnszpYKXBZ7JiXs1kTizko2,,,,,,,,,,,,,,,,,,,,,,,5c3d48955fd1050001a99364,17:05:24,27/03/2024
lmdlab-html-vas-response,145,348854,0.0-60.0-3.0-0.0,9655.0,How happy are you right now?,0.43209876543209874,delaylearn,learning,mood_baseline,SlTMZmnszpYKXBZ7JiXs1kTizko2,SlTMZmnszpYKXBZ7JiXs1kTizko2,,,,,,,,,,,,,,,,,,,,"['Very unhappy', 'Very happy']",,5c3d48955fd1050001a99364,17:05:24,27/03/2024
html-keyboard-response,146,350364,0.0-60.0-3.0-1.0,,,,,,mood_baseline_fixation,SlTMZmnszpYKXBZ7JiXs1kTizko2,,,,,,,,,,,,,,,,,,,,,,,5c3d48955fd1050001a99364,17:05:24,27/03/2024
html-keyboard-response,147,352830,0.0-61.0,,"<div style=""font-size:100px;"">+</div>",,delaylearn,learning,ITI,SlTMZmnszpYKXBZ7JiXs1kTizko2,SlTMZmnszpYKXBZ7JiXs1kTizko2,,,,,,,,,,,,,,,,,,,2453.0,,,5c3d48955fd1050001a99364,17:05:24,27/03/2024
html-keyboard-response,148,353889,0.0-62.0-0.0,1057.0999999046326,"<div style=""display: flex; flex-direction: column; align-items: center; margin-top: -40px;""><img src=""images/pattern_7.png"" style=""width: 234px; height: 230px; margin-top: -50px;""><div style=""display: flex; justify-content: space-between; margin-top: 33px;""><img src=""images/choice_trial_12.png"" style=""width: 408px; height: 417px; margin-right: 200px;""><img src=""images/choice_trial_6.png"" style=""width: 408px; height: 417px;""></div></div>",f,delaylearn,learning,trial,SlTMZmnszpYKXBZ7JiXs1kTizko2,SlTMZmnszpYKXBZ7JiXs1kTizko2,3.0,images/choice_trial_12.png,images/choice_trial_6.png,images/pattern_7.png,j,j,750.0,12.0,6.0,6.0,1.0,27.0,0.0,0.0,12.0,120.0,,,,,,5c3d48955fd1050001a99364,17:05:24,27/03/2024
html-keyboard-response,149,354894,0.0-62.0-1.0,,"<div style=""display: flex; flex-direction: column; align-items: center; margin-top: -40px;""><img src=""images/pattern_7.png"" style=""width: 234px; height: 230px; margin-top: -50px;""><div style=""display: flex; justify-content: space-between; margin-top: 33px;""><img src=""images/choice_trial_12.png"" style=""width: 408px; height: 417px; margin-right: 608px;""></div></div>",,delaylearn,learning,display_response,SlTMZmnszpYKXBZ7JiXs1kTizko2,SlTMZmnszpYKXBZ7JiXs1kTizko2,,,,,,,,,,,,,,,,,chosen stimuli: images/choice_trial_12.png,,,,,5c3d48955fd1050001a99364,17:05:24,27/03/2024
html-keyboard-response,150,355660,0.0-62.0-2.0,,,,delaylearn,learning,feedback_duration_window,SlTMZmnszpYKXBZ7JiXs1kTizko2,SlTMZmnszpYKXBZ7JiXs1kTizko2,,,,,,,,,,,,,,,,,,750.0,,,,5c3d48955fd1050001a99364,17:05:24,27/03/2024
html-keyboard-response,151,357176,0.0-62.0-3.0,,<div style='margin:auto;width: auto; font-size: 150%'><span style='font-weight: bold; font-size: 100px; color: red;'>0 points!</span><br><br></div>,,delaylearn,learning,feedback_image_window,SlTMZmnszpYKXBZ7JiXs1kTizko2,SlTMZmnszpYKXBZ7JiXs1kTizko2,,,,,,,,,,,,,,,,,,,,,,5c3d48955fd1050001a99364,17:05:24,27/03/2024
html-keyboard-response,152,357677,0.0-63.0-0.0,,,,,,mood_trial_fixation,SlTMZmnszpYKXBZ7JiXs1kTizko2,,,,,,,,,,,,,,,,,,,,,,,5c3d48955fd1050001a99364,17:05:24,27/03/2024
lmdlab-html-vas-response,153,363229,0.0-63.0-1.0,4535.0,How happy are you right now?,0.09104938271604938,delaylearn,learning,mood_trial,SlTMZmnszpYKXBZ7JiXs1kTizko2,SlTMZmnszpYKXBZ7JiXs1kTizko2,,,,,,,,,,,,,,,,,,,,"['Very unhappy', 'Very happy']",,5c3d48955fd1050001a99364,17:05:24,27/03/2024
html-keyboard-response,154,364914,0.0-64.0,,"<div style=""font-size:100px;"">+</div>",,delaylearn,learning,ITI,SlTMZmnszpYKXBZ7JiXs1kTizko2,SlTMZmnszpYKXBZ7JiXs1kTizko2,,,,,,,,,,,,,,,,,,,1680.0,,,5c3d48955fd1050001a99364,17:05:24,27/03/2024
html-keyboard-response,155,365934,0.0-65.0-0.0,1018.4000000953674,"<div style=""display: flex; flex-direction: column; align-items: center; margin-top: -40px;""><img src=""images/pattern_1.png"" style=""width: 234px; height: 230px; margin-top: -50px;""><div style=""display: flex; justify-content: space-between; margin-top: 33px;""><img src=""images/choice_trial_14.png"" style=""width: 408px; height: 417px; margin-right: 200px;""><img src=""images/choice_trial_8.png"" style=""width: 408px; height: 417px;""></div></div>",f,delaylearn,learning,trial,SlTMZmnszpYKXBZ7JiXs1kTizko2,SlTMZmnszpYKXBZ7JiXs1kTizko2,3.0,images/choice_trial_14.png,images/choice_trial_8.png,images/pattern_1.png,f,f,7000.0,14.0,8.0,1.0,0.0,28.0,1.0,1.0,14.0,130.0,,,,,,5c3d48955fd1050001a99364,17:05:24,27/03/2024
html-keyboard-response,156,366937,0.0-65.0-1.0,,"<div style=""display: flex; flex-direction: column; align-items: center; margin-top: -40px;""><img src=""images/pattern_1.png"" style=""width: 234px; height: 230px; margin-top: -50px;""><div style=""display: flex; justify-content: space-between; margin-top: 33px;""><img src=""images/choice_trial_14.png"" style=""width: 408px; height: 417px; margin-right: 608px;""></div></div>",,delaylearn,learning,display_response,SlTMZmnszpYKXBZ7JiXs1kTizko2,SlTMZmnszpYKXBZ7JiXs1kTizko2,,,,,,,,,,,,,,,,,chosen stimuli: images/choice_trial_14.png,,,,,5c3d48955fd1050001a99364,17:05:24,27/03/2024
html-keyboard-response,157,373939,0.0-65.0-2.0,,,,delaylearn,learning,feedback_duration_window,SlTMZmnszpYKXBZ7JiXs1kTizko2,SlTMZmnszpYKXBZ7JiXs1kTizko2,,,,,,,,,,,,,,,,,,7000.0,,,,5c3d48955fd1050001a99364,17:05:24,27/03/2024
html-keyboard-response,158,375442,0.0-65.0-3.0,,<div style='margin:auto;width: auto; font-size: 150%'><span style='font-weight: bold; font-size: 100px; color: green;'>+10 points!</span><br><br></div>,,delaylearn,learning,feedback_image_window,SlTMZmnszpYKXBZ7JiXs1kTizko2,SlTMZmnszpYKXBZ7JiXs1kTizko2,,,,,,,,,,,,,,,,,,,,,,5c3d48955fd1050001a99364,17:05:24,27/03/2024
html-keyboard-response,159,377363,0.0-66.0,,"<div style=""font-size:100px;"">+</div>",,delaylearn,learning,ITI,SlTMZmnszpYKXBZ7JiXs1kTizko2,SlTMZmnszpYKXBZ7JiXs1kTizko2,,,,,,,,,,,,,,,,,,,1917.0,,,5c3d48955fd1050001a99364,17:05:24,27/03/2024
html-keyboard-response,160,378420,0.0-67.0-0.0,1055.0999999046326,"<div style=""display: flex; flex-direction: column; align-items: center; margin-top: -40px;""><img src=""images/pattern_5.png"" style=""width: 234px; height: 230px; margin-top: -50px;""><div style=""display: flex; justify-content: space-between; margin-top: 33px;""><img src=""images/choice_trial_11.png"" style=""width: 408px; height: 417px; margin-right: 200px;""><img src=""images/choice_trial_2.png"" style=""width: 408px; height: 417px;""></div></div>",f,delaylearn,learning,trial,SlTMZmnszpYKXBZ7JiXs1kTizko2,SlTMZmnszpYKXBZ7JiXs1kTizko2,3.0,images/choice_trial_11.png,images/choice_trial_2.png,images/pattern_5.png,f,f,750.0,11.0,2.0,4.0,0.0,29.0,1.0,1.0,11.0,140.0,,,,,,5c3d48955fd1050001a99364,17:05:24,27/03/2024
html-keyboard-response,161,379425,0.0-67.0-1.0,,"<div style=""display: flex; flex-direction: column; align-items: center; margin-top: -40px;""><img src=""images/pattern_5.png"" style=""width: 234px; height: 230px; margin-top: -50px;""><div style=""display: flex; justify-content: space-between; margin-top: 33px;""><img src=""images/choice_trial_11.png"" style=""width: 408px; height: 417px; margin-right: 608px;""></div></div>",,delaylearn,learning,display_response,SlTMZmnszpYKXBZ7JiXs1kTizko2,SlTMZmnszpYKXBZ7JiXs1kTizko2,,,,,,,,,,,,,,,,,chosen stimuli: images/choice_trial_11.png,,,,,5c3d48955fd1050001a99364,17:05:24,27/03/2024
html-keyboard-response,162,380190,0.0-67.0-2.0,,,,delaylearn,learning,feedback_duration_window,SlTMZmnszpYKXBZ7JiXs1kTizko2,SlTMZmnszpYKXBZ7JiXs1kTizko2,,,,,,,,,,,,,,,,,,750.0,,,,5c3d48955fd1050001a99364,17:05:24,27/03/2024
html-keyboard-response,163,381706,0.0-67.0-3.0,,<div style='margin:auto;width: auto; font-size: 150%'><span style='font-weight: bold; font-size: 100px; color: green;'>+10 points!</span><br><br></div>,,delaylearn,learning,feedback_image_window,SlTMZmnszpYKXBZ7JiXs1kTizko2,SlTMZmnszpYKXBZ7JiXs1kTizko2,,,,,,,,,,,,,,,,,,,,,,5c3d48955fd1050001a99364,17:05:24,27/03/2024
html-keyboard-response,164,383926,0.0-68.0,,"<div style=""font-size:100px;"">+</div>",,delaylearn,learning,ITI,SlTMZmnszpYKXBZ7JiXs1kTizko2,SlTMZmnszpYKXBZ7JiXs1kTizko2,,,,,,,,,,,,,,,,,,,2212.0,,,5c3d48955fd1050001a99364,17:05:24,27/03/2024
html-keyboard-response,165,385132,0.0-69.0-0.0,1204.1999998092651,"<div style=""display: flex; flex-direction: column; align-items: center; margin-top: -40px;""><img src=""images/pattern_6.png"" style=""width: 234px; height: 230px; margin-top: -50px;""><div style=""display: flex; justify-content: space-between; margin-top: 33px;""><img src=""images/choice_trial_3.png"" style=""width: 408px; height: 417px; margin-right: 200px;""><img src=""images/choice_trial_16.png"" style=""width: 408px; height: 417px;""></div></div>",j,delaylearn,learning,trial,SlTMZmnszpYKXBZ7JiXs1kTizko2,SlTMZmnszpYKXBZ7JiXs1kTizko2,3.0,images/choice_trial_3.png,images/choice_trial_16.png,images/pattern_6.png,j,j,750.0,3.0,16.0,5.0,1.0,30.0,1.0,1.0,16.0,150.0,,,,,,5c3d48955fd1050001a99364,17:05:24,27/03/2024
html-keyboard-response,166,386139,0.0-69.0-1.0,,"<div style=""display: flex; flex-direction: column; align-items: center; margin-top: -40px;""><img src=""images/pattern_6.png"" style=""width: 234px; height: 230px; margin-top: -50px;""><div style=""display: flex; justify-content: space-between; margin-top: 33px;""><img src=""images/choice_trial_16.png"" style=""width: 408px; height: 417px; margin-left:608px;""></div></div>",,delaylearn,learning,display_response,SlTMZmnszpYKXBZ7JiXs1kTizko2,SlTMZmnszpYKXBZ7JiXs1kTizko2,,,,,,,,,,,,,,,,,chosen stimuli: images/choice_trial_16.png,,,,,5c3d48955fd1050001a99364,17:05:24,27/03/2024
html-keyboard-response,167,386906,0.0-69.0-2.0,,,,delaylearn,learning,feedback_duration_window,SlTMZmnszpYKXBZ7JiXs1kTizko2,SlTMZmnszpYKXBZ7JiXs1kTizko2,,,,,,,,,,,,,,,,,,750.0,,,,5c3d48955fd1050001a99364,17:05:24,27/03/2024
html-keyboard-response,168,388422,0.0-69.0-3.0,,<div style='margin:auto;width: auto; font-size: 150%'><span style='font-weight: bold; font-size: 100px; color: green;'>+10 points!</span><br><br></div>,,delaylearn,learning,feedback_image_window,SlTMZmnszpYKXBZ7JiXs1kTizko2,SlTMZmnszpYKXBZ7JiXs1kTizko2,,,,,,,,,,,,,,,,,,,,,,5c3d48955fd1050001a99364,17:05:24,27/03/2024
html-keyboard-response,169,388923,0.0-70.0-0.0,,,,,,mood_trial_fixation,SlTMZmnszpYKXBZ7JiXs1kTizko2,,,,,,,,,,,,,,,,,,,,,,,5c3d48955fd1050001a99364,17:05:24,27/03/2024
lmdlab-html-vas-response,170,395484,0.0-70.0-1.0,5544.0,How happy are you right now?,0.23148148148148148,delaylearn,learning,mood_trial,SlTMZmnszpYKXBZ7JiXs1kTizko2,SlTMZmnszpYKXBZ7JiXs1kTizko2,,,,,,,,,,,,,,,,,,,,"['Very unhappy', 'Very happy']",,5c3d48955fd1050001a99364,17:05:24,27/03/2024
html-keyboard-response,171,397737,0.0-71.0,,"<div style=""font-size:100px;"">+</div>",,delaylearn,learning,ITI,SlTMZmnszpYKXBZ7JiXs1kTizko2,SlTMZmnszpYKXBZ7JiXs1kTizko2,,,,,,,,,,,,,,,,,,,2248.0,,,5c3d48955fd1050001a99364,17:05:24,27/03/2024
html-keyboard-response,172,398826,0.0-72.0-0.0,1086.9000000953674,"<div style=""display: flex; flex-direction: column; align-items: center; margin-top: -40px;""><img src=""images/pattern_4.png"" style=""width: 234px; height: 230px; margin-top: -50px;""><div style=""display: flex; justify-content: space-between; margin-top: 33px;""><img src=""images/choice_trial_9.png"" style=""width: 408px; height: 417px; margin-right: 200px;""><img src=""images/choice_trial_15.png"" style=""width: 408px; height: 417px;""></div></div>",f,delaylearn,learning,trial,SlTMZmnszpYKXBZ7JiXs1kTizko2,SlTMZmnszpYKXBZ7JiXs1kTizko2,3.0,images/choice_trial_9.png,images/choice_trial_15.png,images/pattern_4.png,j,j,7000.0,9.0,15.0,3.0,1.0,31.0,0.0,0.0,9.0,150.0,,,,,,5c3d48955fd1050001a99364,17:05:24,27/03/2024
html-keyboard-response,173,399838,0.0-72.0-1.0,,"<div style=""display: flex; flex-direction: column; align-items: center; margin-top: -40px;""><img src=""images/pattern_4.png"" style=""width: 234px; height: 230px; margin-top: -50px;""><div style=""display: flex; justify-content: space-between; margin-top: 33px;""><img src=""images/choice_trial_9.png"" style=""width: 408px; height: 417px; margin-right: 608px;""></div></div>",,delaylearn,learning,display_response,SlTMZmnszpYKXBZ7JiXs1kTizko2,SlTMZmnszpYKXBZ7JiXs1kTizko2,,,,,,,,,,,,,,,,,chosen stimuli: images/choice_trial_9.png,,,,,5c3d48955fd1050001a99364,17:05:24,27/03/2024
html-keyboard-response,174,406853,0.0-72.0-2.0,,,,delaylearn,learning,feedback_duration_window,SlTMZmnszpYKXBZ7JiXs1kTizko2,SlTMZmnszpYKXBZ7JiXs1kTizko2,,,,,,,,,,,,,,,,,,7000.0,,,,5c3d48955fd1050001a99364,17:05:24,27/03/2024
html-keyboard-response,175,408355,0.0-72.0-3.0,,<div style='margin:auto;width: auto; font-size: 150%'><span style='font-weight: bold; font-size: 100px; color: red;'>0 points!</span><br><br></div>,,delaylearn,learning,feedback_image_window,SlTMZmnszpYKXBZ7JiXs1kTizko2,SlTMZmnszpYKXBZ7JiXs1kTizko2,,,,,,,,,,,,,,,,,,,,,,5c3d48955fd1050001a99364,17:05:24,27/03/2024
html-keyboard-response,176,410791,0.0-73.0,,"<div style=""font-size:100px;"">+</div>",,delaylearn,learning,ITI,SlTMZmnszpYKXBZ7JiXs1kTizko2,SlTMZmnszpYKXBZ7JiXs1kTizko2,,,,,,,,,,,,,,,,,,,2430.0,,,5c3d48955fd1050001a99364,17:05:24,27/03/2024
html-keyboard-response,177,412364,0.0-74.0-0.0,1571.3000001907349,"<div style=""display: flex; flex-direction: column; align-items: center; margin-top: -40px;""><img src=""images/pattern_3.png"" style=""width: 234px; height: 230px; margin-top: -50px;""><div style=""display: flex; justify-content: space-between; margin-top: 33px;""><img src=""images/choice_trial_10.png"" style=""width: 408px; height: 417px; margin-right: 200px;""><img src=""images/choice_trial_13.png"" style=""width: 408px; height: 417px;""></div></div>",j,delaylearn,learning,trial,SlTMZmnszpYKXBZ7JiXs1kTizko2,SlTMZmnszpYKXBZ7JiXs1kTizko2,3.0,images/choice_trial_10.png,images/choice_trial_13.png,images/pattern_3.png,j,j,7000.0,10.0,13.0,2.0,1.0,32.0,1.0,1.0,13.0,160.0,,,,,,5c3d48955fd1050001a99364,17:05:24,27/03/2024
html-keyboard-response,178,413371,0.0-74.0-1.0,,"<div style=""display: flex; flex-direction: column; align-items: center; margin-top: -40px;""><img src=""images/pattern_3.png"" style=""width: 234px; height: 230px; margin-top: -50px;""><div style=""display: flex; justify-content: space-between; margin-top: 33px;""><img src=""images/choice_trial_13.png"" style=""width: 408px; height: 417px; margin-left:608px;""></div></div>",,delaylearn,learning,display_response,SlTMZmnszpYKXBZ7JiXs1kTizko2,SlTMZmnszpYKXBZ7JiXs1kTizko2,,,,,,,,,,,,,,,,,chosen stimuli: images/choice_trial_13.png,,,,,5c3d48955fd1050001a99364,17:05:24,27/03/2024
html-keyboard-response,179,420385,0.0-74.0-2.0,,,,delaylearn,learning,feedback_duration_window,SlTMZmnszpYKXBZ7JiXs1kTizko2,SlTMZmnszpYKXBZ7JiXs1kTizko2,,,,,,,,,,,,,,,,,,7000.0,,,,5c3d48955fd1050001a99364,17:05:24,27/03/2024
html-keyboard-response,180,421887,0.0-74.0-3.0,,<div style='margin:auto;width: auto; font-size: 150%'><span style='font-weight: bold; font-size: 100px; color: green;'>+10 points!</span><br><br></div>,,delaylearn,learning,feedback_image_window,SlTMZmnszpYKXBZ7JiXs1kTizko2,SlTMZmnszpYKXBZ7JiXs1kTizko2,,,,,,,,,,,,,,,,,,,,,,5c3d48955fd1050001a99364,17:05:24,27/03/2024
html-keyboard-response,181,423744,0.0-75.0,,"<div style=""font-size:100px;"">+</div>",,delaylearn,learning,ITI,SlTMZmnszpYKXBZ7JiXs1kTizko2,SlTMZmnszpYKXBZ7JiXs1kTizko2,,,,,,,,,,,,,,,,,,,1846.0,,,5c3d48955fd1050001a99364,17:05:24,27/03/2024
html-keyboard-response,182,424735,0.0-76.0-0.0,988.8000001907349,"<div style=""display: flex; flex-direction: column; align-items: center; margin-top: -40px;""><img src=""images/pattern_5.png"" style=""width: 234px; height: 230px; margin-top: -50px;""><div style=""display: flex; justify-content: space-between; margin-top: 33px;""><img src=""images/choice_trial_11.png"" style=""width: 408px; height: 417px; margin-right: 200px;""><img src=""images/choice_trial_2.png"" style=""width: 408px; height: 417px;""></div></div>",f,delaylearn,learning,trial,SlTMZmnszpYKXBZ7JiXs1kTizko2,SlTMZmnszpYKXBZ7JiXs1kTizko2,3.0,images/choice_trial_11.png,images/choice_trial_2.png,images/pattern_5.png,j,f,750.0,11.0,2.0,4.0,0.0,33.0,1.0,0.0,11.0,160.0,,,,,,5c3d48955fd1050001a99364,17:05:24,27/03/2024
html-keyboard-response,183,425741,0.0-76.0-1.0,,"<div style=""display: flex; flex-direction: column; align-items: center; margin-top: -40px;""><img src=""images/pattern_5.png"" style=""width: 234px; height: 230px; margin-top: -50px;""><div style=""display: flex; justify-content: space-between; margin-top: 33px;""><img src=""images/choice_trial_11.png"" style=""width: 408px; height: 417px; margin-right: 608px;""></div></div>",,delaylearn,learning,display_response,SlTMZmnszpYKXBZ7JiXs1kTizko2,SlTMZmnszpYKXBZ7JiXs1kTizko2,,,,,,,,,,,,,,,,,chosen stimuli: images/choice_trial_11.png,,,,,5c3d48955fd1050001a99364,17:05:24,27/03/2024
html-keyboard-response,184,426501,0.0-76.0-2.0,,,,delaylearn,learning,feedback_duration_window,SlTMZmnszpYKXBZ7JiXs1kTizko2,SlTMZmnszpYKXBZ7JiXs1kTizko2,,,,,,,,,,,,,,,,,,750.0,,,,5c3d48955fd1050001a99364,17:05:24,27/03/2024
html-keyboard-response,185,428002,0.0-76.0-3.0,,<div style='margin:auto;width: auto; font-size: 150%'><span style='font-weight: bold; font-size: 100px; color: red;'>0 points!</span><br><br></div>,,delaylearn,learning,feedback_image_window,SlTMZmnszpYKXBZ7JiXs1kTizko2,SlTMZmnszpYKXBZ7JiXs1kTizko2,,,,,,,,,,,,,,,,,,,,,,5c3d48955fd1050001a99364,17:05:24,27/03/2024
html-keyboard-response,186,430251,0.0-77.0,,"<div style=""font-size:100px;"">+</div>",,delaylearn,learning,ITI,SlTMZmnszpYKXBZ7JiXs1kTizko2,SlTMZmnszpYKXBZ7JiXs1kTizko2,,,,,,,,,,,,,,,,,,,2236.0,,,5c3d48955fd1050001a99364,17:05:24,27/03/2024
html-keyboard-response,187,431184,0.0-78.0-0.0,930.8000001907349,"<div style=""display: flex; flex-direction: column; align-items: center; margin-top: -40px;""><img src=""images/pattern_1.png"" style=""width: 234px; height: 230px; margin-top: -50px;""><div style=""display: flex; justify-content: space-between; margin-top: 33px;""><img src=""images/choice_trial_14.png"" style=""width: 408px; height: 417px; margin-right: 200px;""><img src=""images/choice_trial_8.png"" style=""width: 408px; height: 417px;""></div></div>",f,delaylearn,learning,trial,SlTMZmnszpYKXBZ7JiXs1kTizko2,SlTMZmnszpYKXBZ7JiXs1kTizko2,3.0,images/choice_trial_14.png,images/choice_trial_8.png,images/pattern_1.png,f,f,7000.0,14.0,8.0,1.0,0.0,34.0,1.0,1.0,14.0,170.0,,,,,,5c3d48955fd1050001a99364,17:05:24,27/03/2024
html-keyboard-response,188,432200,0.0-78.0-1.0,,"<div style=""display: flex; flex-direction: column; align-items: center; margin-top: -40px;""><img src=""images/pattern_1.png"" style=""width: 234px; height: 230px; margin-top: -50px;""><div style=""display: flex; justify-content: space-between; margin-top: 33px;""><img src=""images/choice_trial_14.png"" style=""width: 408px; height: 417px; margin-right: 608px;""></div></div>",,delaylearn,learning,display_response,SlTMZmnszpYKXBZ7JiXs1kTizko2,SlTMZmnszpYKXBZ7JiXs1kTizko2,,,,,,,,,,,,,,,,,chosen stimuli: images/choice_trial_14.png,,,,,5c3d48955fd1050001a99364,17:05:24,27/03/2024
html-keyboard-response,189,439215,0.0-78.0-2.0,,,,delaylearn,learning,feedback_duration_window,SlTMZmnszpYKXBZ7JiXs1kTizko2,SlTMZmnszpYKXBZ7JiXs1kTizko2,,,,,,,,,,,,,,,,,,7000.0,,,,5c3d48955fd1050001a99364,17:05:24,27/03/2024
html-keyboard-response,190,440732,0.0-78.0-3.0,,<div style='margin:auto;width: auto; font-size: 150%'><span style='font-weight: bold; font-size: 100px; color: green;'>+10 points!</span><br><br></div>,,delaylearn,learning,feedback_image_window,SlTMZmnszpYKXBZ7JiXs1kTizko2,SlTMZmnszpYKXBZ7JiXs1kTizko2,,,,,,,,,,,,,,,,,,,,,,5c3d48955fd1050001a99364,17:05:24,27/03/2024
html-keyboard-response,191,441233,0.0-79.0-0.0,,,,,,mood_trial_fixation,SlTMZmnszpYKXBZ7JiXs1kTizko2,,,,,,,,,,,,,,,,,,,,,,,5c3d48955fd1050001a99364,17:05:24,27/03/2024
lmdlab-html-vas-response,192,446411,0.0-79.0-1.0,4161.0,How happy are you right now?,0.5092592592592593,delaylearn,learning,mood_trial,SlTMZmnszpYKXBZ7JiXs1kTizko2,SlTMZmnszpYKXBZ7JiXs1kTizko2,,,,,,,,,,,,,,,,,,,,"['Very unhappy', 'Very happy']",,5c3d48955fd1050001a99364,17:05:24,27/03/2024
html-keyboard-response,193,448272,0.0-80.0,,"<div style=""font-size:100px;"">+</div>",,delaylearn,learning,ITI,SlTMZmnszpYKXBZ7JiXs1kTizko2,SlTMZmnszpYKXBZ7JiXs1kTizko2,,,,,,,,,,,,,,,,,,,1851.0,,,5c3d48955fd1050001a99364,17:05:24,27/03/2024
html-keyboard-response,194,449089,0.0-81.0-0.0,815.3000001907349,"<div style=""display: flex; flex-direction: column; align-items: center; margin-top: -40px;""><img src=""images/pattern_6.png"" style=""width: 234px; height: 230px; margin-top: -50px;""><div style=""display: flex; justify-content: space-between; margin-top: 33px;""><img src=""images/choice_trial_16.png"" style=""width: 408px; height: 417px; margin-right: 200px;""><img src=""images/choice_trial_3.png"" style=""width: 408px; height: 417px;""></div></div>",f,delaylearn,learning,trial,SlTMZmnszpYKXBZ7JiXs1kTizko2,SlTMZmnszpYKXBZ7JiXs1kTizko2,3.0,images/choice_trial_16.png,images/choice_trial_3.png,images/pattern_6.png,j,f,750.0,16.0,3.0,5.0,0.0,35.0,1.0,0.0,16.0,170.0,,,,,,5c3d48955fd1050001a99364,17:05:24,27/03/2024
html-keyboard-response,195,450097,0.0-81.0-1.0,,"<div style=""display: flex; flex-direction: column; align-items: center; margin-top: -40px;""><img src=""images/pattern_6.png"" style=""width: 234px; height: 230px; margin-top: -50px;""><div style=""display: flex; justify-content: space-between; margin-top: 33px;""><img src=""images/choice_trial_16.png"" style=""width: 408px; height: 417px; margin-right: 608px;""></div></div>",,delaylearn,learning,display_response,SlTMZmnszpYKXBZ7JiXs1kTizko2,SlTMZmnszpYKXBZ7JiXs1kTizko2,,,,,,,,,,,,,,,,,chosen stimuli: images/choice_trial_16.png,,,,,5c3d48955fd1050001a99364,17:05:24,27/03/2024
html-keyboard-response,196,450864,0.0-81.0-2.0,,,,delaylearn,learning,feedback_duration_window,SlTMZmnszpYKXBZ7JiXs1kTizko2,SlTMZmnszpYKXBZ7JiXs1kTizko2,,,,,,,,,,,,,,,,,,750.0,,,,5c3d48955fd1050001a99364,17:05:24,27/03/2024
html-keyboard-response,197,452381,0.0-81.0-3.0,,<div style='margin:auto;width: auto; font-size: 150%'><span style='font-weight: bold; font-size: 100px; color: red;'>0 points!</span><br><br></div>,,delaylearn,learning,feedback_image_window,SlTMZmnszpYKXBZ7JiXs1kTizko2,SlTMZmnszpYKXBZ7JiXs1kTizko2,,,,,,,,,,,,,,,,,,,,,,5c3d48955fd1050001a99364,17:05:24,27/03/2024
html-keyboard-response,198,453959,0.0-82.0,,"<div style=""font-size:100px;"">+</div>",,delaylearn,learning,ITI,SlTMZmnszpYKXBZ7JiXs1kTizko2,SlTMZmnszpYKXBZ7JiXs1kTizko2,,,,,,,,,,,,,,,,,,,1566.0,,,5c3d48955fd1050001a99364,17:05:24,27/03/2024
html-keyboard-response,199,455103,0.0-83.0-0.0,1141.5,"<div style=""display: flex; flex-direction: column; align-items: center; margin-top: -40px;""><img src=""images/pattern_3.png"" style=""width: 234px; height: 230px; margin-top: -50px;""><div style=""display: flex; justify-content: space-between; margin-top: 33px;""><img src=""images/choice_trial_10.png"" style=""width: 408px; height: 417px; margin-right: 200px;""><img src=""images/choice_trial_13.png"" style=""width: 408px; height: 417px;""></div></div>",j,delaylearn,learning,trial,SlTMZmnszpYKXBZ7JiXs1kTizko2,SlTMZmnszpYKXBZ7JiXs1kTizko2,3.0,images/choice_trial_10.png,images/choice_trial_13.png,images/pattern_3.png,j,j,7000.0,10.0,13.0,2.0,1.0,36.0,1.0,1.0,13.0,180.0,,,,,,5c3d48955fd1050001a99364,17:05:24,27/03/2024
html-keyboard-response,200,456113,0.0-83.0-1.0,,"<div style=""display: flex; flex-direction: column; align-items: center; margin-top: -40px;""><img src=""images/pattern_3.png"" style=""width: 234px; height: 230px; margin-top: -50px;""><div style=""display: flex; justify-content: space-between; margin-top: 33px;""><img src=""images/choice_trial_13.png"" style=""width: 408px; height: 417px; margin-left:608px;""></div></div>",,delaylearn,learning,display_response,SlTMZmnszpYKXBZ7JiXs1kTizko2,SlTMZmnszpYKXBZ7JiXs1kTizko2,,,,,,,,,,,,,,,,,chosen stimuli: images/choice_trial_13.png,,,,,5c3d48955fd1050001a99364,17:05:24,27/03/2024
html-keyboard-response,201,463114,0.0-83.0-2.0,,,,delaylearn,learning,feedback_duration_window,SlTMZmnszpYKXBZ7JiXs1kTizko2,SlTMZmnszpYKXBZ7JiXs1kTizko2,,,,,,,,,,,,,,,,,,7000.0,,,,5c3d48955fd1050001a99364,17:05:24,27/03/2024
html-keyboard-response,202,464629,0.0-83.0-3.0,,<div style='margin:auto;width: auto; font-size: 150%'><span style='font-weight: bold; font-size: 100px; color: green;'>+10 points!</span><br><br></div>,,delaylearn,learning,feedback_image_window,SlTMZmnszpYKXBZ7JiXs1kTizko2,SlTMZmnszpYKXBZ7JiXs1kTizko2,,,,,,,,,,,,,,,,,,,,,,5c3d48955fd1050001a99364,17:05:24,27/03/2024
html-keyboard-response,203,466645,0.0-84.0,,"<div style=""font-size:100px;"">+</div>",,delaylearn,learning,ITI,SlTMZmnszpYKXBZ7JiXs1kTizko2,SlTMZmnszpYKXBZ7JiXs1kTizko2,,,,,,,,,,,,,,,,,,,2000.0,,,5c3d48955fd1050001a99364,17:05:24,27/03/2024
html-keyboard-response,204,468759,0.0-85.0-0.0,2112.0,"<div style=""display: flex; flex-direction: column; align-items: center; margin-top: -40px;""><img src=""images/pattern_4.png"" style=""width: 234px; height: 230px; margin-top: -50px;""><div style=""display: flex; justify-content: space-between; margin-top: 33px;""><img src=""images/choice_trial_9.png"" style=""width: 408px; height: 417px; margin-right: 200px;""><img src=""images/choice_trial_15.png"" style=""width: 408px; height: 417px;""></div></div>",f,delaylearn,learning,trial,SlTMZmnszpYKXBZ7JiXs1kTizko2,SlTMZmnszpYKXBZ7JiXs1kTizko2,3.0,images/choice_trial_9.png,images/choice_trial_15.png,images/pattern_4.png,f,j,7000.0,9.0,15.0,3.0,1.0,37.0,0.0,1.0,9.0,190.0,,,,,,5c3d48955fd1050001a99364,17:05:24,27/03/2024
html-keyboard-response,205,469763,0.0-85.0-1.0,,"<div style=""display: flex; flex-direction: column; align-items: center; margin-top: -40px;""><img src=""images/pattern_4.png"" style=""width: 234px; height: 230px; margin-top: -50px;""><div style=""display: flex; justify-content: space-between; margin-top: 33px;""><img src=""images/choice_trial_9.png"" style=""width: 408px; height: 417px; margin-right: 608px;""></div></div>",,delaylearn,learning,display_response,SlTMZmnszpYKXBZ7JiXs1kTizko2,SlTMZmnszpYKXBZ7JiXs1kTizko2,,,,,,,,,,,,,,,,,chosen stimuli: images/choice_trial_9.png,,,,,5c3d48955fd1050001a99364,17:05:24,27/03/2024
html-keyboard-response,206,476777,0.0-85.0-2.0,,,,delaylearn,learning,feedback_duration_window,SlTMZmnszpYKXBZ7JiXs1kTizko2,SlTMZmnszpYKXBZ7JiXs1kTizko2,,,,,,,,,,,,,,,,,,7000.0,,,,5c3d48955fd1050001a99364,17:05:24,27/03/2024
html-keyboard-response,207,478279,0.0-85.0-3.0,,<div style='margin:auto;width: auto; font-size: 150%'><span style='font-weight: bold; font-size: 100px; color: green;'>+10 points!</span><br><br></div>,,delaylearn,learning,feedback_image_window,SlTMZmnszpYKXBZ7JiXs1kTizko2,SlTMZmnszpYKXBZ7JiXs1kTizko2,,,,,,,,,,,,,,,,,,,,,,5c3d48955fd1050001a99364,17:05:24,27/03/2024
html-keyboard-response,208,480653,0.0-86.0,,"<div style=""font-size:100px;"">+</div>",,delaylearn,learning,ITI,SlTMZmnszpYKXBZ7JiXs1kTizko2,SlTMZmnszpYKXBZ7JiXs1kTizko2,,,,,,,,,,,,,,,,,,,2370.0,,,5c3d48955fd1050001a99364,17:05:24,27/03/2024
html-keyboard-response,209,481895,0.0-87.0-0.0,1240.4000000953674,"<div style=""display: flex; flex-direction: column; align-items: center; margin-top: -40px;""><img src=""images/pattern_7.png"" style=""width: 234px; height: 230px; margin-top: -50px;""><div style=""display: flex; justify-content: space-between; margin-top: 33px;""><img src=""images/choice_trial_6.png"" style=""width: 408px; height: 417px; margin-right: 200px;""><img src=""images/choice_trial_12.png"" style=""width: 408px; height: 417px;""></div></div>",j,delaylearn,learning,trial,SlTMZmnszpYKXBZ7JiXs1kTizko2,SlTMZmnszpYKXBZ7JiXs1kTizko2,3.0,images/choice_trial_6.png,images/choice_trial_12.png,images/pattern_7.png,f,f,750.0,6.0,12.0,6.0,0.0,38.0,0.0,0.0,12.0,190.0,,,,,,5c3d48955fd1050001a99364,17:05:24,27/03/2024
html-keyboard-response,210,482910,0.0-87.0-1.0,,"<div style=""display: flex; flex-direction: column; align-items: center; margin-top: -40px;""><img src=""images/pattern_7.png"" style=""width: 234px; height: 230px; margin-top: -50px;""><div style=""display: flex; justify-content: space-between; margin-top: 33px;""><img src=""images/choice_trial_12.png"" style=""width: 408px; height: 417px; margin-left:608px;""></div></div>",,delaylearn,learning,display_response,SlTMZmnszpYKXBZ7JiXs1kTizko2,SlTMZmnszpYKXBZ7JiXs1kTizko2,,,,,,,,,,,,,,,,,chosen stimuli: images/choice_trial_12.png,,,,,5c3d48955fd1050001a99364,17:05:24,27/03/2024
html-keyboard-response,211,483676,0.0-87.0-2.0,,,,delaylearn,learning,feedback_duration_window,SlTMZmnszpYKXBZ7JiXs1kTizko2,SlTMZmnszpYKXBZ7JiXs1kTizko2,,,,,,,,,,,,,,,,,,750.0,,,,5c3d48955fd1050001a99364,17:05:24,27/03/2024
html-keyboard-response,212,485193,0.0-87.0-3.0,,<div style='margin:auto;width: auto; font-size: 150%'><span style='font-weight: bold; font-size: 100px; color: red;'>0 points!</span><br><br></div>,,delaylearn,learning,feedback_image_window,SlTMZmnszpYKXBZ7JiXs1kTizko2,SlTMZmnszpYKXBZ7JiXs1kTizko2,,,,,,,,,,,,,,,,,,,,,,5c3d48955fd1050001a99364,17:05:24,27/03/2024
html-keyboard-response,213,486819,0.0-88.0,,"<div style=""font-size:100px;"">+</div>",,delaylearn,learning,ITI,SlTMZmnszpYKXBZ7JiXs1kTizko2,SlTMZmnszpYKXBZ7JiXs1kTizko2,,,,,,,,,,,,,,,,,,,1621.0,,,5c3d48955fd1050001a99364,17:05:24,27/03/2024
html-keyboard-response,214,487790,0.0-89.0-0.0,969.2999997138977,"<div style=""display: flex; flex-direction: column; align-items: center; margin-top: -40px;""><img src=""images/pattern_1.png"" style=""width: 234px; height: 230px; margin-top: -50px;""><div style=""display: flex; justify-content: space-between; margin-top: 33px;""><img src=""images/choice_trial_14.png"" style=""width: 408px; height: 417px; margin-right: 200px;""><img src=""images/choice_trial_8.png"" style=""width: 408px; height: 417px;""></div></div>",f,delaylearn,learning,trial,SlTMZmnszpYKXBZ7JiXs1kTizko2,SlTMZmnszpYKXBZ7JiXs1kTizko2,3.0,images/choice_trial_14.png,images/choice_trial_8.png,images/pattern_1.png,f,f,7000.0,14.0,8.0,1.0,0.0,39.0,1.0,1.0,14.0,200.0,,,,,,5c3d48955fd1050001a99364,17:05:24,27/03/2024
html-keyboard-response,215,488793,0.0-89.0-1.0,,"<div style=""display: flex; flex-direction: column; align-items: center; margin-top: -40px;""><img src=""images/pattern_1.png"" style=""width: 234px; height: 230px; margin-top: -50px;""><div style=""display: flex; justify-content: space-between; margin-top: 33px;""><img src=""images/choice_trial_14.png"" style=""width: 408px; height: 417px; margin-right: 608px;""></div></div>",,delaylearn,learning,display_response,SlTMZmnszpYKXBZ7JiXs1kTizko2,SlTMZmnszpYKXBZ7JiXs1kTizko2,,,,,,,,,,,,,,,,,chosen stimuli: images/choice_trial_14.png,,,,,5c3d48955fd1050001a99364,17:05:24,27/03/2024
html-keyboard-response,216,495808,0.0-89.0-2.0,,,,delaylearn,learning,feedback_duration_window,SlTMZmnszpYKXBZ7JiXs1kTizko2,SlTMZmnszpYKXBZ7JiXs1kTizko2,,,,,,,,,,,,,,,,,,7000.0,,,,5c3d48955fd1050001a99364,17:05:24,27/03/2024
html-keyboard-response,217,497325,0.0-89.0-3.0,,<div style='margin:auto;width: auto; font-size: 150%'><span style='font-weight: bold; font-size: 100px; color: green;'>+10 points!</span><br><br></div>,,delaylearn,learning,feedback_image_window,SlTMZmnszpYKXBZ7JiXs1kTizko2,SlTMZmnszpYKXBZ7JiXs1kTizko2,,,,,,,,,,,,,,,,,,,,,,5c3d48955fd1050001a99364,17:05:24,27/03/2024
html-keyboard-response,218,497826,0.0-90.0-0.0,,,,,,mood_trial_fixation,SlTMZmnszpYKXBZ7JiXs1kTizko2,,,,,,,,,,,,,,,,,,,,,,,5c3d48955fd1050001a99364,17:05:24,27/03/2024
lmdlab-html-vas-response,219,502494,0.0-90.0-1.0,3652.0,How happy are you right now?,0.2762345679012346,delaylearn,learning,mood_trial,SlTMZmnszpYKXBZ7JiXs1kTizko2,SlTMZmnszpYKXBZ7JiXs1kTizko2,,,,,,,,,,,,,,,,,,,,"['Very unhappy', 'Very happy']",,5c3d48955fd1050001a99364,17:05:24,27/03/2024
html-keyboard-response,220,504336,0.0-91.0,,"<div style=""font-size:100px;"">+</div>",,delaylearn,learning,ITI,SlTMZmnszpYKXBZ7JiXs1kTizko2,SlTMZmnszpYKXBZ7JiXs1kTizko2,,,,,,,,,,,,,,,,,,,1833.0,,,5c3d48955fd1050001a99364,17:05:24,27/03/2024
html-keyboard-response,221,505390,0.0-92.0-0.0,1052.4000000953674,"<div style=""display: flex; flex-direction: column; align-items: center; margin-top: -40px;""><img src=""images/pattern_3.png"" style=""width: 234px; height: 230px; margin-top: -50px;""><div style=""display: flex; justify-content: space-between; margin-top: 33px;""><img src=""images/choice_trial_13.png"" style=""width: 408px; height: 417px; margin-right: 200px;""><img src=""images/choice_trial_10.png"" style=""width: 408px; height: 417px;""></div></div>",j,delaylearn,learning,trial,SlTMZmnszpYKXBZ7JiXs1kTizko2,SlTMZmnszpYKXBZ7JiXs1kTizko2,3.0,images/choice_trial_13.png,images/choice_trial_10.png,images/pattern_3.png,j,f,7000.0,13.0,10.0,2.0,0.0,40.0,0.0,1.0,10.0,210.0,,,,,,5c3d48955fd1050001a99364,17:05:24,27/03/2024
html-keyboard-response,222,506407,0.0-92.0-1.0,,"<div style=""display: flex; flex-direction: column; align-items: center; margin-top: -40px;""><img src=""images/pattern_3.png"" style=""width: 234px; height: 230px; margin-top: -50px;""><div style=""display: flex; justify-content: space-between; margin-top: 33px;""><img src=""images/choice_trial_10.png"" style=""width: 408px; height: 417px; margin-left:608px;""></div></div>",,delaylearn,learning,display_response,SlTMZmnszpYKXBZ7JiXs1kTizko2,SlTMZmnszpYKXBZ7JiXs1kTizko2,,,,,,,,,,,,,,,,,chosen stimuli: images/choice_trial_10.png,,,,,5c3d48955fd1050001a99364,17:05:24,27/03/2024
html-keyboard-response,223,513423,0.0-92.0-2.0,,,,delaylearn,learning,feedback_duration_window,SlTMZmnszpYKXBZ7JiXs1kTizko2,SlTMZmnszpYKXBZ7JiXs1kTizko2,,,,,,,,,,,,,,,,,,7000.0,,,,5c3d48955fd1050001a99364,17:05:24,27/03/2024
html-keyboard-response,224,514939,0.0-92.0-3.0,,<div style='margin:auto;width: auto; font-size: 150%'><span style='font-weight: bold; font-size: 100px; color: green;'>+10 points!</span><br><br></div>,,delaylearn,learning,feedback_image_window,SlTMZmnszpYKXBZ7JiXs1kTizko2,SlTMZmnszpYKXBZ7JiXs1kTizko2,,,,,,,,,,,,,,,,,,,,,,5c3d48955fd1050001a99364,17:05:24,27/03/2024
html-keyboard-response,225,516956,0.0-93.0,,"<div style=""font-size:100px;"">+</div>",,delaylearn,learning,ITI,SlTMZmnszpYKXBZ7JiXs1kTizko2,SlTMZmnszpYKXBZ7JiXs1kTizko2,,,,,,,,,,,,,,,,,,,2008.0,,,5c3d48955fd1050001a99364,17:05:24,27/03/2024
html-keyboard-response,226,518015,0.0-94.0-0.0,1057.5,"<div style=""display: flex; flex-direction: column; align-items: center; margin-top: -40px;""><img src=""images/pattern_7.png"" style=""width: 234px; height: 230px; margin-top: -50px;""><div style=""display: flex; justify-content: space-between; margin-top: 33px;""><img src=""images/choice_trial_12.png"" style=""width: 408px; height: 417px; margin-right: 200px;""><img src=""images/choice_trial_6.png"" style=""width: 408px; height: 417px;""></div></div>",f,delaylearn,learning,trial,SlTMZmnszpYKXBZ7JiXs1kTizko2,SlTMZmnszpYKXBZ7JiXs1kTizko2,3.0,images/choice_trial_12.png,images/choice_trial_6.png,images/pattern_7.png,j,j,750.0,12.0,6.0,6.0,1.0,41.0,0.0,0.0,12.0,210.0,,,,,,5c3d48955fd1050001a99364,17:05:24,27/03/2024
html-keyboard-response,227,519021,0.0-94.0-1.0,,"<div style=""display: flex; flex-direction: column; align-items: center; margin-top: -40px;""><img src=""images/pattern_7.png"" style=""width: 234px; height: 230px; margin-top: -50px;""><div style=""display: flex; justify-content: space-between; margin-top: 33px;""><img src=""images/choice_trial_12.png"" style=""width: 408px; height: 417px; margin-right: 608px;""></div></div>",,delaylearn,learning,display_response,SlTMZmnszpYKXBZ7JiXs1kTizko2,SlTMZmnszpYKXBZ7JiXs1kTizko2,,,,,,,,,,,,,,,,,chosen stimuli: images/choice_trial_12.png,,,,,5c3d48955fd1050001a99364,17:05:24,27/03/2024
html-keyboard-response,228,519773,0.0-94.0-2.0,,,,delaylearn,learning,feedback_duration_window,SlTMZmnszpYKXBZ7JiXs1kTizko2,SlTMZmnszpYKXBZ7JiXs1kTizko2,,,,,,,,,,,,,,,,,,750.0,,,,5c3d48955fd1050001a99364,17:05:24,27/03/2024
html-keyboard-response,229,521288,0.0-94.0-3.0,,<div style='margin:auto;width: auto; font-size: 150%'><span style='font-weight: bold; font-size: 100px; color: red;'>0 points!</span><br><br></div>,,delaylearn,learning,feedback_image_window,SlTMZmnszpYKXBZ7JiXs1kTizko2,SlTMZmnszpYKXBZ7JiXs1kTizko2,,,,,,,,,,,,,,,,,,,,,,5c3d48955fd1050001a99364,17:05:24,27/03/2024
html-keyboard-response,230,523430,0.0-95.0,,"<div style=""font-size:100px;"">+</div>",,delaylearn,learning,ITI,SlTMZmnszpYKXBZ7JiXs1kTizko2,SlTMZmnszpYKXBZ7JiXs1kTizko2,,,,,,,,,,,,,,,,,,,2131.0,,,5c3d48955fd1050001a99364,17:05:24,27/03/2024
