trial_type,trial_index,time_elapsed,internal_node_id,rt,stimulus,response,exp_name,exp_stage,test_part,subjectID,databaseID,counterbal,choice_stimuli_1,choice_stimuli_2,pattern_stimuli,rewarded_answer,correct_answer,feedback_duration_times,stim_left,stim_right,pair,leftright_counter,trial,response_correct,response_rewarded,chosen_stim,counter,displayed_choice,feedback_durations,ITI_duration,labels,rest_warning,prolificID,start_time,date
pavlovia,0,483,0.0-0.0,,,,,,,tJfU7vA4Cwff0qF1sQdZzRiWcYH2,,,,,,,,,,,,,,,,,,,,,,,5f58b0c5273d87033903dbe6,16:29:04,27/03/2024
html-keyboard-response,1,3489,0.0-1.0,,"<div style=""font-size:100px;"">+</div>",,delaylearn,learning,pre_fixation,tJfU7vA4Cwff0qF1sQdZzRiWcYH2,,,,,,,,,,,,,,,,,,,,,,,5f58b0c5273d87033903dbe6,16:29:04,27/03/2024
html-keyboard-response,2,4871,0.0-2.0-0.0,1377.0,"<div style=""display: flex; flex-direction: column; align-items: center; margin-top: -40px;""><img src=""images/demo_images/pattern_1.png"" style=""width: 234px; height: 230px; margin-top: -50px;""><div style=""display: flex; justify-content: space-between; margin-top: 33px;""><img src=""images/demo_images/choice_trial_2.png"" style=""width: 408px; height: 417px; margin-right: 200px;""><img src=""images/demo_images/choice_trial_1.png"" style=""width: 408px; height: 417px;""></div></div>",j,delaylearn,learning,trial,tJfU7vA4Cwff0qF1sQdZzRiWcYH2,tJfU7vA4Cwff0qF1sQdZzRiWcYH2,5.0,images/demo_images/choice_trial_2.png,images/demo_images/choice_trial_1.png,images/demo_images/pattern_1.png,j,j,3000.0,2.0,1.0,20.0,1.0,1.0,1.0,1.0,1.0,10.0,,,,,,5f58b0c5273d87033903dbe6,16:29:04,27/03/2024
html-keyboard-response,3,5879,0.0-2.0-1.0,,"<div style=""display: flex; flex-direction: column; align-items: center; margin-top: -40px;""><img src=""images/demo_images/pattern_1.png"" style=""width: 234px; height: 230px; margin-top: -50px;""><div style=""display: flex; justify-content: space-between; margin-top: 33px;""><img src=""images/demo_images/choice_trial_1.png"" style=""width: 408px; height: 417px; margin-left:608px;""></div></div>",,delaylearn,learning,display_response,tJfU7vA4Cwff0qF1sQdZzRiWcYH2,tJfU7vA4Cwff0qF1sQdZzRiWcYH2,,,,,,,,,,,,,,,,,chosen stimuli: images/demo_images/choice_trial_1.png,,,,,5f58b0c5273d87033903dbe6,16:29:04,27/03/2024
html-keyboard-response,4,8895,0.0-2.0-2.0,,,,delaylearn,learning,feedback_duration_window,tJfU7vA4Cwff0qF1sQdZzRiWcYH2,tJfU7vA4Cwff0qF1sQdZzRiWcYH2,,,,,,,,,,,,,,,,,,3000.0,,,,5f58b0c5273d87033903dbe6,16:29:04,27/03/2024
html-keyboard-response,5,10410,0.0-2.0-3.0,,<div style='margin:auto;width: auto; font-size: 150%'><span style='font-weight: bold; font-size: 100px; color: green;'>+10 points!</span><br><br></div>,,delaylearn,learning,feedback_image_window,tJfU7vA4Cwff0qF1sQdZzRiWcYH2,tJfU7vA4Cwff0qF1sQdZzRiWcYH2,,,,,,,,,,,,,,,,,,,,,,5f58b0c5273d87033903dbe6,16:29:04,27/03/2024
html-keyboard-response,6,12159,0.0-3.0,,"<div style=""font-size:100px;"">+</div>",,delaylearn,learning,ITI,tJfU7vA4Cwff0qF1sQdZzRiWcYH2,tJfU7vA4Cwff0qF1sQdZzRiWcYH2,,,,,,,,,,,,,,,,,,,1740.0,,,5f58b0c5273d87033903dbe6,16:29:04,27/03/2024
html-keyboard-response,7,14611,0.0-4.0-0.0,2449.0,"<div style=""display: flex; flex-direction: column; align-items: center; margin-top: -40px;""><img src=""images/demo_images/pattern_1.png"" style=""width: 234px; height: 230px; margin-top: -50px;""><div style=""display: flex; justify-content: space-between; margin-top: 33px;""><img src=""images/demo_images/choice_trial_2.png"" style=""width: 408px; height: 417px; margin-right: 200px;""><img src=""images/demo_images/choice_trial_1.png"" style=""width: 408px; height: 417px;""></div></div>",f,delaylearn,learning,trial,tJfU7vA4Cwff0qF1sQdZzRiWcYH2,tJfU7vA4Cwff0qF1sQdZzRiWcYH2,5.0,images/demo_images/choice_trial_2.png,images/demo_images/choice_trial_1.png,images/demo_images/pattern_1.png,j,j,3000.0,2.0,1.0,20.0,1.0,2.0,0.0,0.0,2.0,10.0,,,,,,5f58b0c5273d87033903dbe6,16:29:04,27/03/2024
html-keyboard-response,8,15618,0.0-4.0-1.0,,"<div style=""display: flex; flex-direction: column; align-items: center; margin-top: -40px;""><img src=""images/demo_images/pattern_1.png"" style=""width: 234px; height: 230px; margin-top: -50px;""><div style=""display: flex; justify-content: space-between; margin-top: 33px;""><img src=""images/demo_images/choice_trial_2.png"" style=""width: 408px; height: 417px; margin-right: 608px;""></div></div>",,delaylearn,learning,display_response,tJfU7vA4Cwff0qF1sQdZzRiWcYH2,tJfU7vA4Cwff0qF1sQdZzRiWcYH2,,,,,,,,,,,,,,,,,chosen stimuli: images/demo_images/choice_trial_2.png,,,,,5f58b0c5273d87033903dbe6,16:29:04,27/03/2024
html-keyboard-response,9,18625,0.0-4.0-2.0,,,,delaylearn,learning,feedback_duration_window,tJfU7vA4Cwff0qF1sQdZzRiWcYH2,tJfU7vA4Cwff0qF1sQdZzRiWcYH2,,,,,,,,,,,,,,,,,,3000.0,,,,5f58b0c5273d87033903dbe6,16:29:04,27/03/2024
html-keyboard-response,10,20131,0.0-4.0-3.0,,<div style='margin:auto;width: auto; font-size: 150%'><span style='font-weight: bold; font-size: 100px; color: red;'>0 points!</span><br><br></div>,,delaylearn,learning,feedback_image_window,tJfU7vA4Cwff0qF1sQdZzRiWcYH2,tJfU7vA4Cwff0qF1sQdZzRiWcYH2,,,,,,,,,,,,,,,,,,,,,,5f58b0c5273d87033903dbe6,16:29:04,27/03/2024
html-keyboard-response,11,21920,0.0-5.0,,"<div style=""font-size:100px;"">+</div>",,delaylearn,learning,ITI,tJfU7vA4Cwff0qF1sQdZzRiWcYH2,tJfU7vA4Cwff0qF1sQdZzRiWcYH2,,,,,,,,,,,,,,,,,,,1779.0,,,5f58b0c5273d87033903dbe6,16:29:04,27/03/2024
html-keyboard-response,12,23087,0.0-6.0-0.0,1162.5,"<div style=""display: flex; flex-direction: column; align-items: center; margin-top: -40px;""><img src=""images/demo_images/pattern_1.png"" style=""width: 234px; height: 230px; margin-top: -50px;""><div style=""display: flex; justify-content: space-between; margin-top: 33px;""><img src=""images/demo_images/choice_trial_1.png"" style=""width: 408px; height: 417px; margin-right: 200px;""><img src=""images/demo_images/choice_trial_2.png"" style=""width: 408px; height: 417px;""></div></div>",f,delaylearn,learning,trial,tJfU7vA4Cwff0qF1sQdZzRiWcYH2,tJfU7vA4Cwff0qF1sQdZzRiWcYH2,5.0,images/demo_images/choice_trial_1.png,images/demo_images/choice_trial_2.png,images/demo_images/pattern_1.png,j,f,3000.0,1.0,2.0,20.0,0.0,3.0,1.0,0.0,1.0,10.0,,,,,,5f58b0c5273d87033903dbe6,16:29:04,27/03/2024
html-keyboard-response,13,24091,0.0-6.0-1.0,,"<div style=""display: flex; flex-direction: column; align-items: center; margin-top: -40px;""><img src=""images/demo_images/pattern_1.png"" style=""width: 234px; height: 230px; margin-top: -50px;""><div style=""display: flex; justify-content: space-between; margin-top: 33px;""><img src=""images/demo_images/choice_trial_1.png"" style=""width: 408px; height: 417px; margin-right: 608px;""></div></div>",,delaylearn,learning,display_response,tJfU7vA4Cwff0qF1sQdZzRiWcYH2,tJfU7vA4Cwff0qF1sQdZzRiWcYH2,,,,,,,,,,,,,,,,,chosen stimuli: images/demo_images/choice_trial_1.png,,,,,5f58b0c5273d87033903dbe6,16:29:04,27/03/2024
html-keyboard-response,14,27096,0.0-6.0-2.0,,,,delaylearn,learning,feedback_duration_window,tJfU7vA4Cwff0qF1sQdZzRiWcYH2,tJfU7vA4Cwff0qF1sQdZzRiWcYH2,,,,,,,,,,,,,,,,,,3000.0,,,,5f58b0c5273d87033903dbe6,16:29:04,27/03/2024
html-keyboard-response,15,28613,0.0-6.0-3.0,,<div style='margin:auto;width: auto; font-size: 150%'><span style='font-weight: bold; font-size: 100px; color: red;'>0 points!</span><br><br></div>,,delaylearn,learning,feedback_image_window,tJfU7vA4Cwff0qF1sQdZzRiWcYH2,tJfU7vA4Cwff0qF1sQdZzRiWcYH2,,,,,,,,,,,,,,,,,,,,,,5f58b0c5273d87033903dbe6,16:29:04,27/03/2024
html-keyboard-response,16,30891,0.0-7.0,,"<div style=""font-size:100px;"">+</div>",,delaylearn,learning,ITI,tJfU7vA4Cwff0qF1sQdZzRiWcYH2,tJfU7vA4Cwff0qF1sQdZzRiWcYH2,,,,,,,,,,,,,,,,,,,2276.0,,,5f58b0c5273d87033903dbe6,16:29:04,27/03/2024
html-keyboard-response,17,32278,0.0-8.0-0.0,1384.5999999046326,"<div style=""display: flex; flex-direction: column; align-items: center; margin-top: -40px;""><img src=""images/demo_images/pattern_1.png"" style=""width: 234px; height: 230px; margin-top: -50px;""><div style=""display: flex; justify-content: space-between; margin-top: 33px;""><img src=""images/demo_images/choice_trial_1.png"" style=""width: 408px; height: 417px; margin-right: 200px;""><img src=""images/demo_images/choice_trial_2.png"" style=""width: 408px; height: 417px;""></div></div>",j,delaylearn,learning,trial,tJfU7vA4Cwff0qF1sQdZzRiWcYH2,tJfU7vA4Cwff0qF1sQdZzRiWcYH2,5.0,images/demo_images/choice_trial_1.png,images/demo_images/choice_trial_2.png,images/demo_images/pattern_1.png,f,f,3000.0,1.0,2.0,20.0,0.0,4.0,0.0,0.0,2.0,10.0,,,,,,5f58b0c5273d87033903dbe6,16:29:04,27/03/2024
html-keyboard-response,18,33283,0.0-8.0-1.0,,"<div style=""display: flex; flex-direction: column; align-items: center; margin-top: -40px;""><img src=""images/demo_images/pattern_1.png"" style=""width: 234px; height: 230px; margin-top: -50px;""><div style=""display: flex; justify-content: space-between; margin-top: 33px;""><img src=""images/demo_images/choice_trial_2.png"" style=""width: 408px; height: 417px; margin-left:608px;""></div></div>",,delaylearn,learning,display_response,tJfU7vA4Cwff0qF1sQdZzRiWcYH2,tJfU7vA4Cwff0qF1sQdZzRiWcYH2,,,,,,,,,,,,,,,,,chosen stimuli: images/demo_images/choice_trial_2.png,,,,,5f58b0c5273d87033903dbe6,16:29:04,27/03/2024
html-keyboard-response,19,36295,0.0-8.0-2.0,,,,delaylearn,learning,feedback_duration_window,tJfU7vA4Cwff0qF1sQdZzRiWcYH2,tJfU7vA4Cwff0qF1sQdZzRiWcYH2,,,,,,,,,,,,,,,,,,3000.0,,,,5f58b0c5273d87033903dbe6,16:29:04,27/03/2024
html-keyboard-response,20,37806,0.0-8.0-3.0,,<div style='margin:auto;width: auto; font-size: 150%'><span style='font-weight: bold; font-size: 100px; color: red;'>0 points!</span><br><br></div>,,delaylearn,learning,feedback_image_window,tJfU7vA4Cwff0qF1sQdZzRiWcYH2,tJfU7vA4Cwff0qF1sQdZzRiWcYH2,,,,,,,,,,,,,,,,,,,,,,5f58b0c5273d87033903dbe6,16:29:04,27/03/2024
html-keyboard-response,21,38313,0.0-9.0-0.0,,,,,,mood_trial_fixation,tJfU7vA4Cwff0qF1sQdZzRiWcYH2,,,,,,,,,,,,,,,,,,,,,,,5f58b0c5273d87033903dbe6,16:29:04,27/03/2024
lmdlab-html-vas-response,22,44451,0.0-9.0-1.0,5121.0,How happy are you right now?,0.020061728395061727,delaylearn,learning,mood_trial,tJfU7vA4Cwff0qF1sQdZzRiWcYH2,tJfU7vA4Cwff0qF1sQdZzRiWcYH2,,,,,,,,,,,,,,,,,,,,"['Very unhappy', 'Very happy']",,5f58b0c5273d87033903dbe6,16:29:04,27/03/2024
html-keyboard-response,23,46599,0.0-10.0,,"<div style=""font-size:100px;"">+</div>",,delaylearn,learning,ITI,tJfU7vA4Cwff0qF1sQdZzRiWcYH2,tJfU7vA4Cwff0qF1sQdZzRiWcYH2,,,,,,,,,,,,,,,,,,,2137.0,,,5f58b0c5273d87033903dbe6,16:29:04,27/03/2024
html-keyboard-response,24,48546,0.0-11.0-0.0,1946.3000000715256,"<div style=""display: flex; flex-direction: column; align-items: center; margin-top: -40px;""><img src=""images/demo_images/pattern_1.png"" style=""width: 234px; height: 230px; margin-top: -50px;""><div style=""display: flex; justify-content: space-between; margin-top: 33px;""><img src=""images/demo_images/choice_trial_2.png"" style=""width: 408px; height: 417px; margin-right: 200px;""><img src=""images/demo_images/choice_trial_1.png"" style=""width: 408px; height: 417px;""></div></div>",f,delaylearn,learning,trial,tJfU7vA4Cwff0qF1sQdZzRiWcYH2,tJfU7vA4Cwff0qF1sQdZzRiWcYH2,5.0,images/demo_images/choice_trial_2.png,images/demo_images/choice_trial_1.png,images/demo_images/pattern_1.png,j,j,3000.0,2.0,1.0,20.0,1.0,5.0,0.0,0.0,2.0,10.0,,,,,,5f58b0c5273d87033903dbe6,16:29:04,27/03/2024
html-keyboard-response,25,49552,0.0-11.0-1.0,,"<div style=""display: flex; flex-direction: column; align-items: center; margin-top: -40px;""><img src=""images/demo_images/pattern_1.png"" style=""width: 234px; height: 230px; margin-top: -50px;""><div style=""display: flex; justify-content: space-between; margin-top: 33px;""><img src=""images/demo_images/choice_trial_2.png"" style=""width: 408px; height: 417px; margin-right: 608px;""></div></div>",,delaylearn,learning,display_response,tJfU7vA4Cwff0qF1sQdZzRiWcYH2,tJfU7vA4Cwff0qF1sQdZzRiWcYH2,,,,,,,,,,,,,,,,,chosen stimuli: images/demo_images/choice_trial_2.png,,,,,5f58b0c5273d87033903dbe6,16:29:04,27/03/2024
html-keyboard-response,26,52557,0.0-11.0-2.0,,,,delaylearn,learning,feedback_duration_window,tJfU7vA4Cwff0qF1sQdZzRiWcYH2,tJfU7vA4Cwff0qF1sQdZzRiWcYH2,,,,,,,,,,,,,,,,,,3000.0,,,,5f58b0c5273d87033903dbe6,16:29:04,27/03/2024
html-keyboard-response,27,54064,0.0-11.0-3.0,,<div style='margin:auto;width: auto; font-size: 150%'><span style='font-weight: bold; font-size: 100px; color: red;'>0 points!</span><br><br></div>,,delaylearn,learning,feedback_image_window,tJfU7vA4Cwff0qF1sQdZzRiWcYH2,tJfU7vA4Cwff0qF1sQdZzRiWcYH2,,,,,,,,,,,,,,,,,,,,,,5f58b0c5273d87033903dbe6,16:29:04,27/03/2024
html-keyboard-response,28,55980,0.0-12.0,,"<div style=""font-size:100px;"">+</div>",,delaylearn,learning,ITI,tJfU7vA4Cwff0qF1sQdZzRiWcYH2,tJfU7vA4Cwff0qF1sQdZzRiWcYH2,,,,,,,,,,,,,,,,,,,1899.0,,,5f58b0c5273d87033903dbe6,16:29:04,27/03/2024
html-keyboard-response,29,58099,0.0-13.0-0.0,2115.899999976158,"<div style=""display: flex; flex-direction: column; align-items: center; margin-top: -40px;""><img src=""images/demo_images/pattern_1.png"" style=""width: 234px; height: 230px; margin-top: -50px;""><div style=""display: flex; justify-content: space-between; margin-top: 33px;""><img src=""images/demo_images/choice_trial_1.png"" style=""width: 408px; height: 417px; margin-right: 200px;""><img src=""images/demo_images/choice_trial_2.png"" style=""width: 408px; height: 417px;""></div></div>",j,delaylearn,learning,trial,tJfU7vA4Cwff0qF1sQdZzRiWcYH2,tJfU7vA4Cwff0qF1sQdZzRiWcYH2,5.0,images/demo_images/choice_trial_1.png,images/demo_images/choice_trial_2.png,images/demo_images/pattern_1.png,f,f,3000.0,1.0,2.0,20.0,0.0,6.0,0.0,0.0,2.0,10.0,,,,,,5f58b0c5273d87033903dbe6,16:29:04,27/03/2024
html-keyboard-response,30,59113,0.0-13.0-1.0,,"<div style=""display: flex; flex-direction: column; align-items: center; margin-top: -40px;""><img src=""images/demo_images/pattern_1.png"" style=""width: 234px; height: 230px; margin-top: -50px;""><div style=""display: flex; justify-content: space-between; margin-top: 33px;""><img src=""images/demo_images/choice_trial_2.png"" style=""width: 408px; height: 417px; margin-left:608px;""></div></div>",,delaylearn,learning,display_response,tJfU7vA4Cwff0qF1sQdZzRiWcYH2,tJfU7vA4Cwff0qF1sQdZzRiWcYH2,,,,,,,,,,,,,,,,,chosen stimuli: images/demo_images/choice_trial_2.png,,,,,5f58b0c5273d87033903dbe6,16:29:04,27/03/2024
html-keyboard-response,31,62126,0.0-13.0-2.0,,,,delaylearn,learning,feedback_duration_window,tJfU7vA4Cwff0qF1sQdZzRiWcYH2,tJfU7vA4Cwff0qF1sQdZzRiWcYH2,,,,,,,,,,,,,,,,,,3000.0,,,,5f58b0c5273d87033903dbe6,16:29:04,27/03/2024
html-keyboard-response,32,63637,0.0-13.0-3.0,,<div style='margin:auto;width: auto; font-size: 150%'><span style='font-weight: bold; font-size: 100px; color: red;'>0 points!</span><br><br></div>,,delaylearn,learning,feedback_image_window,tJfU7vA4Cwff0qF1sQdZzRiWcYH2,tJfU7vA4Cwff0qF1sQdZzRiWcYH2,,,,,,,,,,,,,,,,,,,,,,5f58b0c5273d87033903dbe6,16:29:04,27/03/2024
html-keyboard-response,33,66081,0.0-14.0,,"<div style=""font-size:100px;"">+</div>",,delaylearn,learning,ITI,tJfU7vA4Cwff0qF1sQdZzRiWcYH2,tJfU7vA4Cwff0qF1sQdZzRiWcYH2,,,,,,,,,,,,,,,,,,,2438.0,,,5f58b0c5273d87033903dbe6,16:29:04,27/03/2024
html-keyboard-response,34,67071,0.0-15.0-0.0,985.7999999523163,"<div style=""display: flex; flex-direction: column; align-items: center; margin-top: -40px;""><img src=""images/demo_images/pattern_1.png"" style=""width: 234px; height: 230px; margin-top: -50px;""><div style=""display: flex; justify-content: space-between; margin-top: 33px;""><img src=""images/demo_images/choice_trial_2.png"" style=""width: 408px; height: 417px; margin-right: 200px;""><img src=""images/demo_images/choice_trial_1.png"" style=""width: 408px; height: 417px;""></div></div>",j,delaylearn,learning,trial,tJfU7vA4Cwff0qF1sQdZzRiWcYH2,tJfU7vA4Cwff0qF1sQdZzRiWcYH2,5.0,images/demo_images/choice_trial_2.png,images/demo_images/choice_trial_1.png,images/demo_images/pattern_1.png,j,j,3000.0,2.0,1.0,20.0,1.0,7.0,1.0,1.0,1.0,20.0,,,,,,5f58b0c5273d87033903dbe6,16:29:04,27/03/2024
html-keyboard-response,35,68076,0.0-15.0-1.0,,"<div style=""display: flex; flex-direction: column; align-items: center; margin-top: -40px;""><img src=""images/demo_images/pattern_1.png"" style=""width: 234px; height: 230px; margin-top: -50px;""><div style=""display: flex; justify-content: space-between; margin-top: 33px;""><img src=""images/demo_images/choice_trial_1.png"" style=""width: 408px; height: 417px; margin-left:608px;""></div></div>",,delaylearn,learning,display_response,tJfU7vA4Cwff0qF1sQdZzRiWcYH2,tJfU7vA4Cwff0qF1sQdZzRiWcYH2,,,,,,,,,,,,,,,,,chosen stimuli: images/demo_images/choice_trial_1.png,,,,,5f58b0c5273d87033903dbe6,16:29:04,27/03/2024
html-keyboard-response,36,71078,0.0-15.0-2.0,,,,delaylearn,learning,feedback_duration_window,tJfU7vA4Cwff0qF1sQdZzRiWcYH2,tJfU7vA4Cwff0qF1sQdZzRiWcYH2,,,,,,,,,,,,,,,,,,3000.0,,,,5f58b0c5273d87033903dbe6,16:29:04,27/03/2024
html-keyboard-response,37,72589,0.0-15.0-3.0,,<div style='margin:auto;width: auto; font-size: 150%'><span style='font-weight: bold; font-size: 100px; color: green;'>+10 points!</span><br><br></div>,,delaylearn,learning,feedback_image_window,tJfU7vA4Cwff0qF1sQdZzRiWcYH2,tJfU7vA4Cwff0qF1sQdZzRiWcYH2,,,,,,,,,,,,,,,,,,,,,,5f58b0c5273d87033903dbe6,16:29:04,27/03/2024
html-keyboard-response,38,74637,0.0-16.0,,"<div style=""font-size:100px;"">+</div>",,delaylearn,learning,ITI,tJfU7vA4Cwff0qF1sQdZzRiWcYH2,tJfU7vA4Cwff0qF1sQdZzRiWcYH2,,,,,,,,,,,,,,,,,,,2039.0,,,5f58b0c5273d87033903dbe6,16:29:04,27/03/2024
html-keyboard-response,39,75832,0.0-17.0-0.0,1192.3999999761581,"<div style=""display: flex; flex-direction: column; align-items: center; margin-top: -40px;""><img src=""images/demo_images/pattern_1.png"" style=""width: 234px; height: 230px; margin-top: -50px;""><div style=""display: flex; justify-content: space-between; margin-top: 33px;""><img src=""images/demo_images/choice_trial_1.png"" style=""width: 408px; height: 417px; margin-right: 200px;""><img src=""images/demo_images/choice_trial_2.png"" style=""width: 408px; height: 417px;""></div></div>",f,delaylearn,learning,trial,tJfU7vA4Cwff0qF1sQdZzRiWcYH2,tJfU7vA4Cwff0qF1sQdZzRiWcYH2,5.0,images/demo_images/choice_trial_1.png,images/demo_images/choice_trial_2.png,images/demo_images/pattern_1.png,f,f,3000.0,1.0,2.0,20.0,0.0,8.0,1.0,1.0,1.0,30.0,,,,,,5f58b0c5273d87033903dbe6,16:29:04,27/03/2024
html-keyboard-response,40,76835,0.0-17.0-1.0,,"<div style=""display: flex; flex-direction: column; align-items: center; margin-top: -40px;""><img src=""images/demo_images/pattern_1.png"" style=""width: 234px; height: 230px; margin-top: -50px;""><div style=""display: flex; justify-content: space-between; margin-top: 33px;""><img src=""images/demo_images/choice_trial_1.png"" style=""width: 408px; height: 417px; margin-right: 608px;""></div></div>",,delaylearn,learning,display_response,tJfU7vA4Cwff0qF1sQdZzRiWcYH2,tJfU7vA4Cwff0qF1sQdZzRiWcYH2,,,,,,,,,,,,,,,,,chosen stimuli: images/demo_images/choice_trial_1.png,,,,,5f58b0c5273d87033903dbe6,16:29:04,27/03/2024
html-keyboard-response,41,79847,0.0-17.0-2.0,,,,delaylearn,learning,feedback_duration_window,tJfU7vA4Cwff0qF1sQdZzRiWcYH2,tJfU7vA4Cwff0qF1sQdZzRiWcYH2,,,,,,,,,,,,,,,,,,3000.0,,,,5f58b0c5273d87033903dbe6,16:29:04,27/03/2024
html-keyboard-response,42,81358,0.0-17.0-3.0,,<div style='margin:auto;width: auto; font-size: 150%'><span style='font-weight: bold; font-size: 100px; color: green;'>+10 points!</span><br><br></div>,,delaylearn,learning,feedback_image_window,tJfU7vA4Cwff0qF1sQdZzRiWcYH2,tJfU7vA4Cwff0qF1sQdZzRiWcYH2,,,,,,,,,,,,,,,,,,,,,,5f58b0c5273d87033903dbe6,16:29:04,27/03/2024
html-button-response,43,86778,0.0-18.0,5418.5,"
  <div style=""display: flex; align-items: center; justify-content: center; height: 80vh;"">
  <div>
          <img src=""images/inst_demo_finish.png"" style=""width: 80vw; height:auto;"">
          <br><br>
      </div>
      <br><br>
  </div>",0,,,,tJfU7vA4Cwff0qF1sQdZzRiWcYH2,,,,,,,,,,,,,,,,,,,,,,,5f58b0c5273d87033903dbe6,16:29:04,27/03/2024
html-keyboard-response,44,91838,0.0-19.0,5058.399999976158,"
  <div style=""display: flex; align-items: center; justify-content: center; height: 80vh;"">
  <div>
          <img src=""images/inst_6.png"" style=""width: 80vw; height:auto;"">
          <br><br>
      </div>
      <br><br>
  </div>",f,,,,tJfU7vA4Cwff0qF1sQdZzRiWcYH2,,,,,,,,,,,,,,,,,,,,,,,5f58b0c5273d87033903dbe6,16:29:04,27/03/2024
html-keyboard-response,45,94850,0.0-20.0,,"<div style=""font-size:100px;"">+</div>",,delaylearn,learning,pre_fixation,tJfU7vA4Cwff0qF1sQdZzRiWcYH2,,,,,,,,,,,,,,,,,,,,,,,5f58b0c5273d87033903dbe6,16:29:04,27/03/2024
html-keyboard-response,46,97167,0.0-21.0,,"<div style=""font-size:100px;"">+</div>",,delaylearn,learning,ITI,tJfU7vA4Cwff0qF1sQdZzRiWcYH2,tJfU7vA4Cwff0qF1sQdZzRiWcYH2,,,,,,,,,,,,,,,,,,,2304.0,,,5f58b0c5273d87033903dbe6,16:29:04,27/03/2024
html-keyboard-response,47,99063,0.0-22.0-0.0,1893.8999999761581,"<div style=""display: flex; flex-direction: column; align-items: center; margin-top: -40px;""><img src=""images/pattern_3.png"" style=""width: 234px; height: 230px; margin-top: -50px;""><div style=""display: flex; justify-content: space-between; margin-top: 33px;""><img src=""images/choice_trial_16.png"" style=""width: 408px; height: 417px; margin-right: 200px;""><img src=""images/choice_trial_2.png"" style=""width: 408px; height: 417px;""></div></div>",j,delaylearn,learning,trial,tJfU7vA4Cwff0qF1sQdZzRiWcYH2,tJfU7vA4Cwff0qF1sQdZzRiWcYH2,5.0,images/choice_trial_16.png,images/choice_trial_2.png,images/pattern_3.png,f,f,7000.0,16.0,2.0,2.0,0.0,9.0,0.0,0.0,2.0,30.0,,,,,,5f58b0c5273d87033903dbe6,16:29:04,27/03/2024
html-keyboard-response,48,100075,0.0-22.0-1.0,,"<div style=""display: flex; flex-direction: column; align-items: center; margin-top: -40px;""><img src=""images/pattern_3.png"" style=""width: 234px; height: 230px; margin-top: -50px;""><div style=""display: flex; justify-content: space-between; margin-top: 33px;""><img src=""images/choice_trial_2.png"" style=""width: 408px; height: 417px; margin-left:608px;""></div></div>",,delaylearn,learning,display_response,tJfU7vA4Cwff0qF1sQdZzRiWcYH2,tJfU7vA4Cwff0qF1sQdZzRiWcYH2,,,,,,,,,,,,,,,,,chosen stimuli: images/choice_trial_2.png,,,,,5f58b0c5273d87033903dbe6,16:29:04,27/03/2024
html-keyboard-response,49,107084,0.0-22.0-2.0,,,,delaylearn,learning,feedback_duration_window,tJfU7vA4Cwff0qF1sQdZzRiWcYH2,tJfU7vA4Cwff0qF1sQdZzRiWcYH2,,,,,,,,,,,,,,,,,,7000.0,,,,5f58b0c5273d87033903dbe6,16:29:04,27/03/2024
html-keyboard-response,50,108595,0.0-22.0-3.0,,<div style='margin:auto;width: auto; font-size: 150%'><span style='font-weight: bold; font-size: 100px; color: red;'>0 points!</span><br><br></div>,,delaylearn,learning,feedback_image_window,tJfU7vA4Cwff0qF1sQdZzRiWcYH2,tJfU7vA4Cwff0qF1sQdZzRiWcYH2,,,,,,,,,,,,,,,,,,,,,,5f58b0c5273d87033903dbe6,16:29:04,27/03/2024
html-keyboard-response,51,110337,0.0-23.0,,"<div style=""font-size:100px;"">+</div>",,delaylearn,learning,ITI,tJfU7vA4Cwff0qF1sQdZzRiWcYH2,tJfU7vA4Cwff0qF1sQdZzRiWcYH2,,,,,,,,,,,,,,,,,,,1727.0,,,5f58b0c5273d87033903dbe6,16:29:04,27/03/2024
html-keyboard-response,52,112531,0.0-24.0-0.0,2190.5,"<div style=""display: flex; flex-direction: column; align-items: center; margin-top: -40px;""><img src=""images/pattern_7.png"" style=""width: 234px; height: 230px; margin-top: -50px;""><div style=""display: flex; justify-content: space-between; margin-top: 33px;""><img src=""images/choice_trial_10.png"" style=""width: 408px; height: 417px; margin-right: 200px;""><img src=""images/choice_trial_8.png"" style=""width: 408px; height: 417px;""></div></div>",j,delaylearn,learning,trial,tJfU7vA4Cwff0qF1sQdZzRiWcYH2,tJfU7vA4Cwff0qF1sQdZzRiWcYH2,5.0,images/choice_trial_10.png,images/choice_trial_8.png,images/pattern_7.png,j,j,750.0,10.0,8.0,6.0,1.0,10.0,1.0,1.0,8.0,40.0,,,,,,5f58b0c5273d87033903dbe6,16:29:04,27/03/2024
html-keyboard-response,53,113534,0.0-24.0-1.0,,"<div style=""display: flex; flex-direction: column; align-items: center; margin-top: -40px;""><img src=""images/pattern_7.png"" style=""width: 234px; height: 230px; margin-top: -50px;""><div style=""display: flex; justify-content: space-between; margin-top: 33px;""><img src=""images/choice_trial_8.png"" style=""width: 408px; height: 417px; margin-left:608px;""></div></div>",,delaylearn,learning,display_response,tJfU7vA4Cwff0qF1sQdZzRiWcYH2,tJfU7vA4Cwff0qF1sQdZzRiWcYH2,,,,,,,,,,,,,,,,,chosen stimuli: images/choice_trial_8.png,,,,,5f58b0c5273d87033903dbe6,16:29:04,27/03/2024
html-keyboard-response,54,114286,0.0-24.0-2.0,,,,delaylearn,learning,feedback_duration_window,tJfU7vA4Cwff0qF1sQdZzRiWcYH2,tJfU7vA4Cwff0qF1sQdZzRiWcYH2,,,,,,,,,,,,,,,,,,750.0,,,,5f58b0c5273d87033903dbe6,16:29:04,27/03/2024
html-keyboard-response,55,115791,0.0-24.0-3.0,,<div style='margin:auto;width: auto; font-size: 150%'><span style='font-weight: bold; font-size: 100px; color: green;'>+10 points!</span><br><br></div>,,delaylearn,learning,feedback_image_window,tJfU7vA4Cwff0qF1sQdZzRiWcYH2,tJfU7vA4Cwff0qF1sQdZzRiWcYH2,,,,,,,,,,,,,,,,,,,,,,5f58b0c5273d87033903dbe6,16:29:04,27/03/2024
html-keyboard-response,56,118118,0.0-25.0,,"<div style=""font-size:100px;"">+</div>",,delaylearn,learning,ITI,tJfU7vA4Cwff0qF1sQdZzRiWcYH2,tJfU7vA4Cwff0qF1sQdZzRiWcYH2,,,,,,,,,,,,,,,,,,,2316.0,,,5f58b0c5273d87033903dbe6,16:29:04,27/03/2024
html-keyboard-response,57,119846,0.0-26.0-0.0,1724.6000000238419,"<div style=""display: flex; flex-direction: column; align-items: center; margin-top: -40px;""><img src=""images/pattern_4.png"" style=""width: 234px; height: 230px; margin-top: -50px;""><div style=""display: flex; justify-content: space-between; margin-top: 33px;""><img src=""images/choice_trial_11.png"" style=""width: 408px; height: 417px; margin-right: 200px;""><img src=""images/choice_trial_4.png"" style=""width: 408px; height: 417px;""></div></div>",f,delaylearn,learning,trial,tJfU7vA4Cwff0qF1sQdZzRiWcYH2,tJfU7vA4Cwff0qF1sQdZzRiWcYH2,5.0,images/choice_trial_11.png,images/choice_trial_4.png,images/pattern_4.png,f,f,7000.0,11.0,4.0,3.0,0.0,11.0,1.0,1.0,11.0,50.0,,,,,,5f58b0c5273d87033903dbe6,16:29:04,27/03/2024
html-keyboard-response,58,120856,0.0-26.0-1.0,,"<div style=""display: flex; flex-direction: column; align-items: center; margin-top: -40px;""><img src=""images/pattern_4.png"" style=""width: 234px; height: 230px; margin-top: -50px;""><div style=""display: flex; justify-content: space-between; margin-top: 33px;""><img src=""images/choice_trial_11.png"" style=""width: 408px; height: 417px; margin-right: 608px;""></div></div>",,delaylearn,learning,display_response,tJfU7vA4Cwff0qF1sQdZzRiWcYH2,tJfU7vA4Cwff0qF1sQdZzRiWcYH2,,,,,,,,,,,,,,,,,chosen stimuli: images/choice_trial_11.png,,,,,5f58b0c5273d87033903dbe6,16:29:04,27/03/2024
html-keyboard-response,59,127870,0.0-26.0-2.0,,,,delaylearn,learning,feedback_duration_window,tJfU7vA4Cwff0qF1sQdZzRiWcYH2,tJfU7vA4Cwff0qF1sQdZzRiWcYH2,,,,,,,,,,,,,,,,,,7000.0,,,,5f58b0c5273d87033903dbe6,16:29:04,27/03/2024
html-keyboard-response,60,129375,0.0-26.0-3.0,,<div style='margin:auto;width: auto; font-size: 150%'><span style='font-weight: bold; font-size: 100px; color: green;'>+10 points!</span><br><br></div>,,delaylearn,learning,feedback_image_window,tJfU7vA4Cwff0qF1sQdZzRiWcYH2,tJfU7vA4Cwff0qF1sQdZzRiWcYH2,,,,,,,,,,,,,,,,,,,,,,5f58b0c5273d87033903dbe6,16:29:04,27/03/2024
html-keyboard-response,61,131294,0.0-27.0,,"<div style=""font-size:100px;"">+</div>",,delaylearn,learning,ITI,tJfU7vA4Cwff0qF1sQdZzRiWcYH2,tJfU7vA4Cwff0qF1sQdZzRiWcYH2,,,,,,,,,,,,,,,,,,,1903.0,,,5f58b0c5273d87033903dbe6,16:29:04,27/03/2024
html-keyboard-response,62,133447,0.0-28.0-0.0,2149.9000000953674,"<div style=""display: flex; flex-direction: column; align-items: center; margin-top: -40px;""><img src=""images/pattern_5.png"" style=""width: 234px; height: 230px; margin-top: -50px;""><div style=""display: flex; justify-content: space-between; margin-top: 33px;""><img src=""images/choice_trial_13.png"" style=""width: 408px; height: 417px; margin-right: 200px;""><img src=""images/choice_trial_7.png"" style=""width: 408px; height: 417px;""></div></div>",j,delaylearn,learning,trial,tJfU7vA4Cwff0qF1sQdZzRiWcYH2,tJfU7vA4Cwff0qF1sQdZzRiWcYH2,5.0,images/choice_trial_13.png,images/choice_trial_7.png,images/pattern_5.png,j,j,750.0,13.0,7.0,4.0,1.0,12.0,1.0,1.0,7.0,60.0,,,,,,5f58b0c5273d87033903dbe6,16:29:04,27/03/2024
html-keyboard-response,63,134459,0.0-28.0-1.0,,"<div style=""display: flex; flex-direction: column; align-items: center; margin-top: -40px;""><img src=""images/pattern_5.png"" style=""width: 234px; height: 230px; margin-top: -50px;""><div style=""display: flex; justify-content: space-between; margin-top: 33px;""><img src=""images/choice_trial_7.png"" style=""width: 408px; height: 417px; margin-left:608px;""></div></div>",,delaylearn,learning,display_response,tJfU7vA4Cwff0qF1sQdZzRiWcYH2,tJfU7vA4Cwff0qF1sQdZzRiWcYH2,,,,,,,,,,,,,,,,,chosen stimuli: images/choice_trial_7.png,,,,,5f58b0c5273d87033903dbe6,16:29:04,27/03/2024
html-keyboard-response,64,135218,0.0-28.0-2.0,,,,delaylearn,learning,feedback_duration_window,tJfU7vA4Cwff0qF1sQdZzRiWcYH2,tJfU7vA4Cwff0qF1sQdZzRiWcYH2,,,,,,,,,,,,,,,,,,750.0,,,,5f58b0c5273d87033903dbe6,16:29:04,27/03/2024
html-keyboard-response,65,136729,0.0-28.0-3.0,,<div style='margin:auto;width: auto; font-size: 150%'><span style='font-weight: bold; font-size: 100px; color: green;'>+10 points!</span><br><br></div>,,delaylearn,learning,feedback_image_window,tJfU7vA4Cwff0qF1sQdZzRiWcYH2,tJfU7vA4Cwff0qF1sQdZzRiWcYH2,,,,,,,,,,,,,,,,,,,,,,5f58b0c5273d87033903dbe6,16:29:04,27/03/2024
html-keyboard-response,66,138401,0.0-29.0,,"<div style=""font-size:100px;"">+</div>",,delaylearn,learning,ITI,tJfU7vA4Cwff0qF1sQdZzRiWcYH2,tJfU7vA4Cwff0qF1sQdZzRiWcYH2,,,,,,,,,,,,,,,,,,,1668.0,,,5f58b0c5273d87033903dbe6,16:29:04,27/03/2024
html-keyboard-response,67,140819,0.0-30.0-0.0,2416.600000023842,"<div style=""display: flex; flex-direction: column; align-items: center; margin-top: -40px;""><img src=""images/pattern_6.png"" style=""width: 234px; height: 230px; margin-top: -50px;""><div style=""display: flex; justify-content: space-between; margin-top: 33px;""><img src=""images/choice_trial_14.png"" style=""width: 408px; height: 417px; margin-right: 200px;""><img src=""images/choice_trial_9.png"" style=""width: 408px; height: 417px;""></div></div>",f,delaylearn,learning,trial,tJfU7vA4Cwff0qF1sQdZzRiWcYH2,tJfU7vA4Cwff0qF1sQdZzRiWcYH2,5.0,images/choice_trial_14.png,images/choice_trial_9.png,images/pattern_6.png,j,f,750.0,14.0,9.0,5.0,0.0,13.0,1.0,0.0,14.0,60.0,,,,,,5f58b0c5273d87033903dbe6,16:29:04,27/03/2024
html-keyboard-response,68,141826,0.0-30.0-1.0,,"<div style=""display: flex; flex-direction: column; align-items: center; margin-top: -40px;""><img src=""images/pattern_6.png"" style=""width: 234px; height: 230px; margin-top: -50px;""><div style=""display: flex; justify-content: space-between; margin-top: 33px;""><img src=""images/choice_trial_14.png"" style=""width: 408px; height: 417px; margin-right: 608px;""></div></div>",,delaylearn,learning,display_response,tJfU7vA4Cwff0qF1sQdZzRiWcYH2,tJfU7vA4Cwff0qF1sQdZzRiWcYH2,,,,,,,,,,,,,,,,,chosen stimuli: images/choice_trial_14.png,,,,,5f58b0c5273d87033903dbe6,16:29:04,27/03/2024
html-keyboard-response,69,142584,0.0-30.0-2.0,,,,delaylearn,learning,feedback_duration_window,tJfU7vA4Cwff0qF1sQdZzRiWcYH2,tJfU7vA4Cwff0qF1sQdZzRiWcYH2,,,,,,,,,,,,,,,,,,750.0,,,,5f58b0c5273d87033903dbe6,16:29:04,27/03/2024
html-keyboard-response,70,144092,0.0-30.0-3.0,,<div style='margin:auto;width: auto; font-size: 150%'><span style='font-weight: bold; font-size: 100px; color: red;'>0 points!</span><br><br></div>,,delaylearn,learning,feedback_image_window,tJfU7vA4Cwff0qF1sQdZzRiWcYH2,tJfU7vA4Cwff0qF1sQdZzRiWcYH2,,,,,,,,,,,,,,,,,,,,,,5f58b0c5273d87033903dbe6,16:29:04,27/03/2024
html-keyboard-response,71,144595,0.0-31.0-0.0,,,,,,mood_trial_fixation,tJfU7vA4Cwff0qF1sQdZzRiWcYH2,,,,,,,,,,,,,,,,,,,,,,,5f58b0c5273d87033903dbe6,16:29:04,27/03/2024
lmdlab-html-vas-response,72,149396,0.0-31.0-1.0,3794.0,How happy are you right now?,0.09876543209876543,delaylearn,learning,mood_trial,tJfU7vA4Cwff0qF1sQdZzRiWcYH2,tJfU7vA4Cwff0qF1sQdZzRiWcYH2,,,,,,,,,,,,,,,,,,,,"['Very unhappy', 'Very happy']",,5f58b0c5273d87033903dbe6,16:29:04,27/03/2024
html-keyboard-response,73,151536,0.0-32.0,,"<div style=""font-size:100px;"">+</div>",,delaylearn,learning,ITI,tJfU7vA4Cwff0qF1sQdZzRiWcYH2,tJfU7vA4Cwff0qF1sQdZzRiWcYH2,,,,,,,,,,,,,,,,,,,2130.0,,,5f58b0c5273d87033903dbe6,16:29:04,27/03/2024
html-keyboard-response,74,153711,0.0-33.0-0.0,2172.0,"<div style=""display: flex; flex-direction: column; align-items: center; margin-top: -40px;""><img src=""images/pattern_1.png"" style=""width: 234px; height: 230px; margin-top: -50px;""><div style=""display: flex; justify-content: space-between; margin-top: 33px;""><img src=""images/choice_trial_15.png"" style=""width: 408px; height: 417px; margin-right: 200px;""><img src=""images/choice_trial_6.png"" style=""width: 408px; height: 417px;""></div></div>",f,delaylearn,learning,trial,tJfU7vA4Cwff0qF1sQdZzRiWcYH2,tJfU7vA4Cwff0qF1sQdZzRiWcYH2,5.0,images/choice_trial_15.png,images/choice_trial_6.png,images/pattern_1.png,j,j,7000.0,15.0,6.0,1.0,1.0,14.0,0.0,0.0,15.0,60.0,,,,,,5f58b0c5273d87033903dbe6,16:29:04,27/03/2024
html-keyboard-response,75,154718,0.0-33.0-1.0,,"<div style=""display: flex; flex-direction: column; align-items: center; margin-top: -40px;""><img src=""images/pattern_1.png"" style=""width: 234px; height: 230px; margin-top: -50px;""><div style=""display: flex; justify-content: space-between; margin-top: 33px;""><img src=""images/choice_trial_15.png"" style=""width: 408px; height: 417px; margin-right: 608px;""></div></div>",,delaylearn,learning,display_response,tJfU7vA4Cwff0qF1sQdZzRiWcYH2,tJfU7vA4Cwff0qF1sQdZzRiWcYH2,,,,,,,,,,,,,,,,,chosen stimuli: images/choice_trial_15.png,,,,,5f58b0c5273d87033903dbe6,16:29:04,27/03/2024
html-keyboard-response,76,161731,0.0-33.0-2.0,,,,delaylearn,learning,feedback_duration_window,tJfU7vA4Cwff0qF1sQdZzRiWcYH2,tJfU7vA4Cwff0qF1sQdZzRiWcYH2,,,,,,,,,,,,,,,,,,7000.0,,,,5f58b0c5273d87033903dbe6,16:29:04,27/03/2024
html-keyboard-response,77,163244,0.0-33.0-3.0,,<div style='margin:auto;width: auto; font-size: 150%'><span style='font-weight: bold; font-size: 100px; color: red;'>0 points!</span><br><br></div>,,delaylearn,learning,feedback_image_window,tJfU7vA4Cwff0qF1sQdZzRiWcYH2,tJfU7vA4Cwff0qF1sQdZzRiWcYH2,,,,,,,,,,,,,,,,,,,,,,5f58b0c5273d87033903dbe6,16:29:04,27/03/2024
html-keyboard-response,78,164987,0.0-34.0,,"<div style=""font-size:100px;"">+</div>",,delaylearn,learning,ITI,tJfU7vA4Cwff0qF1sQdZzRiWcYH2,tJfU7vA4Cwff0qF1sQdZzRiWcYH2,,,,,,,,,,,,,,,,,,,1738.0,,,5f58b0c5273d87033903dbe6,16:29:04,27/03/2024
html-keyboard-response,79,166252,0.0-35.0-0.0,1262.2000000476837,"<div style=""display: flex; flex-direction: column; align-items: center; margin-top: -40px;""><img src=""images/pattern_3.png"" style=""width: 234px; height: 230px; margin-top: -50px;""><div style=""display: flex; justify-content: space-between; margin-top: 33px;""><img src=""images/choice_trial_2.png"" style=""width: 408px; height: 417px; margin-right: 200px;""><img src=""images/choice_trial_16.png"" style=""width: 408px; height: 417px;""></div></div>",f,delaylearn,learning,trial,tJfU7vA4Cwff0qF1sQdZzRiWcYH2,tJfU7vA4Cwff0qF1sQdZzRiWcYH2,5.0,images/choice_trial_2.png,images/choice_trial_16.png,images/pattern_3.png,f,j,7000.0,2.0,16.0,2.0,1.0,15.0,0.0,1.0,2.0,70.0,,,,,,5f58b0c5273d87033903dbe6,16:29:04,27/03/2024
html-keyboard-response,80,167268,0.0-35.0-1.0,,"<div style=""display: flex; flex-direction: column; align-items: center; margin-top: -40px;""><img src=""images/pattern_3.png"" style=""width: 234px; height: 230px; margin-top: -50px;""><div style=""display: flex; justify-content: space-between; margin-top: 33px;""><img src=""images/choice_trial_2.png"" style=""width: 408px; height: 417px; margin-right: 608px;""></div></div>",,delaylearn,learning,display_response,tJfU7vA4Cwff0qF1sQdZzRiWcYH2,tJfU7vA4Cwff0qF1sQdZzRiWcYH2,,,,,,,,,,,,,,,,,chosen stimuli: images/choice_trial_2.png,,,,,5f58b0c5273d87033903dbe6,16:29:04,27/03/2024
html-keyboard-response,81,174273,0.0-35.0-2.0,,,,delaylearn,learning,feedback_duration_window,tJfU7vA4Cwff0qF1sQdZzRiWcYH2,tJfU7vA4Cwff0qF1sQdZzRiWcYH2,,,,,,,,,,,,,,,,,,7000.0,,,,5f58b0c5273d87033903dbe6,16:29:04,27/03/2024
html-keyboard-response,82,175788,0.0-35.0-3.0,,<div style='margin:auto;width: auto; font-size: 150%'><span style='font-weight: bold; font-size: 100px; color: green;'>+10 points!</span><br><br></div>,,delaylearn,learning,feedback_image_window,tJfU7vA4Cwff0qF1sQdZzRiWcYH2,tJfU7vA4Cwff0qF1sQdZzRiWcYH2,,,,,,,,,,,,,,,,,,,,,,5f58b0c5273d87033903dbe6,16:29:04,27/03/2024
html-keyboard-response,83,178151,0.0-36.0,,"<div style=""font-size:100px;"">+</div>",,delaylearn,learning,ITI,tJfU7vA4Cwff0qF1sQdZzRiWcYH2,tJfU7vA4Cwff0qF1sQdZzRiWcYH2,,,,,,,,,,,,,,,,,,,2357.0,,,5f58b0c5273d87033903dbe6,16:29:04,27/03/2024
html-keyboard-response,84,180103,0.0-37.0-0.0,1948.2999999523163,"<div style=""display: flex; flex-direction: column; align-items: center; margin-top: -40px;""><img src=""images/pattern_5.png"" style=""width: 234px; height: 230px; margin-top: -50px;""><div style=""display: flex; justify-content: space-between; margin-top: 33px;""><img src=""images/choice_trial_7.png"" style=""width: 408px; height: 417px; margin-right: 200px;""><img src=""images/choice_trial_13.png"" style=""width: 408px; height: 417px;""></div></div>",j,delaylearn,learning,trial,tJfU7vA4Cwff0qF1sQdZzRiWcYH2,tJfU7vA4Cwff0qF1sQdZzRiWcYH2,5.0,images/choice_trial_7.png,images/choice_trial_13.png,images/pattern_5.png,f,f,750.0,7.0,13.0,4.0,0.0,16.0,0.0,0.0,13.0,70.0,,,,,,5f58b0c5273d87033903dbe6,16:29:04,27/03/2024
html-keyboard-response,85,181117,0.0-37.0-1.0,,"<div style=""display: flex; flex-direction: column; align-items: center; margin-top: -40px;""><img src=""images/pattern_5.png"" style=""width: 234px; height: 230px; margin-top: -50px;""><div style=""display: flex; justify-content: space-between; margin-top: 33px;""><img src=""images/choice_trial_13.png"" style=""width: 408px; height: 417px; margin-left:608px;""></div></div>",,delaylearn,learning,display_response,tJfU7vA4Cwff0qF1sQdZzRiWcYH2,tJfU7vA4Cwff0qF1sQdZzRiWcYH2,,,,,,,,,,,,,,,,,chosen stimuli: images/choice_trial_13.png,,,,,5f58b0c5273d87033903dbe6,16:29:04,27/03/2024
html-keyboard-response,86,181882,0.0-37.0-2.0,,,,delaylearn,learning,feedback_duration_window,tJfU7vA4Cwff0qF1sQdZzRiWcYH2,tJfU7vA4Cwff0qF1sQdZzRiWcYH2,,,,,,,,,,,,,,,,,,750.0,,,,5f58b0c5273d87033903dbe6,16:29:04,27/03/2024
html-keyboard-response,87,183390,0.0-37.0-3.0,,<div style='margin:auto;width: auto; font-size: 150%'><span style='font-weight: bold; font-size: 100px; color: red;'>0 points!</span><br><br></div>,,delaylearn,learning,feedback_image_window,tJfU7vA4Cwff0qF1sQdZzRiWcYH2,tJfU7vA4Cwff0qF1sQdZzRiWcYH2,,,,,,,,,,,,,,,,,,,,,,5f58b0c5273d87033903dbe6,16:29:04,27/03/2024
html-keyboard-response,88,183901,0.0-38.0-0.0,,,,,,mood_trial_fixation,tJfU7vA4Cwff0qF1sQdZzRiWcYH2,,,,,,,,,,,,,,,,,,,,,,,5f58b0c5273d87033903dbe6,16:29:04,27/03/2024
lmdlab-html-vas-response,89,188659,0.0-38.0-1.0,3742.0,How happy are you right now?,0.13734567901234568,delaylearn,learning,mood_trial,tJfU7vA4Cwff0qF1sQdZzRiWcYH2,tJfU7vA4Cwff0qF1sQdZzRiWcYH2,,,,,,,,,,,,,,,,,,,,"['Very unhappy', 'Very happy']",,5f58b0c5273d87033903dbe6,16:29:04,27/03/2024
html-keyboard-response,90,191142,0.0-39.0,,"<div style=""font-size:100px;"">+</div>",,delaylearn,learning,ITI,tJfU7vA4Cwff0qF1sQdZzRiWcYH2,tJfU7vA4Cwff0qF1sQdZzRiWcYH2,,,,,,,,,,,,,,,,,,,2469.0,,,5f58b0c5273d87033903dbe6,16:29:04,27/03/2024
html-keyboard-response,91,192411,0.0-40.0-0.0,1266.1000000238419,"<div style=""display: flex; flex-direction: column; align-items: center; margin-top: -40px;""><img src=""images/pattern_6.png"" style=""width: 234px; height: 230px; margin-top: -50px;""><div style=""display: flex; justify-content: space-between; margin-top: 33px;""><img src=""images/choice_trial_14.png"" style=""width: 408px; height: 417px; margin-right: 200px;""><img src=""images/choice_trial_9.png"" style=""width: 408px; height: 417px;""></div></div>",j,delaylearn,learning,trial,tJfU7vA4Cwff0qF1sQdZzRiWcYH2,tJfU7vA4Cwff0qF1sQdZzRiWcYH2,5.0,images/choice_trial_14.png,images/choice_trial_9.png,images/pattern_6.png,f,f,750.0,14.0,9.0,5.0,0.0,17.0,0.0,0.0,9.0,70.0,,,,,,5f58b0c5273d87033903dbe6,16:29:04,27/03/2024
html-keyboard-response,92,193419,0.0-40.0-1.0,,"<div style=""display: flex; flex-direction: column; align-items: center; margin-top: -40px;""><img src=""images/pattern_6.png"" style=""width: 234px; height: 230px; margin-top: -50px;""><div style=""display: flex; justify-content: space-between; margin-top: 33px;""><img src=""images/choice_trial_9.png"" style=""width: 408px; height: 417px; margin-left:608px;""></div></div>",,delaylearn,learning,display_response,tJfU7vA4Cwff0qF1sQdZzRiWcYH2,tJfU7vA4Cwff0qF1sQdZzRiWcYH2,,,,,,,,,,,,,,,,,chosen stimuli: images/choice_trial_9.png,,,,,5f58b0c5273d87033903dbe6,16:29:04,27/03/2024
html-keyboard-response,93,194177,0.0-40.0-2.0,,,,delaylearn,learning,feedback_duration_window,tJfU7vA4Cwff0qF1sQdZzRiWcYH2,tJfU7vA4Cwff0qF1sQdZzRiWcYH2,,,,,,,,,,,,,,,,,,750.0,,,,5f58b0c5273d87033903dbe6,16:29:04,27/03/2024
html-keyboard-response,94,195694,0.0-40.0-3.0,,<div style='margin:auto;width: auto; font-size: 150%'><span style='font-weight: bold; font-size: 100px; color: red;'>0 points!</span><br><br></div>,,delaylearn,learning,feedback_image_window,tJfU7vA4Cwff0qF1sQdZzRiWcYH2,tJfU7vA4Cwff0qF1sQdZzRiWcYH2,,,,,,,,,,,,,,,,,,,,,,5f58b0c5273d87033903dbe6,16:29:04,27/03/2024
html-keyboard-response,95,197480,0.0-41.0,,"<div style=""font-size:100px;"">+</div>",,delaylearn,learning,ITI,tJfU7vA4Cwff0qF1sQdZzRiWcYH2,tJfU7vA4Cwff0qF1sQdZzRiWcYH2,,,,,,,,,,,,,,,,,,,1774.0,,,5f58b0c5273d87033903dbe6,16:29:04,27/03/2024
html-keyboard-response,96,198650,0.0-42.0-0.0,1167.4000000953674,"<div style=""display: flex; flex-direction: column; align-items: center; margin-top: -40px;""><img src=""images/pattern_4.png"" style=""width: 234px; height: 230px; margin-top: -50px;""><div style=""display: flex; justify-content: space-between; margin-top: 33px;""><img src=""images/choice_trial_4.png"" style=""width: 408px; height: 417px; margin-right: 200px;""><img src=""images/choice_trial_11.png"" style=""width: 408px; height: 417px;""></div></div>",j,delaylearn,learning,trial,tJfU7vA4Cwff0qF1sQdZzRiWcYH2,tJfU7vA4Cwff0qF1sQdZzRiWcYH2,5.0,images/choice_trial_4.png,images/choice_trial_11.png,images/pattern_4.png,j,j,7000.0,4.0,11.0,3.0,1.0,18.0,1.0,1.0,11.0,80.0,,,,,,5f58b0c5273d87033903dbe6,16:29:04,27/03/2024
html-keyboard-response,97,199659,0.0-42.0-1.0,,"<div style=""display: flex; flex-direction: column; align-items: center; margin-top: -40px;""><img src=""images/pattern_4.png"" style=""width: 234px; height: 230px; margin-top: -50px;""><div style=""display: flex; justify-content: space-between; margin-top: 33px;""><img src=""images/choice_trial_11.png"" style=""width: 408px; height: 417px; margin-left:608px;""></div></div>",,delaylearn,learning,display_response,tJfU7vA4Cwff0qF1sQdZzRiWcYH2,tJfU7vA4Cwff0qF1sQdZzRiWcYH2,,,,,,,,,,,,,,,,,chosen stimuli: images/choice_trial_11.png,,,,,5f58b0c5273d87033903dbe6,16:29:04,27/03/2024
html-keyboard-response,98,206661,0.0-42.0-2.0,,,,delaylearn,learning,feedback_duration_window,tJfU7vA4Cwff0qF1sQdZzRiWcYH2,tJfU7vA4Cwff0qF1sQdZzRiWcYH2,,,,,,,,,,,,,,,,,,7000.0,,,,5f58b0c5273d87033903dbe6,16:29:04,27/03/2024
html-keyboard-response,99,208167,0.0-42.0-3.0,,<div style='margin:auto;width: auto; font-size: 150%'><span style='font-weight: bold; font-size: 100px; color: green;'>+10 points!</span><br><br></div>,,delaylearn,learning,feedback_image_window,tJfU7vA4Cwff0qF1sQdZzRiWcYH2,tJfU7vA4Cwff0qF1sQdZzRiWcYH2,,,,,,,,,,,,,,,,,,,,,,5f58b0c5273d87033903dbe6,16:29:04,27/03/2024
html-keyboard-response,100,210315,0.0-43.0,,"<div style=""font-size:100px;"">+</div>",,delaylearn,learning,ITI,tJfU7vA4Cwff0qF1sQdZzRiWcYH2,tJfU7vA4Cwff0qF1sQdZzRiWcYH2,,,,,,,,,,,,,,,,,,,2140.0,,,5f58b0c5273d87033903dbe6,16:29:04,27/03/2024
html-keyboard-response,101,211822,0.0-44.0-0.0,1505.0,"<div style=""display: flex; flex-direction: column; align-items: center; margin-top: -40px;""><img src=""images/pattern_7.png"" style=""width: 234px; height: 230px; margin-top: -50px;""><div style=""display: flex; justify-content: space-between; margin-top: 33px;""><img src=""images/choice_trial_8.png"" style=""width: 408px; height: 417px; margin-right: 200px;""><img src=""images/choice_trial_10.png"" style=""width: 408px; height: 417px;""></div></div>",j,delaylearn,learning,trial,tJfU7vA4Cwff0qF1sQdZzRiWcYH2,tJfU7vA4Cwff0qF1sQdZzRiWcYH2,5.0,images/choice_trial_8.png,images/choice_trial_10.png,images/pattern_7.png,j,f,750.0,8.0,10.0,6.0,0.0,19.0,0.0,1.0,10.0,90.0,,,,,,5f58b0c5273d87033903dbe6,16:29:04,27/03/2024
html-keyboard-response,102,212834,0.0-44.0-1.0,,"<div style=""display: flex; flex-direction: column; align-items: center; margin-top: -40px;""><img src=""images/pattern_7.png"" style=""width: 234px; height: 230px; margin-top: -50px;""><div style=""display: flex; justify-content: space-between; margin-top: 33px;""><img src=""images/choice_trial_10.png"" style=""width: 408px; height: 417px; margin-left:608px;""></div></div>",,delaylearn,learning,display_response,tJfU7vA4Cwff0qF1sQdZzRiWcYH2,tJfU7vA4Cwff0qF1sQdZzRiWcYH2,,,,,,,,,,,,,,,,,chosen stimuli: images/choice_trial_10.png,,,,,5f58b0c5273d87033903dbe6,16:29:04,27/03/2024
html-keyboard-response,103,213589,0.0-44.0-2.0,,,,delaylearn,learning,feedback_duration_window,tJfU7vA4Cwff0qF1sQdZzRiWcYH2,tJfU7vA4Cwff0qF1sQdZzRiWcYH2,,,,,,,,,,,,,,,,,,750.0,,,,5f58b0c5273d87033903dbe6,16:29:04,27/03/2024
html-keyboard-response,104,215097,0.0-44.0-3.0,,<div style='margin:auto;width: auto; font-size: 150%'><span style='font-weight: bold; font-size: 100px; color: green;'>+10 points!</span><br><br></div>,,delaylearn,learning,feedback_image_window,tJfU7vA4Cwff0qF1sQdZzRiWcYH2,tJfU7vA4Cwff0qF1sQdZzRiWcYH2,,,,,,,,,,,,,,,,,,,,,,5f58b0c5273d87033903dbe6,16:29:04,27/03/2024
html-keyboard-response,105,216800,0.0-45.0,,"<div style=""font-size:100px;"">+</div>",,delaylearn,learning,ITI,tJfU7vA4Cwff0qF1sQdZzRiWcYH2,tJfU7vA4Cwff0qF1sQdZzRiWcYH2,,,,,,,,,,,,,,,,,,,1698.0,,,5f58b0c5273d87033903dbe6,16:29:04,27/03/2024
html-keyboard-response,106,219078,0.0-46.0-0.0,2276.600000023842,"<div style=""display: flex; flex-direction: column; align-items: center; margin-top: -40px;""><img src=""images/pattern_1.png"" style=""width: 234px; height: 230px; margin-top: -50px;""><div style=""display: flex; justify-content: space-between; margin-top: 33px;""><img src=""images/choice_trial_6.png"" style=""width: 408px; height: 417px; margin-right: 200px;""><img src=""images/choice_trial_15.png"" style=""width: 408px; height: 417px;""></div></div>",f,delaylearn,learning,trial,tJfU7vA4Cwff0qF1sQdZzRiWcYH2,tJfU7vA4Cwff0qF1sQdZzRiWcYH2,5.0,images/choice_trial_6.png,images/choice_trial_15.png,images/pattern_1.png,f,f,7000.0,6.0,15.0,1.0,0.0,20.0,1.0,1.0,6.0,100.0,,,,,,5f58b0c5273d87033903dbe6,16:29:04,27/03/2024
html-keyboard-response,107,220092,0.0-46.0-1.0,,"<div style=""display: flex; flex-direction: column; align-items: center; margin-top: -40px;""><img src=""images/pattern_1.png"" style=""width: 234px; height: 230px; margin-top: -50px;""><div style=""display: flex; justify-content: space-between; margin-top: 33px;""><img src=""images/choice_trial_6.png"" style=""width: 408px; height: 417px; margin-right: 608px;""></div></div>",,delaylearn,learning,display_response,tJfU7vA4Cwff0qF1sQdZzRiWcYH2,tJfU7vA4Cwff0qF1sQdZzRiWcYH2,,,,,,,,,,,,,,,,,chosen stimuli: images/choice_trial_6.png,,,,,5f58b0c5273d87033903dbe6,16:29:04,27/03/2024
html-keyboard-response,108,227107,0.0-46.0-2.0,,,,delaylearn,learning,feedback_duration_window,tJfU7vA4Cwff0qF1sQdZzRiWcYH2,tJfU7vA4Cwff0qF1sQdZzRiWcYH2,,,,,,,,,,,,,,,,,,7000.0,,,,5f58b0c5273d87033903dbe6,16:29:04,27/03/2024
html-keyboard-response,109,228612,0.0-46.0-3.0,,<div style='margin:auto;width: auto; font-size: 150%'><span style='font-weight: bold; font-size: 100px; color: green;'>+10 points!</span><br><br></div>,,delaylearn,learning,feedback_image_window,tJfU7vA4Cwff0qF1sQdZzRiWcYH2,tJfU7vA4Cwff0qF1sQdZzRiWcYH2,,,,,,,,,,,,,,,,,,,,,,5f58b0c5273d87033903dbe6,16:29:04,27/03/2024
html-keyboard-response,110,230176,0.0-47.0,,"<div style=""font-size:100px;"">+</div>",,delaylearn,learning,ITI,tJfU7vA4Cwff0qF1sQdZzRiWcYH2,tJfU7vA4Cwff0qF1sQdZzRiWcYH2,,,,,,,,,,,,,,,,,,,1556.0,,,5f58b0c5273d87033903dbe6,16:29:04,27/03/2024
html-keyboard-response,111,232482,0.0-48.0-0.0,2302.2000000476837,"<div style=""display: flex; flex-direction: column; align-items: center; margin-top: -40px;""><img src=""images/pattern_6.png"" style=""width: 234px; height: 230px; margin-top: -50px;""><div style=""display: flex; justify-content: space-between; margin-top: 33px;""><img src=""images/choice_trial_9.png"" style=""width: 408px; height: 417px; margin-right: 200px;""><img src=""images/choice_trial_14.png"" style=""width: 408px; height: 417px;""></div></div>",j,delaylearn,learning,trial,tJfU7vA4Cwff0qF1sQdZzRiWcYH2,tJfU7vA4Cwff0qF1sQdZzRiWcYH2,5.0,images/choice_trial_9.png,images/choice_trial_14.png,images/pattern_6.png,j,j,750.0,9.0,14.0,5.0,1.0,21.0,1.0,1.0,14.0,110.0,,,,,,5f58b0c5273d87033903dbe6,16:29:04,27/03/2024
html-keyboard-response,112,233488,0.0-48.0-1.0,,"<div style=""display: flex; flex-direction: column; align-items: center; margin-top: -40px;""><img src=""images/pattern_6.png"" style=""width: 234px; height: 230px; margin-top: -50px;""><div style=""display: flex; justify-content: space-between; margin-top: 33px;""><img src=""images/choice_trial_14.png"" style=""width: 408px; height: 417px; margin-left:608px;""></div></div>",,delaylearn,learning,display_response,tJfU7vA4Cwff0qF1sQdZzRiWcYH2,tJfU7vA4Cwff0qF1sQdZzRiWcYH2,,,,,,,,,,,,,,,,,chosen stimuli: images/choice_trial_14.png,,,,,5f58b0c5273d87033903dbe6,16:29:04,27/03/2024
html-keyboard-response,113,234256,0.0-48.0-2.0,,,,delaylearn,learning,feedback_duration_window,tJfU7vA4Cwff0qF1sQdZzRiWcYH2,tJfU7vA4Cwff0qF1sQdZzRiWcYH2,,,,,,,,,,,,,,,,,,750.0,,,,5f58b0c5273d87033903dbe6,16:29:04,27/03/2024
html-keyboard-response,114,235757,0.0-48.0-3.0,,<div style='margin:auto;width: auto; font-size: 150%'><span style='font-weight: bold; font-size: 100px; color: green;'>+10 points!</span><br><br></div>,,delaylearn,learning,feedback_image_window,tJfU7vA4Cwff0qF1sQdZzRiWcYH2,tJfU7vA4Cwff0qF1sQdZzRiWcYH2,,,,,,,,,,,,,,,,,,,,,,5f58b0c5273d87033903dbe6,16:29:04,27/03/2024
html-keyboard-response,115,238039,0.0-49.0,,"<div style=""font-size:100px;"">+</div>",,delaylearn,learning,ITI,tJfU7vA4Cwff0qF1sQdZzRiWcYH2,tJfU7vA4Cwff0qF1sQdZzRiWcYH2,,,,,,,,,,,,,,,,,,,2267.0,,,5f58b0c5273d87033903dbe6,16:29:04,27/03/2024
html-keyboard-response,116,239675,0.0-50.0-0.0,1634.1000000238419,"<div style=""display: flex; flex-direction: column; align-items: center; margin-top: -40px;""><img src=""images/pattern_4.png"" style=""width: 234px; height: 230px; margin-top: -50px;""><div style=""display: flex; justify-content: space-between; margin-top: 33px;""><img src=""images/choice_trial_11.png"" style=""width: 408px; height: 417px; margin-right: 200px;""><img src=""images/choice_trial_4.png"" style=""width: 408px; height: 417px;""></div></div>",f,delaylearn,learning,trial,tJfU7vA4Cwff0qF1sQdZzRiWcYH2,tJfU7vA4Cwff0qF1sQdZzRiWcYH2,5.0,images/choice_trial_11.png,images/choice_trial_4.png,images/pattern_4.png,f,f,7000.0,11.0,4.0,3.0,0.0,22.0,1.0,1.0,11.0,120.0,,,,,,5f58b0c5273d87033903dbe6,16:29:04,27/03/2024
html-keyboard-response,117,240686,0.0-50.0-1.0,,"<div style=""display: flex; flex-direction: column; align-items: center; margin-top: -40px;""><img src=""images/pattern_4.png"" style=""width: 234px; height: 230px; margin-top: -50px;""><div style=""display: flex; justify-content: space-between; margin-top: 33px;""><img src=""images/choice_trial_11.png"" style=""width: 408px; height: 417px; margin-right: 608px;""></div></div>",,delaylearn,learning,display_response,tJfU7vA4Cwff0qF1sQdZzRiWcYH2,tJfU7vA4Cwff0qF1sQdZzRiWcYH2,,,,,,,,,,,,,,,,,chosen stimuli: images/choice_trial_11.png,,,,,5f58b0c5273d87033903dbe6,16:29:04,27/03/2024
html-keyboard-response,118,247693,0.0-50.0-2.0,,,,delaylearn,learning,feedback_duration_window,tJfU7vA4Cwff0qF1sQdZzRiWcYH2,tJfU7vA4Cwff0qF1sQdZzRiWcYH2,,,,,,,,,,,,,,,,,,7000.0,,,,5f58b0c5273d87033903dbe6,16:29:04,27/03/2024
html-keyboard-response,119,249196,0.0-50.0-3.0,,<div style='margin:auto;width: auto; font-size: 150%'><span style='font-weight: bold; font-size: 100px; color: green;'>+10 points!</span><br><br></div>,,delaylearn,learning,feedback_image_window,tJfU7vA4Cwff0qF1sQdZzRiWcYH2,tJfU7vA4Cwff0qF1sQdZzRiWcYH2,,,,,,,,,,,,,,,,,,,,,,5f58b0c5273d87033903dbe6,16:29:04,27/03/2024
html-keyboard-response,120,249700,0.0-51.0-0.0,,,,,,mood_trial_fixation,tJfU7vA4Cwff0qF1sQdZzRiWcYH2,,,,,,,,,,,,,,,,,,,,,,,5f58b0c5273d87033903dbe6,16:29:04,27/03/2024
lmdlab-html-vas-response,121,254067,0.0-51.0-1.0,3358.0,How happy are you right now?,0.09722222222222222,delaylearn,learning,mood_trial,tJfU7vA4Cwff0qF1sQdZzRiWcYH2,tJfU7vA4Cwff0qF1sQdZzRiWcYH2,,,,,,,,,,,,,,,,,,,,"['Very unhappy', 'Very happy']",,5f58b0c5273d87033903dbe6,16:29:04,27/03/2024
html-keyboard-response,122,256484,0.0-52.0,,"<div style=""font-size:100px;"">+</div>",,delaylearn,learning,ITI,tJfU7vA4Cwff0qF1sQdZzRiWcYH2,tJfU7vA4Cwff0qF1sQdZzRiWcYH2,,,,,,,,,,,,,,,,,,,2407.0,,,5f58b0c5273d87033903dbe6,16:29:04,27/03/2024
html-keyboard-response,123,258227,0.0-53.0-0.0,1741.2000000476837,"<div style=""display: flex; flex-direction: column; align-items: center; margin-top: -40px;""><img src=""images/pattern_7.png"" style=""width: 234px; height: 230px; margin-top: -50px;""><div style=""display: flex; justify-content: space-between; margin-top: 33px;""><img src=""images/choice_trial_10.png"" style=""width: 408px; height: 417px; margin-right: 200px;""><img src=""images/choice_trial_8.png"" style=""width: 408px; height: 417px;""></div></div>",j,delaylearn,learning,trial,tJfU7vA4Cwff0qF1sQdZzRiWcYH2,tJfU7vA4Cwff0qF1sQdZzRiWcYH2,5.0,images/choice_trial_10.png,images/choice_trial_8.png,images/pattern_7.png,j,j,750.0,10.0,8.0,6.0,1.0,23.0,1.0,1.0,8.0,130.0,,,,,,5f58b0c5273d87033903dbe6,16:29:04,27/03/2024
html-keyboard-response,124,259237,0.0-53.0-1.0,,"<div style=""display: flex; flex-direction: column; align-items: center; margin-top: -40px;""><img src=""images/pattern_7.png"" style=""width: 234px; height: 230px; margin-top: -50px;""><div style=""display: flex; justify-content: space-between; margin-top: 33px;""><img src=""images/choice_trial_8.png"" style=""width: 408px; height: 417px; margin-left:608px;""></div></div>",,delaylearn,learning,display_response,tJfU7vA4Cwff0qF1sQdZzRiWcYH2,tJfU7vA4Cwff0qF1sQdZzRiWcYH2,,,,,,,,,,,,,,,,,chosen stimuli: images/choice_trial_8.png,,,,,5f58b0c5273d87033903dbe6,16:29:04,27/03/2024
html-keyboard-response,125,259992,0.0-53.0-2.0,,,,delaylearn,learning,feedback_duration_window,tJfU7vA4Cwff0qF1sQdZzRiWcYH2,tJfU7vA4Cwff0qF1sQdZzRiWcYH2,,,,,,,,,,,,,,,,,,750.0,,,,5f58b0c5273d87033903dbe6,16:29:04,27/03/2024
html-keyboard-response,126,261509,0.0-53.0-3.0,,<div style='margin:auto;width: auto; font-size: 150%'><span style='font-weight: bold; font-size: 100px; color: green;'>+10 points!</span><br><br></div>,,delaylearn,learning,feedback_image_window,tJfU7vA4Cwff0qF1sQdZzRiWcYH2,tJfU7vA4Cwff0qF1sQdZzRiWcYH2,,,,,,,,,,,,,,,,,,,,,,5f58b0c5273d87033903dbe6,16:29:04,27/03/2024
html-keyboard-response,127,263061,0.0-54.0,,"<div style=""font-size:100px;"">+</div>",,delaylearn,learning,ITI,tJfU7vA4Cwff0qF1sQdZzRiWcYH2,tJfU7vA4Cwff0qF1sQdZzRiWcYH2,,,,,,,,,,,,,,,,,,,1536.0,,,5f58b0c5273d87033903dbe6,16:29:04,27/03/2024
html-keyboard-response,128,265221,0.0-55.0-0.0,2155.600000023842,"<div style=""display: flex; flex-direction: column; align-items: center; margin-top: -40px;""><img src=""images/pattern_1.png"" style=""width: 234px; height: 230px; margin-top: -50px;""><div style=""display: flex; justify-content: space-between; margin-top: 33px;""><img src=""images/choice_trial_15.png"" style=""width: 408px; height: 417px; margin-right: 200px;""><img src=""images/choice_trial_6.png"" style=""width: 408px; height: 417px;""></div></div>",f,delaylearn,learning,trial,tJfU7vA4Cwff0qF1sQdZzRiWcYH2,tJfU7vA4Cwff0qF1sQdZzRiWcYH2,5.0,images/choice_trial_15.png,images/choice_trial_6.png,images/pattern_1.png,f,j,7000.0,15.0,6.0,1.0,1.0,24.0,0.0,1.0,15.0,140.0,,,,,,5f58b0c5273d87033903dbe6,16:29:04,27/03/2024
html-keyboard-response,129,266224,0.0-55.0-1.0,,"<div style=""display: flex; flex-direction: column; align-items: center; margin-top: -40px;""><img src=""images/pattern_1.png"" style=""width: 234px; height: 230px; margin-top: -50px;""><div style=""display: flex; justify-content: space-between; margin-top: 33px;""><img src=""images/choice_trial_15.png"" style=""width: 408px; height: 417px; margin-right: 608px;""></div></div>",,delaylearn,learning,display_response,tJfU7vA4Cwff0qF1sQdZzRiWcYH2,tJfU7vA4Cwff0qF1sQdZzRiWcYH2,,,,,,,,,,,,,,,,,chosen stimuli: images/choice_trial_15.png,,,,,5f58b0c5273d87033903dbe6,16:29:04,27/03/2024
html-keyboard-response,130,273229,0.0-55.0-2.0,,,,delaylearn,learning,feedback_duration_window,tJfU7vA4Cwff0qF1sQdZzRiWcYH2,tJfU7vA4Cwff0qF1sQdZzRiWcYH2,,,,,,,,,,,,,,,,,,7000.0,,,,5f58b0c5273d87033903dbe6,16:29:04,27/03/2024
html-keyboard-response,131,274745,0.0-55.0-3.0,,<div style='margin:auto;width: auto; font-size: 150%'><span style='font-weight: bold; font-size: 100px; color: green;'>+10 points!</span><br><br></div>,,delaylearn,learning,feedback_image_window,tJfU7vA4Cwff0qF1sQdZzRiWcYH2,tJfU7vA4Cwff0qF1sQdZzRiWcYH2,,,,,,,,,,,,,,,,,,,,,,5f58b0c5273d87033903dbe6,16:29:04,27/03/2024
html-keyboard-response,132,276970,0.0-56.0,,"<div style=""font-size:100px;"">+</div>",,delaylearn,learning,ITI,tJfU7vA4Cwff0qF1sQdZzRiWcYH2,tJfU7vA4Cwff0qF1sQdZzRiWcYH2,,,,,,,,,,,,,,,,,,,2220.0,,,5f58b0c5273d87033903dbe6,16:29:04,27/03/2024
html-keyboard-response,133,279328,0.0-57.0-0.0,2354.0,"<div style=""display: flex; flex-direction: column; align-items: center; margin-top: -40px;""><img src=""images/pattern_5.png"" style=""width: 234px; height: 230px; margin-top: -50px;""><div style=""display: flex; justify-content: space-between; margin-top: 33px;""><img src=""images/choice_trial_13.png"" style=""width: 408px; height: 417px; margin-right: 200px;""><img src=""images/choice_trial_7.png"" style=""width: 408px; height: 417px;""></div></div>",f,delaylearn,learning,trial,tJfU7vA4Cwff0qF1sQdZzRiWcYH2,tJfU7vA4Cwff0qF1sQdZzRiWcYH2,5.0,images/choice_trial_13.png,images/choice_trial_7.png,images/pattern_5.png,j,j,750.0,13.0,7.0,4.0,1.0,25.0,0.0,0.0,13.0,140.0,,,,,,5f58b0c5273d87033903dbe6,16:29:04,27/03/2024
html-keyboard-response,134,280344,0.0-57.0-1.0,,"<div style=""display: flex; flex-direction: column; align-items: center; margin-top: -40px;""><img src=""images/pattern_5.png"" style=""width: 234px; height: 230px; margin-top: -50px;""><div style=""display: flex; justify-content: space-between; margin-top: 33px;""><img src=""images/choice_trial_13.png"" style=""width: 408px; height: 417px; margin-right: 608px;""></div></div>",,delaylearn,learning,display_response,tJfU7vA4Cwff0qF1sQdZzRiWcYH2,tJfU7vA4Cwff0qF1sQdZzRiWcYH2,,,,,,,,,,,,,,,,,chosen stimuli: images/choice_trial_13.png,,,,,5f58b0c5273d87033903dbe6,16:29:04,27/03/2024
html-keyboard-response,135,281103,0.0-57.0-2.0,,,,delaylearn,learning,feedback_duration_window,tJfU7vA4Cwff0qF1sQdZzRiWcYH2,tJfU7vA4Cwff0qF1sQdZzRiWcYH2,,,,,,,,,,,,,,,,,,750.0,,,,5f58b0c5273d87033903dbe6,16:29:04,27/03/2024
html-keyboard-response,136,282614,0.0-57.0-3.0,,<div style='margin:auto;width: auto; font-size: 150%'><span style='font-weight: bold; font-size: 100px; color: red;'>0 points!</span><br><br></div>,,delaylearn,learning,feedback_image_window,tJfU7vA4Cwff0qF1sQdZzRiWcYH2,tJfU7vA4Cwff0qF1sQdZzRiWcYH2,,,,,,,,,,,,,,,,,,,,,,5f58b0c5273d87033903dbe6,16:29:04,27/03/2024
html-keyboard-response,137,284724,0.0-58.0,,"<div style=""font-size:100px;"">+</div>",,delaylearn,learning,ITI,tJfU7vA4Cwff0qF1sQdZzRiWcYH2,tJfU7vA4Cwff0qF1sQdZzRiWcYH2,,,,,,,,,,,,,,,,,,,2096.0,,,5f58b0c5273d87033903dbe6,16:29:04,27/03/2024
html-keyboard-response,138,287455,0.0-59.0-0.0,2728.8000000715256,"<div style=""display: flex; flex-direction: column; align-items: center; margin-top: -40px;""><img src=""images/pattern_3.png"" style=""width: 234px; height: 230px; margin-top: -50px;""><div style=""display: flex; justify-content: space-between; margin-top: 33px;""><img src=""images/choice_trial_2.png"" style=""width: 408px; height: 417px; margin-right: 200px;""><img src=""images/choice_trial_16.png"" style=""width: 408px; height: 417px;""></div></div>",f,delaylearn,learning,trial,tJfU7vA4Cwff0qF1sQdZzRiWcYH2,tJfU7vA4Cwff0qF1sQdZzRiWcYH2,5.0,images/choice_trial_2.png,images/choice_trial_16.png,images/pattern_3.png,j,j,7000.0,2.0,16.0,2.0,1.0,26.0,0.0,0.0,2.0,140.0,,,,,,5f58b0c5273d87033903dbe6,16:29:04,27/03/2024
html-keyboard-response,139,288459,0.0-59.0-1.0,,"<div style=""display: flex; flex-direction: column; align-items: center; margin-top: -40px;""><img src=""images/pattern_3.png"" style=""width: 234px; height: 230px; margin-top: -50px;""><div style=""display: flex; justify-content: space-between; margin-top: 33px;""><img src=""images/choice_trial_2.png"" style=""width: 408px; height: 417px; margin-right: 608px;""></div></div>",,delaylearn,learning,display_response,tJfU7vA4Cwff0qF1sQdZzRiWcYH2,tJfU7vA4Cwff0qF1sQdZzRiWcYH2,,,,,,,,,,,,,,,,,chosen stimuli: images/choice_trial_2.png,,,,,5f58b0c5273d87033903dbe6,16:29:04,27/03/2024
html-keyboard-response,140,295475,0.0-59.0-2.0,,,,delaylearn,learning,feedback_duration_window,tJfU7vA4Cwff0qF1sQdZzRiWcYH2,tJfU7vA4Cwff0qF1sQdZzRiWcYH2,,,,,,,,,,,,,,,,,,7000.0,,,,5f58b0c5273d87033903dbe6,16:29:04,27/03/2024
html-keyboard-response,141,296989,0.0-59.0-3.0,,<div style='margin:auto;width: auto; font-size: 150%'><span style='font-weight: bold; font-size: 100px; color: red;'>0 points!</span><br><br></div>,,delaylearn,learning,feedback_image_window,tJfU7vA4Cwff0qF1sQdZzRiWcYH2,tJfU7vA4Cwff0qF1sQdZzRiWcYH2,,,,,,,,,,,,,,,,,,,,,,5f58b0c5273d87033903dbe6,16:29:04,27/03/2024
lmdlab-html-vas-response,142,301892,0.0-60.0-0.0,3369.0,*How <b><u>confident</u></b> are you feeling about your answers at this moment?*,0.47685185185185186,rewlearn,rate_confidence,,tJfU7vA4Cwff0qF1sQdZzRiWcYH2,tJfU7vA4Cwff0qF1sQdZzRiWcYH2,,,,,,,,,,,,,,,,,,,,"['No confidence', 'Complete confidence']",,5f58b0c5273d87033903dbe6,16:29:04,27/03/2024
lmdlab-rest-trial-limit,143,308803,0.0-60.0-1.0,5403.399999976158,"<div style=""font-size:40px;""><b>Please take a break!</b><br><br><br><br><p>Great work: you earned 140 points.<br><br><br><p>You have completed part(s) 1 of 5.<br><br><br><br>When you are ready to continue<br><br><br>please click the button.</p><br><br>",0,delaylearn,learning,break,tJfU7vA4Cwff0qF1sQdZzRiWcYH2,tJfU7vA4Cwff0qF1sQdZzRiWcYH2,,,,,,,,,,,,,,,,,,,,,0.0,5f58b0c5273d87033903dbe6,16:29:04,27/03/2024
html-keyboard-response,144,311819,0.0-60.0-2.0,,"<div style=""font-size:100px;"">+</div>",,delaylearn,learning,pre_fixation,tJfU7vA4Cwff0qF1sQdZzRiWcYH2,,,,,,,,,,,,,,,,,,,,,,,5f58b0c5273d87033903dbe6,16:29:04,27/03/2024
lmdlab-html-vas-response,145,315811,0.0-60.0-3.0-0.0,2987.0,How happy are you right now?,0.06944444444444445,delaylearn,learning,mood_baseline,tJfU7vA4Cwff0qF1sQdZzRiWcYH2,tJfU7vA4Cwff0qF1sQdZzRiWcYH2,,,,,,,,,,,,,,,,,,,,"['Very unhappy', 'Very happy']",,5f58b0c5273d87033903dbe6,16:29:04,27/03/2024
html-keyboard-response,146,317314,0.0-60.0-3.0-1.0,,,,,,mood_baseline_fixation,tJfU7vA4Cwff0qF1sQdZzRiWcYH2,,,,,,,,,,,,,,,,,,,,,,,5f58b0c5273d87033903dbe6,16:29:04,27/03/2024
html-keyboard-response,147,319688,0.0-61.0,,"<div style=""font-size:100px;"">+</div>",,delaylearn,learning,ITI,tJfU7vA4Cwff0qF1sQdZzRiWcYH2,tJfU7vA4Cwff0qF1sQdZzRiWcYH2,,,,,,,,,,,,,,,,,,,2357.0,,,5f58b0c5273d87033903dbe6,16:29:04,27/03/2024
html-keyboard-response,148,321918,0.0-62.0-0.0,2225.2000000476837,"<div style=""display: flex; flex-direction: column; align-items: center; margin-top: -40px;""><img src=""images/pattern_7.png"" style=""width: 234px; height: 230px; margin-top: -50px;""><div style=""display: flex; justify-content: space-between; margin-top: 33px;""><img src=""images/choice_trial_10.png"" style=""width: 408px; height: 417px; margin-right: 200px;""><img src=""images/choice_trial_8.png"" style=""width: 408px; height: 417px;""></div></div>",j,delaylearn,learning,trial,tJfU7vA4Cwff0qF1sQdZzRiWcYH2,tJfU7vA4Cwff0qF1sQdZzRiWcYH2,5.0,images/choice_trial_10.png,images/choice_trial_8.png,images/pattern_7.png,j,j,750.0,10.0,8.0,6.0,1.0,27.0,1.0,1.0,8.0,150.0,,,,,,5f58b0c5273d87033903dbe6,16:29:04,27/03/2024
html-keyboard-response,149,322925,0.0-62.0-1.0,,"<div style=""display: flex; flex-direction: column; align-items: center; margin-top: -40px;""><img src=""images/pattern_7.png"" style=""width: 234px; height: 230px; margin-top: -50px;""><div style=""display: flex; justify-content: space-between; margin-top: 33px;""><img src=""images/choice_trial_8.png"" style=""width: 408px; height: 417px; margin-left:608px;""></div></div>",,delaylearn,learning,display_response,tJfU7vA4Cwff0qF1sQdZzRiWcYH2,tJfU7vA4Cwff0qF1sQdZzRiWcYH2,,,,,,,,,,,,,,,,,chosen stimuli: images/choice_trial_8.png,,,,,5f58b0c5273d87033903dbe6,16:29:04,27/03/2024
html-keyboard-response,150,323689,0.0-62.0-2.0,,,,delaylearn,learning,feedback_duration_window,tJfU7vA4Cwff0qF1sQdZzRiWcYH2,tJfU7vA4Cwff0qF1sQdZzRiWcYH2,,,,,,,,,,,,,,,,,,750.0,,,,5f58b0c5273d87033903dbe6,16:29:04,27/03/2024
html-keyboard-response,151,325196,0.0-62.0-3.0,,<div style='margin:auto;width: auto; font-size: 150%'><span style='font-weight: bold; font-size: 100px; color: green;'>+10 points!</span><br><br></div>,,delaylearn,learning,feedback_image_window,tJfU7vA4Cwff0qF1sQdZzRiWcYH2,tJfU7vA4Cwff0qF1sQdZzRiWcYH2,,,,,,,,,,,,,,,,,,,,,,5f58b0c5273d87033903dbe6,16:29:04,27/03/2024
html-keyboard-response,152,325703,0.0-63.0-0.0,,,,,,mood_trial_fixation,tJfU7vA4Cwff0qF1sQdZzRiWcYH2,,,,,,,,,,,,,,,,,,,,,,,5f58b0c5273d87033903dbe6,16:29:04,27/03/2024
lmdlab-html-vas-response,153,331387,0.0-63.0-1.0,4665.0,How happy are you right now?,0.09259259259259259,delaylearn,learning,mood_trial,tJfU7vA4Cwff0qF1sQdZzRiWcYH2,tJfU7vA4Cwff0qF1sQdZzRiWcYH2,,,,,,,,,,,,,,,,,,,,"['Very unhappy', 'Very happy']",,5f58b0c5273d87033903dbe6,16:29:04,27/03/2024
html-keyboard-response,154,333044,0.0-64.0,,"<div style=""font-size:100px;"">+</div>",,delaylearn,learning,ITI,tJfU7vA4Cwff0qF1sQdZzRiWcYH2,tJfU7vA4Cwff0qF1sQdZzRiWcYH2,,,,,,,,,,,,,,,,,,,1643.0,,,5f58b0c5273d87033903dbe6,16:29:04,27/03/2024
html-keyboard-response,155,334951,0.0-65.0-0.0,1902.7000000476837,"<div style=""display: flex; flex-direction: column; align-items: center; margin-top: -40px;""><img src=""images/pattern_1.png"" style=""width: 234px; height: 230px; margin-top: -50px;""><div style=""display: flex; justify-content: space-between; margin-top: 33px;""><img src=""images/choice_trial_6.png"" style=""width: 408px; height: 417px; margin-right: 200px;""><img src=""images/choice_trial_15.png"" style=""width: 408px; height: 417px;""></div></div>",j,delaylearn,learning,trial,tJfU7vA4Cwff0qF1sQdZzRiWcYH2,tJfU7vA4Cwff0qF1sQdZzRiWcYH2,5.0,images/choice_trial_6.png,images/choice_trial_15.png,images/pattern_1.png,f,f,7000.0,6.0,15.0,1.0,0.0,28.0,0.0,0.0,15.0,150.0,,,,,,5f58b0c5273d87033903dbe6,16:29:04,27/03/2024
html-keyboard-response,156,335959,0.0-65.0-1.0,,"<div style=""display: flex; flex-direction: column; align-items: center; margin-top: -40px;""><img src=""images/pattern_1.png"" style=""width: 234px; height: 230px; margin-top: -50px;""><div style=""display: flex; justify-content: space-between; margin-top: 33px;""><img src=""images/choice_trial_15.png"" style=""width: 408px; height: 417px; margin-left:608px;""></div></div>",,delaylearn,learning,display_response,tJfU7vA4Cwff0qF1sQdZzRiWcYH2,tJfU7vA4Cwff0qF1sQdZzRiWcYH2,,,,,,,,,,,,,,,,,chosen stimuli: images/choice_trial_15.png,,,,,5f58b0c5273d87033903dbe6,16:29:04,27/03/2024
html-keyboard-response,157,342965,0.0-65.0-2.0,,,,delaylearn,learning,feedback_duration_window,tJfU7vA4Cwff0qF1sQdZzRiWcYH2,tJfU7vA4Cwff0qF1sQdZzRiWcYH2,,,,,,,,,,,,,,,,,,7000.0,,,,5f58b0c5273d87033903dbe6,16:29:04,27/03/2024
html-keyboard-response,158,344483,0.0-65.0-3.0,,<div style='margin:auto;width: auto; font-size: 150%'><span style='font-weight: bold; font-size: 100px; color: red;'>0 points!</span><br><br></div>,,delaylearn,learning,feedback_image_window,tJfU7vA4Cwff0qF1sQdZzRiWcYH2,tJfU7vA4Cwff0qF1sQdZzRiWcYH2,,,,,,,,,,,,,,,,,,,,,,5f58b0c5273d87033903dbe6,16:29:04,27/03/2024
html-keyboard-response,159,346101,0.0-66.0,,"<div style=""font-size:100px;"">+</div>",,delaylearn,learning,ITI,tJfU7vA4Cwff0qF1sQdZzRiWcYH2,tJfU7vA4Cwff0qF1sQdZzRiWcYH2,,,,,,,,,,,,,,,,,,,1602.0,,,5f58b0c5273d87033903dbe6,16:29:04,27/03/2024
html-keyboard-response,160,347600,0.0-67.0-0.0,1494.1000000238419,"<div style=""display: flex; flex-direction: column; align-items: center; margin-top: -40px;""><img src=""images/pattern_5.png"" style=""width: 234px; height: 230px; margin-top: -50px;""><div style=""display: flex; justify-content: space-between; margin-top: 33px;""><img src=""images/choice_trial_7.png"" style=""width: 408px; height: 417px; margin-right: 200px;""><img src=""images/choice_trial_13.png"" style=""width: 408px; height: 417px;""></div></div>",f,delaylearn,learning,trial,tJfU7vA4Cwff0qF1sQdZzRiWcYH2,tJfU7vA4Cwff0qF1sQdZzRiWcYH2,5.0,images/choice_trial_7.png,images/choice_trial_13.png,images/pattern_5.png,f,f,750.0,7.0,13.0,4.0,0.0,29.0,1.0,1.0,7.0,160.0,,,,,,5f58b0c5273d87033903dbe6,16:29:04,27/03/2024
html-keyboard-response,161,348608,0.0-67.0-1.0,,"<div style=""display: flex; flex-direction: column; align-items: center; margin-top: -40px;""><img src=""images/pattern_5.png"" style=""width: 234px; height: 230px; margin-top: -50px;""><div style=""display: flex; justify-content: space-between; margin-top: 33px;""><img src=""images/choice_trial_7.png"" style=""width: 408px; height: 417px; margin-right: 608px;""></div></div>",,delaylearn,learning,display_response,tJfU7vA4Cwff0qF1sQdZzRiWcYH2,tJfU7vA4Cwff0qF1sQdZzRiWcYH2,,,,,,,,,,,,,,,,,chosen stimuli: images/choice_trial_7.png,,,,,5f58b0c5273d87033903dbe6,16:29:04,27/03/2024
html-keyboard-response,162,349373,0.0-67.0-2.0,,,,delaylearn,learning,feedback_duration_window,tJfU7vA4Cwff0qF1sQdZzRiWcYH2,tJfU7vA4Cwff0qF1sQdZzRiWcYH2,,,,,,,,,,,,,,,,,,750.0,,,,5f58b0c5273d87033903dbe6,16:29:04,27/03/2024
html-keyboard-response,163,350882,0.0-67.0-3.0,,<div style='margin:auto;width: auto; font-size: 150%'><span style='font-weight: bold; font-size: 100px; color: green;'>+10 points!</span><br><br></div>,,delaylearn,learning,feedback_image_window,tJfU7vA4Cwff0qF1sQdZzRiWcYH2,tJfU7vA4Cwff0qF1sQdZzRiWcYH2,,,,,,,,,,,,,,,,,,,,,,5f58b0c5273d87033903dbe6,16:29:04,27/03/2024
html-keyboard-response,164,353366,0.0-68.0,,"<div style=""font-size:100px;"">+</div>",,delaylearn,learning,ITI,tJfU7vA4Cwff0qF1sQdZzRiWcYH2,tJfU7vA4Cwff0qF1sQdZzRiWcYH2,,,,,,,,,,,,,,,,,,,2470.0,,,5f58b0c5273d87033903dbe6,16:29:04,27/03/2024
html-keyboard-response,165,355030,0.0-69.0-0.0,1659.5,"<div style=""display: flex; flex-direction: column; align-items: center; margin-top: -40px;""><img src=""images/pattern_6.png"" style=""width: 234px; height: 230px; margin-top: -50px;""><div style=""display: flex; justify-content: space-between; margin-top: 33px;""><img src=""images/choice_trial_9.png"" style=""width: 408px; height: 417px; margin-right: 200px;""><img src=""images/choice_trial_14.png"" style=""width: 408px; height: 417px;""></div></div>",f,delaylearn,learning,trial,tJfU7vA4Cwff0qF1sQdZzRiWcYH2,tJfU7vA4Cwff0qF1sQdZzRiWcYH2,5.0,images/choice_trial_9.png,images/choice_trial_14.png,images/pattern_6.png,j,j,750.0,9.0,14.0,5.0,1.0,30.0,0.0,0.0,9.0,160.0,,,,,,5f58b0c5273d87033903dbe6,16:29:04,27/03/2024
html-keyboard-response,166,356041,0.0-69.0-1.0,,"<div style=""display: flex; flex-direction: column; align-items: center; margin-top: -40px;""><img src=""images/pattern_6.png"" style=""width: 234px; height: 230px; margin-top: -50px;""><div style=""display: flex; justify-content: space-between; margin-top: 33px;""><img src=""images/choice_trial_9.png"" style=""width: 408px; height: 417px; margin-right: 608px;""></div></div>",,delaylearn,learning,display_response,tJfU7vA4Cwff0qF1sQdZzRiWcYH2,tJfU7vA4Cwff0qF1sQdZzRiWcYH2,,,,,,,,,,,,,,,,,chosen stimuli: images/choice_trial_9.png,,,,,5f58b0c5273d87033903dbe6,16:29:04,27/03/2024
html-keyboard-response,167,356804,0.0-69.0-2.0,,,,delaylearn,learning,feedback_duration_window,tJfU7vA4Cwff0qF1sQdZzRiWcYH2,tJfU7vA4Cwff0qF1sQdZzRiWcYH2,,,,,,,,,,,,,,,,,,750.0,,,,5f58b0c5273d87033903dbe6,16:29:04,27/03/2024
html-keyboard-response,168,358311,0.0-69.0-3.0,,<div style='margin:auto;width: auto; font-size: 150%'><span style='font-weight: bold; font-size: 100px; color: red;'>0 points!</span><br><br></div>,,delaylearn,learning,feedback_image_window,tJfU7vA4Cwff0qF1sQdZzRiWcYH2,tJfU7vA4Cwff0qF1sQdZzRiWcYH2,,,,,,,,,,,,,,,,,,,,,,5f58b0c5273d87033903dbe6,16:29:04,27/03/2024
html-keyboard-response,169,358817,0.0-70.0-0.0,,,,,,mood_trial_fixation,tJfU7vA4Cwff0qF1sQdZzRiWcYH2,,,,,,,,,,,,,,,,,,,,,,,5f58b0c5273d87033903dbe6,16:29:04,27/03/2024
lmdlab-html-vas-response,170,365155,0.0-70.0-1.0,5329.0,How happy are you right now?,0.12808641975308643,delaylearn,learning,mood_trial,tJfU7vA4Cwff0qF1sQdZzRiWcYH2,tJfU7vA4Cwff0qF1sQdZzRiWcYH2,,,,,,,,,,,,,,,,,,,,"['Very unhappy', 'Very happy']",,5f58b0c5273d87033903dbe6,16:29:04,27/03/2024
html-keyboard-response,171,367471,0.0-71.0,,"<div style=""font-size:100px;"">+</div>",,delaylearn,learning,ITI,tJfU7vA4Cwff0qF1sQdZzRiWcYH2,tJfU7vA4Cwff0qF1sQdZzRiWcYH2,,,,,,,,,,,,,,,,,,,2300.0,,,5f58b0c5273d87033903dbe6,16:29:04,27/03/2024
html-keyboard-response,172,370015,0.0-72.0-0.0,2538.7000000476837,"<div style=""display: flex; flex-direction: column; align-items: center; margin-top: -40px;""><img src=""images/pattern_4.png"" style=""width: 234px; height: 230px; margin-top: -50px;""><div style=""display: flex; justify-content: space-between; margin-top: 33px;""><img src=""images/choice_trial_4.png"" style=""width: 408px; height: 417px; margin-right: 200px;""><img src=""images/choice_trial_11.png"" style=""width: 408px; height: 417px;""></div></div>",j,delaylearn,learning,trial,tJfU7vA4Cwff0qF1sQdZzRiWcYH2,tJfU7vA4Cwff0qF1sQdZzRiWcYH2,5.0,images/choice_trial_4.png,images/choice_trial_11.png,images/pattern_4.png,j,j,7000.0,4.0,11.0,3.0,1.0,31.0,1.0,1.0,11.0,170.0,,,,,,5f58b0c5273d87033903dbe6,16:29:04,27/03/2024
html-keyboard-response,173,371024,0.0-72.0-1.0,,"<div style=""display: flex; flex-direction: column; align-items: center; margin-top: -40px;""><img src=""images/pattern_4.png"" style=""width: 234px; height: 230px; margin-top: -50px;""><div style=""display: flex; justify-content: space-between; margin-top: 33px;""><img src=""images/choice_trial_11.png"" style=""width: 408px; height: 417px; margin-left:608px;""></div></div>",,delaylearn,learning,display_response,tJfU7vA4Cwff0qF1sQdZzRiWcYH2,tJfU7vA4Cwff0qF1sQdZzRiWcYH2,,,,,,,,,,,,,,,,,chosen stimuli: images/choice_trial_11.png,,,,,5f58b0c5273d87033903dbe6,16:29:04,27/03/2024
html-keyboard-response,174,378037,0.0-72.0-2.0,,,,delaylearn,learning,feedback_duration_window,tJfU7vA4Cwff0qF1sQdZzRiWcYH2,tJfU7vA4Cwff0qF1sQdZzRiWcYH2,,,,,,,,,,,,,,,,,,7000.0,,,,5f58b0c5273d87033903dbe6,16:29:04,27/03/2024
html-keyboard-response,175,379550,0.0-72.0-3.0,,<div style='margin:auto;width: auto; font-size: 150%'><span style='font-weight: bold; font-size: 100px; color: green;'>+10 points!</span><br><br></div>,,delaylearn,learning,feedback_image_window,tJfU7vA4Cwff0qF1sQdZzRiWcYH2,tJfU7vA4Cwff0qF1sQdZzRiWcYH2,,,,,,,,,,,,,,,,,,,,,,5f58b0c5273d87033903dbe6,16:29:04,27/03/2024
html-keyboard-response,176,381226,0.0-73.0,,"<div style=""font-size:100px;"">+</div>",,delaylearn,learning,ITI,tJfU7vA4Cwff0qF1sQdZzRiWcYH2,tJfU7vA4Cwff0qF1sQdZzRiWcYH2,,,,,,,,,,,,,,,,,,,1664.0,,,5f58b0c5273d87033903dbe6,16:29:04,27/03/2024
html-keyboard-response,177,382370,0.0-74.0-0.0,1139.5,"<div style=""display: flex; flex-direction: column; align-items: center; margin-top: -40px;""><img src=""images/pattern_3.png"" style=""width: 234px; height: 230px; margin-top: -50px;""><div style=""display: flex; justify-content: space-between; margin-top: 33px;""><img src=""images/choice_trial_2.png"" style=""width: 408px; height: 417px; margin-right: 200px;""><img src=""images/choice_trial_16.png"" style=""width: 408px; height: 417px;""></div></div>",j,delaylearn,learning,trial,tJfU7vA4Cwff0qF1sQdZzRiWcYH2,tJfU7vA4Cwff0qF1sQdZzRiWcYH2,5.0,images/choice_trial_2.png,images/choice_trial_16.png,images/pattern_3.png,j,j,7000.0,2.0,16.0,2.0,1.0,32.0,1.0,1.0,16.0,180.0,,,,,,5f58b0c5273d87033903dbe6,16:29:04,27/03/2024
html-keyboard-response,178,383376,0.0-74.0-1.0,,"<div style=""display: flex; flex-direction: column; align-items: center; margin-top: -40px;""><img src=""images/pattern_3.png"" style=""width: 234px; height: 230px; margin-top: -50px;""><div style=""display: flex; justify-content: space-between; margin-top: 33px;""><img src=""images/choice_trial_16.png"" style=""width: 408px; height: 417px; margin-left:608px;""></div></div>",,delaylearn,learning,display_response,tJfU7vA4Cwff0qF1sQdZzRiWcYH2,tJfU7vA4Cwff0qF1sQdZzRiWcYH2,,,,,,,,,,,,,,,,,chosen stimuli: images/choice_trial_16.png,,,,,5f58b0c5273d87033903dbe6,16:29:04,27/03/2024
html-keyboard-response,179,390385,0.0-74.0-2.0,,,,delaylearn,learning,feedback_duration_window,tJfU7vA4Cwff0qF1sQdZzRiWcYH2,tJfU7vA4Cwff0qF1sQdZzRiWcYH2,,,,,,,,,,,,,,,,,,7000.0,,,,5f58b0c5273d87033903dbe6,16:29:04,27/03/2024
html-keyboard-response,180,391900,0.0-74.0-3.0,,<div style='margin:auto;width: auto; font-size: 150%'><span style='font-weight: bold; font-size: 100px; color: green;'>+10 points!</span><br><br></div>,,delaylearn,learning,feedback_image_window,tJfU7vA4Cwff0qF1sQdZzRiWcYH2,tJfU7vA4Cwff0qF1sQdZzRiWcYH2,,,,,,,,,,,,,,,,,,,,,,5f58b0c5273d87033903dbe6,16:29:04,27/03/2024
html-keyboard-response,181,394397,0.0-75.0,,"<div style=""font-size:100px;"">+</div>",,delaylearn,learning,ITI,tJfU7vA4Cwff0qF1sQdZzRiWcYH2,tJfU7vA4Cwff0qF1sQdZzRiWcYH2,,,,,,,,,,,,,,,,,,,2482.0,,,5f58b0c5273d87033903dbe6,16:29:04,27/03/2024
html-keyboard-response,182,396245,0.0-76.0-0.0,1845.6999999284744,"<div style=""display: flex; flex-direction: column; align-items: center; margin-top: -40px;""><img src=""images/pattern_5.png"" style=""width: 234px; height: 230px; margin-top: -50px;""><div style=""display: flex; justify-content: space-between; margin-top: 33px;""><img src=""images/choice_trial_7.png"" style=""width: 408px; height: 417px; margin-right: 200px;""><img src=""images/choice_trial_13.png"" style=""width: 408px; height: 417px;""></div></div>",f,delaylearn,learning,trial,tJfU7vA4Cwff0qF1sQdZzRiWcYH2,tJfU7vA4Cwff0qF1sQdZzRiWcYH2,5.0,images/choice_trial_7.png,images/choice_trial_13.png,images/pattern_5.png,j,f,750.0,7.0,13.0,4.0,0.0,33.0,1.0,0.0,7.0,180.0,,,,,,5f58b0c5273d87033903dbe6,16:29:04,27/03/2024
html-keyboard-response,183,397259,0.0-76.0-1.0,,"<div style=""display: flex; flex-direction: column; align-items: center; margin-top: -40px;""><img src=""images/pattern_5.png"" style=""width: 234px; height: 230px; margin-top: -50px;""><div style=""display: flex; justify-content: space-between; margin-top: 33px;""><img src=""images/choice_trial_7.png"" style=""width: 408px; height: 417px; margin-right: 608px;""></div></div>",,delaylearn,learning,display_response,tJfU7vA4Cwff0qF1sQdZzRiWcYH2,tJfU7vA4Cwff0qF1sQdZzRiWcYH2,,,,,,,,,,,,,,,,,chosen stimuli: images/choice_trial_7.png,,,,,5f58b0c5273d87033903dbe6,16:29:04,27/03/2024
html-keyboard-response,184,398022,0.0-76.0-2.0,,,,delaylearn,learning,feedback_duration_window,tJfU7vA4Cwff0qF1sQdZzRiWcYH2,tJfU7vA4Cwff0qF1sQdZzRiWcYH2,,,,,,,,,,,,,,,,,,750.0,,,,5f58b0c5273d87033903dbe6,16:29:04,27/03/2024
html-keyboard-response,185,399534,0.0-76.0-3.0,,<div style='margin:auto;width: auto; font-size: 150%'><span style='font-weight: bold; font-size: 100px; color: red;'>0 points!</span><br><br></div>,,delaylearn,learning,feedback_image_window,tJfU7vA4Cwff0qF1sQdZzRiWcYH2,tJfU7vA4Cwff0qF1sQdZzRiWcYH2,,,,,,,,,,,,,,,,,,,,,,5f58b0c5273d87033903dbe6,16:29:04,27/03/2024
html-keyboard-response,186,401998,0.0-77.0,,"<div style=""font-size:100px;"">+</div>",,delaylearn,learning,ITI,tJfU7vA4Cwff0qF1sQdZzRiWcYH2,tJfU7vA4Cwff0qF1sQdZzRiWcYH2,,,,,,,,,,,,,,,,,,,2457.0,,,5f58b0c5273d87033903dbe6,16:29:04,27/03/2024
html-keyboard-response,187,403421,0.0-78.0-0.0,1417.7999999523163,"<div style=""display: flex; flex-direction: column; align-items: center; margin-top: -40px;""><img src=""images/pattern_1.png"" style=""width: 234px; height: 230px; margin-top: -50px;""><div style=""display: flex; justify-content: space-between; margin-top: 33px;""><img src=""images/choice_trial_6.png"" style=""width: 408px; height: 417px; margin-right: 200px;""><img src=""images/choice_trial_15.png"" style=""width: 408px; height: 417px;""></div></div>",j,delaylearn,learning,trial,tJfU7vA4Cwff0qF1sQdZzRiWcYH2,tJfU7vA4Cwff0qF1sQdZzRiWcYH2,5.0,images/choice_trial_6.png,images/choice_trial_15.png,images/pattern_1.png,f,f,7000.0,6.0,15.0,1.0,0.0,34.0,0.0,0.0,15.0,180.0,,,,,,5f58b0c5273d87033903dbe6,16:29:04,27/03/2024
html-keyboard-response,188,404425,0.0-78.0-1.0,,"<div style=""display: flex; flex-direction: column; align-items: center; margin-top: -40px;""><img src=""images/pattern_1.png"" style=""width: 234px; height: 230px; margin-top: -50px;""><div style=""display: flex; justify-content: space-between; margin-top: 33px;""><img src=""images/choice_trial_15.png"" style=""width: 408px; height: 417px; margin-left:608px;""></div></div>",,delaylearn,learning,display_response,tJfU7vA4Cwff0qF1sQdZzRiWcYH2,tJfU7vA4Cwff0qF1sQdZzRiWcYH2,,,,,,,,,,,,,,,,,chosen stimuli: images/choice_trial_15.png,,,,,5f58b0c5273d87033903dbe6,16:29:04,27/03/2024
html-keyboard-response,189,411438,0.0-78.0-2.0,,,,delaylearn,learning,feedback_duration_window,tJfU7vA4Cwff0qF1sQdZzRiWcYH2,tJfU7vA4Cwff0qF1sQdZzRiWcYH2,,,,,,,,,,,,,,,,,,7000.0,,,,5f58b0c5273d87033903dbe6,16:29:04,27/03/2024
html-keyboard-response,190,412941,0.0-78.0-3.0,,<div style='margin:auto;width: auto; font-size: 150%'><span style='font-weight: bold; font-size: 100px; color: red;'>0 points!</span><br><br></div>,,delaylearn,learning,feedback_image_window,tJfU7vA4Cwff0qF1sQdZzRiWcYH2,tJfU7vA4Cwff0qF1sQdZzRiWcYH2,,,,,,,,,,,,,,,,,,,,,,5f58b0c5273d87033903dbe6,16:29:04,27/03/2024
html-keyboard-response,191,413455,0.0-79.0-0.0,,,,,,mood_trial_fixation,tJfU7vA4Cwff0qF1sQdZzRiWcYH2,,,,,,,,,,,,,,,,,,,,,,,5f58b0c5273d87033903dbe6,16:29:04,27/03/2024
lmdlab-html-vas-response,192,418154,0.0-79.0-1.0,3693.0,How happy are you right now?,0.07716049382716049,delaylearn,learning,mood_trial,tJfU7vA4Cwff0qF1sQdZzRiWcYH2,tJfU7vA4Cwff0qF1sQdZzRiWcYH2,,,,,,,,,,,,,,,,,,,,"['Very unhappy', 'Very happy']",,5f58b0c5273d87033903dbe6,16:29:04,27/03/2024
html-keyboard-response,193,420639,0.0-80.0,,"<div style=""font-size:100px;"">+</div>",,delaylearn,learning,ITI,tJfU7vA4Cwff0qF1sQdZzRiWcYH2,tJfU7vA4Cwff0qF1sQdZzRiWcYH2,,,,,,,,,,,,,,,,,,,2475.0,,,5f58b0c5273d87033903dbe6,16:29:04,27/03/2024
html-keyboard-response,194,422634,0.0-81.0-0.0,1993.1000000238419,"<div style=""display: flex; flex-direction: column; align-items: center; margin-top: -40px;""><img src=""images/pattern_6.png"" style=""width: 234px; height: 230px; margin-top: -50px;""><div style=""display: flex; justify-content: space-between; margin-top: 33px;""><img src=""images/choice_trial_14.png"" style=""width: 408px; height: 417px; margin-right: 200px;""><img src=""images/choice_trial_9.png"" style=""width: 408px; height: 417px;""></div></div>",f,delaylearn,learning,trial,tJfU7vA4Cwff0qF1sQdZzRiWcYH2,tJfU7vA4Cwff0qF1sQdZzRiWcYH2,5.0,images/choice_trial_14.png,images/choice_trial_9.png,images/pattern_6.png,j,f,750.0,14.0,9.0,5.0,0.0,35.0,1.0,0.0,14.0,180.0,,,,,,5f58b0c5273d87033903dbe6,16:29:04,27/03/2024
html-keyboard-response,195,423639,0.0-81.0-1.0,,"<div style=""display: flex; flex-direction: column; align-items: center; margin-top: -40px;""><img src=""images/pattern_6.png"" style=""width: 234px; height: 230px; margin-top: -50px;""><div style=""display: flex; justify-content: space-between; margin-top: 33px;""><img src=""images/choice_trial_14.png"" style=""width: 408px; height: 417px; margin-right: 608px;""></div></div>",,delaylearn,learning,display_response,tJfU7vA4Cwff0qF1sQdZzRiWcYH2,tJfU7vA4Cwff0qF1sQdZzRiWcYH2,,,,,,,,,,,,,,,,,chosen stimuli: images/choice_trial_14.png,,,,,5f58b0c5273d87033903dbe6,16:29:04,27/03/2024
html-keyboard-response,196,424406,0.0-81.0-2.0,,,,delaylearn,learning,feedback_duration_window,tJfU7vA4Cwff0qF1sQdZzRiWcYH2,tJfU7vA4Cwff0qF1sQdZzRiWcYH2,,,,,,,,,,,,,,,,,,750.0,,,,5f58b0c5273d87033903dbe6,16:29:04,27/03/2024
html-keyboard-response,197,425915,0.0-81.0-3.0,,<div style='margin:auto;width: auto; font-size: 150%'><span style='font-weight: bold; font-size: 100px; color: red;'>0 points!</span><br><br></div>,,delaylearn,learning,feedback_image_window,tJfU7vA4Cwff0qF1sQdZzRiWcYH2,tJfU7vA4Cwff0qF1sQdZzRiWcYH2,,,,,,,,,,,,,,,,,,,,,,5f58b0c5273d87033903dbe6,16:29:04,27/03/2024
html-keyboard-response,198,427730,0.0-82.0,,"<div style=""font-size:100px;"">+</div>",,delaylearn,learning,ITI,tJfU7vA4Cwff0qF1sQdZzRiWcYH2,tJfU7vA4Cwff0qF1sQdZzRiWcYH2,,,,,,,,,,,,,,,,,,,1802.0,,,5f58b0c5273d87033903dbe6,16:29:04,27/03/2024
html-keyboard-response,199,430564,0.0-83.0-0.0,2829.2000000476837,"<div style=""display: flex; flex-direction: column; align-items: center; margin-top: -40px;""><img src=""images/pattern_3.png"" style=""width: 234px; height: 230px; margin-top: -50px;""><div style=""display: flex; justify-content: space-between; margin-top: 33px;""><img src=""images/choice_trial_2.png"" style=""width: 408px; height: 417px; margin-right: 200px;""><img src=""images/choice_trial_16.png"" style=""width: 408px; height: 417px;""></div></div>",j,delaylearn,learning,trial,tJfU7vA4Cwff0qF1sQdZzRiWcYH2,tJfU7vA4Cwff0qF1sQdZzRiWcYH2,5.0,images/choice_trial_2.png,images/choice_trial_16.png,images/pattern_3.png,j,j,7000.0,2.0,16.0,2.0,1.0,36.0,1.0,1.0,16.0,190.0,,,,,,5f58b0c5273d87033903dbe6,16:29:04,27/03/2024
html-keyboard-response,200,431581,0.0-83.0-1.0,,"<div style=""display: flex; flex-direction: column; align-items: center; margin-top: -40px;""><img src=""images/pattern_3.png"" style=""width: 234px; height: 230px; margin-top: -50px;""><div style=""display: flex; justify-content: space-between; margin-top: 33px;""><img src=""images/choice_trial_16.png"" style=""width: 408px; height: 417px; margin-left:608px;""></div></div>",,delaylearn,learning,display_response,tJfU7vA4Cwff0qF1sQdZzRiWcYH2,tJfU7vA4Cwff0qF1sQdZzRiWcYH2,,,,,,,,,,,,,,,,,chosen stimuli: images/choice_trial_16.png,,,,,5f58b0c5273d87033903dbe6,16:29:04,27/03/2024
html-keyboard-response,201,438589,0.0-83.0-2.0,,,,delaylearn,learning,feedback_duration_window,tJfU7vA4Cwff0qF1sQdZzRiWcYH2,tJfU7vA4Cwff0qF1sQdZzRiWcYH2,,,,,,,,,,,,,,,,,,7000.0,,,,5f58b0c5273d87033903dbe6,16:29:04,27/03/2024
html-keyboard-response,202,440092,0.0-83.0-3.0,,<div style='margin:auto;width: auto; font-size: 150%'><span style='font-weight: bold; font-size: 100px; color: green;'>+10 points!</span><br><br></div>,,delaylearn,learning,feedback_image_window,tJfU7vA4Cwff0qF1sQdZzRiWcYH2,tJfU7vA4Cwff0qF1sQdZzRiWcYH2,,,,,,,,,,,,,,,,,,,,,,5f58b0c5273d87033903dbe6,16:29:04,27/03/2024
html-keyboard-response,203,441934,0.0-84.0,,"<div style=""font-size:100px;"">+</div>",,delaylearn,learning,ITI,tJfU7vA4Cwff0qF1sQdZzRiWcYH2,tJfU7vA4Cwff0qF1sQdZzRiWcYH2,,,,,,,,,,,,,,,,,,,1832.0,,,5f58b0c5273d87033903dbe6,16:29:04,27/03/2024
html-keyboard-response,204,443522,0.0-85.0-0.0,1583.6000000238419,"<div style=""display: flex; flex-direction: column; align-items: center; margin-top: -40px;""><img src=""images/pattern_4.png"" style=""width: 234px; height: 230px; margin-top: -50px;""><div style=""display: flex; justify-content: space-between; margin-top: 33px;""><img src=""images/choice_trial_4.png"" style=""width: 408px; height: 417px; margin-right: 200px;""><img src=""images/choice_trial_11.png"" style=""width: 408px; height: 417px;""></div></div>",j,delaylearn,learning,trial,tJfU7vA4Cwff0qF1sQdZzRiWcYH2,tJfU7vA4Cwff0qF1sQdZzRiWcYH2,5.0,images/choice_trial_4.png,images/choice_trial_11.png,images/pattern_4.png,f,j,7000.0,4.0,11.0,3.0,1.0,37.0,1.0,0.0,11.0,190.0,,,,,,5f58b0c5273d87033903dbe6,16:29:04,27/03/2024
html-keyboard-response,205,444526,0.0-85.0-1.0,,"<div style=""display: flex; flex-direction: column; align-items: center; margin-top: -40px;""><img src=""images/pattern_4.png"" style=""width: 234px; height: 230px; margin-top: -50px;""><div style=""display: flex; justify-content: space-between; margin-top: 33px;""><img src=""images/choice_trial_11.png"" style=""width: 408px; height: 417px; margin-left:608px;""></div></div>",,delaylearn,learning,display_response,tJfU7vA4Cwff0qF1sQdZzRiWcYH2,tJfU7vA4Cwff0qF1sQdZzRiWcYH2,,,,,,,,,,,,,,,,,chosen stimuli: images/choice_trial_11.png,,,,,5f58b0c5273d87033903dbe6,16:29:04,27/03/2024
html-keyboard-response,206,451538,0.0-85.0-2.0,,,,delaylearn,learning,feedback_duration_window,tJfU7vA4Cwff0qF1sQdZzRiWcYH2,tJfU7vA4Cwff0qF1sQdZzRiWcYH2,,,,,,,,,,,,,,,,,,7000.0,,,,5f58b0c5273d87033903dbe6,16:29:04,27/03/2024
html-keyboard-response,207,453046,0.0-85.0-3.0,,<div style='margin:auto;width: auto; font-size: 150%'><span style='font-weight: bold; font-size: 100px; color: red;'>0 points!</span><br><br></div>,,delaylearn,learning,feedback_image_window,tJfU7vA4Cwff0qF1sQdZzRiWcYH2,tJfU7vA4Cwff0qF1sQdZzRiWcYH2,,,,,,,,,,,,,,,,,,,,,,5f58b0c5273d87033903dbe6,16:29:04,27/03/2024
html-keyboard-response,208,454776,0.0-86.0,,"<div style=""font-size:100px;"">+</div>",,delaylearn,learning,ITI,tJfU7vA4Cwff0qF1sQdZzRiWcYH2,tJfU7vA4Cwff0qF1sQdZzRiWcYH2,,,,,,,,,,,,,,,,,,,1729.0,,,5f58b0c5273d87033903dbe6,16:29:04,27/03/2024
html-keyboard-response,209,456078,0.0-87.0-0.0,1299.5,"<div style=""display: flex; flex-direction: column; align-items: center; margin-top: -40px;""><img src=""images/pattern_7.png"" style=""width: 234px; height: 230px; margin-top: -50px;""><div style=""display: flex; justify-content: space-between; margin-top: 33px;""><img src=""images/choice_trial_8.png"" style=""width: 408px; height: 417px; margin-right: 200px;""><img src=""images/choice_trial_10.png"" style=""width: 408px; height: 417px;""></div></div>",f,delaylearn,learning,trial,tJfU7vA4Cwff0qF1sQdZzRiWcYH2,tJfU7vA4Cwff0qF1sQdZzRiWcYH2,5.0,images/choice_trial_8.png,images/choice_trial_10.png,images/pattern_7.png,f,f,750.0,8.0,10.0,6.0,0.0,38.0,1.0,1.0,8.0,200.0,,,,,,5f58b0c5273d87033903dbe6,16:29:04,27/03/2024
html-keyboard-response,210,457093,0.0-87.0-1.0,,"<div style=""display: flex; flex-direction: column; align-items: center; margin-top: -40px;""><img src=""images/pattern_7.png"" style=""width: 234px; height: 230px; margin-top: -50px;""><div style=""display: flex; justify-content: space-between; margin-top: 33px;""><img src=""images/choice_trial_8.png"" style=""width: 408px; height: 417px; margin-right: 608px;""></div></div>",,delaylearn,learning,display_response,tJfU7vA4Cwff0qF1sQdZzRiWcYH2,tJfU7vA4Cwff0qF1sQdZzRiWcYH2,,,,,,,,,,,,,,,,,chosen stimuli: images/choice_trial_8.png,,,,,5f58b0c5273d87033903dbe6,16:29:04,27/03/2024
html-keyboard-response,211,457855,0.0-87.0-2.0,,,,delaylearn,learning,feedback_duration_window,tJfU7vA4Cwff0qF1sQdZzRiWcYH2,tJfU7vA4Cwff0qF1sQdZzRiWcYH2,,,,,,,,,,,,,,,,,,750.0,,,,5f58b0c5273d87033903dbe6,16:29:04,27/03/2024
html-keyboard-response,212,459358,0.0-87.0-3.0,,<div style='margin:auto;width: auto; font-size: 150%'><span style='font-weight: bold; font-size: 100px; color: green;'>+10 points!</span><br><br></div>,,delaylearn,learning,feedback_image_window,tJfU7vA4Cwff0qF1sQdZzRiWcYH2,tJfU7vA4Cwff0qF1sQdZzRiWcYH2,,,,,,,,,,,,,,,,,,,,,,5f58b0c5273d87033903dbe6,16:29:04,27/03/2024
html-keyboard-response,213,461427,0.0-88.0,,"<div style=""font-size:100px;"">+</div>",,delaylearn,learning,ITI,tJfU7vA4Cwff0qF1sQdZzRiWcYH2,tJfU7vA4Cwff0qF1sQdZzRiWcYH2,,,,,,,,,,,,,,,,,,,2051.0,,,5f58b0c5273d87033903dbe6,16:29:04,27/03/2024
html-keyboard-response,214,463237,0.0-89.0-0.0,1805.7999999523163,"<div style=""display: flex; flex-direction: column; align-items: center; margin-top: -40px;""><img src=""images/pattern_1.png"" style=""width: 234px; height: 230px; margin-top: -50px;""><div style=""display: flex; justify-content: space-between; margin-top: 33px;""><img src=""images/choice_trial_6.png"" style=""width: 408px; height: 417px; margin-right: 200px;""><img src=""images/choice_trial_15.png"" style=""width: 408px; height: 417px;""></div></div>",f,delaylearn,learning,trial,tJfU7vA4Cwff0qF1sQdZzRiWcYH2,tJfU7vA4Cwff0qF1sQdZzRiWcYH2,5.0,images/choice_trial_6.png,images/choice_trial_15.png,images/pattern_1.png,f,f,7000.0,6.0,15.0,1.0,0.0,39.0,1.0,1.0,6.0,210.0,,,,,,5f58b0c5273d87033903dbe6,16:29:04,27/03/2024
html-keyboard-response,215,464246,0.0-89.0-1.0,,"<div style=""display: flex; flex-direction: column; align-items: center; margin-top: -40px;""><img src=""images/pattern_1.png"" style=""width: 234px; height: 230px; margin-top: -50px;""><div style=""display: flex; justify-content: space-between; margin-top: 33px;""><img src=""images/choice_trial_6.png"" style=""width: 408px; height: 417px; margin-right: 608px;""></div></div>",,delaylearn,learning,display_response,tJfU7vA4Cwff0qF1sQdZzRiWcYH2,tJfU7vA4Cwff0qF1sQdZzRiWcYH2,,,,,,,,,,,,,,,,,chosen stimuli: images/choice_trial_6.png,,,,,5f58b0c5273d87033903dbe6,16:29:04,27/03/2024
html-keyboard-response,216,471254,0.0-89.0-2.0,,,,delaylearn,learning,feedback_duration_window,tJfU7vA4Cwff0qF1sQdZzRiWcYH2,tJfU7vA4Cwff0qF1sQdZzRiWcYH2,,,,,,,,,,,,,,,,,,7000.0,,,,5f58b0c5273d87033903dbe6,16:29:04,27/03/2024
html-keyboard-response,217,472766,0.0-89.0-3.0,,<div style='margin:auto;width: auto; font-size: 150%'><span style='font-weight: bold; font-size: 100px; color: green;'>+10 points!</span><br><br></div>,,delaylearn,learning,feedback_image_window,tJfU7vA4Cwff0qF1sQdZzRiWcYH2,tJfU7vA4Cwff0qF1sQdZzRiWcYH2,,,,,,,,,,,,,,,,,,,,,,5f58b0c5273d87033903dbe6,16:29:04,27/03/2024
html-keyboard-response,218,473271,0.0-90.0-0.0,,,,,,mood_trial_fixation,tJfU7vA4Cwff0qF1sQdZzRiWcYH2,,,,,,,,,,,,,,,,,,,,,,,5f58b0c5273d87033903dbe6,16:29:04,27/03/2024
lmdlab-html-vas-response,219,478130,0.0-90.0-1.0,3841.0,How happy are you right now?,0.06172839506172839,delaylearn,learning,mood_trial,tJfU7vA4Cwff0qF1sQdZzRiWcYH2,tJfU7vA4Cwff0qF1sQdZzRiWcYH2,,,,,,,,,,,,,,,,,,,,"['Very unhappy', 'Very happy']",,5f58b0c5273d87033903dbe6,16:29:04,27/03/2024
html-keyboard-response,220,479939,0.0-91.0,,"<div style=""font-size:100px;"">+</div>",,delaylearn,learning,ITI,tJfU7vA4Cwff0qF1sQdZzRiWcYH2,tJfU7vA4Cwff0qF1sQdZzRiWcYH2,,,,,,,,,,,,,,,,,,,1795.0,,,5f58b0c5273d87033903dbe6,16:29:04,27/03/2024
html-keyboard-response,221,481424,0.0-92.0-0.0,1479.7000000476837,"<div style=""display: flex; flex-direction: column; align-items: center; margin-top: -40px;""><img src=""images/pattern_3.png"" style=""width: 234px; height: 230px; margin-top: -50px;""><div style=""display: flex; justify-content: space-between; margin-top: 33px;""><img src=""images/choice_trial_16.png"" style=""width: 408px; height: 417px; margin-right: 200px;""><img src=""images/choice_trial_2.png"" style=""width: 408px; height: 417px;""></div></div>",f,delaylearn,learning,trial,tJfU7vA4Cwff0qF1sQdZzRiWcYH2,tJfU7vA4Cwff0qF1sQdZzRiWcYH2,5.0,images/choice_trial_16.png,images/choice_trial_2.png,images/pattern_3.png,j,f,7000.0,16.0,2.0,2.0,0.0,40.0,1.0,0.0,16.0,210.0,,,,,,5f58b0c5273d87033903dbe6,16:29:04,27/03/2024
html-keyboard-response,222,482428,0.0-92.0-1.0,,"<div style=""display: flex; flex-direction: column; align-items: center; margin-top: -40px;""><img src=""images/pattern_3.png"" style=""width: 234px; height: 230px; margin-top: -50px;""><div style=""display: flex; justify-content: space-between; margin-top: 33px;""><img src=""images/choice_trial_16.png"" style=""width: 408px; height: 417px; margin-right: 608px;""></div></div>",,delaylearn,learning,display_response,tJfU7vA4Cwff0qF1sQdZzRiWcYH2,tJfU7vA4Cwff0qF1sQdZzRiWcYH2,,,,,,,,,,,,,,,,,chosen stimuli: images/choice_trial_16.png,,,,,5f58b0c5273d87033903dbe6,16:29:04,27/03/2024
html-keyboard-response,223,489443,0.0-92.0-2.0,,,,delaylearn,learning,feedback_duration_window,tJfU7vA4Cwff0qF1sQdZzRiWcYH2,tJfU7vA4Cwff0qF1sQdZzRiWcYH2,,,,,,,,,,,,,,,,,,7000.0,,,,5f58b0c5273d87033903dbe6,16:29:04,27/03/2024
html-keyboard-response,224,490950,0.0-92.0-3.0,,<div style='margin:auto;width: auto; font-size: 150%'><span style='font-weight: bold; font-size: 100px; color: red;'>0 points!</span><br><br></div>,,delaylearn,learning,feedback_image_window,tJfU7vA4Cwff0qF1sQdZzRiWcYH2,tJfU7vA4Cwff0qF1sQdZzRiWcYH2,,,,,,,,,,,,,,,,,,,,,,5f58b0c5273d87033903dbe6,16:29:04,27/03/2024
html-keyboard-response,225,493348,0.0-93.0,,"<div style=""font-size:100px;"">+</div>",,delaylearn,learning,ITI,tJfU7vA4Cwff0qF1sQdZzRiWcYH2,tJfU7vA4Cwff0qF1sQdZzRiWcYH2,,,,,,,,,,,,,,,,,,,2384.0,,,5f58b0c5273d87033903dbe6,16:29:04,27/03/2024
html-keyboard-response,226,494357,0.0-94.0-0.0,1002.7000000476837,"<div style=""display: flex; flex-direction: column; align-items: center; margin-top: -40px;""><img src=""images/pattern_7.png"" style=""width: 234px; height: 230px; margin-top: -50px;""><div style=""display: flex; justify-content: space-between; margin-top: 33px;""><img src=""images/choice_trial_10.png"" style=""width: 408px; height: 417px; margin-right: 200px;""><img src=""images/choice_trial_8.png"" style=""width: 408px; height: 417px;""></div></div>",j,delaylearn,learning,trial,tJfU7vA4Cwff0qF1sQdZzRiWcYH2,tJfU7vA4Cwff0qF1sQdZzRiWcYH2,5.0,images/choice_trial_10.png,images/choice_trial_8.png,images/pattern_7.png,j,j,750.0,10.0,8.0,6.0,1.0,41.0,1.0,1.0,8.0,220.0,,,,,,5f58b0c5273d87033903dbe6,16:29:04,27/03/2024
html-keyboard-response,227,495360,0.0-94.0-1.0,,"<div style=""display: flex; flex-direction: column; align-items: center; margin-top: -40px;""><img src=""images/pattern_7.png"" style=""width: 234px; height: 230px; margin-top: -50px;""><div style=""display: flex; justify-content: space-between; margin-top: 33px;""><img src=""images/choice_trial_8.png"" style=""width: 408px; height: 417px; margin-left:608px;""></div></div>",,delaylearn,learning,display_response,tJfU7vA4Cwff0qF1sQdZzRiWcYH2,tJfU7vA4Cwff0qF1sQdZzRiWcYH2,,,,,,,,,,,,,,,,,chosen stimuli: images/choice_trial_8.png,,,,,5f58b0c5273d87033903dbe6,16:29:04,27/03/2024
html-keyboard-response,228,496125,0.0-94.0-2.0,,,,delaylearn,learning,feedback_duration_window,tJfU7vA4Cwff0qF1sQdZzRiWcYH2,tJfU7vA4Cwff0qF1sQdZzRiWcYH2,,,,,,,,,,,,,,,,,,750.0,,,,5f58b0c5273d87033903dbe6,16:29:04,27/03/2024
html-keyboard-response,229,497629,0.0-94.0-3.0,,<div style='margin:auto;width: auto; font-size: 150%'><span style='font-weight: bold; font-size: 100px; color: green;'>+10 points!</span><br><br></div>,,delaylearn,learning,feedback_image_window,tJfU7vA4Cwff0qF1sQdZzRiWcYH2,tJfU7vA4Cwff0qF1sQdZzRiWcYH2,,,,,,,,,,,,,,,,,,,,,,5f58b0c5273d87033903dbe6,16:29:04,27/03/2024
html-keyboard-response,230,499318,0.0-95.0,,"<div style=""font-size:100px;"">+</div>",,delaylearn,learning,ITI,tJfU7vA4Cwff0qF1sQdZzRiWcYH2,tJfU7vA4Cwff0qF1sQdZzRiWcYH2,,,,,,,,,,,,,,,,,,,1674.0,,,5f58b0c5273d87033903dbe6,16:29:04,27/03/2024
