trial_type,trial_index,time_elapsed,internal_node_id,rt,stimulus,response,exp_name,exp_stage,test_part,subjectID,databaseID,counterbal,choice_stimuli_1,choice_stimuli_2,pattern_stimuli,rewarded_answer,correct_answer,feedback_duration_times,stim_left,stim_right,pair,trial,response_correct,response_rewarded,chosen_stim,counter,displayed_choice,feedback_durations,ITI_duration,labels,rest_warning,prolificID,start_time,date
pavlovia,0,592,0.0-0.0,,,,,,,97vIdAwT2fVRnNfVX2kajhXTR6L2,,,,,,,,,,,,,,,,,,,,,,641373f8117053037093d10a,09:20:01,26/02/2024
html-keyboard-response,1,3602,0.0-1.0,,"<div style=""font-size:100px;"">+</div>",,delaylearn,learning,pre_fixation,97vIdAwT2fVRnNfVX2kajhXTR6L2,,,,,,,,,,,,,,,,,,,,,,641373f8117053037093d10a,09:20:01,26/02/2024
html-keyboard-response,2,6356,0.0-2.0-0.0,2749.300000011921,"<div style=""display: flex; flex-direction: column; align-items: center; margin-top: -40px;""><img src=""images/demo_images/pattern_1.png"" style=""width: 234px; height: 230px; margin-top: -50px;""><div style=""display: flex; justify-content: space-between; margin-top: 33px;""><img src=""images/demo_images/choice_trial_2.png"" style=""width: 408px; height: 417px; margin-right: 200px;""><img src=""images/demo_images/choice_trial_1.png"" style=""width: 408px; height: 417px;""></div></div>",f,delaylearn,learning,trial,97vIdAwT2fVRnNfVX2kajhXTR6L2,97vIdAwT2fVRnNfVX2kajhXTR6L2,3.0,images/demo_images/choice_trial_2.png,images/demo_images/choice_trial_1.png,images/demo_images/pattern_1.png,j,j,3000.0,2.0,1.0,20.0,1.0,0.0,0.0,2.0,0.0,,,,,,641373f8117053037093d10a,09:20:01,26/02/2024
html-keyboard-response,3,7367,0.0-2.0-1.0,,"<div style=""display: flex; flex-direction: column; align-items: center; margin-top: -40px;""><img src=""images/demo_images/pattern_1.png"" style=""width: 234px; height: 230px; margin-top: -50px;""><div style=""display: flex; justify-content: space-between; margin-top: 33px;""><img src=""images/demo_images/choice_trial_2.png"" style=""width: 408px; height: 417px; margin-right: 608px;""></div></div>",,delaylearn,learning,display_response,97vIdAwT2fVRnNfVX2kajhXTR6L2,97vIdAwT2fVRnNfVX2kajhXTR6L2,,,,,,,,,,,,,,,,chosen stimuli: images/demo_images/choice_trial_2.png,,,,,641373f8117053037093d10a,09:20:01,26/02/2024
html-keyboard-response,4,10384,0.0-2.0-2.0,,,,delaylearn,learning,feedback_duration_window,97vIdAwT2fVRnNfVX2kajhXTR6L2,97vIdAwT2fVRnNfVX2kajhXTR6L2,,,,,,,,,,,,,,,,,3000.0,,,,641373f8117053037093d10a,09:20:01,26/02/2024
html-keyboard-response,5,11898,0.0-2.0-3.0,,<div style='margin:auto;width: auto; font-size: 150%'><span style='font-weight: bold; font-size: 100px; color: red;'>0 points!</span><br><br></div>,,delaylearn,learning,feedback_image_window,97vIdAwT2fVRnNfVX2kajhXTR6L2,97vIdAwT2fVRnNfVX2kajhXTR6L2,,,,,,,,,,,,,,,,,,,,,641373f8117053037093d10a,09:20:01,26/02/2024
html-keyboard-response,6,13905,0.0-3.0,,"<div style=""font-size:100px;"">+</div>",,delaylearn,learning,ITI,97vIdAwT2fVRnNfVX2kajhXTR6L2,97vIdAwT2fVRnNfVX2kajhXTR6L2,,,,,,,,,,,,,,,,,,1995.0,,,641373f8117053037093d10a,09:20:01,26/02/2024
html-keyboard-response,7,15352,0.0-4.0-0.0,1440.5,"<div style=""display: flex; flex-direction: column; align-items: center; margin-top: -40px;""><img src=""images/demo_images/pattern_1.png"" style=""width: 234px; height: 230px; margin-top: -50px;""><div style=""display: flex; justify-content: space-between; margin-top: 33px;""><img src=""images/demo_images/choice_trial_2.png"" style=""width: 408px; height: 417px; margin-right: 200px;""><img src=""images/demo_images/choice_trial_1.png"" style=""width: 408px; height: 417px;""></div></div>",j,delaylearn,learning,trial,97vIdAwT2fVRnNfVX2kajhXTR6L2,97vIdAwT2fVRnNfVX2kajhXTR6L2,3.0,images/demo_images/choice_trial_2.png,images/demo_images/choice_trial_1.png,images/demo_images/pattern_1.png,j,j,3000.0,2.0,1.0,20.0,2.0,1.0,1.0,1.0,10.0,,,,,,641373f8117053037093d10a,09:20:01,26/02/2024
html-keyboard-response,8,16358,0.0-4.0-1.0,,"<div style=""display: flex; flex-direction: column; align-items: center; margin-top: -40px;""><img src=""images/demo_images/pattern_1.png"" style=""width: 234px; height: 230px; margin-top: -50px;""><div style=""display: flex; justify-content: space-between; margin-top: 33px;""><img src=""images/demo_images/choice_trial_1.png"" style=""width: 408px; height: 417px; margin-left:608px;""></div></div>",,delaylearn,learning,display_response,97vIdAwT2fVRnNfVX2kajhXTR6L2,97vIdAwT2fVRnNfVX2kajhXTR6L2,,,,,,,,,,,,,,,,chosen stimuli: images/demo_images/choice_trial_1.png,,,,,641373f8117053037093d10a,09:20:01,26/02/2024
html-keyboard-response,9,19365,0.0-4.0-2.0,,,,delaylearn,learning,feedback_duration_window,97vIdAwT2fVRnNfVX2kajhXTR6L2,97vIdAwT2fVRnNfVX2kajhXTR6L2,,,,,,,,,,,,,,,,,3000.0,,,,641373f8117053037093d10a,09:20:01,26/02/2024
html-keyboard-response,10,20874,0.0-4.0-3.0,,<div style='margin:auto;width: auto; font-size: 150%'><span style='font-weight: bold; font-size: 100px; color: green;'>+10 points!</span><br><br></div>,,delaylearn,learning,feedback_image_window,97vIdAwT2fVRnNfVX2kajhXTR6L2,97vIdAwT2fVRnNfVX2kajhXTR6L2,,,,,,,,,,,,,,,,,,,,,641373f8117053037093d10a,09:20:01,26/02/2024
html-keyboard-response,11,23337,0.0-5.0,,"<div style=""font-size:100px;"">+</div>",,delaylearn,learning,ITI,97vIdAwT2fVRnNfVX2kajhXTR6L2,97vIdAwT2fVRnNfVX2kajhXTR6L2,,,,,,,,,,,,,,,,,,2450.0,,,641373f8117053037093d10a,09:20:01,26/02/2024
html-keyboard-response,12,25091,0.0-6.0-0.0,1750.0999999940395,"<div style=""display: flex; flex-direction: column; align-items: center; margin-top: -40px;""><img src=""images/demo_images/pattern_1.png"" style=""width: 234px; height: 230px; margin-top: -50px;""><div style=""display: flex; justify-content: space-between; margin-top: 33px;""><img src=""images/demo_images/choice_trial_1.png"" style=""width: 408px; height: 417px; margin-right: 200px;""><img src=""images/demo_images/choice_trial_2.png"" style=""width: 408px; height: 417px;""></div></div>",f,delaylearn,learning,trial,97vIdAwT2fVRnNfVX2kajhXTR6L2,97vIdAwT2fVRnNfVX2kajhXTR6L2,3.0,images/demo_images/choice_trial_1.png,images/demo_images/choice_trial_2.png,images/demo_images/pattern_1.png,j,f,3000.0,1.0,2.0,20.0,3.0,1.0,0.0,1.0,10.0,,,,,,641373f8117053037093d10a,09:20:01,26/02/2024
html-keyboard-response,13,26098,0.0-6.0-1.0,,"<div style=""display: flex; flex-direction: column; align-items: center; margin-top: -40px;""><img src=""images/demo_images/pattern_1.png"" style=""width: 234px; height: 230px; margin-top: -50px;""><div style=""display: flex; justify-content: space-between; margin-top: 33px;""><img src=""images/demo_images/choice_trial_1.png"" style=""width: 408px; height: 417px; margin-right: 608px;""></div></div>",,delaylearn,learning,display_response,97vIdAwT2fVRnNfVX2kajhXTR6L2,97vIdAwT2fVRnNfVX2kajhXTR6L2,,,,,,,,,,,,,,,,chosen stimuli: images/demo_images/choice_trial_1.png,,,,,641373f8117053037093d10a,09:20:01,26/02/2024
html-keyboard-response,14,29115,0.0-6.0-2.0,,,,delaylearn,learning,feedback_duration_window,97vIdAwT2fVRnNfVX2kajhXTR6L2,97vIdAwT2fVRnNfVX2kajhXTR6L2,,,,,,,,,,,,,,,,,3000.0,,,,641373f8117053037093d10a,09:20:01,26/02/2024
html-keyboard-response,15,30623,0.0-6.0-3.0,,<div style='margin:auto;width: auto; font-size: 150%'><span style='font-weight: bold; font-size: 100px; color: red;'>0 points!</span><br><br></div>,,delaylearn,learning,feedback_image_window,97vIdAwT2fVRnNfVX2kajhXTR6L2,97vIdAwT2fVRnNfVX2kajhXTR6L2,,,,,,,,,,,,,,,,,,,,,641373f8117053037093d10a,09:20:01,26/02/2024
html-keyboard-response,16,32638,0.0-7.0,,"<div style=""font-size:100px;"">+</div>",,delaylearn,learning,ITI,97vIdAwT2fVRnNfVX2kajhXTR6L2,97vIdAwT2fVRnNfVX2kajhXTR6L2,,,,,,,,,,,,,,,,,,2011.0,,,641373f8117053037093d10a,09:20:01,26/02/2024
html-keyboard-response,17,34857,0.0-8.0-0.0,2214.2000000178814,"<div style=""display: flex; flex-direction: column; align-items: center; margin-top: -40px;""><img src=""images/demo_images/pattern_1.png"" style=""width: 234px; height: 230px; margin-top: -50px;""><div style=""display: flex; justify-content: space-between; margin-top: 33px;""><img src=""images/demo_images/choice_trial_1.png"" style=""width: 408px; height: 417px; margin-right: 200px;""><img src=""images/demo_images/choice_trial_2.png"" style=""width: 408px; height: 417px;""></div></div>",f,delaylearn,learning,trial,97vIdAwT2fVRnNfVX2kajhXTR6L2,97vIdAwT2fVRnNfVX2kajhXTR6L2,3.0,images/demo_images/choice_trial_1.png,images/demo_images/choice_trial_2.png,images/demo_images/pattern_1.png,f,f,3000.0,1.0,2.0,20.0,4.0,1.0,1.0,1.0,20.0,,,,,,641373f8117053037093d10a,09:20:01,26/02/2024
html-keyboard-response,18,35875,0.0-8.0-1.0,,"<div style=""display: flex; flex-direction: column; align-items: center; margin-top: -40px;""><img src=""images/demo_images/pattern_1.png"" style=""width: 234px; height: 230px; margin-top: -50px;""><div style=""display: flex; justify-content: space-between; margin-top: 33px;""><img src=""images/demo_images/choice_trial_1.png"" style=""width: 408px; height: 417px; margin-right: 608px;""></div></div>",,delaylearn,learning,display_response,97vIdAwT2fVRnNfVX2kajhXTR6L2,97vIdAwT2fVRnNfVX2kajhXTR6L2,,,,,,,,,,,,,,,,chosen stimuli: images/demo_images/choice_trial_1.png,,,,,641373f8117053037093d10a,09:20:01,26/02/2024
html-keyboard-response,19,38888,0.0-8.0-2.0,,,,delaylearn,learning,feedback_duration_window,97vIdAwT2fVRnNfVX2kajhXTR6L2,97vIdAwT2fVRnNfVX2kajhXTR6L2,,,,,,,,,,,,,,,,,3000.0,,,,641373f8117053037093d10a,09:20:01,26/02/2024
html-keyboard-response,20,40397,0.0-8.0-3.0,,<div style='margin:auto;width: auto; font-size: 150%'><span style='font-weight: bold; font-size: 100px; color: green;'>+10 points!</span><br><br></div>,,delaylearn,learning,feedback_image_window,97vIdAwT2fVRnNfVX2kajhXTR6L2,97vIdAwT2fVRnNfVX2kajhXTR6L2,,,,,,,,,,,,,,,,,,,,,641373f8117053037093d10a,09:20:01,26/02/2024
html-keyboard-response,21,40915,0.0-9.0-0.0,,,,,,mood_trial_fixation,97vIdAwT2fVRnNfVX2kajhXTR6L2,,,,,,,,,,,,,,,,,,,,,,641373f8117053037093d10a,09:20:01,26/02/2024
lmdlab-html-vas-response,22,47087,0.0-9.0-1.0,5129.0,How happy are you right now?,0.4935064935064935,delaylearn,learning,mood_trial,97vIdAwT2fVRnNfVX2kajhXTR6L2,97vIdAwT2fVRnNfVX2kajhXTR6L2,,,,,,,,,,,,,,,,,,,"['Very unhappy', 'Very happy']",,641373f8117053037093d10a,09:20:01,26/02/2024
html-keyboard-response,23,49150,0.0-10.0,,"<div style=""font-size:100px;"">+</div>",,delaylearn,learning,ITI,97vIdAwT2fVRnNfVX2kajhXTR6L2,97vIdAwT2fVRnNfVX2kajhXTR6L2,,,,,,,,,,,,,,,,,,2046.0,,,641373f8117053037093d10a,09:20:01,26/02/2024
html-keyboard-response,24,51410,0.0-11.0-0.0,2255.399999976158,"<div style=""display: flex; flex-direction: column; align-items: center; margin-top: -40px;""><img src=""images/demo_images/pattern_1.png"" style=""width: 234px; height: 230px; margin-top: -50px;""><div style=""display: flex; justify-content: space-between; margin-top: 33px;""><img src=""images/demo_images/choice_trial_2.png"" style=""width: 408px; height: 417px; margin-right: 200px;""><img src=""images/demo_images/choice_trial_1.png"" style=""width: 408px; height: 417px;""></div></div>",j,delaylearn,learning,trial,97vIdAwT2fVRnNfVX2kajhXTR6L2,97vIdAwT2fVRnNfVX2kajhXTR6L2,3.0,images/demo_images/choice_trial_2.png,images/demo_images/choice_trial_1.png,images/demo_images/pattern_1.png,j,j,3000.0,2.0,1.0,20.0,5.0,1.0,1.0,1.0,30.0,,,,,,641373f8117053037093d10a,09:20:01,26/02/2024
html-keyboard-response,25,52426,0.0-11.0-1.0,,"<div style=""display: flex; flex-direction: column; align-items: center; margin-top: -40px;""><img src=""images/demo_images/pattern_1.png"" style=""width: 234px; height: 230px; margin-top: -50px;""><div style=""display: flex; justify-content: space-between; margin-top: 33px;""><img src=""images/demo_images/choice_trial_1.png"" style=""width: 408px; height: 417px; margin-left:608px;""></div></div>",,delaylearn,learning,display_response,97vIdAwT2fVRnNfVX2kajhXTR6L2,97vIdAwT2fVRnNfVX2kajhXTR6L2,,,,,,,,,,,,,,,,chosen stimuli: images/demo_images/choice_trial_1.png,,,,,641373f8117053037093d10a,09:20:01,26/02/2024
html-keyboard-response,26,55435,0.0-11.0-2.0,,,,delaylearn,learning,feedback_duration_window,97vIdAwT2fVRnNfVX2kajhXTR6L2,97vIdAwT2fVRnNfVX2kajhXTR6L2,,,,,,,,,,,,,,,,,3000.0,,,,641373f8117053037093d10a,09:20:01,26/02/2024
html-keyboard-response,27,56949,0.0-11.0-3.0,,<div style='margin:auto;width: auto; font-size: 150%'><span style='font-weight: bold; font-size: 100px; color: green;'>+10 points!</span><br><br></div>,,delaylearn,learning,feedback_image_window,97vIdAwT2fVRnNfVX2kajhXTR6L2,97vIdAwT2fVRnNfVX2kajhXTR6L2,,,,,,,,,,,,,,,,,,,,,641373f8117053037093d10a,09:20:01,26/02/2024
html-keyboard-response,28,59232,0.0-12.0,,"<div style=""font-size:100px;"">+</div>",,delaylearn,learning,ITI,97vIdAwT2fVRnNfVX2kajhXTR6L2,97vIdAwT2fVRnNfVX2kajhXTR6L2,,,,,,,,,,,,,,,,,,2272.0,,,641373f8117053037093d10a,09:20:01,26/02/2024
html-keyboard-response,29,60362,0.0-13.0-0.0,1125.300000011921,"<div style=""display: flex; flex-direction: column; align-items: center; margin-top: -40px;""><img src=""images/demo_images/pattern_1.png"" style=""width: 234px; height: 230px; margin-top: -50px;""><div style=""display: flex; justify-content: space-between; margin-top: 33px;""><img src=""images/demo_images/choice_trial_1.png"" style=""width: 408px; height: 417px; margin-right: 200px;""><img src=""images/demo_images/choice_trial_2.png"" style=""width: 408px; height: 417px;""></div></div>",f,delaylearn,learning,trial,97vIdAwT2fVRnNfVX2kajhXTR6L2,97vIdAwT2fVRnNfVX2kajhXTR6L2,3.0,images/demo_images/choice_trial_1.png,images/demo_images/choice_trial_2.png,images/demo_images/pattern_1.png,f,f,3000.0,1.0,2.0,20.0,6.0,1.0,1.0,1.0,40.0,,,,,,641373f8117053037093d10a,09:20:01,26/02/2024
html-keyboard-response,30,61376,0.0-13.0-1.0,,"<div style=""display: flex; flex-direction: column; align-items: center; margin-top: -40px;""><img src=""images/demo_images/pattern_1.png"" style=""width: 234px; height: 230px; margin-top: -50px;""><div style=""display: flex; justify-content: space-between; margin-top: 33px;""><img src=""images/demo_images/choice_trial_1.png"" style=""width: 408px; height: 417px; margin-right: 608px;""></div></div>",,delaylearn,learning,display_response,97vIdAwT2fVRnNfVX2kajhXTR6L2,97vIdAwT2fVRnNfVX2kajhXTR6L2,,,,,,,,,,,,,,,,chosen stimuli: images/demo_images/choice_trial_1.png,,,,,641373f8117053037093d10a,09:20:01,26/02/2024
html-keyboard-response,31,64381,0.0-13.0-2.0,,,,delaylearn,learning,feedback_duration_window,97vIdAwT2fVRnNfVX2kajhXTR6L2,97vIdAwT2fVRnNfVX2kajhXTR6L2,,,,,,,,,,,,,,,,,3000.0,,,,641373f8117053037093d10a,09:20:01,26/02/2024
html-keyboard-response,32,65885,0.0-13.0-3.0,,<div style='margin:auto;width: auto; font-size: 150%'><span style='font-weight: bold; font-size: 100px; color: green;'>+10 points!</span><br><br></div>,,delaylearn,learning,feedback_image_window,97vIdAwT2fVRnNfVX2kajhXTR6L2,97vIdAwT2fVRnNfVX2kajhXTR6L2,,,,,,,,,,,,,,,,,,,,,641373f8117053037093d10a,09:20:01,26/02/2024
html-button-response,33,70582,0.0-14.0,4692.9000000059605,"
  <div style=""display: flex; align-items: center; justify-content: center; height: 80vh;"">
  <div>
          <img src=""images/inst_demo_finish.png"" style=""width: 80vw; height:auto;"">
          <br><br>
      </div>
      <br><br>
  </div>",0,,,,97vIdAwT2fVRnNfVX2kajhXTR6L2,,,,,,,,,,,,,,,,,,,,,,641373f8117053037093d10a,09:20:01,26/02/2024
html-keyboard-response,34,78786,0.0-15.0,8201.300000011921,"
  <div style=""display: flex; align-items: center; justify-content: center; height: 80vh;"">
  <div>
          <img src=""images/inst_6.png"" style=""width: 80vw; height:auto;"">
          <br><br>
      </div>
      <br><br>
  </div>",f,,,,97vIdAwT2fVRnNfVX2kajhXTR6L2,,,,,,,,,,,,,,,,,,,,,,641373f8117053037093d10a,09:20:01,26/02/2024
html-keyboard-response,35,81800,0.0-16.0,,"<div style=""font-size:100px;"">+</div>",,delaylearn,learning,pre_fixation,97vIdAwT2fVRnNfVX2kajhXTR6L2,,,,,,,,,,,,,,,,,,,,,,641373f8117053037093d10a,09:20:01,26/02/2024
html-keyboard-response,36,83373,0.0-17.0,,"<div style=""font-size:100px;"">+</div>",,delaylearn,learning,ITI,97vIdAwT2fVRnNfVX2kajhXTR6L2,97vIdAwT2fVRnNfVX2kajhXTR6L2,,,,,,,,,,,,,,,,,,1555.0,,,641373f8117053037093d10a,09:20:01,26/02/2024
html-keyboard-response,37,85204,0.0-18.0-0.0,1825.800000011921,"<div style=""display: flex; flex-direction: column; align-items: center; margin-top: -40px;""><img src=""images/pattern_3.png"" style=""width: 234px; height: 230px; margin-top: -50px;""><div style=""display: flex; justify-content: space-between; margin-top: 33px;""><img src=""images/choice_trial_14.png"" style=""width: 408px; height: 417px; margin-right: 200px;""><img src=""images/choice_trial_8.png"" style=""width: 408px; height: 417px;""></div></div>",f,delaylearn,learning,trial,97vIdAwT2fVRnNfVX2kajhXTR6L2,97vIdAwT2fVRnNfVX2kajhXTR6L2,3.0,images/choice_trial_14.png,images/choice_trial_8.png,images/pattern_3.png,f,f,7000.0,14.0,8.0,2.0,7.0,1.0,1.0,14.0,50.0,,,,,,641373f8117053037093d10a,09:20:01,26/02/2024
html-keyboard-response,38,86211,0.0-18.0-1.0,,"<div style=""display: flex; flex-direction: column; align-items: center; margin-top: -40px;""><img src=""images/pattern_3.png"" style=""width: 234px; height: 230px; margin-top: -50px;""><div style=""display: flex; justify-content: space-between; margin-top: 33px;""><img src=""images/choice_trial_14.png"" style=""width: 408px; height: 417px; margin-right: 608px;""></div></div>",,delaylearn,learning,display_response,97vIdAwT2fVRnNfVX2kajhXTR6L2,97vIdAwT2fVRnNfVX2kajhXTR6L2,,,,,,,,,,,,,,,,chosen stimuli: images/choice_trial_14.png,,,,,641373f8117053037093d10a,09:20:01,26/02/2024
html-keyboard-response,39,93229,0.0-18.0-2.0,,,,delaylearn,learning,feedback_duration_window,97vIdAwT2fVRnNfVX2kajhXTR6L2,97vIdAwT2fVRnNfVX2kajhXTR6L2,,,,,,,,,,,,,,,,,7000.0,,,,641373f8117053037093d10a,09:20:01,26/02/2024
html-keyboard-response,40,94741,0.0-18.0-3.0,,<div style='margin:auto;width: auto; font-size: 150%'><span style='font-weight: bold; font-size: 100px; color: green;'>+10 points!</span><br><br></div>,,delaylearn,learning,feedback_image_window,97vIdAwT2fVRnNfVX2kajhXTR6L2,97vIdAwT2fVRnNfVX2kajhXTR6L2,,,,,,,,,,,,,,,,,,,,,641373f8117053037093d10a,09:20:01,26/02/2024
html-keyboard-response,41,97199,0.0-19.0,,"<div style=""font-size:100px;"">+</div>",,delaylearn,learning,ITI,97vIdAwT2fVRnNfVX2kajhXTR6L2,97vIdAwT2fVRnNfVX2kajhXTR6L2,,,,,,,,,,,,,,,,,,2450.0,,,641373f8117053037093d10a,09:20:01,26/02/2024
html-keyboard-response,42,100219,0.0-20.0-0.0,,"<div style=""display: flex; flex-direction: column; align-items: center; margin-top: -40px;""><img src=""images/pattern_7.png"" style=""width: 234px; height: 230px; margin-top: -50px;""><div style=""display: flex; justify-content: space-between; margin-top: 33px;""><img src=""images/choice_trial_8.png"" style=""width: 408px; height: 417px; margin-right: 200px;""><img src=""images/choice_trial_14.png"" style=""width: 408px; height: 417px;""></div></div>",,delaylearn,learning,trial,97vIdAwT2fVRnNfVX2kajhXTR6L2,97vIdAwT2fVRnNfVX2kajhXTR6L2,3.0,images/choice_trial_8.png,images/choice_trial_14.png,images/pattern_7.png,j,j,750.0,8.0,14.0,6.0,8.0,0.0,0.0,0.0,50.0,,,,,,641373f8117053037093d10a,09:20:01,26/02/2024
html-keyboard-response,43,101238,0.0-20.0-1.0,,<div style='font-weight: bold; font-size: 75px; color: red;'>Missed Trial <br><br><br><br> Please respond faster</div>,,delaylearn,learning,display_response,97vIdAwT2fVRnNfVX2kajhXTR6L2,97vIdAwT2fVRnNfVX2kajhXTR6L2,,,,,,,,,,,,,,,,Missed trial,,,,,641373f8117053037093d10a,09:20:01,26/02/2024
html-keyboard-response,44,101246,0.0-20.0-2.0,,,,delaylearn,learning,feedback_duration_window,97vIdAwT2fVRnNfVX2kajhXTR6L2,97vIdAwT2fVRnNfVX2kajhXTR6L2,,,,,,,,,,,,,,,,,0.0,,,,641373f8117053037093d10a,09:20:01,26/02/2024
html-keyboard-response,45,101254,0.0-20.0-3.0,,,,delaylearn,learning,feedback_image_window,97vIdAwT2fVRnNfVX2kajhXTR6L2,97vIdAwT2fVRnNfVX2kajhXTR6L2,,,,,,,,,,,,,,,,,,,,,641373f8117053037093d10a,09:20:01,26/02/2024
html-keyboard-response,46,102968,0.0-21.0,,"<div style=""font-size:100px;"">+</div>",,delaylearn,learning,ITI,97vIdAwT2fVRnNfVX2kajhXTR6L2,97vIdAwT2fVRnNfVX2kajhXTR6L2,,,,,,,,,,,,,,,,,,1707.0,,,641373f8117053037093d10a,09:20:01,26/02/2024
html-keyboard-response,47,104192,0.0-22.0-0.0,1219.9000000059605,"<div style=""display: flex; flex-direction: column; align-items: center; margin-top: -40px;""><img src=""images/pattern_4.png"" style=""width: 234px; height: 230px; margin-top: -50px;""><div style=""display: flex; justify-content: space-between; margin-top: 33px;""><img src=""images/choice_trial_14.png"" style=""width: 408px; height: 417px; margin-right: 200px;""><img src=""images/choice_trial_8.png"" style=""width: 408px; height: 417px;""></div></div>",f,delaylearn,learning,trial,97vIdAwT2fVRnNfVX2kajhXTR6L2,97vIdAwT2fVRnNfVX2kajhXTR6L2,3.0,images/choice_trial_14.png,images/choice_trial_8.png,images/pattern_4.png,f,f,7000.0,14.0,8.0,3.0,9.0,1.0,1.0,14.0,60.0,,,,,,641373f8117053037093d10a,09:20:01,26/02/2024
html-keyboard-response,48,105205,0.0-22.0-1.0,,"<div style=""display: flex; flex-direction: column; align-items: center; margin-top: -40px;""><img src=""images/pattern_4.png"" style=""width: 234px; height: 230px; margin-top: -50px;""><div style=""display: flex; justify-content: space-between; margin-top: 33px;""><img src=""images/choice_trial_14.png"" style=""width: 408px; height: 417px; margin-right: 608px;""></div></div>",,delaylearn,learning,display_response,97vIdAwT2fVRnNfVX2kajhXTR6L2,97vIdAwT2fVRnNfVX2kajhXTR6L2,,,,,,,,,,,,,,,,chosen stimuli: images/choice_trial_14.png,,,,,641373f8117053037093d10a,09:20:01,26/02/2024
html-keyboard-response,49,112222,0.0-22.0-2.0,,,,delaylearn,learning,feedback_duration_window,97vIdAwT2fVRnNfVX2kajhXTR6L2,97vIdAwT2fVRnNfVX2kajhXTR6L2,,,,,,,,,,,,,,,,,7000.0,,,,641373f8117053037093d10a,09:20:01,26/02/2024
html-keyboard-response,50,113734,0.0-22.0-3.0,,<div style='margin:auto;width: auto; font-size: 150%'><span style='font-weight: bold; font-size: 100px; color: green;'>+10 points!</span><br><br></div>,,delaylearn,learning,feedback_image_window,97vIdAwT2fVRnNfVX2kajhXTR6L2,97vIdAwT2fVRnNfVX2kajhXTR6L2,,,,,,,,,,,,,,,,,,,,,641373f8117053037093d10a,09:20:01,26/02/2024
html-keyboard-response,51,115481,0.0-23.0,,"<div style=""font-size:100px;"">+</div>",,delaylearn,learning,ITI,97vIdAwT2fVRnNfVX2kajhXTR6L2,97vIdAwT2fVRnNfVX2kajhXTR6L2,,,,,,,,,,,,,,,,,,1733.0,,,641373f8117053037093d10a,09:20:01,26/02/2024
html-keyboard-response,52,116620,0.0-24.0-0.0,1134.4000000059605,"<div style=""display: flex; flex-direction: column; align-items: center; margin-top: -40px;""><img src=""images/pattern_5.png"" style=""width: 234px; height: 230px; margin-top: -50px;""><div style=""display: flex; justify-content: space-between; margin-top: 33px;""><img src=""images/choice_trial_8.png"" style=""width: 408px; height: 417px; margin-right: 200px;""><img src=""images/choice_trial_14.png"" style=""width: 408px; height: 417px;""></div></div>",f,delaylearn,learning,trial,97vIdAwT2fVRnNfVX2kajhXTR6L2,97vIdAwT2fVRnNfVX2kajhXTR6L2,3.0,images/choice_trial_8.png,images/choice_trial_14.png,images/pattern_5.png,j,j,750.0,8.0,14.0,4.0,10.0,0.0,0.0,8.0,60.0,,,,,,641373f8117053037093d10a,09:20:01,26/02/2024
html-keyboard-response,53,117629,0.0-24.0-1.0,,"<div style=""display: flex; flex-direction: column; align-items: center; margin-top: -40px;""><img src=""images/pattern_5.png"" style=""width: 234px; height: 230px; margin-top: -50px;""><div style=""display: flex; justify-content: space-between; margin-top: 33px;""><img src=""images/choice_trial_8.png"" style=""width: 408px; height: 417px; margin-right: 608px;""></div></div>",,delaylearn,learning,display_response,97vIdAwT2fVRnNfVX2kajhXTR6L2,97vIdAwT2fVRnNfVX2kajhXTR6L2,,,,,,,,,,,,,,,,chosen stimuli: images/choice_trial_8.png,,,,,641373f8117053037093d10a,09:20:01,26/02/2024
html-keyboard-response,54,118397,0.0-24.0-2.0,,,,delaylearn,learning,feedback_duration_window,97vIdAwT2fVRnNfVX2kajhXTR6L2,97vIdAwT2fVRnNfVX2kajhXTR6L2,,,,,,,,,,,,,,,,,750.0,,,,641373f8117053037093d10a,09:20:01,26/02/2024
html-keyboard-response,55,119911,0.0-24.0-3.0,,<div style='margin:auto;width: auto; font-size: 150%'><span style='font-weight: bold; font-size: 100px; color: red;'>0 points!</span><br><br></div>,,delaylearn,learning,feedback_image_window,97vIdAwT2fVRnNfVX2kajhXTR6L2,97vIdAwT2fVRnNfVX2kajhXTR6L2,,,,,,,,,,,,,,,,,,,,,641373f8117053037093d10a,09:20:01,26/02/2024
html-keyboard-response,56,121610,0.0-25.0,,"<div style=""font-size:100px;"">+</div>",,delaylearn,learning,ITI,97vIdAwT2fVRnNfVX2kajhXTR6L2,97vIdAwT2fVRnNfVX2kajhXTR6L2,,,,,,,,,,,,,,,,,,1689.0,,,641373f8117053037093d10a,09:20:01,26/02/2024
html-keyboard-response,57,123756,0.0-26.0-0.0,2141.800000011921,"<div style=""display: flex; flex-direction: column; align-items: center; margin-top: -40px;""><img src=""images/pattern_6.png"" style=""width: 234px; height: 230px; margin-top: -50px;""><div style=""display: flex; justify-content: space-between; margin-top: 33px;""><img src=""images/choice_trial_13.png"" style=""width: 408px; height: 417px; margin-right: 200px;""><img src=""images/choice_trial_10.png"" style=""width: 408px; height: 417px;""></div></div>",j,delaylearn,learning,trial,97vIdAwT2fVRnNfVX2kajhXTR6L2,97vIdAwT2fVRnNfVX2kajhXTR6L2,3.0,images/choice_trial_13.png,images/choice_trial_10.png,images/pattern_6.png,j,f,750.0,13.0,10.0,5.0,11.0,0.0,1.0,10.0,70.0,,,,,,641373f8117053037093d10a,09:20:01,26/02/2024
html-keyboard-response,58,124767,0.0-26.0-1.0,,"<div style=""display: flex; flex-direction: column; align-items: center; margin-top: -40px;""><img src=""images/pattern_6.png"" style=""width: 234px; height: 230px; margin-top: -50px;""><div style=""display: flex; justify-content: space-between; margin-top: 33px;""><img src=""images/choice_trial_10.png"" style=""width: 408px; height: 417px; margin-left:608px;""></div></div>",,delaylearn,learning,display_response,97vIdAwT2fVRnNfVX2kajhXTR6L2,97vIdAwT2fVRnNfVX2kajhXTR6L2,,,,,,,,,,,,,,,,chosen stimuli: images/choice_trial_10.png,,,,,641373f8117053037093d10a,09:20:01,26/02/2024
html-keyboard-response,59,125528,0.0-26.0-2.0,,,,delaylearn,learning,feedback_duration_window,97vIdAwT2fVRnNfVX2kajhXTR6L2,97vIdAwT2fVRnNfVX2kajhXTR6L2,,,,,,,,,,,,,,,,,750.0,,,,641373f8117053037093d10a,09:20:01,26/02/2024
html-keyboard-response,60,127038,0.0-26.0-3.0,,<div style='margin:auto;width: auto; font-size: 150%'><span style='font-weight: bold; font-size: 100px; color: green;'>+10 points!</span><br><br></div>,,delaylearn,learning,feedback_image_window,97vIdAwT2fVRnNfVX2kajhXTR6L2,97vIdAwT2fVRnNfVX2kajhXTR6L2,,,,,,,,,,,,,,,,,,,,,641373f8117053037093d10a,09:20:01,26/02/2024
html-keyboard-response,61,128907,0.0-27.0,,"<div style=""font-size:100px;"">+</div>",,delaylearn,learning,ITI,97vIdAwT2fVRnNfVX2kajhXTR6L2,97vIdAwT2fVRnNfVX2kajhXTR6L2,,,,,,,,,,,,,,,,,,1862.0,,,641373f8117053037093d10a,09:20:01,26/02/2024
html-keyboard-response,62,130065,0.0-28.0-0.0,1154.0,"<div style=""display: flex; flex-direction: column; align-items: center; margin-top: -40px;""><img src=""images/pattern_1.png"" style=""width: 234px; height: 230px; margin-top: -50px;""><div style=""display: flex; justify-content: space-between; margin-top: 33px;""><img src=""images/choice_trial_8.png"" style=""width: 408px; height: 417px; margin-right: 200px;""><img src=""images/choice_trial_14.png"" style=""width: 408px; height: 417px;""></div></div>",f,delaylearn,learning,trial,97vIdAwT2fVRnNfVX2kajhXTR6L2,97vIdAwT2fVRnNfVX2kajhXTR6L2,3.0,images/choice_trial_8.png,images/choice_trial_14.png,images/pattern_1.png,j,j,7000.0,8.0,14.0,1.0,12.0,0.0,0.0,8.0,70.0,,,,,,641373f8117053037093d10a,09:20:01,26/02/2024
html-keyboard-response,63,131076,0.0-28.0-1.0,,"<div style=""display: flex; flex-direction: column; align-items: center; margin-top: -40px;""><img src=""images/pattern_1.png"" style=""width: 234px; height: 230px; margin-top: -50px;""><div style=""display: flex; justify-content: space-between; margin-top: 33px;""><img src=""images/choice_trial_8.png"" style=""width: 408px; height: 417px; margin-right: 608px;""></div></div>",,delaylearn,learning,display_response,97vIdAwT2fVRnNfVX2kajhXTR6L2,97vIdAwT2fVRnNfVX2kajhXTR6L2,,,,,,,,,,,,,,,,chosen stimuli: images/choice_trial_8.png,,,,,641373f8117053037093d10a,09:20:01,26/02/2024
html-keyboard-response,64,138082,0.0-28.0-2.0,,,,delaylearn,learning,feedback_duration_window,97vIdAwT2fVRnNfVX2kajhXTR6L2,97vIdAwT2fVRnNfVX2kajhXTR6L2,,,,,,,,,,,,,,,,,7000.0,,,,641373f8117053037093d10a,09:20:01,26/02/2024
html-keyboard-response,65,139591,0.0-28.0-3.0,,<div style='margin:auto;width: auto; font-size: 150%'><span style='font-weight: bold; font-size: 100px; color: red;'>0 points!</span><br><br></div>,,delaylearn,learning,feedback_image_window,97vIdAwT2fVRnNfVX2kajhXTR6L2,97vIdAwT2fVRnNfVX2kajhXTR6L2,,,,,,,,,,,,,,,,,,,,,641373f8117053037093d10a,09:20:01,26/02/2024
html-keyboard-response,66,141735,0.0-29.0,,"<div style=""font-size:100px;"">+</div>",,delaylearn,learning,ITI,97vIdAwT2fVRnNfVX2kajhXTR6L2,97vIdAwT2fVRnNfVX2kajhXTR6L2,,,,,,,,,,,,,,,,,,2140.0,,,641373f8117053037093d10a,09:20:01,26/02/2024
html-keyboard-response,67,143380,0.0-30.0-0.0,1640.699999988079,"<div style=""display: flex; flex-direction: column; align-items: center; margin-top: -40px;""><img src=""images/pattern_3.png"" style=""width: 234px; height: 230px; margin-top: -50px;""><div style=""display: flex; justify-content: space-between; margin-top: 33px;""><img src=""images/choice_trial_10.png"" style=""width: 408px; height: 417px; margin-right: 200px;""><img src=""images/choice_trial_13.png"" style=""width: 408px; height: 417px;""></div></div>",f,delaylearn,learning,trial,97vIdAwT2fVRnNfVX2kajhXTR6L2,97vIdAwT2fVRnNfVX2kajhXTR6L2,3.0,images/choice_trial_10.png,images/choice_trial_13.png,images/pattern_3.png,f,j,7000.0,10.0,13.0,2.0,13.0,0.0,1.0,10.0,80.0,,,,,,641373f8117053037093d10a,09:20:01,26/02/2024
html-keyboard-response,68,144385,0.0-30.0-1.0,,"<div style=""display: flex; flex-direction: column; align-items: center; margin-top: -40px;""><img src=""images/pattern_3.png"" style=""width: 234px; height: 230px; margin-top: -50px;""><div style=""display: flex; justify-content: space-between; margin-top: 33px;""><img src=""images/choice_trial_10.png"" style=""width: 408px; height: 417px; margin-right: 608px;""></div></div>",,delaylearn,learning,display_response,97vIdAwT2fVRnNfVX2kajhXTR6L2,97vIdAwT2fVRnNfVX2kajhXTR6L2,,,,,,,,,,,,,,,,chosen stimuli: images/choice_trial_10.png,,,,,641373f8117053037093d10a,09:20:01,26/02/2024
html-keyboard-response,69,151398,0.0-30.0-2.0,,,,delaylearn,learning,feedback_duration_window,97vIdAwT2fVRnNfVX2kajhXTR6L2,97vIdAwT2fVRnNfVX2kajhXTR6L2,,,,,,,,,,,,,,,,,7000.0,,,,641373f8117053037093d10a,09:20:01,26/02/2024
html-keyboard-response,70,152908,0.0-30.0-3.0,,<div style='margin:auto;width: auto; font-size: 150%'><span style='font-weight: bold; font-size: 100px; color: green;'>+10 points!</span><br><br></div>,,delaylearn,learning,feedback_image_window,97vIdAwT2fVRnNfVX2kajhXTR6L2,97vIdAwT2fVRnNfVX2kajhXTR6L2,,,,,,,,,,,,,,,,,,,,,641373f8117053037093d10a,09:20:01,26/02/2024
html-keyboard-response,71,154454,0.0-31.0,,"<div style=""font-size:100px;"">+</div>",,delaylearn,learning,ITI,97vIdAwT2fVRnNfVX2kajhXTR6L2,97vIdAwT2fVRnNfVX2kajhXTR6L2,,,,,,,,,,,,,,,,,,1536.0,,,641373f8117053037093d10a,09:20:01,26/02/2024
html-keyboard-response,72,156351,0.0-32.0-0.0,1892.2999999821186,"<div style=""display: flex; flex-direction: column; align-items: center; margin-top: -40px;""><img src=""images/pattern_5.png"" style=""width: 234px; height: 230px; margin-top: -50px;""><div style=""display: flex; justify-content: space-between; margin-top: 33px;""><img src=""images/choice_trial_13.png"" style=""width: 408px; height: 417px; margin-right: 200px;""><img src=""images/choice_trial_10.png"" style=""width: 408px; height: 417px;""></div></div>",j,delaylearn,learning,trial,97vIdAwT2fVRnNfVX2kajhXTR6L2,97vIdAwT2fVRnNfVX2kajhXTR6L2,3.0,images/choice_trial_13.png,images/choice_trial_10.png,images/pattern_5.png,f,f,750.0,13.0,10.0,4.0,14.0,0.0,0.0,10.0,80.0,,,,,,641373f8117053037093d10a,09:20:01,26/02/2024
html-keyboard-response,73,157367,0.0-32.0-1.0,,"<div style=""display: flex; flex-direction: column; align-items: center; margin-top: -40px;""><img src=""images/pattern_5.png"" style=""width: 234px; height: 230px; margin-top: -50px;""><div style=""display: flex; justify-content: space-between; margin-top: 33px;""><img src=""images/choice_trial_10.png"" style=""width: 408px; height: 417px; margin-left:608px;""></div></div>",,delaylearn,learning,display_response,97vIdAwT2fVRnNfVX2kajhXTR6L2,97vIdAwT2fVRnNfVX2kajhXTR6L2,,,,,,,,,,,,,,,,chosen stimuli: images/choice_trial_10.png,,,,,641373f8117053037093d10a,09:20:01,26/02/2024
html-keyboard-response,74,158126,0.0-32.0-2.0,,,,delaylearn,learning,feedback_duration_window,97vIdAwT2fVRnNfVX2kajhXTR6L2,97vIdAwT2fVRnNfVX2kajhXTR6L2,,,,,,,,,,,,,,,,,750.0,,,,641373f8117053037093d10a,09:20:01,26/02/2024
html-keyboard-response,75,159629,0.0-32.0-3.0,,<div style='margin:auto;width: auto; font-size: 150%'><span style='font-weight: bold; font-size: 100px; color: red;'>0 points!</span><br><br></div>,,delaylearn,learning,feedback_image_window,97vIdAwT2fVRnNfVX2kajhXTR6L2,97vIdAwT2fVRnNfVX2kajhXTR6L2,,,,,,,,,,,,,,,,,,,,,641373f8117053037093d10a,09:20:01,26/02/2024
html-keyboard-response,76,160137,0.0-33.0-0.0,,,,,,mood_trial_fixation,97vIdAwT2fVRnNfVX2kajhXTR6L2,,,,,,,,,,,,,,,,,,,,,,641373f8117053037093d10a,09:20:01,26/02/2024
lmdlab-html-vas-response,77,164822,0.0-33.0-1.0,3668.0,How happy are you right now?,0.37414804516632194,delaylearn,learning,mood_trial,97vIdAwT2fVRnNfVX2kajhXTR6L2,97vIdAwT2fVRnNfVX2kajhXTR6L2,,,,,,,,,,,,,,,,,,,"['Very unhappy', 'Very happy']",,641373f8117053037093d10a,09:20:01,26/02/2024
html-keyboard-response,78,166554,0.0-34.0,,"<div style=""font-size:100px;"">+</div>",,delaylearn,learning,ITI,97vIdAwT2fVRnNfVX2kajhXTR6L2,97vIdAwT2fVRnNfVX2kajhXTR6L2,,,,,,,,,,,,,,,,,,1724.0,,,641373f8117053037093d10a,09:20:01,26/02/2024
html-keyboard-response,79,168975,0.0-35.0-0.0,2415.4000000059605,"<div style=""display: flex; flex-direction: column; align-items: center; margin-top: -40px;""><img src=""images/pattern_6.png"" style=""width: 234px; height: 230px; margin-top: -50px;""><div style=""display: flex; justify-content: space-between; margin-top: 33px;""><img src=""images/choice_trial_14.png"" style=""width: 408px; height: 417px; margin-right: 200px;""><img src=""images/choice_trial_8.png"" style=""width: 408px; height: 417px;""></div></div>",f,delaylearn,learning,trial,97vIdAwT2fVRnNfVX2kajhXTR6L2,97vIdAwT2fVRnNfVX2kajhXTR6L2,3.0,images/choice_trial_14.png,images/choice_trial_8.png,images/pattern_6.png,j,f,750.0,14.0,8.0,5.0,15.0,1.0,0.0,14.0,80.0,,,,,,641373f8117053037093d10a,09:20:01,26/02/2024
html-keyboard-response,80,169992,0.0-35.0-1.0,,"<div style=""display: flex; flex-direction: column; align-items: center; margin-top: -40px;""><img src=""images/pattern_6.png"" style=""width: 234px; height: 230px; margin-top: -50px;""><div style=""display: flex; justify-content: space-between; margin-top: 33px;""><img src=""images/choice_trial_14.png"" style=""width: 408px; height: 417px; margin-right: 608px;""></div></div>",,delaylearn,learning,display_response,97vIdAwT2fVRnNfVX2kajhXTR6L2,97vIdAwT2fVRnNfVX2kajhXTR6L2,,,,,,,,,,,,,,,,chosen stimuli: images/choice_trial_14.png,,,,,641373f8117053037093d10a,09:20:01,26/02/2024
html-keyboard-response,81,170753,0.0-35.0-2.0,,,,delaylearn,learning,feedback_duration_window,97vIdAwT2fVRnNfVX2kajhXTR6L2,97vIdAwT2fVRnNfVX2kajhXTR6L2,,,,,,,,,,,,,,,,,750.0,,,,641373f8117053037093d10a,09:20:01,26/02/2024
html-keyboard-response,82,172269,0.0-35.0-3.0,,<div style='margin:auto;width: auto; font-size: 150%'><span style='font-weight: bold; font-size: 100px; color: red;'>0 points!</span><br><br></div>,,delaylearn,learning,feedback_image_window,97vIdAwT2fVRnNfVX2kajhXTR6L2,97vIdAwT2fVRnNfVX2kajhXTR6L2,,,,,,,,,,,,,,,,,,,,,641373f8117053037093d10a,09:20:01,26/02/2024
html-keyboard-response,83,172782,0.0-36.0-0.0,,,,,,mood_trial_fixation,97vIdAwT2fVRnNfVX2kajhXTR6L2,,,,,,,,,,,,,,,,,,,,,,641373f8117053037093d10a,09:20:01,26/02/2024
lmdlab-html-vas-response,84,177214,0.0-36.0-1.0,3422.0,How happy are you right now?,0.3958495812281713,delaylearn,learning,mood_trial,97vIdAwT2fVRnNfVX2kajhXTR6L2,97vIdAwT2fVRnNfVX2kajhXTR6L2,,,,,,,,,,,,,,,,,,,"['Very unhappy', 'Very happy']",,641373f8117053037093d10a,09:20:01,26/02/2024
html-keyboard-response,85,179402,0.0-37.0,,"<div style=""font-size:100px;"">+</div>",,delaylearn,learning,ITI,97vIdAwT2fVRnNfVX2kajhXTR6L2,97vIdAwT2fVRnNfVX2kajhXTR6L2,,,,,,,,,,,,,,,,,,2184.0,,,641373f8117053037093d10a,09:20:01,26/02/2024
html-keyboard-response,86,182231,0.0-38.0-0.0,2824.0999999940395,"<div style=""display: flex; flex-direction: column; align-items: center; margin-top: -40px;""><img src=""images/pattern_4.png"" style=""width: 234px; height: 230px; margin-top: -50px;""><div style=""display: flex; justify-content: space-between; margin-top: 33px;""><img src=""images/choice_trial_10.png"" style=""width: 408px; height: 417px; margin-right: 200px;""><img src=""images/choice_trial_13.png"" style=""width: 408px; height: 417px;""></div></div>",f,delaylearn,learning,trial,97vIdAwT2fVRnNfVX2kajhXTR6L2,97vIdAwT2fVRnNfVX2kajhXTR6L2,3.0,images/choice_trial_10.png,images/choice_trial_13.png,images/pattern_4.png,j,j,7000.0,10.0,13.0,3.0,16.0,0.0,0.0,10.0,80.0,,,,,,641373f8117053037093d10a,09:20:01,26/02/2024
html-keyboard-response,87,183245,0.0-38.0-1.0,,"<div style=""display: flex; flex-direction: column; align-items: center; margin-top: -40px;""><img src=""images/pattern_4.png"" style=""width: 234px; height: 230px; margin-top: -50px;""><div style=""display: flex; justify-content: space-between; margin-top: 33px;""><img src=""images/choice_trial_10.png"" style=""width: 408px; height: 417px; margin-right: 608px;""></div></div>",,delaylearn,learning,display_response,97vIdAwT2fVRnNfVX2kajhXTR6L2,97vIdAwT2fVRnNfVX2kajhXTR6L2,,,,,,,,,,,,,,,,chosen stimuli: images/choice_trial_10.png,,,,,641373f8117053037093d10a,09:20:01,26/02/2024
html-keyboard-response,88,190255,0.0-38.0-2.0,,,,delaylearn,learning,feedback_duration_window,97vIdAwT2fVRnNfVX2kajhXTR6L2,97vIdAwT2fVRnNfVX2kajhXTR6L2,,,,,,,,,,,,,,,,,7000.0,,,,641373f8117053037093d10a,09:20:01,26/02/2024
html-keyboard-response,89,191774,0.0-38.0-3.0,,<div style='margin:auto;width: auto; font-size: 150%'><span style='font-weight: bold; font-size: 100px; color: red;'>0 points!</span><br><br></div>,,delaylearn,learning,feedback_image_window,97vIdAwT2fVRnNfVX2kajhXTR6L2,97vIdAwT2fVRnNfVX2kajhXTR6L2,,,,,,,,,,,,,,,,,,,,,641373f8117053037093d10a,09:20:01,26/02/2024
html-keyboard-response,90,193733,0.0-39.0,,"<div style=""font-size:100px;"">+</div>",,delaylearn,learning,ITI,97vIdAwT2fVRnNfVX2kajhXTR6L2,97vIdAwT2fVRnNfVX2kajhXTR6L2,,,,,,,,,,,,,,,,,,1946.0,,,641373f8117053037093d10a,09:20:01,26/02/2024
html-keyboard-response,91,196750,0.0-40.0-0.0,,"<div style=""display: flex; flex-direction: column; align-items: center; margin-top: -40px;""><img src=""images/pattern_7.png"" style=""width: 234px; height: 230px; margin-top: -50px;""><div style=""display: flex; justify-content: space-between; margin-top: 33px;""><img src=""images/choice_trial_13.png"" style=""width: 408px; height: 417px; margin-right: 200px;""><img src=""images/choice_trial_10.png"" style=""width: 408px; height: 417px;""></div></div>",,delaylearn,learning,trial,97vIdAwT2fVRnNfVX2kajhXTR6L2,97vIdAwT2fVRnNfVX2kajhXTR6L2,3.0,images/choice_trial_13.png,images/choice_trial_10.png,images/pattern_7.png,f,f,750.0,13.0,10.0,6.0,17.0,0.0,0.0,0.0,80.0,,,,,,641373f8117053037093d10a,09:20:01,26/02/2024
html-keyboard-response,92,197769,0.0-40.0-1.0,,<div style='font-weight: bold; font-size: 75px; color: red;'>Missed Trial <br><br><br><br> Please respond faster</div>,,delaylearn,learning,display_response,97vIdAwT2fVRnNfVX2kajhXTR6L2,97vIdAwT2fVRnNfVX2kajhXTR6L2,,,,,,,,,,,,,,,,Missed trial,,,,,641373f8117053037093d10a,09:20:01,26/02/2024
html-keyboard-response,93,197777,0.0-40.0-2.0,,,,delaylearn,learning,feedback_duration_window,97vIdAwT2fVRnNfVX2kajhXTR6L2,97vIdAwT2fVRnNfVX2kajhXTR6L2,,,,,,,,,,,,,,,,,0.0,,,,641373f8117053037093d10a,09:20:01,26/02/2024
html-keyboard-response,94,197785,0.0-40.0-3.0,,,,delaylearn,learning,feedback_image_window,97vIdAwT2fVRnNfVX2kajhXTR6L2,97vIdAwT2fVRnNfVX2kajhXTR6L2,,,,,,,,,,,,,,,,,,,,,641373f8117053037093d10a,09:20:01,26/02/2024
html-keyboard-response,95,199765,0.0-41.0,,"<div style=""font-size:100px;"">+</div>",,delaylearn,learning,ITI,97vIdAwT2fVRnNfVX2kajhXTR6L2,97vIdAwT2fVRnNfVX2kajhXTR6L2,,,,,,,,,,,,,,,,,,1970.0,,,641373f8117053037093d10a,09:20:01,26/02/2024
html-keyboard-response,96,201001,0.0-42.0-0.0,1231.7999999821186,"<div style=""display: flex; flex-direction: column; align-items: center; margin-top: -40px;""><img src=""images/pattern_1.png"" style=""width: 234px; height: 230px; margin-top: -50px;""><div style=""display: flex; justify-content: space-between; margin-top: 33px;""><img src=""images/choice_trial_13.png"" style=""width: 408px; height: 417px; margin-right: 200px;""><img src=""images/choice_trial_10.png"" style=""width: 408px; height: 417px;""></div></div>",f,delaylearn,learning,trial,97vIdAwT2fVRnNfVX2kajhXTR6L2,97vIdAwT2fVRnNfVX2kajhXTR6L2,3.0,images/choice_trial_13.png,images/choice_trial_10.png,images/pattern_1.png,f,f,7000.0,13.0,10.0,1.0,18.0,1.0,1.0,13.0,90.0,,,,,,641373f8117053037093d10a,09:20:01,26/02/2024
html-keyboard-response,97,202011,0.0-42.0-1.0,,"<div style=""display: flex; flex-direction: column; align-items: center; margin-top: -40px;""><img src=""images/pattern_1.png"" style=""width: 234px; height: 230px; margin-top: -50px;""><div style=""display: flex; justify-content: space-between; margin-top: 33px;""><img src=""images/choice_trial_13.png"" style=""width: 408px; height: 417px; margin-right: 608px;""></div></div>",,delaylearn,learning,display_response,97vIdAwT2fVRnNfVX2kajhXTR6L2,97vIdAwT2fVRnNfVX2kajhXTR6L2,,,,,,,,,,,,,,,,chosen stimuli: images/choice_trial_13.png,,,,,641373f8117053037093d10a,09:20:01,26/02/2024
html-keyboard-response,98,209022,0.0-42.0-2.0,,,,delaylearn,learning,feedback_duration_window,97vIdAwT2fVRnNfVX2kajhXTR6L2,97vIdAwT2fVRnNfVX2kajhXTR6L2,,,,,,,,,,,,,,,,,7000.0,,,,641373f8117053037093d10a,09:20:01,26/02/2024
html-keyboard-response,99,210530,0.0-42.0-3.0,,<div style='margin:auto;width: auto; font-size: 150%'><span style='font-weight: bold; font-size: 100px; color: green;'>+10 points!</span><br><br></div>,,delaylearn,learning,feedback_image_window,97vIdAwT2fVRnNfVX2kajhXTR6L2,97vIdAwT2fVRnNfVX2kajhXTR6L2,,,,,,,,,,,,,,,,,,,,,641373f8117053037093d10a,09:20:01,26/02/2024
html-keyboard-response,100,212043,0.0-43.0,,"<div style=""font-size:100px;"">+</div>",,delaylearn,learning,ITI,97vIdAwT2fVRnNfVX2kajhXTR6L2,97vIdAwT2fVRnNfVX2kajhXTR6L2,,,,,,,,,,,,,,,,,,1507.0,,,641373f8117053037093d10a,09:20:01,26/02/2024
html-keyboard-response,101,214097,0.0-44.0-0.0,2048.9000000059605,"<div style=""display: flex; flex-direction: column; align-items: center; margin-top: -40px;""><img src=""images/pattern_6.png"" style=""width: 234px; height: 230px; margin-top: -50px;""><div style=""display: flex; justify-content: space-between; margin-top: 33px;""><img src=""images/choice_trial_9.png"" style=""width: 408px; height: 417px; margin-right: 200px;""><img src=""images/choice_trial_15.png"" style=""width: 408px; height: 417px;""></div></div>",j,delaylearn,learning,trial,97vIdAwT2fVRnNfVX2kajhXTR6L2,97vIdAwT2fVRnNfVX2kajhXTR6L2,3.0,images/choice_trial_9.png,images/choice_trial_15.png,images/pattern_6.png,j,j,750.0,9.0,15.0,5.0,19.0,1.0,1.0,15.0,100.0,,,,,,641373f8117053037093d10a,09:20:01,26/02/2024
html-keyboard-response,102,215113,0.0-44.0-1.0,,"<div style=""display: flex; flex-direction: column; align-items: center; margin-top: -40px;""><img src=""images/pattern_6.png"" style=""width: 234px; height: 230px; margin-top: -50px;""><div style=""display: flex; justify-content: space-between; margin-top: 33px;""><img src=""images/choice_trial_15.png"" style=""width: 408px; height: 417px; margin-left:608px;""></div></div>",,delaylearn,learning,display_response,97vIdAwT2fVRnNfVX2kajhXTR6L2,97vIdAwT2fVRnNfVX2kajhXTR6L2,,,,,,,,,,,,,,,,chosen stimuli: images/choice_trial_15.png,,,,,641373f8117053037093d10a,09:20:01,26/02/2024
html-keyboard-response,103,215869,0.0-44.0-2.0,,,,delaylearn,learning,feedback_duration_window,97vIdAwT2fVRnNfVX2kajhXTR6L2,97vIdAwT2fVRnNfVX2kajhXTR6L2,,,,,,,,,,,,,,,,,750.0,,,,641373f8117053037093d10a,09:20:01,26/02/2024
html-keyboard-response,104,217376,0.0-44.0-3.0,,<div style='margin:auto;width: auto; font-size: 150%'><span style='font-weight: bold; font-size: 100px; color: green;'>+10 points!</span><br><br></div>,,delaylearn,learning,feedback_image_window,97vIdAwT2fVRnNfVX2kajhXTR6L2,97vIdAwT2fVRnNfVX2kajhXTR6L2,,,,,,,,,,,,,,,,,,,,,641373f8117053037093d10a,09:20:01,26/02/2024
html-keyboard-response,105,219748,0.0-45.0,,"<div style=""font-size:100px;"">+</div>",,delaylearn,learning,ITI,97vIdAwT2fVRnNfVX2kajhXTR6L2,97vIdAwT2fVRnNfVX2kajhXTR6L2,,,,,,,,,,,,,,,,,,2363.0,,,641373f8117053037093d10a,09:20:01,26/02/2024
html-keyboard-response,106,222089,0.0-46.0-0.0,2335.4000000059605,"<div style=""display: flex; flex-direction: column; align-items: center; margin-top: -40px;""><img src=""images/pattern_4.png"" style=""width: 234px; height: 230px; margin-top: -50px;""><div style=""display: flex; justify-content: space-between; margin-top: 33px;""><img src=""images/choice_trial_15.png"" style=""width: 408px; height: 417px; margin-right: 200px;""><img src=""images/choice_trial_9.png"" style=""width: 408px; height: 417px;""></div></div>",f,delaylearn,learning,trial,97vIdAwT2fVRnNfVX2kajhXTR6L2,97vIdAwT2fVRnNfVX2kajhXTR6L2,3.0,images/choice_trial_15.png,images/choice_trial_9.png,images/pattern_4.png,f,f,7000.0,15.0,9.0,3.0,20.0,1.0,1.0,15.0,110.0,,,,,,641373f8117053037093d10a,09:20:01,26/02/2024
html-keyboard-response,107,223098,0.0-46.0-1.0,,"<div style=""display: flex; flex-direction: column; align-items: center; margin-top: -40px;""><img src=""images/pattern_4.png"" style=""width: 234px; height: 230px; margin-top: -50px;""><div style=""display: flex; justify-content: space-between; margin-top: 33px;""><img src=""images/choice_trial_15.png"" style=""width: 408px; height: 417px; margin-right: 608px;""></div></div>",,delaylearn,learning,display_response,97vIdAwT2fVRnNfVX2kajhXTR6L2,97vIdAwT2fVRnNfVX2kajhXTR6L2,,,,,,,,,,,,,,,,chosen stimuli: images/choice_trial_15.png,,,,,641373f8117053037093d10a,09:20:01,26/02/2024
html-keyboard-response,108,230112,0.0-46.0-2.0,,,,delaylearn,learning,feedback_duration_window,97vIdAwT2fVRnNfVX2kajhXTR6L2,97vIdAwT2fVRnNfVX2kajhXTR6L2,,,,,,,,,,,,,,,,,7000.0,,,,641373f8117053037093d10a,09:20:01,26/02/2024
html-keyboard-response,109,231619,0.0-46.0-3.0,,<div style='margin:auto;width: auto; font-size: 150%'><span style='font-weight: bold; font-size: 100px; color: green;'>+10 points!</span><br><br></div>,,delaylearn,learning,feedback_image_window,97vIdAwT2fVRnNfVX2kajhXTR6L2,97vIdAwT2fVRnNfVX2kajhXTR6L2,,,,,,,,,,,,,,,,,,,,,641373f8117053037093d10a,09:20:01,26/02/2024
html-keyboard-response,110,232136,0.0-47.0-0.0,,,,,,mood_trial_fixation,97vIdAwT2fVRnNfVX2kajhXTR6L2,,,,,,,,,,,,,,,,,,,,,,641373f8117053037093d10a,09:20:01,26/02/2024
lmdlab-html-vas-response,111,236286,0.0-47.0-1.0,3131.0,How happy are you right now?,0.3394255874673629,delaylearn,learning,mood_trial,97vIdAwT2fVRnNfVX2kajhXTR6L2,97vIdAwT2fVRnNfVX2kajhXTR6L2,,,,,,,,,,,,,,,,,,,"['Very unhappy', 'Very happy']",,641373f8117053037093d10a,09:20:01,26/02/2024
html-keyboard-response,112,238092,0.0-48.0,,"<div style=""font-size:100px;"">+</div>",,delaylearn,learning,ITI,97vIdAwT2fVRnNfVX2kajhXTR6L2,97vIdAwT2fVRnNfVX2kajhXTR6L2,,,,,,,,,,,,,,,,,,1787.0,,,641373f8117053037093d10a,09:20:01,26/02/2024
html-keyboard-response,113,240429,0.0-49.0-0.0,2331.0999999940395,"<div style=""display: flex; flex-direction: column; align-items: center; margin-top: -40px;""><img src=""images/pattern_7.png"" style=""width: 234px; height: 230px; margin-top: -50px;""><div style=""display: flex; justify-content: space-between; margin-top: 33px;""><img src=""images/choice_trial_9.png"" style=""width: 408px; height: 417px; margin-right: 200px;""><img src=""images/choice_trial_15.png"" style=""width: 408px; height: 417px;""></div></div>",j,delaylearn,learning,trial,97vIdAwT2fVRnNfVX2kajhXTR6L2,97vIdAwT2fVRnNfVX2kajhXTR6L2,3.0,images/choice_trial_9.png,images/choice_trial_15.png,images/pattern_7.png,j,j,750.0,9.0,15.0,6.0,21.0,1.0,1.0,15.0,120.0,,,,,,641373f8117053037093d10a,09:20:01,26/02/2024
html-keyboard-response,114,241434,0.0-49.0-1.0,,"<div style=""display: flex; flex-direction: column; align-items: center; margin-top: -40px;""><img src=""images/pattern_7.png"" style=""width: 234px; height: 230px; margin-top: -50px;""><div style=""display: flex; justify-content: space-between; margin-top: 33px;""><img src=""images/choice_trial_15.png"" style=""width: 408px; height: 417px; margin-left:608px;""></div></div>",,delaylearn,learning,display_response,97vIdAwT2fVRnNfVX2kajhXTR6L2,97vIdAwT2fVRnNfVX2kajhXTR6L2,,,,,,,,,,,,,,,,chosen stimuli: images/choice_trial_15.png,,,,,641373f8117053037093d10a,09:20:01,26/02/2024
html-keyboard-response,115,242191,0.0-49.0-2.0,,,,delaylearn,learning,feedback_duration_window,97vIdAwT2fVRnNfVX2kajhXTR6L2,97vIdAwT2fVRnNfVX2kajhXTR6L2,,,,,,,,,,,,,,,,,750.0,,,,641373f8117053037093d10a,09:20:01,26/02/2024
html-keyboard-response,116,243709,0.0-49.0-3.0,,<div style='margin:auto;width: auto; font-size: 150%'><span style='font-weight: bold; font-size: 100px; color: green;'>+10 points!</span><br><br></div>,,delaylearn,learning,feedback_image_window,97vIdAwT2fVRnNfVX2kajhXTR6L2,97vIdAwT2fVRnNfVX2kajhXTR6L2,,,,,,,,,,,,,,,,,,,,,641373f8117053037093d10a,09:20:01,26/02/2024
html-keyboard-response,117,245822,0.0-50.0,,"<div style=""font-size:100px;"">+</div>",,delaylearn,learning,ITI,97vIdAwT2fVRnNfVX2kajhXTR6L2,97vIdAwT2fVRnNfVX2kajhXTR6L2,,,,,,,,,,,,,,,,,,2094.0,,,641373f8117053037093d10a,09:20:01,26/02/2024
html-keyboard-response,118,248669,0.0-51.0-0.0,2841.7000000178814,"<div style=""display: flex; flex-direction: column; align-items: center; margin-top: -40px;""><img src=""images/pattern_1.png"" style=""width: 234px; height: 230px; margin-top: -50px;""><div style=""display: flex; justify-content: space-between; margin-top: 33px;""><img src=""images/choice_trial_9.png"" style=""width: 408px; height: 417px; margin-right: 200px;""><img src=""images/choice_trial_15.png"" style=""width: 408px; height: 417px;""></div></div>",f,delaylearn,learning,trial,97vIdAwT2fVRnNfVX2kajhXTR6L2,97vIdAwT2fVRnNfVX2kajhXTR6L2,3.0,images/choice_trial_9.png,images/choice_trial_15.png,images/pattern_1.png,j,j,7000.0,9.0,15.0,1.0,22.0,0.0,0.0,9.0,120.0,,,,,,641373f8117053037093d10a,09:20:01,26/02/2024
html-keyboard-response,119,249689,0.0-51.0-1.0,,"<div style=""display: flex; flex-direction: column; align-items: center; margin-top: -40px;""><img src=""images/pattern_1.png"" style=""width: 234px; height: 230px; margin-top: -50px;""><div style=""display: flex; justify-content: space-between; margin-top: 33px;""><img src=""images/choice_trial_9.png"" style=""width: 408px; height: 417px; margin-right: 608px;""></div></div>",,delaylearn,learning,display_response,97vIdAwT2fVRnNfVX2kajhXTR6L2,97vIdAwT2fVRnNfVX2kajhXTR6L2,,,,,,,,,,,,,,,,chosen stimuli: images/choice_trial_9.png,,,,,641373f8117053037093d10a,09:20:01,26/02/2024
html-keyboard-response,120,256700,0.0-51.0-2.0,,,,delaylearn,learning,feedback_duration_window,97vIdAwT2fVRnNfVX2kajhXTR6L2,97vIdAwT2fVRnNfVX2kajhXTR6L2,,,,,,,,,,,,,,,,,7000.0,,,,641373f8117053037093d10a,09:20:01,26/02/2024
html-keyboard-response,121,258220,0.0-51.0-3.0,,<div style='margin:auto;width: auto; font-size: 150%'><span style='font-weight: bold; font-size: 100px; color: red;'>0 points!</span><br><br></div>,,delaylearn,learning,feedback_image_window,97vIdAwT2fVRnNfVX2kajhXTR6L2,97vIdAwT2fVRnNfVX2kajhXTR6L2,,,,,,,,,,,,,,,,,,,,,641373f8117053037093d10a,09:20:01,26/02/2024
html-keyboard-response,122,260649,0.0-52.0,,"<div style=""font-size:100px;"">+</div>",,delaylearn,learning,ITI,97vIdAwT2fVRnNfVX2kajhXTR6L2,97vIdAwT2fVRnNfVX2kajhXTR6L2,,,,,,,,,,,,,,,,,,2422.0,,,641373f8117053037093d10a,09:20:01,26/02/2024
html-keyboard-response,123,263382,0.0-53.0-0.0,2728.300000011921,"<div style=""display: flex; flex-direction: column; align-items: center; margin-top: -40px;""><img src=""images/pattern_3.png"" style=""width: 234px; height: 230px; margin-top: -50px;""><div style=""display: flex; justify-content: space-between; margin-top: 33px;""><img src=""images/choice_trial_9.png"" style=""width: 408px; height: 417px; margin-right: 200px;""><img src=""images/choice_trial_15.png"" style=""width: 408px; height: 417px;""></div></div>",j,delaylearn,learning,trial,97vIdAwT2fVRnNfVX2kajhXTR6L2,97vIdAwT2fVRnNfVX2kajhXTR6L2,3.0,images/choice_trial_9.png,images/choice_trial_15.png,images/pattern_3.png,f,j,7000.0,9.0,15.0,2.0,23.0,1.0,0.0,15.0,120.0,,,,,,641373f8117053037093d10a,09:20:01,26/02/2024
html-keyboard-response,124,264399,0.0-53.0-1.0,,"<div style=""display: flex; flex-direction: column; align-items: center; margin-top: -40px;""><img src=""images/pattern_3.png"" style=""width: 234px; height: 230px; margin-top: -50px;""><div style=""display: flex; justify-content: space-between; margin-top: 33px;""><img src=""images/choice_trial_15.png"" style=""width: 408px; height: 417px; margin-left:608px;""></div></div>",,delaylearn,learning,display_response,97vIdAwT2fVRnNfVX2kajhXTR6L2,97vIdAwT2fVRnNfVX2kajhXTR6L2,,,,,,,,,,,,,,,,chosen stimuli: images/choice_trial_15.png,,,,,641373f8117053037093d10a,09:20:01,26/02/2024
html-keyboard-response,125,271406,0.0-53.0-2.0,,,,delaylearn,learning,feedback_duration_window,97vIdAwT2fVRnNfVX2kajhXTR6L2,97vIdAwT2fVRnNfVX2kajhXTR6L2,,,,,,,,,,,,,,,,,7000.0,,,,641373f8117053037093d10a,09:20:01,26/02/2024
html-keyboard-response,126,272918,0.0-53.0-3.0,,<div style='margin:auto;width: auto; font-size: 150%'><span style='font-weight: bold; font-size: 100px; color: red;'>0 points!</span><br><br></div>,,delaylearn,learning,feedback_image_window,97vIdAwT2fVRnNfVX2kajhXTR6L2,97vIdAwT2fVRnNfVX2kajhXTR6L2,,,,,,,,,,,,,,,,,,,,,641373f8117053037093d10a,09:20:01,26/02/2024
lmdlab-html-vas-response,127,279886,0.0-54.0-0.0,5429.0,*How <b><u>confident</u></b> are you feeling about your answers at this moment?*,0.3437658946797328,rewlearn,rate_confidence,,97vIdAwT2fVRnNfVX2kajhXTR6L2,97vIdAwT2fVRnNfVX2kajhXTR6L2,,,,,,,,,,,,,,,,,,,"['No confidence', 'Complete confidence']",,641373f8117053037093d10a,09:20:01,26/02/2024
lmdlab-rest-trial-limit,128,533637,0.0-54.0-1.0,252229.5,"<div style=""font-size:40px;""><b>Please take a break!</b><br><br><br><br><p>Great work: you earned undefined points.<br><br><br><p>You have completed part(s) 1 of 6.<br><br><br><br>When you are ready to continue<br><br><br>please click the button.</p><br><br>",0,delaylearn,learning,break,97vIdAwT2fVRnNfVX2kajhXTR6L2,97vIdAwT2fVRnNfVX2kajhXTR6L2,,,,,,,,,,,,,,,,,,,,0.0,641373f8117053037093d10a,09:20:01,26/02/2024
html-keyboard-response,129,536654,0.0-54.0-2.0,,"<div style=""font-size:100px;"">+</div>",,delaylearn,learning,pre_fixation,97vIdAwT2fVRnNfVX2kajhXTR6L2,,,,,,,,,,,,,,,,,,,,,,641373f8117053037093d10a,09:20:01,26/02/2024
lmdlab-html-vas-response,130,540219,0.0-54.0-3.0-0.0,2547.0,How happy are you right now?,0.35244650910447256,delaylearn,learning,mood_baseline,97vIdAwT2fVRnNfVX2kajhXTR6L2,97vIdAwT2fVRnNfVX2kajhXTR6L2,,,,,,,,,,,,,,,,,,,"['Very unhappy', 'Very happy']",,641373f8117053037093d10a,09:20:01,26/02/2024
html-keyboard-response,131,541734,0.0-54.0-3.0-1.0,,,,,,mood_baseline_fixation,97vIdAwT2fVRnNfVX2kajhXTR6L2,,,,,,,,,,,,,,,,,,,,,,641373f8117053037093d10a,09:20:01,26/02/2024
html-keyboard-response,132,543972,0.0-55.0,,"<div style=""font-size:100px;"">+</div>",,delaylearn,learning,ITI,97vIdAwT2fVRnNfVX2kajhXTR6L2,97vIdAwT2fVRnNfVX2kajhXTR6L2,,,,,,,,,,,,,,,,,,2233.0,,,641373f8117053037093d10a,09:20:01,26/02/2024
html-keyboard-response,133,545690,0.0-56.0-0.0,1711.9000000059605,"<div style=""display: flex; flex-direction: column; align-items: center; margin-top: -40px;""><img src=""images/pattern_5.png"" style=""width: 234px; height: 230px; margin-top: -50px;""><div style=""display: flex; justify-content: space-between; margin-top: 33px;""><img src=""images/choice_trial_9.png"" style=""width: 408px; height: 417px; margin-right: 200px;""><img src=""images/choice_trial_15.png"" style=""width: 408px; height: 417px;""></div></div>",f,delaylearn,learning,trial,97vIdAwT2fVRnNfVX2kajhXTR6L2,97vIdAwT2fVRnNfVX2kajhXTR6L2,3.0,images/choice_trial_9.png,images/choice_trial_15.png,images/pattern_5.png,j,j,750.0,9.0,15.0,4.0,24.0,0.0,0.0,9.0,120.0,,,,,,641373f8117053037093d10a,09:20:01,26/02/2024
html-keyboard-response,134,546696,0.0-56.0-1.0,,"<div style=""display: flex; flex-direction: column; align-items: center; margin-top: -40px;""><img src=""images/pattern_5.png"" style=""width: 234px; height: 230px; margin-top: -50px;""><div style=""display: flex; justify-content: space-between; margin-top: 33px;""><img src=""images/choice_trial_9.png"" style=""width: 408px; height: 417px; margin-right: 608px;""></div></div>",,delaylearn,learning,display_response,97vIdAwT2fVRnNfVX2kajhXTR6L2,97vIdAwT2fVRnNfVX2kajhXTR6L2,,,,,,,,,,,,,,,,chosen stimuli: images/choice_trial_9.png,,,,,641373f8117053037093d10a,09:20:01,26/02/2024
html-keyboard-response,135,547450,0.0-56.0-2.0,,,,delaylearn,learning,feedback_duration_window,97vIdAwT2fVRnNfVX2kajhXTR6L2,97vIdAwT2fVRnNfVX2kajhXTR6L2,,,,,,,,,,,,,,,,,750.0,,,,641373f8117053037093d10a,09:20:01,26/02/2024
html-keyboard-response,136,548969,0.0-56.0-3.0,,<div style='margin:auto;width: auto; font-size: 150%'><span style='font-weight: bold; font-size: 100px; color: red;'>0 points!</span><br><br></div>,,delaylearn,learning,feedback_image_window,97vIdAwT2fVRnNfVX2kajhXTR6L2,97vIdAwT2fVRnNfVX2kajhXTR6L2,,,,,,,,,,,,,,,,,,,,,641373f8117053037093d10a,09:20:01,26/02/2024
html-keyboard-response,137,550551,0.0-57.0,,"<div style=""font-size:100px;"">+</div>",,delaylearn,learning,ITI,97vIdAwT2fVRnNfVX2kajhXTR6L2,97vIdAwT2fVRnNfVX2kajhXTR6L2,,,,,,,,,,,,,,,,,,1577.0,,,641373f8117053037093d10a,09:20:01,26/02/2024
html-keyboard-response,138,552195,0.0-58.0-0.0,1639.199999988079,"<div style=""display: flex; flex-direction: column; align-items: center; margin-top: -40px;""><img src=""images/pattern_7.png"" style=""width: 234px; height: 230px; margin-top: -50px;""><div style=""display: flex; justify-content: space-between; margin-top: 33px;""><img src=""images/choice_trial_2.png"" style=""width: 408px; height: 417px; margin-right: 200px;""><img src=""images/choice_trial_11.png"" style=""width: 408px; height: 417px;""></div></div>",f,delaylearn,learning,trial,97vIdAwT2fVRnNfVX2kajhXTR6L2,97vIdAwT2fVRnNfVX2kajhXTR6L2,3.0,images/choice_trial_2.png,images/choice_trial_11.png,images/pattern_7.png,j,j,750.0,2.0,11.0,6.0,25.0,0.0,0.0,2.0,120.0,,,,,,641373f8117053037093d10a,09:20:01,26/02/2024
html-keyboard-response,139,553212,0.0-58.0-1.0,,"<div style=""display: flex; flex-direction: column; align-items: center; margin-top: -40px;""><img src=""images/pattern_7.png"" style=""width: 234px; height: 230px; margin-top: -50px;""><div style=""display: flex; justify-content: space-between; margin-top: 33px;""><img src=""images/choice_trial_2.png"" style=""width: 408px; height: 417px; margin-right: 608px;""></div></div>",,delaylearn,learning,display_response,97vIdAwT2fVRnNfVX2kajhXTR6L2,97vIdAwT2fVRnNfVX2kajhXTR6L2,,,,,,,,,,,,,,,,chosen stimuli: images/choice_trial_2.png,,,,,641373f8117053037093d10a,09:20:01,26/02/2024
html-keyboard-response,140,553975,0.0-58.0-2.0,,,,delaylearn,learning,feedback_duration_window,97vIdAwT2fVRnNfVX2kajhXTR6L2,97vIdAwT2fVRnNfVX2kajhXTR6L2,,,,,,,,,,,,,,,,,750.0,,,,641373f8117053037093d10a,09:20:01,26/02/2024
html-keyboard-response,141,555489,0.0-58.0-3.0,,<div style='margin:auto;width: auto; font-size: 150%'><span style='font-weight: bold; font-size: 100px; color: red;'>0 points!</span><br><br></div>,,delaylearn,learning,feedback_image_window,97vIdAwT2fVRnNfVX2kajhXTR6L2,97vIdAwT2fVRnNfVX2kajhXTR6L2,,,,,,,,,,,,,,,,,,,,,641373f8117053037093d10a,09:20:01,26/02/2024
html-keyboard-response,142,555993,0.0-59.0-0.0,,,,,,mood_trial_fixation,97vIdAwT2fVRnNfVX2kajhXTR6L2,,,,,,,,,,,,,,,,,,,,,,641373f8117053037093d10a,09:20:01,26/02/2024
lmdlab-html-vas-response,143,559452,0.0-59.0-1.0,2438.0,How happy are you right now?,0.3177240514055135,delaylearn,learning,mood_trial,97vIdAwT2fVRnNfVX2kajhXTR6L2,97vIdAwT2fVRnNfVX2kajhXTR6L2,,,,,,,,,,,,,,,,,,,"['Very unhappy', 'Very happy']",,641373f8117053037093d10a,09:20:01,26/02/2024
html-keyboard-response,144,561408,0.0-60.0,,"<div style=""font-size:100px;"">+</div>",,delaylearn,learning,ITI,97vIdAwT2fVRnNfVX2kajhXTR6L2,97vIdAwT2fVRnNfVX2kajhXTR6L2,,,,,,,,,,,,,,,,,,1945.0,,,641373f8117053037093d10a,09:20:01,26/02/2024
html-keyboard-response,145,562934,0.0-61.0-0.0,1519.699999988079,"<div style=""display: flex; flex-direction: column; align-items: center; margin-top: -40px;""><img src=""images/pattern_1.png"" style=""width: 234px; height: 230px; margin-top: -50px;""><div style=""display: flex; justify-content: space-between; margin-top: 33px;""><img src=""images/choice_trial_11.png"" style=""width: 408px; height: 417px; margin-right: 200px;""><img src=""images/choice_trial_2.png"" style=""width: 408px; height: 417px;""></div></div>",f,delaylearn,learning,trial,97vIdAwT2fVRnNfVX2kajhXTR6L2,97vIdAwT2fVRnNfVX2kajhXTR6L2,3.0,images/choice_trial_11.png,images/choice_trial_2.png,images/pattern_1.png,f,f,7000.0,11.0,2.0,1.0,26.0,1.0,1.0,11.0,130.0,,,,,,641373f8117053037093d10a,09:20:01,26/02/2024
html-keyboard-response,146,563947,0.0-61.0-1.0,,"<div style=""display: flex; flex-direction: column; align-items: center; margin-top: -40px;""><img src=""images/pattern_1.png"" style=""width: 234px; height: 230px; margin-top: -50px;""><div style=""display: flex; justify-content: space-between; margin-top: 33px;""><img src=""images/choice_trial_11.png"" style=""width: 408px; height: 417px; margin-right: 608px;""></div></div>",,delaylearn,learning,display_response,97vIdAwT2fVRnNfVX2kajhXTR6L2,97vIdAwT2fVRnNfVX2kajhXTR6L2,,,,,,,,,,,,,,,,chosen stimuli: images/choice_trial_11.png,,,,,641373f8117053037093d10a,09:20:01,26/02/2024
html-keyboard-response,147,570965,0.0-61.0-2.0,,,,delaylearn,learning,feedback_duration_window,97vIdAwT2fVRnNfVX2kajhXTR6L2,97vIdAwT2fVRnNfVX2kajhXTR6L2,,,,,,,,,,,,,,,,,7000.0,,,,641373f8117053037093d10a,09:20:01,26/02/2024
html-keyboard-response,148,572480,0.0-61.0-3.0,,<div style='margin:auto;width: auto; font-size: 150%'><span style='font-weight: bold; font-size: 100px; color: green;'>+10 points!</span><br><br></div>,,delaylearn,learning,feedback_image_window,97vIdAwT2fVRnNfVX2kajhXTR6L2,97vIdAwT2fVRnNfVX2kajhXTR6L2,,,,,,,,,,,,,,,,,,,,,641373f8117053037093d10a,09:20:01,26/02/2024
html-keyboard-response,149,574355,0.0-62.0,,"<div style=""font-size:100px;"">+</div>",,delaylearn,learning,ITI,97vIdAwT2fVRnNfVX2kajhXTR6L2,97vIdAwT2fVRnNfVX2kajhXTR6L2,,,,,,,,,,,,,,,,,,1867.0,,,641373f8117053037093d10a,09:20:01,26/02/2024
html-keyboard-response,150,576356,0.0-63.0-0.0,1994.9000000059605,"<div style=""display: flex; flex-direction: column; align-items: center; margin-top: -40px;""><img src=""images/pattern_6.png"" style=""width: 234px; height: 230px; margin-top: -50px;""><div style=""display: flex; justify-content: space-between; margin-top: 33px;""><img src=""images/choice_trial_2.png"" style=""width: 408px; height: 417px; margin-right: 200px;""><img src=""images/choice_trial_11.png"" style=""width: 408px; height: 417px;""></div></div>",j,delaylearn,learning,trial,97vIdAwT2fVRnNfVX2kajhXTR6L2,97vIdAwT2fVRnNfVX2kajhXTR6L2,3.0,images/choice_trial_2.png,images/choice_trial_11.png,images/pattern_6.png,j,j,750.0,2.0,11.0,5.0,27.0,1.0,1.0,11.0,140.0,,,,,,641373f8117053037093d10a,09:20:01,26/02/2024
html-keyboard-response,151,577370,0.0-63.0-1.0,,"<div style=""display: flex; flex-direction: column; align-items: center; margin-top: -40px;""><img src=""images/pattern_6.png"" style=""width: 234px; height: 230px; margin-top: -50px;""><div style=""display: flex; justify-content: space-between; margin-top: 33px;""><img src=""images/choice_trial_11.png"" style=""width: 408px; height: 417px; margin-left:608px;""></div></div>",,delaylearn,learning,display_response,97vIdAwT2fVRnNfVX2kajhXTR6L2,97vIdAwT2fVRnNfVX2kajhXTR6L2,,,,,,,,,,,,,,,,chosen stimuli: images/choice_trial_11.png,,,,,641373f8117053037093d10a,09:20:01,26/02/2024
html-keyboard-response,152,578136,0.0-63.0-2.0,,,,delaylearn,learning,feedback_duration_window,97vIdAwT2fVRnNfVX2kajhXTR6L2,97vIdAwT2fVRnNfVX2kajhXTR6L2,,,,,,,,,,,,,,,,,750.0,,,,641373f8117053037093d10a,09:20:01,26/02/2024
html-keyboard-response,153,579643,0.0-63.0-3.0,,<div style='margin:auto;width: auto; font-size: 150%'><span style='font-weight: bold; font-size: 100px; color: green;'>+10 points!</span><br><br></div>,,delaylearn,learning,feedback_image_window,97vIdAwT2fVRnNfVX2kajhXTR6L2,97vIdAwT2fVRnNfVX2kajhXTR6L2,,,,,,,,,,,,,,,,,,,,,641373f8117053037093d10a,09:20:01,26/02/2024
html-keyboard-response,154,580161,0.0-64.0-0.0,,,,,,mood_trial_fixation,97vIdAwT2fVRnNfVX2kajhXTR6L2,,,,,,,,,,,,,,,,,,,,,,641373f8117053037093d10a,09:20:01,26/02/2024
lmdlab-html-vas-response,155,583952,0.0-64.0-1.0,2782.0,How happy are you right now?,0.31989420501169846,delaylearn,learning,mood_trial,97vIdAwT2fVRnNfVX2kajhXTR6L2,97vIdAwT2fVRnNfVX2kajhXTR6L2,,,,,,,,,,,,,,,,,,,"['Very unhappy', 'Very happy']",,641373f8117053037093d10a,09:20:01,26/02/2024
html-keyboard-response,156,585751,0.0-65.0,,"<div style=""font-size:100px;"">+</div>",,delaylearn,learning,ITI,97vIdAwT2fVRnNfVX2kajhXTR6L2,97vIdAwT2fVRnNfVX2kajhXTR6L2,,,,,,,,,,,,,,,,,,1792.0,,,641373f8117053037093d10a,09:20:01,26/02/2024
html-keyboard-response,157,587094,0.0-66.0-0.0,1336.4000000059605,"<div style=""display: flex; flex-direction: column; align-items: center; margin-top: -40px;""><img src=""images/pattern_5.png"" style=""width: 234px; height: 230px; margin-top: -50px;""><div style=""display: flex; justify-content: space-between; margin-top: 33px;""><img src=""images/choice_trial_11.png"" style=""width: 408px; height: 417px; margin-right: 200px;""><img src=""images/choice_trial_2.png"" style=""width: 408px; height: 417px;""></div></div>",f,delaylearn,learning,trial,97vIdAwT2fVRnNfVX2kajhXTR6L2,97vIdAwT2fVRnNfVX2kajhXTR6L2,3.0,images/choice_trial_11.png,images/choice_trial_2.png,images/pattern_5.png,f,f,750.0,11.0,2.0,4.0,28.0,1.0,1.0,11.0,150.0,,,,,,641373f8117053037093d10a,09:20:01,26/02/2024
html-keyboard-response,158,588099,0.0-66.0-1.0,,"<div style=""display: flex; flex-direction: column; align-items: center; margin-top: -40px;""><img src=""images/pattern_5.png"" style=""width: 234px; height: 230px; margin-top: -50px;""><div style=""display: flex; justify-content: space-between; margin-top: 33px;""><img src=""images/choice_trial_11.png"" style=""width: 408px; height: 417px; margin-right: 608px;""></div></div>",,delaylearn,learning,display_response,97vIdAwT2fVRnNfVX2kajhXTR6L2,97vIdAwT2fVRnNfVX2kajhXTR6L2,,,,,,,,,,,,,,,,chosen stimuli: images/choice_trial_11.png,,,,,641373f8117053037093d10a,09:20:01,26/02/2024
html-keyboard-response,159,588860,0.0-66.0-2.0,,,,delaylearn,learning,feedback_duration_window,97vIdAwT2fVRnNfVX2kajhXTR6L2,97vIdAwT2fVRnNfVX2kajhXTR6L2,,,,,,,,,,,,,,,,,750.0,,,,641373f8117053037093d10a,09:20:01,26/02/2024
html-keyboard-response,160,590367,0.0-66.0-3.0,,<div style='margin:auto;width: auto; font-size: 150%'><span style='font-weight: bold; font-size: 100px; color: green;'>+10 points!</span><br><br></div>,,delaylearn,learning,feedback_image_window,97vIdAwT2fVRnNfVX2kajhXTR6L2,97vIdAwT2fVRnNfVX2kajhXTR6L2,,,,,,,,,,,,,,,,,,,,,641373f8117053037093d10a,09:20:01,26/02/2024
html-keyboard-response,161,592486,0.0-67.0,,"<div style=""font-size:100px;"">+</div>",,delaylearn,learning,ITI,97vIdAwT2fVRnNfVX2kajhXTR6L2,97vIdAwT2fVRnNfVX2kajhXTR6L2,,,,,,,,,,,,,,,,,,2114.0,,,641373f8117053037093d10a,09:20:01,26/02/2024
html-keyboard-response,162,593577,0.0-68.0-0.0,1085.0,"<div style=""display: flex; flex-direction: column; align-items: center; margin-top: -40px;""><img src=""images/pattern_4.png"" style=""width: 234px; height: 230px; margin-top: -50px;""><div style=""display: flex; justify-content: space-between; margin-top: 33px;""><img src=""images/choice_trial_2.png"" style=""width: 408px; height: 417px; margin-right: 200px;""><img src=""images/choice_trial_11.png"" style=""width: 408px; height: 417px;""></div></div>",j,delaylearn,learning,trial,97vIdAwT2fVRnNfVX2kajhXTR6L2,97vIdAwT2fVRnNfVX2kajhXTR6L2,3.0,images/choice_trial_2.png,images/choice_trial_11.png,images/pattern_4.png,j,j,7000.0,2.0,11.0,3.0,29.0,1.0,1.0,11.0,160.0,,,,,,641373f8117053037093d10a,09:20:01,26/02/2024
html-keyboard-response,163,594589,0.0-68.0-1.0,,"<div style=""display: flex; flex-direction: column; align-items: center; margin-top: -40px;""><img src=""images/pattern_4.png"" style=""width: 234px; height: 230px; margin-top: -50px;""><div style=""display: flex; justify-content: space-between; margin-top: 33px;""><img src=""images/choice_trial_11.png"" style=""width: 408px; height: 417px; margin-left:608px;""></div></div>",,delaylearn,learning,display_response,97vIdAwT2fVRnNfVX2kajhXTR6L2,97vIdAwT2fVRnNfVX2kajhXTR6L2,,,,,,,,,,,,,,,,chosen stimuli: images/choice_trial_11.png,,,,,641373f8117053037093d10a,09:20:01,26/02/2024
html-keyboard-response,164,601607,0.0-68.0-2.0,,,,delaylearn,learning,feedback_duration_window,97vIdAwT2fVRnNfVX2kajhXTR6L2,97vIdAwT2fVRnNfVX2kajhXTR6L2,,,,,,,,,,,,,,,,,7000.0,,,,641373f8117053037093d10a,09:20:01,26/02/2024
html-keyboard-response,165,603118,0.0-68.0-3.0,,<div style='margin:auto;width: auto; font-size: 150%'><span style='font-weight: bold; font-size: 100px; color: green;'>+10 points!</span><br><br></div>,,delaylearn,learning,feedback_image_window,97vIdAwT2fVRnNfVX2kajhXTR6L2,97vIdAwT2fVRnNfVX2kajhXTR6L2,,,,,,,,,,,,,,,,,,,,,641373f8117053037093d10a,09:20:01,26/02/2024
html-keyboard-response,166,604837,0.0-69.0,,"<div style=""font-size:100px;"">+</div>",,delaylearn,learning,ITI,97vIdAwT2fVRnNfVX2kajhXTR6L2,97vIdAwT2fVRnNfVX2kajhXTR6L2,,,,,,,,,,,,,,,,,,1714.0,,,641373f8117053037093d10a,09:20:01,26/02/2024
html-keyboard-response,167,606105,0.0-70.0-0.0,1262.3999999761581,"<div style=""display: flex; flex-direction: column; align-items: center; margin-top: -40px;""><img src=""images/pattern_3.png"" style=""width: 234px; height: 230px; margin-top: -50px;""><div style=""display: flex; justify-content: space-between; margin-top: 33px;""><img src=""images/choice_trial_2.png"" style=""width: 408px; height: 417px; margin-right: 200px;""><img src=""images/choice_trial_11.png"" style=""width: 408px; height: 417px;""></div></div>",j,delaylearn,learning,trial,97vIdAwT2fVRnNfVX2kajhXTR6L2,97vIdAwT2fVRnNfVX2kajhXTR6L2,3.0,images/choice_trial_2.png,images/choice_trial_11.png,images/pattern_3.png,j,j,7000.0,2.0,11.0,2.0,30.0,1.0,1.0,11.0,170.0,,,,,,641373f8117053037093d10a,09:20:01,26/02/2024
html-keyboard-response,168,607110,0.0-70.0-1.0,,"<div style=""display: flex; flex-direction: column; align-items: center; margin-top: -40px;""><img src=""images/pattern_3.png"" style=""width: 234px; height: 230px; margin-top: -50px;""><div style=""display: flex; justify-content: space-between; margin-top: 33px;""><img src=""images/choice_trial_11.png"" style=""width: 408px; height: 417px; margin-left:608px;""></div></div>",,delaylearn,learning,display_response,97vIdAwT2fVRnNfVX2kajhXTR6L2,97vIdAwT2fVRnNfVX2kajhXTR6L2,,,,,,,,,,,,,,,,chosen stimuli: images/choice_trial_11.png,,,,,641373f8117053037093d10a,09:20:01,26/02/2024
html-keyboard-response,169,614114,0.0-70.0-2.0,,,,delaylearn,learning,feedback_duration_window,97vIdAwT2fVRnNfVX2kajhXTR6L2,97vIdAwT2fVRnNfVX2kajhXTR6L2,,,,,,,,,,,,,,,,,7000.0,,,,641373f8117053037093d10a,09:20:01,26/02/2024
html-keyboard-response,170,615620,0.0-70.0-3.0,,<div style='margin:auto;width: auto; font-size: 150%'><span style='font-weight: bold; font-size: 100px; color: green;'>+10 points!</span><br><br></div>,,delaylearn,learning,feedback_image_window,97vIdAwT2fVRnNfVX2kajhXTR6L2,97vIdAwT2fVRnNfVX2kajhXTR6L2,,,,,,,,,,,,,,,,,,,,,641373f8117053037093d10a,09:20:01,26/02/2024
html-keyboard-response,171,617767,0.0-71.0,,"<div style=""font-size:100px;"">+</div>",,delaylearn,learning,ITI,97vIdAwT2fVRnNfVX2kajhXTR6L2,97vIdAwT2fVRnNfVX2kajhXTR6L2,,,,,,,,,,,,,,,,,,2144.0,,,641373f8117053037093d10a,09:20:01,26/02/2024
html-keyboard-response,172,620741,0.0-72.0-0.0,2968.4000000059605,"<div style=""display: flex; flex-direction: column; align-items: center; margin-top: -40px;""><img src=""images/pattern_1.png"" style=""width: 234px; height: 230px; margin-top: -50px;""><div style=""display: flex; justify-content: space-between; margin-top: 33px;""><img src=""images/choice_trial_16.png"" style=""width: 408px; height: 417px; margin-right: 200px;""><img src=""images/choice_trial_3.png"" style=""width: 408px; height: 417px;""></div></div>",f,delaylearn,learning,trial,97vIdAwT2fVRnNfVX2kajhXTR6L2,97vIdAwT2fVRnNfVX2kajhXTR6L2,3.0,images/choice_trial_16.png,images/choice_trial_3.png,images/pattern_1.png,f,f,7000.0,16.0,3.0,1.0,31.0,1.0,1.0,16.0,180.0,,,,,,641373f8117053037093d10a,09:20:01,26/02/2024
html-keyboard-response,173,621746,0.0-72.0-1.0,,"<div style=""display: flex; flex-direction: column; align-items: center; margin-top: -40px;""><img src=""images/pattern_1.png"" style=""width: 234px; height: 230px; margin-top: -50px;""><div style=""display: flex; justify-content: space-between; margin-top: 33px;""><img src=""images/choice_trial_16.png"" style=""width: 408px; height: 417px; margin-right: 608px;""></div></div>",,delaylearn,learning,display_response,97vIdAwT2fVRnNfVX2kajhXTR6L2,97vIdAwT2fVRnNfVX2kajhXTR6L2,,,,,,,,,,,,,,,,chosen stimuli: images/choice_trial_16.png,,,,,641373f8117053037093d10a,09:20:01,26/02/2024
html-keyboard-response,174,628755,0.0-72.0-2.0,,,,delaylearn,learning,feedback_duration_window,97vIdAwT2fVRnNfVX2kajhXTR6L2,97vIdAwT2fVRnNfVX2kajhXTR6L2,,,,,,,,,,,,,,,,,7000.0,,,,641373f8117053037093d10a,09:20:01,26/02/2024
html-keyboard-response,175,630275,0.0-72.0-3.0,,<div style='margin:auto;width: auto; font-size: 150%'><span style='font-weight: bold; font-size: 100px; color: green;'>+10 points!</span><br><br></div>,,delaylearn,learning,feedback_image_window,97vIdAwT2fVRnNfVX2kajhXTR6L2,97vIdAwT2fVRnNfVX2kajhXTR6L2,,,,,,,,,,,,,,,,,,,,,641373f8117053037093d10a,09:20:01,26/02/2024
html-keyboard-response,176,630778,0.0-73.0-0.0,,,,,,mood_trial_fixation,97vIdAwT2fVRnNfVX2kajhXTR6L2,,,,,,,,,,,,,,,,,,,,,,641373f8117053037093d10a,09:20:01,26/02/2024
lmdlab-html-vas-response,177,634143,0.0-73.0-1.0,2343.0,How happy are you right now?,0.30253297616221897,delaylearn,learning,mood_trial,97vIdAwT2fVRnNfVX2kajhXTR6L2,97vIdAwT2fVRnNfVX2kajhXTR6L2,,,,,,,,,,,,,,,,,,,"['Very unhappy', 'Very happy']",,641373f8117053037093d10a,09:20:01,26/02/2024
html-keyboard-response,178,635864,0.0-74.0,,"<div style=""font-size:100px;"">+</div>",,delaylearn,learning,ITI,97vIdAwT2fVRnNfVX2kajhXTR6L2,97vIdAwT2fVRnNfVX2kajhXTR6L2,,,,,,,,,,,,,,,,,,1703.0,,,641373f8117053037093d10a,09:20:01,26/02/2024
html-keyboard-response,179,636860,0.0-75.0-0.0,989.5999999940395,"<div style=""display: flex; flex-direction: column; align-items: center; margin-top: -40px;""><img src=""images/pattern_6.png"" style=""width: 234px; height: 230px; margin-top: -50px;""><div style=""display: flex; justify-content: space-between; margin-top: 33px;""><img src=""images/choice_trial_16.png"" style=""width: 408px; height: 417px; margin-right: 200px;""><img src=""images/choice_trial_3.png"" style=""width: 408px; height: 417px;""></div></div>",f,delaylearn,learning,trial,97vIdAwT2fVRnNfVX2kajhXTR6L2,97vIdAwT2fVRnNfVX2kajhXTR6L2,3.0,images/choice_trial_16.png,images/choice_trial_3.png,images/pattern_6.png,f,f,750.0,16.0,3.0,5.0,32.0,1.0,1.0,16.0,190.0,,,,,,641373f8117053037093d10a,09:20:01,26/02/2024
html-keyboard-response,180,637879,0.0-75.0-1.0,,"<div style=""display: flex; flex-direction: column; align-items: center; margin-top: -40px;""><img src=""images/pattern_6.png"" style=""width: 234px; height: 230px; margin-top: -50px;""><div style=""display: flex; justify-content: space-between; margin-top: 33px;""><img src=""images/choice_trial_16.png"" style=""width: 408px; height: 417px; margin-right: 608px;""></div></div>",,delaylearn,learning,display_response,97vIdAwT2fVRnNfVX2kajhXTR6L2,97vIdAwT2fVRnNfVX2kajhXTR6L2,,,,,,,,,,,,,,,,chosen stimuli: images/choice_trial_16.png,,,,,641373f8117053037093d10a,09:20:01,26/02/2024
html-keyboard-response,181,638646,0.0-75.0-2.0,,,,delaylearn,learning,feedback_duration_window,97vIdAwT2fVRnNfVX2kajhXTR6L2,97vIdAwT2fVRnNfVX2kajhXTR6L2,,,,,,,,,,,,,,,,,750.0,,,,641373f8117053037093d10a,09:20:01,26/02/2024
html-keyboard-response,182,640157,0.0-75.0-3.0,,<div style='margin:auto;width: auto; font-size: 150%'><span style='font-weight: bold; font-size: 100px; color: green;'>+10 points!</span><br><br></div>,,delaylearn,learning,feedback_image_window,97vIdAwT2fVRnNfVX2kajhXTR6L2,97vIdAwT2fVRnNfVX2kajhXTR6L2,,,,,,,,,,,,,,,,,,,,,641373f8117053037093d10a,09:20:01,26/02/2024
html-keyboard-response,183,641873,0.0-76.0,,"<div style=""font-size:100px;"">+</div>",,delaylearn,learning,ITI,97vIdAwT2fVRnNfVX2kajhXTR6L2,97vIdAwT2fVRnNfVX2kajhXTR6L2,,,,,,,,,,,,,,,,,,1708.0,,,641373f8117053037093d10a,09:20:01,26/02/2024
html-keyboard-response,184,642847,0.0-77.0-0.0,968.3999999761581,"<div style=""display: flex; flex-direction: column; align-items: center; margin-top: -40px;""><img src=""images/pattern_5.png"" style=""width: 234px; height: 230px; margin-top: -50px;""><div style=""display: flex; justify-content: space-between; margin-top: 33px;""><img src=""images/choice_trial_16.png"" style=""width: 408px; height: 417px; margin-right: 200px;""><img src=""images/choice_trial_3.png"" style=""width: 408px; height: 417px;""></div></div>",f,delaylearn,learning,trial,97vIdAwT2fVRnNfVX2kajhXTR6L2,97vIdAwT2fVRnNfVX2kajhXTR6L2,3.0,images/choice_trial_16.png,images/choice_trial_3.png,images/pattern_5.png,j,f,750.0,16.0,3.0,4.0,33.0,1.0,0.0,16.0,190.0,,,,,,641373f8117053037093d10a,09:20:01,26/02/2024
html-keyboard-response,185,643856,0.0-77.0-1.0,,"<div style=""display: flex; flex-direction: column; align-items: center; margin-top: -40px;""><img src=""images/pattern_5.png"" style=""width: 234px; height: 230px; margin-top: -50px;""><div style=""display: flex; justify-content: space-between; margin-top: 33px;""><img src=""images/choice_trial_16.png"" style=""width: 408px; height: 417px; margin-right: 608px;""></div></div>",,delaylearn,learning,display_response,97vIdAwT2fVRnNfVX2kajhXTR6L2,97vIdAwT2fVRnNfVX2kajhXTR6L2,,,,,,,,,,,,,,,,chosen stimuli: images/choice_trial_16.png,,,,,641373f8117053037093d10a,09:20:01,26/02/2024
html-keyboard-response,186,644614,0.0-77.0-2.0,,,,delaylearn,learning,feedback_duration_window,97vIdAwT2fVRnNfVX2kajhXTR6L2,97vIdAwT2fVRnNfVX2kajhXTR6L2,,,,,,,,,,,,,,,,,750.0,,,,641373f8117053037093d10a,09:20:01,26/02/2024
html-keyboard-response,187,646125,0.0-77.0-3.0,,<div style='margin:auto;width: auto; font-size: 150%'><span style='font-weight: bold; font-size: 100px; color: red;'>0 points!</span><br><br></div>,,delaylearn,learning,feedback_image_window,97vIdAwT2fVRnNfVX2kajhXTR6L2,97vIdAwT2fVRnNfVX2kajhXTR6L2,,,,,,,,,,,,,,,,,,,,,641373f8117053037093d10a,09:20:01,26/02/2024
html-keyboard-response,188,647966,0.0-78.0,,"<div style=""font-size:100px;"">+</div>",,delaylearn,learning,ITI,97vIdAwT2fVRnNfVX2kajhXTR6L2,97vIdAwT2fVRnNfVX2kajhXTR6L2,,,,,,,,,,,,,,,,,,1838.0,,,641373f8117053037093d10a,09:20:01,26/02/2024
html-keyboard-response,189,650454,0.0-79.0-0.0,2481.4000000059605,"<div style=""display: flex; flex-direction: column; align-items: center; margin-top: -40px;""><img src=""images/pattern_3.png"" style=""width: 234px; height: 230px; margin-top: -50px;""><div style=""display: flex; justify-content: space-between; margin-top: 33px;""><img src=""images/choice_trial_3.png"" style=""width: 408px; height: 417px; margin-right: 200px;""><img src=""images/choice_trial_16.png"" style=""width: 408px; height: 417px;""></div></div>",j,delaylearn,learning,trial,97vIdAwT2fVRnNfVX2kajhXTR6L2,97vIdAwT2fVRnNfVX2kajhXTR6L2,3.0,images/choice_trial_3.png,images/choice_trial_16.png,images/pattern_3.png,j,j,7000.0,3.0,16.0,2.0,34.0,1.0,1.0,16.0,200.0,,,,,,641373f8117053037093d10a,09:20:01,26/02/2024
html-keyboard-response,190,651468,0.0-79.0-1.0,,"<div style=""display: flex; flex-direction: column; align-items: center; margin-top: -40px;""><img src=""images/pattern_3.png"" style=""width: 234px; height: 230px; margin-top: -50px;""><div style=""display: flex; justify-content: space-between; margin-top: 33px;""><img src=""images/choice_trial_16.png"" style=""width: 408px; height: 417px; margin-left:608px;""></div></div>",,delaylearn,learning,display_response,97vIdAwT2fVRnNfVX2kajhXTR6L2,97vIdAwT2fVRnNfVX2kajhXTR6L2,,,,,,,,,,,,,,,,chosen stimuli: images/choice_trial_16.png,,,,,641373f8117053037093d10a,09:20:01,26/02/2024
html-keyboard-response,191,658482,0.0-79.0-2.0,,,,delaylearn,learning,feedback_duration_window,97vIdAwT2fVRnNfVX2kajhXTR6L2,97vIdAwT2fVRnNfVX2kajhXTR6L2,,,,,,,,,,,,,,,,,7000.0,,,,641373f8117053037093d10a,09:20:01,26/02/2024
html-keyboard-response,192,659988,0.0-79.0-3.0,,<div style='margin:auto;width: auto; font-size: 150%'><span style='font-weight: bold; font-size: 100px; color: green;'>+10 points!</span><br><br></div>,,delaylearn,learning,feedback_image_window,97vIdAwT2fVRnNfVX2kajhXTR6L2,97vIdAwT2fVRnNfVX2kajhXTR6L2,,,,,,,,,,,,,,,,,,,,,641373f8117053037093d10a,09:20:01,26/02/2024
html-keyboard-response,193,661966,0.0-80.0,,"<div style=""font-size:100px;"">+</div>",,delaylearn,learning,ITI,97vIdAwT2fVRnNfVX2kajhXTR6L2,97vIdAwT2fVRnNfVX2kajhXTR6L2,,,,,,,,,,,,,,,,,,1966.0,,,641373f8117053037093d10a,09:20:01,26/02/2024
html-keyboard-response,194,663958,0.0-81.0-0.0,1988.800000011921,"<div style=""display: flex; flex-direction: column; align-items: center; margin-top: -40px;""><img src=""images/pattern_4.png"" style=""width: 234px; height: 230px; margin-top: -50px;""><div style=""display: flex; justify-content: space-between; margin-top: 33px;""><img src=""images/choice_trial_3.png"" style=""width: 408px; height: 417px; margin-right: 200px;""><img src=""images/choice_trial_16.png"" style=""width: 408px; height: 417px;""></div></div>",j,delaylearn,learning,trial,97vIdAwT2fVRnNfVX2kajhXTR6L2,97vIdAwT2fVRnNfVX2kajhXTR6L2,3.0,images/choice_trial_3.png,images/choice_trial_16.png,images/pattern_4.png,f,j,7000.0,3.0,16.0,3.0,35.0,1.0,0.0,16.0,200.0,,,,,,641373f8117053037093d10a,09:20:01,26/02/2024
html-keyboard-response,195,664976,0.0-81.0-1.0,,"<div style=""display: flex; flex-direction: column; align-items: center; margin-top: -40px;""><img src=""images/pattern_4.png"" style=""width: 234px; height: 230px; margin-top: -50px;""><div style=""display: flex; justify-content: space-between; margin-top: 33px;""><img src=""images/choice_trial_16.png"" style=""width: 408px; height: 417px; margin-left:608px;""></div></div>",,delaylearn,learning,display_response,97vIdAwT2fVRnNfVX2kajhXTR6L2,97vIdAwT2fVRnNfVX2kajhXTR6L2,,,,,,,,,,,,,,,,chosen stimuli: images/choice_trial_16.png,,,,,641373f8117053037093d10a,09:20:01,26/02/2024
html-keyboard-response,196,671983,0.0-81.0-2.0,,,,delaylearn,learning,feedback_duration_window,97vIdAwT2fVRnNfVX2kajhXTR6L2,97vIdAwT2fVRnNfVX2kajhXTR6L2,,,,,,,,,,,,,,,,,7000.0,,,,641373f8117053037093d10a,09:20:01,26/02/2024
html-keyboard-response,197,673501,0.0-81.0-3.0,,<div style='margin:auto;width: auto; font-size: 150%'><span style='font-weight: bold; font-size: 100px; color: red;'>0 points!</span><br><br></div>,,delaylearn,learning,feedback_image_window,97vIdAwT2fVRnNfVX2kajhXTR6L2,97vIdAwT2fVRnNfVX2kajhXTR6L2,,,,,,,,,,,,,,,,,,,,,641373f8117053037093d10a,09:20:01,26/02/2024
html-keyboard-response,198,675884,0.0-82.0,,"<div style=""font-size:100px;"">+</div>",,delaylearn,learning,ITI,97vIdAwT2fVRnNfVX2kajhXTR6L2,97vIdAwT2fVRnNfVX2kajhXTR6L2,,,,,,,,,,,,,,,,,,2370.0,,,641373f8117053037093d10a,09:20:01,26/02/2024
html-keyboard-response,199,676883,0.0-83.0-0.0,991.6999999880791,"<div style=""display: flex; flex-direction: column; align-items: center; margin-top: -40px;""><img src=""images/pattern_7.png"" style=""width: 234px; height: 230px; margin-top: -50px;""><div style=""display: flex; justify-content: space-between; margin-top: 33px;""><img src=""images/choice_trial_16.png"" style=""width: 408px; height: 417px; margin-right: 200px;""><img src=""images/choice_trial_3.png"" style=""width: 408px; height: 417px;""></div></div>",f,delaylearn,learning,trial,97vIdAwT2fVRnNfVX2kajhXTR6L2,97vIdAwT2fVRnNfVX2kajhXTR6L2,3.0,images/choice_trial_16.png,images/choice_trial_3.png,images/pattern_7.png,j,f,750.0,16.0,3.0,6.0,36.0,1.0,0.0,16.0,200.0,,,,,,641373f8117053037093d10a,09:20:01,26/02/2024
html-keyboard-response,200,677900,0.0-83.0-1.0,,"<div style=""display: flex; flex-direction: column; align-items: center; margin-top: -40px;""><img src=""images/pattern_7.png"" style=""width: 234px; height: 230px; margin-top: -50px;""><div style=""display: flex; justify-content: space-between; margin-top: 33px;""><img src=""images/choice_trial_16.png"" style=""width: 408px; height: 417px; margin-right: 608px;""></div></div>",,delaylearn,learning,display_response,97vIdAwT2fVRnNfVX2kajhXTR6L2,97vIdAwT2fVRnNfVX2kajhXTR6L2,,,,,,,,,,,,,,,,chosen stimuli: images/choice_trial_16.png,,,,,641373f8117053037093d10a,09:20:01,26/02/2024
html-keyboard-response,201,678660,0.0-83.0-2.0,,,,delaylearn,learning,feedback_duration_window,97vIdAwT2fVRnNfVX2kajhXTR6L2,97vIdAwT2fVRnNfVX2kajhXTR6L2,,,,,,,,,,,,,,,,,750.0,,,,641373f8117053037093d10a,09:20:01,26/02/2024
html-keyboard-response,202,680177,0.0-83.0-3.0,,<div style='margin:auto;width: auto; font-size: 150%'><span style='font-weight: bold; font-size: 100px; color: red;'>0 points!</span><br><br></div>,,delaylearn,learning,feedback_image_window,97vIdAwT2fVRnNfVX2kajhXTR6L2,97vIdAwT2fVRnNfVX2kajhXTR6L2,,,,,,,,,,,,,,,,,,,,,641373f8117053037093d10a,09:20:01,26/02/2024
html-keyboard-response,203,681798,0.0-84.0,,"<div style=""font-size:100px;"">+</div>",,delaylearn,learning,ITI,97vIdAwT2fVRnNfVX2kajhXTR6L2,97vIdAwT2fVRnNfVX2kajhXTR6L2,,,,,,,,,,,,,,,,,,1609.0,,,641373f8117053037093d10a,09:20:01,26/02/2024
html-keyboard-response,204,683973,0.0-85.0-0.0,2168.9000000059605,"<div style=""display: flex; flex-direction: column; align-items: center; margin-top: -40px;""><img src=""images/pattern_1.png"" style=""width: 234px; height: 230px; margin-top: -50px;""><div style=""display: flex; justify-content: space-between; margin-top: 33px;""><img src=""images/choice_trial_6.png"" style=""width: 408px; height: 417px; margin-right: 200px;""><img src=""images/choice_trial_12.png"" style=""width: 408px; height: 417px;""></div></div>",j,delaylearn,learning,trial,97vIdAwT2fVRnNfVX2kajhXTR6L2,97vIdAwT2fVRnNfVX2kajhXTR6L2,3.0,images/choice_trial_6.png,images/choice_trial_12.png,images/pattern_1.png,j,f,7000.0,6.0,12.0,1.0,37.0,0.0,1.0,12.0,210.0,,,,,,641373f8117053037093d10a,09:20:01,26/02/2024
html-keyboard-response,205,684985,0.0-85.0-1.0,,"<div style=""display: flex; flex-direction: column; align-items: center; margin-top: -40px;""><img src=""images/pattern_1.png"" style=""width: 234px; height: 230px; margin-top: -50px;""><div style=""display: flex; justify-content: space-between; margin-top: 33px;""><img src=""images/choice_trial_12.png"" style=""width: 408px; height: 417px; margin-left:608px;""></div></div>",,delaylearn,learning,display_response,97vIdAwT2fVRnNfVX2kajhXTR6L2,97vIdAwT2fVRnNfVX2kajhXTR6L2,,,,,,,,,,,,,,,,chosen stimuli: images/choice_trial_12.png,,,,,641373f8117053037093d10a,09:20:01,26/02/2024
html-keyboard-response,206,692002,0.0-85.0-2.0,,,,delaylearn,learning,feedback_duration_window,97vIdAwT2fVRnNfVX2kajhXTR6L2,97vIdAwT2fVRnNfVX2kajhXTR6L2,,,,,,,,,,,,,,,,,7000.0,,,,641373f8117053037093d10a,09:20:01,26/02/2024
html-keyboard-response,207,693510,0.0-85.0-3.0,,<div style='margin:auto;width: auto; font-size: 150%'><span style='font-weight: bold; font-size: 100px; color: green;'>+10 points!</span><br><br></div>,,delaylearn,learning,feedback_image_window,97vIdAwT2fVRnNfVX2kajhXTR6L2,97vIdAwT2fVRnNfVX2kajhXTR6L2,,,,,,,,,,,,,,,,,,,,,641373f8117053037093d10a,09:20:01,26/02/2024
html-keyboard-response,208,694024,0.0-86.0-0.0,,,,,,mood_trial_fixation,97vIdAwT2fVRnNfVX2kajhXTR6L2,,,,,,,,,,,,,,,,,,,,,,641373f8117053037093d10a,09:20:01,26/02/2024
lmdlab-html-vas-response,209,698889,0.0-86.0-1.0,3845.0,How happy are you right now?,0.3047031297684039,delaylearn,learning,mood_trial,97vIdAwT2fVRnNfVX2kajhXTR6L2,97vIdAwT2fVRnNfVX2kajhXTR6L2,,,,,,,,,,,,,,,,,,,"['Very unhappy', 'Very happy']",,641373f8117053037093d10a,09:20:01,26/02/2024
html-keyboard-response,210,700422,0.0-87.0,,"<div style=""font-size:100px;"">+</div>",,delaylearn,learning,ITI,97vIdAwT2fVRnNfVX2kajhXTR6L2,97vIdAwT2fVRnNfVX2kajhXTR6L2,,,,,,,,,,,,,,,,,,1519.0,,,641373f8117053037093d10a,09:20:01,26/02/2024
html-keyboard-response,211,702798,0.0-88.0-0.0,2369.7000000178814,"<div style=""display: flex; flex-direction: column; align-items: center; margin-top: -40px;""><img src=""images/pattern_3.png"" style=""width: 234px; height: 230px; margin-top: -50px;""><div style=""display: flex; justify-content: space-between; margin-top: 33px;""><img src=""images/choice_trial_6.png"" style=""width: 408px; height: 417px; margin-right: 200px;""><img src=""images/choice_trial_12.png"" style=""width: 408px; height: 417px;""></div></div>",f,delaylearn,learning,trial,97vIdAwT2fVRnNfVX2kajhXTR6L2,97vIdAwT2fVRnNfVX2kajhXTR6L2,3.0,images/choice_trial_6.png,images/choice_trial_12.png,images/pattern_3.png,f,f,7000.0,6.0,12.0,2.0,38.0,1.0,1.0,6.0,220.0,,,,,,641373f8117053037093d10a,09:20:01,26/02/2024
html-keyboard-response,212,703805,0.0-88.0-1.0,,"<div style=""display: flex; flex-direction: column; align-items: center; margin-top: -40px;""><img src=""images/pattern_3.png"" style=""width: 234px; height: 230px; margin-top: -50px;""><div style=""display: flex; justify-content: space-between; margin-top: 33px;""><img src=""images/choice_trial_6.png"" style=""width: 408px; height: 417px; margin-right: 608px;""></div></div>",,delaylearn,learning,display_response,97vIdAwT2fVRnNfVX2kajhXTR6L2,97vIdAwT2fVRnNfVX2kajhXTR6L2,,,,,,,,,,,,,,,,chosen stimuli: images/choice_trial_6.png,,,,,641373f8117053037093d10a,09:20:01,26/02/2024
html-keyboard-response,213,710807,0.0-88.0-2.0,,,,delaylearn,learning,feedback_duration_window,97vIdAwT2fVRnNfVX2kajhXTR6L2,97vIdAwT2fVRnNfVX2kajhXTR6L2,,,,,,,,,,,,,,,,,7000.0,,,,641373f8117053037093d10a,09:20:01,26/02/2024
html-keyboard-response,214,712313,0.0-88.0-3.0,,<div style='margin:auto;width: auto; font-size: 150%'><span style='font-weight: bold; font-size: 100px; color: green;'>+10 points!</span><br><br></div>,,delaylearn,learning,feedback_image_window,97vIdAwT2fVRnNfVX2kajhXTR6L2,97vIdAwT2fVRnNfVX2kajhXTR6L2,,,,,,,,,,,,,,,,,,,,,641373f8117053037093d10a,09:20:01,26/02/2024
html-keyboard-response,215,714537,0.0-89.0,,"<div style=""font-size:100px;"">+</div>",,delaylearn,learning,ITI,97vIdAwT2fVRnNfVX2kajhXTR6L2,97vIdAwT2fVRnNfVX2kajhXTR6L2,,,,,,,,,,,,,,,,,,2212.0,,,641373f8117053037093d10a,09:20:01,26/02/2024
html-keyboard-response,216,717321,0.0-90.0-0.0,2776.4000000059605,"<div style=""display: flex; flex-direction: column; align-items: center; margin-top: -40px;""><img src=""images/pattern_7.png"" style=""width: 234px; height: 230px; margin-top: -50px;""><div style=""display: flex; justify-content: space-between; margin-top: 33px;""><img src=""images/choice_trial_12.png"" style=""width: 408px; height: 417px; margin-right: 200px;""><img src=""images/choice_trial_6.png"" style=""width: 408px; height: 417px;""></div></div>",j,delaylearn,learning,trial,97vIdAwT2fVRnNfVX2kajhXTR6L2,97vIdAwT2fVRnNfVX2kajhXTR6L2,3.0,images/choice_trial_12.png,images/choice_trial_6.png,images/pattern_7.png,j,j,750.0,12.0,6.0,6.0,39.0,1.0,1.0,6.0,230.0,,,,,,641373f8117053037093d10a,09:20:01,26/02/2024
html-keyboard-response,217,718328,0.0-90.0-1.0,,"<div style=""display: flex; flex-direction: column; align-items: center; margin-top: -40px;""><img src=""images/pattern_7.png"" style=""width: 234px; height: 230px; margin-top: -50px;""><div style=""display: flex; justify-content: space-between; margin-top: 33px;""><img src=""images/choice_trial_6.png"" style=""width: 408px; height: 417px; margin-left:608px;""></div></div>",,delaylearn,learning,display_response,97vIdAwT2fVRnNfVX2kajhXTR6L2,97vIdAwT2fVRnNfVX2kajhXTR6L2,,,,,,,,,,,,,,,,chosen stimuli: images/choice_trial_6.png,,,,,641373f8117053037093d10a,09:20:01,26/02/2024
html-keyboard-response,218,719094,0.0-90.0-2.0,,,,delaylearn,learning,feedback_duration_window,97vIdAwT2fVRnNfVX2kajhXTR6L2,97vIdAwT2fVRnNfVX2kajhXTR6L2,,,,,,,,,,,,,,,,,750.0,,,,641373f8117053037093d10a,09:20:01,26/02/2024
html-keyboard-response,219,720602,0.0-90.0-3.0,,<div style='margin:auto;width: auto; font-size: 150%'><span style='font-weight: bold; font-size: 100px; color: green;'>+10 points!</span><br><br></div>,,delaylearn,learning,feedback_image_window,97vIdAwT2fVRnNfVX2kajhXTR6L2,97vIdAwT2fVRnNfVX2kajhXTR6L2,,,,,,,,,,,,,,,,,,,,,641373f8117053037093d10a,09:20:01,26/02/2024
html-keyboard-response,220,722683,0.0-91.0,,"<div style=""font-size:100px;"">+</div>",,delaylearn,learning,ITI,97vIdAwT2fVRnNfVX2kajhXTR6L2,97vIdAwT2fVRnNfVX2kajhXTR6L2,,,,,,,,,,,,,,,,,,2074.0,,,641373f8117053037093d10a,09:20:01,26/02/2024
html-keyboard-response,221,725017,0.0-92.0-0.0,2327.300000011921,"<div style=""display: flex; flex-direction: column; align-items: center; margin-top: -40px;""><img src=""images/pattern_5.png"" style=""width: 234px; height: 230px; margin-top: -50px;""><div style=""display: flex; justify-content: space-between; margin-top: 33px;""><img src=""images/choice_trial_12.png"" style=""width: 408px; height: 417px; margin-right: 200px;""><img src=""images/choice_trial_6.png"" style=""width: 408px; height: 417px;""></div></div>",j,delaylearn,learning,trial,97vIdAwT2fVRnNfVX2kajhXTR6L2,97vIdAwT2fVRnNfVX2kajhXTR6L2,3.0,images/choice_trial_12.png,images/choice_trial_6.png,images/pattern_5.png,j,j,750.0,12.0,6.0,4.0,40.0,1.0,1.0,6.0,240.0,,,,,,641373f8117053037093d10a,09:20:01,26/02/2024
html-keyboard-response,222,726034,0.0-92.0-1.0,,"<div style=""display: flex; flex-direction: column; align-items: center; margin-top: -40px;""><img src=""images/pattern_5.png"" style=""width: 234px; height: 230px; margin-top: -50px;""><div style=""display: flex; justify-content: space-between; margin-top: 33px;""><img src=""images/choice_trial_6.png"" style=""width: 408px; height: 417px; margin-left:608px;""></div></div>",,delaylearn,learning,display_response,97vIdAwT2fVRnNfVX2kajhXTR6L2,97vIdAwT2fVRnNfVX2kajhXTR6L2,,,,,,,,,,,,,,,,chosen stimuli: images/choice_trial_6.png,,,,,641373f8117053037093d10a,09:20:01,26/02/2024
html-keyboard-response,223,726790,0.0-92.0-2.0,,,,delaylearn,learning,feedback_duration_window,97vIdAwT2fVRnNfVX2kajhXTR6L2,97vIdAwT2fVRnNfVX2kajhXTR6L2,,,,,,,,,,,,,,,,,750.0,,,,641373f8117053037093d10a,09:20:01,26/02/2024
html-keyboard-response,224,728305,0.0-92.0-3.0,,<div style='margin:auto;width: auto; font-size: 150%'><span style='font-weight: bold; font-size: 100px; color: green;'>+10 points!</span><br><br></div>,,delaylearn,learning,feedback_image_window,97vIdAwT2fVRnNfVX2kajhXTR6L2,97vIdAwT2fVRnNfVX2kajhXTR6L2,,,,,,,,,,,,,,,,,,,,,641373f8117053037093d10a,09:20:01,26/02/2024
html-keyboard-response,225,728820,0.0-93.0-0.0,,,,,,mood_trial_fixation,97vIdAwT2fVRnNfVX2kajhXTR6L2,,,,,,,,,,,,,,,,,,,,,,641373f8117053037093d10a,09:20:01,26/02/2024
lmdlab-html-vas-response,226,732618,0.0-93.0-1.0,2776.0,How happy are you right now?,0.34593604828591773,delaylearn,learning,mood_trial,97vIdAwT2fVRnNfVX2kajhXTR6L2,97vIdAwT2fVRnNfVX2kajhXTR6L2,,,,,,,,,,,,,,,,,,,"['Very unhappy', 'Very happy']",,641373f8117053037093d10a,09:20:01,26/02/2024
html-keyboard-response,227,734798,0.0-94.0,,"<div style=""font-size:100px;"">+</div>",,delaylearn,learning,ITI,97vIdAwT2fVRnNfVX2kajhXTR6L2,97vIdAwT2fVRnNfVX2kajhXTR6L2,,,,,,,,,,,,,,,,,,2167.0,,,641373f8117053037093d10a,09:20:01,26/02/2024
html-keyboard-response,228,737361,0.0-95.0-0.0,2556.300000011921,"<div style=""display: flex; flex-direction: column; align-items: center; margin-top: -40px;""><img src=""images/pattern_4.png"" style=""width: 234px; height: 230px; margin-top: -50px;""><div style=""display: flex; justify-content: space-between; margin-top: 33px;""><img src=""images/choice_trial_6.png"" style=""width: 408px; height: 417px; margin-right: 200px;""><img src=""images/choice_trial_12.png"" style=""width: 408px; height: 417px;""></div></div>",f,delaylearn,learning,trial,97vIdAwT2fVRnNfVX2kajhXTR6L2,97vIdAwT2fVRnNfVX2kajhXTR6L2,3.0,images/choice_trial_6.png,images/choice_trial_12.png,images/pattern_4.png,f,f,7000.0,6.0,12.0,3.0,41.0,1.0,1.0,6.0,250.0,,,,,,641373f8117053037093d10a,09:20:01,26/02/2024
html-keyboard-response,229,738374,0.0-95.0-1.0,,"<div style=""display: flex; flex-direction: column; align-items: center; margin-top: -40px;""><img src=""images/pattern_4.png"" style=""width: 234px; height: 230px; margin-top: -50px;""><div style=""display: flex; justify-content: space-between; margin-top: 33px;""><img src=""images/choice_trial_6.png"" style=""width: 408px; height: 417px; margin-right: 608px;""></div></div>",,delaylearn,learning,display_response,97vIdAwT2fVRnNfVX2kajhXTR6L2,97vIdAwT2fVRnNfVX2kajhXTR6L2,,,,,,,,,,,,,,,,chosen stimuli: images/choice_trial_6.png,,,,,641373f8117053037093d10a,09:20:01,26/02/2024
html-keyboard-response,230,745388,0.0-95.0-2.0,,,,delaylearn,learning,feedback_duration_window,97vIdAwT2fVRnNfVX2kajhXTR6L2,97vIdAwT2fVRnNfVX2kajhXTR6L2,,,,,,,,,,,,,,,,,7000.0,,,,641373f8117053037093d10a,09:20:01,26/02/2024
html-keyboard-response,231,746899,0.0-95.0-3.0,,<div style='margin:auto;width: auto; font-size: 150%'><span style='font-weight: bold; font-size: 100px; color: green;'>+10 points!</span><br><br></div>,,delaylearn,learning,feedback_image_window,97vIdAwT2fVRnNfVX2kajhXTR6L2,97vIdAwT2fVRnNfVX2kajhXTR6L2,,,,,,,,,,,,,,,,,,,,,641373f8117053037093d10a,09:20:01,26/02/2024
html-keyboard-response,232,749054,0.0-96.0,,"<div style=""font-size:100px;"">+</div>",,delaylearn,learning,ITI,97vIdAwT2fVRnNfVX2kajhXTR6L2,97vIdAwT2fVRnNfVX2kajhXTR6L2,,,,,,,,,,,,,,,,,,2150.0,,,641373f8117053037093d10a,09:20:01,26/02/2024
html-keyboard-response,233,750878,0.0-97.0-0.0,1816.5999999940395,"<div style=""display: flex; flex-direction: column; align-items: center; margin-top: -40px;""><img src=""images/pattern_6.png"" style=""width: 234px; height: 230px; margin-top: -50px;""><div style=""display: flex; justify-content: space-between; margin-top: 33px;""><img src=""images/choice_trial_12.png"" style=""width: 408px; height: 417px; margin-right: 200px;""><img src=""images/choice_trial_6.png"" style=""width: 408px; height: 417px;""></div></div>",j,delaylearn,learning,trial,97vIdAwT2fVRnNfVX2kajhXTR6L2,97vIdAwT2fVRnNfVX2kajhXTR6L2,3.0,images/choice_trial_12.png,images/choice_trial_6.png,images/pattern_6.png,j,j,750.0,12.0,6.0,5.0,42.0,1.0,1.0,6.0,260.0,,,,,,641373f8117053037093d10a,09:20:01,26/02/2024
