trial_type,trial_index,time_elapsed,internal_node_id,rt,stimulus,response,exp_name,exp_stage,test_part,subjectID,databaseID,counterbal,choice_stimuli_1,choice_stimuli_2,pattern_stimuli,rewarded_answer,correct_answer,feedback_duration_times,stim_left,stim_right,pair,leftright_counter,trial,response_correct,response_rewarded,chosen_stim,counter,displayed_choice,feedback_durations,ITI_duration,labels,rest_warning,prolificID,start_time,date
pavlovia,0,549,0.0-0.0,,,,,,,SuV98d5162cH7XkpLKAowCIyrM22,,,,,,,,,,,,,,,,,,,,,,,5c3205407e0559000172f153,15:52:04,26/03/2024
html-keyboard-response,1,3560,0.0-1.0,,"<div style=""font-size:100px;"">+</div>",,delaylearn,learning,pre_fixation,SuV98d5162cH7XkpLKAowCIyrM22,,,,,,,,,,,,,,,,,,,,,,,5c3205407e0559000172f153,15:52:04,26/03/2024
html-keyboard-response,2,4726,0.0-2.0-0.0,1162.0999999940395,"<div style=""display: flex; flex-direction: column; align-items: center; margin-top: -40px;""><img src=""images/demo_images/pattern_1.png"" style=""width: 234px; height: 230px; margin-top: -50px;""><div style=""display: flex; justify-content: space-between; margin-top: 33px;""><img src=""images/demo_images/choice_trial_2.png"" style=""width: 408px; height: 417px; margin-right: 200px;""><img src=""images/demo_images/choice_trial_1.png"" style=""width: 408px; height: 417px;""></div></div>",f,delaylearn,learning,trial,SuV98d5162cH7XkpLKAowCIyrM22,SuV98d5162cH7XkpLKAowCIyrM22,2.0,images/demo_images/choice_trial_2.png,images/demo_images/choice_trial_1.png,images/demo_images/pattern_1.png,j,j,3000.0,2.0,1.0,20.0,1.0,1.0,0.0,0.0,2.0,0.0,,,,,,5c3205407e0559000172f153,15:52:04,26/03/2024
html-keyboard-response,3,5735,0.0-2.0-1.0,,"<div style=""display: flex; flex-direction: column; align-items: center; margin-top: -40px;""><img src=""images/demo_images/pattern_1.png"" style=""width: 234px; height: 230px; margin-top: -50px;""><div style=""display: flex; justify-content: space-between; margin-top: 33px;""><img src=""images/demo_images/choice_trial_2.png"" style=""width: 408px; height: 417px; margin-right: 608px;""></div></div>",,delaylearn,learning,display_response,SuV98d5162cH7XkpLKAowCIyrM22,SuV98d5162cH7XkpLKAowCIyrM22,,,,,,,,,,,,,,,,,chosen stimuli: images/demo_images/choice_trial_2.png,,,,,5c3205407e0559000172f153,15:52:04,26/03/2024
html-keyboard-response,4,8739,0.0-2.0-2.0,,,,delaylearn,learning,feedback_duration_window,SuV98d5162cH7XkpLKAowCIyrM22,SuV98d5162cH7XkpLKAowCIyrM22,,,,,,,,,,,,,,,,,,3000.0,,,,5c3205407e0559000172f153,15:52:04,26/03/2024
html-keyboard-response,5,10253,0.0-2.0-3.0,,<div style='margin:auto;width: auto; font-size: 150%'><span style='font-weight: bold; font-size: 100px; color: red;'>0 points!</span><br><br></div>,,delaylearn,learning,feedback_image_window,SuV98d5162cH7XkpLKAowCIyrM22,SuV98d5162cH7XkpLKAowCIyrM22,,,,,,,,,,,,,,,,,,,,,,5c3205407e0559000172f153,15:52:04,26/03/2024
html-keyboard-response,6,12370,0.0-3.0,,"<div style=""font-size:100px;"">+</div>",,delaylearn,learning,ITI,SuV98d5162cH7XkpLKAowCIyrM22,SuV98d5162cH7XkpLKAowCIyrM22,,,,,,,,,,,,,,,,,,,2101.0,,,5c3205407e0559000172f153,15:52:04,26/03/2024
html-keyboard-response,7,13255,0.0-4.0-0.0,882.0,"<div style=""display: flex; flex-direction: column; align-items: center; margin-top: -40px;""><img src=""images/demo_images/pattern_1.png"" style=""width: 234px; height: 230px; margin-top: -50px;""><div style=""display: flex; justify-content: space-between; margin-top: 33px;""><img src=""images/demo_images/choice_trial_2.png"" style=""width: 408px; height: 417px; margin-right: 200px;""><img src=""images/demo_images/choice_trial_1.png"" style=""width: 408px; height: 417px;""></div></div>",j,delaylearn,learning,trial,SuV98d5162cH7XkpLKAowCIyrM22,SuV98d5162cH7XkpLKAowCIyrM22,2.0,images/demo_images/choice_trial_2.png,images/demo_images/choice_trial_1.png,images/demo_images/pattern_1.png,j,j,3000.0,2.0,1.0,20.0,1.0,2.0,1.0,1.0,1.0,10.0,,,,,,5c3205407e0559000172f153,15:52:04,26/03/2024
html-keyboard-response,8,14266,0.0-4.0-1.0,,"<div style=""display: flex; flex-direction: column; align-items: center; margin-top: -40px;""><img src=""images/demo_images/pattern_1.png"" style=""width: 234px; height: 230px; margin-top: -50px;""><div style=""display: flex; justify-content: space-between; margin-top: 33px;""><img src=""images/demo_images/choice_trial_1.png"" style=""width: 408px; height: 417px; margin-left:608px;""></div></div>",,delaylearn,learning,display_response,SuV98d5162cH7XkpLKAowCIyrM22,SuV98d5162cH7XkpLKAowCIyrM22,,,,,,,,,,,,,,,,,chosen stimuli: images/demo_images/choice_trial_1.png,,,,,5c3205407e0559000172f153,15:52:04,26/03/2024
html-keyboard-response,9,17277,0.0-4.0-2.0,,,,delaylearn,learning,feedback_duration_window,SuV98d5162cH7XkpLKAowCIyrM22,SuV98d5162cH7XkpLKAowCIyrM22,,,,,,,,,,,,,,,,,,3000.0,,,,5c3205407e0559000172f153,15:52:04,26/03/2024
html-keyboard-response,10,18794,0.0-4.0-3.0,,<div style='margin:auto;width: auto; font-size: 150%'><span style='font-weight: bold; font-size: 100px; color: green;'>+10 points!</span><br><br></div>,,delaylearn,learning,feedback_image_window,SuV98d5162cH7XkpLKAowCIyrM22,SuV98d5162cH7XkpLKAowCIyrM22,,,,,,,,,,,,,,,,,,,,,,5c3205407e0559000172f153,15:52:04,26/03/2024
html-keyboard-response,11,20464,0.0-5.0,,"<div style=""font-size:100px;"">+</div>",,delaylearn,learning,ITI,SuV98d5162cH7XkpLKAowCIyrM22,SuV98d5162cH7XkpLKAowCIyrM22,,,,,,,,,,,,,,,,,,,1657.0,,,5c3205407e0559000172f153,15:52:04,26/03/2024
html-keyboard-response,12,21668,0.0-6.0-0.0,1199.9000000059605,"<div style=""display: flex; flex-direction: column; align-items: center; margin-top: -40px;""><img src=""images/demo_images/pattern_1.png"" style=""width: 234px; height: 230px; margin-top: -50px;""><div style=""display: flex; justify-content: space-between; margin-top: 33px;""><img src=""images/demo_images/choice_trial_1.png"" style=""width: 408px; height: 417px; margin-right: 200px;""><img src=""images/demo_images/choice_trial_2.png"" style=""width: 408px; height: 417px;""></div></div>",f,delaylearn,learning,trial,SuV98d5162cH7XkpLKAowCIyrM22,SuV98d5162cH7XkpLKAowCIyrM22,2.0,images/demo_images/choice_trial_1.png,images/demo_images/choice_trial_2.png,images/demo_images/pattern_1.png,j,f,3000.0,1.0,2.0,20.0,0.0,3.0,1.0,0.0,1.0,10.0,,,,,,5c3205407e0559000172f153,15:52:04,26/03/2024
html-keyboard-response,13,22672,0.0-6.0-1.0,,"<div style=""display: flex; flex-direction: column; align-items: center; margin-top: -40px;""><img src=""images/demo_images/pattern_1.png"" style=""width: 234px; height: 230px; margin-top: -50px;""><div style=""display: flex; justify-content: space-between; margin-top: 33px;""><img src=""images/demo_images/choice_trial_1.png"" style=""width: 408px; height: 417px; margin-right: 608px;""></div></div>",,delaylearn,learning,display_response,SuV98d5162cH7XkpLKAowCIyrM22,SuV98d5162cH7XkpLKAowCIyrM22,,,,,,,,,,,,,,,,,chosen stimuli: images/demo_images/choice_trial_1.png,,,,,5c3205407e0559000172f153,15:52:04,26/03/2024
html-keyboard-response,14,25689,0.0-6.0-2.0,,,,delaylearn,learning,feedback_duration_window,SuV98d5162cH7XkpLKAowCIyrM22,SuV98d5162cH7XkpLKAowCIyrM22,,,,,,,,,,,,,,,,,,3000.0,,,,5c3205407e0559000172f153,15:52:04,26/03/2024
html-keyboard-response,15,27199,0.0-6.0-3.0,,<div style='margin:auto;width: auto; font-size: 150%'><span style='font-weight: bold; font-size: 100px; color: red;'>0 points!</span><br><br></div>,,delaylearn,learning,feedback_image_window,SuV98d5162cH7XkpLKAowCIyrM22,SuV98d5162cH7XkpLKAowCIyrM22,,,,,,,,,,,,,,,,,,,,,,5c3205407e0559000172f153,15:52:04,26/03/2024
html-keyboard-response,16,28868,0.0-7.0,,"<div style=""font-size:100px;"">+</div>",,delaylearn,learning,ITI,SuV98d5162cH7XkpLKAowCIyrM22,SuV98d5162cH7XkpLKAowCIyrM22,,,,,,,,,,,,,,,,,,,1651.0,,,5c3205407e0559000172f153,15:52:04,26/03/2024
html-keyboard-response,17,30626,0.0-8.0-0.0,1754.5999999940395,"<div style=""display: flex; flex-direction: column; align-items: center; margin-top: -40px;""><img src=""images/demo_images/pattern_1.png"" style=""width: 234px; height: 230px; margin-top: -50px;""><div style=""display: flex; justify-content: space-between; margin-top: 33px;""><img src=""images/demo_images/choice_trial_1.png"" style=""width: 408px; height: 417px; margin-right: 200px;""><img src=""images/demo_images/choice_trial_2.png"" style=""width: 408px; height: 417px;""></div></div>",f,delaylearn,learning,trial,SuV98d5162cH7XkpLKAowCIyrM22,SuV98d5162cH7XkpLKAowCIyrM22,2.0,images/demo_images/choice_trial_1.png,images/demo_images/choice_trial_2.png,images/demo_images/pattern_1.png,f,f,3000.0,1.0,2.0,20.0,0.0,4.0,1.0,1.0,1.0,20.0,,,,,,5c3205407e0559000172f153,15:52:04,26/03/2024
html-keyboard-response,18,31642,0.0-8.0-1.0,,"<div style=""display: flex; flex-direction: column; align-items: center; margin-top: -40px;""><img src=""images/demo_images/pattern_1.png"" style=""width: 234px; height: 230px; margin-top: -50px;""><div style=""display: flex; justify-content: space-between; margin-top: 33px;""><img src=""images/demo_images/choice_trial_1.png"" style=""width: 408px; height: 417px; margin-right: 608px;""></div></div>",,delaylearn,learning,display_response,SuV98d5162cH7XkpLKAowCIyrM22,SuV98d5162cH7XkpLKAowCIyrM22,,,,,,,,,,,,,,,,,chosen stimuli: images/demo_images/choice_trial_1.png,,,,,5c3205407e0559000172f153,15:52:04,26/03/2024
html-keyboard-response,19,34654,0.0-8.0-2.0,,,,delaylearn,learning,feedback_duration_window,SuV98d5162cH7XkpLKAowCIyrM22,SuV98d5162cH7XkpLKAowCIyrM22,,,,,,,,,,,,,,,,,,3000.0,,,,5c3205407e0559000172f153,15:52:04,26/03/2024
html-keyboard-response,20,36170,0.0-8.0-3.0,,<div style='margin:auto;width: auto; font-size: 150%'><span style='font-weight: bold; font-size: 100px; color: green;'>+10 points!</span><br><br></div>,,delaylearn,learning,feedback_image_window,SuV98d5162cH7XkpLKAowCIyrM22,SuV98d5162cH7XkpLKAowCIyrM22,,,,,,,,,,,,,,,,,,,,,,5c3205407e0559000172f153,15:52:04,26/03/2024
html-keyboard-response,21,36686,0.0-9.0-0.0,,,,,,mood_trial_fixation,SuV98d5162cH7XkpLKAowCIyrM22,,,,,,,,,,,,,,,,,,,,,,,5c3205407e0559000172f153,15:52:04,26/03/2024
lmdlab-html-vas-response,22,42513,0.0-9.0-1.0,4784.0,How happy are you right now?,0.3502763554982876,delaylearn,learning,mood_trial,SuV98d5162cH7XkpLKAowCIyrM22,SuV98d5162cH7XkpLKAowCIyrM22,,,,,,,,,,,,,,,,,,,,"['Very unhappy', 'Very happy']",,5c3205407e0559000172f153,15:52:04,26/03/2024
html-keyboard-response,23,44339,0.0-10.0,,"<div style=""font-size:100px;"">+</div>",,delaylearn,learning,ITI,SuV98d5162cH7XkpLKAowCIyrM22,SuV98d5162cH7XkpLKAowCIyrM22,,,,,,,,,,,,,,,,,,,1813.0,,,5c3205407e0559000172f153,15:52:04,26/03/2024
html-keyboard-response,24,45569,0.0-11.0-0.0,1225.7999999821186,"<div style=""display: flex; flex-direction: column; align-items: center; margin-top: -40px;""><img src=""images/demo_images/pattern_1.png"" style=""width: 234px; height: 230px; margin-top: -50px;""><div style=""display: flex; justify-content: space-between; margin-top: 33px;""><img src=""images/demo_images/choice_trial_2.png"" style=""width: 408px; height: 417px; margin-right: 200px;""><img src=""images/demo_images/choice_trial_1.png"" style=""width: 408px; height: 417px;""></div></div>",j,delaylearn,learning,trial,SuV98d5162cH7XkpLKAowCIyrM22,SuV98d5162cH7XkpLKAowCIyrM22,2.0,images/demo_images/choice_trial_2.png,images/demo_images/choice_trial_1.png,images/demo_images/pattern_1.png,j,j,3000.0,2.0,1.0,20.0,1.0,5.0,1.0,1.0,1.0,30.0,,,,,,5c3205407e0559000172f153,15:52:04,26/03/2024
html-keyboard-response,25,46584,0.0-11.0-1.0,,"<div style=""display: flex; flex-direction: column; align-items: center; margin-top: -40px;""><img src=""images/demo_images/pattern_1.png"" style=""width: 234px; height: 230px; margin-top: -50px;""><div style=""display: flex; justify-content: space-between; margin-top: 33px;""><img src=""images/demo_images/choice_trial_1.png"" style=""width: 408px; height: 417px; margin-left:608px;""></div></div>",,delaylearn,learning,display_response,SuV98d5162cH7XkpLKAowCIyrM22,SuV98d5162cH7XkpLKAowCIyrM22,,,,,,,,,,,,,,,,,chosen stimuli: images/demo_images/choice_trial_1.png,,,,,5c3205407e0559000172f153,15:52:04,26/03/2024
html-keyboard-response,26,49599,0.0-11.0-2.0,,,,delaylearn,learning,feedback_duration_window,SuV98d5162cH7XkpLKAowCIyrM22,SuV98d5162cH7XkpLKAowCIyrM22,,,,,,,,,,,,,,,,,,3000.0,,,,5c3205407e0559000172f153,15:52:04,26/03/2024
html-keyboard-response,27,51109,0.0-11.0-3.0,,<div style='margin:auto;width: auto; font-size: 150%'><span style='font-weight: bold; font-size: 100px; color: green;'>+10 points!</span><br><br></div>,,delaylearn,learning,feedback_image_window,SuV98d5162cH7XkpLKAowCIyrM22,SuV98d5162cH7XkpLKAowCIyrM22,,,,,,,,,,,,,,,,,,,,,,5c3205407e0559000172f153,15:52:04,26/03/2024
html-keyboard-response,28,52912,0.0-12.0,,"<div style=""font-size:100px;"">+</div>",,delaylearn,learning,ITI,SuV98d5162cH7XkpLKAowCIyrM22,SuV98d5162cH7XkpLKAowCIyrM22,,,,,,,,,,,,,,,,,,,1793.0,,,5c3205407e0559000172f153,15:52:04,26/03/2024
html-keyboard-response,29,54499,0.0-13.0-0.0,1583.0,"<div style=""display: flex; flex-direction: column; align-items: center; margin-top: -40px;""><img src=""images/demo_images/pattern_1.png"" style=""width: 234px; height: 230px; margin-top: -50px;""><div style=""display: flex; justify-content: space-between; margin-top: 33px;""><img src=""images/demo_images/choice_trial_1.png"" style=""width: 408px; height: 417px; margin-right: 200px;""><img src=""images/demo_images/choice_trial_2.png"" style=""width: 408px; height: 417px;""></div></div>",f,delaylearn,learning,trial,SuV98d5162cH7XkpLKAowCIyrM22,SuV98d5162cH7XkpLKAowCIyrM22,2.0,images/demo_images/choice_trial_1.png,images/demo_images/choice_trial_2.png,images/demo_images/pattern_1.png,f,f,3000.0,1.0,2.0,20.0,0.0,6.0,1.0,1.0,1.0,40.0,,,,,,5c3205407e0559000172f153,15:52:04,26/03/2024
html-keyboard-response,30,55512,0.0-13.0-1.0,,"<div style=""display: flex; flex-direction: column; align-items: center; margin-top: -40px;""><img src=""images/demo_images/pattern_1.png"" style=""width: 234px; height: 230px; margin-top: -50px;""><div style=""display: flex; justify-content: space-between; margin-top: 33px;""><img src=""images/demo_images/choice_trial_1.png"" style=""width: 408px; height: 417px; margin-right: 608px;""></div></div>",,delaylearn,learning,display_response,SuV98d5162cH7XkpLKAowCIyrM22,SuV98d5162cH7XkpLKAowCIyrM22,,,,,,,,,,,,,,,,,chosen stimuli: images/demo_images/choice_trial_1.png,,,,,5c3205407e0559000172f153,15:52:04,26/03/2024
html-keyboard-response,31,58522,0.0-13.0-2.0,,,,delaylearn,learning,feedback_duration_window,SuV98d5162cH7XkpLKAowCIyrM22,SuV98d5162cH7XkpLKAowCIyrM22,,,,,,,,,,,,,,,,,,3000.0,,,,5c3205407e0559000172f153,15:52:04,26/03/2024
html-keyboard-response,32,60032,0.0-13.0-3.0,,<div style='margin:auto;width: auto; font-size: 150%'><span style='font-weight: bold; font-size: 100px; color: green;'>+10 points!</span><br><br></div>,,delaylearn,learning,feedback_image_window,SuV98d5162cH7XkpLKAowCIyrM22,SuV98d5162cH7XkpLKAowCIyrM22,,,,,,,,,,,,,,,,,,,,,,5c3205407e0559000172f153,15:52:04,26/03/2024
html-keyboard-response,33,62255,0.0-14.0,,"<div style=""font-size:100px;"">+</div>",,delaylearn,learning,ITI,SuV98d5162cH7XkpLKAowCIyrM22,SuV98d5162cH7XkpLKAowCIyrM22,,,,,,,,,,,,,,,,,,,2221.0,,,5c3205407e0559000172f153,15:52:04,26/03/2024
html-keyboard-response,34,64157,0.0-15.0-0.0,1898.2999999821186,"<div style=""display: flex; flex-direction: column; align-items: center; margin-top: -40px;""><img src=""images/demo_images/pattern_1.png"" style=""width: 234px; height: 230px; margin-top: -50px;""><div style=""display: flex; justify-content: space-between; margin-top: 33px;""><img src=""images/demo_images/choice_trial_2.png"" style=""width: 408px; height: 417px; margin-right: 200px;""><img src=""images/demo_images/choice_trial_1.png"" style=""width: 408px; height: 417px;""></div></div>",f,delaylearn,learning,trial,SuV98d5162cH7XkpLKAowCIyrM22,SuV98d5162cH7XkpLKAowCIyrM22,2.0,images/demo_images/choice_trial_2.png,images/demo_images/choice_trial_1.png,images/demo_images/pattern_1.png,j,j,3000.0,2.0,1.0,20.0,1.0,7.0,0.0,0.0,2.0,40.0,,,,,,5c3205407e0559000172f153,15:52:04,26/03/2024
html-keyboard-response,35,65169,0.0-15.0-1.0,,"<div style=""display: flex; flex-direction: column; align-items: center; margin-top: -40px;""><img src=""images/demo_images/pattern_1.png"" style=""width: 234px; height: 230px; margin-top: -50px;""><div style=""display: flex; justify-content: space-between; margin-top: 33px;""><img src=""images/demo_images/choice_trial_2.png"" style=""width: 408px; height: 417px; margin-right: 608px;""></div></div>",,delaylearn,learning,display_response,SuV98d5162cH7XkpLKAowCIyrM22,SuV98d5162cH7XkpLKAowCIyrM22,,,,,,,,,,,,,,,,,chosen stimuli: images/demo_images/choice_trial_2.png,,,,,5c3205407e0559000172f153,15:52:04,26/03/2024
html-keyboard-response,36,68180,0.0-15.0-2.0,,,,delaylearn,learning,feedback_duration_window,SuV98d5162cH7XkpLKAowCIyrM22,SuV98d5162cH7XkpLKAowCIyrM22,,,,,,,,,,,,,,,,,,3000.0,,,,5c3205407e0559000172f153,15:52:04,26/03/2024
html-keyboard-response,37,69683,0.0-15.0-3.0,,<div style='margin:auto;width: auto; font-size: 150%'><span style='font-weight: bold; font-size: 100px; color: red;'>0 points!</span><br><br></div>,,delaylearn,learning,feedback_image_window,SuV98d5162cH7XkpLKAowCIyrM22,SuV98d5162cH7XkpLKAowCIyrM22,,,,,,,,,,,,,,,,,,,,,,5c3205407e0559000172f153,15:52:04,26/03/2024
html-keyboard-response,38,71644,0.0-16.0,,"<div style=""font-size:100px;"">+</div>",,delaylearn,learning,ITI,SuV98d5162cH7XkpLKAowCIyrM22,SuV98d5162cH7XkpLKAowCIyrM22,,,,,,,,,,,,,,,,,,,1956.0,,,5c3205407e0559000172f153,15:52:04,26/03/2024
html-keyboard-response,39,73762,0.0-17.0-0.0,2114.0,"<div style=""display: flex; flex-direction: column; align-items: center; margin-top: -40px;""><img src=""images/demo_images/pattern_1.png"" style=""width: 234px; height: 230px; margin-top: -50px;""><div style=""display: flex; justify-content: space-between; margin-top: 33px;""><img src=""images/demo_images/choice_trial_1.png"" style=""width: 408px; height: 417px; margin-right: 200px;""><img src=""images/demo_images/choice_trial_2.png"" style=""width: 408px; height: 417px;""></div></div>",j,delaylearn,learning,trial,SuV98d5162cH7XkpLKAowCIyrM22,SuV98d5162cH7XkpLKAowCIyrM22,2.0,images/demo_images/choice_trial_1.png,images/demo_images/choice_trial_2.png,images/demo_images/pattern_1.png,f,f,3000.0,1.0,2.0,20.0,0.0,8.0,0.0,0.0,2.0,40.0,,,,,,5c3205407e0559000172f153,15:52:04,26/03/2024
html-keyboard-response,40,74767,0.0-17.0-1.0,,"<div style=""display: flex; flex-direction: column; align-items: center; margin-top: -40px;""><img src=""images/demo_images/pattern_1.png"" style=""width: 234px; height: 230px; margin-top: -50px;""><div style=""display: flex; justify-content: space-between; margin-top: 33px;""><img src=""images/demo_images/choice_trial_2.png"" style=""width: 408px; height: 417px; margin-left:608px;""></div></div>",,delaylearn,learning,display_response,SuV98d5162cH7XkpLKAowCIyrM22,SuV98d5162cH7XkpLKAowCIyrM22,,,,,,,,,,,,,,,,,chosen stimuli: images/demo_images/choice_trial_2.png,,,,,5c3205407e0559000172f153,15:52:04,26/03/2024
html-keyboard-response,41,77781,0.0-17.0-2.0,,,,delaylearn,learning,feedback_duration_window,SuV98d5162cH7XkpLKAowCIyrM22,SuV98d5162cH7XkpLKAowCIyrM22,,,,,,,,,,,,,,,,,,3000.0,,,,5c3205407e0559000172f153,15:52:04,26/03/2024
html-keyboard-response,42,79285,0.0-17.0-3.0,,<div style='margin:auto;width: auto; font-size: 150%'><span style='font-weight: bold; font-size: 100px; color: red;'>0 points!</span><br><br></div>,,delaylearn,learning,feedback_image_window,SuV98d5162cH7XkpLKAowCIyrM22,SuV98d5162cH7XkpLKAowCIyrM22,,,,,,,,,,,,,,,,,,,,,,5c3205407e0559000172f153,15:52:04,26/03/2024
html-button-response,43,82284,0.0-18.0,2995.9000000059605,"
  <div style=""display: flex; align-items: center; justify-content: center; height: 80vh;"">
  <div>
          <img src=""images/inst_demo_finish.png"" style=""width: 80vw; height:auto;"">
          <br><br>
      </div>
      <br><br>
  </div>",0,,,,SuV98d5162cH7XkpLKAowCIyrM22,,,,,,,,,,,,,,,,,,,,,,,5c3205407e0559000172f153,15:52:04,26/03/2024
html-keyboard-response,44,90516,0.0-19.0,8230.299999982119,"
  <div style=""display: flex; align-items: center; justify-content: center; height: 80vh;"">
  <div>
          <img src=""images/inst_6.png"" style=""width: 80vw; height:auto;"">
          <br><br>
      </div>
      <br><br>
  </div>",f,,,,SuV98d5162cH7XkpLKAowCIyrM22,,,,,,,,,,,,,,,,,,,,,,,5c3205407e0559000172f153,15:52:04,26/03/2024
html-keyboard-response,45,93524,0.0-20.0,,"<div style=""font-size:100px;"">+</div>",,delaylearn,learning,pre_fixation,SuV98d5162cH7XkpLKAowCIyrM22,,,,,,,,,,,,,,,,,,,,,,,5c3205407e0559000172f153,15:52:04,26/03/2024
html-keyboard-response,46,95988,0.0-21.0,,"<div style=""font-size:100px;"">+</div>",,delaylearn,learning,ITI,SuV98d5162cH7XkpLKAowCIyrM22,SuV98d5162cH7XkpLKAowCIyrM22,,,,,,,,,,,,,,,,,,,2455.0,,,5c3205407e0559000172f153,15:52:04,26/03/2024
html-keyboard-response,47,97495,0.0-22.0-0.0,1502.6000000238419,"<div style=""display: flex; flex-direction: column; align-items: center; margin-top: -40px;""><img src=""images/pattern_3.png"" style=""width: 234px; height: 230px; margin-top: -50px;""><div style=""display: flex; justify-content: space-between; margin-top: 33px;""><img src=""images/choice_trial_12.png"" style=""width: 408px; height: 417px; margin-right: 200px;""><img src=""images/choice_trial_14.png"" style=""width: 408px; height: 417px;""></div></div>",f,delaylearn,learning,trial,SuV98d5162cH7XkpLKAowCIyrM22,SuV98d5162cH7XkpLKAowCIyrM22,2.0,images/choice_trial_12.png,images/choice_trial_14.png,images/pattern_3.png,f,f,7000.0,12.0,14.0,2.0,0.0,9.0,1.0,1.0,12.0,50.0,,,,,,5c3205407e0559000172f153,15:52:04,26/03/2024
html-keyboard-response,48,98499,0.0-22.0-1.0,,"<div style=""display: flex; flex-direction: column; align-items: center; margin-top: -40px;""><img src=""images/pattern_3.png"" style=""width: 234px; height: 230px; margin-top: -50px;""><div style=""display: flex; justify-content: space-between; margin-top: 33px;""><img src=""images/choice_trial_12.png"" style=""width: 408px; height: 417px; margin-right: 608px;""></div></div>",,delaylearn,learning,display_response,SuV98d5162cH7XkpLKAowCIyrM22,SuV98d5162cH7XkpLKAowCIyrM22,,,,,,,,,,,,,,,,,chosen stimuli: images/choice_trial_12.png,,,,,5c3205407e0559000172f153,15:52:04,26/03/2024
html-keyboard-response,49,105509,0.0-22.0-2.0,,,,delaylearn,learning,feedback_duration_window,SuV98d5162cH7XkpLKAowCIyrM22,SuV98d5162cH7XkpLKAowCIyrM22,,,,,,,,,,,,,,,,,,7000.0,,,,5c3205407e0559000172f153,15:52:04,26/03/2024
html-keyboard-response,50,107014,0.0-22.0-3.0,,<div style='margin:auto;width: auto; font-size: 150%'><span style='font-weight: bold; font-size: 100px; color: green;'>+10 points!</span><br><br></div>,,delaylearn,learning,feedback_image_window,SuV98d5162cH7XkpLKAowCIyrM22,SuV98d5162cH7XkpLKAowCIyrM22,,,,,,,,,,,,,,,,,,,,,,5c3205407e0559000172f153,15:52:04,26/03/2024
html-keyboard-response,51,109215,0.0-23.0,,"<div style=""font-size:100px;"">+</div>",,delaylearn,learning,ITI,SuV98d5162cH7XkpLKAowCIyrM22,SuV98d5162cH7XkpLKAowCIyrM22,,,,,,,,,,,,,,,,,,,2188.0,,,5c3205407e0559000172f153,15:52:04,26/03/2024
html-keyboard-response,52,111042,0.0-24.0-0.0,1823.0999999940395,"<div style=""display: flex; flex-direction: column; align-items: center; margin-top: -40px;""><img src=""images/pattern_7.png"" style=""width: 234px; height: 230px; margin-top: -50px;""><div style=""display: flex; justify-content: space-between; margin-top: 33px;""><img src=""images/choice_trial_15.png"" style=""width: 408px; height: 417px; margin-right: 200px;""><img src=""images/choice_trial_8.png"" style=""width: 408px; height: 417px;""></div></div>",j,delaylearn,learning,trial,SuV98d5162cH7XkpLKAowCIyrM22,SuV98d5162cH7XkpLKAowCIyrM22,2.0,images/choice_trial_15.png,images/choice_trial_8.png,images/pattern_7.png,j,j,750.0,15.0,8.0,6.0,1.0,10.0,1.0,1.0,8.0,60.0,,,,,,5c3205407e0559000172f153,15:52:04,26/03/2024
html-keyboard-response,53,112049,0.0-24.0-1.0,,"<div style=""display: flex; flex-direction: column; align-items: center; margin-top: -40px;""><img src=""images/pattern_7.png"" style=""width: 234px; height: 230px; margin-top: -50px;""><div style=""display: flex; justify-content: space-between; margin-top: 33px;""><img src=""images/choice_trial_8.png"" style=""width: 408px; height: 417px; margin-left:608px;""></div></div>",,delaylearn,learning,display_response,SuV98d5162cH7XkpLKAowCIyrM22,SuV98d5162cH7XkpLKAowCIyrM22,,,,,,,,,,,,,,,,,chosen stimuli: images/choice_trial_8.png,,,,,5c3205407e0559000172f153,15:52:04,26/03/2024
html-keyboard-response,54,112805,0.0-24.0-2.0,,,,delaylearn,learning,feedback_duration_window,SuV98d5162cH7XkpLKAowCIyrM22,SuV98d5162cH7XkpLKAowCIyrM22,,,,,,,,,,,,,,,,,,750.0,,,,5c3205407e0559000172f153,15:52:04,26/03/2024
html-keyboard-response,55,114320,0.0-24.0-3.0,,<div style='margin:auto;width: auto; font-size: 150%'><span style='font-weight: bold; font-size: 100px; color: green;'>+10 points!</span><br><br></div>,,delaylearn,learning,feedback_image_window,SuV98d5162cH7XkpLKAowCIyrM22,SuV98d5162cH7XkpLKAowCIyrM22,,,,,,,,,,,,,,,,,,,,,,5c3205407e0559000172f153,15:52:04,26/03/2024
html-keyboard-response,56,116098,0.0-25.0,,"<div style=""font-size:100px;"">+</div>",,delaylearn,learning,ITI,SuV98d5162cH7XkpLKAowCIyrM22,SuV98d5162cH7XkpLKAowCIyrM22,,,,,,,,,,,,,,,,,,,1776.0,,,5c3205407e0559000172f153,15:52:04,26/03/2024
html-keyboard-response,57,117380,0.0-26.0-0.0,1278.0999999940395,"<div style=""display: flex; flex-direction: column; align-items: center; margin-top: -40px;""><img src=""images/pattern_4.png"" style=""width: 234px; height: 230px; margin-top: -50px;""><div style=""display: flex; justify-content: space-between; margin-top: 33px;""><img src=""images/choice_trial_4.png"" style=""width: 408px; height: 417px; margin-right: 200px;""><img src=""images/choice_trial_16.png"" style=""width: 408px; height: 417px;""></div></div>",f,delaylearn,learning,trial,SuV98d5162cH7XkpLKAowCIyrM22,SuV98d5162cH7XkpLKAowCIyrM22,2.0,images/choice_trial_4.png,images/choice_trial_16.png,images/pattern_4.png,f,f,7000.0,4.0,16.0,3.0,0.0,11.0,1.0,1.0,4.0,70.0,,,,,,5c3205407e0559000172f153,15:52:04,26/03/2024
html-keyboard-response,58,118391,0.0-26.0-1.0,,"<div style=""display: flex; flex-direction: column; align-items: center; margin-top: -40px;""><img src=""images/pattern_4.png"" style=""width: 234px; height: 230px; margin-top: -50px;""><div style=""display: flex; justify-content: space-between; margin-top: 33px;""><img src=""images/choice_trial_4.png"" style=""width: 408px; height: 417px; margin-right: 608px;""></div></div>",,delaylearn,learning,display_response,SuV98d5162cH7XkpLKAowCIyrM22,SuV98d5162cH7XkpLKAowCIyrM22,,,,,,,,,,,,,,,,,chosen stimuli: images/choice_trial_4.png,,,,,5c3205407e0559000172f153,15:52:04,26/03/2024
html-keyboard-response,59,125407,0.0-26.0-2.0,,,,delaylearn,learning,feedback_duration_window,SuV98d5162cH7XkpLKAowCIyrM22,SuV98d5162cH7XkpLKAowCIyrM22,,,,,,,,,,,,,,,,,,7000.0,,,,5c3205407e0559000172f153,15:52:04,26/03/2024
html-keyboard-response,60,126921,0.0-26.0-3.0,,<div style='margin:auto;width: auto; font-size: 150%'><span style='font-weight: bold; font-size: 100px; color: green;'>+10 points!</span><br><br></div>,,delaylearn,learning,feedback_image_window,SuV98d5162cH7XkpLKAowCIyrM22,SuV98d5162cH7XkpLKAowCIyrM22,,,,,,,,,,,,,,,,,,,,,,5c3205407e0559000172f153,15:52:04,26/03/2024
html-keyboard-response,61,129266,0.0-27.0,,"<div style=""font-size:100px;"">+</div>",,delaylearn,learning,ITI,SuV98d5162cH7XkpLKAowCIyrM22,SuV98d5162cH7XkpLKAowCIyrM22,,,,,,,,,,,,,,,,,,,2342.0,,,5c3205407e0559000172f153,15:52:04,26/03/2024
html-keyboard-response,62,130476,0.0-28.0-0.0,1205.2999999821186,"<div style=""display: flex; flex-direction: column; align-items: center; margin-top: -40px;""><img src=""images/pattern_5.png"" style=""width: 234px; height: 230px; margin-top: -50px;""><div style=""display: flex; justify-content: space-between; margin-top: 33px;""><img src=""images/choice_trial_9.png"" style=""width: 408px; height: 417px; margin-right: 200px;""><img src=""images/choice_trial_2.png"" style=""width: 408px; height: 417px;""></div></div>",f,delaylearn,learning,trial,SuV98d5162cH7XkpLKAowCIyrM22,SuV98d5162cH7XkpLKAowCIyrM22,2.0,images/choice_trial_9.png,images/choice_trial_2.png,images/pattern_5.png,j,j,750.0,9.0,2.0,4.0,1.0,12.0,0.0,0.0,9.0,70.0,,,,,,5c3205407e0559000172f153,15:52:04,26/03/2024
html-keyboard-response,63,131483,0.0-28.0-1.0,,"<div style=""display: flex; flex-direction: column; align-items: center; margin-top: -40px;""><img src=""images/pattern_5.png"" style=""width: 234px; height: 230px; margin-top: -50px;""><div style=""display: flex; justify-content: space-between; margin-top: 33px;""><img src=""images/choice_trial_9.png"" style=""width: 408px; height: 417px; margin-right: 608px;""></div></div>",,delaylearn,learning,display_response,SuV98d5162cH7XkpLKAowCIyrM22,SuV98d5162cH7XkpLKAowCIyrM22,,,,,,,,,,,,,,,,,chosen stimuli: images/choice_trial_9.png,,,,,5c3205407e0559000172f153,15:52:04,26/03/2024
html-keyboard-response,64,132236,0.0-28.0-2.0,,,,delaylearn,learning,feedback_duration_window,SuV98d5162cH7XkpLKAowCIyrM22,SuV98d5162cH7XkpLKAowCIyrM22,,,,,,,,,,,,,,,,,,750.0,,,,5c3205407e0559000172f153,15:52:04,26/03/2024
html-keyboard-response,65,133741,0.0-28.0-3.0,,<div style='margin:auto;width: auto; font-size: 150%'><span style='font-weight: bold; font-size: 100px; color: red;'>0 points!</span><br><br></div>,,delaylearn,learning,feedback_image_window,SuV98d5162cH7XkpLKAowCIyrM22,SuV98d5162cH7XkpLKAowCIyrM22,,,,,,,,,,,,,,,,,,,,,,5c3205407e0559000172f153,15:52:04,26/03/2024
html-keyboard-response,66,135523,0.0-29.0,,"<div style=""font-size:100px;"">+</div>",,delaylearn,learning,ITI,SuV98d5162cH7XkpLKAowCIyrM22,SuV98d5162cH7XkpLKAowCIyrM22,,,,,,,,,,,,,,,,,,,1768.0,,,5c3205407e0559000172f153,15:52:04,26/03/2024
html-keyboard-response,67,137983,0.0-30.0-0.0,2456.300000011921,"<div style=""display: flex; flex-direction: column; align-items: center; margin-top: -40px;""><img src=""images/pattern_6.png"" style=""width: 234px; height: 230px; margin-top: -50px;""><div style=""display: flex; justify-content: space-between; margin-top: 33px;""><img src=""images/choice_trial_11.png"" style=""width: 408px; height: 417px; margin-right: 200px;""><img src=""images/choice_trial_5.png"" style=""width: 408px; height: 417px;""></div></div>",j,delaylearn,learning,trial,SuV98d5162cH7XkpLKAowCIyrM22,SuV98d5162cH7XkpLKAowCIyrM22,2.0,images/choice_trial_11.png,images/choice_trial_5.png,images/pattern_6.png,j,f,750.0,11.0,5.0,5.0,0.0,13.0,0.0,1.0,5.0,80.0,,,,,,5c3205407e0559000172f153,15:52:04,26/03/2024
html-keyboard-response,68,138998,0.0-30.0-1.0,,"<div style=""display: flex; flex-direction: column; align-items: center; margin-top: -40px;""><img src=""images/pattern_6.png"" style=""width: 234px; height: 230px; margin-top: -50px;""><div style=""display: flex; justify-content: space-between; margin-top: 33px;""><img src=""images/choice_trial_5.png"" style=""width: 408px; height: 417px; margin-left:608px;""></div></div>",,delaylearn,learning,display_response,SuV98d5162cH7XkpLKAowCIyrM22,SuV98d5162cH7XkpLKAowCIyrM22,,,,,,,,,,,,,,,,,chosen stimuli: images/choice_trial_5.png,,,,,5c3205407e0559000172f153,15:52:04,26/03/2024
html-keyboard-response,69,139751,0.0-30.0-2.0,,,,delaylearn,learning,feedback_duration_window,SuV98d5162cH7XkpLKAowCIyrM22,SuV98d5162cH7XkpLKAowCIyrM22,,,,,,,,,,,,,,,,,,750.0,,,,5c3205407e0559000172f153,15:52:04,26/03/2024
html-keyboard-response,70,141269,0.0-30.0-3.0,,<div style='margin:auto;width: auto; font-size: 150%'><span style='font-weight: bold; font-size: 100px; color: green;'>+10 points!</span><br><br></div>,,delaylearn,learning,feedback_image_window,SuV98d5162cH7XkpLKAowCIyrM22,SuV98d5162cH7XkpLKAowCIyrM22,,,,,,,,,,,,,,,,,,,,,,5c3205407e0559000172f153,15:52:04,26/03/2024
html-keyboard-response,71,141783,0.0-31.0-0.0,,,,,,mood_trial_fixation,SuV98d5162cH7XkpLKAowCIyrM22,,,,,,,,,,,,,,,,,,,,,,,5c3205407e0559000172f153,15:52:04,26/03/2024
lmdlab-html-vas-response,72,146082,0.0-31.0-1.0,3275.0,How happy are you right now?,0.46095418941371946,delaylearn,learning,mood_trial,SuV98d5162cH7XkpLKAowCIyrM22,SuV98d5162cH7XkpLKAowCIyrM22,,,,,,,,,,,,,,,,,,,,"['Very unhappy', 'Very happy']",,5c3205407e0559000172f153,15:52:04,26/03/2024
html-keyboard-response,73,148080,0.0-32.0,,"<div style=""font-size:100px;"">+</div>",,delaylearn,learning,ITI,SuV98d5162cH7XkpLKAowCIyrM22,SuV98d5162cH7XkpLKAowCIyrM22,,,,,,,,,,,,,,,,,,,1983.0,,,5c3205407e0559000172f153,15:52:04,26/03/2024
html-keyboard-response,74,149718,0.0-33.0-0.0,1633.8999999761581,"<div style=""display: flex; flex-direction: column; align-items: center; margin-top: -40px;""><img src=""images/pattern_1.png"" style=""width: 234px; height: 230px; margin-top: -50px;""><div style=""display: flex; justify-content: space-between; margin-top: 33px;""><img src=""images/choice_trial_10.png"" style=""width: 408px; height: 417px; margin-right: 200px;""><img src=""images/choice_trial_3.png"" style=""width: 408px; height: 417px;""></div></div>",f,delaylearn,learning,trial,SuV98d5162cH7XkpLKAowCIyrM22,SuV98d5162cH7XkpLKAowCIyrM22,2.0,images/choice_trial_10.png,images/choice_trial_3.png,images/pattern_1.png,j,j,7000.0,10.0,3.0,1.0,1.0,14.0,0.0,0.0,10.0,80.0,,,,,,5c3205407e0559000172f153,15:52:04,26/03/2024
html-keyboard-response,75,150734,0.0-33.0-1.0,,"<div style=""display: flex; flex-direction: column; align-items: center; margin-top: -40px;""><img src=""images/pattern_1.png"" style=""width: 234px; height: 230px; margin-top: -50px;""><div style=""display: flex; justify-content: space-between; margin-top: 33px;""><img src=""images/choice_trial_10.png"" style=""width: 408px; height: 417px; margin-right: 608px;""></div></div>",,delaylearn,learning,display_response,SuV98d5162cH7XkpLKAowCIyrM22,SuV98d5162cH7XkpLKAowCIyrM22,,,,,,,,,,,,,,,,,chosen stimuli: images/choice_trial_10.png,,,,,5c3205407e0559000172f153,15:52:04,26/03/2024
html-keyboard-response,76,157736,0.0-33.0-2.0,,,,delaylearn,learning,feedback_duration_window,SuV98d5162cH7XkpLKAowCIyrM22,SuV98d5162cH7XkpLKAowCIyrM22,,,,,,,,,,,,,,,,,,7000.0,,,,5c3205407e0559000172f153,15:52:04,26/03/2024
html-keyboard-response,77,159250,0.0-33.0-3.0,,<div style='margin:auto;width: auto; font-size: 150%'><span style='font-weight: bold; font-size: 100px; color: red;'>0 points!</span><br><br></div>,,delaylearn,learning,feedback_image_window,SuV98d5162cH7XkpLKAowCIyrM22,SuV98d5162cH7XkpLKAowCIyrM22,,,,,,,,,,,,,,,,,,,,,,5c3205407e0559000172f153,15:52:04,26/03/2024
html-keyboard-response,78,160843,0.0-34.0,,"<div style=""font-size:100px;"">+</div>",,delaylearn,learning,ITI,SuV98d5162cH7XkpLKAowCIyrM22,SuV98d5162cH7XkpLKAowCIyrM22,,,,,,,,,,,,,,,,,,,1586.0,,,5c3205407e0559000172f153,15:52:04,26/03/2024
html-keyboard-response,79,162658,0.0-35.0-0.0,1811.0,"<div style=""display: flex; flex-direction: column; align-items: center; margin-top: -40px;""><img src=""images/pattern_3.png"" style=""width: 234px; height: 230px; margin-top: -50px;""><div style=""display: flex; justify-content: space-between; margin-top: 33px;""><img src=""images/choice_trial_14.png"" style=""width: 408px; height: 417px; margin-right: 200px;""><img src=""images/choice_trial_12.png"" style=""width: 408px; height: 417px;""></div></div>",j,delaylearn,learning,trial,SuV98d5162cH7XkpLKAowCIyrM22,SuV98d5162cH7XkpLKAowCIyrM22,2.0,images/choice_trial_14.png,images/choice_trial_12.png,images/pattern_3.png,f,j,7000.0,14.0,12.0,2.0,1.0,15.0,1.0,0.0,12.0,80.0,,,,,,5c3205407e0559000172f153,15:52:04,26/03/2024
html-keyboard-response,80,163667,0.0-35.0-1.0,,"<div style=""display: flex; flex-direction: column; align-items: center; margin-top: -40px;""><img src=""images/pattern_3.png"" style=""width: 234px; height: 230px; margin-top: -50px;""><div style=""display: flex; justify-content: space-between; margin-top: 33px;""><img src=""images/choice_trial_12.png"" style=""width: 408px; height: 417px; margin-left:608px;""></div></div>",,delaylearn,learning,display_response,SuV98d5162cH7XkpLKAowCIyrM22,SuV98d5162cH7XkpLKAowCIyrM22,,,,,,,,,,,,,,,,,chosen stimuli: images/choice_trial_12.png,,,,,5c3205407e0559000172f153,15:52:04,26/03/2024
html-keyboard-response,81,170682,0.0-35.0-2.0,,,,delaylearn,learning,feedback_duration_window,SuV98d5162cH7XkpLKAowCIyrM22,SuV98d5162cH7XkpLKAowCIyrM22,,,,,,,,,,,,,,,,,,7000.0,,,,5c3205407e0559000172f153,15:52:04,26/03/2024
html-keyboard-response,82,172196,0.0-35.0-3.0,,<div style='margin:auto;width: auto; font-size: 150%'><span style='font-weight: bold; font-size: 100px; color: red;'>0 points!</span><br><br></div>,,delaylearn,learning,feedback_image_window,SuV98d5162cH7XkpLKAowCIyrM22,SuV98d5162cH7XkpLKAowCIyrM22,,,,,,,,,,,,,,,,,,,,,,5c3205407e0559000172f153,15:52:04,26/03/2024
html-keyboard-response,83,174220,0.0-36.0,,"<div style=""font-size:100px;"">+</div>",,delaylearn,learning,ITI,SuV98d5162cH7XkpLKAowCIyrM22,SuV98d5162cH7XkpLKAowCIyrM22,,,,,,,,,,,,,,,,,,,2017.0,,,5c3205407e0559000172f153,15:52:04,26/03/2024
html-keyboard-response,84,175278,0.0-37.0-0.0,1052.800000011921,"<div style=""display: flex; flex-direction: column; align-items: center; margin-top: -40px;""><img src=""images/pattern_5.png"" style=""width: 234px; height: 230px; margin-top: -50px;""><div style=""display: flex; justify-content: space-between; margin-top: 33px;""><img src=""images/choice_trial_2.png"" style=""width: 408px; height: 417px; margin-right: 200px;""><img src=""images/choice_trial_9.png"" style=""width: 408px; height: 417px;""></div></div>",f,delaylearn,learning,trial,SuV98d5162cH7XkpLKAowCIyrM22,SuV98d5162cH7XkpLKAowCIyrM22,2.0,images/choice_trial_2.png,images/choice_trial_9.png,images/pattern_5.png,f,f,750.0,2.0,9.0,4.0,0.0,16.0,1.0,1.0,2.0,90.0,,,,,,5c3205407e0559000172f153,15:52:04,26/03/2024
html-keyboard-response,85,176296,0.0-37.0-1.0,,"<div style=""display: flex; flex-direction: column; align-items: center; margin-top: -40px;""><img src=""images/pattern_5.png"" style=""width: 234px; height: 230px; margin-top: -50px;""><div style=""display: flex; justify-content: space-between; margin-top: 33px;""><img src=""images/choice_trial_2.png"" style=""width: 408px; height: 417px; margin-right: 608px;""></div></div>",,delaylearn,learning,display_response,SuV98d5162cH7XkpLKAowCIyrM22,SuV98d5162cH7XkpLKAowCIyrM22,,,,,,,,,,,,,,,,,chosen stimuli: images/choice_trial_2.png,,,,,5c3205407e0559000172f153,15:52:04,26/03/2024
html-keyboard-response,86,177059,0.0-37.0-2.0,,,,delaylearn,learning,feedback_duration_window,SuV98d5162cH7XkpLKAowCIyrM22,SuV98d5162cH7XkpLKAowCIyrM22,,,,,,,,,,,,,,,,,,750.0,,,,5c3205407e0559000172f153,15:52:04,26/03/2024
html-keyboard-response,87,178575,0.0-37.0-3.0,,<div style='margin:auto;width: auto; font-size: 150%'><span style='font-weight: bold; font-size: 100px; color: green;'>+10 points!</span><br><br></div>,,delaylearn,learning,feedback_image_window,SuV98d5162cH7XkpLKAowCIyrM22,SuV98d5162cH7XkpLKAowCIyrM22,,,,,,,,,,,,,,,,,,,,,,5c3205407e0559000172f153,15:52:04,26/03/2024
html-keyboard-response,88,179079,0.0-38.0-0.0,,,,,,mood_trial_fixation,SuV98d5162cH7XkpLKAowCIyrM22,,,,,,,,,,,,,,,,,,,,,,,5c3205407e0559000172f153,15:52:04,26/03/2024
lmdlab-html-vas-response,89,182917,0.0-38.0-1.0,2813.0,How happy are you right now?,0.406700349259096,delaylearn,learning,mood_trial,SuV98d5162cH7XkpLKAowCIyrM22,SuV98d5162cH7XkpLKAowCIyrM22,,,,,,,,,,,,,,,,,,,,"['Very unhappy', 'Very happy']",,5c3205407e0559000172f153,15:52:04,26/03/2024
html-keyboard-response,90,185300,0.0-39.0,,"<div style=""font-size:100px;"">+</div>",,delaylearn,learning,ITI,SuV98d5162cH7XkpLKAowCIyrM22,SuV98d5162cH7XkpLKAowCIyrM22,,,,,,,,,,,,,,,,,,,2371.0,,,5c3205407e0559000172f153,15:52:04,26/03/2024
html-keyboard-response,91,186748,0.0-40.0-0.0,1443.0999999940395,"<div style=""display: flex; flex-direction: column; align-items: center; margin-top: -40px;""><img src=""images/pattern_6.png"" style=""width: 234px; height: 230px; margin-top: -50px;""><div style=""display: flex; justify-content: space-between; margin-top: 33px;""><img src=""images/choice_trial_11.png"" style=""width: 408px; height: 417px; margin-right: 200px;""><img src=""images/choice_trial_5.png"" style=""width: 408px; height: 417px;""></div></div>",f,delaylearn,learning,trial,SuV98d5162cH7XkpLKAowCIyrM22,SuV98d5162cH7XkpLKAowCIyrM22,2.0,images/choice_trial_11.png,images/choice_trial_5.png,images/pattern_6.png,f,f,750.0,11.0,5.0,5.0,0.0,17.0,1.0,1.0,11.0,100.0,,,,,,5c3205407e0559000172f153,15:52:04,26/03/2024
html-keyboard-response,92,187756,0.0-40.0-1.0,,"<div style=""display: flex; flex-direction: column; align-items: center; margin-top: -40px;""><img src=""images/pattern_6.png"" style=""width: 234px; height: 230px; margin-top: -50px;""><div style=""display: flex; justify-content: space-between; margin-top: 33px;""><img src=""images/choice_trial_11.png"" style=""width: 408px; height: 417px; margin-right: 608px;""></div></div>",,delaylearn,learning,display_response,SuV98d5162cH7XkpLKAowCIyrM22,SuV98d5162cH7XkpLKAowCIyrM22,,,,,,,,,,,,,,,,,chosen stimuli: images/choice_trial_11.png,,,,,5c3205407e0559000172f153,15:52:04,26/03/2024
html-keyboard-response,93,188523,0.0-40.0-2.0,,,,delaylearn,learning,feedback_duration_window,SuV98d5162cH7XkpLKAowCIyrM22,SuV98d5162cH7XkpLKAowCIyrM22,,,,,,,,,,,,,,,,,,750.0,,,,5c3205407e0559000172f153,15:52:04,26/03/2024
html-keyboard-response,94,190036,0.0-40.0-3.0,,<div style='margin:auto;width: auto; font-size: 150%'><span style='font-weight: bold; font-size: 100px; color: green;'>+10 points!</span><br><br></div>,,delaylearn,learning,feedback_image_window,SuV98d5162cH7XkpLKAowCIyrM22,SuV98d5162cH7XkpLKAowCIyrM22,,,,,,,,,,,,,,,,,,,,,,5c3205407e0559000172f153,15:52:04,26/03/2024
html-keyboard-response,95,192064,0.0-41.0,,"<div style=""font-size:100px;"">+</div>",,delaylearn,learning,ITI,SuV98d5162cH7XkpLKAowCIyrM22,SuV98d5162cH7XkpLKAowCIyrM22,,,,,,,,,,,,,,,,,,,2014.0,,,5c3205407e0559000172f153,15:52:04,26/03/2024
html-keyboard-response,96,193335,0.0-42.0-0.0,1267.0999999940395,"<div style=""display: flex; flex-direction: column; align-items: center; margin-top: -40px;""><img src=""images/pattern_4.png"" style=""width: 234px; height: 230px; margin-top: -50px;""><div style=""display: flex; justify-content: space-between; margin-top: 33px;""><img src=""images/choice_trial_16.png"" style=""width: 408px; height: 417px; margin-right: 200px;""><img src=""images/choice_trial_4.png"" style=""width: 408px; height: 417px;""></div></div>",f,delaylearn,learning,trial,SuV98d5162cH7XkpLKAowCIyrM22,SuV98d5162cH7XkpLKAowCIyrM22,2.0,images/choice_trial_16.png,images/choice_trial_4.png,images/pattern_4.png,j,j,7000.0,16.0,4.0,3.0,1.0,18.0,0.0,0.0,16.0,100.0,,,,,,5c3205407e0559000172f153,15:52:04,26/03/2024
html-keyboard-response,97,194347,0.0-42.0-1.0,,"<div style=""display: flex; flex-direction: column; align-items: center; margin-top: -40px;""><img src=""images/pattern_4.png"" style=""width: 234px; height: 230px; margin-top: -50px;""><div style=""display: flex; justify-content: space-between; margin-top: 33px;""><img src=""images/choice_trial_16.png"" style=""width: 408px; height: 417px; margin-right: 608px;""></div></div>",,delaylearn,learning,display_response,SuV98d5162cH7XkpLKAowCIyrM22,SuV98d5162cH7XkpLKAowCIyrM22,,,,,,,,,,,,,,,,,chosen stimuli: images/choice_trial_16.png,,,,,5c3205407e0559000172f153,15:52:04,26/03/2024
html-keyboard-response,98,201354,0.0-42.0-2.0,,,,delaylearn,learning,feedback_duration_window,SuV98d5162cH7XkpLKAowCIyrM22,SuV98d5162cH7XkpLKAowCIyrM22,,,,,,,,,,,,,,,,,,7000.0,,,,5c3205407e0559000172f153,15:52:04,26/03/2024
html-keyboard-response,99,202860,0.0-42.0-3.0,,<div style='margin:auto;width: auto; font-size: 150%'><span style='font-weight: bold; font-size: 100px; color: red;'>0 points!</span><br><br></div>,,delaylearn,learning,feedback_image_window,SuV98d5162cH7XkpLKAowCIyrM22,SuV98d5162cH7XkpLKAowCIyrM22,,,,,,,,,,,,,,,,,,,,,,5c3205407e0559000172f153,15:52:04,26/03/2024
html-keyboard-response,100,204376,0.0-43.0,,"<div style=""font-size:100px;"">+</div>",,delaylearn,learning,ITI,SuV98d5162cH7XkpLKAowCIyrM22,SuV98d5162cH7XkpLKAowCIyrM22,,,,,,,,,,,,,,,,,,,1506.0,,,5c3205407e0559000172f153,15:52:04,26/03/2024
html-keyboard-response,101,205465,0.0-44.0-0.0,1085.300000011921,"<div style=""display: flex; flex-direction: column; align-items: center; margin-top: -40px;""><img src=""images/pattern_7.png"" style=""width: 234px; height: 230px; margin-top: -50px;""><div style=""display: flex; justify-content: space-between; margin-top: 33px;""><img src=""images/choice_trial_8.png"" style=""width: 408px; height: 417px; margin-right: 200px;""><img src=""images/choice_trial_15.png"" style=""width: 408px; height: 417px;""></div></div>",f,delaylearn,learning,trial,SuV98d5162cH7XkpLKAowCIyrM22,SuV98d5162cH7XkpLKAowCIyrM22,2.0,images/choice_trial_8.png,images/choice_trial_15.png,images/pattern_7.png,j,f,750.0,8.0,15.0,6.0,0.0,19.0,1.0,0.0,8.0,100.0,,,,,,5c3205407e0559000172f153,15:52:04,26/03/2024
html-keyboard-response,102,206478,0.0-44.0-1.0,,"<div style=""display: flex; flex-direction: column; align-items: center; margin-top: -40px;""><img src=""images/pattern_7.png"" style=""width: 234px; height: 230px; margin-top: -50px;""><div style=""display: flex; justify-content: space-between; margin-top: 33px;""><img src=""images/choice_trial_8.png"" style=""width: 408px; height: 417px; margin-right: 608px;""></div></div>",,delaylearn,learning,display_response,SuV98d5162cH7XkpLKAowCIyrM22,SuV98d5162cH7XkpLKAowCIyrM22,,,,,,,,,,,,,,,,,chosen stimuli: images/choice_trial_8.png,,,,,5c3205407e0559000172f153,15:52:04,26/03/2024
html-keyboard-response,103,207230,0.0-44.0-2.0,,,,delaylearn,learning,feedback_duration_window,SuV98d5162cH7XkpLKAowCIyrM22,SuV98d5162cH7XkpLKAowCIyrM22,,,,,,,,,,,,,,,,,,750.0,,,,5c3205407e0559000172f153,15:52:04,26/03/2024
html-keyboard-response,104,208747,0.0-44.0-3.0,,<div style='margin:auto;width: auto; font-size: 150%'><span style='font-weight: bold; font-size: 100px; color: red;'>0 points!</span><br><br></div>,,delaylearn,learning,feedback_image_window,SuV98d5162cH7XkpLKAowCIyrM22,SuV98d5162cH7XkpLKAowCIyrM22,,,,,,,,,,,,,,,,,,,,,,5c3205407e0559000172f153,15:52:04,26/03/2024
html-keyboard-response,105,210855,0.0-45.0,,"<div style=""font-size:100px;"">+</div>",,delaylearn,learning,ITI,SuV98d5162cH7XkpLKAowCIyrM22,SuV98d5162cH7XkpLKAowCIyrM22,,,,,,,,,,,,,,,,,,,2106.0,,,5c3205407e0559000172f153,15:52:04,26/03/2024
html-keyboard-response,106,212182,0.0-46.0-0.0,1321.4000000059605,"<div style=""display: flex; flex-direction: column; align-items: center; margin-top: -40px;""><img src=""images/pattern_1.png"" style=""width: 234px; height: 230px; margin-top: -50px;""><div style=""display: flex; justify-content: space-between; margin-top: 33px;""><img src=""images/choice_trial_3.png"" style=""width: 408px; height: 417px; margin-right: 200px;""><img src=""images/choice_trial_10.png"" style=""width: 408px; height: 417px;""></div></div>",f,delaylearn,learning,trial,SuV98d5162cH7XkpLKAowCIyrM22,SuV98d5162cH7XkpLKAowCIyrM22,2.0,images/choice_trial_3.png,images/choice_trial_10.png,images/pattern_1.png,f,f,7000.0,3.0,10.0,1.0,0.0,20.0,1.0,1.0,3.0,110.0,,,,,,5c3205407e0559000172f153,15:52:04,26/03/2024
html-keyboard-response,107,213195,0.0-46.0-1.0,,"<div style=""display: flex; flex-direction: column; align-items: center; margin-top: -40px;""><img src=""images/pattern_1.png"" style=""width: 234px; height: 230px; margin-top: -50px;""><div style=""display: flex; justify-content: space-between; margin-top: 33px;""><img src=""images/choice_trial_3.png"" style=""width: 408px; height: 417px; margin-right: 608px;""></div></div>",,delaylearn,learning,display_response,SuV98d5162cH7XkpLKAowCIyrM22,SuV98d5162cH7XkpLKAowCIyrM22,,,,,,,,,,,,,,,,,chosen stimuli: images/choice_trial_3.png,,,,,5c3205407e0559000172f153,15:52:04,26/03/2024
html-keyboard-response,108,220206,0.0-46.0-2.0,,,,delaylearn,learning,feedback_duration_window,SuV98d5162cH7XkpLKAowCIyrM22,SuV98d5162cH7XkpLKAowCIyrM22,,,,,,,,,,,,,,,,,,7000.0,,,,5c3205407e0559000172f153,15:52:04,26/03/2024
html-keyboard-response,109,221721,0.0-46.0-3.0,,<div style='margin:auto;width: auto; font-size: 150%'><span style='font-weight: bold; font-size: 100px; color: green;'>+10 points!</span><br><br></div>,,delaylearn,learning,feedback_image_window,SuV98d5162cH7XkpLKAowCIyrM22,SuV98d5162cH7XkpLKAowCIyrM22,,,,,,,,,,,,,,,,,,,,,,5c3205407e0559000172f153,15:52:04,26/03/2024
html-keyboard-response,110,223992,0.0-47.0,,"<div style=""font-size:100px;"">+</div>",,delaylearn,learning,ITI,SuV98d5162cH7XkpLKAowCIyrM22,SuV98d5162cH7XkpLKAowCIyrM22,,,,,,,,,,,,,,,,,,,2267.0,,,5c3205407e0559000172f153,15:52:04,26/03/2024
html-keyboard-response,111,225433,0.0-48.0-0.0,1436.5,"<div style=""display: flex; flex-direction: column; align-items: center; margin-top: -40px;""><img src=""images/pattern_6.png"" style=""width: 234px; height: 230px; margin-top: -50px;""><div style=""display: flex; justify-content: space-between; margin-top: 33px;""><img src=""images/choice_trial_5.png"" style=""width: 408px; height: 417px; margin-right: 200px;""><img src=""images/choice_trial_11.png"" style=""width: 408px; height: 417px;""></div></div>",j,delaylearn,learning,trial,SuV98d5162cH7XkpLKAowCIyrM22,SuV98d5162cH7XkpLKAowCIyrM22,2.0,images/choice_trial_5.png,images/choice_trial_11.png,images/pattern_6.png,j,j,750.0,5.0,11.0,5.0,1.0,21.0,1.0,1.0,11.0,120.0,,,,,,5c3205407e0559000172f153,15:52:04,26/03/2024
html-keyboard-response,112,226443,0.0-48.0-1.0,,"<div style=""display: flex; flex-direction: column; align-items: center; margin-top: -40px;""><img src=""images/pattern_6.png"" style=""width: 234px; height: 230px; margin-top: -50px;""><div style=""display: flex; justify-content: space-between; margin-top: 33px;""><img src=""images/choice_trial_11.png"" style=""width: 408px; height: 417px; margin-left:608px;""></div></div>",,delaylearn,learning,display_response,SuV98d5162cH7XkpLKAowCIyrM22,SuV98d5162cH7XkpLKAowCIyrM22,,,,,,,,,,,,,,,,,chosen stimuli: images/choice_trial_11.png,,,,,5c3205407e0559000172f153,15:52:04,26/03/2024
html-keyboard-response,113,227198,0.0-48.0-2.0,,,,delaylearn,learning,feedback_duration_window,SuV98d5162cH7XkpLKAowCIyrM22,SuV98d5162cH7XkpLKAowCIyrM22,,,,,,,,,,,,,,,,,,750.0,,,,5c3205407e0559000172f153,15:52:04,26/03/2024
html-keyboard-response,114,228703,0.0-48.0-3.0,,<div style='margin:auto;width: auto; font-size: 150%'><span style='font-weight: bold; font-size: 100px; color: green;'>+10 points!</span><br><br></div>,,delaylearn,learning,feedback_image_window,SuV98d5162cH7XkpLKAowCIyrM22,SuV98d5162cH7XkpLKAowCIyrM22,,,,,,,,,,,,,,,,,,,,,,5c3205407e0559000172f153,15:52:04,26/03/2024
html-keyboard-response,115,230657,0.0-49.0,,"<div style=""font-size:100px;"">+</div>",,delaylearn,learning,ITI,SuV98d5162cH7XkpLKAowCIyrM22,SuV98d5162cH7XkpLKAowCIyrM22,,,,,,,,,,,,,,,,,,,1937.0,,,5c3205407e0559000172f153,15:52:04,26/03/2024
html-keyboard-response,116,232761,0.0-50.0-0.0,2099.0,"<div style=""display: flex; flex-direction: column; align-items: center; margin-top: -40px;""><img src=""images/pattern_4.png"" style=""width: 234px; height: 230px; margin-top: -50px;""><div style=""display: flex; justify-content: space-between; margin-top: 33px;""><img src=""images/choice_trial_4.png"" style=""width: 408px; height: 417px; margin-right: 200px;""><img src=""images/choice_trial_16.png"" style=""width: 408px; height: 417px;""></div></div>",j,delaylearn,learning,trial,SuV98d5162cH7XkpLKAowCIyrM22,SuV98d5162cH7XkpLKAowCIyrM22,2.0,images/choice_trial_4.png,images/choice_trial_16.png,images/pattern_4.png,f,f,7000.0,4.0,16.0,3.0,0.0,22.0,0.0,0.0,16.0,120.0,,,,,,5c3205407e0559000172f153,15:52:04,26/03/2024
html-keyboard-response,117,233777,0.0-50.0-1.0,,"<div style=""display: flex; flex-direction: column; align-items: center; margin-top: -40px;""><img src=""images/pattern_4.png"" style=""width: 234px; height: 230px; margin-top: -50px;""><div style=""display: flex; justify-content: space-between; margin-top: 33px;""><img src=""images/choice_trial_16.png"" style=""width: 408px; height: 417px; margin-left:608px;""></div></div>",,delaylearn,learning,display_response,SuV98d5162cH7XkpLKAowCIyrM22,SuV98d5162cH7XkpLKAowCIyrM22,,,,,,,,,,,,,,,,,chosen stimuli: images/choice_trial_16.png,,,,,5c3205407e0559000172f153,15:52:04,26/03/2024
html-keyboard-response,118,240787,0.0-50.0-2.0,,,,delaylearn,learning,feedback_duration_window,SuV98d5162cH7XkpLKAowCIyrM22,SuV98d5162cH7XkpLKAowCIyrM22,,,,,,,,,,,,,,,,,,7000.0,,,,5c3205407e0559000172f153,15:52:04,26/03/2024
html-keyboard-response,119,242290,0.0-50.0-3.0,,<div style='margin:auto;width: auto; font-size: 150%'><span style='font-weight: bold; font-size: 100px; color: red;'>0 points!</span><br><br></div>,,delaylearn,learning,feedback_image_window,SuV98d5162cH7XkpLKAowCIyrM22,SuV98d5162cH7XkpLKAowCIyrM22,,,,,,,,,,,,,,,,,,,,,,5c3205407e0559000172f153,15:52:04,26/03/2024
html-keyboard-response,120,242795,0.0-51.0-0.0,,,,,,mood_trial_fixation,SuV98d5162cH7XkpLKAowCIyrM22,,,,,,,,,,,,,,,,,,,,,,,5c3205407e0559000172f153,15:52:04,26/03/2024
lmdlab-html-vas-response,121,247492,0.0-51.0-1.0,3689.0,How happy are you right now?,0.40453019565291104,delaylearn,learning,mood_trial,SuV98d5162cH7XkpLKAowCIyrM22,SuV98d5162cH7XkpLKAowCIyrM22,,,,,,,,,,,,,,,,,,,,"['Very unhappy', 'Very happy']",,5c3205407e0559000172f153,15:52:04,26/03/2024
html-keyboard-response,122,249689,0.0-52.0,,"<div style=""font-size:100px;"">+</div>",,delaylearn,learning,ITI,SuV98d5162cH7XkpLKAowCIyrM22,SuV98d5162cH7XkpLKAowCIyrM22,,,,,,,,,,,,,,,,,,,2187.0,,,5c3205407e0559000172f153,15:52:04,26/03/2024
html-keyboard-response,123,252195,0.0-53.0-0.0,2502.2999999821186,"<div style=""display: flex; flex-direction: column; align-items: center; margin-top: -40px;""><img src=""images/pattern_7.png"" style=""width: 234px; height: 230px; margin-top: -50px;""><div style=""display: flex; justify-content: space-between; margin-top: 33px;""><img src=""images/choice_trial_15.png"" style=""width: 408px; height: 417px; margin-right: 200px;""><img src=""images/choice_trial_8.png"" style=""width: 408px; height: 417px;""></div></div>",j,delaylearn,learning,trial,SuV98d5162cH7XkpLKAowCIyrM22,SuV98d5162cH7XkpLKAowCIyrM22,2.0,images/choice_trial_15.png,images/choice_trial_8.png,images/pattern_7.png,j,j,750.0,15.0,8.0,6.0,1.0,23.0,1.0,1.0,8.0,130.0,,,,,,5c3205407e0559000172f153,15:52:04,26/03/2024
html-keyboard-response,124,253213,0.0-53.0-1.0,,"<div style=""display: flex; flex-direction: column; align-items: center; margin-top: -40px;""><img src=""images/pattern_7.png"" style=""width: 234px; height: 230px; margin-top: -50px;""><div style=""display: flex; justify-content: space-between; margin-top: 33px;""><img src=""images/choice_trial_8.png"" style=""width: 408px; height: 417px; margin-left:608px;""></div></div>",,delaylearn,learning,display_response,SuV98d5162cH7XkpLKAowCIyrM22,SuV98d5162cH7XkpLKAowCIyrM22,,,,,,,,,,,,,,,,,chosen stimuli: images/choice_trial_8.png,,,,,5c3205407e0559000172f153,15:52:04,26/03/2024
html-keyboard-response,125,253980,0.0-53.0-2.0,,,,delaylearn,learning,feedback_duration_window,SuV98d5162cH7XkpLKAowCIyrM22,SuV98d5162cH7XkpLKAowCIyrM22,,,,,,,,,,,,,,,,,,750.0,,,,5c3205407e0559000172f153,15:52:04,26/03/2024
html-keyboard-response,126,255486,0.0-53.0-3.0,,<div style='margin:auto;width: auto; font-size: 150%'><span style='font-weight: bold; font-size: 100px; color: green;'>+10 points!</span><br><br></div>,,delaylearn,learning,feedback_image_window,SuV98d5162cH7XkpLKAowCIyrM22,SuV98d5162cH7XkpLKAowCIyrM22,,,,,,,,,,,,,,,,,,,,,,5c3205407e0559000172f153,15:52:04,26/03/2024
html-keyboard-response,127,257584,0.0-54.0,,"<div style=""font-size:100px;"">+</div>",,delaylearn,learning,ITI,SuV98d5162cH7XkpLKAowCIyrM22,SuV98d5162cH7XkpLKAowCIyrM22,,,,,,,,,,,,,,,,,,,2086.0,,,5c3205407e0559000172f153,15:52:04,26/03/2024
html-keyboard-response,128,259593,0.0-55.0-0.0,2005.0,"<div style=""display: flex; flex-direction: column; align-items: center; margin-top: -40px;""><img src=""images/pattern_1.png"" style=""width: 234px; height: 230px; margin-top: -50px;""><div style=""display: flex; justify-content: space-between; margin-top: 33px;""><img src=""images/choice_trial_10.png"" style=""width: 408px; height: 417px; margin-right: 200px;""><img src=""images/choice_trial_3.png"" style=""width: 408px; height: 417px;""></div></div>",f,delaylearn,learning,trial,SuV98d5162cH7XkpLKAowCIyrM22,SuV98d5162cH7XkpLKAowCIyrM22,2.0,images/choice_trial_10.png,images/choice_trial_3.png,images/pattern_1.png,f,j,7000.0,10.0,3.0,1.0,1.0,24.0,0.0,1.0,10.0,140.0,,,,,,5c3205407e0559000172f153,15:52:04,26/03/2024
html-keyboard-response,129,260600,0.0-55.0-1.0,,"<div style=""display: flex; flex-direction: column; align-items: center; margin-top: -40px;""><img src=""images/pattern_1.png"" style=""width: 234px; height: 230px; margin-top: -50px;""><div style=""display: flex; justify-content: space-between; margin-top: 33px;""><img src=""images/choice_trial_10.png"" style=""width: 408px; height: 417px; margin-right: 608px;""></div></div>",,delaylearn,learning,display_response,SuV98d5162cH7XkpLKAowCIyrM22,SuV98d5162cH7XkpLKAowCIyrM22,,,,,,,,,,,,,,,,,chosen stimuli: images/choice_trial_10.png,,,,,5c3205407e0559000172f153,15:52:04,26/03/2024
html-keyboard-response,130,267614,0.0-55.0-2.0,,,,delaylearn,learning,feedback_duration_window,SuV98d5162cH7XkpLKAowCIyrM22,SuV98d5162cH7XkpLKAowCIyrM22,,,,,,,,,,,,,,,,,,7000.0,,,,5c3205407e0559000172f153,15:52:04,26/03/2024
html-keyboard-response,131,269118,0.0-55.0-3.0,,<div style='margin:auto;width: auto; font-size: 150%'><span style='font-weight: bold; font-size: 100px; color: green;'>+10 points!</span><br><br></div>,,delaylearn,learning,feedback_image_window,SuV98d5162cH7XkpLKAowCIyrM22,SuV98d5162cH7XkpLKAowCIyrM22,,,,,,,,,,,,,,,,,,,,,,5c3205407e0559000172f153,15:52:04,26/03/2024
html-keyboard-response,132,271283,0.0-56.0,,"<div style=""font-size:100px;"">+</div>",,delaylearn,learning,ITI,SuV98d5162cH7XkpLKAowCIyrM22,SuV98d5162cH7XkpLKAowCIyrM22,,,,,,,,,,,,,,,,,,,2156.0,,,5c3205407e0559000172f153,15:52:04,26/03/2024
html-keyboard-response,133,272819,0.0-57.0-0.0,1530.5,"<div style=""display: flex; flex-direction: column; align-items: center; margin-top: -40px;""><img src=""images/pattern_5.png"" style=""width: 234px; height: 230px; margin-top: -50px;""><div style=""display: flex; justify-content: space-between; margin-top: 33px;""><img src=""images/choice_trial_9.png"" style=""width: 408px; height: 417px; margin-right: 200px;""><img src=""images/choice_trial_2.png"" style=""width: 408px; height: 417px;""></div></div>",f,delaylearn,learning,trial,SuV98d5162cH7XkpLKAowCIyrM22,SuV98d5162cH7XkpLKAowCIyrM22,2.0,images/choice_trial_9.png,images/choice_trial_2.png,images/pattern_5.png,j,j,750.0,9.0,2.0,4.0,1.0,25.0,0.0,0.0,9.0,140.0,,,,,,5c3205407e0559000172f153,15:52:04,26/03/2024
html-keyboard-response,134,273830,0.0-57.0-1.0,,"<div style=""display: flex; flex-direction: column; align-items: center; margin-top: -40px;""><img src=""images/pattern_5.png"" style=""width: 234px; height: 230px; margin-top: -50px;""><div style=""display: flex; justify-content: space-between; margin-top: 33px;""><img src=""images/choice_trial_9.png"" style=""width: 408px; height: 417px; margin-right: 608px;""></div></div>",,delaylearn,learning,display_response,SuV98d5162cH7XkpLKAowCIyrM22,SuV98d5162cH7XkpLKAowCIyrM22,,,,,,,,,,,,,,,,,chosen stimuli: images/choice_trial_9.png,,,,,5c3205407e0559000172f153,15:52:04,26/03/2024
html-keyboard-response,135,274584,0.0-57.0-2.0,,,,delaylearn,learning,feedback_duration_window,SuV98d5162cH7XkpLKAowCIyrM22,SuV98d5162cH7XkpLKAowCIyrM22,,,,,,,,,,,,,,,,,,750.0,,,,5c3205407e0559000172f153,15:52:04,26/03/2024
html-keyboard-response,136,276098,0.0-57.0-3.0,,<div style='margin:auto;width: auto; font-size: 150%'><span style='font-weight: bold; font-size: 100px; color: red;'>0 points!</span><br><br></div>,,delaylearn,learning,feedback_image_window,SuV98d5162cH7XkpLKAowCIyrM22,SuV98d5162cH7XkpLKAowCIyrM22,,,,,,,,,,,,,,,,,,,,,,5c3205407e0559000172f153,15:52:04,26/03/2024
html-keyboard-response,137,277961,0.0-58.0,,"<div style=""font-size:100px;"">+</div>",,delaylearn,learning,ITI,SuV98d5162cH7XkpLKAowCIyrM22,SuV98d5162cH7XkpLKAowCIyrM22,,,,,,,,,,,,,,,,,,,1857.0,,,5c3205407e0559000172f153,15:52:04,26/03/2024
html-keyboard-response,138,279784,0.0-59.0-0.0,1816.699999988079,"<div style=""display: flex; flex-direction: column; align-items: center; margin-top: -40px;""><img src=""images/pattern_3.png"" style=""width: 234px; height: 230px; margin-top: -50px;""><div style=""display: flex; justify-content: space-between; margin-top: 33px;""><img src=""images/choice_trial_14.png"" style=""width: 408px; height: 417px; margin-right: 200px;""><img src=""images/choice_trial_12.png"" style=""width: 408px; height: 417px;""></div></div>",j,delaylearn,learning,trial,SuV98d5162cH7XkpLKAowCIyrM22,SuV98d5162cH7XkpLKAowCIyrM22,2.0,images/choice_trial_14.png,images/choice_trial_12.png,images/pattern_3.png,j,j,7000.0,14.0,12.0,2.0,1.0,26.0,1.0,1.0,12.0,150.0,,,,,,5c3205407e0559000172f153,15:52:04,26/03/2024
html-keyboard-response,139,280794,0.0-59.0-1.0,,"<div style=""display: flex; flex-direction: column; align-items: center; margin-top: -40px;""><img src=""images/pattern_3.png"" style=""width: 234px; height: 230px; margin-top: -50px;""><div style=""display: flex; justify-content: space-between; margin-top: 33px;""><img src=""images/choice_trial_12.png"" style=""width: 408px; height: 417px; margin-left:608px;""></div></div>",,delaylearn,learning,display_response,SuV98d5162cH7XkpLKAowCIyrM22,SuV98d5162cH7XkpLKAowCIyrM22,,,,,,,,,,,,,,,,,chosen stimuli: images/choice_trial_12.png,,,,,5c3205407e0559000172f153,15:52:04,26/03/2024
html-keyboard-response,140,287805,0.0-59.0-2.0,,,,delaylearn,learning,feedback_duration_window,SuV98d5162cH7XkpLKAowCIyrM22,SuV98d5162cH7XkpLKAowCIyrM22,,,,,,,,,,,,,,,,,,7000.0,,,,5c3205407e0559000172f153,15:52:04,26/03/2024
html-keyboard-response,141,289312,0.0-59.0-3.0,,<div style='margin:auto;width: auto; font-size: 150%'><span style='font-weight: bold; font-size: 100px; color: green;'>+10 points!</span><br><br></div>,,delaylearn,learning,feedback_image_window,SuV98d5162cH7XkpLKAowCIyrM22,SuV98d5162cH7XkpLKAowCIyrM22,,,,,,,,,,,,,,,,,,,,,,5c3205407e0559000172f153,15:52:04,26/03/2024
lmdlab-html-vas-response,142,294959,0.0-60.0-0.0,4125.0,*How <b><u>confident</u></b> are you feeling about your answers at this moment?*,0.3763181987725069,rewlearn,rate_confidence,,SuV98d5162cH7XkpLKAowCIyrM22,SuV98d5162cH7XkpLKAowCIyrM22,,,,,,,,,,,,,,,,,,,,"['No confidence', 'Complete confidence']",,5c3205407e0559000172f153,15:52:04,26/03/2024
lmdlab-rest-trial-limit,143,313897,0.0-60.0-1.0,17429.79999998212,"<div style=""font-size:40px;""><b>Please take a break!</b><br><br><br><br><p>Great work: you earned 150 points.<br><br><br><p>You have completed part(s) 1 of 5.<br><br><br><br>When you are ready to continue<br><br><br>please click the button.</p><br><br>",0,delaylearn,learning,break,SuV98d5162cH7XkpLKAowCIyrM22,SuV98d5162cH7XkpLKAowCIyrM22,,,,,,,,,,,,,,,,,,,,,0.0,5c3205407e0559000172f153,15:52:04,26/03/2024
html-keyboard-response,144,316904,0.0-60.0-2.0,,"<div style=""font-size:100px;"">+</div>",,delaylearn,learning,pre_fixation,SuV98d5162cH7XkpLKAowCIyrM22,,,,,,,,,,,,,,,,,,,,,,,5c3205407e0559000172f153,15:52:04,26/03/2024
lmdlab-html-vas-response,145,321144,0.0-60.0-3.0-0.0,3209.0,How happy are you right now?,0.41538096368383576,delaylearn,learning,mood_baseline,SuV98d5162cH7XkpLKAowCIyrM22,SuV98d5162cH7XkpLKAowCIyrM22,,,,,,,,,,,,,,,,,,,,"['Very unhappy', 'Very happy']",,5c3205407e0559000172f153,15:52:04,26/03/2024
html-keyboard-response,146,322649,0.0-60.0-3.0-1.0,,,,,,mood_baseline_fixation,SuV98d5162cH7XkpLKAowCIyrM22,,,,,,,,,,,,,,,,,,,,,,,5c3205407e0559000172f153,15:52:04,26/03/2024
html-keyboard-response,147,324306,0.0-61.0,,"<div style=""font-size:100px;"">+</div>",,delaylearn,learning,ITI,SuV98d5162cH7XkpLKAowCIyrM22,SuV98d5162cH7XkpLKAowCIyrM22,,,,,,,,,,,,,,,,,,,1653.0,,,5c3205407e0559000172f153,15:52:04,26/03/2024
html-keyboard-response,148,326327,0.0-62.0-0.0,2016.5,"<div style=""display: flex; flex-direction: column; align-items: center; margin-top: -40px;""><img src=""images/pattern_7.png"" style=""width: 234px; height: 230px; margin-top: -50px;""><div style=""display: flex; justify-content: space-between; margin-top: 33px;""><img src=""images/choice_trial_15.png"" style=""width: 408px; height: 417px; margin-right: 200px;""><img src=""images/choice_trial_8.png"" style=""width: 408px; height: 417px;""></div></div>",j,delaylearn,learning,trial,SuV98d5162cH7XkpLKAowCIyrM22,SuV98d5162cH7XkpLKAowCIyrM22,2.0,images/choice_trial_15.png,images/choice_trial_8.png,images/pattern_7.png,j,j,750.0,15.0,8.0,6.0,1.0,27.0,1.0,1.0,8.0,160.0,,,,,,5c3205407e0559000172f153,15:52:04,26/03/2024
html-keyboard-response,149,327341,0.0-62.0-1.0,,"<div style=""display: flex; flex-direction: column; align-items: center; margin-top: -40px;""><img src=""images/pattern_7.png"" style=""width: 234px; height: 230px; margin-top: -50px;""><div style=""display: flex; justify-content: space-between; margin-top: 33px;""><img src=""images/choice_trial_8.png"" style=""width: 408px; height: 417px; margin-left:608px;""></div></div>",,delaylearn,learning,display_response,SuV98d5162cH7XkpLKAowCIyrM22,SuV98d5162cH7XkpLKAowCIyrM22,,,,,,,,,,,,,,,,,chosen stimuli: images/choice_trial_8.png,,,,,5c3205407e0559000172f153,15:52:04,26/03/2024
html-keyboard-response,150,328107,0.0-62.0-2.0,,,,delaylearn,learning,feedback_duration_window,SuV98d5162cH7XkpLKAowCIyrM22,SuV98d5162cH7XkpLKAowCIyrM22,,,,,,,,,,,,,,,,,,750.0,,,,5c3205407e0559000172f153,15:52:04,26/03/2024
html-keyboard-response,151,329625,0.0-62.0-3.0,,<div style='margin:auto;width: auto; font-size: 150%'><span style='font-weight: bold; font-size: 100px; color: green;'>+10 points!</span><br><br></div>,,delaylearn,learning,feedback_image_window,SuV98d5162cH7XkpLKAowCIyrM22,SuV98d5162cH7XkpLKAowCIyrM22,,,,,,,,,,,,,,,,,,,,,,5c3205407e0559000172f153,15:52:04,26/03/2024
html-keyboard-response,152,330141,0.0-63.0-0.0,,,,,,mood_trial_fixation,SuV98d5162cH7XkpLKAowCIyrM22,,,,,,,,,,,,,,,,,,,,,,,5c3205407e0559000172f153,15:52:04,26/03/2024
lmdlab-html-vas-response,153,334231,0.0-63.0-1.0,3064.0,How happy are you right now?,0.4240615781085755,delaylearn,learning,mood_trial,SuV98d5162cH7XkpLKAowCIyrM22,SuV98d5162cH7XkpLKAowCIyrM22,,,,,,,,,,,,,,,,,,,,"['Very unhappy', 'Very happy']",,5c3205407e0559000172f153,15:52:04,26/03/2024
html-keyboard-response,154,335971,0.0-64.0,,"<div style=""font-size:100px;"">+</div>",,delaylearn,learning,ITI,SuV98d5162cH7XkpLKAowCIyrM22,SuV98d5162cH7XkpLKAowCIyrM22,,,,,,,,,,,,,,,,,,,1736.0,,,5c3205407e0559000172f153,15:52:04,26/03/2024
html-keyboard-response,155,337495,0.0-65.0-0.0,1515.199999988079,"<div style=""display: flex; flex-direction: column; align-items: center; margin-top: -40px;""><img src=""images/pattern_1.png"" style=""width: 234px; height: 230px; margin-top: -50px;""><div style=""display: flex; justify-content: space-between; margin-top: 33px;""><img src=""images/choice_trial_3.png"" style=""width: 408px; height: 417px; margin-right: 200px;""><img src=""images/choice_trial_10.png"" style=""width: 408px; height: 417px;""></div></div>",j,delaylearn,learning,trial,SuV98d5162cH7XkpLKAowCIyrM22,SuV98d5162cH7XkpLKAowCIyrM22,2.0,images/choice_trial_3.png,images/choice_trial_10.png,images/pattern_1.png,f,f,7000.0,3.0,10.0,1.0,0.0,28.0,0.0,0.0,10.0,160.0,,,,,,5c3205407e0559000172f153,15:52:04,26/03/2024
html-keyboard-response,156,338502,0.0-65.0-1.0,,"<div style=""display: flex; flex-direction: column; align-items: center; margin-top: -40px;""><img src=""images/pattern_1.png"" style=""width: 234px; height: 230px; margin-top: -50px;""><div style=""display: flex; justify-content: space-between; margin-top: 33px;""><img src=""images/choice_trial_10.png"" style=""width: 408px; height: 417px; margin-left:608px;""></div></div>",,delaylearn,learning,display_response,SuV98d5162cH7XkpLKAowCIyrM22,SuV98d5162cH7XkpLKAowCIyrM22,,,,,,,,,,,,,,,,,chosen stimuli: images/choice_trial_10.png,,,,,5c3205407e0559000172f153,15:52:04,26/03/2024
html-keyboard-response,157,345517,0.0-65.0-2.0,,,,delaylearn,learning,feedback_duration_window,SuV98d5162cH7XkpLKAowCIyrM22,SuV98d5162cH7XkpLKAowCIyrM22,,,,,,,,,,,,,,,,,,7000.0,,,,5c3205407e0559000172f153,15:52:04,26/03/2024
html-keyboard-response,158,347023,0.0-65.0-3.0,,<div style='margin:auto;width: auto; font-size: 150%'><span style='font-weight: bold; font-size: 100px; color: red;'>0 points!</span><br><br></div>,,delaylearn,learning,feedback_image_window,SuV98d5162cH7XkpLKAowCIyrM22,SuV98d5162cH7XkpLKAowCIyrM22,,,,,,,,,,,,,,,,,,,,,,5c3205407e0559000172f153,15:52:04,26/03/2024
html-keyboard-response,159,349291,0.0-66.0,,"<div style=""font-size:100px;"">+</div>",,delaylearn,learning,ITI,SuV98d5162cH7XkpLKAowCIyrM22,SuV98d5162cH7XkpLKAowCIyrM22,,,,,,,,,,,,,,,,,,,2254.0,,,5c3205407e0559000172f153,15:52:04,26/03/2024
html-keyboard-response,160,350746,0.0-67.0-0.0,1450.7999999821186,"<div style=""display: flex; flex-direction: column; align-items: center; margin-top: -40px;""><img src=""images/pattern_5.png"" style=""width: 234px; height: 230px; margin-top: -50px;""><div style=""display: flex; justify-content: space-between; margin-top: 33px;""><img src=""images/choice_trial_2.png"" style=""width: 408px; height: 417px; margin-right: 200px;""><img src=""images/choice_trial_9.png"" style=""width: 408px; height: 417px;""></div></div>",j,delaylearn,learning,trial,SuV98d5162cH7XkpLKAowCIyrM22,SuV98d5162cH7XkpLKAowCIyrM22,2.0,images/choice_trial_2.png,images/choice_trial_9.png,images/pattern_5.png,f,f,750.0,2.0,9.0,4.0,0.0,29.0,0.0,0.0,9.0,160.0,,,,,,5c3205407e0559000172f153,15:52:04,26/03/2024
html-keyboard-response,161,351754,0.0-67.0-1.0,,"<div style=""display: flex; flex-direction: column; align-items: center; margin-top: -40px;""><img src=""images/pattern_5.png"" style=""width: 234px; height: 230px; margin-top: -50px;""><div style=""display: flex; justify-content: space-between; margin-top: 33px;""><img src=""images/choice_trial_9.png"" style=""width: 408px; height: 417px; margin-left:608px;""></div></div>",,delaylearn,learning,display_response,SuV98d5162cH7XkpLKAowCIyrM22,SuV98d5162cH7XkpLKAowCIyrM22,,,,,,,,,,,,,,,,,chosen stimuli: images/choice_trial_9.png,,,,,5c3205407e0559000172f153,15:52:04,26/03/2024
html-keyboard-response,162,352521,0.0-67.0-2.0,,,,delaylearn,learning,feedback_duration_window,SuV98d5162cH7XkpLKAowCIyrM22,SuV98d5162cH7XkpLKAowCIyrM22,,,,,,,,,,,,,,,,,,750.0,,,,5c3205407e0559000172f153,15:52:04,26/03/2024
html-keyboard-response,163,354029,0.0-67.0-3.0,,<div style='margin:auto;width: auto; font-size: 150%'><span style='font-weight: bold; font-size: 100px; color: red;'>0 points!</span><br><br></div>,,delaylearn,learning,feedback_image_window,SuV98d5162cH7XkpLKAowCIyrM22,SuV98d5162cH7XkpLKAowCIyrM22,,,,,,,,,,,,,,,,,,,,,,5c3205407e0559000172f153,15:52:04,26/03/2024
html-keyboard-response,164,355705,0.0-68.0,,"<div style=""font-size:100px;"">+</div>",,delaylearn,learning,ITI,SuV98d5162cH7XkpLKAowCIyrM22,SuV98d5162cH7XkpLKAowCIyrM22,,,,,,,,,,,,,,,,,,,1661.0,,,5c3205407e0559000172f153,15:52:04,26/03/2024
html-keyboard-response,165,357788,0.0-69.0-0.0,2080.5,"<div style=""display: flex; flex-direction: column; align-items: center; margin-top: -40px;""><img src=""images/pattern_6.png"" style=""width: 234px; height: 230px; margin-top: -50px;""><div style=""display: flex; justify-content: space-between; margin-top: 33px;""><img src=""images/choice_trial_5.png"" style=""width: 408px; height: 417px; margin-right: 200px;""><img src=""images/choice_trial_11.png"" style=""width: 408px; height: 417px;""></div></div>",j,delaylearn,learning,trial,SuV98d5162cH7XkpLKAowCIyrM22,SuV98d5162cH7XkpLKAowCIyrM22,2.0,images/choice_trial_5.png,images/choice_trial_11.png,images/pattern_6.png,j,j,750.0,5.0,11.0,5.0,1.0,30.0,1.0,1.0,11.0,170.0,,,,,,5c3205407e0559000172f153,15:52:04,26/03/2024
html-keyboard-response,166,358803,0.0-69.0-1.0,,"<div style=""display: flex; flex-direction: column; align-items: center; margin-top: -40px;""><img src=""images/pattern_6.png"" style=""width: 234px; height: 230px; margin-top: -50px;""><div style=""display: flex; justify-content: space-between; margin-top: 33px;""><img src=""images/choice_trial_11.png"" style=""width: 408px; height: 417px; margin-left:608px;""></div></div>",,delaylearn,learning,display_response,SuV98d5162cH7XkpLKAowCIyrM22,SuV98d5162cH7XkpLKAowCIyrM22,,,,,,,,,,,,,,,,,chosen stimuli: images/choice_trial_11.png,,,,,5c3205407e0559000172f153,15:52:04,26/03/2024
html-keyboard-response,167,359560,0.0-69.0-2.0,,,,delaylearn,learning,feedback_duration_window,SuV98d5162cH7XkpLKAowCIyrM22,SuV98d5162cH7XkpLKAowCIyrM22,,,,,,,,,,,,,,,,,,750.0,,,,5c3205407e0559000172f153,15:52:04,26/03/2024
html-keyboard-response,168,361074,0.0-69.0-3.0,,<div style='margin:auto;width: auto; font-size: 150%'><span style='font-weight: bold; font-size: 100px; color: green;'>+10 points!</span><br><br></div>,,delaylearn,learning,feedback_image_window,SuV98d5162cH7XkpLKAowCIyrM22,SuV98d5162cH7XkpLKAowCIyrM22,,,,,,,,,,,,,,,,,,,,,,5c3205407e0559000172f153,15:52:04,26/03/2024
html-keyboard-response,169,361589,0.0-70.0-0.0,,,,,,mood_trial_fixation,SuV98d5162cH7XkpLKAowCIyrM22,,,,,,,,,,,,,,,,,,,,,,,5c3205407e0559000172f153,15:52:04,26/03/2024
lmdlab-html-vas-response,170,366032,0.0-70.0-1.0,3432.0,How happy are you right now?,0.3329151266488081,delaylearn,learning,mood_trial,SuV98d5162cH7XkpLKAowCIyrM22,SuV98d5162cH7XkpLKAowCIyrM22,,,,,,,,,,,,,,,,,,,,"['Very unhappy', 'Very happy']",,5c3205407e0559000172f153,15:52:04,26/03/2024
html-keyboard-response,171,368469,0.0-71.0,,"<div style=""font-size:100px;"">+</div>",,delaylearn,learning,ITI,SuV98d5162cH7XkpLKAowCIyrM22,SuV98d5162cH7XkpLKAowCIyrM22,,,,,,,,,,,,,,,,,,,2429.0,,,5c3205407e0559000172f153,15:52:04,26/03/2024
html-keyboard-response,172,370893,0.0-72.0-0.0,2417.800000011921,"<div style=""display: flex; flex-direction: column; align-items: center; margin-top: -40px;""><img src=""images/pattern_4.png"" style=""width: 234px; height: 230px; margin-top: -50px;""><div style=""display: flex; justify-content: space-between; margin-top: 33px;""><img src=""images/choice_trial_16.png"" style=""width: 408px; height: 417px; margin-right: 200px;""><img src=""images/choice_trial_4.png"" style=""width: 408px; height: 417px;""></div></div>",j,delaylearn,learning,trial,SuV98d5162cH7XkpLKAowCIyrM22,SuV98d5162cH7XkpLKAowCIyrM22,2.0,images/choice_trial_16.png,images/choice_trial_4.png,images/pattern_4.png,j,j,7000.0,16.0,4.0,3.0,1.0,31.0,1.0,1.0,4.0,180.0,,,,,,5c3205407e0559000172f153,15:52:04,26/03/2024
html-keyboard-response,173,371901,0.0-72.0-1.0,,"<div style=""display: flex; flex-direction: column; align-items: center; margin-top: -40px;""><img src=""images/pattern_4.png"" style=""width: 234px; height: 230px; margin-top: -50px;""><div style=""display: flex; justify-content: space-between; margin-top: 33px;""><img src=""images/choice_trial_4.png"" style=""width: 408px; height: 417px; margin-left:608px;""></div></div>",,delaylearn,learning,display_response,SuV98d5162cH7XkpLKAowCIyrM22,SuV98d5162cH7XkpLKAowCIyrM22,,,,,,,,,,,,,,,,,chosen stimuli: images/choice_trial_4.png,,,,,5c3205407e0559000172f153,15:52:04,26/03/2024
html-keyboard-response,174,378916,0.0-72.0-2.0,,,,delaylearn,learning,feedback_duration_window,SuV98d5162cH7XkpLKAowCIyrM22,SuV98d5162cH7XkpLKAowCIyrM22,,,,,,,,,,,,,,,,,,7000.0,,,,5c3205407e0559000172f153,15:52:04,26/03/2024
html-keyboard-response,175,380429,0.0-72.0-3.0,,<div style='margin:auto;width: auto; font-size: 150%'><span style='font-weight: bold; font-size: 100px; color: green;'>+10 points!</span><br><br></div>,,delaylearn,learning,feedback_image_window,SuV98d5162cH7XkpLKAowCIyrM22,SuV98d5162cH7XkpLKAowCIyrM22,,,,,,,,,,,,,,,,,,,,,,5c3205407e0559000172f153,15:52:04,26/03/2024
html-keyboard-response,176,382230,0.0-73.0,,"<div style=""font-size:100px;"">+</div>",,delaylearn,learning,ITI,SuV98d5162cH7XkpLKAowCIyrM22,SuV98d5162cH7XkpLKAowCIyrM22,,,,,,,,,,,,,,,,,,,1795.0,,,5c3205407e0559000172f153,15:52:04,26/03/2024
html-keyboard-response,177,383880,0.0-74.0-0.0,1644.800000011921,"<div style=""display: flex; flex-direction: column; align-items: center; margin-top: -40px;""><img src=""images/pattern_3.png"" style=""width: 234px; height: 230px; margin-top: -50px;""><div style=""display: flex; justify-content: space-between; margin-top: 33px;""><img src=""images/choice_trial_14.png"" style=""width: 408px; height: 417px; margin-right: 200px;""><img src=""images/choice_trial_12.png"" style=""width: 408px; height: 417px;""></div></div>",j,delaylearn,learning,trial,SuV98d5162cH7XkpLKAowCIyrM22,SuV98d5162cH7XkpLKAowCIyrM22,2.0,images/choice_trial_14.png,images/choice_trial_12.png,images/pattern_3.png,j,j,7000.0,14.0,12.0,2.0,1.0,32.0,1.0,1.0,12.0,190.0,,,,,,5c3205407e0559000172f153,15:52:04,26/03/2024
html-keyboard-response,178,384888,0.0-74.0-1.0,,"<div style=""display: flex; flex-direction: column; align-items: center; margin-top: -40px;""><img src=""images/pattern_3.png"" style=""width: 234px; height: 230px; margin-top: -50px;""><div style=""display: flex; justify-content: space-between; margin-top: 33px;""><img src=""images/choice_trial_12.png"" style=""width: 408px; height: 417px; margin-left:608px;""></div></div>",,delaylearn,learning,display_response,SuV98d5162cH7XkpLKAowCIyrM22,SuV98d5162cH7XkpLKAowCIyrM22,,,,,,,,,,,,,,,,,chosen stimuli: images/choice_trial_12.png,,,,,5c3205407e0559000172f153,15:52:04,26/03/2024
html-keyboard-response,179,391895,0.0-74.0-2.0,,,,delaylearn,learning,feedback_duration_window,SuV98d5162cH7XkpLKAowCIyrM22,SuV98d5162cH7XkpLKAowCIyrM22,,,,,,,,,,,,,,,,,,7000.0,,,,5c3205407e0559000172f153,15:52:04,26/03/2024
html-keyboard-response,180,393407,0.0-74.0-3.0,,<div style='margin:auto;width: auto; font-size: 150%'><span style='font-weight: bold; font-size: 100px; color: green;'>+10 points!</span><br><br></div>,,delaylearn,learning,feedback_image_window,SuV98d5162cH7XkpLKAowCIyrM22,SuV98d5162cH7XkpLKAowCIyrM22,,,,,,,,,,,,,,,,,,,,,,5c3205407e0559000172f153,15:52:04,26/03/2024
html-keyboard-response,181,395636,0.0-75.0,,"<div style=""font-size:100px;"">+</div>",,delaylearn,learning,ITI,SuV98d5162cH7XkpLKAowCIyrM22,SuV98d5162cH7XkpLKAowCIyrM22,,,,,,,,,,,,,,,,,,,2213.0,,,5c3205407e0559000172f153,15:52:04,26/03/2024
html-keyboard-response,182,397040,0.0-76.0-0.0,1398.5,"<div style=""display: flex; flex-direction: column; align-items: center; margin-top: -40px;""><img src=""images/pattern_5.png"" style=""width: 234px; height: 230px; margin-top: -50px;""><div style=""display: flex; justify-content: space-between; margin-top: 33px;""><img src=""images/choice_trial_2.png"" style=""width: 408px; height: 417px; margin-right: 200px;""><img src=""images/choice_trial_9.png"" style=""width: 408px; height: 417px;""></div></div>",j,delaylearn,learning,trial,SuV98d5162cH7XkpLKAowCIyrM22,SuV98d5162cH7XkpLKAowCIyrM22,2.0,images/choice_trial_2.png,images/choice_trial_9.png,images/pattern_5.png,j,f,750.0,2.0,9.0,4.0,0.0,33.0,0.0,1.0,9.0,200.0,,,,,,5c3205407e0559000172f153,15:52:04,26/03/2024
html-keyboard-response,183,398050,0.0-76.0-1.0,,"<div style=""display: flex; flex-direction: column; align-items: center; margin-top: -40px;""><img src=""images/pattern_5.png"" style=""width: 234px; height: 230px; margin-top: -50px;""><div style=""display: flex; justify-content: space-between; margin-top: 33px;""><img src=""images/choice_trial_9.png"" style=""width: 408px; height: 417px; margin-left:608px;""></div></div>",,delaylearn,learning,display_response,SuV98d5162cH7XkpLKAowCIyrM22,SuV98d5162cH7XkpLKAowCIyrM22,,,,,,,,,,,,,,,,,chosen stimuli: images/choice_trial_9.png,,,,,5c3205407e0559000172f153,15:52:04,26/03/2024
html-keyboard-response,184,398818,0.0-76.0-2.0,,,,delaylearn,learning,feedback_duration_window,SuV98d5162cH7XkpLKAowCIyrM22,SuV98d5162cH7XkpLKAowCIyrM22,,,,,,,,,,,,,,,,,,750.0,,,,5c3205407e0559000172f153,15:52:04,26/03/2024
html-keyboard-response,185,400321,0.0-76.0-3.0,,<div style='margin:auto;width: auto; font-size: 150%'><span style='font-weight: bold; font-size: 100px; color: green;'>+10 points!</span><br><br></div>,,delaylearn,learning,feedback_image_window,SuV98d5162cH7XkpLKAowCIyrM22,SuV98d5162cH7XkpLKAowCIyrM22,,,,,,,,,,,,,,,,,,,,,,5c3205407e0559000172f153,15:52:04,26/03/2024
html-keyboard-response,186,402728,0.0-77.0,,"<div style=""font-size:100px;"">+</div>",,delaylearn,learning,ITI,SuV98d5162cH7XkpLKAowCIyrM22,SuV98d5162cH7XkpLKAowCIyrM22,,,,,,,,,,,,,,,,,,,2403.0,,,5c3205407e0559000172f153,15:52:04,26/03/2024
html-keyboard-response,187,404575,0.0-78.0-0.0,1844.0,"<div style=""display: flex; flex-direction: column; align-items: center; margin-top: -40px;""><img src=""images/pattern_1.png"" style=""width: 234px; height: 230px; margin-top: -50px;""><div style=""display: flex; justify-content: space-between; margin-top: 33px;""><img src=""images/choice_trial_3.png"" style=""width: 408px; height: 417px; margin-right: 200px;""><img src=""images/choice_trial_10.png"" style=""width: 408px; height: 417px;""></div></div>",j,delaylearn,learning,trial,SuV98d5162cH7XkpLKAowCIyrM22,SuV98d5162cH7XkpLKAowCIyrM22,2.0,images/choice_trial_3.png,images/choice_trial_10.png,images/pattern_1.png,f,f,7000.0,3.0,10.0,1.0,0.0,34.0,0.0,0.0,10.0,200.0,,,,,,5c3205407e0559000172f153,15:52:04,26/03/2024
html-keyboard-response,188,405586,0.0-78.0-1.0,,"<div style=""display: flex; flex-direction: column; align-items: center; margin-top: -40px;""><img src=""images/pattern_1.png"" style=""width: 234px; height: 230px; margin-top: -50px;""><div style=""display: flex; justify-content: space-between; margin-top: 33px;""><img src=""images/choice_trial_10.png"" style=""width: 408px; height: 417px; margin-left:608px;""></div></div>",,delaylearn,learning,display_response,SuV98d5162cH7XkpLKAowCIyrM22,SuV98d5162cH7XkpLKAowCIyrM22,,,,,,,,,,,,,,,,,chosen stimuli: images/choice_trial_10.png,,,,,5c3205407e0559000172f153,15:52:04,26/03/2024
html-keyboard-response,189,412600,0.0-78.0-2.0,,,,delaylearn,learning,feedback_duration_window,SuV98d5162cH7XkpLKAowCIyrM22,SuV98d5162cH7XkpLKAowCIyrM22,,,,,,,,,,,,,,,,,,7000.0,,,,5c3205407e0559000172f153,15:52:04,26/03/2024
html-keyboard-response,190,414107,0.0-78.0-3.0,,<div style='margin:auto;width: auto; font-size: 150%'><span style='font-weight: bold; font-size: 100px; color: red;'>0 points!</span><br><br></div>,,delaylearn,learning,feedback_image_window,SuV98d5162cH7XkpLKAowCIyrM22,SuV98d5162cH7XkpLKAowCIyrM22,,,,,,,,,,,,,,,,,,,,,,5c3205407e0559000172f153,15:52:04,26/03/2024
html-keyboard-response,191,414610,0.0-79.0-0.0,,,,,,mood_trial_fixation,SuV98d5162cH7XkpLKAowCIyrM22,,,,,,,,,,,,,,,,,,,,,,,5c3205407e0559000172f153,15:52:04,26/03/2024
lmdlab-html-vas-response,192,419013,0.0-79.0-1.0,3375.0,How happy are you right now?,0.3481062018921027,delaylearn,learning,mood_trial,SuV98d5162cH7XkpLKAowCIyrM22,SuV98d5162cH7XkpLKAowCIyrM22,,,,,,,,,,,,,,,,,,,,"['Very unhappy', 'Very happy']",,5c3205407e0559000172f153,15:52:04,26/03/2024
html-keyboard-response,193,420532,0.0-80.0,,"<div style=""font-size:100px;"">+</div>",,delaylearn,learning,ITI,SuV98d5162cH7XkpLKAowCIyrM22,SuV98d5162cH7XkpLKAowCIyrM22,,,,,,,,,,,,,,,,,,,1506.0,,,5c3205407e0559000172f153,15:52:04,26/03/2024
html-keyboard-response,194,422265,0.0-81.0-0.0,1728.199999988079,"<div style=""display: flex; flex-direction: column; align-items: center; margin-top: -40px;""><img src=""images/pattern_6.png"" style=""width: 234px; height: 230px; margin-top: -50px;""><div style=""display: flex; justify-content: space-between; margin-top: 33px;""><img src=""images/choice_trial_11.png"" style=""width: 408px; height: 417px; margin-right: 200px;""><img src=""images/choice_trial_5.png"" style=""width: 408px; height: 417px;""></div></div>",j,delaylearn,learning,trial,SuV98d5162cH7XkpLKAowCIyrM22,SuV98d5162cH7XkpLKAowCIyrM22,2.0,images/choice_trial_11.png,images/choice_trial_5.png,images/pattern_6.png,j,f,750.0,11.0,5.0,5.0,0.0,35.0,0.0,1.0,5.0,210.0,,,,,,5c3205407e0559000172f153,15:52:04,26/03/2024
html-keyboard-response,195,423276,0.0-81.0-1.0,,"<div style=""display: flex; flex-direction: column; align-items: center; margin-top: -40px;""><img src=""images/pattern_6.png"" style=""width: 234px; height: 230px; margin-top: -50px;""><div style=""display: flex; justify-content: space-between; margin-top: 33px;""><img src=""images/choice_trial_5.png"" style=""width: 408px; height: 417px; margin-left:608px;""></div></div>",,delaylearn,learning,display_response,SuV98d5162cH7XkpLKAowCIyrM22,SuV98d5162cH7XkpLKAowCIyrM22,,,,,,,,,,,,,,,,,chosen stimuli: images/choice_trial_5.png,,,,,5c3205407e0559000172f153,15:52:04,26/03/2024
html-keyboard-response,196,424033,0.0-81.0-2.0,,,,delaylearn,learning,feedback_duration_window,SuV98d5162cH7XkpLKAowCIyrM22,SuV98d5162cH7XkpLKAowCIyrM22,,,,,,,,,,,,,,,,,,750.0,,,,5c3205407e0559000172f153,15:52:04,26/03/2024
html-keyboard-response,197,425538,0.0-81.0-3.0,,<div style='margin:auto;width: auto; font-size: 150%'><span style='font-weight: bold; font-size: 100px; color: green;'>+10 points!</span><br><br></div>,,delaylearn,learning,feedback_image_window,SuV98d5162cH7XkpLKAowCIyrM22,SuV98d5162cH7XkpLKAowCIyrM22,,,,,,,,,,,,,,,,,,,,,,5c3205407e0559000172f153,15:52:04,26/03/2024
html-keyboard-response,198,427666,0.0-82.0,,"<div style=""font-size:100px;"">+</div>",,delaylearn,learning,ITI,SuV98d5162cH7XkpLKAowCIyrM22,SuV98d5162cH7XkpLKAowCIyrM22,,,,,,,,,,,,,,,,,,,2126.0,,,5c3205407e0559000172f153,15:52:04,26/03/2024
html-keyboard-response,199,429448,0.0-83.0-0.0,1777.0,"<div style=""display: flex; flex-direction: column; align-items: center; margin-top: -40px;""><img src=""images/pattern_3.png"" style=""width: 234px; height: 230px; margin-top: -50px;""><div style=""display: flex; justify-content: space-between; margin-top: 33px;""><img src=""images/choice_trial_14.png"" style=""width: 408px; height: 417px; margin-right: 200px;""><img src=""images/choice_trial_12.png"" style=""width: 408px; height: 417px;""></div></div>",j,delaylearn,learning,trial,SuV98d5162cH7XkpLKAowCIyrM22,SuV98d5162cH7XkpLKAowCIyrM22,2.0,images/choice_trial_14.png,images/choice_trial_12.png,images/pattern_3.png,j,j,7000.0,14.0,12.0,2.0,1.0,36.0,1.0,1.0,12.0,220.0,,,,,,5c3205407e0559000172f153,15:52:04,26/03/2024
html-keyboard-response,200,430466,0.0-83.0-1.0,,"<div style=""display: flex; flex-direction: column; align-items: center; margin-top: -40px;""><img src=""images/pattern_3.png"" style=""width: 234px; height: 230px; margin-top: -50px;""><div style=""display: flex; justify-content: space-between; margin-top: 33px;""><img src=""images/choice_trial_12.png"" style=""width: 408px; height: 417px; margin-left:608px;""></div></div>",,delaylearn,learning,display_response,SuV98d5162cH7XkpLKAowCIyrM22,SuV98d5162cH7XkpLKAowCIyrM22,,,,,,,,,,,,,,,,,chosen stimuli: images/choice_trial_12.png,,,,,5c3205407e0559000172f153,15:52:04,26/03/2024
html-keyboard-response,201,437481,0.0-83.0-2.0,,,,delaylearn,learning,feedback_duration_window,SuV98d5162cH7XkpLKAowCIyrM22,SuV98d5162cH7XkpLKAowCIyrM22,,,,,,,,,,,,,,,,,,7000.0,,,,5c3205407e0559000172f153,15:52:04,26/03/2024
html-keyboard-response,202,438985,0.0-83.0-3.0,,<div style='margin:auto;width: auto; font-size: 150%'><span style='font-weight: bold; font-size: 100px; color: green;'>+10 points!</span><br><br></div>,,delaylearn,learning,feedback_image_window,SuV98d5162cH7XkpLKAowCIyrM22,SuV98d5162cH7XkpLKAowCIyrM22,,,,,,,,,,,,,,,,,,,,,,5c3205407e0559000172f153,15:52:04,26/03/2024
html-keyboard-response,203,441269,0.0-84.0,,"<div style=""font-size:100px;"">+</div>",,delaylearn,learning,ITI,SuV98d5162cH7XkpLKAowCIyrM22,SuV98d5162cH7XkpLKAowCIyrM22,,,,,,,,,,,,,,,,,,,2281.0,,,5c3205407e0559000172f153,15:52:04,26/03/2024
html-keyboard-response,204,442809,0.0-85.0-0.0,1534.5999999940395,"<div style=""display: flex; flex-direction: column; align-items: center; margin-top: -40px;""><img src=""images/pattern_4.png"" style=""width: 234px; height: 230px; margin-top: -50px;""><div style=""display: flex; justify-content: space-between; margin-top: 33px;""><img src=""images/choice_trial_16.png"" style=""width: 408px; height: 417px; margin-right: 200px;""><img src=""images/choice_trial_4.png"" style=""width: 408px; height: 417px;""></div></div>",j,delaylearn,learning,trial,SuV98d5162cH7XkpLKAowCIyrM22,SuV98d5162cH7XkpLKAowCIyrM22,2.0,images/choice_trial_16.png,images/choice_trial_4.png,images/pattern_4.png,f,j,7000.0,16.0,4.0,3.0,1.0,37.0,1.0,0.0,4.0,220.0,,,,,,5c3205407e0559000172f153,15:52:04,26/03/2024
html-keyboard-response,205,443818,0.0-85.0-1.0,,"<div style=""display: flex; flex-direction: column; align-items: center; margin-top: -40px;""><img src=""images/pattern_4.png"" style=""width: 234px; height: 230px; margin-top: -50px;""><div style=""display: flex; justify-content: space-between; margin-top: 33px;""><img src=""images/choice_trial_4.png"" style=""width: 408px; height: 417px; margin-left:608px;""></div></div>",,delaylearn,learning,display_response,SuV98d5162cH7XkpLKAowCIyrM22,SuV98d5162cH7XkpLKAowCIyrM22,,,,,,,,,,,,,,,,,chosen stimuli: images/choice_trial_4.png,,,,,5c3205407e0559000172f153,15:52:04,26/03/2024
html-keyboard-response,206,450822,0.0-85.0-2.0,,,,delaylearn,learning,feedback_duration_window,SuV98d5162cH7XkpLKAowCIyrM22,SuV98d5162cH7XkpLKAowCIyrM22,,,,,,,,,,,,,,,,,,7000.0,,,,5c3205407e0559000172f153,15:52:04,26/03/2024
html-keyboard-response,207,452329,0.0-85.0-3.0,,<div style='margin:auto;width: auto; font-size: 150%'><span style='font-weight: bold; font-size: 100px; color: red;'>0 points!</span><br><br></div>,,delaylearn,learning,feedback_image_window,SuV98d5162cH7XkpLKAowCIyrM22,SuV98d5162cH7XkpLKAowCIyrM22,,,,,,,,,,,,,,,,,,,,,,5c3205407e0559000172f153,15:52:04,26/03/2024
html-keyboard-response,208,454540,0.0-86.0,,"<div style=""font-size:100px;"">+</div>",,delaylearn,learning,ITI,SuV98d5162cH7XkpLKAowCIyrM22,SuV98d5162cH7XkpLKAowCIyrM22,,,,,,,,,,,,,,,,,,,2199.0,,,5c3205407e0559000172f153,15:52:04,26/03/2024
html-keyboard-response,209,455864,0.0-87.0-0.0,1318.7999999821186,"<div style=""display: flex; flex-direction: column; align-items: center; margin-top: -40px;""><img src=""images/pattern_7.png"" style=""width: 234px; height: 230px; margin-top: -50px;""><div style=""display: flex; justify-content: space-between; margin-top: 33px;""><img src=""images/choice_trial_8.png"" style=""width: 408px; height: 417px; margin-right: 200px;""><img src=""images/choice_trial_15.png"" style=""width: 408px; height: 417px;""></div></div>",f,delaylearn,learning,trial,SuV98d5162cH7XkpLKAowCIyrM22,SuV98d5162cH7XkpLKAowCIyrM22,2.0,images/choice_trial_8.png,images/choice_trial_15.png,images/pattern_7.png,f,f,750.0,8.0,15.0,6.0,0.0,38.0,1.0,1.0,8.0,230.0,,,,,,5c3205407e0559000172f153,15:52:04,26/03/2024
html-keyboard-response,210,456878,0.0-87.0-1.0,,"<div style=""display: flex; flex-direction: column; align-items: center; margin-top: -40px;""><img src=""images/pattern_7.png"" style=""width: 234px; height: 230px; margin-top: -50px;""><div style=""display: flex; justify-content: space-between; margin-top: 33px;""><img src=""images/choice_trial_8.png"" style=""width: 408px; height: 417px; margin-right: 608px;""></div></div>",,delaylearn,learning,display_response,SuV98d5162cH7XkpLKAowCIyrM22,SuV98d5162cH7XkpLKAowCIyrM22,,,,,,,,,,,,,,,,,chosen stimuli: images/choice_trial_8.png,,,,,5c3205407e0559000172f153,15:52:04,26/03/2024
html-keyboard-response,211,457646,0.0-87.0-2.0,,,,delaylearn,learning,feedback_duration_window,SuV98d5162cH7XkpLKAowCIyrM22,SuV98d5162cH7XkpLKAowCIyrM22,,,,,,,,,,,,,,,,,,750.0,,,,5c3205407e0559000172f153,15:52:04,26/03/2024
html-keyboard-response,212,459149,0.0-87.0-3.0,,<div style='margin:auto;width: auto; font-size: 150%'><span style='font-weight: bold; font-size: 100px; color: green;'>+10 points!</span><br><br></div>,,delaylearn,learning,feedback_image_window,SuV98d5162cH7XkpLKAowCIyrM22,SuV98d5162cH7XkpLKAowCIyrM22,,,,,,,,,,,,,,,,,,,,,,5c3205407e0559000172f153,15:52:04,26/03/2024
html-keyboard-response,213,460939,0.0-88.0,,"<div style=""font-size:100px;"">+</div>",,delaylearn,learning,ITI,SuV98d5162cH7XkpLKAowCIyrM22,SuV98d5162cH7XkpLKAowCIyrM22,,,,,,,,,,,,,,,,,,,1781.0,,,5c3205407e0559000172f153,15:52:04,26/03/2024
html-keyboard-response,214,462562,0.0-89.0-0.0,1617.4000000059605,"<div style=""display: flex; flex-direction: column; align-items: center; margin-top: -40px;""><img src=""images/pattern_1.png"" style=""width: 234px; height: 230px; margin-top: -50px;""><div style=""display: flex; justify-content: space-between; margin-top: 33px;""><img src=""images/choice_trial_3.png"" style=""width: 408px; height: 417px; margin-right: 200px;""><img src=""images/choice_trial_10.png"" style=""width: 408px; height: 417px;""></div></div>",f,delaylearn,learning,trial,SuV98d5162cH7XkpLKAowCIyrM22,SuV98d5162cH7XkpLKAowCIyrM22,2.0,images/choice_trial_3.png,images/choice_trial_10.png,images/pattern_1.png,f,f,7000.0,3.0,10.0,1.0,0.0,39.0,1.0,1.0,3.0,240.0,,,,,,5c3205407e0559000172f153,15:52:04,26/03/2024
html-keyboard-response,215,463581,0.0-89.0-1.0,,"<div style=""display: flex; flex-direction: column; align-items: center; margin-top: -40px;""><img src=""images/pattern_1.png"" style=""width: 234px; height: 230px; margin-top: -50px;""><div style=""display: flex; justify-content: space-between; margin-top: 33px;""><img src=""images/choice_trial_3.png"" style=""width: 408px; height: 417px; margin-right: 608px;""></div></div>",,delaylearn,learning,display_response,SuV98d5162cH7XkpLKAowCIyrM22,SuV98d5162cH7XkpLKAowCIyrM22,,,,,,,,,,,,,,,,,chosen stimuli: images/choice_trial_3.png,,,,,5c3205407e0559000172f153,15:52:04,26/03/2024
html-keyboard-response,216,470596,0.0-89.0-2.0,,,,delaylearn,learning,feedback_duration_window,SuV98d5162cH7XkpLKAowCIyrM22,SuV98d5162cH7XkpLKAowCIyrM22,,,,,,,,,,,,,,,,,,7000.0,,,,5c3205407e0559000172f153,15:52:04,26/03/2024
html-keyboard-response,217,472105,0.0-89.0-3.0,,<div style='margin:auto;width: auto; font-size: 150%'><span style='font-weight: bold; font-size: 100px; color: green;'>+10 points!</span><br><br></div>,,delaylearn,learning,feedback_image_window,SuV98d5162cH7XkpLKAowCIyrM22,SuV98d5162cH7XkpLKAowCIyrM22,,,,,,,,,,,,,,,,,,,,,,5c3205407e0559000172f153,15:52:04,26/03/2024
html-keyboard-response,218,472621,0.0-90.0-0.0,,,,,,mood_trial_fixation,SuV98d5162cH7XkpLKAowCIyrM22,,,,,,,,,,,,,,,,,,,,,,,5c3205407e0559000172f153,15:52:04,26/03/2024
lmdlab-html-vas-response,219,476764,0.0-90.0-1.0,3130.0,How happy are you right now?,0.42189142450239053,delaylearn,learning,mood_trial,SuV98d5162cH7XkpLKAowCIyrM22,SuV98d5162cH7XkpLKAowCIyrM22,,,,,,,,,,,,,,,,,,,,"['Very unhappy', 'Very happy']",,5c3205407e0559000172f153,15:52:04,26/03/2024
html-keyboard-response,220,479176,0.0-91.0,,"<div style=""font-size:100px;"">+</div>",,delaylearn,learning,ITI,SuV98d5162cH7XkpLKAowCIyrM22,SuV98d5162cH7XkpLKAowCIyrM22,,,,,,,,,,,,,,,,,,,2406.0,,,5c3205407e0559000172f153,15:52:04,26/03/2024
html-keyboard-response,221,480624,0.0-92.0-0.0,1441.199999988079,"<div style=""display: flex; flex-direction: column; align-items: center; margin-top: -40px;""><img src=""images/pattern_3.png"" style=""width: 234px; height: 230px; margin-top: -50px;""><div style=""display: flex; justify-content: space-between; margin-top: 33px;""><img src=""images/choice_trial_12.png"" style=""width: 408px; height: 417px; margin-right: 200px;""><img src=""images/choice_trial_14.png"" style=""width: 408px; height: 417px;""></div></div>",f,delaylearn,learning,trial,SuV98d5162cH7XkpLKAowCIyrM22,SuV98d5162cH7XkpLKAowCIyrM22,2.0,images/choice_trial_12.png,images/choice_trial_14.png,images/pattern_3.png,j,f,7000.0,12.0,14.0,2.0,0.0,40.0,1.0,0.0,12.0,240.0,,,,,,5c3205407e0559000172f153,15:52:04,26/03/2024
html-keyboard-response,222,481642,0.0-92.0-1.0,,"<div style=""display: flex; flex-direction: column; align-items: center; margin-top: -40px;""><img src=""images/pattern_3.png"" style=""width: 234px; height: 230px; margin-top: -50px;""><div style=""display: flex; justify-content: space-between; margin-top: 33px;""><img src=""images/choice_trial_12.png"" style=""width: 408px; height: 417px; margin-right: 608px;""></div></div>",,delaylearn,learning,display_response,SuV98d5162cH7XkpLKAowCIyrM22,SuV98d5162cH7XkpLKAowCIyrM22,,,,,,,,,,,,,,,,,chosen stimuli: images/choice_trial_12.png,,,,,5c3205407e0559000172f153,15:52:04,26/03/2024
html-keyboard-response,223,488658,0.0-92.0-2.0,,,,delaylearn,learning,feedback_duration_window,SuV98d5162cH7XkpLKAowCIyrM22,SuV98d5162cH7XkpLKAowCIyrM22,,,,,,,,,,,,,,,,,,7000.0,,,,5c3205407e0559000172f153,15:52:04,26/03/2024
html-keyboard-response,224,490175,0.0-92.0-3.0,,<div style='margin:auto;width: auto; font-size: 150%'><span style='font-weight: bold; font-size: 100px; color: red;'>0 points!</span><br><br></div>,,delaylearn,learning,feedback_image_window,SuV98d5162cH7XkpLKAowCIyrM22,SuV98d5162cH7XkpLKAowCIyrM22,,,,,,,,,,,,,,,,,,,,,,5c3205407e0559000172f153,15:52:04,26/03/2024
html-keyboard-response,225,491830,0.0-93.0,,"<div style=""font-size:100px;"">+</div>",,delaylearn,learning,ITI,SuV98d5162cH7XkpLKAowCIyrM22,SuV98d5162cH7XkpLKAowCIyrM22,,,,,,,,,,,,,,,,,,,1644.0,,,5c3205407e0559000172f153,15:52:04,26/03/2024
html-keyboard-response,226,492969,0.0-94.0-0.0,1133.0,"<div style=""display: flex; flex-direction: column; align-items: center; margin-top: -40px;""><img src=""images/pattern_7.png"" style=""width: 234px; height: 230px; margin-top: -50px;""><div style=""display: flex; justify-content: space-between; margin-top: 33px;""><img src=""images/choice_trial_15.png"" style=""width: 408px; height: 417px; margin-right: 200px;""><img src=""images/choice_trial_8.png"" style=""width: 408px; height: 417px;""></div></div>",j,delaylearn,learning,trial,SuV98d5162cH7XkpLKAowCIyrM22,SuV98d5162cH7XkpLKAowCIyrM22,2.0,images/choice_trial_15.png,images/choice_trial_8.png,images/pattern_7.png,j,j,750.0,15.0,8.0,6.0,1.0,41.0,1.0,1.0,8.0,250.0,,,,,,5c3205407e0559000172f153,15:52:04,26/03/2024
html-keyboard-response,227,493973,0.0-94.0-1.0,,"<div style=""display: flex; flex-direction: column; align-items: center; margin-top: -40px;""><img src=""images/pattern_7.png"" style=""width: 234px; height: 230px; margin-top: -50px;""><div style=""display: flex; justify-content: space-between; margin-top: 33px;""><img src=""images/choice_trial_8.png"" style=""width: 408px; height: 417px; margin-left:608px;""></div></div>",,delaylearn,learning,display_response,SuV98d5162cH7XkpLKAowCIyrM22,SuV98d5162cH7XkpLKAowCIyrM22,,,,,,,,,,,,,,,,,chosen stimuli: images/choice_trial_8.png,,,,,5c3205407e0559000172f153,15:52:04,26/03/2024
html-keyboard-response,228,494740,0.0-94.0-2.0,,,,delaylearn,learning,feedback_duration_window,SuV98d5162cH7XkpLKAowCIyrM22,SuV98d5162cH7XkpLKAowCIyrM22,,,,,,,,,,,,,,,,,,750.0,,,,5c3205407e0559000172f153,15:52:04,26/03/2024
html-keyboard-response,229,496245,0.0-94.0-3.0,,<div style='margin:auto;width: auto; font-size: 150%'><span style='font-weight: bold; font-size: 100px; color: green;'>+10 points!</span><br><br></div>,,delaylearn,learning,feedback_image_window,SuV98d5162cH7XkpLKAowCIyrM22,SuV98d5162cH7XkpLKAowCIyrM22,,,,,,,,,,,,,,,,,,,,,,5c3205407e0559000172f153,15:52:04,26/03/2024
html-keyboard-response,230,498062,0.0-95.0,,"<div style=""font-size:100px;"">+</div>",,delaylearn,learning,ITI,SuV98d5162cH7XkpLKAowCIyrM22,SuV98d5162cH7XkpLKAowCIyrM22,,,,,,,,,,,,,,,,,,,1803.0,,,5c3205407e0559000172f153,15:52:04,26/03/2024
