trial_type,trial_index,time_elapsed,internal_node_id,rt,stimulus,response,exp_name,exp_stage,test_part,subjectID,databaseID,counterbal,choice_stimuli_1,choice_stimuli_2,pattern_stimuli,rewarded_answer,correct_answer,feedback_duration_times,stim_left,stim_right,pair,leftright_counter,trial,response_correct,response_rewarded,chosen_stim,counter,displayed_choice,feedback_durations,ITI_duration,labels,rest_warning,prolificID,start_time,date
pavlovia,0,613,0.0-0.0,,,,,,,rOzc3jkFM9PktkBMNeXaAb7sdns1,,,,,,,,,,,,,,,,,,,,,,,65b7b0e4e6fa7d632205b4b6,14:19:30,26/02/2024
html-keyboard-response,1,3618,0.0-1.0,,"<div style=""font-size:100px;"">+</div>",,delaylearn,learning,pre_fixation,rOzc3jkFM9PktkBMNeXaAb7sdns1,,,,,,,,,,,,,,,,,,,,,,,65b7b0e4e6fa7d632205b4b6,14:19:30,26/02/2024
html-keyboard-response,2,4854,0.0-2.0-0.0,1232.8999999761581,"<div style=""display: flex; flex-direction: column; align-items: center; margin-top: -40px;""><img src=""images/demo_images/pattern_1.png"" style=""width: 234px; height: 230px; margin-top: -50px;""><div style=""display: flex; justify-content: space-between; margin-top: 33px;""><img src=""images/demo_images/choice_trial_2.png"" style=""width: 408px; height: 417px; margin-right: 200px;""><img src=""images/demo_images/choice_trial_1.png"" style=""width: 408px; height: 417px;""></div></div>",f,delaylearn,learning,trial,rOzc3jkFM9PktkBMNeXaAb7sdns1,rOzc3jkFM9PktkBMNeXaAb7sdns1,5.0,images/demo_images/choice_trial_2.png,images/demo_images/choice_trial_1.png,images/demo_images/pattern_1.png,j,j,3000.0,2.0,1.0,20.0,1.0,1.0,0.0,0.0,2.0,0.0,,,,,,65b7b0e4e6fa7d632205b4b6,14:19:30,26/02/2024
html-keyboard-response,3,5861,0.0-2.0-1.0,,"<div style=""display: flex; flex-direction: column; align-items: center; margin-top: -40px;""><img src=""images/demo_images/pattern_1.png"" style=""width: 234px; height: 230px; margin-top: -50px;""><div style=""display: flex; justify-content: space-between; margin-top: 33px;""><img src=""images/demo_images/choice_trial_2.png"" style=""width: 408px; height: 417px; margin-right: 608px;""></div></div>",,delaylearn,learning,display_response,rOzc3jkFM9PktkBMNeXaAb7sdns1,rOzc3jkFM9PktkBMNeXaAb7sdns1,,,,,,,,,,,,,,,,,chosen stimuli: images/demo_images/choice_trial_2.png,,,,,65b7b0e4e6fa7d632205b4b6,14:19:30,26/02/2024
html-keyboard-response,4,8872,0.0-2.0-2.0,,,,delaylearn,learning,feedback_duration_window,rOzc3jkFM9PktkBMNeXaAb7sdns1,rOzc3jkFM9PktkBMNeXaAb7sdns1,,,,,,,,,,,,,,,,,,3000.0,,,,65b7b0e4e6fa7d632205b4b6,14:19:30,26/02/2024
html-keyboard-response,5,10381,0.0-2.0-3.0,,<div style='margin:auto;width: auto; font-size: 150%'><span style='font-weight: bold; font-size: 100px; color: red;'>0 points!</span><br><br></div>,,delaylearn,learning,feedback_image_window,rOzc3jkFM9PktkBMNeXaAb7sdns1,rOzc3jkFM9PktkBMNeXaAb7sdns1,,,,,,,,,,,,,,,,,,,,,,65b7b0e4e6fa7d632205b4b6,14:19:30,26/02/2024
html-keyboard-response,6,12159,0.0-3.0,,"<div style=""font-size:100px;"">+</div>",,delaylearn,learning,ITI,rOzc3jkFM9PktkBMNeXaAb7sdns1,rOzc3jkFM9PktkBMNeXaAb7sdns1,,,,,,,,,,,,,,,,,,,1774.0,,,65b7b0e4e6fa7d632205b4b6,14:19:30,26/02/2024
html-keyboard-response,7,13560,0.0-4.0-0.0,1399.5999999642372,"<div style=""display: flex; flex-direction: column; align-items: center; margin-top: -40px;""><img src=""images/demo_images/pattern_1.png"" style=""width: 234px; height: 230px; margin-top: -50px;""><div style=""display: flex; justify-content: space-between; margin-top: 33px;""><img src=""images/demo_images/choice_trial_2.png"" style=""width: 408px; height: 417px; margin-right: 200px;""><img src=""images/demo_images/choice_trial_1.png"" style=""width: 408px; height: 417px;""></div></div>",j,delaylearn,learning,trial,rOzc3jkFM9PktkBMNeXaAb7sdns1,rOzc3jkFM9PktkBMNeXaAb7sdns1,5.0,images/demo_images/choice_trial_2.png,images/demo_images/choice_trial_1.png,images/demo_images/pattern_1.png,j,j,3000.0,2.0,1.0,20.0,1.0,2.0,1.0,1.0,1.0,10.0,,,,,,65b7b0e4e6fa7d632205b4b6,14:19:30,26/02/2024
html-keyboard-response,8,14566,0.0-4.0-1.0,,"<div style=""display: flex; flex-direction: column; align-items: center; margin-top: -40px;""><img src=""images/demo_images/pattern_1.png"" style=""width: 234px; height: 230px; margin-top: -50px;""><div style=""display: flex; justify-content: space-between; margin-top: 33px;""><img src=""images/demo_images/choice_trial_1.png"" style=""width: 408px; height: 417px; margin-left:608px;""></div></div>",,delaylearn,learning,display_response,rOzc3jkFM9PktkBMNeXaAb7sdns1,rOzc3jkFM9PktkBMNeXaAb7sdns1,,,,,,,,,,,,,,,,,chosen stimuli: images/demo_images/choice_trial_1.png,,,,,65b7b0e4e6fa7d632205b4b6,14:19:30,26/02/2024
html-keyboard-response,9,17569,0.0-4.0-2.0,,,,delaylearn,learning,feedback_duration_window,rOzc3jkFM9PktkBMNeXaAb7sdns1,rOzc3jkFM9PktkBMNeXaAb7sdns1,,,,,,,,,,,,,,,,,,3000.0,,,,65b7b0e4e6fa7d632205b4b6,14:19:30,26/02/2024
html-keyboard-response,10,19076,0.0-4.0-3.0,,<div style='margin:auto;width: auto; font-size: 150%'><span style='font-weight: bold; font-size: 100px; color: green;'>+10 points!</span><br><br></div>,,delaylearn,learning,feedback_image_window,rOzc3jkFM9PktkBMNeXaAb7sdns1,rOzc3jkFM9PktkBMNeXaAb7sdns1,,,,,,,,,,,,,,,,,,,,,,65b7b0e4e6fa7d632205b4b6,14:19:30,26/02/2024
html-keyboard-response,11,20873,0.0-5.0,,"<div style=""font-size:100px;"">+</div>",,delaylearn,learning,ITI,rOzc3jkFM9PktkBMNeXaAb7sdns1,rOzc3jkFM9PktkBMNeXaAb7sdns1,,,,,,,,,,,,,,,,,,,1788.0,,,65b7b0e4e6fa7d632205b4b6,14:19:30,26/02/2024
html-keyboard-response,12,21974,0.0-6.0-0.0,1099.3999999761581,"<div style=""display: flex; flex-direction: column; align-items: center; margin-top: -40px;""><img src=""images/demo_images/pattern_1.png"" style=""width: 234px; height: 230px; margin-top: -50px;""><div style=""display: flex; justify-content: space-between; margin-top: 33px;""><img src=""images/demo_images/choice_trial_1.png"" style=""width: 408px; height: 417px; margin-right: 200px;""><img src=""images/demo_images/choice_trial_2.png"" style=""width: 408px; height: 417px;""></div></div>",f,delaylearn,learning,trial,rOzc3jkFM9PktkBMNeXaAb7sdns1,rOzc3jkFM9PktkBMNeXaAb7sdns1,5.0,images/demo_images/choice_trial_1.png,images/demo_images/choice_trial_2.png,images/demo_images/pattern_1.png,j,f,3000.0,1.0,2.0,20.0,0.0,3.0,1.0,0.0,1.0,10.0,,,,,,65b7b0e4e6fa7d632205b4b6,14:19:30,26/02/2024
html-keyboard-response,13,22978,0.0-6.0-1.0,,"<div style=""display: flex; flex-direction: column; align-items: center; margin-top: -40px;""><img src=""images/demo_images/pattern_1.png"" style=""width: 234px; height: 230px; margin-top: -50px;""><div style=""display: flex; justify-content: space-between; margin-top: 33px;""><img src=""images/demo_images/choice_trial_1.png"" style=""width: 408px; height: 417px; margin-right: 608px;""></div></div>",,delaylearn,learning,display_response,rOzc3jkFM9PktkBMNeXaAb7sdns1,rOzc3jkFM9PktkBMNeXaAb7sdns1,,,,,,,,,,,,,,,,,chosen stimuli: images/demo_images/choice_trial_1.png,,,,,65b7b0e4e6fa7d632205b4b6,14:19:30,26/02/2024
html-keyboard-response,14,25987,0.0-6.0-2.0,,,,delaylearn,learning,feedback_duration_window,rOzc3jkFM9PktkBMNeXaAb7sdns1,rOzc3jkFM9PktkBMNeXaAb7sdns1,,,,,,,,,,,,,,,,,,3000.0,,,,65b7b0e4e6fa7d632205b4b6,14:19:30,26/02/2024
html-keyboard-response,15,27491,0.0-6.0-3.0,,<div style='margin:auto;width: auto; font-size: 150%'><span style='font-weight: bold; font-size: 100px; color: red;'>0 points!</span><br><br></div>,,delaylearn,learning,feedback_image_window,rOzc3jkFM9PktkBMNeXaAb7sdns1,rOzc3jkFM9PktkBMNeXaAb7sdns1,,,,,,,,,,,,,,,,,,,,,,65b7b0e4e6fa7d632205b4b6,14:19:30,26/02/2024
html-keyboard-response,16,29430,0.0-7.0,,"<div style=""font-size:100px;"">+</div>",,delaylearn,learning,ITI,rOzc3jkFM9PktkBMNeXaAb7sdns1,rOzc3jkFM9PktkBMNeXaAb7sdns1,,,,,,,,,,,,,,,,,,,1930.0,,,65b7b0e4e6fa7d632205b4b6,14:19:30,26/02/2024
html-keyboard-response,17,31183,0.0-8.0-0.0,1750.6000000238419,"<div style=""display: flex; flex-direction: column; align-items: center; margin-top: -40px;""><img src=""images/demo_images/pattern_1.png"" style=""width: 234px; height: 230px; margin-top: -50px;""><div style=""display: flex; justify-content: space-between; margin-top: 33px;""><img src=""images/demo_images/choice_trial_1.png"" style=""width: 408px; height: 417px; margin-right: 200px;""><img src=""images/demo_images/choice_trial_2.png"" style=""width: 408px; height: 417px;""></div></div>",f,delaylearn,learning,trial,rOzc3jkFM9PktkBMNeXaAb7sdns1,rOzc3jkFM9PktkBMNeXaAb7sdns1,5.0,images/demo_images/choice_trial_1.png,images/demo_images/choice_trial_2.png,images/demo_images/pattern_1.png,f,f,3000.0,1.0,2.0,20.0,0.0,4.0,1.0,1.0,1.0,20.0,,,,,,65b7b0e4e6fa7d632205b4b6,14:19:30,26/02/2024
html-keyboard-response,18,32195,0.0-8.0-1.0,,"<div style=""display: flex; flex-direction: column; align-items: center; margin-top: -40px;""><img src=""images/demo_images/pattern_1.png"" style=""width: 234px; height: 230px; margin-top: -50px;""><div style=""display: flex; justify-content: space-between; margin-top: 33px;""><img src=""images/demo_images/choice_trial_1.png"" style=""width: 408px; height: 417px; margin-right: 608px;""></div></div>",,delaylearn,learning,display_response,rOzc3jkFM9PktkBMNeXaAb7sdns1,rOzc3jkFM9PktkBMNeXaAb7sdns1,,,,,,,,,,,,,,,,,chosen stimuli: images/demo_images/choice_trial_1.png,,,,,65b7b0e4e6fa7d632205b4b6,14:19:30,26/02/2024
html-keyboard-response,19,35201,0.0-8.0-2.0,,,,delaylearn,learning,feedback_duration_window,rOzc3jkFM9PktkBMNeXaAb7sdns1,rOzc3jkFM9PktkBMNeXaAb7sdns1,,,,,,,,,,,,,,,,,,3000.0,,,,65b7b0e4e6fa7d632205b4b6,14:19:30,26/02/2024
html-keyboard-response,20,36707,0.0-8.0-3.0,,<div style='margin:auto;width: auto; font-size: 150%'><span style='font-weight: bold; font-size: 100px; color: green;'>+10 points!</span><br><br></div>,,delaylearn,learning,feedback_image_window,rOzc3jkFM9PktkBMNeXaAb7sdns1,rOzc3jkFM9PktkBMNeXaAb7sdns1,,,,,,,,,,,,,,,,,,,,,,65b7b0e4e6fa7d632205b4b6,14:19:30,26/02/2024
html-keyboard-response,21,37223,0.0-9.0-0.0,,,,,,mood_trial_fixation,rOzc3jkFM9PktkBMNeXaAb7sdns1,,,,,,,,,,,,,,,,,,,,,,,65b7b0e4e6fa7d632205b4b6,14:19:30,26/02/2024
lmdlab-html-vas-response,22,42175,0.0-9.0-1.0,3928.0,How happy are you right now?,0.5046296296296297,delaylearn,learning,mood_trial,rOzc3jkFM9PktkBMNeXaAb7sdns1,rOzc3jkFM9PktkBMNeXaAb7sdns1,,,,,,,,,,,,,,,,,,,,"['Very unhappy', 'Very happy']",,65b7b0e4e6fa7d632205b4b6,14:19:30,26/02/2024
html-keyboard-response,23,44414,0.0-10.0,,"<div style=""font-size:100px;"">+</div>",,delaylearn,learning,ITI,rOzc3jkFM9PktkBMNeXaAb7sdns1,rOzc3jkFM9PktkBMNeXaAb7sdns1,,,,,,,,,,,,,,,,,,,2233.0,,,65b7b0e4e6fa7d632205b4b6,14:19:30,26/02/2024
html-keyboard-response,24,46757,0.0-11.0-0.0,2339.699999988079,"<div style=""display: flex; flex-direction: column; align-items: center; margin-top: -40px;""><img src=""images/demo_images/pattern_1.png"" style=""width: 234px; height: 230px; margin-top: -50px;""><div style=""display: flex; justify-content: space-between; margin-top: 33px;""><img src=""images/demo_images/choice_trial_2.png"" style=""width: 408px; height: 417px; margin-right: 200px;""><img src=""images/demo_images/choice_trial_1.png"" style=""width: 408px; height: 417px;""></div></div>",j,delaylearn,learning,trial,rOzc3jkFM9PktkBMNeXaAb7sdns1,rOzc3jkFM9PktkBMNeXaAb7sdns1,5.0,images/demo_images/choice_trial_2.png,images/demo_images/choice_trial_1.png,images/demo_images/pattern_1.png,j,j,3000.0,2.0,1.0,20.0,1.0,5.0,1.0,1.0,1.0,30.0,,,,,,65b7b0e4e6fa7d632205b4b6,14:19:30,26/02/2024
html-keyboard-response,25,47774,0.0-11.0-1.0,,"<div style=""display: flex; flex-direction: column; align-items: center; margin-top: -40px;""><img src=""images/demo_images/pattern_1.png"" style=""width: 234px; height: 230px; margin-top: -50px;""><div style=""display: flex; justify-content: space-between; margin-top: 33px;""><img src=""images/demo_images/choice_trial_1.png"" style=""width: 408px; height: 417px; margin-left:608px;""></div></div>",,delaylearn,learning,display_response,rOzc3jkFM9PktkBMNeXaAb7sdns1,rOzc3jkFM9PktkBMNeXaAb7sdns1,,,,,,,,,,,,,,,,,chosen stimuli: images/demo_images/choice_trial_1.png,,,,,65b7b0e4e6fa7d632205b4b6,14:19:30,26/02/2024
html-keyboard-response,26,50787,0.0-11.0-2.0,,,,delaylearn,learning,feedback_duration_window,rOzc3jkFM9PktkBMNeXaAb7sdns1,rOzc3jkFM9PktkBMNeXaAb7sdns1,,,,,,,,,,,,,,,,,,3000.0,,,,65b7b0e4e6fa7d632205b4b6,14:19:30,26/02/2024
html-keyboard-response,27,52290,0.0-11.0-3.0,,<div style='margin:auto;width: auto; font-size: 150%'><span style='font-weight: bold; font-size: 100px; color: green;'>+10 points!</span><br><br></div>,,delaylearn,learning,feedback_image_window,rOzc3jkFM9PktkBMNeXaAb7sdns1,rOzc3jkFM9PktkBMNeXaAb7sdns1,,,,,,,,,,,,,,,,,,,,,,65b7b0e4e6fa7d632205b4b6,14:19:30,26/02/2024
html-keyboard-response,28,54250,0.0-12.0,,"<div style=""font-size:100px;"">+</div>",,delaylearn,learning,ITI,rOzc3jkFM9PktkBMNeXaAb7sdns1,rOzc3jkFM9PktkBMNeXaAb7sdns1,,,,,,,,,,,,,,,,,,,1945.0,,,65b7b0e4e6fa7d632205b4b6,14:19:30,26/02/2024
html-keyboard-response,29,56267,0.0-13.0-0.0,2015.0999999642372,"<div style=""display: flex; flex-direction: column; align-items: center; margin-top: -40px;""><img src=""images/demo_images/pattern_1.png"" style=""width: 234px; height: 230px; margin-top: -50px;""><div style=""display: flex; justify-content: space-between; margin-top: 33px;""><img src=""images/demo_images/choice_trial_1.png"" style=""width: 408px; height: 417px; margin-right: 200px;""><img src=""images/demo_images/choice_trial_2.png"" style=""width: 408px; height: 417px;""></div></div>",j,delaylearn,learning,trial,rOzc3jkFM9PktkBMNeXaAb7sdns1,rOzc3jkFM9PktkBMNeXaAb7sdns1,5.0,images/demo_images/choice_trial_1.png,images/demo_images/choice_trial_2.png,images/demo_images/pattern_1.png,f,f,3000.0,1.0,2.0,20.0,0.0,6.0,0.0,0.0,2.0,30.0,,,,,,65b7b0e4e6fa7d632205b4b6,14:19:30,26/02/2024
html-keyboard-response,30,57275,0.0-13.0-1.0,,"<div style=""display: flex; flex-direction: column; align-items: center; margin-top: -40px;""><img src=""images/demo_images/pattern_1.png"" style=""width: 234px; height: 230px; margin-top: -50px;""><div style=""display: flex; justify-content: space-between; margin-top: 33px;""><img src=""images/demo_images/choice_trial_2.png"" style=""width: 408px; height: 417px; margin-left:608px;""></div></div>",,delaylearn,learning,display_response,rOzc3jkFM9PktkBMNeXaAb7sdns1,rOzc3jkFM9PktkBMNeXaAb7sdns1,,,,,,,,,,,,,,,,,chosen stimuli: images/demo_images/choice_trial_2.png,,,,,65b7b0e4e6fa7d632205b4b6,14:19:30,26/02/2024
html-keyboard-response,31,60284,0.0-13.0-2.0,,,,delaylearn,learning,feedback_duration_window,rOzc3jkFM9PktkBMNeXaAb7sdns1,rOzc3jkFM9PktkBMNeXaAb7sdns1,,,,,,,,,,,,,,,,,,3000.0,,,,65b7b0e4e6fa7d632205b4b6,14:19:30,26/02/2024
html-keyboard-response,32,61788,0.0-13.0-3.0,,<div style='margin:auto;width: auto; font-size: 150%'><span style='font-weight: bold; font-size: 100px; color: red;'>0 points!</span><br><br></div>,,delaylearn,learning,feedback_image_window,rOzc3jkFM9PktkBMNeXaAb7sdns1,rOzc3jkFM9PktkBMNeXaAb7sdns1,,,,,,,,,,,,,,,,,,,,,,65b7b0e4e6fa7d632205b4b6,14:19:30,26/02/2024
html-button-response,33,64377,0.0-14.0,2587.900000035763,"
  <div style=""display: flex; align-items: center; justify-content: center; height: 80vh;"">
  <div>
          <img src=""images/inst_demo_finish.png"" style=""width: 80vw; height:auto;"">
          <br><br>
      </div>
      <br><br>
  </div>",0,,,,rOzc3jkFM9PktkBMNeXaAb7sdns1,,,,,,,,,,,,,,,,,,,,,,,65b7b0e4e6fa7d632205b4b6,14:19:30,26/02/2024
html-keyboard-response,34,68888,0.0-15.0,4509.5,"
  <div style=""display: flex; align-items: center; justify-content: center; height: 80vh;"">
  <div>
          <img src=""images/inst_6.png"" style=""width: 80vw; height:auto;"">
          <br><br>
      </div>
      <br><br>
  </div>",f,,,,rOzc3jkFM9PktkBMNeXaAb7sdns1,,,,,,,,,,,,,,,,,,,,,,,65b7b0e4e6fa7d632205b4b6,14:19:30,26/02/2024
html-keyboard-response,35,71890,0.0-16.0,,"<div style=""font-size:100px;"">+</div>",,delaylearn,learning,pre_fixation,rOzc3jkFM9PktkBMNeXaAb7sdns1,,,,,,,,,,,,,,,,,,,,,,,65b7b0e4e6fa7d632205b4b6,14:19:30,26/02/2024
html-keyboard-response,36,74295,0.0-17.0,,"<div style=""font-size:100px;"">+</div>",,delaylearn,learning,ITI,rOzc3jkFM9PktkBMNeXaAb7sdns1,rOzc3jkFM9PktkBMNeXaAb7sdns1,,,,,,,,,,,,,,,,,,,2390.0,,,65b7b0e4e6fa7d632205b4b6,14:19:30,26/02/2024
html-keyboard-response,37,77300,0.0-18.0-0.0,,"<div style=""display: flex; flex-direction: column; align-items: center; margin-top: -40px;""><img src=""images/pattern_3.png"" style=""width: 234px; height: 230px; margin-top: -50px;""><div style=""display: flex; justify-content: space-between; margin-top: 33px;""><img src=""images/choice_trial_16.png"" style=""width: 408px; height: 417px; margin-right: 200px;""><img src=""images/choice_trial_2.png"" style=""width: 408px; height: 417px;""></div></div>",,delaylearn,learning,trial,rOzc3jkFM9PktkBMNeXaAb7sdns1,rOzc3jkFM9PktkBMNeXaAb7sdns1,5.0,images/choice_trial_16.png,images/choice_trial_2.png,images/pattern_3.png,f,f,7000.0,16.0,2.0,2.0,0.0,7.0,0.0,0.0,0.0,30.0,,,,,,65b7b0e4e6fa7d632205b4b6,14:19:30,26/02/2024
html-keyboard-response,38,78307,0.0-18.0-1.0,,<div style='font-weight: bold; font-size: 75px; color: red;'>Missed Trial <br><br><br><br> Please respond faster</div>,,delaylearn,learning,display_response,rOzc3jkFM9PktkBMNeXaAb7sdns1,rOzc3jkFM9PktkBMNeXaAb7sdns1,,,,,,,,,,,,,,,,,Missed trial,,,,,65b7b0e4e6fa7d632205b4b6,14:19:30,26/02/2024
html-keyboard-response,39,78313,0.0-18.0-2.0,,,,delaylearn,learning,feedback_duration_window,rOzc3jkFM9PktkBMNeXaAb7sdns1,rOzc3jkFM9PktkBMNeXaAb7sdns1,,,,,,,,,,,,,,,,,,0.0,,,,65b7b0e4e6fa7d632205b4b6,14:19:30,26/02/2024
html-keyboard-response,40,78318,0.0-18.0-3.0,,,,delaylearn,learning,feedback_image_window,rOzc3jkFM9PktkBMNeXaAb7sdns1,rOzc3jkFM9PktkBMNeXaAb7sdns1,,,,,,,,,,,,,,,,,,,,,,65b7b0e4e6fa7d632205b4b6,14:19:30,26/02/2024
html-keyboard-response,41,80651,0.0-19.0,,"<div style=""font-size:100px;"">+</div>",,delaylearn,learning,ITI,rOzc3jkFM9PktkBMNeXaAb7sdns1,rOzc3jkFM9PktkBMNeXaAb7sdns1,,,,,,,,,,,,,,,,,,,2318.0,,,65b7b0e4e6fa7d632205b4b6,14:19:30,26/02/2024
html-keyboard-response,42,81415,0.0-20.0-0.0,762.2999999523163,"<div style=""display: flex; flex-direction: column; align-items: center; margin-top: -40px;""><img src=""images/pattern_7.png"" style=""width: 234px; height: 230px; margin-top: -50px;""><div style=""display: flex; justify-content: space-between; margin-top: 33px;""><img src=""images/choice_trial_10.png"" style=""width: 408px; height: 417px; margin-right: 200px;""><img src=""images/choice_trial_8.png"" style=""width: 408px; height: 417px;""></div></div>",f,delaylearn,learning,trial,rOzc3jkFM9PktkBMNeXaAb7sdns1,rOzc3jkFM9PktkBMNeXaAb7sdns1,5.0,images/choice_trial_10.png,images/choice_trial_8.png,images/pattern_7.png,j,j,750.0,10.0,8.0,6.0,1.0,8.0,0.0,0.0,10.0,30.0,,,,,,65b7b0e4e6fa7d632205b4b6,14:19:30,26/02/2024
html-keyboard-response,43,82431,0.0-20.0-1.0,,"<div style=""display: flex; flex-direction: column; align-items: center; margin-top: -40px;""><img src=""images/pattern_7.png"" style=""width: 234px; height: 230px; margin-top: -50px;""><div style=""display: flex; justify-content: space-between; margin-top: 33px;""><img src=""images/choice_trial_10.png"" style=""width: 408px; height: 417px; margin-right: 608px;""></div></div>",,delaylearn,learning,display_response,rOzc3jkFM9PktkBMNeXaAb7sdns1,rOzc3jkFM9PktkBMNeXaAb7sdns1,,,,,,,,,,,,,,,,,chosen stimuli: images/choice_trial_10.png,,,,,65b7b0e4e6fa7d632205b4b6,14:19:30,26/02/2024
html-keyboard-response,44,83193,0.0-20.0-2.0,,,,delaylearn,learning,feedback_duration_window,rOzc3jkFM9PktkBMNeXaAb7sdns1,rOzc3jkFM9PktkBMNeXaAb7sdns1,,,,,,,,,,,,,,,,,,750.0,,,,65b7b0e4e6fa7d632205b4b6,14:19:30,26/02/2024
html-keyboard-response,45,84698,0.0-20.0-3.0,,<div style='margin:auto;width: auto; font-size: 150%'><span style='font-weight: bold; font-size: 100px; color: red;'>0 points!</span><br><br></div>,,delaylearn,learning,feedback_image_window,rOzc3jkFM9PktkBMNeXaAb7sdns1,rOzc3jkFM9PktkBMNeXaAb7sdns1,,,,,,,,,,,,,,,,,,,,,,65b7b0e4e6fa7d632205b4b6,14:19:30,26/02/2024
html-keyboard-response,46,86654,0.0-21.0,,"<div style=""font-size:100px;"">+</div>",,delaylearn,learning,ITI,rOzc3jkFM9PktkBMNeXaAb7sdns1,rOzc3jkFM9PktkBMNeXaAb7sdns1,,,,,,,,,,,,,,,,,,,1951.0,,,65b7b0e4e6fa7d632205b4b6,14:19:30,26/02/2024
html-keyboard-response,47,87018,0.0-22.0-0.0,362.60000002384186,"<div style=""display: flex; flex-direction: column; align-items: center; margin-top: -40px;""><img src=""images/pattern_4.png"" style=""width: 234px; height: 230px; margin-top: -50px;""><div style=""display: flex; justify-content: space-between; margin-top: 33px;""><img src=""images/choice_trial_11.png"" style=""width: 408px; height: 417px; margin-right: 200px;""><img src=""images/choice_trial_4.png"" style=""width: 408px; height: 417px;""></div></div>",j,delaylearn,learning,trial,rOzc3jkFM9PktkBMNeXaAb7sdns1,rOzc3jkFM9PktkBMNeXaAb7sdns1,5.0,images/choice_trial_11.png,images/choice_trial_4.png,images/pattern_4.png,f,f,7000.0,11.0,4.0,3.0,0.0,9.0,0.0,0.0,4.0,30.0,,,,,,65b7b0e4e6fa7d632205b4b6,14:19:30,26/02/2024
html-keyboard-response,48,88019,0.0-22.0-1.0,,"<div style=""display: flex; flex-direction: column; align-items: center; margin-top: -40px;""><img src=""images/pattern_4.png"" style=""width: 234px; height: 230px; margin-top: -50px;""><div style=""display: flex; justify-content: space-between; margin-top: 33px;""><img src=""images/choice_trial_4.png"" style=""width: 408px; height: 417px; margin-left:608px;""></div></div>",,delaylearn,learning,display_response,rOzc3jkFM9PktkBMNeXaAb7sdns1,rOzc3jkFM9PktkBMNeXaAb7sdns1,,,,,,,,,,,,,,,,,chosen stimuli: images/choice_trial_4.png,,,,,65b7b0e4e6fa7d632205b4b6,14:19:30,26/02/2024
html-keyboard-response,49,95036,0.0-22.0-2.0,,,,delaylearn,learning,feedback_duration_window,rOzc3jkFM9PktkBMNeXaAb7sdns1,rOzc3jkFM9PktkBMNeXaAb7sdns1,,,,,,,,,,,,,,,,,,7000.0,,,,65b7b0e4e6fa7d632205b4b6,14:19:30,26/02/2024
html-keyboard-response,50,96544,0.0-22.0-3.0,,<div style='margin:auto;width: auto; font-size: 150%'><span style='font-weight: bold; font-size: 100px; color: red;'>0 points!</span><br><br></div>,,delaylearn,learning,feedback_image_window,rOzc3jkFM9PktkBMNeXaAb7sdns1,rOzc3jkFM9PktkBMNeXaAb7sdns1,,,,,,,,,,,,,,,,,,,,,,65b7b0e4e6fa7d632205b4b6,14:19:30,26/02/2024
html-keyboard-response,51,98093,0.0-23.0,,"<div style=""font-size:100px;"">+</div>",,delaylearn,learning,ITI,rOzc3jkFM9PktkBMNeXaAb7sdns1,rOzc3jkFM9PktkBMNeXaAb7sdns1,,,,,,,,,,,,,,,,,,,1536.0,,,65b7b0e4e6fa7d632205b4b6,14:19:30,26/02/2024
html-keyboard-response,52,99691,0.0-24.0-0.0,1597.1000000238419,"<div style=""display: flex; flex-direction: column; align-items: center; margin-top: -40px;""><img src=""images/pattern_5.png"" style=""width: 234px; height: 230px; margin-top: -50px;""><div style=""display: flex; justify-content: space-between; margin-top: 33px;""><img src=""images/choice_trial_13.png"" style=""width: 408px; height: 417px; margin-right: 200px;""><img src=""images/choice_trial_7.png"" style=""width: 408px; height: 417px;""></div></div>",j,delaylearn,learning,trial,rOzc3jkFM9PktkBMNeXaAb7sdns1,rOzc3jkFM9PktkBMNeXaAb7sdns1,5.0,images/choice_trial_13.png,images/choice_trial_7.png,images/pattern_5.png,j,j,750.0,13.0,7.0,4.0,1.0,10.0,1.0,1.0,7.0,40.0,,,,,,65b7b0e4e6fa7d632205b4b6,14:19:30,26/02/2024
html-keyboard-response,53,100701,0.0-24.0-1.0,,"<div style=""display: flex; flex-direction: column; align-items: center; margin-top: -40px;""><img src=""images/pattern_5.png"" style=""width: 234px; height: 230px; margin-top: -50px;""><div style=""display: flex; justify-content: space-between; margin-top: 33px;""><img src=""images/choice_trial_7.png"" style=""width: 408px; height: 417px; margin-left:608px;""></div></div>",,delaylearn,learning,display_response,rOzc3jkFM9PktkBMNeXaAb7sdns1,rOzc3jkFM9PktkBMNeXaAb7sdns1,,,,,,,,,,,,,,,,,chosen stimuli: images/choice_trial_7.png,,,,,65b7b0e4e6fa7d632205b4b6,14:19:30,26/02/2024
html-keyboard-response,54,101461,0.0-24.0-2.0,,,,delaylearn,learning,feedback_duration_window,rOzc3jkFM9PktkBMNeXaAb7sdns1,rOzc3jkFM9PktkBMNeXaAb7sdns1,,,,,,,,,,,,,,,,,,750.0,,,,65b7b0e4e6fa7d632205b4b6,14:19:30,26/02/2024
html-keyboard-response,55,102964,0.0-24.0-3.0,,<div style='margin:auto;width: auto; font-size: 150%'><span style='font-weight: bold; font-size: 100px; color: green;'>+10 points!</span><br><br></div>,,delaylearn,learning,feedback_image_window,rOzc3jkFM9PktkBMNeXaAb7sdns1,rOzc3jkFM9PktkBMNeXaAb7sdns1,,,,,,,,,,,,,,,,,,,,,,65b7b0e4e6fa7d632205b4b6,14:19:30,26/02/2024
html-keyboard-response,56,104638,0.0-25.0,,"<div style=""font-size:100px;"">+</div>",,delaylearn,learning,ITI,rOzc3jkFM9PktkBMNeXaAb7sdns1,rOzc3jkFM9PktkBMNeXaAb7sdns1,,,,,,,,,,,,,,,,,,,1659.0,,,65b7b0e4e6fa7d632205b4b6,14:19:30,26/02/2024
html-keyboard-response,57,105997,0.0-26.0-0.0,1356.5,"<div style=""display: flex; flex-direction: column; align-items: center; margin-top: -40px;""><img src=""images/pattern_6.png"" style=""width: 234px; height: 230px; margin-top: -50px;""><div style=""display: flex; justify-content: space-between; margin-top: 33px;""><img src=""images/choice_trial_14.png"" style=""width: 408px; height: 417px; margin-right: 200px;""><img src=""images/choice_trial_9.png"" style=""width: 408px; height: 417px;""></div></div>",j,delaylearn,learning,trial,rOzc3jkFM9PktkBMNeXaAb7sdns1,rOzc3jkFM9PktkBMNeXaAb7sdns1,5.0,images/choice_trial_14.png,images/choice_trial_9.png,images/pattern_6.png,j,f,750.0,14.0,9.0,5.0,0.0,11.0,0.0,1.0,9.0,50.0,,,,,,65b7b0e4e6fa7d632205b4b6,14:19:30,26/02/2024
html-keyboard-response,58,107011,0.0-26.0-1.0,,"<div style=""display: flex; flex-direction: column; align-items: center; margin-top: -40px;""><img src=""images/pattern_6.png"" style=""width: 234px; height: 230px; margin-top: -50px;""><div style=""display: flex; justify-content: space-between; margin-top: 33px;""><img src=""images/choice_trial_9.png"" style=""width: 408px; height: 417px; margin-left:608px;""></div></div>",,delaylearn,learning,display_response,rOzc3jkFM9PktkBMNeXaAb7sdns1,rOzc3jkFM9PktkBMNeXaAb7sdns1,,,,,,,,,,,,,,,,,chosen stimuli: images/choice_trial_9.png,,,,,65b7b0e4e6fa7d632205b4b6,14:19:30,26/02/2024
html-keyboard-response,59,107770,0.0-26.0-2.0,,,,delaylearn,learning,feedback_duration_window,rOzc3jkFM9PktkBMNeXaAb7sdns1,rOzc3jkFM9PktkBMNeXaAb7sdns1,,,,,,,,,,,,,,,,,,750.0,,,,65b7b0e4e6fa7d632205b4b6,14:19:30,26/02/2024
html-keyboard-response,60,109282,0.0-26.0-3.0,,<div style='margin:auto;width: auto; font-size: 150%'><span style='font-weight: bold; font-size: 100px; color: green;'>+10 points!</span><br><br></div>,,delaylearn,learning,feedback_image_window,rOzc3jkFM9PktkBMNeXaAb7sdns1,rOzc3jkFM9PktkBMNeXaAb7sdns1,,,,,,,,,,,,,,,,,,,,,,65b7b0e4e6fa7d632205b4b6,14:19:30,26/02/2024
html-keyboard-response,61,109794,0.0-27.0-0.0,,,,,,mood_trial_fixation,rOzc3jkFM9PktkBMNeXaAb7sdns1,,,,,,,,,,,,,,,,,,,,,,,65b7b0e4e6fa7d632205b4b6,14:19:30,26/02/2024
lmdlab-html-vas-response,62,114108,0.0-27.0-1.0,3298.0,How happy are you right now?,0.4976851851851852,delaylearn,learning,mood_trial,rOzc3jkFM9PktkBMNeXaAb7sdns1,rOzc3jkFM9PktkBMNeXaAb7sdns1,,,,,,,,,,,,,,,,,,,,"['Very unhappy', 'Very happy']",,65b7b0e4e6fa7d632205b4b6,14:19:30,26/02/2024
html-keyboard-response,63,116200,0.0-28.0,,"<div style=""font-size:100px;"">+</div>",,delaylearn,learning,ITI,rOzc3jkFM9PktkBMNeXaAb7sdns1,rOzc3jkFM9PktkBMNeXaAb7sdns1,,,,,,,,,,,,,,,,,,,2083.0,,,65b7b0e4e6fa7d632205b4b6,14:19:30,26/02/2024
html-keyboard-response,64,117476,0.0-29.0-0.0,1273.6000000238419,"<div style=""display: flex; flex-direction: column; align-items: center; margin-top: -40px;""><img src=""images/pattern_1.png"" style=""width: 234px; height: 230px; margin-top: -50px;""><div style=""display: flex; justify-content: space-between; margin-top: 33px;""><img src=""images/choice_trial_15.png"" style=""width: 408px; height: 417px; margin-right: 200px;""><img src=""images/choice_trial_6.png"" style=""width: 408px; height: 417px;""></div></div>",f,delaylearn,learning,trial,rOzc3jkFM9PktkBMNeXaAb7sdns1,rOzc3jkFM9PktkBMNeXaAb7sdns1,5.0,images/choice_trial_15.png,images/choice_trial_6.png,images/pattern_1.png,j,j,7000.0,15.0,6.0,1.0,1.0,12.0,0.0,0.0,15.0,50.0,,,,,,65b7b0e4e6fa7d632205b4b6,14:19:30,26/02/2024
html-keyboard-response,65,118478,0.0-29.0-1.0,,"<div style=""display: flex; flex-direction: column; align-items: center; margin-top: -40px;""><img src=""images/pattern_1.png"" style=""width: 234px; height: 230px; margin-top: -50px;""><div style=""display: flex; justify-content: space-between; margin-top: 33px;""><img src=""images/choice_trial_15.png"" style=""width: 408px; height: 417px; margin-right: 608px;""></div></div>",,delaylearn,learning,display_response,rOzc3jkFM9PktkBMNeXaAb7sdns1,rOzc3jkFM9PktkBMNeXaAb7sdns1,,,,,,,,,,,,,,,,,chosen stimuli: images/choice_trial_15.png,,,,,65b7b0e4e6fa7d632205b4b6,14:19:30,26/02/2024
html-keyboard-response,66,125481,0.0-29.0-2.0,,,,delaylearn,learning,feedback_duration_window,rOzc3jkFM9PktkBMNeXaAb7sdns1,rOzc3jkFM9PktkBMNeXaAb7sdns1,,,,,,,,,,,,,,,,,,7000.0,,,,65b7b0e4e6fa7d632205b4b6,14:19:30,26/02/2024
html-keyboard-response,67,126991,0.0-29.0-3.0,,<div style='margin:auto;width: auto; font-size: 150%'><span style='font-weight: bold; font-size: 100px; color: red;'>0 points!</span><br><br></div>,,delaylearn,learning,feedback_image_window,rOzc3jkFM9PktkBMNeXaAb7sdns1,rOzc3jkFM9PktkBMNeXaAb7sdns1,,,,,,,,,,,,,,,,,,,,,,65b7b0e4e6fa7d632205b4b6,14:19:30,26/02/2024
html-keyboard-response,68,128984,0.0-30.0,,"<div style=""font-size:100px;"">+</div>",,delaylearn,learning,ITI,rOzc3jkFM9PktkBMNeXaAb7sdns1,rOzc3jkFM9PktkBMNeXaAb7sdns1,,,,,,,,,,,,,,,,,,,1990.0,,,65b7b0e4e6fa7d632205b4b6,14:19:30,26/02/2024
html-keyboard-response,69,131401,0.0-31.0-0.0,2415.600000023842,"<div style=""display: flex; flex-direction: column; align-items: center; margin-top: -40px;""><img src=""images/pattern_3.png"" style=""width: 234px; height: 230px; margin-top: -50px;""><div style=""display: flex; justify-content: space-between; margin-top: 33px;""><img src=""images/choice_trial_2.png"" style=""width: 408px; height: 417px; margin-right: 200px;""><img src=""images/choice_trial_16.png"" style=""width: 408px; height: 417px;""></div></div>",j,delaylearn,learning,trial,rOzc3jkFM9PktkBMNeXaAb7sdns1,rOzc3jkFM9PktkBMNeXaAb7sdns1,5.0,images/choice_trial_2.png,images/choice_trial_16.png,images/pattern_3.png,f,j,7000.0,2.0,16.0,2.0,1.0,13.0,1.0,0.0,16.0,50.0,,,,,,65b7b0e4e6fa7d632205b4b6,14:19:30,26/02/2024
html-keyboard-response,70,132414,0.0-31.0-1.0,,"<div style=""display: flex; flex-direction: column; align-items: center; margin-top: -40px;""><img src=""images/pattern_3.png"" style=""width: 234px; height: 230px; margin-top: -50px;""><div style=""display: flex; justify-content: space-between; margin-top: 33px;""><img src=""images/choice_trial_16.png"" style=""width: 408px; height: 417px; margin-left:608px;""></div></div>",,delaylearn,learning,display_response,rOzc3jkFM9PktkBMNeXaAb7sdns1,rOzc3jkFM9PktkBMNeXaAb7sdns1,,,,,,,,,,,,,,,,,chosen stimuli: images/choice_trial_16.png,,,,,65b7b0e4e6fa7d632205b4b6,14:19:30,26/02/2024
html-keyboard-response,71,139416,0.0-31.0-2.0,,,,delaylearn,learning,feedback_duration_window,rOzc3jkFM9PktkBMNeXaAb7sdns1,rOzc3jkFM9PktkBMNeXaAb7sdns1,,,,,,,,,,,,,,,,,,7000.0,,,,65b7b0e4e6fa7d632205b4b6,14:19:30,26/02/2024
html-keyboard-response,72,140923,0.0-31.0-3.0,,<div style='margin:auto;width: auto; font-size: 150%'><span style='font-weight: bold; font-size: 100px; color: red;'>0 points!</span><br><br></div>,,delaylearn,learning,feedback_image_window,rOzc3jkFM9PktkBMNeXaAb7sdns1,rOzc3jkFM9PktkBMNeXaAb7sdns1,,,,,,,,,,,,,,,,,,,,,,65b7b0e4e6fa7d632205b4b6,14:19:30,26/02/2024
html-keyboard-response,73,143125,0.0-32.0,,"<div style=""font-size:100px;"">+</div>",,delaylearn,learning,ITI,rOzc3jkFM9PktkBMNeXaAb7sdns1,rOzc3jkFM9PktkBMNeXaAb7sdns1,,,,,,,,,,,,,,,,,,,2199.0,,,65b7b0e4e6fa7d632205b4b6,14:19:30,26/02/2024
html-keyboard-response,74,144061,0.0-33.0-0.0,934.0,"<div style=""display: flex; flex-direction: column; align-items: center; margin-top: -40px;""><img src=""images/pattern_5.png"" style=""width: 234px; height: 230px; margin-top: -50px;""><div style=""display: flex; justify-content: space-between; margin-top: 33px;""><img src=""images/choice_trial_7.png"" style=""width: 408px; height: 417px; margin-right: 200px;""><img src=""images/choice_trial_13.png"" style=""width: 408px; height: 417px;""></div></div>",f,delaylearn,learning,trial,rOzc3jkFM9PktkBMNeXaAb7sdns1,rOzc3jkFM9PktkBMNeXaAb7sdns1,5.0,images/choice_trial_7.png,images/choice_trial_13.png,images/pattern_5.png,f,f,750.0,7.0,13.0,4.0,0.0,14.0,1.0,1.0,7.0,60.0,,,,,,65b7b0e4e6fa7d632205b4b6,14:19:30,26/02/2024
html-keyboard-response,75,145065,0.0-33.0-1.0,,"<div style=""display: flex; flex-direction: column; align-items: center; margin-top: -40px;""><img src=""images/pattern_5.png"" style=""width: 234px; height: 230px; margin-top: -50px;""><div style=""display: flex; justify-content: space-between; margin-top: 33px;""><img src=""images/choice_trial_7.png"" style=""width: 408px; height: 417px; margin-right: 608px;""></div></div>",,delaylearn,learning,display_response,rOzc3jkFM9PktkBMNeXaAb7sdns1,rOzc3jkFM9PktkBMNeXaAb7sdns1,,,,,,,,,,,,,,,,,chosen stimuli: images/choice_trial_7.png,,,,,65b7b0e4e6fa7d632205b4b6,14:19:30,26/02/2024
html-keyboard-response,76,145825,0.0-33.0-2.0,,,,delaylearn,learning,feedback_duration_window,rOzc3jkFM9PktkBMNeXaAb7sdns1,rOzc3jkFM9PktkBMNeXaAb7sdns1,,,,,,,,,,,,,,,,,,750.0,,,,65b7b0e4e6fa7d632205b4b6,14:19:30,26/02/2024
html-keyboard-response,77,147327,0.0-33.0-3.0,,<div style='margin:auto;width: auto; font-size: 150%'><span style='font-weight: bold; font-size: 100px; color: green;'>+10 points!</span><br><br></div>,,delaylearn,learning,feedback_image_window,rOzc3jkFM9PktkBMNeXaAb7sdns1,rOzc3jkFM9PktkBMNeXaAb7sdns1,,,,,,,,,,,,,,,,,,,,,,65b7b0e4e6fa7d632205b4b6,14:19:30,26/02/2024
html-keyboard-response,78,147836,0.0-34.0-0.0,,,,,,mood_trial_fixation,rOzc3jkFM9PktkBMNeXaAb7sdns1,,,,,,,,,,,,,,,,,,,,,,,65b7b0e4e6fa7d632205b4b6,14:19:30,26/02/2024
lmdlab-html-vas-response,79,153323,0.0-34.0-1.0,4471.0,How happy are you right now?,0.49537037037037035,delaylearn,learning,mood_trial,rOzc3jkFM9PktkBMNeXaAb7sdns1,rOzc3jkFM9PktkBMNeXaAb7sdns1,,,,,,,,,,,,,,,,,,,,"['Very unhappy', 'Very happy']",,65b7b0e4e6fa7d632205b4b6,14:19:30,26/02/2024
html-keyboard-response,80,155518,0.0-35.0,,"<div style=""font-size:100px;"">+</div>",,delaylearn,learning,ITI,rOzc3jkFM9PktkBMNeXaAb7sdns1,rOzc3jkFM9PktkBMNeXaAb7sdns1,,,,,,,,,,,,,,,,,,,2179.0,,,65b7b0e4e6fa7d632205b4b6,14:19:30,26/02/2024
html-keyboard-response,81,156691,0.0-36.0-0.0,1172.300000011921,"<div style=""display: flex; flex-direction: column; align-items: center; margin-top: -40px;""><img src=""images/pattern_6.png"" style=""width: 234px; height: 230px; margin-top: -50px;""><div style=""display: flex; justify-content: space-between; margin-top: 33px;""><img src=""images/choice_trial_14.png"" style=""width: 408px; height: 417px; margin-right: 200px;""><img src=""images/choice_trial_9.png"" style=""width: 408px; height: 417px;""></div></div>",j,delaylearn,learning,trial,rOzc3jkFM9PktkBMNeXaAb7sdns1,rOzc3jkFM9PktkBMNeXaAb7sdns1,5.0,images/choice_trial_14.png,images/choice_trial_9.png,images/pattern_6.png,f,f,750.0,14.0,9.0,5.0,0.0,15.0,0.0,0.0,9.0,60.0,,,,,,65b7b0e4e6fa7d632205b4b6,14:19:30,26/02/2024
html-keyboard-response,82,157700,0.0-36.0-1.0,,"<div style=""display: flex; flex-direction: column; align-items: center; margin-top: -40px;""><img src=""images/pattern_6.png"" style=""width: 234px; height: 230px; margin-top: -50px;""><div style=""display: flex; justify-content: space-between; margin-top: 33px;""><img src=""images/choice_trial_9.png"" style=""width: 408px; height: 417px; margin-left:608px;""></div></div>",,delaylearn,learning,display_response,rOzc3jkFM9PktkBMNeXaAb7sdns1,rOzc3jkFM9PktkBMNeXaAb7sdns1,,,,,,,,,,,,,,,,,chosen stimuli: images/choice_trial_9.png,,,,,65b7b0e4e6fa7d632205b4b6,14:19:30,26/02/2024
html-keyboard-response,83,158464,0.0-36.0-2.0,,,,delaylearn,learning,feedback_duration_window,rOzc3jkFM9PktkBMNeXaAb7sdns1,rOzc3jkFM9PktkBMNeXaAb7sdns1,,,,,,,,,,,,,,,,,,750.0,,,,65b7b0e4e6fa7d632205b4b6,14:19:30,26/02/2024
html-keyboard-response,84,159976,0.0-36.0-3.0,,<div style='margin:auto;width: auto; font-size: 150%'><span style='font-weight: bold; font-size: 100px; color: red;'>0 points!</span><br><br></div>,,delaylearn,learning,feedback_image_window,rOzc3jkFM9PktkBMNeXaAb7sdns1,rOzc3jkFM9PktkBMNeXaAb7sdns1,,,,,,,,,,,,,,,,,,,,,,65b7b0e4e6fa7d632205b4b6,14:19:30,26/02/2024
html-keyboard-response,85,161607,0.0-37.0,,"<div style=""font-size:100px;"">+</div>",,delaylearn,learning,ITI,rOzc3jkFM9PktkBMNeXaAb7sdns1,rOzc3jkFM9PktkBMNeXaAb7sdns1,,,,,,,,,,,,,,,,,,,1622.0,,,65b7b0e4e6fa7d632205b4b6,14:19:30,26/02/2024
html-keyboard-response,86,163163,0.0-38.0-0.0,1553.800000011921,"<div style=""display: flex; flex-direction: column; align-items: center; margin-top: -40px;""><img src=""images/pattern_4.png"" style=""width: 234px; height: 230px; margin-top: -50px;""><div style=""display: flex; justify-content: space-between; margin-top: 33px;""><img src=""images/choice_trial_4.png"" style=""width: 408px; height: 417px; margin-right: 200px;""><img src=""images/choice_trial_11.png"" style=""width: 408px; height: 417px;""></div></div>",j,delaylearn,learning,trial,rOzc3jkFM9PktkBMNeXaAb7sdns1,rOzc3jkFM9PktkBMNeXaAb7sdns1,5.0,images/choice_trial_4.png,images/choice_trial_11.png,images/pattern_4.png,j,j,7000.0,4.0,11.0,3.0,1.0,16.0,1.0,1.0,11.0,70.0,,,,,,65b7b0e4e6fa7d632205b4b6,14:19:30,26/02/2024
html-keyboard-response,87,164172,0.0-38.0-1.0,,"<div style=""display: flex; flex-direction: column; align-items: center; margin-top: -40px;""><img src=""images/pattern_4.png"" style=""width: 234px; height: 230px; margin-top: -50px;""><div style=""display: flex; justify-content: space-between; margin-top: 33px;""><img src=""images/choice_trial_11.png"" style=""width: 408px; height: 417px; margin-left:608px;""></div></div>",,delaylearn,learning,display_response,rOzc3jkFM9PktkBMNeXaAb7sdns1,rOzc3jkFM9PktkBMNeXaAb7sdns1,,,,,,,,,,,,,,,,,chosen stimuli: images/choice_trial_11.png,,,,,65b7b0e4e6fa7d632205b4b6,14:19:30,26/02/2024
html-keyboard-response,88,171187,0.0-38.0-2.0,,,,delaylearn,learning,feedback_duration_window,rOzc3jkFM9PktkBMNeXaAb7sdns1,rOzc3jkFM9PktkBMNeXaAb7sdns1,,,,,,,,,,,,,,,,,,7000.0,,,,65b7b0e4e6fa7d632205b4b6,14:19:30,26/02/2024
html-keyboard-response,89,172689,0.0-38.0-3.0,,<div style='margin:auto;width: auto; font-size: 150%'><span style='font-weight: bold; font-size: 100px; color: green;'>+10 points!</span><br><br></div>,,delaylearn,learning,feedback_image_window,rOzc3jkFM9PktkBMNeXaAb7sdns1,rOzc3jkFM9PktkBMNeXaAb7sdns1,,,,,,,,,,,,,,,,,,,,,,65b7b0e4e6fa7d632205b4b6,14:19:30,26/02/2024
html-keyboard-response,90,174868,0.0-39.0,,"<div style=""font-size:100px;"">+</div>",,delaylearn,learning,ITI,rOzc3jkFM9PktkBMNeXaAb7sdns1,rOzc3jkFM9PktkBMNeXaAb7sdns1,,,,,,,,,,,,,,,,,,,2166.0,,,65b7b0e4e6fa7d632205b4b6,14:19:30,26/02/2024
html-keyboard-response,91,176448,0.0-40.0-0.0,1577.0999999642372,"<div style=""display: flex; flex-direction: column; align-items: center; margin-top: -40px;""><img src=""images/pattern_7.png"" style=""width: 234px; height: 230px; margin-top: -50px;""><div style=""display: flex; justify-content: space-between; margin-top: 33px;""><img src=""images/choice_trial_8.png"" style=""width: 408px; height: 417px; margin-right: 200px;""><img src=""images/choice_trial_10.png"" style=""width: 408px; height: 417px;""></div></div>",j,delaylearn,learning,trial,rOzc3jkFM9PktkBMNeXaAb7sdns1,rOzc3jkFM9PktkBMNeXaAb7sdns1,5.0,images/choice_trial_8.png,images/choice_trial_10.png,images/pattern_7.png,j,f,750.0,8.0,10.0,6.0,0.0,17.0,0.0,1.0,10.0,80.0,,,,,,65b7b0e4e6fa7d632205b4b6,14:19:30,26/02/2024
html-keyboard-response,92,177460,0.0-40.0-1.0,,"<div style=""display: flex; flex-direction: column; align-items: center; margin-top: -40px;""><img src=""images/pattern_7.png"" style=""width: 234px; height: 230px; margin-top: -50px;""><div style=""display: flex; justify-content: space-between; margin-top: 33px;""><img src=""images/choice_trial_10.png"" style=""width: 408px; height: 417px; margin-left:608px;""></div></div>",,delaylearn,learning,display_response,rOzc3jkFM9PktkBMNeXaAb7sdns1,rOzc3jkFM9PktkBMNeXaAb7sdns1,,,,,,,,,,,,,,,,,chosen stimuli: images/choice_trial_10.png,,,,,65b7b0e4e6fa7d632205b4b6,14:19:30,26/02/2024
html-keyboard-response,93,178223,0.0-40.0-2.0,,,,delaylearn,learning,feedback_duration_window,rOzc3jkFM9PktkBMNeXaAb7sdns1,rOzc3jkFM9PktkBMNeXaAb7sdns1,,,,,,,,,,,,,,,,,,750.0,,,,65b7b0e4e6fa7d632205b4b6,14:19:30,26/02/2024
html-keyboard-response,94,179728,0.0-40.0-3.0,,<div style='margin:auto;width: auto; font-size: 150%'><span style='font-weight: bold; font-size: 100px; color: green;'>+10 points!</span><br><br></div>,,delaylearn,learning,feedback_image_window,rOzc3jkFM9PktkBMNeXaAb7sdns1,rOzc3jkFM9PktkBMNeXaAb7sdns1,,,,,,,,,,,,,,,,,,,,,,65b7b0e4e6fa7d632205b4b6,14:19:30,26/02/2024
html-keyboard-response,95,181778,0.0-41.0,,"<div style=""font-size:100px;"">+</div>",,delaylearn,learning,ITI,rOzc3jkFM9PktkBMNeXaAb7sdns1,rOzc3jkFM9PktkBMNeXaAb7sdns1,,,,,,,,,,,,,,,,,,,2037.0,,,65b7b0e4e6fa7d632205b4b6,14:19:30,26/02/2024
html-keyboard-response,96,183397,0.0-42.0-0.0,1616.800000011921,"<div style=""display: flex; flex-direction: column; align-items: center; margin-top: -40px;""><img src=""images/pattern_1.png"" style=""width: 234px; height: 230px; margin-top: -50px;""><div style=""display: flex; justify-content: space-between; margin-top: 33px;""><img src=""images/choice_trial_6.png"" style=""width: 408px; height: 417px; margin-right: 200px;""><img src=""images/choice_trial_15.png"" style=""width: 408px; height: 417px;""></div></div>",j,delaylearn,learning,trial,rOzc3jkFM9PktkBMNeXaAb7sdns1,rOzc3jkFM9PktkBMNeXaAb7sdns1,5.0,images/choice_trial_6.png,images/choice_trial_15.png,images/pattern_1.png,f,f,7000.0,6.0,15.0,1.0,0.0,18.0,0.0,0.0,15.0,80.0,,,,,,65b7b0e4e6fa7d632205b4b6,14:19:30,26/02/2024
html-keyboard-response,97,184413,0.0-42.0-1.0,,"<div style=""display: flex; flex-direction: column; align-items: center; margin-top: -40px;""><img src=""images/pattern_1.png"" style=""width: 234px; height: 230px; margin-top: -50px;""><div style=""display: flex; justify-content: space-between; margin-top: 33px;""><img src=""images/choice_trial_15.png"" style=""width: 408px; height: 417px; margin-left:608px;""></div></div>",,delaylearn,learning,display_response,rOzc3jkFM9PktkBMNeXaAb7sdns1,rOzc3jkFM9PktkBMNeXaAb7sdns1,,,,,,,,,,,,,,,,,chosen stimuli: images/choice_trial_15.png,,,,,65b7b0e4e6fa7d632205b4b6,14:19:30,26/02/2024
html-keyboard-response,98,191422,0.0-42.0-2.0,,,,delaylearn,learning,feedback_duration_window,rOzc3jkFM9PktkBMNeXaAb7sdns1,rOzc3jkFM9PktkBMNeXaAb7sdns1,,,,,,,,,,,,,,,,,,7000.0,,,,65b7b0e4e6fa7d632205b4b6,14:19:30,26/02/2024
html-keyboard-response,99,192924,0.0-42.0-3.0,,<div style='margin:auto;width: auto; font-size: 150%'><span style='font-weight: bold; font-size: 100px; color: red;'>0 points!</span><br><br></div>,,delaylearn,learning,feedback_image_window,rOzc3jkFM9PktkBMNeXaAb7sdns1,rOzc3jkFM9PktkBMNeXaAb7sdns1,,,,,,,,,,,,,,,,,,,,,,65b7b0e4e6fa7d632205b4b6,14:19:30,26/02/2024
html-keyboard-response,100,195416,0.0-43.0,,"<div style=""font-size:100px;"">+</div>",,delaylearn,learning,ITI,rOzc3jkFM9PktkBMNeXaAb7sdns1,rOzc3jkFM9PktkBMNeXaAb7sdns1,,,,,,,,,,,,,,,,,,,2478.0,,,65b7b0e4e6fa7d632205b4b6,14:19:30,26/02/2024
html-keyboard-response,101,196793,0.0-44.0-0.0,1374.3999999761581,"<div style=""display: flex; flex-direction: column; align-items: center; margin-top: -40px;""><img src=""images/pattern_6.png"" style=""width: 234px; height: 230px; margin-top: -50px;""><div style=""display: flex; justify-content: space-between; margin-top: 33px;""><img src=""images/choice_trial_9.png"" style=""width: 408px; height: 417px; margin-right: 200px;""><img src=""images/choice_trial_14.png"" style=""width: 408px; height: 417px;""></div></div>",f,delaylearn,learning,trial,rOzc3jkFM9PktkBMNeXaAb7sdns1,rOzc3jkFM9PktkBMNeXaAb7sdns1,5.0,images/choice_trial_9.png,images/choice_trial_14.png,images/pattern_6.png,j,j,750.0,9.0,14.0,5.0,1.0,19.0,0.0,0.0,9.0,80.0,,,,,,65b7b0e4e6fa7d632205b4b6,14:19:30,26/02/2024
html-keyboard-response,102,197808,0.0-44.0-1.0,,"<div style=""display: flex; flex-direction: column; align-items: center; margin-top: -40px;""><img src=""images/pattern_6.png"" style=""width: 234px; height: 230px; margin-top: -50px;""><div style=""display: flex; justify-content: space-between; margin-top: 33px;""><img src=""images/choice_trial_9.png"" style=""width: 408px; height: 417px; margin-right: 608px;""></div></div>",,delaylearn,learning,display_response,rOzc3jkFM9PktkBMNeXaAb7sdns1,rOzc3jkFM9PktkBMNeXaAb7sdns1,,,,,,,,,,,,,,,,,chosen stimuli: images/choice_trial_9.png,,,,,65b7b0e4e6fa7d632205b4b6,14:19:30,26/02/2024
html-keyboard-response,103,198569,0.0-44.0-2.0,,,,delaylearn,learning,feedback_duration_window,rOzc3jkFM9PktkBMNeXaAb7sdns1,rOzc3jkFM9PktkBMNeXaAb7sdns1,,,,,,,,,,,,,,,,,,750.0,,,,65b7b0e4e6fa7d632205b4b6,14:19:30,26/02/2024
html-keyboard-response,104,200072,0.0-44.0-3.0,,<div style='margin:auto;width: auto; font-size: 150%'><span style='font-weight: bold; font-size: 100px; color: red;'>0 points!</span><br><br></div>,,delaylearn,learning,feedback_image_window,rOzc3jkFM9PktkBMNeXaAb7sdns1,rOzc3jkFM9PktkBMNeXaAb7sdns1,,,,,,,,,,,,,,,,,,,,,,65b7b0e4e6fa7d632205b4b6,14:19:30,26/02/2024
html-keyboard-response,105,202060,0.0-45.0,,"<div style=""font-size:100px;"">+</div>",,delaylearn,learning,ITI,rOzc3jkFM9PktkBMNeXaAb7sdns1,rOzc3jkFM9PktkBMNeXaAb7sdns1,,,,,,,,,,,,,,,,,,,1980.0,,,65b7b0e4e6fa7d632205b4b6,14:19:30,26/02/2024
html-keyboard-response,106,203341,0.0-46.0-0.0,1278.699999988079,"<div style=""display: flex; flex-direction: column; align-items: center; margin-top: -40px;""><img src=""images/pattern_4.png"" style=""width: 234px; height: 230px; margin-top: -50px;""><div style=""display: flex; justify-content: space-between; margin-top: 33px;""><img src=""images/choice_trial_11.png"" style=""width: 408px; height: 417px; margin-right: 200px;""><img src=""images/choice_trial_4.png"" style=""width: 408px; height: 417px;""></div></div>",f,delaylearn,learning,trial,rOzc3jkFM9PktkBMNeXaAb7sdns1,rOzc3jkFM9PktkBMNeXaAb7sdns1,5.0,images/choice_trial_11.png,images/choice_trial_4.png,images/pattern_4.png,f,f,7000.0,11.0,4.0,3.0,0.0,20.0,1.0,1.0,11.0,90.0,,,,,,65b7b0e4e6fa7d632205b4b6,14:19:30,26/02/2024
html-keyboard-response,107,204344,0.0-46.0-1.0,,"<div style=""display: flex; flex-direction: column; align-items: center; margin-top: -40px;""><img src=""images/pattern_4.png"" style=""width: 234px; height: 230px; margin-top: -50px;""><div style=""display: flex; justify-content: space-between; margin-top: 33px;""><img src=""images/choice_trial_11.png"" style=""width: 408px; height: 417px; margin-right: 608px;""></div></div>",,delaylearn,learning,display_response,rOzc3jkFM9PktkBMNeXaAb7sdns1,rOzc3jkFM9PktkBMNeXaAb7sdns1,,,,,,,,,,,,,,,,,chosen stimuli: images/choice_trial_11.png,,,,,65b7b0e4e6fa7d632205b4b6,14:19:30,26/02/2024
html-keyboard-response,108,211349,0.0-46.0-2.0,,,,delaylearn,learning,feedback_duration_window,rOzc3jkFM9PktkBMNeXaAb7sdns1,rOzc3jkFM9PktkBMNeXaAb7sdns1,,,,,,,,,,,,,,,,,,7000.0,,,,65b7b0e4e6fa7d632205b4b6,14:19:30,26/02/2024
html-keyboard-response,109,212854,0.0-46.0-3.0,,<div style='margin:auto;width: auto; font-size: 150%'><span style='font-weight: bold; font-size: 100px; color: green;'>+10 points!</span><br><br></div>,,delaylearn,learning,feedback_image_window,rOzc3jkFM9PktkBMNeXaAb7sdns1,rOzc3jkFM9PktkBMNeXaAb7sdns1,,,,,,,,,,,,,,,,,,,,,,65b7b0e4e6fa7d632205b4b6,14:19:30,26/02/2024
html-keyboard-response,110,213368,0.0-47.0-0.0,,,,,,mood_trial_fixation,rOzc3jkFM9PktkBMNeXaAb7sdns1,,,,,,,,,,,,,,,,,,,,,,,65b7b0e4e6fa7d632205b4b6,14:19:30,26/02/2024
lmdlab-html-vas-response,111,217443,0.0-47.0-1.0,3068.0,How happy are you right now?,0.4861111111111111,delaylearn,learning,mood_trial,rOzc3jkFM9PktkBMNeXaAb7sdns1,rOzc3jkFM9PktkBMNeXaAb7sdns1,,,,,,,,,,,,,,,,,,,,"['Very unhappy', 'Very happy']",,65b7b0e4e6fa7d632205b4b6,14:19:30,26/02/2024
html-keyboard-response,112,219381,0.0-48.0,,"<div style=""font-size:100px;"">+</div>",,delaylearn,learning,ITI,rOzc3jkFM9PktkBMNeXaAb7sdns1,rOzc3jkFM9PktkBMNeXaAb7sdns1,,,,,,,,,,,,,,,,,,,1935.0,,,65b7b0e4e6fa7d632205b4b6,14:19:30,26/02/2024
html-keyboard-response,113,220930,0.0-49.0-0.0,1545.199999988079,"<div style=""display: flex; flex-direction: column; align-items: center; margin-top: -40px;""><img src=""images/pattern_7.png"" style=""width: 234px; height: 230px; margin-top: -50px;""><div style=""display: flex; justify-content: space-between; margin-top: 33px;""><img src=""images/choice_trial_10.png"" style=""width: 408px; height: 417px; margin-right: 200px;""><img src=""images/choice_trial_8.png"" style=""width: 408px; height: 417px;""></div></div>",f,delaylearn,learning,trial,rOzc3jkFM9PktkBMNeXaAb7sdns1,rOzc3jkFM9PktkBMNeXaAb7sdns1,5.0,images/choice_trial_10.png,images/choice_trial_8.png,images/pattern_7.png,j,j,750.0,10.0,8.0,6.0,1.0,21.0,0.0,0.0,10.0,90.0,,,,,,65b7b0e4e6fa7d632205b4b6,14:19:30,26/02/2024
html-keyboard-response,114,221945,0.0-49.0-1.0,,"<div style=""display: flex; flex-direction: column; align-items: center; margin-top: -40px;""><img src=""images/pattern_7.png"" style=""width: 234px; height: 230px; margin-top: -50px;""><div style=""display: flex; justify-content: space-between; margin-top: 33px;""><img src=""images/choice_trial_10.png"" style=""width: 408px; height: 417px; margin-right: 608px;""></div></div>",,delaylearn,learning,display_response,rOzc3jkFM9PktkBMNeXaAb7sdns1,rOzc3jkFM9PktkBMNeXaAb7sdns1,,,,,,,,,,,,,,,,,chosen stimuli: images/choice_trial_10.png,,,,,65b7b0e4e6fa7d632205b4b6,14:19:30,26/02/2024
html-keyboard-response,115,222705,0.0-49.0-2.0,,,,delaylearn,learning,feedback_duration_window,rOzc3jkFM9PktkBMNeXaAb7sdns1,rOzc3jkFM9PktkBMNeXaAb7sdns1,,,,,,,,,,,,,,,,,,750.0,,,,65b7b0e4e6fa7d632205b4b6,14:19:30,26/02/2024
html-keyboard-response,116,224215,0.0-49.0-3.0,,<div style='margin:auto;width: auto; font-size: 150%'><span style='font-weight: bold; font-size: 100px; color: red;'>0 points!</span><br><br></div>,,delaylearn,learning,feedback_image_window,rOzc3jkFM9PktkBMNeXaAb7sdns1,rOzc3jkFM9PktkBMNeXaAb7sdns1,,,,,,,,,,,,,,,,,,,,,,65b7b0e4e6fa7d632205b4b6,14:19:30,26/02/2024
html-keyboard-response,117,225925,0.0-50.0,,"<div style=""font-size:100px;"">+</div>",,delaylearn,learning,ITI,rOzc3jkFM9PktkBMNeXaAb7sdns1,rOzc3jkFM9PktkBMNeXaAb7sdns1,,,,,,,,,,,,,,,,,,,1695.0,,,65b7b0e4e6fa7d632205b4b6,14:19:30,26/02/2024
html-keyboard-response,118,227099,0.0-51.0-0.0,1171.699999988079,"<div style=""display: flex; flex-direction: column; align-items: center; margin-top: -40px;""><img src=""images/pattern_1.png"" style=""width: 234px; height: 230px; margin-top: -50px;""><div style=""display: flex; justify-content: space-between; margin-top: 33px;""><img src=""images/choice_trial_15.png"" style=""width: 408px; height: 417px; margin-right: 200px;""><img src=""images/choice_trial_6.png"" style=""width: 408px; height: 417px;""></div></div>",f,delaylearn,learning,trial,rOzc3jkFM9PktkBMNeXaAb7sdns1,rOzc3jkFM9PktkBMNeXaAb7sdns1,5.0,images/choice_trial_15.png,images/choice_trial_6.png,images/pattern_1.png,f,j,7000.0,15.0,6.0,1.0,1.0,22.0,0.0,1.0,15.0,100.0,,,,,,65b7b0e4e6fa7d632205b4b6,14:19:30,26/02/2024
html-keyboard-response,119,228112,0.0-51.0-1.0,,"<div style=""display: flex; flex-direction: column; align-items: center; margin-top: -40px;""><img src=""images/pattern_1.png"" style=""width: 234px; height: 230px; margin-top: -50px;""><div style=""display: flex; justify-content: space-between; margin-top: 33px;""><img src=""images/choice_trial_15.png"" style=""width: 408px; height: 417px; margin-right: 608px;""></div></div>",,delaylearn,learning,display_response,rOzc3jkFM9PktkBMNeXaAb7sdns1,rOzc3jkFM9PktkBMNeXaAb7sdns1,,,,,,,,,,,,,,,,,chosen stimuli: images/choice_trial_15.png,,,,,65b7b0e4e6fa7d632205b4b6,14:19:30,26/02/2024
html-keyboard-response,120,235116,0.0-51.0-2.0,,,,delaylearn,learning,feedback_duration_window,rOzc3jkFM9PktkBMNeXaAb7sdns1,rOzc3jkFM9PktkBMNeXaAb7sdns1,,,,,,,,,,,,,,,,,,7000.0,,,,65b7b0e4e6fa7d632205b4b6,14:19:30,26/02/2024
html-keyboard-response,121,236622,0.0-51.0-3.0,,<div style='margin:auto;width: auto; font-size: 150%'><span style='font-weight: bold; font-size: 100px; color: green;'>+10 points!</span><br><br></div>,,delaylearn,learning,feedback_image_window,rOzc3jkFM9PktkBMNeXaAb7sdns1,rOzc3jkFM9PktkBMNeXaAb7sdns1,,,,,,,,,,,,,,,,,,,,,,65b7b0e4e6fa7d632205b4b6,14:19:30,26/02/2024
html-keyboard-response,122,238281,0.0-52.0,,"<div style=""font-size:100px;"">+</div>",,delaylearn,learning,ITI,rOzc3jkFM9PktkBMNeXaAb7sdns1,rOzc3jkFM9PktkBMNeXaAb7sdns1,,,,,,,,,,,,,,,,,,,1653.0,,,65b7b0e4e6fa7d632205b4b6,14:19:30,26/02/2024
html-keyboard-response,123,239986,0.0-53.0-0.0,1702.0,"<div style=""display: flex; flex-direction: column; align-items: center; margin-top: -40px;""><img src=""images/pattern_5.png"" style=""width: 234px; height: 230px; margin-top: -50px;""><div style=""display: flex; justify-content: space-between; margin-top: 33px;""><img src=""images/choice_trial_13.png"" style=""width: 408px; height: 417px; margin-right: 200px;""><img src=""images/choice_trial_7.png"" style=""width: 408px; height: 417px;""></div></div>",j,delaylearn,learning,trial,rOzc3jkFM9PktkBMNeXaAb7sdns1,rOzc3jkFM9PktkBMNeXaAb7sdns1,5.0,images/choice_trial_13.png,images/choice_trial_7.png,images/pattern_5.png,j,j,750.0,13.0,7.0,4.0,1.0,23.0,1.0,1.0,7.0,110.0,,,,,,65b7b0e4e6fa7d632205b4b6,14:19:30,26/02/2024
html-keyboard-response,124,240996,0.0-53.0-1.0,,"<div style=""display: flex; flex-direction: column; align-items: center; margin-top: -40px;""><img src=""images/pattern_5.png"" style=""width: 234px; height: 230px; margin-top: -50px;""><div style=""display: flex; justify-content: space-between; margin-top: 33px;""><img src=""images/choice_trial_7.png"" style=""width: 408px; height: 417px; margin-left:608px;""></div></div>",,delaylearn,learning,display_response,rOzc3jkFM9PktkBMNeXaAb7sdns1,rOzc3jkFM9PktkBMNeXaAb7sdns1,,,,,,,,,,,,,,,,,chosen stimuli: images/choice_trial_7.png,,,,,65b7b0e4e6fa7d632205b4b6,14:19:30,26/02/2024
html-keyboard-response,125,241760,0.0-53.0-2.0,,,,delaylearn,learning,feedback_duration_window,rOzc3jkFM9PktkBMNeXaAb7sdns1,rOzc3jkFM9PktkBMNeXaAb7sdns1,,,,,,,,,,,,,,,,,,750.0,,,,65b7b0e4e6fa7d632205b4b6,14:19:30,26/02/2024
html-keyboard-response,126,243263,0.0-53.0-3.0,,<div style='margin:auto;width: auto; font-size: 150%'><span style='font-weight: bold; font-size: 100px; color: green;'>+10 points!</span><br><br></div>,,delaylearn,learning,feedback_image_window,rOzc3jkFM9PktkBMNeXaAb7sdns1,rOzc3jkFM9PktkBMNeXaAb7sdns1,,,,,,,,,,,,,,,,,,,,,,65b7b0e4e6fa7d632205b4b6,14:19:30,26/02/2024
html-keyboard-response,127,245458,0.0-54.0,,"<div style=""font-size:100px;"">+</div>",,delaylearn,learning,ITI,rOzc3jkFM9PktkBMNeXaAb7sdns1,rOzc3jkFM9PktkBMNeXaAb7sdns1,,,,,,,,,,,,,,,,,,,2181.0,,,65b7b0e4e6fa7d632205b4b6,14:19:30,26/02/2024
html-keyboard-response,128,247414,0.0-55.0-0.0,1953.5,"<div style=""display: flex; flex-direction: column; align-items: center; margin-top: -40px;""><img src=""images/pattern_3.png"" style=""width: 234px; height: 230px; margin-top: -50px;""><div style=""display: flex; justify-content: space-between; margin-top: 33px;""><img src=""images/choice_trial_2.png"" style=""width: 408px; height: 417px; margin-right: 200px;""><img src=""images/choice_trial_16.png"" style=""width: 408px; height: 417px;""></div></div>",j,delaylearn,learning,trial,rOzc3jkFM9PktkBMNeXaAb7sdns1,rOzc3jkFM9PktkBMNeXaAb7sdns1,5.0,images/choice_trial_2.png,images/choice_trial_16.png,images/pattern_3.png,j,j,7000.0,2.0,16.0,2.0,1.0,24.0,1.0,1.0,16.0,120.0,,,,,,65b7b0e4e6fa7d632205b4b6,14:19:30,26/02/2024
html-keyboard-response,129,248418,0.0-55.0-1.0,,"<div style=""display: flex; flex-direction: column; align-items: center; margin-top: -40px;""><img src=""images/pattern_3.png"" style=""width: 234px; height: 230px; margin-top: -50px;""><div style=""display: flex; justify-content: space-between; margin-top: 33px;""><img src=""images/choice_trial_16.png"" style=""width: 408px; height: 417px; margin-left:608px;""></div></div>",,delaylearn,learning,display_response,rOzc3jkFM9PktkBMNeXaAb7sdns1,rOzc3jkFM9PktkBMNeXaAb7sdns1,,,,,,,,,,,,,,,,,chosen stimuli: images/choice_trial_16.png,,,,,65b7b0e4e6fa7d632205b4b6,14:19:30,26/02/2024
html-keyboard-response,130,255422,0.0-55.0-2.0,,,,delaylearn,learning,feedback_duration_window,rOzc3jkFM9PktkBMNeXaAb7sdns1,rOzc3jkFM9PktkBMNeXaAb7sdns1,,,,,,,,,,,,,,,,,,7000.0,,,,65b7b0e4e6fa7d632205b4b6,14:19:30,26/02/2024
html-keyboard-response,131,256931,0.0-55.0-3.0,,<div style='margin:auto;width: auto; font-size: 150%'><span style='font-weight: bold; font-size: 100px; color: green;'>+10 points!</span><br><br></div>,,delaylearn,learning,feedback_image_window,rOzc3jkFM9PktkBMNeXaAb7sdns1,rOzc3jkFM9PktkBMNeXaAb7sdns1,,,,,,,,,,,,,,,,,,,,,,65b7b0e4e6fa7d632205b4b6,14:19:30,26/02/2024
lmdlab-html-vas-response,132,263493,0.0-56.0-0.0,5038.0,*How <b><u>confident</u></b> are you feeling about your answers at this moment?*,0.07407407407407407,rewlearn,rate_confidence,,rOzc3jkFM9PktkBMNeXaAb7sdns1,rOzc3jkFM9PktkBMNeXaAb7sdns1,,,,,,,,,,,,,,,,,,,,"['No confidence', 'Complete confidence']",,65b7b0e4e6fa7d632205b4b6,14:19:30,26/02/2024
lmdlab-rest-trial-limit,133,294830,0.0-56.0-1.0,29830.0,"<div style=""font-size:40px;""><b>Please take a break!</b><br><br><br><br><p>Great work: you earned undefined points.<br><br><br><p>You have completed part(s) 1 of 6.<br><br><br><br>When you are ready to continue<br><br><br>please click the button.</p><br><br>",0,delaylearn,learning,break,rOzc3jkFM9PktkBMNeXaAb7sdns1,rOzc3jkFM9PktkBMNeXaAb7sdns1,,,,,,,,,,,,,,,,,,,,,0.0,65b7b0e4e6fa7d632205b4b6,14:19:30,26/02/2024
html-keyboard-response,134,297841,0.0-56.0-2.0,,"<div style=""font-size:100px;"">+</div>",,delaylearn,learning,pre_fixation,rOzc3jkFM9PktkBMNeXaAb7sdns1,,,,,,,,,,,,,,,,,,,,,,,65b7b0e4e6fa7d632205b4b6,14:19:30,26/02/2024
lmdlab-html-vas-response,135,303430,0.0-56.0-3.0-0.0,4577.0,How happy are you right now?,0.46064814814814814,delaylearn,learning,mood_baseline,rOzc3jkFM9PktkBMNeXaAb7sdns1,rOzc3jkFM9PktkBMNeXaAb7sdns1,,,,,,,,,,,,,,,,,,,,"['Very unhappy', 'Very happy']",,65b7b0e4e6fa7d632205b4b6,14:19:30,26/02/2024
html-keyboard-response,136,304943,0.0-56.0-3.0-1.0,,,,,,mood_baseline_fixation,rOzc3jkFM9PktkBMNeXaAb7sdns1,,,,,,,,,,,,,,,,,,,,,,,65b7b0e4e6fa7d632205b4b6,14:19:30,26/02/2024
html-keyboard-response,137,306963,0.0-57.0,,"<div style=""font-size:100px;"">+</div>",,delaylearn,learning,ITI,rOzc3jkFM9PktkBMNeXaAb7sdns1,rOzc3jkFM9PktkBMNeXaAb7sdns1,,,,,,,,,,,,,,,,,,,2005.0,,,65b7b0e4e6fa7d632205b4b6,14:19:30,26/02/2024
html-keyboard-response,138,308566,0.0-58.0-0.0,1600.300000011921,"<div style=""display: flex; flex-direction: column; align-items: center; margin-top: -40px;""><img src=""images/pattern_7.png"" style=""width: 234px; height: 230px; margin-top: -50px;""><div style=""display: flex; justify-content: space-between; margin-top: 33px;""><img src=""images/choice_trial_10.png"" style=""width: 408px; height: 417px; margin-right: 200px;""><img src=""images/choice_trial_8.png"" style=""width: 408px; height: 417px;""></div></div>",f,delaylearn,learning,trial,rOzc3jkFM9PktkBMNeXaAb7sdns1,rOzc3jkFM9PktkBMNeXaAb7sdns1,5.0,images/choice_trial_10.png,images/choice_trial_8.png,images/pattern_7.png,j,j,750.0,10.0,8.0,6.0,1.0,25.0,0.0,0.0,10.0,120.0,,,,,,65b7b0e4e6fa7d632205b4b6,14:19:30,26/02/2024
html-keyboard-response,139,309571,0.0-58.0-1.0,,"<div style=""display: flex; flex-direction: column; align-items: center; margin-top: -40px;""><img src=""images/pattern_7.png"" style=""width: 234px; height: 230px; margin-top: -50px;""><div style=""display: flex; justify-content: space-between; margin-top: 33px;""><img src=""images/choice_trial_10.png"" style=""width: 408px; height: 417px; margin-right: 608px;""></div></div>",,delaylearn,learning,display_response,rOzc3jkFM9PktkBMNeXaAb7sdns1,rOzc3jkFM9PktkBMNeXaAb7sdns1,,,,,,,,,,,,,,,,,chosen stimuli: images/choice_trial_10.png,,,,,65b7b0e4e6fa7d632205b4b6,14:19:30,26/02/2024
html-keyboard-response,140,310332,0.0-58.0-2.0,,,,delaylearn,learning,feedback_duration_window,rOzc3jkFM9PktkBMNeXaAb7sdns1,rOzc3jkFM9PktkBMNeXaAb7sdns1,,,,,,,,,,,,,,,,,,750.0,,,,65b7b0e4e6fa7d632205b4b6,14:19:30,26/02/2024
html-keyboard-response,141,311834,0.0-58.0-3.0,,<div style='margin:auto;width: auto; font-size: 150%'><span style='font-weight: bold; font-size: 100px; color: red;'>0 points!</span><br><br></div>,,delaylearn,learning,feedback_image_window,rOzc3jkFM9PktkBMNeXaAb7sdns1,rOzc3jkFM9PktkBMNeXaAb7sdns1,,,,,,,,,,,,,,,,,,,,,,65b7b0e4e6fa7d632205b4b6,14:19:30,26/02/2024
html-keyboard-response,142,312344,0.0-59.0-0.0,,,,,,mood_trial_fixation,rOzc3jkFM9PktkBMNeXaAb7sdns1,,,,,,,,,,,,,,,,,,,,,,,65b7b0e4e6fa7d632205b4b6,14:19:30,26/02/2024
lmdlab-html-vas-response,143,316202,0.0-59.0-1.0,2844.0,How happy are you right now?,0.48148148148148145,delaylearn,learning,mood_trial,rOzc3jkFM9PktkBMNeXaAb7sdns1,rOzc3jkFM9PktkBMNeXaAb7sdns1,,,,,,,,,,,,,,,,,,,,"['Very unhappy', 'Very happy']",,65b7b0e4e6fa7d632205b4b6,14:19:30,26/02/2024
html-keyboard-response,144,318627,0.0-60.0,,"<div style=""font-size:100px;"">+</div>",,delaylearn,learning,ITI,rOzc3jkFM9PktkBMNeXaAb7sdns1,rOzc3jkFM9PktkBMNeXaAb7sdns1,,,,,,,,,,,,,,,,,,,2411.0,,,65b7b0e4e6fa7d632205b4b6,14:19:30,26/02/2024
html-keyboard-response,145,319883,0.0-61.0-0.0,1253.4000000357628,"<div style=""display: flex; flex-direction: column; align-items: center; margin-top: -40px;""><img src=""images/pattern_1.png"" style=""width: 234px; height: 230px; margin-top: -50px;""><div style=""display: flex; justify-content: space-between; margin-top: 33px;""><img src=""images/choice_trial_6.png"" style=""width: 408px; height: 417px; margin-right: 200px;""><img src=""images/choice_trial_15.png"" style=""width: 408px; height: 417px;""></div></div>",j,delaylearn,learning,trial,rOzc3jkFM9PktkBMNeXaAb7sdns1,rOzc3jkFM9PktkBMNeXaAb7sdns1,5.0,images/choice_trial_6.png,images/choice_trial_15.png,images/pattern_1.png,f,f,7000.0,6.0,15.0,1.0,0.0,26.0,0.0,0.0,15.0,120.0,,,,,,65b7b0e4e6fa7d632205b4b6,14:19:30,26/02/2024
html-keyboard-response,146,320892,0.0-61.0-1.0,,"<div style=""display: flex; flex-direction: column; align-items: center; margin-top: -40px;""><img src=""images/pattern_1.png"" style=""width: 234px; height: 230px; margin-top: -50px;""><div style=""display: flex; justify-content: space-between; margin-top: 33px;""><img src=""images/choice_trial_15.png"" style=""width: 408px; height: 417px; margin-left:608px;""></div></div>",,delaylearn,learning,display_response,rOzc3jkFM9PktkBMNeXaAb7sdns1,rOzc3jkFM9PktkBMNeXaAb7sdns1,,,,,,,,,,,,,,,,,chosen stimuli: images/choice_trial_15.png,,,,,65b7b0e4e6fa7d632205b4b6,14:19:30,26/02/2024
html-keyboard-response,147,327895,0.0-61.0-2.0,,,,delaylearn,learning,feedback_duration_window,rOzc3jkFM9PktkBMNeXaAb7sdns1,rOzc3jkFM9PktkBMNeXaAb7sdns1,,,,,,,,,,,,,,,,,,7000.0,,,,65b7b0e4e6fa7d632205b4b6,14:19:30,26/02/2024
html-keyboard-response,148,329403,0.0-61.0-3.0,,<div style='margin:auto;width: auto; font-size: 150%'><span style='font-weight: bold; font-size: 100px; color: red;'>0 points!</span><br><br></div>,,delaylearn,learning,feedback_image_window,rOzc3jkFM9PktkBMNeXaAb7sdns1,rOzc3jkFM9PktkBMNeXaAb7sdns1,,,,,,,,,,,,,,,,,,,,,,65b7b0e4e6fa7d632205b4b6,14:19:30,26/02/2024
html-keyboard-response,149,331191,0.0-62.0,,"<div style=""font-size:100px;"">+</div>",,delaylearn,learning,ITI,rOzc3jkFM9PktkBMNeXaAb7sdns1,rOzc3jkFM9PktkBMNeXaAb7sdns1,,,,,,,,,,,,,,,,,,,1778.0,,,65b7b0e4e6fa7d632205b4b6,14:19:30,26/02/2024
html-keyboard-response,150,333473,0.0-63.0-0.0,2279.0,"<div style=""display: flex; flex-direction: column; align-items: center; margin-top: -40px;""><img src=""images/pattern_5.png"" style=""width: 234px; height: 230px; margin-top: -50px;""><div style=""display: flex; justify-content: space-between; margin-top: 33px;""><img src=""images/choice_trial_7.png"" style=""width: 408px; height: 417px; margin-right: 200px;""><img src=""images/choice_trial_13.png"" style=""width: 408px; height: 417px;""></div></div>",j,delaylearn,learning,trial,rOzc3jkFM9PktkBMNeXaAb7sdns1,rOzc3jkFM9PktkBMNeXaAb7sdns1,5.0,images/choice_trial_7.png,images/choice_trial_13.png,images/pattern_5.png,f,f,750.0,7.0,13.0,4.0,0.0,27.0,0.0,0.0,13.0,120.0,,,,,,65b7b0e4e6fa7d632205b4b6,14:19:30,26/02/2024
html-keyboard-response,151,334479,0.0-63.0-1.0,,"<div style=""display: flex; flex-direction: column; align-items: center; margin-top: -40px;""><img src=""images/pattern_5.png"" style=""width: 234px; height: 230px; margin-top: -50px;""><div style=""display: flex; justify-content: space-between; margin-top: 33px;""><img src=""images/choice_trial_13.png"" style=""width: 408px; height: 417px; margin-left:608px;""></div></div>",,delaylearn,learning,display_response,rOzc3jkFM9PktkBMNeXaAb7sdns1,rOzc3jkFM9PktkBMNeXaAb7sdns1,,,,,,,,,,,,,,,,,chosen stimuli: images/choice_trial_13.png,,,,,65b7b0e4e6fa7d632205b4b6,14:19:30,26/02/2024
html-keyboard-response,152,335237,0.0-63.0-2.0,,,,delaylearn,learning,feedback_duration_window,rOzc3jkFM9PktkBMNeXaAb7sdns1,rOzc3jkFM9PktkBMNeXaAb7sdns1,,,,,,,,,,,,,,,,,,750.0,,,,65b7b0e4e6fa7d632205b4b6,14:19:30,26/02/2024
html-keyboard-response,153,336744,0.0-63.0-3.0,,<div style='margin:auto;width: auto; font-size: 150%'><span style='font-weight: bold; font-size: 100px; color: red;'>0 points!</span><br><br></div>,,delaylearn,learning,feedback_image_window,rOzc3jkFM9PktkBMNeXaAb7sdns1,rOzc3jkFM9PktkBMNeXaAb7sdns1,,,,,,,,,,,,,,,,,,,,,,65b7b0e4e6fa7d632205b4b6,14:19:30,26/02/2024
html-keyboard-response,154,338686,0.0-64.0,,"<div style=""font-size:100px;"">+</div>",,delaylearn,learning,ITI,rOzc3jkFM9PktkBMNeXaAb7sdns1,rOzc3jkFM9PktkBMNeXaAb7sdns1,,,,,,,,,,,,,,,,,,,1932.0,,,65b7b0e4e6fa7d632205b4b6,14:19:30,26/02/2024
html-keyboard-response,155,339935,0.0-65.0-0.0,1247.0999999642372,"<div style=""display: flex; flex-direction: column; align-items: center; margin-top: -40px;""><img src=""images/pattern_6.png"" style=""width: 234px; height: 230px; margin-top: -50px;""><div style=""display: flex; justify-content: space-between; margin-top: 33px;""><img src=""images/choice_trial_9.png"" style=""width: 408px; height: 417px; margin-right: 200px;""><img src=""images/choice_trial_14.png"" style=""width: 408px; height: 417px;""></div></div>",f,delaylearn,learning,trial,rOzc3jkFM9PktkBMNeXaAb7sdns1,rOzc3jkFM9PktkBMNeXaAb7sdns1,5.0,images/choice_trial_9.png,images/choice_trial_14.png,images/pattern_6.png,j,j,750.0,9.0,14.0,5.0,1.0,28.0,0.0,0.0,9.0,120.0,,,,,,65b7b0e4e6fa7d632205b4b6,14:19:30,26/02/2024
html-keyboard-response,156,340949,0.0-65.0-1.0,,"<div style=""display: flex; flex-direction: column; align-items: center; margin-top: -40px;""><img src=""images/pattern_6.png"" style=""width: 234px; height: 230px; margin-top: -50px;""><div style=""display: flex; justify-content: space-between; margin-top: 33px;""><img src=""images/choice_trial_9.png"" style=""width: 408px; height: 417px; margin-right: 608px;""></div></div>",,delaylearn,learning,display_response,rOzc3jkFM9PktkBMNeXaAb7sdns1,rOzc3jkFM9PktkBMNeXaAb7sdns1,,,,,,,,,,,,,,,,,chosen stimuli: images/choice_trial_9.png,,,,,65b7b0e4e6fa7d632205b4b6,14:19:30,26/02/2024
html-keyboard-response,157,341710,0.0-65.0-2.0,,,,delaylearn,learning,feedback_duration_window,rOzc3jkFM9PktkBMNeXaAb7sdns1,rOzc3jkFM9PktkBMNeXaAb7sdns1,,,,,,,,,,,,,,,,,,750.0,,,,65b7b0e4e6fa7d632205b4b6,14:19:30,26/02/2024
html-keyboard-response,158,343214,0.0-65.0-3.0,,<div style='margin:auto;width: auto; font-size: 150%'><span style='font-weight: bold; font-size: 100px; color: red;'>0 points!</span><br><br></div>,,delaylearn,learning,feedback_image_window,rOzc3jkFM9PktkBMNeXaAb7sdns1,rOzc3jkFM9PktkBMNeXaAb7sdns1,,,,,,,,,,,,,,,,,,,,,,65b7b0e4e6fa7d632205b4b6,14:19:30,26/02/2024
html-keyboard-response,159,343725,0.0-66.0-0.0,,,,,,mood_trial_fixation,rOzc3jkFM9PktkBMNeXaAb7sdns1,,,,,,,,,,,,,,,,,,,,,,,65b7b0e4e6fa7d632205b4b6,14:19:30,26/02/2024
lmdlab-html-vas-response,160,348395,0.0-66.0-1.0,3661.0,How happy are you right now?,0.47685185185185186,delaylearn,learning,mood_trial,rOzc3jkFM9PktkBMNeXaAb7sdns1,rOzc3jkFM9PktkBMNeXaAb7sdns1,,,,,,,,,,,,,,,,,,,,"['Very unhappy', 'Very happy']",,65b7b0e4e6fa7d632205b4b6,14:19:30,26/02/2024
html-keyboard-response,161,350312,0.0-67.0,,"<div style=""font-size:100px;"">+</div>",,delaylearn,learning,ITI,rOzc3jkFM9PktkBMNeXaAb7sdns1,rOzc3jkFM9PktkBMNeXaAb7sdns1,,,,,,,,,,,,,,,,,,,1901.0,,,65b7b0e4e6fa7d632205b4b6,14:19:30,26/02/2024
html-keyboard-response,162,352537,0.0-68.0-0.0,2221.900000035763,"<div style=""display: flex; flex-direction: column; align-items: center; margin-top: -40px;""><img src=""images/pattern_4.png"" style=""width: 234px; height: 230px; margin-top: -50px;""><div style=""display: flex; justify-content: space-between; margin-top: 33px;""><img src=""images/choice_trial_4.png"" style=""width: 408px; height: 417px; margin-right: 200px;""><img src=""images/choice_trial_11.png"" style=""width: 408px; height: 417px;""></div></div>",f,delaylearn,learning,trial,rOzc3jkFM9PktkBMNeXaAb7sdns1,rOzc3jkFM9PktkBMNeXaAb7sdns1,5.0,images/choice_trial_4.png,images/choice_trial_11.png,images/pattern_4.png,j,j,7000.0,4.0,11.0,3.0,1.0,29.0,0.0,0.0,4.0,120.0,,,,,,65b7b0e4e6fa7d632205b4b6,14:19:30,26/02/2024
html-keyboard-response,163,353544,0.0-68.0-1.0,,"<div style=""display: flex; flex-direction: column; align-items: center; margin-top: -40px;""><img src=""images/pattern_4.png"" style=""width: 234px; height: 230px; margin-top: -50px;""><div style=""display: flex; justify-content: space-between; margin-top: 33px;""><img src=""images/choice_trial_4.png"" style=""width: 408px; height: 417px; margin-right: 608px;""></div></div>",,delaylearn,learning,display_response,rOzc3jkFM9PktkBMNeXaAb7sdns1,rOzc3jkFM9PktkBMNeXaAb7sdns1,,,,,,,,,,,,,,,,,chosen stimuli: images/choice_trial_4.png,,,,,65b7b0e4e6fa7d632205b4b6,14:19:30,26/02/2024
html-keyboard-response,164,360551,0.0-68.0-2.0,,,,delaylearn,learning,feedback_duration_window,rOzc3jkFM9PktkBMNeXaAb7sdns1,rOzc3jkFM9PktkBMNeXaAb7sdns1,,,,,,,,,,,,,,,,,,7000.0,,,,65b7b0e4e6fa7d632205b4b6,14:19:30,26/02/2024
html-keyboard-response,165,362057,0.0-68.0-3.0,,<div style='margin:auto;width: auto; font-size: 150%'><span style='font-weight: bold; font-size: 100px; color: red;'>0 points!</span><br><br></div>,,delaylearn,learning,feedback_image_window,rOzc3jkFM9PktkBMNeXaAb7sdns1,rOzc3jkFM9PktkBMNeXaAb7sdns1,,,,,,,,,,,,,,,,,,,,,,65b7b0e4e6fa7d632205b4b6,14:19:30,26/02/2024
html-keyboard-response,166,364274,0.0-69.0,,"<div style=""font-size:100px;"">+</div>",,delaylearn,learning,ITI,rOzc3jkFM9PktkBMNeXaAb7sdns1,rOzc3jkFM9PktkBMNeXaAb7sdns1,,,,,,,,,,,,,,,,,,,2201.0,,,65b7b0e4e6fa7d632205b4b6,14:19:30,26/02/2024
html-keyboard-response,167,365945,0.0-70.0-0.0,1668.0,"<div style=""display: flex; flex-direction: column; align-items: center; margin-top: -40px;""><img src=""images/pattern_3.png"" style=""width: 234px; height: 230px; margin-top: -50px;""><div style=""display: flex; justify-content: space-between; margin-top: 33px;""><img src=""images/choice_trial_2.png"" style=""width: 408px; height: 417px; margin-right: 200px;""><img src=""images/choice_trial_16.png"" style=""width: 408px; height: 417px;""></div></div>",j,delaylearn,learning,trial,rOzc3jkFM9PktkBMNeXaAb7sdns1,rOzc3jkFM9PktkBMNeXaAb7sdns1,5.0,images/choice_trial_2.png,images/choice_trial_16.png,images/pattern_3.png,j,j,7000.0,2.0,16.0,2.0,1.0,30.0,1.0,1.0,16.0,130.0,,,,,,65b7b0e4e6fa7d632205b4b6,14:19:30,26/02/2024
html-keyboard-response,168,366956,0.0-70.0-1.0,,"<div style=""display: flex; flex-direction: column; align-items: center; margin-top: -40px;""><img src=""images/pattern_3.png"" style=""width: 234px; height: 230px; margin-top: -50px;""><div style=""display: flex; justify-content: space-between; margin-top: 33px;""><img src=""images/choice_trial_16.png"" style=""width: 408px; height: 417px; margin-left:608px;""></div></div>",,delaylearn,learning,display_response,rOzc3jkFM9PktkBMNeXaAb7sdns1,rOzc3jkFM9PktkBMNeXaAb7sdns1,,,,,,,,,,,,,,,,,chosen stimuli: images/choice_trial_16.png,,,,,65b7b0e4e6fa7d632205b4b6,14:19:30,26/02/2024
html-keyboard-response,169,373966,0.0-70.0-2.0,,,,delaylearn,learning,feedback_duration_window,rOzc3jkFM9PktkBMNeXaAb7sdns1,rOzc3jkFM9PktkBMNeXaAb7sdns1,,,,,,,,,,,,,,,,,,7000.0,,,,65b7b0e4e6fa7d632205b4b6,14:19:30,26/02/2024
html-keyboard-response,170,375475,0.0-70.0-3.0,,<div style='margin:auto;width: auto; font-size: 150%'><span style='font-weight: bold; font-size: 100px; color: green;'>+10 points!</span><br><br></div>,,delaylearn,learning,feedback_image_window,rOzc3jkFM9PktkBMNeXaAb7sdns1,rOzc3jkFM9PktkBMNeXaAb7sdns1,,,,,,,,,,,,,,,,,,,,,,65b7b0e4e6fa7d632205b4b6,14:19:30,26/02/2024
html-keyboard-response,171,377697,0.0-71.0,,"<div style=""font-size:100px;"">+</div>",,delaylearn,learning,ITI,rOzc3jkFM9PktkBMNeXaAb7sdns1,rOzc3jkFM9PktkBMNeXaAb7sdns1,,,,,,,,,,,,,,,,,,,2211.0,,,65b7b0e4e6fa7d632205b4b6,14:19:30,26/02/2024
html-keyboard-response,172,378939,0.0-72.0-0.0,1239.4000000357628,"<div style=""display: flex; flex-direction: column; align-items: center; margin-top: -40px;""><img src=""images/pattern_5.png"" style=""width: 234px; height: 230px; margin-top: -50px;""><div style=""display: flex; justify-content: space-between; margin-top: 33px;""><img src=""images/choice_trial_7.png"" style=""width: 408px; height: 417px; margin-right: 200px;""><img src=""images/choice_trial_13.png"" style=""width: 408px; height: 417px;""></div></div>",f,delaylearn,learning,trial,rOzc3jkFM9PktkBMNeXaAb7sdns1,rOzc3jkFM9PktkBMNeXaAb7sdns1,5.0,images/choice_trial_7.png,images/choice_trial_13.png,images/pattern_5.png,j,f,750.0,7.0,13.0,4.0,0.0,31.0,1.0,0.0,7.0,130.0,,,,,,65b7b0e4e6fa7d632205b4b6,14:19:30,26/02/2024
html-keyboard-response,173,379945,0.0-72.0-1.0,,"<div style=""display: flex; flex-direction: column; align-items: center; margin-top: -40px;""><img src=""images/pattern_5.png"" style=""width: 234px; height: 230px; margin-top: -50px;""><div style=""display: flex; justify-content: space-between; margin-top: 33px;""><img src=""images/choice_trial_7.png"" style=""width: 408px; height: 417px; margin-right: 608px;""></div></div>",,delaylearn,learning,display_response,rOzc3jkFM9PktkBMNeXaAb7sdns1,rOzc3jkFM9PktkBMNeXaAb7sdns1,,,,,,,,,,,,,,,,,chosen stimuli: images/choice_trial_7.png,,,,,65b7b0e4e6fa7d632205b4b6,14:19:30,26/02/2024
html-keyboard-response,174,380703,0.0-72.0-2.0,,,,delaylearn,learning,feedback_duration_window,rOzc3jkFM9PktkBMNeXaAb7sdns1,rOzc3jkFM9PktkBMNeXaAb7sdns1,,,,,,,,,,,,,,,,,,750.0,,,,65b7b0e4e6fa7d632205b4b6,14:19:30,26/02/2024
html-keyboard-response,175,382206,0.0-72.0-3.0,,<div style='margin:auto;width: auto; font-size: 150%'><span style='font-weight: bold; font-size: 100px; color: red;'>0 points!</span><br><br></div>,,delaylearn,learning,feedback_image_window,rOzc3jkFM9PktkBMNeXaAb7sdns1,rOzc3jkFM9PktkBMNeXaAb7sdns1,,,,,,,,,,,,,,,,,,,,,,65b7b0e4e6fa7d632205b4b6,14:19:30,26/02/2024
html-keyboard-response,176,383745,0.0-73.0,,"<div style=""font-size:100px;"">+</div>",,delaylearn,learning,ITI,rOzc3jkFM9PktkBMNeXaAb7sdns1,rOzc3jkFM9PktkBMNeXaAb7sdns1,,,,,,,,,,,,,,,,,,,1530.0,,,65b7b0e4e6fa7d632205b4b6,14:19:30,26/02/2024
html-keyboard-response,177,385123,0.0-74.0-0.0,1375.8999999761581,"<div style=""display: flex; flex-direction: column; align-items: center; margin-top: -40px;""><img src=""images/pattern_1.png"" style=""width: 234px; height: 230px; margin-top: -50px;""><div style=""display: flex; justify-content: space-between; margin-top: 33px;""><img src=""images/choice_trial_6.png"" style=""width: 408px; height: 417px; margin-right: 200px;""><img src=""images/choice_trial_15.png"" style=""width: 408px; height: 417px;""></div></div>",f,delaylearn,learning,trial,rOzc3jkFM9PktkBMNeXaAb7sdns1,rOzc3jkFM9PktkBMNeXaAb7sdns1,5.0,images/choice_trial_6.png,images/choice_trial_15.png,images/pattern_1.png,f,f,7000.0,6.0,15.0,1.0,0.0,32.0,1.0,1.0,6.0,140.0,,,,,,65b7b0e4e6fa7d632205b4b6,14:19:30,26/02/2024
html-keyboard-response,178,386138,0.0-74.0-1.0,,"<div style=""display: flex; flex-direction: column; align-items: center; margin-top: -40px;""><img src=""images/pattern_1.png"" style=""width: 234px; height: 230px; margin-top: -50px;""><div style=""display: flex; justify-content: space-between; margin-top: 33px;""><img src=""images/choice_trial_6.png"" style=""width: 408px; height: 417px; margin-right: 608px;""></div></div>",,delaylearn,learning,display_response,rOzc3jkFM9PktkBMNeXaAb7sdns1,rOzc3jkFM9PktkBMNeXaAb7sdns1,,,,,,,,,,,,,,,,,chosen stimuli: images/choice_trial_6.png,,,,,65b7b0e4e6fa7d632205b4b6,14:19:30,26/02/2024
html-keyboard-response,179,393153,0.0-74.0-2.0,,,,delaylearn,learning,feedback_duration_window,rOzc3jkFM9PktkBMNeXaAb7sdns1,rOzc3jkFM9PktkBMNeXaAb7sdns1,,,,,,,,,,,,,,,,,,7000.0,,,,65b7b0e4e6fa7d632205b4b6,14:19:30,26/02/2024
html-keyboard-response,180,394655,0.0-74.0-3.0,,<div style='margin:auto;width: auto; font-size: 150%'><span style='font-weight: bold; font-size: 100px; color: green;'>+10 points!</span><br><br></div>,,delaylearn,learning,feedback_image_window,rOzc3jkFM9PktkBMNeXaAb7sdns1,rOzc3jkFM9PktkBMNeXaAb7sdns1,,,,,,,,,,,,,,,,,,,,,,65b7b0e4e6fa7d632205b4b6,14:19:30,26/02/2024
html-keyboard-response,181,395167,0.0-75.0-0.0,,,,,,mood_trial_fixation,rOzc3jkFM9PktkBMNeXaAb7sdns1,,,,,,,,,,,,,,,,,,,,,,,65b7b0e4e6fa7d632205b4b6,14:19:30,26/02/2024
lmdlab-html-vas-response,182,399487,0.0-75.0-1.0,3306.0,How happy are you right now?,0.4791666666666667,delaylearn,learning,mood_trial,rOzc3jkFM9PktkBMNeXaAb7sdns1,rOzc3jkFM9PktkBMNeXaAb7sdns1,,,,,,,,,,,,,,,,,,,,"['Very unhappy', 'Very happy']",,65b7b0e4e6fa7d632205b4b6,14:19:30,26/02/2024
html-keyboard-response,183,401109,0.0-76.0,,"<div style=""font-size:100px;"">+</div>",,delaylearn,learning,ITI,rOzc3jkFM9PktkBMNeXaAb7sdns1,rOzc3jkFM9PktkBMNeXaAb7sdns1,,,,,,,,,,,,,,,,,,,1617.0,,,65b7b0e4e6fa7d632205b4b6,14:19:30,26/02/2024
html-keyboard-response,184,403670,0.0-77.0-0.0,2557.699999988079,"<div style=""display: flex; flex-direction: column; align-items: center; margin-top: -40px;""><img src=""images/pattern_6.png"" style=""width: 234px; height: 230px; margin-top: -50px;""><div style=""display: flex; justify-content: space-between; margin-top: 33px;""><img src=""images/choice_trial_14.png"" style=""width: 408px; height: 417px; margin-right: 200px;""><img src=""images/choice_trial_9.png"" style=""width: 408px; height: 417px;""></div></div>",f,delaylearn,learning,trial,rOzc3jkFM9PktkBMNeXaAb7sdns1,rOzc3jkFM9PktkBMNeXaAb7sdns1,5.0,images/choice_trial_14.png,images/choice_trial_9.png,images/pattern_6.png,j,f,750.0,14.0,9.0,5.0,0.0,33.0,1.0,0.0,14.0,140.0,,,,,,65b7b0e4e6fa7d632205b4b6,14:19:30,26/02/2024
html-keyboard-response,185,404681,0.0-77.0-1.0,,"<div style=""display: flex; flex-direction: column; align-items: center; margin-top: -40px;""><img src=""images/pattern_6.png"" style=""width: 234px; height: 230px; margin-top: -50px;""><div style=""display: flex; justify-content: space-between; margin-top: 33px;""><img src=""images/choice_trial_14.png"" style=""width: 408px; height: 417px; margin-right: 608px;""></div></div>",,delaylearn,learning,display_response,rOzc3jkFM9PktkBMNeXaAb7sdns1,rOzc3jkFM9PktkBMNeXaAb7sdns1,,,,,,,,,,,,,,,,,chosen stimuli: images/choice_trial_14.png,,,,,65b7b0e4e6fa7d632205b4b6,14:19:30,26/02/2024
html-keyboard-response,186,405446,0.0-77.0-2.0,,,,delaylearn,learning,feedback_duration_window,rOzc3jkFM9PktkBMNeXaAb7sdns1,rOzc3jkFM9PktkBMNeXaAb7sdns1,,,,,,,,,,,,,,,,,,750.0,,,,65b7b0e4e6fa7d632205b4b6,14:19:30,26/02/2024
html-keyboard-response,187,406960,0.0-77.0-3.0,,<div style='margin:auto;width: auto; font-size: 150%'><span style='font-weight: bold; font-size: 100px; color: red;'>0 points!</span><br><br></div>,,delaylearn,learning,feedback_image_window,rOzc3jkFM9PktkBMNeXaAb7sdns1,rOzc3jkFM9PktkBMNeXaAb7sdns1,,,,,,,,,,,,,,,,,,,,,,65b7b0e4e6fa7d632205b4b6,14:19:30,26/02/2024
html-keyboard-response,188,409050,0.0-78.0,,"<div style=""font-size:100px;"">+</div>",,delaylearn,learning,ITI,rOzc3jkFM9PktkBMNeXaAb7sdns1,rOzc3jkFM9PktkBMNeXaAb7sdns1,,,,,,,,,,,,,,,,,,,2086.0,,,65b7b0e4e6fa7d632205b4b6,14:19:30,26/02/2024
html-keyboard-response,189,411139,0.0-79.0-0.0,2086.699999988079,"<div style=""display: flex; flex-direction: column; align-items: center; margin-top: -40px;""><img src=""images/pattern_3.png"" style=""width: 234px; height: 230px; margin-top: -50px;""><div style=""display: flex; justify-content: space-between; margin-top: 33px;""><img src=""images/choice_trial_2.png"" style=""width: 408px; height: 417px; margin-right: 200px;""><img src=""images/choice_trial_16.png"" style=""width: 408px; height: 417px;""></div></div>",f,delaylearn,learning,trial,rOzc3jkFM9PktkBMNeXaAb7sdns1,rOzc3jkFM9PktkBMNeXaAb7sdns1,5.0,images/choice_trial_2.png,images/choice_trial_16.png,images/pattern_3.png,j,j,7000.0,2.0,16.0,2.0,1.0,34.0,0.0,0.0,2.0,140.0,,,,,,65b7b0e4e6fa7d632205b4b6,14:19:30,26/02/2024
html-keyboard-response,190,412147,0.0-79.0-1.0,,"<div style=""display: flex; flex-direction: column; align-items: center; margin-top: -40px;""><img src=""images/pattern_3.png"" style=""width: 234px; height: 230px; margin-top: -50px;""><div style=""display: flex; justify-content: space-between; margin-top: 33px;""><img src=""images/choice_trial_2.png"" style=""width: 408px; height: 417px; margin-right: 608px;""></div></div>",,delaylearn,learning,display_response,rOzc3jkFM9PktkBMNeXaAb7sdns1,rOzc3jkFM9PktkBMNeXaAb7sdns1,,,,,,,,,,,,,,,,,chosen stimuli: images/choice_trial_2.png,,,,,65b7b0e4e6fa7d632205b4b6,14:19:30,26/02/2024
html-keyboard-response,191,419157,0.0-79.0-2.0,,,,delaylearn,learning,feedback_duration_window,rOzc3jkFM9PktkBMNeXaAb7sdns1,rOzc3jkFM9PktkBMNeXaAb7sdns1,,,,,,,,,,,,,,,,,,7000.0,,,,65b7b0e4e6fa7d632205b4b6,14:19:30,26/02/2024
html-keyboard-response,192,420660,0.0-79.0-3.0,,<div style='margin:auto;width: auto; font-size: 150%'><span style='font-weight: bold; font-size: 100px; color: red;'>0 points!</span><br><br></div>,,delaylearn,learning,feedback_image_window,rOzc3jkFM9PktkBMNeXaAb7sdns1,rOzc3jkFM9PktkBMNeXaAb7sdns1,,,,,,,,,,,,,,,,,,,,,,65b7b0e4e6fa7d632205b4b6,14:19:30,26/02/2024
html-keyboard-response,193,422490,0.0-80.0,,"<div style=""font-size:100px;"">+</div>",,delaylearn,learning,ITI,rOzc3jkFM9PktkBMNeXaAb7sdns1,rOzc3jkFM9PktkBMNeXaAb7sdns1,,,,,,,,,,,,,,,,,,,1825.0,,,65b7b0e4e6fa7d632205b4b6,14:19:30,26/02/2024
html-keyboard-response,194,424016,0.0-81.0-0.0,1521.199999988079,"<div style=""display: flex; flex-direction: column; align-items: center; margin-top: -40px;""><img src=""images/pattern_4.png"" style=""width: 234px; height: 230px; margin-top: -50px;""><div style=""display: flex; justify-content: space-between; margin-top: 33px;""><img src=""images/choice_trial_4.png"" style=""width: 408px; height: 417px; margin-right: 200px;""><img src=""images/choice_trial_11.png"" style=""width: 408px; height: 417px;""></div></div>",j,delaylearn,learning,trial,rOzc3jkFM9PktkBMNeXaAb7sdns1,rOzc3jkFM9PktkBMNeXaAb7sdns1,5.0,images/choice_trial_4.png,images/choice_trial_11.png,images/pattern_4.png,f,j,7000.0,4.0,11.0,3.0,1.0,35.0,1.0,0.0,11.0,140.0,,,,,,65b7b0e4e6fa7d632205b4b6,14:19:30,26/02/2024
html-keyboard-response,195,425049,0.0-81.0-1.0,,"<div style=""display: flex; flex-direction: column; align-items: center; margin-top: -40px;""><img src=""images/pattern_4.png"" style=""width: 234px; height: 230px; margin-top: -50px;""><div style=""display: flex; justify-content: space-between; margin-top: 33px;""><img src=""images/choice_trial_11.png"" style=""width: 408px; height: 417px; margin-left:608px;""></div></div>",,delaylearn,learning,display_response,rOzc3jkFM9PktkBMNeXaAb7sdns1,rOzc3jkFM9PktkBMNeXaAb7sdns1,,,,,,,,,,,,,,,,,chosen stimuli: images/choice_trial_11.png,,,,,65b7b0e4e6fa7d632205b4b6,14:19:30,26/02/2024
html-keyboard-response,196,432064,0.0-81.0-2.0,,,,delaylearn,learning,feedback_duration_window,rOzc3jkFM9PktkBMNeXaAb7sdns1,rOzc3jkFM9PktkBMNeXaAb7sdns1,,,,,,,,,,,,,,,,,,7000.0,,,,65b7b0e4e6fa7d632205b4b6,14:19:30,26/02/2024
html-keyboard-response,197,433569,0.0-81.0-3.0,,<div style='margin:auto;width: auto; font-size: 150%'><span style='font-weight: bold; font-size: 100px; color: red;'>0 points!</span><br><br></div>,,delaylearn,learning,feedback_image_window,rOzc3jkFM9PktkBMNeXaAb7sdns1,rOzc3jkFM9PktkBMNeXaAb7sdns1,,,,,,,,,,,,,,,,,,,,,,65b7b0e4e6fa7d632205b4b6,14:19:30,26/02/2024
html-keyboard-response,198,435636,0.0-82.0,,"<div style=""font-size:100px;"">+</div>",,delaylearn,learning,ITI,rOzc3jkFM9PktkBMNeXaAb7sdns1,rOzc3jkFM9PktkBMNeXaAb7sdns1,,,,,,,,,,,,,,,,,,,2056.0,,,65b7b0e4e6fa7d632205b4b6,14:19:30,26/02/2024
html-keyboard-response,199,437652,0.0-83.0-0.0,2012.800000011921,"<div style=""display: flex; flex-direction: column; align-items: center; margin-top: -40px;""><img src=""images/pattern_7.png"" style=""width: 234px; height: 230px; margin-top: -50px;""><div style=""display: flex; justify-content: space-between; margin-top: 33px;""><img src=""images/choice_trial_8.png"" style=""width: 408px; height: 417px; margin-right: 200px;""><img src=""images/choice_trial_10.png"" style=""width: 408px; height: 417px;""></div></div>",j,delaylearn,learning,trial,rOzc3jkFM9PktkBMNeXaAb7sdns1,rOzc3jkFM9PktkBMNeXaAb7sdns1,5.0,images/choice_trial_8.png,images/choice_trial_10.png,images/pattern_7.png,f,f,750.0,8.0,10.0,6.0,0.0,36.0,0.0,0.0,10.0,140.0,,,,,,65b7b0e4e6fa7d632205b4b6,14:19:30,26/02/2024
html-keyboard-response,200,438660,0.0-83.0-1.0,,"<div style=""display: flex; flex-direction: column; align-items: center; margin-top: -40px;""><img src=""images/pattern_7.png"" style=""width: 234px; height: 230px; margin-top: -50px;""><div style=""display: flex; justify-content: space-between; margin-top: 33px;""><img src=""images/choice_trial_10.png"" style=""width: 408px; height: 417px; margin-left:608px;""></div></div>",,delaylearn,learning,display_response,rOzc3jkFM9PktkBMNeXaAb7sdns1,rOzc3jkFM9PktkBMNeXaAb7sdns1,,,,,,,,,,,,,,,,,chosen stimuli: images/choice_trial_10.png,,,,,65b7b0e4e6fa7d632205b4b6,14:19:30,26/02/2024
html-keyboard-response,201,439421,0.0-83.0-2.0,,,,delaylearn,learning,feedback_duration_window,rOzc3jkFM9PktkBMNeXaAb7sdns1,rOzc3jkFM9PktkBMNeXaAb7sdns1,,,,,,,,,,,,,,,,,,750.0,,,,65b7b0e4e6fa7d632205b4b6,14:19:30,26/02/2024
html-keyboard-response,202,440923,0.0-83.0-3.0,,<div style='margin:auto;width: auto; font-size: 150%'><span style='font-weight: bold; font-size: 100px; color: red;'>0 points!</span><br><br></div>,,delaylearn,learning,feedback_image_window,rOzc3jkFM9PktkBMNeXaAb7sdns1,rOzc3jkFM9PktkBMNeXaAb7sdns1,,,,,,,,,,,,,,,,,,,,,,65b7b0e4e6fa7d632205b4b6,14:19:30,26/02/2024
html-keyboard-response,203,443148,0.0-84.0,,"<div style=""font-size:100px;"">+</div>",,delaylearn,learning,ITI,rOzc3jkFM9PktkBMNeXaAb7sdns1,rOzc3jkFM9PktkBMNeXaAb7sdns1,,,,,,,,,,,,,,,,,,,2219.0,,,65b7b0e4e6fa7d632205b4b6,14:19:30,26/02/2024
html-keyboard-response,204,445219,0.0-85.0-0.0,2068.300000011921,"<div style=""display: flex; flex-direction: column; align-items: center; margin-top: -40px;""><img src=""images/pattern_1.png"" style=""width: 234px; height: 230px; margin-top: -50px;""><div style=""display: flex; justify-content: space-between; margin-top: 33px;""><img src=""images/choice_trial_6.png"" style=""width: 408px; height: 417px; margin-right: 200px;""><img src=""images/choice_trial_15.png"" style=""width: 408px; height: 417px;""></div></div>",f,delaylearn,learning,trial,rOzc3jkFM9PktkBMNeXaAb7sdns1,rOzc3jkFM9PktkBMNeXaAb7sdns1,5.0,images/choice_trial_6.png,images/choice_trial_15.png,images/pattern_1.png,f,f,7000.0,6.0,15.0,1.0,0.0,37.0,1.0,1.0,6.0,150.0,,,,,,65b7b0e4e6fa7d632205b4b6,14:19:30,26/02/2024
html-keyboard-response,205,446232,0.0-85.0-1.0,,"<div style=""display: flex; flex-direction: column; align-items: center; margin-top: -40px;""><img src=""images/pattern_1.png"" style=""width: 234px; height: 230px; margin-top: -50px;""><div style=""display: flex; justify-content: space-between; margin-top: 33px;""><img src=""images/choice_trial_6.png"" style=""width: 408px; height: 417px; margin-right: 608px;""></div></div>",,delaylearn,learning,display_response,rOzc3jkFM9PktkBMNeXaAb7sdns1,rOzc3jkFM9PktkBMNeXaAb7sdns1,,,,,,,,,,,,,,,,,chosen stimuli: images/choice_trial_6.png,,,,,65b7b0e4e6fa7d632205b4b6,14:19:30,26/02/2024
html-keyboard-response,206,453238,0.0-85.0-2.0,,,,delaylearn,learning,feedback_duration_window,rOzc3jkFM9PktkBMNeXaAb7sdns1,rOzc3jkFM9PktkBMNeXaAb7sdns1,,,,,,,,,,,,,,,,,,7000.0,,,,65b7b0e4e6fa7d632205b4b6,14:19:30,26/02/2024
html-keyboard-response,207,454743,0.0-85.0-3.0,,<div style='margin:auto;width: auto; font-size: 150%'><span style='font-weight: bold; font-size: 100px; color: green;'>+10 points!</span><br><br></div>,,delaylearn,learning,feedback_image_window,rOzc3jkFM9PktkBMNeXaAb7sdns1,rOzc3jkFM9PktkBMNeXaAb7sdns1,,,,,,,,,,,,,,,,,,,,,,65b7b0e4e6fa7d632205b4b6,14:19:30,26/02/2024
html-keyboard-response,208,455252,0.0-86.0-0.0,,,,,,mood_trial_fixation,rOzc3jkFM9PktkBMNeXaAb7sdns1,,,,,,,,,,,,,,,,,,,,,,,65b7b0e4e6fa7d632205b4b6,14:19:30,26/02/2024
lmdlab-html-vas-response,209,459457,0.0-86.0-1.0,3194.0,How happy are you right now?,0.4652777777777778,delaylearn,learning,mood_trial,rOzc3jkFM9PktkBMNeXaAb7sdns1,rOzc3jkFM9PktkBMNeXaAb7sdns1,,,,,,,,,,,,,,,,,,,,"['Very unhappy', 'Very happy']",,65b7b0e4e6fa7d632205b4b6,14:19:30,26/02/2024
html-keyboard-response,210,461478,0.0-87.0,,"<div style=""font-size:100px;"">+</div>",,delaylearn,learning,ITI,rOzc3jkFM9PktkBMNeXaAb7sdns1,rOzc3jkFM9PktkBMNeXaAb7sdns1,,,,,,,,,,,,,,,,,,,2014.0,,,65b7b0e4e6fa7d632205b4b6,14:19:30,26/02/2024
html-keyboard-response,211,463705,0.0-88.0-0.0,2224.199999988079,"<div style=""display: flex; flex-direction: column; align-items: center; margin-top: -40px;""><img src=""images/pattern_3.png"" style=""width: 234px; height: 230px; margin-top: -50px;""><div style=""display: flex; justify-content: space-between; margin-top: 33px;""><img src=""images/choice_trial_16.png"" style=""width: 408px; height: 417px; margin-right: 200px;""><img src=""images/choice_trial_2.png"" style=""width: 408px; height: 417px;""></div></div>",j,delaylearn,learning,trial,rOzc3jkFM9PktkBMNeXaAb7sdns1,rOzc3jkFM9PktkBMNeXaAb7sdns1,5.0,images/choice_trial_16.png,images/choice_trial_2.png,images/pattern_3.png,j,f,7000.0,16.0,2.0,2.0,0.0,38.0,0.0,1.0,2.0,160.0,,,,,,65b7b0e4e6fa7d632205b4b6,14:19:30,26/02/2024
html-keyboard-response,212,464722,0.0-88.0-1.0,,"<div style=""display: flex; flex-direction: column; align-items: center; margin-top: -40px;""><img src=""images/pattern_3.png"" style=""width: 234px; height: 230px; margin-top: -50px;""><div style=""display: flex; justify-content: space-between; margin-top: 33px;""><img src=""images/choice_trial_2.png"" style=""width: 408px; height: 417px; margin-left:608px;""></div></div>",,delaylearn,learning,display_response,rOzc3jkFM9PktkBMNeXaAb7sdns1,rOzc3jkFM9PktkBMNeXaAb7sdns1,,,,,,,,,,,,,,,,,chosen stimuli: images/choice_trial_2.png,,,,,65b7b0e4e6fa7d632205b4b6,14:19:30,26/02/2024
html-keyboard-response,213,471731,0.0-88.0-2.0,,,,delaylearn,learning,feedback_duration_window,rOzc3jkFM9PktkBMNeXaAb7sdns1,rOzc3jkFM9PktkBMNeXaAb7sdns1,,,,,,,,,,,,,,,,,,7000.0,,,,65b7b0e4e6fa7d632205b4b6,14:19:30,26/02/2024
html-keyboard-response,214,473238,0.0-88.0-3.0,,<div style='margin:auto;width: auto; font-size: 150%'><span style='font-weight: bold; font-size: 100px; color: green;'>+10 points!</span><br><br></div>,,delaylearn,learning,feedback_image_window,rOzc3jkFM9PktkBMNeXaAb7sdns1,rOzc3jkFM9PktkBMNeXaAb7sdns1,,,,,,,,,,,,,,,,,,,,,,65b7b0e4e6fa7d632205b4b6,14:19:30,26/02/2024
html-keyboard-response,215,474758,0.0-89.0,,"<div style=""font-size:100px;"">+</div>",,delaylearn,learning,ITI,rOzc3jkFM9PktkBMNeXaAb7sdns1,rOzc3jkFM9PktkBMNeXaAb7sdns1,,,,,,,,,,,,,,,,,,,1514.0,,,65b7b0e4e6fa7d632205b4b6,14:19:30,26/02/2024
html-keyboard-response,216,476798,0.0-90.0-0.0,2036.5,"<div style=""display: flex; flex-direction: column; align-items: center; margin-top: -40px;""><img src=""images/pattern_7.png"" style=""width: 234px; height: 230px; margin-top: -50px;""><div style=""display: flex; justify-content: space-between; margin-top: 33px;""><img src=""images/choice_trial_10.png"" style=""width: 408px; height: 417px; margin-right: 200px;""><img src=""images/choice_trial_8.png"" style=""width: 408px; height: 417px;""></div></div>",j,delaylearn,learning,trial,rOzc3jkFM9PktkBMNeXaAb7sdns1,rOzc3jkFM9PktkBMNeXaAb7sdns1,5.0,images/choice_trial_10.png,images/choice_trial_8.png,images/pattern_7.png,j,j,750.0,10.0,8.0,6.0,1.0,39.0,1.0,1.0,8.0,170.0,,,,,,65b7b0e4e6fa7d632205b4b6,14:19:30,26/02/2024
html-keyboard-response,217,477801,0.0-90.0-1.0,,"<div style=""display: flex; flex-direction: column; align-items: center; margin-top: -40px;""><img src=""images/pattern_7.png"" style=""width: 234px; height: 230px; margin-top: -50px;""><div style=""display: flex; justify-content: space-between; margin-top: 33px;""><img src=""images/choice_trial_8.png"" style=""width: 408px; height: 417px; margin-left:608px;""></div></div>",,delaylearn,learning,display_response,rOzc3jkFM9PktkBMNeXaAb7sdns1,rOzc3jkFM9PktkBMNeXaAb7sdns1,,,,,,,,,,,,,,,,,chosen stimuli: images/choice_trial_8.png,,,,,65b7b0e4e6fa7d632205b4b6,14:19:30,26/02/2024
html-keyboard-response,218,478560,0.0-90.0-2.0,,,,delaylearn,learning,feedback_duration_window,rOzc3jkFM9PktkBMNeXaAb7sdns1,rOzc3jkFM9PktkBMNeXaAb7sdns1,,,,,,,,,,,,,,,,,,750.0,,,,65b7b0e4e6fa7d632205b4b6,14:19:30,26/02/2024
html-keyboard-response,219,480062,0.0-90.0-3.0,,<div style='margin:auto;width: auto; font-size: 150%'><span style='font-weight: bold; font-size: 100px; color: green;'>+10 points!</span><br><br></div>,,delaylearn,learning,feedback_image_window,rOzc3jkFM9PktkBMNeXaAb7sdns1,rOzc3jkFM9PktkBMNeXaAb7sdns1,,,,,,,,,,,,,,,,,,,,,,65b7b0e4e6fa7d632205b4b6,14:19:30,26/02/2024
html-keyboard-response,220,482405,0.0-91.0,,"<div style=""font-size:100px;"">+</div>",,delaylearn,learning,ITI,rOzc3jkFM9PktkBMNeXaAb7sdns1,rOzc3jkFM9PktkBMNeXaAb7sdns1,,,,,,,,,,,,,,,,,,,2335.0,,,65b7b0e4e6fa7d632205b4b6,14:19:30,26/02/2024
html-keyboard-response,221,484751,0.0-92.0-0.0,2342.699999988079,"<div style=""display: flex; flex-direction: column; align-items: center; margin-top: -40px;""><img src=""images/pattern_5.png"" style=""width: 234px; height: 230px; margin-top: -50px;""><div style=""display: flex; justify-content: space-between; margin-top: 33px;""><img src=""images/choice_trial_13.png"" style=""width: 408px; height: 417px; margin-right: 200px;""><img src=""images/choice_trial_7.png"" style=""width: 408px; height: 417px;""></div></div>",f,delaylearn,learning,trial,rOzc3jkFM9PktkBMNeXaAb7sdns1,rOzc3jkFM9PktkBMNeXaAb7sdns1,5.0,images/choice_trial_13.png,images/choice_trial_7.png,images/pattern_5.png,j,j,750.0,13.0,7.0,4.0,1.0,40.0,0.0,0.0,13.0,170.0,,,,,,65b7b0e4e6fa7d632205b4b6,14:19:30,26/02/2024
html-keyboard-response,222,485766,0.0-92.0-1.0,,"<div style=""display: flex; flex-direction: column; align-items: center; margin-top: -40px;""><img src=""images/pattern_5.png"" style=""width: 234px; height: 230px; margin-top: -50px;""><div style=""display: flex; justify-content: space-between; margin-top: 33px;""><img src=""images/choice_trial_13.png"" style=""width: 408px; height: 417px; margin-right: 608px;""></div></div>",,delaylearn,learning,display_response,rOzc3jkFM9PktkBMNeXaAb7sdns1,rOzc3jkFM9PktkBMNeXaAb7sdns1,,,,,,,,,,,,,,,,,chosen stimuli: images/choice_trial_13.png,,,,,65b7b0e4e6fa7d632205b4b6,14:19:30,26/02/2024
html-keyboard-response,223,486523,0.0-92.0-2.0,,,,delaylearn,learning,feedback_duration_window,rOzc3jkFM9PktkBMNeXaAb7sdns1,rOzc3jkFM9PktkBMNeXaAb7sdns1,,,,,,,,,,,,,,,,,,750.0,,,,65b7b0e4e6fa7d632205b4b6,14:19:30,26/02/2024
html-keyboard-response,224,488040,0.0-92.0-3.0,,<div style='margin:auto;width: auto; font-size: 150%'><span style='font-weight: bold; font-size: 100px; color: red;'>0 points!</span><br><br></div>,,delaylearn,learning,feedback_image_window,rOzc3jkFM9PktkBMNeXaAb7sdns1,rOzc3jkFM9PktkBMNeXaAb7sdns1,,,,,,,,,,,,,,,,,,,,,,65b7b0e4e6fa7d632205b4b6,14:19:30,26/02/2024
html-keyboard-response,225,488553,0.0-93.0-0.0,,,,,,mood_trial_fixation,rOzc3jkFM9PktkBMNeXaAb7sdns1,,,,,,,,,,,,,,,,,,,,,,,65b7b0e4e6fa7d632205b4b6,14:19:30,26/02/2024
lmdlab-html-vas-response,226,492562,0.0-93.0-1.0,2998.0,How happy are you right now?,0.5,delaylearn,learning,mood_trial,rOzc3jkFM9PktkBMNeXaAb7sdns1,rOzc3jkFM9PktkBMNeXaAb7sdns1,,,,,,,,,,,,,,,,,,,,"['Very unhappy', 'Very happy']",,65b7b0e4e6fa7d632205b4b6,14:19:30,26/02/2024
html-keyboard-response,227,494891,0.0-94.0,,"<div style=""font-size:100px;"">+</div>",,delaylearn,learning,ITI,rOzc3jkFM9PktkBMNeXaAb7sdns1,rOzc3jkFM9PktkBMNeXaAb7sdns1,,,,,,,,,,,,,,,,,,,2318.0,,,65b7b0e4e6fa7d632205b4b6,14:19:30,26/02/2024
html-keyboard-response,228,496563,0.0-95.0-0.0,1668.300000011921,"<div style=""display: flex; flex-direction: column; align-items: center; margin-top: -40px;""><img src=""images/pattern_4.png"" style=""width: 234px; height: 230px; margin-top: -50px;""><div style=""display: flex; justify-content: space-between; margin-top: 33px;""><img src=""images/choice_trial_11.png"" style=""width: 408px; height: 417px; margin-right: 200px;""><img src=""images/choice_trial_4.png"" style=""width: 408px; height: 417px;""></div></div>",j,delaylearn,learning,trial,rOzc3jkFM9PktkBMNeXaAb7sdns1,rOzc3jkFM9PktkBMNeXaAb7sdns1,5.0,images/choice_trial_11.png,images/choice_trial_4.png,images/pattern_4.png,f,f,7000.0,11.0,4.0,3.0,0.0,41.0,0.0,0.0,4.0,170.0,,,,,,65b7b0e4e6fa7d632205b4b6,14:19:30,26/02/2024
html-keyboard-response,229,497567,0.0-95.0-1.0,,"<div style=""display: flex; flex-direction: column; align-items: center; margin-top: -40px;""><img src=""images/pattern_4.png"" style=""width: 234px; height: 230px; margin-top: -50px;""><div style=""display: flex; justify-content: space-between; margin-top: 33px;""><img src=""images/choice_trial_4.png"" style=""width: 408px; height: 417px; margin-left:608px;""></div></div>",,delaylearn,learning,display_response,rOzc3jkFM9PktkBMNeXaAb7sdns1,rOzc3jkFM9PktkBMNeXaAb7sdns1,,,,,,,,,,,,,,,,,chosen stimuli: images/choice_trial_4.png,,,,,65b7b0e4e6fa7d632205b4b6,14:19:30,26/02/2024
html-keyboard-response,230,504581,0.0-95.0-2.0,,,,delaylearn,learning,feedback_duration_window,rOzc3jkFM9PktkBMNeXaAb7sdns1,rOzc3jkFM9PktkBMNeXaAb7sdns1,,,,,,,,,,,,,,,,,,7000.0,,,,65b7b0e4e6fa7d632205b4b6,14:19:30,26/02/2024
html-keyboard-response,231,506087,0.0-95.0-3.0,,<div style='margin:auto;width: auto; font-size: 150%'><span style='font-weight: bold; font-size: 100px; color: red;'>0 points!</span><br><br></div>,,delaylearn,learning,feedback_image_window,rOzc3jkFM9PktkBMNeXaAb7sdns1,rOzc3jkFM9PktkBMNeXaAb7sdns1,,,,,,,,,,,,,,,,,,,,,,65b7b0e4e6fa7d632205b4b6,14:19:30,26/02/2024
html-keyboard-response,232,508314,0.0-96.0,,"<div style=""font-size:100px;"">+</div>",,delaylearn,learning,ITI,rOzc3jkFM9PktkBMNeXaAb7sdns1,rOzc3jkFM9PktkBMNeXaAb7sdns1,,,,,,,,,,,,,,,,,,,2215.0,,,65b7b0e4e6fa7d632205b4b6,14:19:30,26/02/2024
