trial_type,trial_index,time_elapsed,internal_node_id,rt,stimulus,response,exp_name,exp_stage,test_part,subjectID,databaseID,counterbal,choice_stimuli_1,choice_stimuli_2,pattern_stimuli,rewarded_answer,correct_answer,feedback_duration_times,stim_left,stim_right,pair,leftright_counter,trial,response_correct,response_rewarded,chosen_stim,counter,displayed_choice,feedback_durations,ITI_duration,labels,rest_warning,prolificID,start_time,date
pavlovia,0,542,0.0-0.0,,,,,,,A3CcGs9GTjhEtSfPIQz2sI07zDZ2,,,,,,,,,,,,,,,,,,,,,,,63d1412396ee4fa133b52643,09:05:38,27/02/2024
html-keyboard-response,1,3546,0.0-1.0,,"<div style=""font-size:100px;"">+</div>",,delaylearn,learning,pre_fixation,A3CcGs9GTjhEtSfPIQz2sI07zDZ2,,,,,,,,,,,,,,,,,,,,,,,63d1412396ee4fa133b52643,09:05:38,27/02/2024
html-keyboard-response,2,4645,0.0-2.0-0.0,1097.6000000238419,"<div style=""display: flex; flex-direction: column; align-items: center; margin-top: -40px;""><img src=""images/demo_images/pattern_1.png"" style=""width: 234px; height: 230px; margin-top: -50px;""><div style=""display: flex; justify-content: space-between; margin-top: 33px;""><img src=""images/demo_images/choice_trial_2.png"" style=""width: 408px; height: 417px; margin-right: 200px;""><img src=""images/demo_images/choice_trial_1.png"" style=""width: 408px; height: 417px;""></div></div>",f,delaylearn,learning,trial,A3CcGs9GTjhEtSfPIQz2sI07zDZ2,A3CcGs9GTjhEtSfPIQz2sI07zDZ2,2.0,images/demo_images/choice_trial_2.png,images/demo_images/choice_trial_1.png,images/demo_images/pattern_1.png,j,j,3000.0,2.0,1.0,20.0,1.0,1.0,0.0,0.0,2.0,0.0,,,,,,63d1412396ee4fa133b52643,09:05:38,27/02/2024
html-keyboard-response,3,5660,0.0-2.0-1.0,,"<div style=""display: flex; flex-direction: column; align-items: center; margin-top: -40px;""><img src=""images/demo_images/pattern_1.png"" style=""width: 234px; height: 230px; margin-top: -50px;""><div style=""display: flex; justify-content: space-between; margin-top: 33px;""><img src=""images/demo_images/choice_trial_2.png"" style=""width: 408px; height: 417px; margin-right: 608px;""></div></div>",,delaylearn,learning,display_response,A3CcGs9GTjhEtSfPIQz2sI07zDZ2,A3CcGs9GTjhEtSfPIQz2sI07zDZ2,,,,,,,,,,,,,,,,,chosen stimuli: images/demo_images/choice_trial_2.png,,,,,63d1412396ee4fa133b52643,09:05:38,27/02/2024
html-keyboard-response,4,8664,0.0-2.0-2.0,,,,delaylearn,learning,feedback_duration_window,A3CcGs9GTjhEtSfPIQz2sI07zDZ2,A3CcGs9GTjhEtSfPIQz2sI07zDZ2,,,,,,,,,,,,,,,,,,3000.0,,,,63d1412396ee4fa133b52643,09:05:38,27/02/2024
html-keyboard-response,5,10168,0.0-2.0-3.0,,<div style='margin:auto;width: auto; font-size: 150%'><span style='font-weight: bold; font-size: 100px; color: red;'>0 points!</span><br><br></div>,,delaylearn,learning,feedback_image_window,A3CcGs9GTjhEtSfPIQz2sI07zDZ2,A3CcGs9GTjhEtSfPIQz2sI07zDZ2,,,,,,,,,,,,,,,,,,,,,,63d1412396ee4fa133b52643,09:05:38,27/02/2024
html-keyboard-response,6,11976,0.0-3.0,,"<div style=""font-size:100px;"">+</div>",,delaylearn,learning,ITI,A3CcGs9GTjhEtSfPIQz2sI07zDZ2,A3CcGs9GTjhEtSfPIQz2sI07zDZ2,,,,,,,,,,,,,,,,,,,1799.0,,,63d1412396ee4fa133b52643,09:05:38,27/02/2024
html-keyboard-response,7,13084,0.0-4.0-0.0,1105.6000000238419,"<div style=""display: flex; flex-direction: column; align-items: center; margin-top: -40px;""><img src=""images/demo_images/pattern_1.png"" style=""width: 234px; height: 230px; margin-top: -50px;""><div style=""display: flex; justify-content: space-between; margin-top: 33px;""><img src=""images/demo_images/choice_trial_2.png"" style=""width: 408px; height: 417px; margin-right: 200px;""><img src=""images/demo_images/choice_trial_1.png"" style=""width: 408px; height: 417px;""></div></div>",j,delaylearn,learning,trial,A3CcGs9GTjhEtSfPIQz2sI07zDZ2,A3CcGs9GTjhEtSfPIQz2sI07zDZ2,2.0,images/demo_images/choice_trial_2.png,images/demo_images/choice_trial_1.png,images/demo_images/pattern_1.png,j,j,3000.0,2.0,1.0,20.0,1.0,2.0,1.0,1.0,1.0,10.0,,,,,,63d1412396ee4fa133b52643,09:05:38,27/02/2024
html-keyboard-response,8,14097,0.0-4.0-1.0,,"<div style=""display: flex; flex-direction: column; align-items: center; margin-top: -40px;""><img src=""images/demo_images/pattern_1.png"" style=""width: 234px; height: 230px; margin-top: -50px;""><div style=""display: flex; justify-content: space-between; margin-top: 33px;""><img src=""images/demo_images/choice_trial_1.png"" style=""width: 408px; height: 417px; margin-left:608px;""></div></div>",,delaylearn,learning,display_response,A3CcGs9GTjhEtSfPIQz2sI07zDZ2,A3CcGs9GTjhEtSfPIQz2sI07zDZ2,,,,,,,,,,,,,,,,,chosen stimuli: images/demo_images/choice_trial_1.png,,,,,63d1412396ee4fa133b52643,09:05:38,27/02/2024
html-keyboard-response,9,17109,0.0-4.0-2.0,,,,delaylearn,learning,feedback_duration_window,A3CcGs9GTjhEtSfPIQz2sI07zDZ2,A3CcGs9GTjhEtSfPIQz2sI07zDZ2,,,,,,,,,,,,,,,,,,3000.0,,,,63d1412396ee4fa133b52643,09:05:38,27/02/2024
html-keyboard-response,10,18616,0.0-4.0-3.0,,<div style='margin:auto;width: auto; font-size: 150%'><span style='font-weight: bold; font-size: 100px; color: green;'>+10 points!</span><br><br></div>,,delaylearn,learning,feedback_image_window,A3CcGs9GTjhEtSfPIQz2sI07zDZ2,A3CcGs9GTjhEtSfPIQz2sI07zDZ2,,,,,,,,,,,,,,,,,,,,,,63d1412396ee4fa133b52643,09:05:38,27/02/2024
html-keyboard-response,11,20414,0.0-5.0,,"<div style=""font-size:100px;"">+</div>",,delaylearn,learning,ITI,A3CcGs9GTjhEtSfPIQz2sI07zDZ2,A3CcGs9GTjhEtSfPIQz2sI07zDZ2,,,,,,,,,,,,,,,,,,,1792.0,,,63d1412396ee4fa133b52643,09:05:38,27/02/2024
html-keyboard-response,12,21212,0.0-6.0-0.0,796.1999999284744,"<div style=""display: flex; flex-direction: column; align-items: center; margin-top: -40px;""><img src=""images/demo_images/pattern_1.png"" style=""width: 234px; height: 230px; margin-top: -50px;""><div style=""display: flex; justify-content: space-between; margin-top: 33px;""><img src=""images/demo_images/choice_trial_1.png"" style=""width: 408px; height: 417px; margin-right: 200px;""><img src=""images/demo_images/choice_trial_2.png"" style=""width: 408px; height: 417px;""></div></div>",f,delaylearn,learning,trial,A3CcGs9GTjhEtSfPIQz2sI07zDZ2,A3CcGs9GTjhEtSfPIQz2sI07zDZ2,2.0,images/demo_images/choice_trial_1.png,images/demo_images/choice_trial_2.png,images/demo_images/pattern_1.png,j,f,3000.0,1.0,2.0,20.0,0.0,3.0,1.0,0.0,1.0,10.0,,,,,,63d1412396ee4fa133b52643,09:05:38,27/02/2024
html-keyboard-response,13,22228,0.0-6.0-1.0,,"<div style=""display: flex; flex-direction: column; align-items: center; margin-top: -40px;""><img src=""images/demo_images/pattern_1.png"" style=""width: 234px; height: 230px; margin-top: -50px;""><div style=""display: flex; justify-content: space-between; margin-top: 33px;""><img src=""images/demo_images/choice_trial_1.png"" style=""width: 408px; height: 417px; margin-right: 608px;""></div></div>",,delaylearn,learning,display_response,A3CcGs9GTjhEtSfPIQz2sI07zDZ2,A3CcGs9GTjhEtSfPIQz2sI07zDZ2,,,,,,,,,,,,,,,,,chosen stimuli: images/demo_images/choice_trial_1.png,,,,,63d1412396ee4fa133b52643,09:05:38,27/02/2024
html-keyboard-response,14,25236,0.0-6.0-2.0,,,,delaylearn,learning,feedback_duration_window,A3CcGs9GTjhEtSfPIQz2sI07zDZ2,A3CcGs9GTjhEtSfPIQz2sI07zDZ2,,,,,,,,,,,,,,,,,,3000.0,,,,63d1412396ee4fa133b52643,09:05:38,27/02/2024
html-keyboard-response,15,26750,0.0-6.0-3.0,,<div style='margin:auto;width: auto; font-size: 150%'><span style='font-weight: bold; font-size: 100px; color: red;'>0 points!</span><br><br></div>,,delaylearn,learning,feedback_image_window,A3CcGs9GTjhEtSfPIQz2sI07zDZ2,A3CcGs9GTjhEtSfPIQz2sI07zDZ2,,,,,,,,,,,,,,,,,,,,,,63d1412396ee4fa133b52643,09:05:38,27/02/2024
html-keyboard-response,16,28359,0.0-7.0,,"<div style=""font-size:100px;"">+</div>",,delaylearn,learning,ITI,A3CcGs9GTjhEtSfPIQz2sI07zDZ2,A3CcGs9GTjhEtSfPIQz2sI07zDZ2,,,,,,,,,,,,,,,,,,,1603.0,,,63d1412396ee4fa133b52643,09:05:38,27/02/2024
html-keyboard-response,17,30276,0.0-8.0-0.0,1915.2999999523163,"<div style=""display: flex; flex-direction: column; align-items: center; margin-top: -40px;""><img src=""images/demo_images/pattern_1.png"" style=""width: 234px; height: 230px; margin-top: -50px;""><div style=""display: flex; justify-content: space-between; margin-top: 33px;""><img src=""images/demo_images/choice_trial_1.png"" style=""width: 408px; height: 417px; margin-right: 200px;""><img src=""images/demo_images/choice_trial_2.png"" style=""width: 408px; height: 417px;""></div></div>",j,delaylearn,learning,trial,A3CcGs9GTjhEtSfPIQz2sI07zDZ2,A3CcGs9GTjhEtSfPIQz2sI07zDZ2,2.0,images/demo_images/choice_trial_1.png,images/demo_images/choice_trial_2.png,images/demo_images/pattern_1.png,f,f,3000.0,1.0,2.0,20.0,0.0,4.0,0.0,0.0,2.0,10.0,,,,,,63d1412396ee4fa133b52643,09:05:38,27/02/2024
html-keyboard-response,18,31286,0.0-8.0-1.0,,"<div style=""display: flex; flex-direction: column; align-items: center; margin-top: -40px;""><img src=""images/demo_images/pattern_1.png"" style=""width: 234px; height: 230px; margin-top: -50px;""><div style=""display: flex; justify-content: space-between; margin-top: 33px;""><img src=""images/demo_images/choice_trial_2.png"" style=""width: 408px; height: 417px; margin-left:608px;""></div></div>",,delaylearn,learning,display_response,A3CcGs9GTjhEtSfPIQz2sI07zDZ2,A3CcGs9GTjhEtSfPIQz2sI07zDZ2,,,,,,,,,,,,,,,,,chosen stimuli: images/demo_images/choice_trial_2.png,,,,,63d1412396ee4fa133b52643,09:05:38,27/02/2024
html-keyboard-response,19,34298,0.0-8.0-2.0,,,,delaylearn,learning,feedback_duration_window,A3CcGs9GTjhEtSfPIQz2sI07zDZ2,A3CcGs9GTjhEtSfPIQz2sI07zDZ2,,,,,,,,,,,,,,,,,,3000.0,,,,63d1412396ee4fa133b52643,09:05:38,27/02/2024
html-keyboard-response,20,35802,0.0-8.0-3.0,,<div style='margin:auto;width: auto; font-size: 150%'><span style='font-weight: bold; font-size: 100px; color: red;'>0 points!</span><br><br></div>,,delaylearn,learning,feedback_image_window,A3CcGs9GTjhEtSfPIQz2sI07zDZ2,A3CcGs9GTjhEtSfPIQz2sI07zDZ2,,,,,,,,,,,,,,,,,,,,,,63d1412396ee4fa133b52643,09:05:38,27/02/2024
html-keyboard-response,21,36313,0.0-9.0-0.0,,,,,,mood_trial_fixation,A3CcGs9GTjhEtSfPIQz2sI07zDZ2,,,,,,,,,,,,,,,,,,,,,,,63d1412396ee4fa133b52643,09:05:38,27/02/2024
lmdlab-html-vas-response,22,40321,0.0-9.0-1.0,2988.0,How happy are you right now?,0.3256172839506173,delaylearn,learning,mood_trial,A3CcGs9GTjhEtSfPIQz2sI07zDZ2,A3CcGs9GTjhEtSfPIQz2sI07zDZ2,,,,,,,,,,,,,,,,,,,,"['Very unhappy', 'Very happy']",,63d1412396ee4fa133b52643,09:05:38,27/02/2024
html-keyboard-response,23,42635,0.0-10.0,,"<div style=""font-size:100px;"">+</div>",,delaylearn,learning,ITI,A3CcGs9GTjhEtSfPIQz2sI07zDZ2,A3CcGs9GTjhEtSfPIQz2sI07zDZ2,,,,,,,,,,,,,,,,,,,2304.0,,,63d1412396ee4fa133b52643,09:05:38,27/02/2024
html-keyboard-response,24,43203,0.0-11.0-0.0,566.7000000476837,"<div style=""display: flex; flex-direction: column; align-items: center; margin-top: -40px;""><img src=""images/demo_images/pattern_1.png"" style=""width: 234px; height: 230px; margin-top: -50px;""><div style=""display: flex; justify-content: space-between; margin-top: 33px;""><img src=""images/demo_images/choice_trial_2.png"" style=""width: 408px; height: 417px; margin-right: 200px;""><img src=""images/demo_images/choice_trial_1.png"" style=""width: 408px; height: 417px;""></div></div>",j,delaylearn,learning,trial,A3CcGs9GTjhEtSfPIQz2sI07zDZ2,A3CcGs9GTjhEtSfPIQz2sI07zDZ2,2.0,images/demo_images/choice_trial_2.png,images/demo_images/choice_trial_1.png,images/demo_images/pattern_1.png,j,j,3000.0,2.0,1.0,20.0,1.0,5.0,1.0,1.0,1.0,20.0,,,,,,63d1412396ee4fa133b52643,09:05:38,27/02/2024
html-keyboard-response,25,44213,0.0-11.0-1.0,,"<div style=""display: flex; flex-direction: column; align-items: center; margin-top: -40px;""><img src=""images/demo_images/pattern_1.png"" style=""width: 234px; height: 230px; margin-top: -50px;""><div style=""display: flex; justify-content: space-between; margin-top: 33px;""><img src=""images/demo_images/choice_trial_1.png"" style=""width: 408px; height: 417px; margin-left:608px;""></div></div>",,delaylearn,learning,display_response,A3CcGs9GTjhEtSfPIQz2sI07zDZ2,A3CcGs9GTjhEtSfPIQz2sI07zDZ2,,,,,,,,,,,,,,,,,chosen stimuli: images/demo_images/choice_trial_1.png,,,,,63d1412396ee4fa133b52643,09:05:38,27/02/2024
html-keyboard-response,26,47227,0.0-11.0-2.0,,,,delaylearn,learning,feedback_duration_window,A3CcGs9GTjhEtSfPIQz2sI07zDZ2,A3CcGs9GTjhEtSfPIQz2sI07zDZ2,,,,,,,,,,,,,,,,,,3000.0,,,,63d1412396ee4fa133b52643,09:05:38,27/02/2024
html-keyboard-response,27,48741,0.0-11.0-3.0,,<div style='margin:auto;width: auto; font-size: 150%'><span style='font-weight: bold; font-size: 100px; color: green;'>+10 points!</span><br><br></div>,,delaylearn,learning,feedback_image_window,A3CcGs9GTjhEtSfPIQz2sI07zDZ2,A3CcGs9GTjhEtSfPIQz2sI07zDZ2,,,,,,,,,,,,,,,,,,,,,,63d1412396ee4fa133b52643,09:05:38,27/02/2024
html-keyboard-response,28,50678,0.0-12.0,,"<div style=""font-size:100px;"">+</div>",,delaylearn,learning,ITI,A3CcGs9GTjhEtSfPIQz2sI07zDZ2,A3CcGs9GTjhEtSfPIQz2sI07zDZ2,,,,,,,,,,,,,,,,,,,1928.0,,,63d1412396ee4fa133b52643,09:05:38,27/02/2024
html-keyboard-response,29,51156,0.0-13.0-0.0,476.2999999523163,"<div style=""display: flex; flex-direction: column; align-items: center; margin-top: -40px;""><img src=""images/demo_images/pattern_1.png"" style=""width: 234px; height: 230px; margin-top: -50px;""><div style=""display: flex; justify-content: space-between; margin-top: 33px;""><img src=""images/demo_images/choice_trial_1.png"" style=""width: 408px; height: 417px; margin-right: 200px;""><img src=""images/demo_images/choice_trial_2.png"" style=""width: 408px; height: 417px;""></div></div>",f,delaylearn,learning,trial,A3CcGs9GTjhEtSfPIQz2sI07zDZ2,A3CcGs9GTjhEtSfPIQz2sI07zDZ2,2.0,images/demo_images/choice_trial_1.png,images/demo_images/choice_trial_2.png,images/demo_images/pattern_1.png,f,f,3000.0,1.0,2.0,20.0,0.0,6.0,1.0,1.0,1.0,30.0,,,,,,63d1412396ee4fa133b52643,09:05:38,27/02/2024
html-keyboard-response,30,52172,0.0-13.0-1.0,,"<div style=""display: flex; flex-direction: column; align-items: center; margin-top: -40px;""><img src=""images/demo_images/pattern_1.png"" style=""width: 234px; height: 230px; margin-top: -50px;""><div style=""display: flex; justify-content: space-between; margin-top: 33px;""><img src=""images/demo_images/choice_trial_1.png"" style=""width: 408px; height: 417px; margin-right: 608px;""></div></div>",,delaylearn,learning,display_response,A3CcGs9GTjhEtSfPIQz2sI07zDZ2,A3CcGs9GTjhEtSfPIQz2sI07zDZ2,,,,,,,,,,,,,,,,,chosen stimuli: images/demo_images/choice_trial_1.png,,,,,63d1412396ee4fa133b52643,09:05:38,27/02/2024
html-keyboard-response,31,55181,0.0-13.0-2.0,,,,delaylearn,learning,feedback_duration_window,A3CcGs9GTjhEtSfPIQz2sI07zDZ2,A3CcGs9GTjhEtSfPIQz2sI07zDZ2,,,,,,,,,,,,,,,,,,3000.0,,,,63d1412396ee4fa133b52643,09:05:38,27/02/2024
html-keyboard-response,32,56691,0.0-13.0-3.0,,<div style='margin:auto;width: auto; font-size: 150%'><span style='font-weight: bold; font-size: 100px; color: green;'>+10 points!</span><br><br></div>,,delaylearn,learning,feedback_image_window,A3CcGs9GTjhEtSfPIQz2sI07zDZ2,A3CcGs9GTjhEtSfPIQz2sI07zDZ2,,,,,,,,,,,,,,,,,,,,,,63d1412396ee4fa133b52643,09:05:38,27/02/2024
html-button-response,33,59306,0.0-14.0,2614.100000023842,"
  <div style=""display: flex; align-items: center; justify-content: center; height: 80vh;"">
  <div>
          <img src=""images/inst_demo_finish.png"" style=""width: 80vw; height:auto;"">
          <br><br>
      </div>
      <br><br>
  </div>",0,,,,A3CcGs9GTjhEtSfPIQz2sI07zDZ2,,,,,,,,,,,,,,,,,,,,,,,63d1412396ee4fa133b52643,09:05:38,27/02/2024
html-keyboard-response,34,65556,0.0-15.0,6249.200000047684,"
  <div style=""display: flex; align-items: center; justify-content: center; height: 80vh;"">
  <div>
          <img src=""images/inst_6.png"" style=""width: 80vw; height:auto;"">
          <br><br>
      </div>
      <br><br>
  </div>",j,,,,A3CcGs9GTjhEtSfPIQz2sI07zDZ2,,,,,,,,,,,,,,,,,,,,,,,63d1412396ee4fa133b52643,09:05:38,27/02/2024
html-keyboard-response,35,68561,0.0-16.0,,"<div style=""font-size:100px;"">+</div>",,delaylearn,learning,pre_fixation,A3CcGs9GTjhEtSfPIQz2sI07zDZ2,,,,,,,,,,,,,,,,,,,,,,,63d1412396ee4fa133b52643,09:05:38,27/02/2024
html-keyboard-response,36,70207,0.0-17.0,,"<div style=""font-size:100px;"">+</div>",,delaylearn,learning,ITI,A3CcGs9GTjhEtSfPIQz2sI07zDZ2,A3CcGs9GTjhEtSfPIQz2sI07zDZ2,,,,,,,,,,,,,,,,,,,1638.0,,,63d1412396ee4fa133b52643,09:05:38,27/02/2024
html-keyboard-response,37,71835,0.0-18.0-0.0,1626.6999999284744,"<div style=""display: flex; flex-direction: column; align-items: center; margin-top: -40px;""><img src=""images/pattern_3.png"" style=""width: 234px; height: 230px; margin-top: -50px;""><div style=""display: flex; justify-content: space-between; margin-top: 33px;""><img src=""images/choice_trial_12.png"" style=""width: 408px; height: 417px; margin-right: 200px;""><img src=""images/choice_trial_14.png"" style=""width: 408px; height: 417px;""></div></div>",j,delaylearn,learning,trial,A3CcGs9GTjhEtSfPIQz2sI07zDZ2,A3CcGs9GTjhEtSfPIQz2sI07zDZ2,2.0,images/choice_trial_12.png,images/choice_trial_14.png,images/pattern_3.png,f,f,7000.0,12.0,14.0,2.0,0.0,7.0,0.0,0.0,14.0,30.0,,,,,,63d1412396ee4fa133b52643,09:05:38,27/02/2024
html-keyboard-response,38,72852,0.0-18.0-1.0,,"<div style=""display: flex; flex-direction: column; align-items: center; margin-top: -40px;""><img src=""images/pattern_3.png"" style=""width: 234px; height: 230px; margin-top: -50px;""><div style=""display: flex; justify-content: space-between; margin-top: 33px;""><img src=""images/choice_trial_14.png"" style=""width: 408px; height: 417px; margin-left:608px;""></div></div>",,delaylearn,learning,display_response,A3CcGs9GTjhEtSfPIQz2sI07zDZ2,A3CcGs9GTjhEtSfPIQz2sI07zDZ2,,,,,,,,,,,,,,,,,chosen stimuli: images/choice_trial_14.png,,,,,63d1412396ee4fa133b52643,09:05:38,27/02/2024
html-keyboard-response,39,79866,0.0-18.0-2.0,,,,delaylearn,learning,feedback_duration_window,A3CcGs9GTjhEtSfPIQz2sI07zDZ2,A3CcGs9GTjhEtSfPIQz2sI07zDZ2,,,,,,,,,,,,,,,,,,7000.0,,,,63d1412396ee4fa133b52643,09:05:38,27/02/2024
html-keyboard-response,40,81380,0.0-18.0-3.0,,<div style='margin:auto;width: auto; font-size: 150%'><span style='font-weight: bold; font-size: 100px; color: red;'>0 points!</span><br><br></div>,,delaylearn,learning,feedback_image_window,A3CcGs9GTjhEtSfPIQz2sI07zDZ2,A3CcGs9GTjhEtSfPIQz2sI07zDZ2,,,,,,,,,,,,,,,,,,,,,,63d1412396ee4fa133b52643,09:05:38,27/02/2024
html-keyboard-response,41,83590,0.0-19.0,,"<div style=""font-size:100px;"">+</div>",,delaylearn,learning,ITI,A3CcGs9GTjhEtSfPIQz2sI07zDZ2,A3CcGs9GTjhEtSfPIQz2sI07zDZ2,,,,,,,,,,,,,,,,,,,2210.0,,,63d1412396ee4fa133b52643,09:05:38,27/02/2024
html-keyboard-response,42,85292,0.0-20.0-0.0,1699.9000000953674,"<div style=""display: flex; flex-direction: column; align-items: center; margin-top: -40px;""><img src=""images/pattern_7.png"" style=""width: 234px; height: 230px; margin-top: -50px;""><div style=""display: flex; justify-content: space-between; margin-top: 33px;""><img src=""images/choice_trial_15.png"" style=""width: 408px; height: 417px; margin-right: 200px;""><img src=""images/choice_trial_8.png"" style=""width: 408px; height: 417px;""></div></div>",f,delaylearn,learning,trial,A3CcGs9GTjhEtSfPIQz2sI07zDZ2,A3CcGs9GTjhEtSfPIQz2sI07zDZ2,2.0,images/choice_trial_15.png,images/choice_trial_8.png,images/pattern_7.png,j,j,750.0,15.0,8.0,6.0,1.0,8.0,0.0,0.0,15.0,30.0,,,,,,63d1412396ee4fa133b52643,09:05:38,27/02/2024
html-keyboard-response,43,86307,0.0-20.0-1.0,,"<div style=""display: flex; flex-direction: column; align-items: center; margin-top: -40px;""><img src=""images/pattern_7.png"" style=""width: 234px; height: 230px; margin-top: -50px;""><div style=""display: flex; justify-content: space-between; margin-top: 33px;""><img src=""images/choice_trial_15.png"" style=""width: 408px; height: 417px; margin-right: 608px;""></div></div>",,delaylearn,learning,display_response,A3CcGs9GTjhEtSfPIQz2sI07zDZ2,A3CcGs9GTjhEtSfPIQz2sI07zDZ2,,,,,,,,,,,,,,,,,chosen stimuli: images/choice_trial_15.png,,,,,63d1412396ee4fa133b52643,09:05:38,27/02/2024
html-keyboard-response,44,87070,0.0-20.0-2.0,,,,delaylearn,learning,feedback_duration_window,A3CcGs9GTjhEtSfPIQz2sI07zDZ2,A3CcGs9GTjhEtSfPIQz2sI07zDZ2,,,,,,,,,,,,,,,,,,750.0,,,,63d1412396ee4fa133b52643,09:05:38,27/02/2024
html-keyboard-response,45,88585,0.0-20.0-3.0,,<div style='margin:auto;width: auto; font-size: 150%'><span style='font-weight: bold; font-size: 100px; color: red;'>0 points!</span><br><br></div>,,delaylearn,learning,feedback_image_window,A3CcGs9GTjhEtSfPIQz2sI07zDZ2,A3CcGs9GTjhEtSfPIQz2sI07zDZ2,,,,,,,,,,,,,,,,,,,,,,63d1412396ee4fa133b52643,09:05:38,27/02/2024
html-keyboard-response,46,90513,0.0-21.0,,"<div style=""font-size:100px;"">+</div>",,delaylearn,learning,ITI,A3CcGs9GTjhEtSfPIQz2sI07zDZ2,A3CcGs9GTjhEtSfPIQz2sI07zDZ2,,,,,,,,,,,,,,,,,,,1917.0,,,63d1412396ee4fa133b52643,09:05:38,27/02/2024
html-keyboard-response,47,92171,0.0-22.0-0.0,1656.6000000238419,"<div style=""display: flex; flex-direction: column; align-items: center; margin-top: -40px;""><img src=""images/pattern_4.png"" style=""width: 234px; height: 230px; margin-top: -50px;""><div style=""display: flex; justify-content: space-between; margin-top: 33px;""><img src=""images/choice_trial_4.png"" style=""width: 408px; height: 417px; margin-right: 200px;""><img src=""images/choice_trial_16.png"" style=""width: 408px; height: 417px;""></div></div>",f,delaylearn,learning,trial,A3CcGs9GTjhEtSfPIQz2sI07zDZ2,A3CcGs9GTjhEtSfPIQz2sI07zDZ2,2.0,images/choice_trial_4.png,images/choice_trial_16.png,images/pattern_4.png,f,f,7000.0,4.0,16.0,3.0,0.0,9.0,1.0,1.0,4.0,40.0,,,,,,63d1412396ee4fa133b52643,09:05:38,27/02/2024
html-keyboard-response,48,93180,0.0-22.0-1.0,,"<div style=""display: flex; flex-direction: column; align-items: center; margin-top: -40px;""><img src=""images/pattern_4.png"" style=""width: 234px; height: 230px; margin-top: -50px;""><div style=""display: flex; justify-content: space-between; margin-top: 33px;""><img src=""images/choice_trial_4.png"" style=""width: 408px; height: 417px; margin-right: 608px;""></div></div>",,delaylearn,learning,display_response,A3CcGs9GTjhEtSfPIQz2sI07zDZ2,A3CcGs9GTjhEtSfPIQz2sI07zDZ2,,,,,,,,,,,,,,,,,chosen stimuli: images/choice_trial_4.png,,,,,63d1412396ee4fa133b52643,09:05:38,27/02/2024
html-keyboard-response,49,100188,0.0-22.0-2.0,,,,delaylearn,learning,feedback_duration_window,A3CcGs9GTjhEtSfPIQz2sI07zDZ2,A3CcGs9GTjhEtSfPIQz2sI07zDZ2,,,,,,,,,,,,,,,,,,7000.0,,,,63d1412396ee4fa133b52643,09:05:38,27/02/2024
html-keyboard-response,50,101699,0.0-22.0-3.0,,<div style='margin:auto;width: auto; font-size: 150%'><span style='font-weight: bold; font-size: 100px; color: green;'>+10 points!</span><br><br></div>,,delaylearn,learning,feedback_image_window,A3CcGs9GTjhEtSfPIQz2sI07zDZ2,A3CcGs9GTjhEtSfPIQz2sI07zDZ2,,,,,,,,,,,,,,,,,,,,,,63d1412396ee4fa133b52643,09:05:38,27/02/2024
html-keyboard-response,51,103917,0.0-23.0,,"<div style=""font-size:100px;"">+</div>",,delaylearn,learning,ITI,A3CcGs9GTjhEtSfPIQz2sI07zDZ2,A3CcGs9GTjhEtSfPIQz2sI07zDZ2,,,,,,,,,,,,,,,,,,,2210.0,,,63d1412396ee4fa133b52643,09:05:38,27/02/2024
html-keyboard-response,52,106919,0.0-24.0-0.0,,"<div style=""display: flex; flex-direction: column; align-items: center; margin-top: -40px;""><img src=""images/pattern_5.png"" style=""width: 234px; height: 230px; margin-top: -50px;""><div style=""display: flex; justify-content: space-between; margin-top: 33px;""><img src=""images/choice_trial_9.png"" style=""width: 408px; height: 417px; margin-right: 200px;""><img src=""images/choice_trial_2.png"" style=""width: 408px; height: 417px;""></div></div>",,delaylearn,learning,trial,A3CcGs9GTjhEtSfPIQz2sI07zDZ2,A3CcGs9GTjhEtSfPIQz2sI07zDZ2,2.0,images/choice_trial_9.png,images/choice_trial_2.png,images/pattern_5.png,j,j,750.0,9.0,2.0,4.0,1.0,10.0,0.0,0.0,0.0,40.0,,,,,,63d1412396ee4fa133b52643,09:05:38,27/02/2024
html-keyboard-response,53,107929,0.0-24.0-1.0,,<div style='font-weight: bold; font-size: 75px; color: red;'>Missed Trial <br><br><br><br> Please respond faster</div>,,delaylearn,learning,display_response,A3CcGs9GTjhEtSfPIQz2sI07zDZ2,A3CcGs9GTjhEtSfPIQz2sI07zDZ2,,,,,,,,,,,,,,,,,Missed trial,,,,,63d1412396ee4fa133b52643,09:05:38,27/02/2024
html-keyboard-response,54,107935,0.0-24.0-2.0,,,,delaylearn,learning,feedback_duration_window,A3CcGs9GTjhEtSfPIQz2sI07zDZ2,A3CcGs9GTjhEtSfPIQz2sI07zDZ2,,,,,,,,,,,,,,,,,,0.0,,,,63d1412396ee4fa133b52643,09:05:38,27/02/2024
html-keyboard-response,55,107940,0.0-24.0-3.0,,,,delaylearn,learning,feedback_image_window,A3CcGs9GTjhEtSfPIQz2sI07zDZ2,A3CcGs9GTjhEtSfPIQz2sI07zDZ2,,,,,,,,,,,,,,,,,,,,,,63d1412396ee4fa133b52643,09:05:38,27/02/2024
html-keyboard-response,56,110017,0.0-25.0,,"<div style=""font-size:100px;"">+</div>",,delaylearn,learning,ITI,A3CcGs9GTjhEtSfPIQz2sI07zDZ2,A3CcGs9GTjhEtSfPIQz2sI07zDZ2,,,,,,,,,,,,,,,,,,,2067.0,,,63d1412396ee4fa133b52643,09:05:38,27/02/2024
html-keyboard-response,57,113026,0.0-26.0-0.0,,"<div style=""display: flex; flex-direction: column; align-items: center; margin-top: -40px;""><img src=""images/pattern_6.png"" style=""width: 234px; height: 230px; margin-top: -50px;""><div style=""display: flex; justify-content: space-between; margin-top: 33px;""><img src=""images/choice_trial_11.png"" style=""width: 408px; height: 417px; margin-right: 200px;""><img src=""images/choice_trial_5.png"" style=""width: 408px; height: 417px;""></div></div>",,delaylearn,learning,trial,A3CcGs9GTjhEtSfPIQz2sI07zDZ2,A3CcGs9GTjhEtSfPIQz2sI07zDZ2,2.0,images/choice_trial_11.png,images/choice_trial_5.png,images/pattern_6.png,j,f,750.0,11.0,5.0,5.0,0.0,11.0,0.0,0.0,0.0,40.0,,,,,,63d1412396ee4fa133b52643,09:05:38,27/02/2024
html-keyboard-response,58,114031,0.0-26.0-1.0,,<div style='font-weight: bold; font-size: 75px; color: red;'>Missed Trial <br><br><br><br> Please respond faster</div>,,delaylearn,learning,display_response,A3CcGs9GTjhEtSfPIQz2sI07zDZ2,A3CcGs9GTjhEtSfPIQz2sI07zDZ2,,,,,,,,,,,,,,,,,Missed trial,,,,,63d1412396ee4fa133b52643,09:05:38,27/02/2024
html-keyboard-response,59,114036,0.0-26.0-2.0,,,,delaylearn,learning,feedback_duration_window,A3CcGs9GTjhEtSfPIQz2sI07zDZ2,A3CcGs9GTjhEtSfPIQz2sI07zDZ2,,,,,,,,,,,,,,,,,,0.0,,,,63d1412396ee4fa133b52643,09:05:38,27/02/2024
html-keyboard-response,60,114041,0.0-26.0-3.0,,,,delaylearn,learning,feedback_image_window,A3CcGs9GTjhEtSfPIQz2sI07zDZ2,A3CcGs9GTjhEtSfPIQz2sI07zDZ2,,,,,,,,,,,,,,,,,,,,,,63d1412396ee4fa133b52643,09:05:38,27/02/2024
html-keyboard-response,61,114545,0.0-27.0-0.0,,,,,,mood_trial_fixation,A3CcGs9GTjhEtSfPIQz2sI07zDZ2,,,,,,,,,,,,,,,,,,,,,,,63d1412396ee4fa133b52643,09:05:38,27/02/2024
lmdlab-html-vas-response,62,138576,0.0-27.0-1.0,,How happy are you right now?,,delaylearn,learning,mood_trial,A3CcGs9GTjhEtSfPIQz2sI07zDZ2,A3CcGs9GTjhEtSfPIQz2sI07zDZ2,,,,,,,,,,,,,,,,,,,,"['Very unhappy', 'Very happy']",,63d1412396ee4fa133b52643,09:05:38,27/02/2024
html-keyboard-response,63,140143,0.0-28.0,,"<div style=""font-size:100px;"">+</div>",,delaylearn,learning,ITI,A3CcGs9GTjhEtSfPIQz2sI07zDZ2,A3CcGs9GTjhEtSfPIQz2sI07zDZ2,,,,,,,,,,,,,,,,,,,1555.0,,,63d1412396ee4fa133b52643,09:05:38,27/02/2024
html-keyboard-response,64,141579,0.0-29.0-0.0,1434.6000000238419,"<div style=""display: flex; flex-direction: column; align-items: center; margin-top: -40px;""><img src=""images/pattern_1.png"" style=""width: 234px; height: 230px; margin-top: -50px;""><div style=""display: flex; justify-content: space-between; margin-top: 33px;""><img src=""images/choice_trial_10.png"" style=""width: 408px; height: 417px; margin-right: 200px;""><img src=""images/choice_trial_3.png"" style=""width: 408px; height: 417px;""></div></div>",f,delaylearn,learning,trial,A3CcGs9GTjhEtSfPIQz2sI07zDZ2,A3CcGs9GTjhEtSfPIQz2sI07zDZ2,2.0,images/choice_trial_10.png,images/choice_trial_3.png,images/pattern_1.png,j,j,7000.0,10.0,3.0,1.0,1.0,12.0,0.0,0.0,10.0,40.0,,,,,,63d1412396ee4fa133b52643,09:05:38,27/02/2024
html-keyboard-response,65,142590,0.0-29.0-1.0,,"<div style=""display: flex; flex-direction: column; align-items: center; margin-top: -40px;""><img src=""images/pattern_1.png"" style=""width: 234px; height: 230px; margin-top: -50px;""><div style=""display: flex; justify-content: space-between; margin-top: 33px;""><img src=""images/choice_trial_10.png"" style=""width: 408px; height: 417px; margin-right: 608px;""></div></div>",,delaylearn,learning,display_response,A3CcGs9GTjhEtSfPIQz2sI07zDZ2,A3CcGs9GTjhEtSfPIQz2sI07zDZ2,,,,,,,,,,,,,,,,,chosen stimuli: images/choice_trial_10.png,,,,,63d1412396ee4fa133b52643,09:05:38,27/02/2024
html-keyboard-response,66,149594,0.0-29.0-2.0,,,,delaylearn,learning,feedback_duration_window,A3CcGs9GTjhEtSfPIQz2sI07zDZ2,A3CcGs9GTjhEtSfPIQz2sI07zDZ2,,,,,,,,,,,,,,,,,,7000.0,,,,63d1412396ee4fa133b52643,09:05:38,27/02/2024
html-keyboard-response,67,151101,0.0-29.0-3.0,,<div style='margin:auto;width: auto; font-size: 150%'><span style='font-weight: bold; font-size: 100px; color: red;'>0 points!</span><br><br></div>,,delaylearn,learning,feedback_image_window,A3CcGs9GTjhEtSfPIQz2sI07zDZ2,A3CcGs9GTjhEtSfPIQz2sI07zDZ2,,,,,,,,,,,,,,,,,,,,,,63d1412396ee4fa133b52643,09:05:38,27/02/2024
html-keyboard-response,68,152810,0.0-30.0,,"<div style=""font-size:100px;"">+</div>",,delaylearn,learning,ITI,A3CcGs9GTjhEtSfPIQz2sI07zDZ2,A3CcGs9GTjhEtSfPIQz2sI07zDZ2,,,,,,,,,,,,,,,,,,,1706.0,,,63d1412396ee4fa133b52643,09:05:38,27/02/2024
html-keyboard-response,69,155067,0.0-31.0-0.0,2255.7000000476837,"<div style=""display: flex; flex-direction: column; align-items: center; margin-top: -40px;""><img src=""images/pattern_3.png"" style=""width: 234px; height: 230px; margin-top: -50px;""><div style=""display: flex; justify-content: space-between; margin-top: 33px;""><img src=""images/choice_trial_14.png"" style=""width: 408px; height: 417px; margin-right: 200px;""><img src=""images/choice_trial_12.png"" style=""width: 408px; height: 417px;""></div></div>",j,delaylearn,learning,trial,A3CcGs9GTjhEtSfPIQz2sI07zDZ2,A3CcGs9GTjhEtSfPIQz2sI07zDZ2,2.0,images/choice_trial_14.png,images/choice_trial_12.png,images/pattern_3.png,f,j,7000.0,14.0,12.0,2.0,1.0,13.0,1.0,0.0,12.0,40.0,,,,,,63d1412396ee4fa133b52643,09:05:38,27/02/2024
html-keyboard-response,70,156077,0.0-31.0-1.0,,"<div style=""display: flex; flex-direction: column; align-items: center; margin-top: -40px;""><img src=""images/pattern_3.png"" style=""width: 234px; height: 230px; margin-top: -50px;""><div style=""display: flex; justify-content: space-between; margin-top: 33px;""><img src=""images/choice_trial_12.png"" style=""width: 408px; height: 417px; margin-left:608px;""></div></div>",,delaylearn,learning,display_response,A3CcGs9GTjhEtSfPIQz2sI07zDZ2,A3CcGs9GTjhEtSfPIQz2sI07zDZ2,,,,,,,,,,,,,,,,,chosen stimuli: images/choice_trial_12.png,,,,,63d1412396ee4fa133b52643,09:05:38,27/02/2024
html-keyboard-response,71,163093,0.0-31.0-2.0,,,,delaylearn,learning,feedback_duration_window,A3CcGs9GTjhEtSfPIQz2sI07zDZ2,A3CcGs9GTjhEtSfPIQz2sI07zDZ2,,,,,,,,,,,,,,,,,,7000.0,,,,63d1412396ee4fa133b52643,09:05:38,27/02/2024
html-keyboard-response,72,164600,0.0-31.0-3.0,,<div style='margin:auto;width: auto; font-size: 150%'><span style='font-weight: bold; font-size: 100px; color: red;'>0 points!</span><br><br></div>,,delaylearn,learning,feedback_image_window,A3CcGs9GTjhEtSfPIQz2sI07zDZ2,A3CcGs9GTjhEtSfPIQz2sI07zDZ2,,,,,,,,,,,,,,,,,,,,,,63d1412396ee4fa133b52643,09:05:38,27/02/2024
html-keyboard-response,73,166862,0.0-32.0,,"<div style=""font-size:100px;"">+</div>",,delaylearn,learning,ITI,A3CcGs9GTjhEtSfPIQz2sI07zDZ2,A3CcGs9GTjhEtSfPIQz2sI07zDZ2,,,,,,,,,,,,,,,,,,,2252.0,,,63d1412396ee4fa133b52643,09:05:38,27/02/2024
html-keyboard-response,74,169259,0.0-33.0-0.0,2395.100000023842,"<div style=""display: flex; flex-direction: column; align-items: center; margin-top: -40px;""><img src=""images/pattern_5.png"" style=""width: 234px; height: 230px; margin-top: -50px;""><div style=""display: flex; justify-content: space-between; margin-top: 33px;""><img src=""images/choice_trial_2.png"" style=""width: 408px; height: 417px; margin-right: 200px;""><img src=""images/choice_trial_9.png"" style=""width: 408px; height: 417px;""></div></div>",f,delaylearn,learning,trial,A3CcGs9GTjhEtSfPIQz2sI07zDZ2,A3CcGs9GTjhEtSfPIQz2sI07zDZ2,2.0,images/choice_trial_2.png,images/choice_trial_9.png,images/pattern_5.png,f,f,750.0,2.0,9.0,4.0,0.0,14.0,1.0,1.0,2.0,50.0,,,,,,63d1412396ee4fa133b52643,09:05:38,27/02/2024
html-keyboard-response,75,170272,0.0-33.0-1.0,,"<div style=""display: flex; flex-direction: column; align-items: center; margin-top: -40px;""><img src=""images/pattern_5.png"" style=""width: 234px; height: 230px; margin-top: -50px;""><div style=""display: flex; justify-content: space-between; margin-top: 33px;""><img src=""images/choice_trial_2.png"" style=""width: 408px; height: 417px; margin-right: 608px;""></div></div>",,delaylearn,learning,display_response,A3CcGs9GTjhEtSfPIQz2sI07zDZ2,A3CcGs9GTjhEtSfPIQz2sI07zDZ2,,,,,,,,,,,,,,,,,chosen stimuli: images/choice_trial_2.png,,,,,63d1412396ee4fa133b52643,09:05:38,27/02/2024
html-keyboard-response,76,171035,0.0-33.0-2.0,,,,delaylearn,learning,feedback_duration_window,A3CcGs9GTjhEtSfPIQz2sI07zDZ2,A3CcGs9GTjhEtSfPIQz2sI07zDZ2,,,,,,,,,,,,,,,,,,750.0,,,,63d1412396ee4fa133b52643,09:05:38,27/02/2024
html-keyboard-response,77,172536,0.0-33.0-3.0,,<div style='margin:auto;width: auto; font-size: 150%'><span style='font-weight: bold; font-size: 100px; color: green;'>+10 points!</span><br><br></div>,,delaylearn,learning,feedback_image_window,A3CcGs9GTjhEtSfPIQz2sI07zDZ2,A3CcGs9GTjhEtSfPIQz2sI07zDZ2,,,,,,,,,,,,,,,,,,,,,,63d1412396ee4fa133b52643,09:05:38,27/02/2024
html-keyboard-response,78,173052,0.0-34.0-0.0,,,,,,mood_trial_fixation,A3CcGs9GTjhEtSfPIQz2sI07zDZ2,,,,,,,,,,,,,,,,,,,,,,,63d1412396ee4fa133b52643,09:05:38,27/02/2024
lmdlab-html-vas-response,79,176680,0.0-34.0-1.0,2611.0,How happy are you right now?,0.21296296296296297,delaylearn,learning,mood_trial,A3CcGs9GTjhEtSfPIQz2sI07zDZ2,A3CcGs9GTjhEtSfPIQz2sI07zDZ2,,,,,,,,,,,,,,,,,,,,"['Very unhappy', 'Very happy']",,63d1412396ee4fa133b52643,09:05:38,27/02/2024
html-keyboard-response,80,179038,0.0-35.0,,"<div style=""font-size:100px;"">+</div>",,delaylearn,learning,ITI,A3CcGs9GTjhEtSfPIQz2sI07zDZ2,A3CcGs9GTjhEtSfPIQz2sI07zDZ2,,,,,,,,,,,,,,,,,,,2356.0,,,63d1412396ee4fa133b52643,09:05:38,27/02/2024
html-keyboard-response,81,180299,0.0-36.0-0.0,1259.6000000238419,"<div style=""display: flex; flex-direction: column; align-items: center; margin-top: -40px;""><img src=""images/pattern_6.png"" style=""width: 234px; height: 230px; margin-top: -50px;""><div style=""display: flex; justify-content: space-between; margin-top: 33px;""><img src=""images/choice_trial_11.png"" style=""width: 408px; height: 417px; margin-right: 200px;""><img src=""images/choice_trial_5.png"" style=""width: 408px; height: 417px;""></div></div>",j,delaylearn,learning,trial,A3CcGs9GTjhEtSfPIQz2sI07zDZ2,A3CcGs9GTjhEtSfPIQz2sI07zDZ2,2.0,images/choice_trial_11.png,images/choice_trial_5.png,images/pattern_6.png,f,f,750.0,11.0,5.0,5.0,0.0,15.0,0.0,0.0,5.0,50.0,,,,,,63d1412396ee4fa133b52643,09:05:38,27/02/2024
html-keyboard-response,82,181303,0.0-36.0-1.0,,"<div style=""display: flex; flex-direction: column; align-items: center; margin-top: -40px;""><img src=""images/pattern_6.png"" style=""width: 234px; height: 230px; margin-top: -50px;""><div style=""display: flex; justify-content: space-between; margin-top: 33px;""><img src=""images/choice_trial_5.png"" style=""width: 408px; height: 417px; margin-left:608px;""></div></div>",,delaylearn,learning,display_response,A3CcGs9GTjhEtSfPIQz2sI07zDZ2,A3CcGs9GTjhEtSfPIQz2sI07zDZ2,,,,,,,,,,,,,,,,,chosen stimuli: images/choice_trial_5.png,,,,,63d1412396ee4fa133b52643,09:05:38,27/02/2024
html-keyboard-response,83,182067,0.0-36.0-2.0,,,,delaylearn,learning,feedback_duration_window,A3CcGs9GTjhEtSfPIQz2sI07zDZ2,A3CcGs9GTjhEtSfPIQz2sI07zDZ2,,,,,,,,,,,,,,,,,,750.0,,,,63d1412396ee4fa133b52643,09:05:38,27/02/2024
html-keyboard-response,84,183583,0.0-36.0-3.0,,<div style='margin:auto;width: auto; font-size: 150%'><span style='font-weight: bold; font-size: 100px; color: red;'>0 points!</span><br><br></div>,,delaylearn,learning,feedback_image_window,A3CcGs9GTjhEtSfPIQz2sI07zDZ2,A3CcGs9GTjhEtSfPIQz2sI07zDZ2,,,,,,,,,,,,,,,,,,,,,,63d1412396ee4fa133b52643,09:05:38,27/02/2024
html-keyboard-response,85,185442,0.0-37.0,,"<div style=""font-size:100px;"">+</div>",,delaylearn,learning,ITI,A3CcGs9GTjhEtSfPIQz2sI07zDZ2,A3CcGs9GTjhEtSfPIQz2sI07zDZ2,,,,,,,,,,,,,,,,,,,1849.0,,,63d1412396ee4fa133b52643,09:05:38,27/02/2024
html-keyboard-response,86,187298,0.0-38.0-0.0,1854.7999999523163,"<div style=""display: flex; flex-direction: column; align-items: center; margin-top: -40px;""><img src=""images/pattern_4.png"" style=""width: 234px; height: 230px; margin-top: -50px;""><div style=""display: flex; justify-content: space-between; margin-top: 33px;""><img src=""images/choice_trial_16.png"" style=""width: 408px; height: 417px; margin-right: 200px;""><img src=""images/choice_trial_4.png"" style=""width: 408px; height: 417px;""></div></div>",f,delaylearn,learning,trial,A3CcGs9GTjhEtSfPIQz2sI07zDZ2,A3CcGs9GTjhEtSfPIQz2sI07zDZ2,2.0,images/choice_trial_16.png,images/choice_trial_4.png,images/pattern_4.png,j,j,7000.0,16.0,4.0,3.0,1.0,16.0,0.0,0.0,16.0,50.0,,,,,,63d1412396ee4fa133b52643,09:05:38,27/02/2024
html-keyboard-response,87,188300,0.0-38.0-1.0,,"<div style=""display: flex; flex-direction: column; align-items: center; margin-top: -40px;""><img src=""images/pattern_4.png"" style=""width: 234px; height: 230px; margin-top: -50px;""><div style=""display: flex; justify-content: space-between; margin-top: 33px;""><img src=""images/choice_trial_16.png"" style=""width: 408px; height: 417px; margin-right: 608px;""></div></div>",,delaylearn,learning,display_response,A3CcGs9GTjhEtSfPIQz2sI07zDZ2,A3CcGs9GTjhEtSfPIQz2sI07zDZ2,,,,,,,,,,,,,,,,,chosen stimuli: images/choice_trial_16.png,,,,,63d1412396ee4fa133b52643,09:05:38,27/02/2024
html-keyboard-response,88,195313,0.0-38.0-2.0,,,,delaylearn,learning,feedback_duration_window,A3CcGs9GTjhEtSfPIQz2sI07zDZ2,A3CcGs9GTjhEtSfPIQz2sI07zDZ2,,,,,,,,,,,,,,,,,,7000.0,,,,63d1412396ee4fa133b52643,09:05:38,27/02/2024
html-keyboard-response,89,196824,0.0-38.0-3.0,,<div style='margin:auto;width: auto; font-size: 150%'><span style='font-weight: bold; font-size: 100px; color: red;'>0 points!</span><br><br></div>,,delaylearn,learning,feedback_image_window,A3CcGs9GTjhEtSfPIQz2sI07zDZ2,A3CcGs9GTjhEtSfPIQz2sI07zDZ2,,,,,,,,,,,,,,,,,,,,,,63d1412396ee4fa133b52643,09:05:38,27/02/2024
html-keyboard-response,90,199061,0.0-39.0,,"<div style=""font-size:100px;"">+</div>",,delaylearn,learning,ITI,A3CcGs9GTjhEtSfPIQz2sI07zDZ2,A3CcGs9GTjhEtSfPIQz2sI07zDZ2,,,,,,,,,,,,,,,,,,,2235.0,,,63d1412396ee4fa133b52643,09:05:38,27/02/2024
html-keyboard-response,91,201067,0.0-40.0-0.0,2003.4000000953674,"<div style=""display: flex; flex-direction: column; align-items: center; margin-top: -40px;""><img src=""images/pattern_7.png"" style=""width: 234px; height: 230px; margin-top: -50px;""><div style=""display: flex; justify-content: space-between; margin-top: 33px;""><img src=""images/choice_trial_8.png"" style=""width: 408px; height: 417px; margin-right: 200px;""><img src=""images/choice_trial_15.png"" style=""width: 408px; height: 417px;""></div></div>",f,delaylearn,learning,trial,A3CcGs9GTjhEtSfPIQz2sI07zDZ2,A3CcGs9GTjhEtSfPIQz2sI07zDZ2,2.0,images/choice_trial_8.png,images/choice_trial_15.png,images/pattern_7.png,j,f,750.0,8.0,15.0,6.0,0.0,17.0,1.0,0.0,8.0,50.0,,,,,,63d1412396ee4fa133b52643,09:05:38,27/02/2024
html-keyboard-response,92,202071,0.0-40.0-1.0,,"<div style=""display: flex; flex-direction: column; align-items: center; margin-top: -40px;""><img src=""images/pattern_7.png"" style=""width: 234px; height: 230px; margin-top: -50px;""><div style=""display: flex; justify-content: space-between; margin-top: 33px;""><img src=""images/choice_trial_8.png"" style=""width: 408px; height: 417px; margin-right: 608px;""></div></div>",,delaylearn,learning,display_response,A3CcGs9GTjhEtSfPIQz2sI07zDZ2,A3CcGs9GTjhEtSfPIQz2sI07zDZ2,,,,,,,,,,,,,,,,,chosen stimuli: images/choice_trial_8.png,,,,,63d1412396ee4fa133b52643,09:05:38,27/02/2024
html-keyboard-response,93,202835,0.0-40.0-2.0,,,,delaylearn,learning,feedback_duration_window,A3CcGs9GTjhEtSfPIQz2sI07zDZ2,A3CcGs9GTjhEtSfPIQz2sI07zDZ2,,,,,,,,,,,,,,,,,,750.0,,,,63d1412396ee4fa133b52643,09:05:38,27/02/2024
html-keyboard-response,94,204349,0.0-40.0-3.0,,<div style='margin:auto;width: auto; font-size: 150%'><span style='font-weight: bold; font-size: 100px; color: red;'>0 points!</span><br><br></div>,,delaylearn,learning,feedback_image_window,A3CcGs9GTjhEtSfPIQz2sI07zDZ2,A3CcGs9GTjhEtSfPIQz2sI07zDZ2,,,,,,,,,,,,,,,,,,,,,,63d1412396ee4fa133b52643,09:05:38,27/02/2024
html-keyboard-response,95,206449,0.0-41.0,,"<div style=""font-size:100px;"">+</div>",,delaylearn,learning,ITI,A3CcGs9GTjhEtSfPIQz2sI07zDZ2,A3CcGs9GTjhEtSfPIQz2sI07zDZ2,,,,,,,,,,,,,,,,,,,2095.0,,,63d1412396ee4fa133b52643,09:05:38,27/02/2024
html-keyboard-response,96,208163,0.0-42.0-0.0,1712.1999999284744,"<div style=""display: flex; flex-direction: column; align-items: center; margin-top: -40px;""><img src=""images/pattern_1.png"" style=""width: 234px; height: 230px; margin-top: -50px;""><div style=""display: flex; justify-content: space-between; margin-top: 33px;""><img src=""images/choice_trial_3.png"" style=""width: 408px; height: 417px; margin-right: 200px;""><img src=""images/choice_trial_10.png"" style=""width: 408px; height: 417px;""></div></div>",f,delaylearn,learning,trial,A3CcGs9GTjhEtSfPIQz2sI07zDZ2,A3CcGs9GTjhEtSfPIQz2sI07zDZ2,2.0,images/choice_trial_3.png,images/choice_trial_10.png,images/pattern_1.png,f,f,7000.0,3.0,10.0,1.0,0.0,18.0,1.0,1.0,3.0,60.0,,,,,,63d1412396ee4fa133b52643,09:05:38,27/02/2024
html-keyboard-response,97,209166,0.0-42.0-1.0,,"<div style=""display: flex; flex-direction: column; align-items: center; margin-top: -40px;""><img src=""images/pattern_1.png"" style=""width: 234px; height: 230px; margin-top: -50px;""><div style=""display: flex; justify-content: space-between; margin-top: 33px;""><img src=""images/choice_trial_3.png"" style=""width: 408px; height: 417px; margin-right: 608px;""></div></div>",,delaylearn,learning,display_response,A3CcGs9GTjhEtSfPIQz2sI07zDZ2,A3CcGs9GTjhEtSfPIQz2sI07zDZ2,,,,,,,,,,,,,,,,,chosen stimuli: images/choice_trial_3.png,,,,,63d1412396ee4fa133b52643,09:05:38,27/02/2024
html-keyboard-response,98,216182,0.0-42.0-2.0,,,,delaylearn,learning,feedback_duration_window,A3CcGs9GTjhEtSfPIQz2sI07zDZ2,A3CcGs9GTjhEtSfPIQz2sI07zDZ2,,,,,,,,,,,,,,,,,,7000.0,,,,63d1412396ee4fa133b52643,09:05:38,27/02/2024
html-keyboard-response,99,217694,0.0-42.0-3.0,,<div style='margin:auto;width: auto; font-size: 150%'><span style='font-weight: bold; font-size: 100px; color: green;'>+10 points!</span><br><br></div>,,delaylearn,learning,feedback_image_window,A3CcGs9GTjhEtSfPIQz2sI07zDZ2,A3CcGs9GTjhEtSfPIQz2sI07zDZ2,,,,,,,,,,,,,,,,,,,,,,63d1412396ee4fa133b52643,09:05:38,27/02/2024
html-keyboard-response,100,219550,0.0-43.0,,"<div style=""font-size:100px;"">+</div>",,delaylearn,learning,ITI,A3CcGs9GTjhEtSfPIQz2sI07zDZ2,A3CcGs9GTjhEtSfPIQz2sI07zDZ2,,,,,,,,,,,,,,,,,,,1852.0,,,63d1412396ee4fa133b52643,09:05:38,27/02/2024
html-keyboard-response,101,221994,0.0-44.0-0.0,2443.399999976158,"<div style=""display: flex; flex-direction: column; align-items: center; margin-top: -40px;""><img src=""images/pattern_6.png"" style=""width: 234px; height: 230px; margin-top: -50px;""><div style=""display: flex; justify-content: space-between; margin-top: 33px;""><img src=""images/choice_trial_5.png"" style=""width: 408px; height: 417px; margin-right: 200px;""><img src=""images/choice_trial_11.png"" style=""width: 408px; height: 417px;""></div></div>",j,delaylearn,learning,trial,A3CcGs9GTjhEtSfPIQz2sI07zDZ2,A3CcGs9GTjhEtSfPIQz2sI07zDZ2,2.0,images/choice_trial_5.png,images/choice_trial_11.png,images/pattern_6.png,j,j,750.0,5.0,11.0,5.0,1.0,19.0,1.0,1.0,11.0,70.0,,,,,,63d1412396ee4fa133b52643,09:05:38,27/02/2024
html-keyboard-response,102,223006,0.0-44.0-1.0,,"<div style=""display: flex; flex-direction: column; align-items: center; margin-top: -40px;""><img src=""images/pattern_6.png"" style=""width: 234px; height: 230px; margin-top: -50px;""><div style=""display: flex; justify-content: space-between; margin-top: 33px;""><img src=""images/choice_trial_11.png"" style=""width: 408px; height: 417px; margin-left:608px;""></div></div>",,delaylearn,learning,display_response,A3CcGs9GTjhEtSfPIQz2sI07zDZ2,A3CcGs9GTjhEtSfPIQz2sI07zDZ2,,,,,,,,,,,,,,,,,chosen stimuli: images/choice_trial_11.png,,,,,63d1412396ee4fa133b52643,09:05:38,27/02/2024
html-keyboard-response,103,223758,0.0-44.0-2.0,,,,delaylearn,learning,feedback_duration_window,A3CcGs9GTjhEtSfPIQz2sI07zDZ2,A3CcGs9GTjhEtSfPIQz2sI07zDZ2,,,,,,,,,,,,,,,,,,750.0,,,,63d1412396ee4fa133b52643,09:05:38,27/02/2024
html-keyboard-response,104,225268,0.0-44.0-3.0,,<div style='margin:auto;width: auto; font-size: 150%'><span style='font-weight: bold; font-size: 100px; color: green;'>+10 points!</span><br><br></div>,,delaylearn,learning,feedback_image_window,A3CcGs9GTjhEtSfPIQz2sI07zDZ2,A3CcGs9GTjhEtSfPIQz2sI07zDZ2,,,,,,,,,,,,,,,,,,,,,,63d1412396ee4fa133b52643,09:05:38,27/02/2024
html-keyboard-response,105,227543,0.0-45.0,,"<div style=""font-size:100px;"">+</div>",,delaylearn,learning,ITI,A3CcGs9GTjhEtSfPIQz2sI07zDZ2,A3CcGs9GTjhEtSfPIQz2sI07zDZ2,,,,,,,,,,,,,,,,,,,2264.0,,,63d1412396ee4fa133b52643,09:05:38,27/02/2024
html-keyboard-response,106,228882,0.0-46.0-0.0,1337.3999999761581,"<div style=""display: flex; flex-direction: column; align-items: center; margin-top: -40px;""><img src=""images/pattern_4.png"" style=""width: 234px; height: 230px; margin-top: -50px;""><div style=""display: flex; justify-content: space-between; margin-top: 33px;""><img src=""images/choice_trial_4.png"" style=""width: 408px; height: 417px; margin-right: 200px;""><img src=""images/choice_trial_16.png"" style=""width: 408px; height: 417px;""></div></div>",f,delaylearn,learning,trial,A3CcGs9GTjhEtSfPIQz2sI07zDZ2,A3CcGs9GTjhEtSfPIQz2sI07zDZ2,2.0,images/choice_trial_4.png,images/choice_trial_16.png,images/pattern_4.png,f,f,7000.0,4.0,16.0,3.0,0.0,20.0,1.0,1.0,4.0,80.0,,,,,,63d1412396ee4fa133b52643,09:05:38,27/02/2024
html-keyboard-response,107,229885,0.0-46.0-1.0,,"<div style=""display: flex; flex-direction: column; align-items: center; margin-top: -40px;""><img src=""images/pattern_4.png"" style=""width: 234px; height: 230px; margin-top: -50px;""><div style=""display: flex; justify-content: space-between; margin-top: 33px;""><img src=""images/choice_trial_4.png"" style=""width: 408px; height: 417px; margin-right: 608px;""></div></div>",,delaylearn,learning,display_response,A3CcGs9GTjhEtSfPIQz2sI07zDZ2,A3CcGs9GTjhEtSfPIQz2sI07zDZ2,,,,,,,,,,,,,,,,,chosen stimuli: images/choice_trial_4.png,,,,,63d1412396ee4fa133b52643,09:05:38,27/02/2024
html-keyboard-response,108,236899,0.0-46.0-2.0,,,,delaylearn,learning,feedback_duration_window,A3CcGs9GTjhEtSfPIQz2sI07zDZ2,A3CcGs9GTjhEtSfPIQz2sI07zDZ2,,,,,,,,,,,,,,,,,,7000.0,,,,63d1412396ee4fa133b52643,09:05:38,27/02/2024
html-keyboard-response,109,238414,0.0-46.0-3.0,,<div style='margin:auto;width: auto; font-size: 150%'><span style='font-weight: bold; font-size: 100px; color: green;'>+10 points!</span><br><br></div>,,delaylearn,learning,feedback_image_window,A3CcGs9GTjhEtSfPIQz2sI07zDZ2,A3CcGs9GTjhEtSfPIQz2sI07zDZ2,,,,,,,,,,,,,,,,,,,,,,63d1412396ee4fa133b52643,09:05:38,27/02/2024
html-keyboard-response,110,238928,0.0-47.0-0.0,,,,,,mood_trial_fixation,A3CcGs9GTjhEtSfPIQz2sI07zDZ2,,,,,,,,,,,,,,,,,,,,,,,63d1412396ee4fa133b52643,09:05:38,27/02/2024
lmdlab-html-vas-response,111,242457,0.0-47.0-1.0,2515.0,How happy are you right now?,0.4845679012345679,delaylearn,learning,mood_trial,A3CcGs9GTjhEtSfPIQz2sI07zDZ2,A3CcGs9GTjhEtSfPIQz2sI07zDZ2,,,,,,,,,,,,,,,,,,,,"['Very unhappy', 'Very happy']",,63d1412396ee4fa133b52643,09:05:38,27/02/2024
html-keyboard-response,112,244437,0.0-48.0,,"<div style=""font-size:100px;"">+</div>",,delaylearn,learning,ITI,A3CcGs9GTjhEtSfPIQz2sI07zDZ2,A3CcGs9GTjhEtSfPIQz2sI07zDZ2,,,,,,,,,,,,,,,,,,,1969.0,,,63d1412396ee4fa133b52643,09:05:38,27/02/2024
html-keyboard-response,113,247442,0.0-49.0-0.0,3003.2000000476837,"<div style=""display: flex; flex-direction: column; align-items: center; margin-top: -40px;""><img src=""images/pattern_7.png"" style=""width: 234px; height: 230px; margin-top: -50px;""><div style=""display: flex; justify-content: space-between; margin-top: 33px;""><img src=""images/choice_trial_15.png"" style=""width: 408px; height: 417px; margin-right: 200px;""><img src=""images/choice_trial_8.png"" style=""width: 408px; height: 417px;""></div></div>",j,delaylearn,learning,trial,A3CcGs9GTjhEtSfPIQz2sI07zDZ2,A3CcGs9GTjhEtSfPIQz2sI07zDZ2,2.0,images/choice_trial_15.png,images/choice_trial_8.png,images/pattern_7.png,j,j,750.0,15.0,8.0,6.0,1.0,21.0,1.0,1.0,8.0,90.0,,,,,,63d1412396ee4fa133b52643,09:05:38,27/02/2024
html-keyboard-response,114,248456,0.0-49.0-1.0,,"<div style=""display: flex; flex-direction: column; align-items: center; margin-top: -40px;""><img src=""images/pattern_7.png"" style=""width: 234px; height: 230px; margin-top: -50px;""><div style=""display: flex; justify-content: space-between; margin-top: 33px;""><img src=""images/choice_trial_8.png"" style=""width: 408px; height: 417px; margin-left:608px;""></div></div>",,delaylearn,learning,display_response,A3CcGs9GTjhEtSfPIQz2sI07zDZ2,A3CcGs9GTjhEtSfPIQz2sI07zDZ2,,,,,,,,,,,,,,,,,chosen stimuli: images/choice_trial_8.png,,,,,63d1412396ee4fa133b52643,09:05:38,27/02/2024
html-keyboard-response,115,249208,0.0-49.0-2.0,,,,delaylearn,learning,feedback_duration_window,A3CcGs9GTjhEtSfPIQz2sI07zDZ2,A3CcGs9GTjhEtSfPIQz2sI07zDZ2,,,,,,,,,,,,,,,,,,750.0,,,,63d1412396ee4fa133b52643,09:05:38,27/02/2024
html-keyboard-response,116,250719,0.0-49.0-3.0,,<div style='margin:auto;width: auto; font-size: 150%'><span style='font-weight: bold; font-size: 100px; color: green;'>+10 points!</span><br><br></div>,,delaylearn,learning,feedback_image_window,A3CcGs9GTjhEtSfPIQz2sI07zDZ2,A3CcGs9GTjhEtSfPIQz2sI07zDZ2,,,,,,,,,,,,,,,,,,,,,,63d1412396ee4fa133b52643,09:05:38,27/02/2024
html-keyboard-response,117,252713,0.0-50.0,,"<div style=""font-size:100px;"">+</div>",,delaylearn,learning,ITI,A3CcGs9GTjhEtSfPIQz2sI07zDZ2,A3CcGs9GTjhEtSfPIQz2sI07zDZ2,,,,,,,,,,,,,,,,,,,1980.0,,,63d1412396ee4fa133b52643,09:05:38,27/02/2024
html-keyboard-response,118,253914,0.0-51.0-0.0,1199.8999999761581,"<div style=""display: flex; flex-direction: column; align-items: center; margin-top: -40px;""><img src=""images/pattern_1.png"" style=""width: 234px; height: 230px; margin-top: -50px;""><div style=""display: flex; justify-content: space-between; margin-top: 33px;""><img src=""images/choice_trial_10.png"" style=""width: 408px; height: 417px; margin-right: 200px;""><img src=""images/choice_trial_3.png"" style=""width: 408px; height: 417px;""></div></div>",j,delaylearn,learning,trial,A3CcGs9GTjhEtSfPIQz2sI07zDZ2,A3CcGs9GTjhEtSfPIQz2sI07zDZ2,2.0,images/choice_trial_10.png,images/choice_trial_3.png,images/pattern_1.png,f,j,7000.0,10.0,3.0,1.0,1.0,22.0,1.0,0.0,3.0,90.0,,,,,,63d1412396ee4fa133b52643,09:05:38,27/02/2024
html-keyboard-response,119,254919,0.0-51.0-1.0,,"<div style=""display: flex; flex-direction: column; align-items: center; margin-top: -40px;""><img src=""images/pattern_1.png"" style=""width: 234px; height: 230px; margin-top: -50px;""><div style=""display: flex; justify-content: space-between; margin-top: 33px;""><img src=""images/choice_trial_3.png"" style=""width: 408px; height: 417px; margin-left:608px;""></div></div>",,delaylearn,learning,display_response,A3CcGs9GTjhEtSfPIQz2sI07zDZ2,A3CcGs9GTjhEtSfPIQz2sI07zDZ2,,,,,,,,,,,,,,,,,chosen stimuli: images/choice_trial_3.png,,,,,63d1412396ee4fa133b52643,09:05:38,27/02/2024
html-keyboard-response,120,261922,0.0-51.0-2.0,,,,delaylearn,learning,feedback_duration_window,A3CcGs9GTjhEtSfPIQz2sI07zDZ2,A3CcGs9GTjhEtSfPIQz2sI07zDZ2,,,,,,,,,,,,,,,,,,7000.0,,,,63d1412396ee4fa133b52643,09:05:38,27/02/2024
html-keyboard-response,121,263436,0.0-51.0-3.0,,<div style='margin:auto;width: auto; font-size: 150%'><span style='font-weight: bold; font-size: 100px; color: red;'>0 points!</span><br><br></div>,,delaylearn,learning,feedback_image_window,A3CcGs9GTjhEtSfPIQz2sI07zDZ2,A3CcGs9GTjhEtSfPIQz2sI07zDZ2,,,,,,,,,,,,,,,,,,,,,,63d1412396ee4fa133b52643,09:05:38,27/02/2024
html-keyboard-response,122,265917,0.0-52.0,,"<div style=""font-size:100px;"">+</div>",,delaylearn,learning,ITI,A3CcGs9GTjhEtSfPIQz2sI07zDZ2,A3CcGs9GTjhEtSfPIQz2sI07zDZ2,,,,,,,,,,,,,,,,,,,2479.0,,,63d1412396ee4fa133b52643,09:05:38,27/02/2024
html-keyboard-response,123,268925,0.0-53.0-0.0,,"<div style=""display: flex; flex-direction: column; align-items: center; margin-top: -40px;""><img src=""images/pattern_5.png"" style=""width: 234px; height: 230px; margin-top: -50px;""><div style=""display: flex; justify-content: space-between; margin-top: 33px;""><img src=""images/choice_trial_9.png"" style=""width: 408px; height: 417px; margin-right: 200px;""><img src=""images/choice_trial_2.png"" style=""width: 408px; height: 417px;""></div></div>",,delaylearn,learning,trial,A3CcGs9GTjhEtSfPIQz2sI07zDZ2,A3CcGs9GTjhEtSfPIQz2sI07zDZ2,2.0,images/choice_trial_9.png,images/choice_trial_2.png,images/pattern_5.png,j,j,750.0,9.0,2.0,4.0,1.0,23.0,0.0,0.0,0.0,90.0,,,,,,63d1412396ee4fa133b52643,09:05:38,27/02/2024
html-keyboard-response,124,269927,0.0-53.0-1.0,,<div style='font-weight: bold; font-size: 75px; color: red;'>Missed Trial <br><br><br><br> Please respond faster</div>,,delaylearn,learning,display_response,A3CcGs9GTjhEtSfPIQz2sI07zDZ2,A3CcGs9GTjhEtSfPIQz2sI07zDZ2,,,,,,,,,,,,,,,,,Missed trial,,,,,63d1412396ee4fa133b52643,09:05:38,27/02/2024
html-keyboard-response,125,269932,0.0-53.0-2.0,,,,delaylearn,learning,feedback_duration_window,A3CcGs9GTjhEtSfPIQz2sI07zDZ2,A3CcGs9GTjhEtSfPIQz2sI07zDZ2,,,,,,,,,,,,,,,,,,0.0,,,,63d1412396ee4fa133b52643,09:05:38,27/02/2024
html-keyboard-response,126,269938,0.0-53.0-3.0,,,,delaylearn,learning,feedback_image_window,A3CcGs9GTjhEtSfPIQz2sI07zDZ2,A3CcGs9GTjhEtSfPIQz2sI07zDZ2,,,,,,,,,,,,,,,,,,,,,,63d1412396ee4fa133b52643,09:05:38,27/02/2024
html-keyboard-response,127,272110,0.0-54.0,,"<div style=""font-size:100px;"">+</div>",,delaylearn,learning,ITI,A3CcGs9GTjhEtSfPIQz2sI07zDZ2,A3CcGs9GTjhEtSfPIQz2sI07zDZ2,,,,,,,,,,,,,,,,,,,2168.0,,,63d1412396ee4fa133b52643,09:05:38,27/02/2024
html-keyboard-response,128,273578,0.0-55.0-0.0,1465.8999999761581,"<div style=""display: flex; flex-direction: column; align-items: center; margin-top: -40px;""><img src=""images/pattern_3.png"" style=""width: 234px; height: 230px; margin-top: -50px;""><div style=""display: flex; justify-content: space-between; margin-top: 33px;""><img src=""images/choice_trial_14.png"" style=""width: 408px; height: 417px; margin-right: 200px;""><img src=""images/choice_trial_12.png"" style=""width: 408px; height: 417px;""></div></div>",j,delaylearn,learning,trial,A3CcGs9GTjhEtSfPIQz2sI07zDZ2,A3CcGs9GTjhEtSfPIQz2sI07zDZ2,2.0,images/choice_trial_14.png,images/choice_trial_12.png,images/pattern_3.png,j,j,7000.0,14.0,12.0,2.0,1.0,24.0,1.0,1.0,12.0,100.0,,,,,,63d1412396ee4fa133b52643,09:05:38,27/02/2024
html-keyboard-response,129,274594,0.0-55.0-1.0,,"<div style=""display: flex; flex-direction: column; align-items: center; margin-top: -40px;""><img src=""images/pattern_3.png"" style=""width: 234px; height: 230px; margin-top: -50px;""><div style=""display: flex; justify-content: space-between; margin-top: 33px;""><img src=""images/choice_trial_12.png"" style=""width: 408px; height: 417px; margin-left:608px;""></div></div>",,delaylearn,learning,display_response,A3CcGs9GTjhEtSfPIQz2sI07zDZ2,A3CcGs9GTjhEtSfPIQz2sI07zDZ2,,,,,,,,,,,,,,,,,chosen stimuli: images/choice_trial_12.png,,,,,63d1412396ee4fa133b52643,09:05:38,27/02/2024
html-keyboard-response,130,281601,0.0-55.0-2.0,,,,delaylearn,learning,feedback_duration_window,A3CcGs9GTjhEtSfPIQz2sI07zDZ2,A3CcGs9GTjhEtSfPIQz2sI07zDZ2,,,,,,,,,,,,,,,,,,7000.0,,,,63d1412396ee4fa133b52643,09:05:38,27/02/2024
html-keyboard-response,131,283117,0.0-55.0-3.0,,<div style='margin:auto;width: auto; font-size: 150%'><span style='font-weight: bold; font-size: 100px; color: green;'>+10 points!</span><br><br></div>,,delaylearn,learning,feedback_image_window,A3CcGs9GTjhEtSfPIQz2sI07zDZ2,A3CcGs9GTjhEtSfPIQz2sI07zDZ2,,,,,,,,,,,,,,,,,,,,,,63d1412396ee4fa133b52643,09:05:38,27/02/2024
lmdlab-html-vas-response,132,287237,0.0-56.0-0.0,2599.0,*How <b><u>confident</u></b> are you feeling about your answers at this moment?*,0.018518518518518517,rewlearn,rate_confidence,,A3CcGs9GTjhEtSfPIQz2sI07zDZ2,A3CcGs9GTjhEtSfPIQz2sI07zDZ2,,,,,,,,,,,,,,,,,,,,"['No confidence', 'Complete confidence']",,63d1412396ee4fa133b52643,09:05:38,27/02/2024
lmdlab-rest-trial-limit,133,295443,0.0-56.0-1.0,6699.799999952316,"<div style=""font-size:40px;""><b>Please take a break!</b><br><br><br><br><p>Great work: you earned undefined points.<br><br><br><p>You have completed part(s) 1 of 6.<br><br><br><br>When you are ready to continue<br><br><br>please click the button.</p><br><br>",0,delaylearn,learning,break,A3CcGs9GTjhEtSfPIQz2sI07zDZ2,A3CcGs9GTjhEtSfPIQz2sI07zDZ2,,,,,,,,,,,,,,,,,,,,,0.0,63d1412396ee4fa133b52643,09:05:38,27/02/2024
html-keyboard-response,134,298457,0.0-56.0-2.0,,"<div style=""font-size:100px;"">+</div>",,delaylearn,learning,pre_fixation,A3CcGs9GTjhEtSfPIQz2sI07zDZ2,,,,,,,,,,,,,,,,,,,,,,,63d1412396ee4fa133b52643,09:05:38,27/02/2024
lmdlab-html-vas-response,135,301505,0.0-56.0-3.0-0.0,2029.0,How happy are you right now?,0.27314814814814814,delaylearn,learning,mood_baseline,A3CcGs9GTjhEtSfPIQz2sI07zDZ2,A3CcGs9GTjhEtSfPIQz2sI07zDZ2,,,,,,,,,,,,,,,,,,,,"['Very unhappy', 'Very happy']",,63d1412396ee4fa133b52643,09:05:38,27/02/2024
html-keyboard-response,136,303009,0.0-56.0-3.0-1.0,,,,,,mood_baseline_fixation,A3CcGs9GTjhEtSfPIQz2sI07zDZ2,,,,,,,,,,,,,,,,,,,,,,,63d1412396ee4fa133b52643,09:05:38,27/02/2024
html-keyboard-response,137,305126,0.0-57.0,,"<div style=""font-size:100px;"">+</div>",,delaylearn,learning,ITI,A3CcGs9GTjhEtSfPIQz2sI07zDZ2,A3CcGs9GTjhEtSfPIQz2sI07zDZ2,,,,,,,,,,,,,,,,,,,2109.0,,,63d1412396ee4fa133b52643,09:05:38,27/02/2024
html-keyboard-response,138,307298,0.0-58.0-0.0,2170.0,"<div style=""display: flex; flex-direction: column; align-items: center; margin-top: -40px;""><img src=""images/pattern_7.png"" style=""width: 234px; height: 230px; margin-top: -50px;""><div style=""display: flex; justify-content: space-between; margin-top: 33px;""><img src=""images/choice_trial_15.png"" style=""width: 408px; height: 417px; margin-right: 200px;""><img src=""images/choice_trial_8.png"" style=""width: 408px; height: 417px;""></div></div>",j,delaylearn,learning,trial,A3CcGs9GTjhEtSfPIQz2sI07zDZ2,A3CcGs9GTjhEtSfPIQz2sI07zDZ2,2.0,images/choice_trial_15.png,images/choice_trial_8.png,images/pattern_7.png,j,j,750.0,15.0,8.0,6.0,1.0,25.0,1.0,1.0,8.0,110.0,,,,,,63d1412396ee4fa133b52643,09:05:38,27/02/2024
html-keyboard-response,139,308309,0.0-58.0-1.0,,"<div style=""display: flex; flex-direction: column; align-items: center; margin-top: -40px;""><img src=""images/pattern_7.png"" style=""width: 234px; height: 230px; margin-top: -50px;""><div style=""display: flex; justify-content: space-between; margin-top: 33px;""><img src=""images/choice_trial_8.png"" style=""width: 408px; height: 417px; margin-left:608px;""></div></div>",,delaylearn,learning,display_response,A3CcGs9GTjhEtSfPIQz2sI07zDZ2,A3CcGs9GTjhEtSfPIQz2sI07zDZ2,,,,,,,,,,,,,,,,,chosen stimuli: images/choice_trial_8.png,,,,,63d1412396ee4fa133b52643,09:05:38,27/02/2024
html-keyboard-response,140,309074,0.0-58.0-2.0,,,,delaylearn,learning,feedback_duration_window,A3CcGs9GTjhEtSfPIQz2sI07zDZ2,A3CcGs9GTjhEtSfPIQz2sI07zDZ2,,,,,,,,,,,,,,,,,,750.0,,,,63d1412396ee4fa133b52643,09:05:38,27/02/2024
html-keyboard-response,141,310590,0.0-58.0-3.0,,<div style='margin:auto;width: auto; font-size: 150%'><span style='font-weight: bold; font-size: 100px; color: green;'>+10 points!</span><br><br></div>,,delaylearn,learning,feedback_image_window,A3CcGs9GTjhEtSfPIQz2sI07zDZ2,A3CcGs9GTjhEtSfPIQz2sI07zDZ2,,,,,,,,,,,,,,,,,,,,,,63d1412396ee4fa133b52643,09:05:38,27/02/2024
html-keyboard-response,142,311091,0.0-59.0-0.0,,,,,,mood_trial_fixation,A3CcGs9GTjhEtSfPIQz2sI07zDZ2,,,,,,,,,,,,,,,,,,,,,,,63d1412396ee4fa133b52643,09:05:38,27/02/2024
lmdlab-html-vas-response,143,316061,0.0-59.0-1.0,3958.0,How happy are you right now?,0.404320987654321,delaylearn,learning,mood_trial,A3CcGs9GTjhEtSfPIQz2sI07zDZ2,A3CcGs9GTjhEtSfPIQz2sI07zDZ2,,,,,,,,,,,,,,,,,,,,"['Very unhappy', 'Very happy']",,63d1412396ee4fa133b52643,09:05:38,27/02/2024
html-keyboard-response,144,318261,0.0-60.0,,"<div style=""font-size:100px;"">+</div>",,delaylearn,learning,ITI,A3CcGs9GTjhEtSfPIQz2sI07zDZ2,A3CcGs9GTjhEtSfPIQz2sI07zDZ2,,,,,,,,,,,,,,,,,,,2186.0,,,63d1412396ee4fa133b52643,09:05:38,27/02/2024
html-keyboard-response,145,321273,0.0-61.0-0.0,,"<div style=""display: flex; flex-direction: column; align-items: center; margin-top: -40px;""><img src=""images/pattern_1.png"" style=""width: 234px; height: 230px; margin-top: -50px;""><div style=""display: flex; justify-content: space-between; margin-top: 33px;""><img src=""images/choice_trial_3.png"" style=""width: 408px; height: 417px; margin-right: 200px;""><img src=""images/choice_trial_10.png"" style=""width: 408px; height: 417px;""></div></div>",,delaylearn,learning,trial,A3CcGs9GTjhEtSfPIQz2sI07zDZ2,A3CcGs9GTjhEtSfPIQz2sI07zDZ2,2.0,images/choice_trial_3.png,images/choice_trial_10.png,images/pattern_1.png,f,f,7000.0,3.0,10.0,1.0,0.0,26.0,0.0,0.0,0.0,110.0,,,,,,63d1412396ee4fa133b52643,09:05:38,27/02/2024
html-keyboard-response,146,322286,0.0-61.0-1.0,,<div style='font-weight: bold; font-size: 75px; color: red;'>Missed Trial <br><br><br><br> Please respond faster</div>,,delaylearn,learning,display_response,A3CcGs9GTjhEtSfPIQz2sI07zDZ2,A3CcGs9GTjhEtSfPIQz2sI07zDZ2,,,,,,,,,,,,,,,,,Missed trial,,,,,63d1412396ee4fa133b52643,09:05:38,27/02/2024
html-keyboard-response,147,322291,0.0-61.0-2.0,,,,delaylearn,learning,feedback_duration_window,A3CcGs9GTjhEtSfPIQz2sI07zDZ2,A3CcGs9GTjhEtSfPIQz2sI07zDZ2,,,,,,,,,,,,,,,,,,0.0,,,,63d1412396ee4fa133b52643,09:05:38,27/02/2024
html-keyboard-response,148,322296,0.0-61.0-3.0,,,,delaylearn,learning,feedback_image_window,A3CcGs9GTjhEtSfPIQz2sI07zDZ2,A3CcGs9GTjhEtSfPIQz2sI07zDZ2,,,,,,,,,,,,,,,,,,,,,,63d1412396ee4fa133b52643,09:05:38,27/02/2024
html-keyboard-response,149,324557,0.0-62.0,,"<div style=""font-size:100px;"">+</div>",,delaylearn,learning,ITI,A3CcGs9GTjhEtSfPIQz2sI07zDZ2,A3CcGs9GTjhEtSfPIQz2sI07zDZ2,,,,,,,,,,,,,,,,,,,2258.0,,,63d1412396ee4fa133b52643,09:05:38,27/02/2024
html-keyboard-response,150,326681,0.0-63.0-0.0,2122.8000000715256,"<div style=""display: flex; flex-direction: column; align-items: center; margin-top: -40px;""><img src=""images/pattern_5.png"" style=""width: 234px; height: 230px; margin-top: -50px;""><div style=""display: flex; justify-content: space-between; margin-top: 33px;""><img src=""images/choice_trial_2.png"" style=""width: 408px; height: 417px; margin-right: 200px;""><img src=""images/choice_trial_9.png"" style=""width: 408px; height: 417px;""></div></div>",f,delaylearn,learning,trial,A3CcGs9GTjhEtSfPIQz2sI07zDZ2,A3CcGs9GTjhEtSfPIQz2sI07zDZ2,2.0,images/choice_trial_2.png,images/choice_trial_9.png,images/pattern_5.png,f,f,750.0,2.0,9.0,4.0,0.0,27.0,1.0,1.0,2.0,120.0,,,,,,63d1412396ee4fa133b52643,09:05:38,27/02/2024
html-keyboard-response,151,327687,0.0-63.0-1.0,,"<div style=""display: flex; flex-direction: column; align-items: center; margin-top: -40px;""><img src=""images/pattern_5.png"" style=""width: 234px; height: 230px; margin-top: -50px;""><div style=""display: flex; justify-content: space-between; margin-top: 33px;""><img src=""images/choice_trial_2.png"" style=""width: 408px; height: 417px; margin-right: 608px;""></div></div>",,delaylearn,learning,display_response,A3CcGs9GTjhEtSfPIQz2sI07zDZ2,A3CcGs9GTjhEtSfPIQz2sI07zDZ2,,,,,,,,,,,,,,,,,chosen stimuli: images/choice_trial_2.png,,,,,63d1412396ee4fa133b52643,09:05:38,27/02/2024
html-keyboard-response,152,328454,0.0-63.0-2.0,,,,delaylearn,learning,feedback_duration_window,A3CcGs9GTjhEtSfPIQz2sI07zDZ2,A3CcGs9GTjhEtSfPIQz2sI07zDZ2,,,,,,,,,,,,,,,,,,750.0,,,,63d1412396ee4fa133b52643,09:05:38,27/02/2024
html-keyboard-response,153,329970,0.0-63.0-3.0,,<div style='margin:auto;width: auto; font-size: 150%'><span style='font-weight: bold; font-size: 100px; color: green;'>+10 points!</span><br><br></div>,,delaylearn,learning,feedback_image_window,A3CcGs9GTjhEtSfPIQz2sI07zDZ2,A3CcGs9GTjhEtSfPIQz2sI07zDZ2,,,,,,,,,,,,,,,,,,,,,,63d1412396ee4fa133b52643,09:05:38,27/02/2024
html-keyboard-response,154,331513,0.0-64.0,,"<div style=""font-size:100px;"">+</div>",,delaylearn,learning,ITI,A3CcGs9GTjhEtSfPIQz2sI07zDZ2,A3CcGs9GTjhEtSfPIQz2sI07zDZ2,,,,,,,,,,,,,,,,,,,1539.0,,,63d1412396ee4fa133b52643,09:05:38,27/02/2024
html-keyboard-response,155,332881,0.0-65.0-0.0,1367.1999999284744,"<div style=""display: flex; flex-direction: column; align-items: center; margin-top: -40px;""><img src=""images/pattern_6.png"" style=""width: 234px; height: 230px; margin-top: -50px;""><div style=""display: flex; justify-content: space-between; margin-top: 33px;""><img src=""images/choice_trial_5.png"" style=""width: 408px; height: 417px; margin-right: 200px;""><img src=""images/choice_trial_11.png"" style=""width: 408px; height: 417px;""></div></div>",j,delaylearn,learning,trial,A3CcGs9GTjhEtSfPIQz2sI07zDZ2,A3CcGs9GTjhEtSfPIQz2sI07zDZ2,2.0,images/choice_trial_5.png,images/choice_trial_11.png,images/pattern_6.png,j,j,750.0,5.0,11.0,5.0,1.0,28.0,1.0,1.0,11.0,130.0,,,,,,63d1412396ee4fa133b52643,09:05:38,27/02/2024
html-keyboard-response,156,333887,0.0-65.0-1.0,,"<div style=""display: flex; flex-direction: column; align-items: center; margin-top: -40px;""><img src=""images/pattern_6.png"" style=""width: 234px; height: 230px; margin-top: -50px;""><div style=""display: flex; justify-content: space-between; margin-top: 33px;""><img src=""images/choice_trial_11.png"" style=""width: 408px; height: 417px; margin-left:608px;""></div></div>",,delaylearn,learning,display_response,A3CcGs9GTjhEtSfPIQz2sI07zDZ2,A3CcGs9GTjhEtSfPIQz2sI07zDZ2,,,,,,,,,,,,,,,,,chosen stimuli: images/choice_trial_11.png,,,,,63d1412396ee4fa133b52643,09:05:38,27/02/2024
html-keyboard-response,157,334653,0.0-65.0-2.0,,,,delaylearn,learning,feedback_duration_window,A3CcGs9GTjhEtSfPIQz2sI07zDZ2,A3CcGs9GTjhEtSfPIQz2sI07zDZ2,,,,,,,,,,,,,,,,,,750.0,,,,63d1412396ee4fa133b52643,09:05:38,27/02/2024
html-keyboard-response,158,336166,0.0-65.0-3.0,,<div style='margin:auto;width: auto; font-size: 150%'><span style='font-weight: bold; font-size: 100px; color: green;'>+10 points!</span><br><br></div>,,delaylearn,learning,feedback_image_window,A3CcGs9GTjhEtSfPIQz2sI07zDZ2,A3CcGs9GTjhEtSfPIQz2sI07zDZ2,,,,,,,,,,,,,,,,,,,,,,63d1412396ee4fa133b52643,09:05:38,27/02/2024
html-keyboard-response,159,336681,0.0-66.0-0.0,,,,,,mood_trial_fixation,A3CcGs9GTjhEtSfPIQz2sI07zDZ2,,,,,,,,,,,,,,,,,,,,,,,63d1412396ee4fa133b52643,09:05:38,27/02/2024
lmdlab-html-vas-response,160,342131,0.0-66.0-1.0,4435.0,How happy are you right now?,0.4444444444444444,delaylearn,learning,mood_trial,A3CcGs9GTjhEtSfPIQz2sI07zDZ2,A3CcGs9GTjhEtSfPIQz2sI07zDZ2,,,,,,,,,,,,,,,,,,,,"['Very unhappy', 'Very happy']",,63d1412396ee4fa133b52643,09:05:38,27/02/2024
html-keyboard-response,161,344362,0.0-67.0,,"<div style=""font-size:100px;"">+</div>",,delaylearn,learning,ITI,A3CcGs9GTjhEtSfPIQz2sI07zDZ2,A3CcGs9GTjhEtSfPIQz2sI07zDZ2,,,,,,,,,,,,,,,,,,,2229.0,,,63d1412396ee4fa133b52643,09:05:38,27/02/2024
html-keyboard-response,162,345442,0.0-68.0-0.0,1078.2000000476837,"<div style=""display: flex; flex-direction: column; align-items: center; margin-top: -40px;""><img src=""images/pattern_4.png"" style=""width: 234px; height: 230px; margin-top: -50px;""><div style=""display: flex; justify-content: space-between; margin-top: 33px;""><img src=""images/choice_trial_16.png"" style=""width: 408px; height: 417px; margin-right: 200px;""><img src=""images/choice_trial_4.png"" style=""width: 408px; height: 417px;""></div></div>",j,delaylearn,learning,trial,A3CcGs9GTjhEtSfPIQz2sI07zDZ2,A3CcGs9GTjhEtSfPIQz2sI07zDZ2,2.0,images/choice_trial_16.png,images/choice_trial_4.png,images/pattern_4.png,j,j,7000.0,16.0,4.0,3.0,1.0,29.0,1.0,1.0,4.0,140.0,,,,,,63d1412396ee4fa133b52643,09:05:38,27/02/2024
html-keyboard-response,163,346458,0.0-68.0-1.0,,"<div style=""display: flex; flex-direction: column; align-items: center; margin-top: -40px;""><img src=""images/pattern_4.png"" style=""width: 234px; height: 230px; margin-top: -50px;""><div style=""display: flex; justify-content: space-between; margin-top: 33px;""><img src=""images/choice_trial_4.png"" style=""width: 408px; height: 417px; margin-left:608px;""></div></div>",,delaylearn,learning,display_response,A3CcGs9GTjhEtSfPIQz2sI07zDZ2,A3CcGs9GTjhEtSfPIQz2sI07zDZ2,,,,,,,,,,,,,,,,,chosen stimuli: images/choice_trial_4.png,,,,,63d1412396ee4fa133b52643,09:05:38,27/02/2024
html-keyboard-response,164,353462,0.0-68.0-2.0,,,,delaylearn,learning,feedback_duration_window,A3CcGs9GTjhEtSfPIQz2sI07zDZ2,A3CcGs9GTjhEtSfPIQz2sI07zDZ2,,,,,,,,,,,,,,,,,,7000.0,,,,63d1412396ee4fa133b52643,09:05:38,27/02/2024
html-keyboard-response,165,354963,0.0-68.0-3.0,,<div style='margin:auto;width: auto; font-size: 150%'><span style='font-weight: bold; font-size: 100px; color: green;'>+10 points!</span><br><br></div>,,delaylearn,learning,feedback_image_window,A3CcGs9GTjhEtSfPIQz2sI07zDZ2,A3CcGs9GTjhEtSfPIQz2sI07zDZ2,,,,,,,,,,,,,,,,,,,,,,63d1412396ee4fa133b52643,09:05:38,27/02/2024
html-keyboard-response,166,357034,0.0-69.0,,"<div style=""font-size:100px;"">+</div>",,delaylearn,learning,ITI,A3CcGs9GTjhEtSfPIQz2sI07zDZ2,A3CcGs9GTjhEtSfPIQz2sI07zDZ2,,,,,,,,,,,,,,,,,,,2067.0,,,63d1412396ee4fa133b52643,09:05:38,27/02/2024
html-keyboard-response,167,358434,0.0-70.0-0.0,1397.9000000953674,"<div style=""display: flex; flex-direction: column; align-items: center; margin-top: -40px;""><img src=""images/pattern_3.png"" style=""width: 234px; height: 230px; margin-top: -50px;""><div style=""display: flex; justify-content: space-between; margin-top: 33px;""><img src=""images/choice_trial_14.png"" style=""width: 408px; height: 417px; margin-right: 200px;""><img src=""images/choice_trial_12.png"" style=""width: 408px; height: 417px;""></div></div>",j,delaylearn,learning,trial,A3CcGs9GTjhEtSfPIQz2sI07zDZ2,A3CcGs9GTjhEtSfPIQz2sI07zDZ2,2.0,images/choice_trial_14.png,images/choice_trial_12.png,images/pattern_3.png,j,j,7000.0,14.0,12.0,2.0,1.0,30.0,1.0,1.0,12.0,150.0,,,,,,63d1412396ee4fa133b52643,09:05:38,27/02/2024
html-keyboard-response,168,359446,0.0-70.0-1.0,,"<div style=""display: flex; flex-direction: column; align-items: center; margin-top: -40px;""><img src=""images/pattern_3.png"" style=""width: 234px; height: 230px; margin-top: -50px;""><div style=""display: flex; justify-content: space-between; margin-top: 33px;""><img src=""images/choice_trial_12.png"" style=""width: 408px; height: 417px; margin-left:608px;""></div></div>",,delaylearn,learning,display_response,A3CcGs9GTjhEtSfPIQz2sI07zDZ2,A3CcGs9GTjhEtSfPIQz2sI07zDZ2,,,,,,,,,,,,,,,,,chosen stimuli: images/choice_trial_12.png,,,,,63d1412396ee4fa133b52643,09:05:38,27/02/2024
html-keyboard-response,169,366460,0.0-70.0-2.0,,,,delaylearn,learning,feedback_duration_window,A3CcGs9GTjhEtSfPIQz2sI07zDZ2,A3CcGs9GTjhEtSfPIQz2sI07zDZ2,,,,,,,,,,,,,,,,,,7000.0,,,,63d1412396ee4fa133b52643,09:05:38,27/02/2024
html-keyboard-response,170,367969,0.0-70.0-3.0,,<div style='margin:auto;width: auto; font-size: 150%'><span style='font-weight: bold; font-size: 100px; color: green;'>+10 points!</span><br><br></div>,,delaylearn,learning,feedback_image_window,A3CcGs9GTjhEtSfPIQz2sI07zDZ2,A3CcGs9GTjhEtSfPIQz2sI07zDZ2,,,,,,,,,,,,,,,,,,,,,,63d1412396ee4fa133b52643,09:05:38,27/02/2024
html-keyboard-response,171,369662,0.0-71.0,,"<div style=""font-size:100px;"">+</div>",,delaylearn,learning,ITI,A3CcGs9GTjhEtSfPIQz2sI07zDZ2,A3CcGs9GTjhEtSfPIQz2sI07zDZ2,,,,,,,,,,,,,,,,,,,1678.0,,,63d1412396ee4fa133b52643,09:05:38,27/02/2024
html-keyboard-response,172,371490,0.0-72.0-0.0,1825.8000000715256,"<div style=""display: flex; flex-direction: column; align-items: center; margin-top: -40px;""><img src=""images/pattern_5.png"" style=""width: 234px; height: 230px; margin-top: -50px;""><div style=""display: flex; justify-content: space-between; margin-top: 33px;""><img src=""images/choice_trial_2.png"" style=""width: 408px; height: 417px; margin-right: 200px;""><img src=""images/choice_trial_9.png"" style=""width: 408px; height: 417px;""></div></div>",f,delaylearn,learning,trial,A3CcGs9GTjhEtSfPIQz2sI07zDZ2,A3CcGs9GTjhEtSfPIQz2sI07zDZ2,2.0,images/choice_trial_2.png,images/choice_trial_9.png,images/pattern_5.png,j,f,750.0,2.0,9.0,4.0,0.0,31.0,1.0,0.0,2.0,150.0,,,,,,63d1412396ee4fa133b52643,09:05:38,27/02/2024
html-keyboard-response,173,372497,0.0-72.0-1.0,,"<div style=""display: flex; flex-direction: column; align-items: center; margin-top: -40px;""><img src=""images/pattern_5.png"" style=""width: 234px; height: 230px; margin-top: -50px;""><div style=""display: flex; justify-content: space-between; margin-top: 33px;""><img src=""images/choice_trial_2.png"" style=""width: 408px; height: 417px; margin-right: 608px;""></div></div>",,delaylearn,learning,display_response,A3CcGs9GTjhEtSfPIQz2sI07zDZ2,A3CcGs9GTjhEtSfPIQz2sI07zDZ2,,,,,,,,,,,,,,,,,chosen stimuli: images/choice_trial_2.png,,,,,63d1412396ee4fa133b52643,09:05:38,27/02/2024
html-keyboard-response,174,373250,0.0-72.0-2.0,,,,delaylearn,learning,feedback_duration_window,A3CcGs9GTjhEtSfPIQz2sI07zDZ2,A3CcGs9GTjhEtSfPIQz2sI07zDZ2,,,,,,,,,,,,,,,,,,750.0,,,,63d1412396ee4fa133b52643,09:05:38,27/02/2024
html-keyboard-response,175,374760,0.0-72.0-3.0,,<div style='margin:auto;width: auto; font-size: 150%'><span style='font-weight: bold; font-size: 100px; color: red;'>0 points!</span><br><br></div>,,delaylearn,learning,feedback_image_window,A3CcGs9GTjhEtSfPIQz2sI07zDZ2,A3CcGs9GTjhEtSfPIQz2sI07zDZ2,,,,,,,,,,,,,,,,,,,,,,63d1412396ee4fa133b52643,09:05:38,27/02/2024
html-keyboard-response,176,376890,0.0-73.0,,"<div style=""font-size:100px;"">+</div>",,delaylearn,learning,ITI,A3CcGs9GTjhEtSfPIQz2sI07zDZ2,A3CcGs9GTjhEtSfPIQz2sI07zDZ2,,,,,,,,,,,,,,,,,,,2118.0,,,63d1412396ee4fa133b52643,09:05:38,27/02/2024
html-keyboard-response,177,378193,0.0-74.0-0.0,1301.2999999523163,"<div style=""display: flex; flex-direction: column; align-items: center; margin-top: -40px;""><img src=""images/pattern_1.png"" style=""width: 234px; height: 230px; margin-top: -50px;""><div style=""display: flex; justify-content: space-between; margin-top: 33px;""><img src=""images/choice_trial_3.png"" style=""width: 408px; height: 417px; margin-right: 200px;""><img src=""images/choice_trial_10.png"" style=""width: 408px; height: 417px;""></div></div>",f,delaylearn,learning,trial,A3CcGs9GTjhEtSfPIQz2sI07zDZ2,A3CcGs9GTjhEtSfPIQz2sI07zDZ2,2.0,images/choice_trial_3.png,images/choice_trial_10.png,images/pattern_1.png,f,f,7000.0,3.0,10.0,1.0,0.0,32.0,1.0,1.0,3.0,160.0,,,,,,63d1412396ee4fa133b52643,09:05:38,27/02/2024
html-keyboard-response,178,379197,0.0-74.0-1.0,,"<div style=""display: flex; flex-direction: column; align-items: center; margin-top: -40px;""><img src=""images/pattern_1.png"" style=""width: 234px; height: 230px; margin-top: -50px;""><div style=""display: flex; justify-content: space-between; margin-top: 33px;""><img src=""images/choice_trial_3.png"" style=""width: 408px; height: 417px; margin-right: 608px;""></div></div>",,delaylearn,learning,display_response,A3CcGs9GTjhEtSfPIQz2sI07zDZ2,A3CcGs9GTjhEtSfPIQz2sI07zDZ2,,,,,,,,,,,,,,,,,chosen stimuli: images/choice_trial_3.png,,,,,63d1412396ee4fa133b52643,09:05:38,27/02/2024
html-keyboard-response,179,386213,0.0-74.0-2.0,,,,delaylearn,learning,feedback_duration_window,A3CcGs9GTjhEtSfPIQz2sI07zDZ2,A3CcGs9GTjhEtSfPIQz2sI07zDZ2,,,,,,,,,,,,,,,,,,7000.0,,,,63d1412396ee4fa133b52643,09:05:38,27/02/2024
html-keyboard-response,180,387727,0.0-74.0-3.0,,<div style='margin:auto;width: auto; font-size: 150%'><span style='font-weight: bold; font-size: 100px; color: green;'>+10 points!</span><br><br></div>,,delaylearn,learning,feedback_image_window,A3CcGs9GTjhEtSfPIQz2sI07zDZ2,A3CcGs9GTjhEtSfPIQz2sI07zDZ2,,,,,,,,,,,,,,,,,,,,,,63d1412396ee4fa133b52643,09:05:38,27/02/2024
html-keyboard-response,181,388228,0.0-75.0-0.0,,,,,,mood_trial_fixation,A3CcGs9GTjhEtSfPIQz2sI07zDZ2,,,,,,,,,,,,,,,,,,,,,,,63d1412396ee4fa133b52643,09:05:38,27/02/2024
lmdlab-html-vas-response,182,391860,0.0-75.0-1.0,2617.0,How happy are you right now?,0.05864197530864197,delaylearn,learning,mood_trial,A3CcGs9GTjhEtSfPIQz2sI07zDZ2,A3CcGs9GTjhEtSfPIQz2sI07zDZ2,,,,,,,,,,,,,,,,,,,,"['Very unhappy', 'Very happy']",,63d1412396ee4fa133b52643,09:05:38,27/02/2024
html-keyboard-response,183,393963,0.0-76.0,,"<div style=""font-size:100px;"">+</div>",,delaylearn,learning,ITI,A3CcGs9GTjhEtSfPIQz2sI07zDZ2,A3CcGs9GTjhEtSfPIQz2sI07zDZ2,,,,,,,,,,,,,,,,,,,2096.0,,,63d1412396ee4fa133b52643,09:05:38,27/02/2024
html-keyboard-response,184,395825,0.0-77.0-0.0,1860.3000000715256,"<div style=""display: flex; flex-direction: column; align-items: center; margin-top: -40px;""><img src=""images/pattern_6.png"" style=""width: 234px; height: 230px; margin-top: -50px;""><div style=""display: flex; justify-content: space-between; margin-top: 33px;""><img src=""images/choice_trial_11.png"" style=""width: 408px; height: 417px; margin-right: 200px;""><img src=""images/choice_trial_5.png"" style=""width: 408px; height: 417px;""></div></div>",f,delaylearn,learning,trial,A3CcGs9GTjhEtSfPIQz2sI07zDZ2,A3CcGs9GTjhEtSfPIQz2sI07zDZ2,2.0,images/choice_trial_11.png,images/choice_trial_5.png,images/pattern_6.png,j,f,750.0,11.0,5.0,5.0,0.0,33.0,1.0,0.0,11.0,160.0,,,,,,63d1412396ee4fa133b52643,09:05:38,27/02/2024
html-keyboard-response,185,396833,0.0-77.0-1.0,,"<div style=""display: flex; flex-direction: column; align-items: center; margin-top: -40px;""><img src=""images/pattern_6.png"" style=""width: 234px; height: 230px; margin-top: -50px;""><div style=""display: flex; justify-content: space-between; margin-top: 33px;""><img src=""images/choice_trial_11.png"" style=""width: 408px; height: 417px; margin-right: 608px;""></div></div>",,delaylearn,learning,display_response,A3CcGs9GTjhEtSfPIQz2sI07zDZ2,A3CcGs9GTjhEtSfPIQz2sI07zDZ2,,,,,,,,,,,,,,,,,chosen stimuli: images/choice_trial_11.png,,,,,63d1412396ee4fa133b52643,09:05:38,27/02/2024
html-keyboard-response,186,397588,0.0-77.0-2.0,,,,delaylearn,learning,feedback_duration_window,A3CcGs9GTjhEtSfPIQz2sI07zDZ2,A3CcGs9GTjhEtSfPIQz2sI07zDZ2,,,,,,,,,,,,,,,,,,750.0,,,,63d1412396ee4fa133b52643,09:05:38,27/02/2024
html-keyboard-response,187,399099,0.0-77.0-3.0,,<div style='margin:auto;width: auto; font-size: 150%'><span style='font-weight: bold; font-size: 100px; color: red;'>0 points!</span><br><br></div>,,delaylearn,learning,feedback_image_window,A3CcGs9GTjhEtSfPIQz2sI07zDZ2,A3CcGs9GTjhEtSfPIQz2sI07zDZ2,,,,,,,,,,,,,,,,,,,,,,63d1412396ee4fa133b52643,09:05:38,27/02/2024
html-keyboard-response,188,401187,0.0-78.0,,"<div style=""font-size:100px;"">+</div>",,delaylearn,learning,ITI,A3CcGs9GTjhEtSfPIQz2sI07zDZ2,A3CcGs9GTjhEtSfPIQz2sI07zDZ2,,,,,,,,,,,,,,,,,,,2079.0,,,63d1412396ee4fa133b52643,09:05:38,27/02/2024
html-keyboard-response,189,402497,0.0-79.0-0.0,1308.7999999523163,"<div style=""display: flex; flex-direction: column; align-items: center; margin-top: -40px;""><img src=""images/pattern_3.png"" style=""width: 234px; height: 230px; margin-top: -50px;""><div style=""display: flex; justify-content: space-between; margin-top: 33px;""><img src=""images/choice_trial_14.png"" style=""width: 408px; height: 417px; margin-right: 200px;""><img src=""images/choice_trial_12.png"" style=""width: 408px; height: 417px;""></div></div>",j,delaylearn,learning,trial,A3CcGs9GTjhEtSfPIQz2sI07zDZ2,A3CcGs9GTjhEtSfPIQz2sI07zDZ2,2.0,images/choice_trial_14.png,images/choice_trial_12.png,images/pattern_3.png,j,j,7000.0,14.0,12.0,2.0,1.0,34.0,1.0,1.0,12.0,170.0,,,,,,63d1412396ee4fa133b52643,09:05:38,27/02/2024
html-keyboard-response,190,403513,0.0-79.0-1.0,,"<div style=""display: flex; flex-direction: column; align-items: center; margin-top: -40px;""><img src=""images/pattern_3.png"" style=""width: 234px; height: 230px; margin-top: -50px;""><div style=""display: flex; justify-content: space-between; margin-top: 33px;""><img src=""images/choice_trial_12.png"" style=""width: 408px; height: 417px; margin-left:608px;""></div></div>",,delaylearn,learning,display_response,A3CcGs9GTjhEtSfPIQz2sI07zDZ2,A3CcGs9GTjhEtSfPIQz2sI07zDZ2,,,,,,,,,,,,,,,,,chosen stimuli: images/choice_trial_12.png,,,,,63d1412396ee4fa133b52643,09:05:38,27/02/2024
html-keyboard-response,191,410522,0.0-79.0-2.0,,,,delaylearn,learning,feedback_duration_window,A3CcGs9GTjhEtSfPIQz2sI07zDZ2,A3CcGs9GTjhEtSfPIQz2sI07zDZ2,,,,,,,,,,,,,,,,,,7000.0,,,,63d1412396ee4fa133b52643,09:05:38,27/02/2024
html-keyboard-response,192,412032,0.0-79.0-3.0,,<div style='margin:auto;width: auto; font-size: 150%'><span style='font-weight: bold; font-size: 100px; color: green;'>+10 points!</span><br><br></div>,,delaylearn,learning,feedback_image_window,A3CcGs9GTjhEtSfPIQz2sI07zDZ2,A3CcGs9GTjhEtSfPIQz2sI07zDZ2,,,,,,,,,,,,,,,,,,,,,,63d1412396ee4fa133b52643,09:05:38,27/02/2024
html-keyboard-response,193,414454,0.0-80.0,,"<div style=""font-size:100px;"">+</div>",,delaylearn,learning,ITI,A3CcGs9GTjhEtSfPIQz2sI07zDZ2,A3CcGs9GTjhEtSfPIQz2sI07zDZ2,,,,,,,,,,,,,,,,,,,2415.0,,,63d1412396ee4fa133b52643,09:05:38,27/02/2024
html-keyboard-response,194,415409,0.0-81.0-0.0,953.3000000715256,"<div style=""display: flex; flex-direction: column; align-items: center; margin-top: -40px;""><img src=""images/pattern_4.png"" style=""width: 234px; height: 230px; margin-top: -50px;""><div style=""display: flex; justify-content: space-between; margin-top: 33px;""><img src=""images/choice_trial_16.png"" style=""width: 408px; height: 417px; margin-right: 200px;""><img src=""images/choice_trial_4.png"" style=""width: 408px; height: 417px;""></div></div>",j,delaylearn,learning,trial,A3CcGs9GTjhEtSfPIQz2sI07zDZ2,A3CcGs9GTjhEtSfPIQz2sI07zDZ2,2.0,images/choice_trial_16.png,images/choice_trial_4.png,images/pattern_4.png,f,j,7000.0,16.0,4.0,3.0,1.0,35.0,1.0,0.0,4.0,170.0,,,,,,63d1412396ee4fa133b52643,09:05:38,27/02/2024
html-keyboard-response,195,416419,0.0-81.0-1.0,,"<div style=""display: flex; flex-direction: column; align-items: center; margin-top: -40px;""><img src=""images/pattern_4.png"" style=""width: 234px; height: 230px; margin-top: -50px;""><div style=""display: flex; justify-content: space-between; margin-top: 33px;""><img src=""images/choice_trial_4.png"" style=""width: 408px; height: 417px; margin-left:608px;""></div></div>",,delaylearn,learning,display_response,A3CcGs9GTjhEtSfPIQz2sI07zDZ2,A3CcGs9GTjhEtSfPIQz2sI07zDZ2,,,,,,,,,,,,,,,,,chosen stimuli: images/choice_trial_4.png,,,,,63d1412396ee4fa133b52643,09:05:38,27/02/2024
html-keyboard-response,196,423421,0.0-81.0-2.0,,,,delaylearn,learning,feedback_duration_window,A3CcGs9GTjhEtSfPIQz2sI07zDZ2,A3CcGs9GTjhEtSfPIQz2sI07zDZ2,,,,,,,,,,,,,,,,,,7000.0,,,,63d1412396ee4fa133b52643,09:05:38,27/02/2024
html-keyboard-response,197,424935,0.0-81.0-3.0,,<div style='margin:auto;width: auto; font-size: 150%'><span style='font-weight: bold; font-size: 100px; color: red;'>0 points!</span><br><br></div>,,delaylearn,learning,feedback_image_window,A3CcGs9GTjhEtSfPIQz2sI07zDZ2,A3CcGs9GTjhEtSfPIQz2sI07zDZ2,,,,,,,,,,,,,,,,,,,,,,63d1412396ee4fa133b52643,09:05:38,27/02/2024
html-keyboard-response,198,426918,0.0-82.0,,"<div style=""font-size:100px;"">+</div>",,delaylearn,learning,ITI,A3CcGs9GTjhEtSfPIQz2sI07zDZ2,A3CcGs9GTjhEtSfPIQz2sI07zDZ2,,,,,,,,,,,,,,,,,,,1981.0,,,63d1412396ee4fa133b52643,09:05:38,27/02/2024
html-keyboard-response,199,428321,0.0-83.0-0.0,1401.3999999761581,"<div style=""display: flex; flex-direction: column; align-items: center; margin-top: -40px;""><img src=""images/pattern_7.png"" style=""width: 234px; height: 230px; margin-top: -50px;""><div style=""display: flex; justify-content: space-between; margin-top: 33px;""><img src=""images/choice_trial_8.png"" style=""width: 408px; height: 417px; margin-right: 200px;""><img src=""images/choice_trial_15.png"" style=""width: 408px; height: 417px;""></div></div>",f,delaylearn,learning,trial,A3CcGs9GTjhEtSfPIQz2sI07zDZ2,A3CcGs9GTjhEtSfPIQz2sI07zDZ2,2.0,images/choice_trial_8.png,images/choice_trial_15.png,images/pattern_7.png,f,f,750.0,8.0,15.0,6.0,0.0,36.0,1.0,1.0,8.0,180.0,,,,,,63d1412396ee4fa133b52643,09:05:38,27/02/2024
html-keyboard-response,200,429326,0.0-83.0-1.0,,"<div style=""display: flex; flex-direction: column; align-items: center; margin-top: -40px;""><img src=""images/pattern_7.png"" style=""width: 234px; height: 230px; margin-top: -50px;""><div style=""display: flex; justify-content: space-between; margin-top: 33px;""><img src=""images/choice_trial_8.png"" style=""width: 408px; height: 417px; margin-right: 608px;""></div></div>",,delaylearn,learning,display_response,A3CcGs9GTjhEtSfPIQz2sI07zDZ2,A3CcGs9GTjhEtSfPIQz2sI07zDZ2,,,,,,,,,,,,,,,,,chosen stimuli: images/choice_trial_8.png,,,,,63d1412396ee4fa133b52643,09:05:38,27/02/2024
html-keyboard-response,201,430091,0.0-83.0-2.0,,,,delaylearn,learning,feedback_duration_window,A3CcGs9GTjhEtSfPIQz2sI07zDZ2,A3CcGs9GTjhEtSfPIQz2sI07zDZ2,,,,,,,,,,,,,,,,,,750.0,,,,63d1412396ee4fa133b52643,09:05:38,27/02/2024
html-keyboard-response,202,431598,0.0-83.0-3.0,,<div style='margin:auto;width: auto; font-size: 150%'><span style='font-weight: bold; font-size: 100px; color: green;'>+10 points!</span><br><br></div>,,delaylearn,learning,feedback_image_window,A3CcGs9GTjhEtSfPIQz2sI07zDZ2,A3CcGs9GTjhEtSfPIQz2sI07zDZ2,,,,,,,,,,,,,,,,,,,,,,63d1412396ee4fa133b52643,09:05:38,27/02/2024
html-keyboard-response,203,433112,0.0-84.0,,"<div style=""font-size:100px;"">+</div>",,delaylearn,learning,ITI,A3CcGs9GTjhEtSfPIQz2sI07zDZ2,A3CcGs9GTjhEtSfPIQz2sI07zDZ2,,,,,,,,,,,,,,,,,,,1511.0,,,63d1412396ee4fa133b52643,09:05:38,27/02/2024
html-keyboard-response,204,435712,0.0-85.0-0.0,2599.0,"<div style=""display: flex; flex-direction: column; align-items: center; margin-top: -40px;""><img src=""images/pattern_1.png"" style=""width: 234px; height: 230px; margin-top: -50px;""><div style=""display: flex; justify-content: space-between; margin-top: 33px;""><img src=""images/choice_trial_3.png"" style=""width: 408px; height: 417px; margin-right: 200px;""><img src=""images/choice_trial_10.png"" style=""width: 408px; height: 417px;""></div></div>",f,delaylearn,learning,trial,A3CcGs9GTjhEtSfPIQz2sI07zDZ2,A3CcGs9GTjhEtSfPIQz2sI07zDZ2,2.0,images/choice_trial_3.png,images/choice_trial_10.png,images/pattern_1.png,f,f,7000.0,3.0,10.0,1.0,0.0,37.0,1.0,1.0,3.0,190.0,,,,,,63d1412396ee4fa133b52643,09:05:38,27/02/2024
html-keyboard-response,205,436720,0.0-85.0-1.0,,"<div style=""display: flex; flex-direction: column; align-items: center; margin-top: -40px;""><img src=""images/pattern_1.png"" style=""width: 234px; height: 230px; margin-top: -50px;""><div style=""display: flex; justify-content: space-between; margin-top: 33px;""><img src=""images/choice_trial_3.png"" style=""width: 408px; height: 417px; margin-right: 608px;""></div></div>",,delaylearn,learning,display_response,A3CcGs9GTjhEtSfPIQz2sI07zDZ2,A3CcGs9GTjhEtSfPIQz2sI07zDZ2,,,,,,,,,,,,,,,,,chosen stimuli: images/choice_trial_3.png,,,,,63d1412396ee4fa133b52643,09:05:38,27/02/2024
html-keyboard-response,206,443727,0.0-85.0-2.0,,,,delaylearn,learning,feedback_duration_window,A3CcGs9GTjhEtSfPIQz2sI07zDZ2,A3CcGs9GTjhEtSfPIQz2sI07zDZ2,,,,,,,,,,,,,,,,,,7000.0,,,,63d1412396ee4fa133b52643,09:05:38,27/02/2024
html-keyboard-response,207,445239,0.0-85.0-3.0,,<div style='margin:auto;width: auto; font-size: 150%'><span style='font-weight: bold; font-size: 100px; color: green;'>+10 points!</span><br><br></div>,,delaylearn,learning,feedback_image_window,A3CcGs9GTjhEtSfPIQz2sI07zDZ2,A3CcGs9GTjhEtSfPIQz2sI07zDZ2,,,,,,,,,,,,,,,,,,,,,,63d1412396ee4fa133b52643,09:05:38,27/02/2024
html-keyboard-response,208,445753,0.0-86.0-0.0,,,,,,mood_trial_fixation,A3CcGs9GTjhEtSfPIQz2sI07zDZ2,,,,,,,,,,,,,,,,,,,,,,,63d1412396ee4fa133b52643,09:05:38,27/02/2024
lmdlab-html-vas-response,209,448991,0.0-86.0-1.0,2236.0,How happy are you right now?,0.4444444444444444,delaylearn,learning,mood_trial,A3CcGs9GTjhEtSfPIQz2sI07zDZ2,A3CcGs9GTjhEtSfPIQz2sI07zDZ2,,,,,,,,,,,,,,,,,,,,"['Very unhappy', 'Very happy']",,63d1412396ee4fa133b52643,09:05:38,27/02/2024
html-keyboard-response,210,451371,0.0-87.0,,"<div style=""font-size:100px;"">+</div>",,delaylearn,learning,ITI,A3CcGs9GTjhEtSfPIQz2sI07zDZ2,A3CcGs9GTjhEtSfPIQz2sI07zDZ2,,,,,,,,,,,,,,,,,,,2375.0,,,63d1412396ee4fa133b52643,09:05:38,27/02/2024
html-keyboard-response,211,452672,0.0-88.0-0.0,1300.0,"<div style=""display: flex; flex-direction: column; align-items: center; margin-top: -40px;""><img src=""images/pattern_3.png"" style=""width: 234px; height: 230px; margin-top: -50px;""><div style=""display: flex; justify-content: space-between; margin-top: 33px;""><img src=""images/choice_trial_12.png"" style=""width: 408px; height: 417px; margin-right: 200px;""><img src=""images/choice_trial_14.png"" style=""width: 408px; height: 417px;""></div></div>",f,delaylearn,learning,trial,A3CcGs9GTjhEtSfPIQz2sI07zDZ2,A3CcGs9GTjhEtSfPIQz2sI07zDZ2,2.0,images/choice_trial_12.png,images/choice_trial_14.png,images/pattern_3.png,j,f,7000.0,12.0,14.0,2.0,0.0,38.0,1.0,0.0,12.0,190.0,,,,,,63d1412396ee4fa133b52643,09:05:38,27/02/2024
html-keyboard-response,212,453679,0.0-88.0-1.0,,"<div style=""display: flex; flex-direction: column; align-items: center; margin-top: -40px;""><img src=""images/pattern_3.png"" style=""width: 234px; height: 230px; margin-top: -50px;""><div style=""display: flex; justify-content: space-between; margin-top: 33px;""><img src=""images/choice_trial_12.png"" style=""width: 408px; height: 417px; margin-right: 608px;""></div></div>",,delaylearn,learning,display_response,A3CcGs9GTjhEtSfPIQz2sI07zDZ2,A3CcGs9GTjhEtSfPIQz2sI07zDZ2,,,,,,,,,,,,,,,,,chosen stimuli: images/choice_trial_12.png,,,,,63d1412396ee4fa133b52643,09:05:38,27/02/2024
html-keyboard-response,213,460683,0.0-88.0-2.0,,,,delaylearn,learning,feedback_duration_window,A3CcGs9GTjhEtSfPIQz2sI07zDZ2,A3CcGs9GTjhEtSfPIQz2sI07zDZ2,,,,,,,,,,,,,,,,,,7000.0,,,,63d1412396ee4fa133b52643,09:05:38,27/02/2024
html-keyboard-response,214,462192,0.0-88.0-3.0,,<div style='margin:auto;width: auto; font-size: 150%'><span style='font-weight: bold; font-size: 100px; color: red;'>0 points!</span><br><br></div>,,delaylearn,learning,feedback_image_window,A3CcGs9GTjhEtSfPIQz2sI07zDZ2,A3CcGs9GTjhEtSfPIQz2sI07zDZ2,,,,,,,,,,,,,,,,,,,,,,63d1412396ee4fa133b52643,09:05:38,27/02/2024
html-keyboard-response,215,463845,0.0-89.0,,"<div style=""font-size:100px;"">+</div>",,delaylearn,learning,ITI,A3CcGs9GTjhEtSfPIQz2sI07zDZ2,A3CcGs9GTjhEtSfPIQz2sI07zDZ2,,,,,,,,,,,,,,,,,,,1644.0,,,63d1412396ee4fa133b52643,09:05:38,27/02/2024
html-keyboard-response,216,464785,0.0-90.0-0.0,937.6000000238419,"<div style=""display: flex; flex-direction: column; align-items: center; margin-top: -40px;""><img src=""images/pattern_7.png"" style=""width: 234px; height: 230px; margin-top: -50px;""><div style=""display: flex; justify-content: space-between; margin-top: 33px;""><img src=""images/choice_trial_15.png"" style=""width: 408px; height: 417px; margin-right: 200px;""><img src=""images/choice_trial_8.png"" style=""width: 408px; height: 417px;""></div></div>",j,delaylearn,learning,trial,A3CcGs9GTjhEtSfPIQz2sI07zDZ2,A3CcGs9GTjhEtSfPIQz2sI07zDZ2,2.0,images/choice_trial_15.png,images/choice_trial_8.png,images/pattern_7.png,j,j,750.0,15.0,8.0,6.0,1.0,39.0,1.0,1.0,8.0,200.0,,,,,,63d1412396ee4fa133b52643,09:05:38,27/02/2024
html-keyboard-response,217,465794,0.0-90.0-1.0,,"<div style=""display: flex; flex-direction: column; align-items: center; margin-top: -40px;""><img src=""images/pattern_7.png"" style=""width: 234px; height: 230px; margin-top: -50px;""><div style=""display: flex; justify-content: space-between; margin-top: 33px;""><img src=""images/choice_trial_8.png"" style=""width: 408px; height: 417px; margin-left:608px;""></div></div>",,delaylearn,learning,display_response,A3CcGs9GTjhEtSfPIQz2sI07zDZ2,A3CcGs9GTjhEtSfPIQz2sI07zDZ2,,,,,,,,,,,,,,,,,chosen stimuli: images/choice_trial_8.png,,,,,63d1412396ee4fa133b52643,09:05:38,27/02/2024
html-keyboard-response,218,466557,0.0-90.0-2.0,,,,delaylearn,learning,feedback_duration_window,A3CcGs9GTjhEtSfPIQz2sI07zDZ2,A3CcGs9GTjhEtSfPIQz2sI07zDZ2,,,,,,,,,,,,,,,,,,750.0,,,,63d1412396ee4fa133b52643,09:05:38,27/02/2024
html-keyboard-response,219,468072,0.0-90.0-3.0,,<div style='margin:auto;width: auto; font-size: 150%'><span style='font-weight: bold; font-size: 100px; color: green;'>+10 points!</span><br><br></div>,,delaylearn,learning,feedback_image_window,A3CcGs9GTjhEtSfPIQz2sI07zDZ2,A3CcGs9GTjhEtSfPIQz2sI07zDZ2,,,,,,,,,,,,,,,,,,,,,,63d1412396ee4fa133b52643,09:05:38,27/02/2024
html-keyboard-response,220,469758,0.0-91.0,,"<div style=""font-size:100px;"">+</div>",,delaylearn,learning,ITI,A3CcGs9GTjhEtSfPIQz2sI07zDZ2,A3CcGs9GTjhEtSfPIQz2sI07zDZ2,,,,,,,,,,,,,,,,,,,1684.0,,,63d1412396ee4fa133b52643,09:05:38,27/02/2024
html-keyboard-response,221,471665,0.0-92.0-0.0,1904.7999999523163,"<div style=""display: flex; flex-direction: column; align-items: center; margin-top: -40px;""><img src=""images/pattern_5.png"" style=""width: 234px; height: 230px; margin-top: -50px;""><div style=""display: flex; justify-content: space-between; margin-top: 33px;""><img src=""images/choice_trial_9.png"" style=""width: 408px; height: 417px; margin-right: 200px;""><img src=""images/choice_trial_2.png"" style=""width: 408px; height: 417px;""></div></div>",f,delaylearn,learning,trial,A3CcGs9GTjhEtSfPIQz2sI07zDZ2,A3CcGs9GTjhEtSfPIQz2sI07zDZ2,2.0,images/choice_trial_9.png,images/choice_trial_2.png,images/pattern_5.png,j,j,750.0,9.0,2.0,4.0,1.0,40.0,0.0,0.0,9.0,200.0,,,,,,63d1412396ee4fa133b52643,09:05:38,27/02/2024
html-keyboard-response,222,472667,0.0-92.0-1.0,,"<div style=""display: flex; flex-direction: column; align-items: center; margin-top: -40px;""><img src=""images/pattern_5.png"" style=""width: 234px; height: 230px; margin-top: -50px;""><div style=""display: flex; justify-content: space-between; margin-top: 33px;""><img src=""images/choice_trial_9.png"" style=""width: 408px; height: 417px; margin-right: 608px;""></div></div>",,delaylearn,learning,display_response,A3CcGs9GTjhEtSfPIQz2sI07zDZ2,A3CcGs9GTjhEtSfPIQz2sI07zDZ2,,,,,,,,,,,,,,,,,chosen stimuli: images/choice_trial_9.png,,,,,63d1412396ee4fa133b52643,09:05:38,27/02/2024
html-keyboard-response,223,473421,0.0-92.0-2.0,,,,delaylearn,learning,feedback_duration_window,A3CcGs9GTjhEtSfPIQz2sI07zDZ2,A3CcGs9GTjhEtSfPIQz2sI07zDZ2,,,,,,,,,,,,,,,,,,750.0,,,,63d1412396ee4fa133b52643,09:05:38,27/02/2024
html-keyboard-response,224,474936,0.0-92.0-3.0,,<div style='margin:auto;width: auto; font-size: 150%'><span style='font-weight: bold; font-size: 100px; color: red;'>0 points!</span><br><br></div>,,delaylearn,learning,feedback_image_window,A3CcGs9GTjhEtSfPIQz2sI07zDZ2,A3CcGs9GTjhEtSfPIQz2sI07zDZ2,,,,,,,,,,,,,,,,,,,,,,63d1412396ee4fa133b52643,09:05:38,27/02/2024
html-keyboard-response,225,475439,0.0-93.0-0.0,,,,,,mood_trial_fixation,A3CcGs9GTjhEtSfPIQz2sI07zDZ2,,,,,,,,,,,,,,,,,,,,,,,63d1412396ee4fa133b52643,09:05:38,27/02/2024
lmdlab-html-vas-response,226,478686,0.0-93.0-1.0,2232.0,How happy are you right now?,0.4583333333333333,delaylearn,learning,mood_trial,A3CcGs9GTjhEtSfPIQz2sI07zDZ2,A3CcGs9GTjhEtSfPIQz2sI07zDZ2,,,,,,,,,,,,,,,,,,,,"['Very unhappy', 'Very happy']",,63d1412396ee4fa133b52643,09:05:38,27/02/2024
html-keyboard-response,227,480806,0.0-94.0,,"<div style=""font-size:100px;"">+</div>",,delaylearn,learning,ITI,A3CcGs9GTjhEtSfPIQz2sI07zDZ2,A3CcGs9GTjhEtSfPIQz2sI07zDZ2,,,,,,,,,,,,,,,,,,,2108.0,,,63d1412396ee4fa133b52643,09:05:38,27/02/2024
html-keyboard-response,228,482408,0.0-95.0-0.0,1600.6999999284744,"<div style=""display: flex; flex-direction: column; align-items: center; margin-top: -40px;""><img src=""images/pattern_4.png"" style=""width: 234px; height: 230px; margin-top: -50px;""><div style=""display: flex; justify-content: space-between; margin-top: 33px;""><img src=""images/choice_trial_4.png"" style=""width: 408px; height: 417px; margin-right: 200px;""><img src=""images/choice_trial_16.png"" style=""width: 408px; height: 417px;""></div></div>",f,delaylearn,learning,trial,A3CcGs9GTjhEtSfPIQz2sI07zDZ2,A3CcGs9GTjhEtSfPIQz2sI07zDZ2,2.0,images/choice_trial_4.png,images/choice_trial_16.png,images/pattern_4.png,f,f,7000.0,4.0,16.0,3.0,0.0,41.0,1.0,1.0,4.0,210.0,,,,,,63d1412396ee4fa133b52643,09:05:38,27/02/2024
html-keyboard-response,229,483411,0.0-95.0-1.0,,"<div style=""display: flex; flex-direction: column; align-items: center; margin-top: -40px;""><img src=""images/pattern_4.png"" style=""width: 234px; height: 230px; margin-top: -50px;""><div style=""display: flex; justify-content: space-between; margin-top: 33px;""><img src=""images/choice_trial_4.png"" style=""width: 408px; height: 417px; margin-right: 608px;""></div></div>",,delaylearn,learning,display_response,A3CcGs9GTjhEtSfPIQz2sI07zDZ2,A3CcGs9GTjhEtSfPIQz2sI07zDZ2,,,,,,,,,,,,,,,,,chosen stimuli: images/choice_trial_4.png,,,,,63d1412396ee4fa133b52643,09:05:38,27/02/2024
html-keyboard-response,230,490413,0.0-95.0-2.0,,,,delaylearn,learning,feedback_duration_window,A3CcGs9GTjhEtSfPIQz2sI07zDZ2,A3CcGs9GTjhEtSfPIQz2sI07zDZ2,,,,,,,,,,,,,,,,,,7000.0,,,,63d1412396ee4fa133b52643,09:05:38,27/02/2024
html-keyboard-response,231,491928,0.0-95.0-3.0,,<div style='margin:auto;width: auto; font-size: 150%'><span style='font-weight: bold; font-size: 100px; color: green;'>+10 points!</span><br><br></div>,,delaylearn,learning,feedback_image_window,A3CcGs9GTjhEtSfPIQz2sI07zDZ2,A3CcGs9GTjhEtSfPIQz2sI07zDZ2,,,,,,,,,,,,,,,,,,,,,,63d1412396ee4fa133b52643,09:05:38,27/02/2024
html-keyboard-response,232,493552,0.0-96.0,,"<div style=""font-size:100px;"">+</div>",,delaylearn,learning,ITI,A3CcGs9GTjhEtSfPIQz2sI07zDZ2,A3CcGs9GTjhEtSfPIQz2sI07zDZ2,,,,,,,,,,,,,,,,,,,1608.0,,,63d1412396ee4fa133b52643,09:05:38,27/02/2024
html-keyboard-response,233,495313,0.0-97.0-0.0,1758.8999999761581,"<div style=""display: flex; flex-direction: column; align-items: center; margin-top: -40px;""><img src=""images/pattern_6.png"" style=""width: 234px; height: 230px; margin-top: -50px;""><div style=""display: flex; justify-content: space-between; margin-top: 33px;""><img src=""images/choice_trial_5.png"" style=""width: 408px; height: 417px; margin-right: 200px;""><img src=""images/choice_trial_11.png"" style=""width: 408px; height: 417px;""></div></div>",f,delaylearn,learning,trial,A3CcGs9GTjhEtSfPIQz2sI07zDZ2,A3CcGs9GTjhEtSfPIQz2sI07zDZ2,2.0,images/choice_trial_5.png,images/choice_trial_11.png,images/pattern_6.png,j,j,750.0,5.0,11.0,5.0,1.0,42.0,0.0,0.0,5.0,210.0,,,,,,63d1412396ee4fa133b52643,09:05:38,27/02/2024
html-keyboard-response,234,496321,0.0-97.0-1.0,,"<div style=""display: flex; flex-direction: column; align-items: center; margin-top: -40px;""><img src=""images/pattern_6.png"" style=""width: 234px; height: 230px; margin-top: -50px;""><div style=""display: flex; justify-content: space-between; margin-top: 33px;""><img src=""images/choice_trial_5.png"" style=""width: 408px; height: 417px; margin-right: 608px;""></div></div>",,delaylearn,learning,display_response,A3CcGs9GTjhEtSfPIQz2sI07zDZ2,A3CcGs9GTjhEtSfPIQz2sI07zDZ2,,,,,,,,,,,,,,,,,chosen stimuli: images/choice_trial_5.png,,,,,63d1412396ee4fa133b52643,09:05:38,27/02/2024
html-keyboard-response,235,497084,0.0-97.0-2.0,,,,delaylearn,learning,feedback_duration_window,A3CcGs9GTjhEtSfPIQz2sI07zDZ2,A3CcGs9GTjhEtSfPIQz2sI07zDZ2,,,,,,,,,,,,,,,,,,750.0,,,,63d1412396ee4fa133b52643,09:05:38,27/02/2024
