trial_type,trial_index,time_elapsed,internal_node_id,rt,stimulus,response,exp_name,exp_stage,test_part,subjectID,databaseID,counterbal,choice_stimuli_1,choice_stimuli_2,pattern_stimuli,rewarded_answer,correct_answer,feedback_duration_times,stim_left,stim_right,pair,leftright_counter,trial,response_correct,response_rewarded,chosen_stim,counter,displayed_choice,feedback_durations,ITI_duration,labels,rest_warning,prolificID,start_time,date
pavlovia,0,486,0.0-0.0,,,,,,,tiVref3lqWTIKXosPhMii0001fx1,,,,,,,,,,,,,,,,,,,,,,,5de8d53cd0e07e836599d816,09:14:51,27/02/2024
html-keyboard-response,1,3491,0.0-1.0,,"<div style=""font-size:100px;"">+</div>",,delaylearn,learning,pre_fixation,tiVref3lqWTIKXosPhMii0001fx1,,,,,,,,,,,,,,,,,,,,,,,5de8d53cd0e07e836599d816,09:14:51,27/02/2024
html-keyboard-response,2,4611,0.0-2.0-0.0,1119.0999999940395,"<div style=""display: flex; flex-direction: column; align-items: center; margin-top: -40px;""><img src=""images/demo_images/pattern_1.png"" style=""width: 234px; height: 230px; margin-top: -50px;""><div style=""display: flex; justify-content: space-between; margin-top: 33px;""><img src=""images/demo_images/choice_trial_2.png"" style=""width: 408px; height: 417px; margin-right: 200px;""><img src=""images/demo_images/choice_trial_1.png"" style=""width: 408px; height: 417px;""></div></div>",f,delaylearn,learning,trial,tiVref3lqWTIKXosPhMii0001fx1,tiVref3lqWTIKXosPhMii0001fx1,5.0,images/demo_images/choice_trial_2.png,images/demo_images/choice_trial_1.png,images/demo_images/pattern_1.png,j,j,3000.0,2.0,1.0,20.0,1.0,1.0,0.0,0.0,2.0,0.0,,,,,,5de8d53cd0e07e836599d816,09:14:51,27/02/2024
html-keyboard-response,3,5618,0.0-2.0-1.0,,"<div style=""display: flex; flex-direction: column; align-items: center; margin-top: -40px;""><img src=""images/demo_images/pattern_1.png"" style=""width: 234px; height: 230px; margin-top: -50px;""><div style=""display: flex; justify-content: space-between; margin-top: 33px;""><img src=""images/demo_images/choice_trial_2.png"" style=""width: 408px; height: 417px; margin-right: 608px;""></div></div>",,delaylearn,learning,display_response,tiVref3lqWTIKXosPhMii0001fx1,tiVref3lqWTIKXosPhMii0001fx1,,,,,,,,,,,,,,,,,chosen stimuli: images/demo_images/choice_trial_2.png,,,,,5de8d53cd0e07e836599d816,09:14:51,27/02/2024
html-keyboard-response,4,8628,0.0-2.0-2.0,,,,delaylearn,learning,feedback_duration_window,tiVref3lqWTIKXosPhMii0001fx1,tiVref3lqWTIKXosPhMii0001fx1,,,,,,,,,,,,,,,,,,3000.0,,,,5de8d53cd0e07e836599d816,09:14:51,27/02/2024
html-keyboard-response,5,10131,0.0-2.0-3.0,,<div style='margin:auto;width: auto; font-size: 150%'><span style='font-weight: bold; font-size: 100px; color: red;'>0 points!</span><br><br></div>,,delaylearn,learning,feedback_image_window,tiVref3lqWTIKXosPhMii0001fx1,tiVref3lqWTIKXosPhMii0001fx1,,,,,,,,,,,,,,,,,,,,,,5de8d53cd0e07e836599d816,09:14:51,27/02/2024
html-keyboard-response,6,12600,0.0-3.0,,"<div style=""font-size:100px;"">+</div>",,delaylearn,learning,ITI,tiVref3lqWTIKXosPhMii0001fx1,tiVref3lqWTIKXosPhMii0001fx1,,,,,,,,,,,,,,,,,,,2462.0,,,5de8d53cd0e07e836599d816,09:14:51,27/02/2024
html-keyboard-response,7,14219,0.0-4.0-0.0,1617.5,"<div style=""display: flex; flex-direction: column; align-items: center; margin-top: -40px;""><img src=""images/demo_images/pattern_1.png"" style=""width: 234px; height: 230px; margin-top: -50px;""><div style=""display: flex; justify-content: space-between; margin-top: 33px;""><img src=""images/demo_images/choice_trial_2.png"" style=""width: 408px; height: 417px; margin-right: 200px;""><img src=""images/demo_images/choice_trial_1.png"" style=""width: 408px; height: 417px;""></div></div>",j,delaylearn,learning,trial,tiVref3lqWTIKXosPhMii0001fx1,tiVref3lqWTIKXosPhMii0001fx1,5.0,images/demo_images/choice_trial_2.png,images/demo_images/choice_trial_1.png,images/demo_images/pattern_1.png,j,j,3000.0,2.0,1.0,20.0,1.0,2.0,1.0,1.0,1.0,10.0,,,,,,5de8d53cd0e07e836599d816,09:14:51,27/02/2024
html-keyboard-response,8,15223,0.0-4.0-1.0,,"<div style=""display: flex; flex-direction: column; align-items: center; margin-top: -40px;""><img src=""images/demo_images/pattern_1.png"" style=""width: 234px; height: 230px; margin-top: -50px;""><div style=""display: flex; justify-content: space-between; margin-top: 33px;""><img src=""images/demo_images/choice_trial_1.png"" style=""width: 408px; height: 417px; margin-left:608px;""></div></div>",,delaylearn,learning,display_response,tiVref3lqWTIKXosPhMii0001fx1,tiVref3lqWTIKXosPhMii0001fx1,,,,,,,,,,,,,,,,,chosen stimuli: images/demo_images/choice_trial_1.png,,,,,5de8d53cd0e07e836599d816,09:14:51,27/02/2024
html-keyboard-response,9,18239,0.0-4.0-2.0,,,,delaylearn,learning,feedback_duration_window,tiVref3lqWTIKXosPhMii0001fx1,tiVref3lqWTIKXosPhMii0001fx1,,,,,,,,,,,,,,,,,,3000.0,,,,5de8d53cd0e07e836599d816,09:14:51,27/02/2024
html-keyboard-response,10,19749,0.0-4.0-3.0,,<div style='margin:auto;width: auto; font-size: 150%'><span style='font-weight: bold; font-size: 100px; color: green;'>+10 points!</span><br><br></div>,,delaylearn,learning,feedback_image_window,tiVref3lqWTIKXosPhMii0001fx1,tiVref3lqWTIKXosPhMii0001fx1,,,,,,,,,,,,,,,,,,,,,,5de8d53cd0e07e836599d816,09:14:51,27/02/2024
html-keyboard-response,11,21274,0.0-5.0,,"<div style=""font-size:100px;"">+</div>",,delaylearn,learning,ITI,tiVref3lqWTIKXosPhMii0001fx1,tiVref3lqWTIKXosPhMii0001fx1,,,,,,,,,,,,,,,,,,,1512.0,,,5de8d53cd0e07e836599d816,09:14:51,27/02/2024
html-keyboard-response,12,22347,0.0-6.0-0.0,1071.4000000059605,"<div style=""display: flex; flex-direction: column; align-items: center; margin-top: -40px;""><img src=""images/demo_images/pattern_1.png"" style=""width: 234px; height: 230px; margin-top: -50px;""><div style=""display: flex; justify-content: space-between; margin-top: 33px;""><img src=""images/demo_images/choice_trial_1.png"" style=""width: 408px; height: 417px; margin-right: 200px;""><img src=""images/demo_images/choice_trial_2.png"" style=""width: 408px; height: 417px;""></div></div>",f,delaylearn,learning,trial,tiVref3lqWTIKXosPhMii0001fx1,tiVref3lqWTIKXosPhMii0001fx1,5.0,images/demo_images/choice_trial_1.png,images/demo_images/choice_trial_2.png,images/demo_images/pattern_1.png,j,f,3000.0,1.0,2.0,20.0,0.0,3.0,1.0,0.0,1.0,10.0,,,,,,5de8d53cd0e07e836599d816,09:14:51,27/02/2024
html-keyboard-response,13,23352,0.0-6.0-1.0,,"<div style=""display: flex; flex-direction: column; align-items: center; margin-top: -40px;""><img src=""images/demo_images/pattern_1.png"" style=""width: 234px; height: 230px; margin-top: -50px;""><div style=""display: flex; justify-content: space-between; margin-top: 33px;""><img src=""images/demo_images/choice_trial_1.png"" style=""width: 408px; height: 417px; margin-right: 608px;""></div></div>",,delaylearn,learning,display_response,tiVref3lqWTIKXosPhMii0001fx1,tiVref3lqWTIKXosPhMii0001fx1,,,,,,,,,,,,,,,,,chosen stimuli: images/demo_images/choice_trial_1.png,,,,,5de8d53cd0e07e836599d816,09:14:51,27/02/2024
html-keyboard-response,14,26353,0.0-6.0-2.0,,,,delaylearn,learning,feedback_duration_window,tiVref3lqWTIKXosPhMii0001fx1,tiVref3lqWTIKXosPhMii0001fx1,,,,,,,,,,,,,,,,,,3000.0,,,,5de8d53cd0e07e836599d816,09:14:51,27/02/2024
html-keyboard-response,15,27860,0.0-6.0-3.0,,<div style='margin:auto;width: auto; font-size: 150%'><span style='font-weight: bold; font-size: 100px; color: red;'>0 points!</span><br><br></div>,,delaylearn,learning,feedback_image_window,tiVref3lqWTIKXosPhMii0001fx1,tiVref3lqWTIKXosPhMii0001fx1,,,,,,,,,,,,,,,,,,,,,,5de8d53cd0e07e836599d816,09:14:51,27/02/2024
html-keyboard-response,16,29400,0.0-7.0,,"<div style=""font-size:100px;"">+</div>",,delaylearn,learning,ITI,tiVref3lqWTIKXosPhMii0001fx1,tiVref3lqWTIKXosPhMii0001fx1,,,,,,,,,,,,,,,,,,,1530.0,,,5de8d53cd0e07e836599d816,09:14:51,27/02/2024
html-keyboard-response,17,30827,0.0-8.0-0.0,1425.8999999761581,"<div style=""display: flex; flex-direction: column; align-items: center; margin-top: -40px;""><img src=""images/demo_images/pattern_1.png"" style=""width: 234px; height: 230px; margin-top: -50px;""><div style=""display: flex; justify-content: space-between; margin-top: 33px;""><img src=""images/demo_images/choice_trial_1.png"" style=""width: 408px; height: 417px; margin-right: 200px;""><img src=""images/demo_images/choice_trial_2.png"" style=""width: 408px; height: 417px;""></div></div>",f,delaylearn,learning,trial,tiVref3lqWTIKXosPhMii0001fx1,tiVref3lqWTIKXosPhMii0001fx1,5.0,images/demo_images/choice_trial_1.png,images/demo_images/choice_trial_2.png,images/demo_images/pattern_1.png,f,f,3000.0,1.0,2.0,20.0,0.0,4.0,1.0,1.0,1.0,20.0,,,,,,5de8d53cd0e07e836599d816,09:14:51,27/02/2024
html-keyboard-response,18,31829,0.0-8.0-1.0,,"<div style=""display: flex; flex-direction: column; align-items: center; margin-top: -40px;""><img src=""images/demo_images/pattern_1.png"" style=""width: 234px; height: 230px; margin-top: -50px;""><div style=""display: flex; justify-content: space-between; margin-top: 33px;""><img src=""images/demo_images/choice_trial_1.png"" style=""width: 408px; height: 417px; margin-right: 608px;""></div></div>",,delaylearn,learning,display_response,tiVref3lqWTIKXosPhMii0001fx1,tiVref3lqWTIKXosPhMii0001fx1,,,,,,,,,,,,,,,,,chosen stimuli: images/demo_images/choice_trial_1.png,,,,,5de8d53cd0e07e836599d816,09:14:51,27/02/2024
html-keyboard-response,19,34842,0.0-8.0-2.0,,,,delaylearn,learning,feedback_duration_window,tiVref3lqWTIKXosPhMii0001fx1,tiVref3lqWTIKXosPhMii0001fx1,,,,,,,,,,,,,,,,,,3000.0,,,,5de8d53cd0e07e836599d816,09:14:51,27/02/2024
html-keyboard-response,20,36352,0.0-8.0-3.0,,<div style='margin:auto;width: auto; font-size: 150%'><span style='font-weight: bold; font-size: 100px; color: green;'>+10 points!</span><br><br></div>,,delaylearn,learning,feedback_image_window,tiVref3lqWTIKXosPhMii0001fx1,tiVref3lqWTIKXosPhMii0001fx1,,,,,,,,,,,,,,,,,,,,,,5de8d53cd0e07e836599d816,09:14:51,27/02/2024
html-keyboard-response,21,36853,0.0-9.0-0.0,,,,,,mood_trial_fixation,tiVref3lqWTIKXosPhMii0001fx1,,,,,,,,,,,,,,,,,,,,,,,5de8d53cd0e07e836599d816,09:14:51,27/02/2024
lmdlab-html-vas-response,22,41169,0.0-9.0-1.0,3303.0,How happy are you right now?,0.4799382716049383,delaylearn,learning,mood_trial,tiVref3lqWTIKXosPhMii0001fx1,tiVref3lqWTIKXosPhMii0001fx1,,,,,,,,,,,,,,,,,,,,"['Very unhappy', 'Very happy']",,5de8d53cd0e07e836599d816,09:14:51,27/02/2024
html-keyboard-response,23,43672,0.0-10.0,,"<div style=""font-size:100px;"">+</div>",,delaylearn,learning,ITI,tiVref3lqWTIKXosPhMii0001fx1,tiVref3lqWTIKXosPhMii0001fx1,,,,,,,,,,,,,,,,,,,2497.0,,,5de8d53cd0e07e836599d816,09:14:51,27/02/2024
html-keyboard-response,24,44635,0.0-11.0-0.0,962.0,"<div style=""display: flex; flex-direction: column; align-items: center; margin-top: -40px;""><img src=""images/demo_images/pattern_1.png"" style=""width: 234px; height: 230px; margin-top: -50px;""><div style=""display: flex; justify-content: space-between; margin-top: 33px;""><img src=""images/demo_images/choice_trial_2.png"" style=""width: 408px; height: 417px; margin-right: 200px;""><img src=""images/demo_images/choice_trial_1.png"" style=""width: 408px; height: 417px;""></div></div>",j,delaylearn,learning,trial,tiVref3lqWTIKXosPhMii0001fx1,tiVref3lqWTIKXosPhMii0001fx1,5.0,images/demo_images/choice_trial_2.png,images/demo_images/choice_trial_1.png,images/demo_images/pattern_1.png,j,j,3000.0,2.0,1.0,20.0,1.0,5.0,1.0,1.0,1.0,30.0,,,,,,5de8d53cd0e07e836599d816,09:14:51,27/02/2024
html-keyboard-response,25,45645,0.0-11.0-1.0,,"<div style=""display: flex; flex-direction: column; align-items: center; margin-top: -40px;""><img src=""images/demo_images/pattern_1.png"" style=""width: 234px; height: 230px; margin-top: -50px;""><div style=""display: flex; justify-content: space-between; margin-top: 33px;""><img src=""images/demo_images/choice_trial_1.png"" style=""width: 408px; height: 417px; margin-left:608px;""></div></div>",,delaylearn,learning,display_response,tiVref3lqWTIKXosPhMii0001fx1,tiVref3lqWTIKXosPhMii0001fx1,,,,,,,,,,,,,,,,,chosen stimuli: images/demo_images/choice_trial_1.png,,,,,5de8d53cd0e07e836599d816,09:14:51,27/02/2024
html-keyboard-response,26,48656,0.0-11.0-2.0,,,,delaylearn,learning,feedback_duration_window,tiVref3lqWTIKXosPhMii0001fx1,tiVref3lqWTIKXosPhMii0001fx1,,,,,,,,,,,,,,,,,,3000.0,,,,5de8d53cd0e07e836599d816,09:14:51,27/02/2024
html-keyboard-response,27,50162,0.0-11.0-3.0,,<div style='margin:auto;width: auto; font-size: 150%'><span style='font-weight: bold; font-size: 100px; color: green;'>+10 points!</span><br><br></div>,,delaylearn,learning,feedback_image_window,tiVref3lqWTIKXosPhMii0001fx1,tiVref3lqWTIKXosPhMii0001fx1,,,,,,,,,,,,,,,,,,,,,,5de8d53cd0e07e836599d816,09:14:51,27/02/2024
html-keyboard-response,28,51700,0.0-12.0,,"<div style=""font-size:100px;"">+</div>",,delaylearn,learning,ITI,tiVref3lqWTIKXosPhMii0001fx1,tiVref3lqWTIKXosPhMii0001fx1,,,,,,,,,,,,,,,,,,,1536.0,,,5de8d53cd0e07e836599d816,09:14:51,27/02/2024
html-keyboard-response,29,52323,0.0-13.0-0.0,622.5,"<div style=""display: flex; flex-direction: column; align-items: center; margin-top: -40px;""><img src=""images/demo_images/pattern_1.png"" style=""width: 234px; height: 230px; margin-top: -50px;""><div style=""display: flex; justify-content: space-between; margin-top: 33px;""><img src=""images/demo_images/choice_trial_1.png"" style=""width: 408px; height: 417px; margin-right: 200px;""><img src=""images/demo_images/choice_trial_2.png"" style=""width: 408px; height: 417px;""></div></div>",f,delaylearn,learning,trial,tiVref3lqWTIKXosPhMii0001fx1,tiVref3lqWTIKXosPhMii0001fx1,5.0,images/demo_images/choice_trial_1.png,images/demo_images/choice_trial_2.png,images/demo_images/pattern_1.png,f,f,3000.0,1.0,2.0,20.0,0.0,6.0,1.0,1.0,1.0,40.0,,,,,,5de8d53cd0e07e836599d816,09:14:51,27/02/2024
html-keyboard-response,30,53331,0.0-13.0-1.0,,"<div style=""display: flex; flex-direction: column; align-items: center; margin-top: -40px;""><img src=""images/demo_images/pattern_1.png"" style=""width: 234px; height: 230px; margin-top: -50px;""><div style=""display: flex; justify-content: space-between; margin-top: 33px;""><img src=""images/demo_images/choice_trial_1.png"" style=""width: 408px; height: 417px; margin-right: 608px;""></div></div>",,delaylearn,learning,display_response,tiVref3lqWTIKXosPhMii0001fx1,tiVref3lqWTIKXosPhMii0001fx1,,,,,,,,,,,,,,,,,chosen stimuli: images/demo_images/choice_trial_1.png,,,,,5de8d53cd0e07e836599d816,09:14:51,27/02/2024
html-keyboard-response,31,56333,0.0-13.0-2.0,,,,delaylearn,learning,feedback_duration_window,tiVref3lqWTIKXosPhMii0001fx1,tiVref3lqWTIKXosPhMii0001fx1,,,,,,,,,,,,,,,,,,3000.0,,,,5de8d53cd0e07e836599d816,09:14:51,27/02/2024
html-keyboard-response,32,57840,0.0-13.0-3.0,,<div style='margin:auto;width: auto; font-size: 150%'><span style='font-weight: bold; font-size: 100px; color: green;'>+10 points!</span><br><br></div>,,delaylearn,learning,feedback_image_window,tiVref3lqWTIKXosPhMii0001fx1,tiVref3lqWTIKXosPhMii0001fx1,,,,,,,,,,,,,,,,,,,,,,5de8d53cd0e07e836599d816,09:14:51,27/02/2024
html-button-response,33,61126,0.0-14.0,3284.800000011921,"
  <div style=""display: flex; align-items: center; justify-content: center; height: 80vh;"">
  <div>
          <img src=""images/inst_demo_finish.png"" style=""width: 80vw; height:auto;"">
          <br><br>
      </div>
      <br><br>
  </div>",0,,,,tiVref3lqWTIKXosPhMii0001fx1,,,,,,,,,,,,,,,,,,,,,,,5de8d53cd0e07e836599d816,09:14:51,27/02/2024
html-keyboard-response,34,63810,0.0-15.0,2684.4000000059605,"
  <div style=""display: flex; align-items: center; justify-content: center; height: 80vh;"">
  <div>
          <img src=""images/inst_6.png"" style=""width: 80vw; height:auto;"">
          <br><br>
      </div>
      <br><br>
  </div>",f,,,,tiVref3lqWTIKXosPhMii0001fx1,,,,,,,,,,,,,,,,,,,,,,,5de8d53cd0e07e836599d816,09:14:51,27/02/2024
html-keyboard-response,35,66821,0.0-16.0,,"<div style=""font-size:100px;"">+</div>",,delaylearn,learning,pre_fixation,tiVref3lqWTIKXosPhMii0001fx1,,,,,,,,,,,,,,,,,,,,,,,5de8d53cd0e07e836599d816,09:14:51,27/02/2024
html-keyboard-response,36,68867,0.0-17.0,,"<div style=""font-size:100px;"">+</div>",,delaylearn,learning,ITI,tiVref3lqWTIKXosPhMii0001fx1,tiVref3lqWTIKXosPhMii0001fx1,,,,,,,,,,,,,,,,,,,2037.0,,,5de8d53cd0e07e836599d816,09:14:51,27/02/2024
html-keyboard-response,37,70563,0.0-18.0-0.0,1694.3999999761581,"<div style=""display: flex; flex-direction: column; align-items: center; margin-top: -40px;""><img src=""images/pattern_3.png"" style=""width: 234px; height: 230px; margin-top: -50px;""><div style=""display: flex; justify-content: space-between; margin-top: 33px;""><img src=""images/choice_trial_16.png"" style=""width: 408px; height: 417px; margin-right: 200px;""><img src=""images/choice_trial_2.png"" style=""width: 408px; height: 417px;""></div></div>",j,delaylearn,learning,trial,tiVref3lqWTIKXosPhMii0001fx1,tiVref3lqWTIKXosPhMii0001fx1,5.0,images/choice_trial_16.png,images/choice_trial_2.png,images/pattern_3.png,f,f,7000.0,16.0,2.0,2.0,0.0,7.0,0.0,0.0,2.0,40.0,,,,,,5de8d53cd0e07e836599d816,09:14:51,27/02/2024
html-keyboard-response,38,71571,0.0-18.0-1.0,,"<div style=""display: flex; flex-direction: column; align-items: center; margin-top: -40px;""><img src=""images/pattern_3.png"" style=""width: 234px; height: 230px; margin-top: -50px;""><div style=""display: flex; justify-content: space-between; margin-top: 33px;""><img src=""images/choice_trial_2.png"" style=""width: 408px; height: 417px; margin-left:608px;""></div></div>",,delaylearn,learning,display_response,tiVref3lqWTIKXosPhMii0001fx1,tiVref3lqWTIKXosPhMii0001fx1,,,,,,,,,,,,,,,,,chosen stimuli: images/choice_trial_2.png,,,,,5de8d53cd0e07e836599d816,09:14:51,27/02/2024
html-keyboard-response,39,78576,0.0-18.0-2.0,,,,delaylearn,learning,feedback_duration_window,tiVref3lqWTIKXosPhMii0001fx1,tiVref3lqWTIKXosPhMii0001fx1,,,,,,,,,,,,,,,,,,7000.0,,,,5de8d53cd0e07e836599d816,09:14:51,27/02/2024
html-keyboard-response,40,80085,0.0-18.0-3.0,,<div style='margin:auto;width: auto; font-size: 150%'><span style='font-weight: bold; font-size: 100px; color: red;'>0 points!</span><br><br></div>,,delaylearn,learning,feedback_image_window,tiVref3lqWTIKXosPhMii0001fx1,tiVref3lqWTIKXosPhMii0001fx1,,,,,,,,,,,,,,,,,,,,,,5de8d53cd0e07e836599d816,09:14:51,27/02/2024
html-keyboard-response,41,82377,0.0-19.0,,"<div style=""font-size:100px;"">+</div>",,delaylearn,learning,ITI,tiVref3lqWTIKXosPhMii0001fx1,tiVref3lqWTIKXosPhMii0001fx1,,,,,,,,,,,,,,,,,,,2279.0,,,5de8d53cd0e07e836599d816,09:14:51,27/02/2024
html-keyboard-response,42,84730,0.0-20.0-0.0,2352.5,"<div style=""display: flex; flex-direction: column; align-items: center; margin-top: -40px;""><img src=""images/pattern_7.png"" style=""width: 234px; height: 230px; margin-top: -50px;""><div style=""display: flex; justify-content: space-between; margin-top: 33px;""><img src=""images/choice_trial_10.png"" style=""width: 408px; height: 417px; margin-right: 200px;""><img src=""images/choice_trial_8.png"" style=""width: 408px; height: 417px;""></div></div>",j,delaylearn,learning,trial,tiVref3lqWTIKXosPhMii0001fx1,tiVref3lqWTIKXosPhMii0001fx1,5.0,images/choice_trial_10.png,images/choice_trial_8.png,images/pattern_7.png,j,j,750.0,10.0,8.0,6.0,1.0,8.0,1.0,1.0,8.0,50.0,,,,,,5de8d53cd0e07e836599d816,09:14:51,27/02/2024
html-keyboard-response,43,85733,0.0-20.0-1.0,,"<div style=""display: flex; flex-direction: column; align-items: center; margin-top: -40px;""><img src=""images/pattern_7.png"" style=""width: 234px; height: 230px; margin-top: -50px;""><div style=""display: flex; justify-content: space-between; margin-top: 33px;""><img src=""images/choice_trial_8.png"" style=""width: 408px; height: 417px; margin-left:608px;""></div></div>",,delaylearn,learning,display_response,tiVref3lqWTIKXosPhMii0001fx1,tiVref3lqWTIKXosPhMii0001fx1,,,,,,,,,,,,,,,,,chosen stimuli: images/choice_trial_8.png,,,,,5de8d53cd0e07e836599d816,09:14:51,27/02/2024
html-keyboard-response,44,86492,0.0-20.0-2.0,,,,delaylearn,learning,feedback_duration_window,tiVref3lqWTIKXosPhMii0001fx1,tiVref3lqWTIKXosPhMii0001fx1,,,,,,,,,,,,,,,,,,750.0,,,,5de8d53cd0e07e836599d816,09:14:51,27/02/2024
html-keyboard-response,45,87996,0.0-20.0-3.0,,<div style='margin:auto;width: auto; font-size: 150%'><span style='font-weight: bold; font-size: 100px; color: green;'>+10 points!</span><br><br></div>,,delaylearn,learning,feedback_image_window,tiVref3lqWTIKXosPhMii0001fx1,tiVref3lqWTIKXosPhMii0001fx1,,,,,,,,,,,,,,,,,,,,,,5de8d53cd0e07e836599d816,09:14:51,27/02/2024
html-keyboard-response,46,90001,0.0-21.0,,"<div style=""font-size:100px;"">+</div>",,delaylearn,learning,ITI,tiVref3lqWTIKXosPhMii0001fx1,tiVref3lqWTIKXosPhMii0001fx1,,,,,,,,,,,,,,,,,,,1991.0,,,5de8d53cd0e07e836599d816,09:14:51,27/02/2024
html-keyboard-response,47,91538,0.0-22.0-0.0,1536.0,"<div style=""display: flex; flex-direction: column; align-items: center; margin-top: -40px;""><img src=""images/pattern_4.png"" style=""width: 234px; height: 230px; margin-top: -50px;""><div style=""display: flex; justify-content: space-between; margin-top: 33px;""><img src=""images/choice_trial_11.png"" style=""width: 408px; height: 417px; margin-right: 200px;""><img src=""images/choice_trial_4.png"" style=""width: 408px; height: 417px;""></div></div>",f,delaylearn,learning,trial,tiVref3lqWTIKXosPhMii0001fx1,tiVref3lqWTIKXosPhMii0001fx1,5.0,images/choice_trial_11.png,images/choice_trial_4.png,images/pattern_4.png,f,f,7000.0,11.0,4.0,3.0,0.0,9.0,1.0,1.0,11.0,60.0,,,,,,5de8d53cd0e07e836599d816,09:14:51,27/02/2024
html-keyboard-response,48,92552,0.0-22.0-1.0,,"<div style=""display: flex; flex-direction: column; align-items: center; margin-top: -40px;""><img src=""images/pattern_4.png"" style=""width: 234px; height: 230px; margin-top: -50px;""><div style=""display: flex; justify-content: space-between; margin-top: 33px;""><img src=""images/choice_trial_11.png"" style=""width: 408px; height: 417px; margin-right: 608px;""></div></div>",,delaylearn,learning,display_response,tiVref3lqWTIKXosPhMii0001fx1,tiVref3lqWTIKXosPhMii0001fx1,,,,,,,,,,,,,,,,,chosen stimuli: images/choice_trial_11.png,,,,,5de8d53cd0e07e836599d816,09:14:51,27/02/2024
html-keyboard-response,49,99559,0.0-22.0-2.0,,,,delaylearn,learning,feedback_duration_window,tiVref3lqWTIKXosPhMii0001fx1,tiVref3lqWTIKXosPhMii0001fx1,,,,,,,,,,,,,,,,,,7000.0,,,,5de8d53cd0e07e836599d816,09:14:51,27/02/2024
html-keyboard-response,50,101066,0.0-22.0-3.0,,<div style='margin:auto;width: auto; font-size: 150%'><span style='font-weight: bold; font-size: 100px; color: green;'>+10 points!</span><br><br></div>,,delaylearn,learning,feedback_image_window,tiVref3lqWTIKXosPhMii0001fx1,tiVref3lqWTIKXosPhMii0001fx1,,,,,,,,,,,,,,,,,,,,,,5de8d53cd0e07e836599d816,09:14:51,27/02/2024
html-keyboard-response,51,103315,0.0-23.0,,"<div style=""font-size:100px;"">+</div>",,delaylearn,learning,ITI,tiVref3lqWTIKXosPhMii0001fx1,tiVref3lqWTIKXosPhMii0001fx1,,,,,,,,,,,,,,,,,,,2243.0,,,5de8d53cd0e07e836599d816,09:14:51,27/02/2024
html-keyboard-response,52,104794,0.0-24.0-0.0,1477.800000011921,"<div style=""display: flex; flex-direction: column; align-items: center; margin-top: -40px;""><img src=""images/pattern_5.png"" style=""width: 234px; height: 230px; margin-top: -50px;""><div style=""display: flex; justify-content: space-between; margin-top: 33px;""><img src=""images/choice_trial_13.png"" style=""width: 408px; height: 417px; margin-right: 200px;""><img src=""images/choice_trial_7.png"" style=""width: 408px; height: 417px;""></div></div>",j,delaylearn,learning,trial,tiVref3lqWTIKXosPhMii0001fx1,tiVref3lqWTIKXosPhMii0001fx1,5.0,images/choice_trial_13.png,images/choice_trial_7.png,images/pattern_5.png,j,j,750.0,13.0,7.0,4.0,1.0,10.0,1.0,1.0,7.0,70.0,,,,,,5de8d53cd0e07e836599d816,09:14:51,27/02/2024
html-keyboard-response,53,105798,0.0-24.0-1.0,,"<div style=""display: flex; flex-direction: column; align-items: center; margin-top: -40px;""><img src=""images/pattern_5.png"" style=""width: 234px; height: 230px; margin-top: -50px;""><div style=""display: flex; justify-content: space-between; margin-top: 33px;""><img src=""images/choice_trial_7.png"" style=""width: 408px; height: 417px; margin-left:608px;""></div></div>",,delaylearn,learning,display_response,tiVref3lqWTIKXosPhMii0001fx1,tiVref3lqWTIKXosPhMii0001fx1,,,,,,,,,,,,,,,,,chosen stimuli: images/choice_trial_7.png,,,,,5de8d53cd0e07e836599d816,09:14:51,27/02/2024
html-keyboard-response,54,106556,0.0-24.0-2.0,,,,delaylearn,learning,feedback_duration_window,tiVref3lqWTIKXosPhMii0001fx1,tiVref3lqWTIKXosPhMii0001fx1,,,,,,,,,,,,,,,,,,750.0,,,,5de8d53cd0e07e836599d816,09:14:51,27/02/2024
html-keyboard-response,55,108062,0.0-24.0-3.0,,<div style='margin:auto;width: auto; font-size: 150%'><span style='font-weight: bold; font-size: 100px; color: green;'>+10 points!</span><br><br></div>,,delaylearn,learning,feedback_image_window,tiVref3lqWTIKXosPhMii0001fx1,tiVref3lqWTIKXosPhMii0001fx1,,,,,,,,,,,,,,,,,,,,,,5de8d53cd0e07e836599d816,09:14:51,27/02/2024
html-keyboard-response,56,110037,0.0-25.0,,"<div style=""font-size:100px;"">+</div>",,delaylearn,learning,ITI,tiVref3lqWTIKXosPhMii0001fx1,tiVref3lqWTIKXosPhMii0001fx1,,,,,,,,,,,,,,,,,,,1971.0,,,5de8d53cd0e07e836599d816,09:14:51,27/02/2024
html-keyboard-response,57,112370,0.0-26.0-0.0,2331.9000000059605,"<div style=""display: flex; flex-direction: column; align-items: center; margin-top: -40px;""><img src=""images/pattern_6.png"" style=""width: 234px; height: 230px; margin-top: -50px;""><div style=""display: flex; justify-content: space-between; margin-top: 33px;""><img src=""images/choice_trial_14.png"" style=""width: 408px; height: 417px; margin-right: 200px;""><img src=""images/choice_trial_9.png"" style=""width: 408px; height: 417px;""></div></div>",j,delaylearn,learning,trial,tiVref3lqWTIKXosPhMii0001fx1,tiVref3lqWTIKXosPhMii0001fx1,5.0,images/choice_trial_14.png,images/choice_trial_9.png,images/pattern_6.png,j,f,750.0,14.0,9.0,5.0,0.0,11.0,0.0,1.0,9.0,80.0,,,,,,5de8d53cd0e07e836599d816,09:14:51,27/02/2024
html-keyboard-response,58,113386,0.0-26.0-1.0,,"<div style=""display: flex; flex-direction: column; align-items: center; margin-top: -40px;""><img src=""images/pattern_6.png"" style=""width: 234px; height: 230px; margin-top: -50px;""><div style=""display: flex; justify-content: space-between; margin-top: 33px;""><img src=""images/choice_trial_9.png"" style=""width: 408px; height: 417px; margin-left:608px;""></div></div>",,delaylearn,learning,display_response,tiVref3lqWTIKXosPhMii0001fx1,tiVref3lqWTIKXosPhMii0001fx1,,,,,,,,,,,,,,,,,chosen stimuli: images/choice_trial_9.png,,,,,5de8d53cd0e07e836599d816,09:14:51,27/02/2024
html-keyboard-response,59,114145,0.0-26.0-2.0,,,,delaylearn,learning,feedback_duration_window,tiVref3lqWTIKXosPhMii0001fx1,tiVref3lqWTIKXosPhMii0001fx1,,,,,,,,,,,,,,,,,,750.0,,,,5de8d53cd0e07e836599d816,09:14:51,27/02/2024
html-keyboard-response,60,115657,0.0-26.0-3.0,,<div style='margin:auto;width: auto; font-size: 150%'><span style='font-weight: bold; font-size: 100px; color: green;'>+10 points!</span><br><br></div>,,delaylearn,learning,feedback_image_window,tiVref3lqWTIKXosPhMii0001fx1,tiVref3lqWTIKXosPhMii0001fx1,,,,,,,,,,,,,,,,,,,,,,5de8d53cd0e07e836599d816,09:14:51,27/02/2024
html-keyboard-response,61,116169,0.0-27.0-0.0,,,,,,mood_trial_fixation,tiVref3lqWTIKXosPhMii0001fx1,,,,,,,,,,,,,,,,,,,,,,,5de8d53cd0e07e836599d816,09:14:51,27/02/2024
lmdlab-html-vas-response,62,120061,0.0-27.0-1.0,2881.0,How happy are you right now?,0.5231481481481481,delaylearn,learning,mood_trial,tiVref3lqWTIKXosPhMii0001fx1,tiVref3lqWTIKXosPhMii0001fx1,,,,,,,,,,,,,,,,,,,,"['Very unhappy', 'Very happy']",,5de8d53cd0e07e836599d816,09:14:51,27/02/2024
html-keyboard-response,63,121755,0.0-28.0,,"<div style=""font-size:100px;"">+</div>",,delaylearn,learning,ITI,tiVref3lqWTIKXosPhMii0001fx1,tiVref3lqWTIKXosPhMii0001fx1,,,,,,,,,,,,,,,,,,,1686.0,,,5de8d53cd0e07e836599d816,09:14:51,27/02/2024
html-keyboard-response,64,123817,0.0-29.0-0.0,2061.0,"<div style=""display: flex; flex-direction: column; align-items: center; margin-top: -40px;""><img src=""images/pattern_1.png"" style=""width: 234px; height: 230px; margin-top: -50px;""><div style=""display: flex; justify-content: space-between; margin-top: 33px;""><img src=""images/choice_trial_15.png"" style=""width: 408px; height: 417px; margin-right: 200px;""><img src=""images/choice_trial_6.png"" style=""width: 408px; height: 417px;""></div></div>",f,delaylearn,learning,trial,tiVref3lqWTIKXosPhMii0001fx1,tiVref3lqWTIKXosPhMii0001fx1,5.0,images/choice_trial_15.png,images/choice_trial_6.png,images/pattern_1.png,j,j,7000.0,15.0,6.0,1.0,1.0,12.0,0.0,0.0,15.0,80.0,,,,,,5de8d53cd0e07e836599d816,09:14:51,27/02/2024
html-keyboard-response,65,124827,0.0-29.0-1.0,,"<div style=""display: flex; flex-direction: column; align-items: center; margin-top: -40px;""><img src=""images/pattern_1.png"" style=""width: 234px; height: 230px; margin-top: -50px;""><div style=""display: flex; justify-content: space-between; margin-top: 33px;""><img src=""images/choice_trial_15.png"" style=""width: 408px; height: 417px; margin-right: 608px;""></div></div>",,delaylearn,learning,display_response,tiVref3lqWTIKXosPhMii0001fx1,tiVref3lqWTIKXosPhMii0001fx1,,,,,,,,,,,,,,,,,chosen stimuli: images/choice_trial_15.png,,,,,5de8d53cd0e07e836599d816,09:14:51,27/02/2024
html-keyboard-response,66,131843,0.0-29.0-2.0,,,,delaylearn,learning,feedback_duration_window,tiVref3lqWTIKXosPhMii0001fx1,tiVref3lqWTIKXosPhMii0001fx1,,,,,,,,,,,,,,,,,,7000.0,,,,5de8d53cd0e07e836599d816,09:14:51,27/02/2024
html-keyboard-response,67,133347,0.0-29.0-3.0,,<div style='margin:auto;width: auto; font-size: 150%'><span style='font-weight: bold; font-size: 100px; color: red;'>0 points!</span><br><br></div>,,delaylearn,learning,feedback_image_window,tiVref3lqWTIKXosPhMii0001fx1,tiVref3lqWTIKXosPhMii0001fx1,,,,,,,,,,,,,,,,,,,,,,5de8d53cd0e07e836599d816,09:14:51,27/02/2024
html-keyboard-response,68,135617,0.0-30.0,,"<div style=""font-size:100px;"">+</div>",,delaylearn,learning,ITI,tiVref3lqWTIKXosPhMii0001fx1,tiVref3lqWTIKXosPhMii0001fx1,,,,,,,,,,,,,,,,,,,2262.0,,,5de8d53cd0e07e836599d816,09:14:51,27/02/2024
html-keyboard-response,69,138025,0.0-31.0-0.0,2407.5,"<div style=""display: flex; flex-direction: column; align-items: center; margin-top: -40px;""><img src=""images/pattern_3.png"" style=""width: 234px; height: 230px; margin-top: -50px;""><div style=""display: flex; justify-content: space-between; margin-top: 33px;""><img src=""images/choice_trial_2.png"" style=""width: 408px; height: 417px; margin-right: 200px;""><img src=""images/choice_trial_16.png"" style=""width: 408px; height: 417px;""></div></div>",j,delaylearn,learning,trial,tiVref3lqWTIKXosPhMii0001fx1,tiVref3lqWTIKXosPhMii0001fx1,5.0,images/choice_trial_2.png,images/choice_trial_16.png,images/pattern_3.png,f,j,7000.0,2.0,16.0,2.0,1.0,13.0,1.0,0.0,16.0,80.0,,,,,,5de8d53cd0e07e836599d816,09:14:51,27/02/2024
html-keyboard-response,70,139034,0.0-31.0-1.0,,"<div style=""display: flex; flex-direction: column; align-items: center; margin-top: -40px;""><img src=""images/pattern_3.png"" style=""width: 234px; height: 230px; margin-top: -50px;""><div style=""display: flex; justify-content: space-between; margin-top: 33px;""><img src=""images/choice_trial_16.png"" style=""width: 408px; height: 417px; margin-left:608px;""></div></div>",,delaylearn,learning,display_response,tiVref3lqWTIKXosPhMii0001fx1,tiVref3lqWTIKXosPhMii0001fx1,,,,,,,,,,,,,,,,,chosen stimuli: images/choice_trial_16.png,,,,,5de8d53cd0e07e836599d816,09:14:51,27/02/2024
html-keyboard-response,71,146049,0.0-31.0-2.0,,,,delaylearn,learning,feedback_duration_window,tiVref3lqWTIKXosPhMii0001fx1,tiVref3lqWTIKXosPhMii0001fx1,,,,,,,,,,,,,,,,,,7000.0,,,,5de8d53cd0e07e836599d816,09:14:51,27/02/2024
html-keyboard-response,72,147555,0.0-31.0-3.0,,<div style='margin:auto;width: auto; font-size: 150%'><span style='font-weight: bold; font-size: 100px; color: red;'>0 points!</span><br><br></div>,,delaylearn,learning,feedback_image_window,tiVref3lqWTIKXosPhMii0001fx1,tiVref3lqWTIKXosPhMii0001fx1,,,,,,,,,,,,,,,,,,,,,,5de8d53cd0e07e836599d816,09:14:51,27/02/2024
html-keyboard-response,73,149523,0.0-32.0,,"<div style=""font-size:100px;"">+</div>",,delaylearn,learning,ITI,tiVref3lqWTIKXosPhMii0001fx1,tiVref3lqWTIKXosPhMii0001fx1,,,,,,,,,,,,,,,,,,,1956.0,,,5de8d53cd0e07e836599d816,09:14:51,27/02/2024
html-keyboard-response,74,150498,0.0-33.0-0.0,973.9000000059605,"<div style=""display: flex; flex-direction: column; align-items: center; margin-top: -40px;""><img src=""images/pattern_5.png"" style=""width: 234px; height: 230px; margin-top: -50px;""><div style=""display: flex; justify-content: space-between; margin-top: 33px;""><img src=""images/choice_trial_7.png"" style=""width: 408px; height: 417px; margin-right: 200px;""><img src=""images/choice_trial_13.png"" style=""width: 408px; height: 417px;""></div></div>",f,delaylearn,learning,trial,tiVref3lqWTIKXosPhMii0001fx1,tiVref3lqWTIKXosPhMii0001fx1,5.0,images/choice_trial_7.png,images/choice_trial_13.png,images/pattern_5.png,f,f,750.0,7.0,13.0,4.0,0.0,14.0,1.0,1.0,7.0,90.0,,,,,,5de8d53cd0e07e836599d816,09:14:51,27/02/2024
html-keyboard-response,75,151507,0.0-33.0-1.0,,"<div style=""display: flex; flex-direction: column; align-items: center; margin-top: -40px;""><img src=""images/pattern_5.png"" style=""width: 234px; height: 230px; margin-top: -50px;""><div style=""display: flex; justify-content: space-between; margin-top: 33px;""><img src=""images/choice_trial_7.png"" style=""width: 408px; height: 417px; margin-right: 608px;""></div></div>",,delaylearn,learning,display_response,tiVref3lqWTIKXosPhMii0001fx1,tiVref3lqWTIKXosPhMii0001fx1,,,,,,,,,,,,,,,,,chosen stimuli: images/choice_trial_7.png,,,,,5de8d53cd0e07e836599d816,09:14:51,27/02/2024
html-keyboard-response,76,152269,0.0-33.0-2.0,,,,delaylearn,learning,feedback_duration_window,tiVref3lqWTIKXosPhMii0001fx1,tiVref3lqWTIKXosPhMii0001fx1,,,,,,,,,,,,,,,,,,750.0,,,,5de8d53cd0e07e836599d816,09:14:51,27/02/2024
html-keyboard-response,77,153775,0.0-33.0-3.0,,<div style='margin:auto;width: auto; font-size: 150%'><span style='font-weight: bold; font-size: 100px; color: green;'>+10 points!</span><br><br></div>,,delaylearn,learning,feedback_image_window,tiVref3lqWTIKXosPhMii0001fx1,tiVref3lqWTIKXosPhMii0001fx1,,,,,,,,,,,,,,,,,,,,,,5de8d53cd0e07e836599d816,09:14:51,27/02/2024
html-keyboard-response,78,154289,0.0-34.0-0.0,,,,,,mood_trial_fixation,tiVref3lqWTIKXosPhMii0001fx1,,,,,,,,,,,,,,,,,,,,,,,5de8d53cd0e07e836599d816,09:14:51,27/02/2024
lmdlab-html-vas-response,79,158060,0.0-34.0-1.0,2755.0,How happy are you right now?,0.49228395061728397,delaylearn,learning,mood_trial,tiVref3lqWTIKXosPhMii0001fx1,tiVref3lqWTIKXosPhMii0001fx1,,,,,,,,,,,,,,,,,,,,"['Very unhappy', 'Very happy']",,5de8d53cd0e07e836599d816,09:14:51,27/02/2024
html-keyboard-response,80,159677,0.0-35.0,,"<div style=""font-size:100px;"">+</div>",,delaylearn,learning,ITI,tiVref3lqWTIKXosPhMii0001fx1,tiVref3lqWTIKXosPhMii0001fx1,,,,,,,,,,,,,,,,,,,1603.0,,,5de8d53cd0e07e836599d816,09:14:51,27/02/2024
html-keyboard-response,81,162449,0.0-36.0-0.0,2771.5999999940395,"<div style=""display: flex; flex-direction: column; align-items: center; margin-top: -40px;""><img src=""images/pattern_6.png"" style=""width: 234px; height: 230px; margin-top: -50px;""><div style=""display: flex; justify-content: space-between; margin-top: 33px;""><img src=""images/choice_trial_14.png"" style=""width: 408px; height: 417px; margin-right: 200px;""><img src=""images/choice_trial_9.png"" style=""width: 408px; height: 417px;""></div></div>",j,delaylearn,learning,trial,tiVref3lqWTIKXosPhMii0001fx1,tiVref3lqWTIKXosPhMii0001fx1,5.0,images/choice_trial_14.png,images/choice_trial_9.png,images/pattern_6.png,f,f,750.0,14.0,9.0,5.0,0.0,15.0,0.0,0.0,9.0,90.0,,,,,,5de8d53cd0e07e836599d816,09:14:51,27/02/2024
html-keyboard-response,82,163463,0.0-36.0-1.0,,"<div style=""display: flex; flex-direction: column; align-items: center; margin-top: -40px;""><img src=""images/pattern_6.png"" style=""width: 234px; height: 230px; margin-top: -50px;""><div style=""display: flex; justify-content: space-between; margin-top: 33px;""><img src=""images/choice_trial_9.png"" style=""width: 408px; height: 417px; margin-left:608px;""></div></div>",,delaylearn,learning,display_response,tiVref3lqWTIKXosPhMii0001fx1,tiVref3lqWTIKXosPhMii0001fx1,,,,,,,,,,,,,,,,,chosen stimuli: images/choice_trial_9.png,,,,,5de8d53cd0e07e836599d816,09:14:51,27/02/2024
html-keyboard-response,83,164227,0.0-36.0-2.0,,,,delaylearn,learning,feedback_duration_window,tiVref3lqWTIKXosPhMii0001fx1,tiVref3lqWTIKXosPhMii0001fx1,,,,,,,,,,,,,,,,,,750.0,,,,5de8d53cd0e07e836599d816,09:14:51,27/02/2024
html-keyboard-response,84,165736,0.0-36.0-3.0,,<div style='margin:auto;width: auto; font-size: 150%'><span style='font-weight: bold; font-size: 100px; color: red;'>0 points!</span><br><br></div>,,delaylearn,learning,feedback_image_window,tiVref3lqWTIKXosPhMii0001fx1,tiVref3lqWTIKXosPhMii0001fx1,,,,,,,,,,,,,,,,,,,,,,5de8d53cd0e07e836599d816,09:14:51,27/02/2024
html-keyboard-response,85,168195,0.0-37.0,,"<div style=""font-size:100px;"">+</div>",,delaylearn,learning,ITI,tiVref3lqWTIKXosPhMii0001fx1,tiVref3lqWTIKXosPhMii0001fx1,,,,,,,,,,,,,,,,,,,2454.0,,,5de8d53cd0e07e836599d816,09:14:51,27/02/2024
html-keyboard-response,86,170089,0.0-38.0-0.0,1893.0999999940395,"<div style=""display: flex; flex-direction: column; align-items: center; margin-top: -40px;""><img src=""images/pattern_4.png"" style=""width: 234px; height: 230px; margin-top: -50px;""><div style=""display: flex; justify-content: space-between; margin-top: 33px;""><img src=""images/choice_trial_4.png"" style=""width: 408px; height: 417px; margin-right: 200px;""><img src=""images/choice_trial_11.png"" style=""width: 408px; height: 417px;""></div></div>",j,delaylearn,learning,trial,tiVref3lqWTIKXosPhMii0001fx1,tiVref3lqWTIKXosPhMii0001fx1,5.0,images/choice_trial_4.png,images/choice_trial_11.png,images/pattern_4.png,j,j,7000.0,4.0,11.0,3.0,1.0,16.0,1.0,1.0,11.0,100.0,,,,,,5de8d53cd0e07e836599d816,09:14:51,27/02/2024
html-keyboard-response,87,171103,0.0-38.0-1.0,,"<div style=""display: flex; flex-direction: column; align-items: center; margin-top: -40px;""><img src=""images/pattern_4.png"" style=""width: 234px; height: 230px; margin-top: -50px;""><div style=""display: flex; justify-content: space-between; margin-top: 33px;""><img src=""images/choice_trial_11.png"" style=""width: 408px; height: 417px; margin-left:608px;""></div></div>",,delaylearn,learning,display_response,tiVref3lqWTIKXosPhMii0001fx1,tiVref3lqWTIKXosPhMii0001fx1,,,,,,,,,,,,,,,,,chosen stimuli: images/choice_trial_11.png,,,,,5de8d53cd0e07e836599d816,09:14:51,27/02/2024
html-keyboard-response,88,178113,0.0-38.0-2.0,,,,delaylearn,learning,feedback_duration_window,tiVref3lqWTIKXosPhMii0001fx1,tiVref3lqWTIKXosPhMii0001fx1,,,,,,,,,,,,,,,,,,7000.0,,,,5de8d53cd0e07e836599d816,09:14:51,27/02/2024
html-keyboard-response,89,179620,0.0-38.0-3.0,,<div style='margin:auto;width: auto; font-size: 150%'><span style='font-weight: bold; font-size: 100px; color: green;'>+10 points!</span><br><br></div>,,delaylearn,learning,feedback_image_window,tiVref3lqWTIKXosPhMii0001fx1,tiVref3lqWTIKXosPhMii0001fx1,,,,,,,,,,,,,,,,,,,,,,5de8d53cd0e07e836599d816,09:14:51,27/02/2024
html-keyboard-response,90,182072,0.0-39.0,,"<div style=""font-size:100px;"">+</div>",,delaylearn,learning,ITI,tiVref3lqWTIKXosPhMii0001fx1,tiVref3lqWTIKXosPhMii0001fx1,,,,,,,,,,,,,,,,,,,2443.0,,,5de8d53cd0e07e836599d816,09:14:51,27/02/2024
html-keyboard-response,91,184969,0.0-40.0-0.0,2896.199999988079,"<div style=""display: flex; flex-direction: column; align-items: center; margin-top: -40px;""><img src=""images/pattern_7.png"" style=""width: 234px; height: 230px; margin-top: -50px;""><div style=""display: flex; justify-content: space-between; margin-top: 33px;""><img src=""images/choice_trial_8.png"" style=""width: 408px; height: 417px; margin-right: 200px;""><img src=""images/choice_trial_10.png"" style=""width: 408px; height: 417px;""></div></div>",f,delaylearn,learning,trial,tiVref3lqWTIKXosPhMii0001fx1,tiVref3lqWTIKXosPhMii0001fx1,5.0,images/choice_trial_8.png,images/choice_trial_10.png,images/pattern_7.png,j,f,750.0,8.0,10.0,6.0,0.0,17.0,1.0,0.0,8.0,100.0,,,,,,5de8d53cd0e07e836599d816,09:14:51,27/02/2024
html-keyboard-response,92,185978,0.0-40.0-1.0,,"<div style=""display: flex; flex-direction: column; align-items: center; margin-top: -40px;""><img src=""images/pattern_7.png"" style=""width: 234px; height: 230px; margin-top: -50px;""><div style=""display: flex; justify-content: space-between; margin-top: 33px;""><img src=""images/choice_trial_8.png"" style=""width: 408px; height: 417px; margin-right: 608px;""></div></div>",,delaylearn,learning,display_response,tiVref3lqWTIKXosPhMii0001fx1,tiVref3lqWTIKXosPhMii0001fx1,,,,,,,,,,,,,,,,,chosen stimuli: images/choice_trial_8.png,,,,,5de8d53cd0e07e836599d816,09:14:51,27/02/2024
html-keyboard-response,93,186742,0.0-40.0-2.0,,,,delaylearn,learning,feedback_duration_window,tiVref3lqWTIKXosPhMii0001fx1,tiVref3lqWTIKXosPhMii0001fx1,,,,,,,,,,,,,,,,,,750.0,,,,5de8d53cd0e07e836599d816,09:14:51,27/02/2024
html-keyboard-response,94,188251,0.0-40.0-3.0,,<div style='margin:auto;width: auto; font-size: 150%'><span style='font-weight: bold; font-size: 100px; color: red;'>0 points!</span><br><br></div>,,delaylearn,learning,feedback_image_window,tiVref3lqWTIKXosPhMii0001fx1,tiVref3lqWTIKXosPhMii0001fx1,,,,,,,,,,,,,,,,,,,,,,5de8d53cd0e07e836599d816,09:14:51,27/02/2024
html-keyboard-response,95,189865,0.0-41.0,,"<div style=""font-size:100px;"">+</div>",,delaylearn,learning,ITI,tiVref3lqWTIKXosPhMii0001fx1,tiVref3lqWTIKXosPhMii0001fx1,,,,,,,,,,,,,,,,,,,1609.0,,,5de8d53cd0e07e836599d816,09:14:51,27/02/2024
html-keyboard-response,96,192633,0.0-42.0-0.0,2766.600000023842,"<div style=""display: flex; flex-direction: column; align-items: center; margin-top: -40px;""><img src=""images/pattern_1.png"" style=""width: 234px; height: 230px; margin-top: -50px;""><div style=""display: flex; justify-content: space-between; margin-top: 33px;""><img src=""images/choice_trial_6.png"" style=""width: 408px; height: 417px; margin-right: 200px;""><img src=""images/choice_trial_15.png"" style=""width: 408px; height: 417px;""></div></div>",j,delaylearn,learning,trial,tiVref3lqWTIKXosPhMii0001fx1,tiVref3lqWTIKXosPhMii0001fx1,5.0,images/choice_trial_6.png,images/choice_trial_15.png,images/pattern_1.png,f,f,7000.0,6.0,15.0,1.0,0.0,18.0,0.0,0.0,15.0,100.0,,,,,,5de8d53cd0e07e836599d816,09:14:51,27/02/2024
html-keyboard-response,97,193640,0.0-42.0-1.0,,"<div style=""display: flex; flex-direction: column; align-items: center; margin-top: -40px;""><img src=""images/pattern_1.png"" style=""width: 234px; height: 230px; margin-top: -50px;""><div style=""display: flex; justify-content: space-between; margin-top: 33px;""><img src=""images/choice_trial_15.png"" style=""width: 408px; height: 417px; margin-left:608px;""></div></div>",,delaylearn,learning,display_response,tiVref3lqWTIKXosPhMii0001fx1,tiVref3lqWTIKXosPhMii0001fx1,,,,,,,,,,,,,,,,,chosen stimuli: images/choice_trial_15.png,,,,,5de8d53cd0e07e836599d816,09:14:51,27/02/2024
html-keyboard-response,98,200655,0.0-42.0-2.0,,,,delaylearn,learning,feedback_duration_window,tiVref3lqWTIKXosPhMii0001fx1,tiVref3lqWTIKXosPhMii0001fx1,,,,,,,,,,,,,,,,,,7000.0,,,,5de8d53cd0e07e836599d816,09:14:51,27/02/2024
html-keyboard-response,99,202168,0.0-42.0-3.0,,<div style='margin:auto;width: auto; font-size: 150%'><span style='font-weight: bold; font-size: 100px; color: red;'>0 points!</span><br><br></div>,,delaylearn,learning,feedback_image_window,tiVref3lqWTIKXosPhMii0001fx1,tiVref3lqWTIKXosPhMii0001fx1,,,,,,,,,,,,,,,,,,,,,,5de8d53cd0e07e836599d816,09:14:51,27/02/2024
html-keyboard-response,100,204644,0.0-43.0,,"<div style=""font-size:100px;"">+</div>",,delaylearn,learning,ITI,tiVref3lqWTIKXosPhMii0001fx1,tiVref3lqWTIKXosPhMii0001fx1,,,,,,,,,,,,,,,,,,,2462.0,,,5de8d53cd0e07e836599d816,09:14:51,27/02/2024
html-keyboard-response,101,206801,0.0-44.0-0.0,2155.4000000059605,"<div style=""display: flex; flex-direction: column; align-items: center; margin-top: -40px;""><img src=""images/pattern_6.png"" style=""width: 234px; height: 230px; margin-top: -50px;""><div style=""display: flex; justify-content: space-between; margin-top: 33px;""><img src=""images/choice_trial_9.png"" style=""width: 408px; height: 417px; margin-right: 200px;""><img src=""images/choice_trial_14.png"" style=""width: 408px; height: 417px;""></div></div>",j,delaylearn,learning,trial,tiVref3lqWTIKXosPhMii0001fx1,tiVref3lqWTIKXosPhMii0001fx1,5.0,images/choice_trial_9.png,images/choice_trial_14.png,images/pattern_6.png,j,j,750.0,9.0,14.0,5.0,1.0,19.0,1.0,1.0,14.0,110.0,,,,,,5de8d53cd0e07e836599d816,09:14:51,27/02/2024
html-keyboard-response,102,207811,0.0-44.0-1.0,,"<div style=""display: flex; flex-direction: column; align-items: center; margin-top: -40px;""><img src=""images/pattern_6.png"" style=""width: 234px; height: 230px; margin-top: -50px;""><div style=""display: flex; justify-content: space-between; margin-top: 33px;""><img src=""images/choice_trial_14.png"" style=""width: 408px; height: 417px; margin-left:608px;""></div></div>",,delaylearn,learning,display_response,tiVref3lqWTIKXosPhMii0001fx1,tiVref3lqWTIKXosPhMii0001fx1,,,,,,,,,,,,,,,,,chosen stimuli: images/choice_trial_14.png,,,,,5de8d53cd0e07e836599d816,09:14:51,27/02/2024
html-keyboard-response,103,208570,0.0-44.0-2.0,,,,delaylearn,learning,feedback_duration_window,tiVref3lqWTIKXosPhMii0001fx1,tiVref3lqWTIKXosPhMii0001fx1,,,,,,,,,,,,,,,,,,750.0,,,,5de8d53cd0e07e836599d816,09:14:51,27/02/2024
html-keyboard-response,104,210081,0.0-44.0-3.0,,<div style='margin:auto;width: auto; font-size: 150%'><span style='font-weight: bold; font-size: 100px; color: green;'>+10 points!</span><br><br></div>,,delaylearn,learning,feedback_image_window,tiVref3lqWTIKXosPhMii0001fx1,tiVref3lqWTIKXosPhMii0001fx1,,,,,,,,,,,,,,,,,,,,,,5de8d53cd0e07e836599d816,09:14:51,27/02/2024
html-keyboard-response,105,211660,0.0-45.0,,"<div style=""font-size:100px;"">+</div>",,delaylearn,learning,ITI,tiVref3lqWTIKXosPhMii0001fx1,tiVref3lqWTIKXosPhMii0001fx1,,,,,,,,,,,,,,,,,,,1575.0,,,5de8d53cd0e07e836599d816,09:14:51,27/02/2024
html-keyboard-response,106,212960,0.0-46.0-0.0,1299.300000011921,"<div style=""display: flex; flex-direction: column; align-items: center; margin-top: -40px;""><img src=""images/pattern_4.png"" style=""width: 234px; height: 230px; margin-top: -50px;""><div style=""display: flex; justify-content: space-between; margin-top: 33px;""><img src=""images/choice_trial_11.png"" style=""width: 408px; height: 417px; margin-right: 200px;""><img src=""images/choice_trial_4.png"" style=""width: 408px; height: 417px;""></div></div>",f,delaylearn,learning,trial,tiVref3lqWTIKXosPhMii0001fx1,tiVref3lqWTIKXosPhMii0001fx1,5.0,images/choice_trial_11.png,images/choice_trial_4.png,images/pattern_4.png,f,f,7000.0,11.0,4.0,3.0,0.0,20.0,1.0,1.0,11.0,120.0,,,,,,5de8d53cd0e07e836599d816,09:14:51,27/02/2024
html-keyboard-response,107,213969,0.0-46.0-1.0,,"<div style=""display: flex; flex-direction: column; align-items: center; margin-top: -40px;""><img src=""images/pattern_4.png"" style=""width: 234px; height: 230px; margin-top: -50px;""><div style=""display: flex; justify-content: space-between; margin-top: 33px;""><img src=""images/choice_trial_11.png"" style=""width: 408px; height: 417px; margin-right: 608px;""></div></div>",,delaylearn,learning,display_response,tiVref3lqWTIKXosPhMii0001fx1,tiVref3lqWTIKXosPhMii0001fx1,,,,,,,,,,,,,,,,,chosen stimuli: images/choice_trial_11.png,,,,,5de8d53cd0e07e836599d816,09:14:51,27/02/2024
html-keyboard-response,108,220979,0.0-46.0-2.0,,,,delaylearn,learning,feedback_duration_window,tiVref3lqWTIKXosPhMii0001fx1,tiVref3lqWTIKXosPhMii0001fx1,,,,,,,,,,,,,,,,,,7000.0,,,,5de8d53cd0e07e836599d816,09:14:51,27/02/2024
html-keyboard-response,109,222487,0.0-46.0-3.0,,<div style='margin:auto;width: auto; font-size: 150%'><span style='font-weight: bold; font-size: 100px; color: green;'>+10 points!</span><br><br></div>,,delaylearn,learning,feedback_image_window,tiVref3lqWTIKXosPhMii0001fx1,tiVref3lqWTIKXosPhMii0001fx1,,,,,,,,,,,,,,,,,,,,,,5de8d53cd0e07e836599d816,09:14:51,27/02/2024
html-keyboard-response,110,222997,0.0-47.0-0.0,,,,,,mood_trial_fixation,tiVref3lqWTIKXosPhMii0001fx1,,,,,,,,,,,,,,,,,,,,,,,5de8d53cd0e07e836599d816,09:14:51,27/02/2024
lmdlab-html-vas-response,111,228462,0.0-47.0-1.0,4454.0,How happy are you right now?,0.4799382716049383,delaylearn,learning,mood_trial,tiVref3lqWTIKXosPhMii0001fx1,tiVref3lqWTIKXosPhMii0001fx1,,,,,,,,,,,,,,,,,,,,"['Very unhappy', 'Very happy']",,5de8d53cd0e07e836599d816,09:14:51,27/02/2024
html-keyboard-response,112,230054,0.0-48.0,,"<div style=""font-size:100px;"">+</div>",,delaylearn,learning,ITI,tiVref3lqWTIKXosPhMii0001fx1,tiVref3lqWTIKXosPhMii0001fx1,,,,,,,,,,,,,,,,,,,1591.0,,,5de8d53cd0e07e836599d816,09:14:51,27/02/2024
html-keyboard-response,113,232680,0.0-49.0-0.0,2625.5,"<div style=""display: flex; flex-direction: column; align-items: center; margin-top: -40px;""><img src=""images/pattern_7.png"" style=""width: 234px; height: 230px; margin-top: -50px;""><div style=""display: flex; justify-content: space-between; margin-top: 33px;""><img src=""images/choice_trial_10.png"" style=""width: 408px; height: 417px; margin-right: 200px;""><img src=""images/choice_trial_8.png"" style=""width: 408px; height: 417px;""></div></div>",j,delaylearn,learning,trial,tiVref3lqWTIKXosPhMii0001fx1,tiVref3lqWTIKXosPhMii0001fx1,5.0,images/choice_trial_10.png,images/choice_trial_8.png,images/pattern_7.png,j,j,750.0,10.0,8.0,6.0,1.0,21.0,1.0,1.0,8.0,130.0,,,,,,5de8d53cd0e07e836599d816,09:14:51,27/02/2024
html-keyboard-response,114,233692,0.0-49.0-1.0,,"<div style=""display: flex; flex-direction: column; align-items: center; margin-top: -40px;""><img src=""images/pattern_7.png"" style=""width: 234px; height: 230px; margin-top: -50px;""><div style=""display: flex; justify-content: space-between; margin-top: 33px;""><img src=""images/choice_trial_8.png"" style=""width: 408px; height: 417px; margin-left:608px;""></div></div>",,delaylearn,learning,display_response,tiVref3lqWTIKXosPhMii0001fx1,tiVref3lqWTIKXosPhMii0001fx1,,,,,,,,,,,,,,,,,chosen stimuli: images/choice_trial_8.png,,,,,5de8d53cd0e07e836599d816,09:14:51,27/02/2024
html-keyboard-response,115,234452,0.0-49.0-2.0,,,,delaylearn,learning,feedback_duration_window,tiVref3lqWTIKXosPhMii0001fx1,tiVref3lqWTIKXosPhMii0001fx1,,,,,,,,,,,,,,,,,,750.0,,,,5de8d53cd0e07e836599d816,09:14:51,27/02/2024
html-keyboard-response,116,235967,0.0-49.0-3.0,,<div style='margin:auto;width: auto; font-size: 150%'><span style='font-weight: bold; font-size: 100px; color: green;'>+10 points!</span><br><br></div>,,delaylearn,learning,feedback_image_window,tiVref3lqWTIKXosPhMii0001fx1,tiVref3lqWTIKXosPhMii0001fx1,,,,,,,,,,,,,,,,,,,,,,5de8d53cd0e07e836599d816,09:14:51,27/02/2024
html-keyboard-response,117,237769,0.0-50.0,,"<div style=""font-size:100px;"">+</div>",,delaylearn,learning,ITI,tiVref3lqWTIKXosPhMii0001fx1,tiVref3lqWTIKXosPhMii0001fx1,,,,,,,,,,,,,,,,,,,1787.0,,,5de8d53cd0e07e836599d816,09:14:51,27/02/2024
html-keyboard-response,118,239657,0.0-51.0-0.0,1887.0,"<div style=""display: flex; flex-direction: column; align-items: center; margin-top: -40px;""><img src=""images/pattern_1.png"" style=""width: 234px; height: 230px; margin-top: -50px;""><div style=""display: flex; justify-content: space-between; margin-top: 33px;""><img src=""images/choice_trial_15.png"" style=""width: 408px; height: 417px; margin-right: 200px;""><img src=""images/choice_trial_6.png"" style=""width: 408px; height: 417px;""></div></div>",f,delaylearn,learning,trial,tiVref3lqWTIKXosPhMii0001fx1,tiVref3lqWTIKXosPhMii0001fx1,5.0,images/choice_trial_15.png,images/choice_trial_6.png,images/pattern_1.png,f,j,7000.0,15.0,6.0,1.0,1.0,22.0,0.0,1.0,15.0,140.0,,,,,,5de8d53cd0e07e836599d816,09:14:51,27/02/2024
html-keyboard-response,119,240659,0.0-51.0-1.0,,"<div style=""display: flex; flex-direction: column; align-items: center; margin-top: -40px;""><img src=""images/pattern_1.png"" style=""width: 234px; height: 230px; margin-top: -50px;""><div style=""display: flex; justify-content: space-between; margin-top: 33px;""><img src=""images/choice_trial_15.png"" style=""width: 408px; height: 417px; margin-right: 608px;""></div></div>",,delaylearn,learning,display_response,tiVref3lqWTIKXosPhMii0001fx1,tiVref3lqWTIKXosPhMii0001fx1,,,,,,,,,,,,,,,,,chosen stimuli: images/choice_trial_15.png,,,,,5de8d53cd0e07e836599d816,09:14:51,27/02/2024
html-keyboard-response,120,247664,0.0-51.0-2.0,,,,delaylearn,learning,feedback_duration_window,tiVref3lqWTIKXosPhMii0001fx1,tiVref3lqWTIKXosPhMii0001fx1,,,,,,,,,,,,,,,,,,7000.0,,,,5de8d53cd0e07e836599d816,09:14:51,27/02/2024
html-keyboard-response,121,249169,0.0-51.0-3.0,,<div style='margin:auto;width: auto; font-size: 150%'><span style='font-weight: bold; font-size: 100px; color: green;'>+10 points!</span><br><br></div>,,delaylearn,learning,feedback_image_window,tiVref3lqWTIKXosPhMii0001fx1,tiVref3lqWTIKXosPhMii0001fx1,,,,,,,,,,,,,,,,,,,,,,5de8d53cd0e07e836599d816,09:14:51,27/02/2024
html-keyboard-response,122,251544,0.0-52.0,,"<div style=""font-size:100px;"">+</div>",,delaylearn,learning,ITI,tiVref3lqWTIKXosPhMii0001fx1,tiVref3lqWTIKXosPhMii0001fx1,,,,,,,,,,,,,,,,,,,2364.0,,,5de8d53cd0e07e836599d816,09:14:51,27/02/2024
html-keyboard-response,123,253192,0.0-53.0-0.0,1646.800000011921,"<div style=""display: flex; flex-direction: column; align-items: center; margin-top: -40px;""><img src=""images/pattern_5.png"" style=""width: 234px; height: 230px; margin-top: -50px;""><div style=""display: flex; justify-content: space-between; margin-top: 33px;""><img src=""images/choice_trial_13.png"" style=""width: 408px; height: 417px; margin-right: 200px;""><img src=""images/choice_trial_7.png"" style=""width: 408px; height: 417px;""></div></div>",j,delaylearn,learning,trial,tiVref3lqWTIKXosPhMii0001fx1,tiVref3lqWTIKXosPhMii0001fx1,5.0,images/choice_trial_13.png,images/choice_trial_7.png,images/pattern_5.png,j,j,750.0,13.0,7.0,4.0,1.0,23.0,1.0,1.0,7.0,150.0,,,,,,5de8d53cd0e07e836599d816,09:14:51,27/02/2024
html-keyboard-response,124,254205,0.0-53.0-1.0,,"<div style=""display: flex; flex-direction: column; align-items: center; margin-top: -40px;""><img src=""images/pattern_5.png"" style=""width: 234px; height: 230px; margin-top: -50px;""><div style=""display: flex; justify-content: space-between; margin-top: 33px;""><img src=""images/choice_trial_7.png"" style=""width: 408px; height: 417px; margin-left:608px;""></div></div>",,delaylearn,learning,display_response,tiVref3lqWTIKXosPhMii0001fx1,tiVref3lqWTIKXosPhMii0001fx1,,,,,,,,,,,,,,,,,chosen stimuli: images/choice_trial_7.png,,,,,5de8d53cd0e07e836599d816,09:14:51,27/02/2024
html-keyboard-response,125,254971,0.0-53.0-2.0,,,,delaylearn,learning,feedback_duration_window,tiVref3lqWTIKXosPhMii0001fx1,tiVref3lqWTIKXosPhMii0001fx1,,,,,,,,,,,,,,,,,,750.0,,,,5de8d53cd0e07e836599d816,09:14:51,27/02/2024
html-keyboard-response,126,256480,0.0-53.0-3.0,,<div style='margin:auto;width: auto; font-size: 150%'><span style='font-weight: bold; font-size: 100px; color: green;'>+10 points!</span><br><br></div>,,delaylearn,learning,feedback_image_window,tiVref3lqWTIKXosPhMii0001fx1,tiVref3lqWTIKXosPhMii0001fx1,,,,,,,,,,,,,,,,,,,,,,5de8d53cd0e07e836599d816,09:14:51,27/02/2024
html-keyboard-response,127,258776,0.0-54.0,,"<div style=""font-size:100px;"">+</div>",,delaylearn,learning,ITI,tiVref3lqWTIKXosPhMii0001fx1,tiVref3lqWTIKXosPhMii0001fx1,,,,,,,,,,,,,,,,,,,2295.0,,,5de8d53cd0e07e836599d816,09:14:51,27/02/2024
html-keyboard-response,128,261779,0.0-55.0-0.0,,"<div style=""display: flex; flex-direction: column; align-items: center; margin-top: -40px;""><img src=""images/pattern_3.png"" style=""width: 234px; height: 230px; margin-top: -50px;""><div style=""display: flex; justify-content: space-between; margin-top: 33px;""><img src=""images/choice_trial_2.png"" style=""width: 408px; height: 417px; margin-right: 200px;""><img src=""images/choice_trial_16.png"" style=""width: 408px; height: 417px;""></div></div>",,delaylearn,learning,trial,tiVref3lqWTIKXosPhMii0001fx1,tiVref3lqWTIKXosPhMii0001fx1,5.0,images/choice_trial_2.png,images/choice_trial_16.png,images/pattern_3.png,j,j,7000.0,2.0,16.0,2.0,1.0,24.0,0.0,0.0,0.0,150.0,,,,,,5de8d53cd0e07e836599d816,09:14:51,27/02/2024
html-keyboard-response,129,262792,0.0-55.0-1.0,,<div style='font-weight: bold; font-size: 75px; color: red;'>Missed Trial <br><br><br><br> Please respond faster</div>,,delaylearn,learning,display_response,tiVref3lqWTIKXosPhMii0001fx1,tiVref3lqWTIKXosPhMii0001fx1,,,,,,,,,,,,,,,,,Missed trial,,,,,5de8d53cd0e07e836599d816,09:14:51,27/02/2024
html-keyboard-response,130,262797,0.0-55.0-2.0,,,,delaylearn,learning,feedback_duration_window,tiVref3lqWTIKXosPhMii0001fx1,tiVref3lqWTIKXosPhMii0001fx1,,,,,,,,,,,,,,,,,,0.0,,,,5de8d53cd0e07e836599d816,09:14:51,27/02/2024
html-keyboard-response,131,262802,0.0-55.0-3.0,,,,delaylearn,learning,feedback_image_window,tiVref3lqWTIKXosPhMii0001fx1,tiVref3lqWTIKXosPhMii0001fx1,,,,,,,,,,,,,,,,,,,,,,5de8d53cd0e07e836599d816,09:14:51,27/02/2024
lmdlab-html-vas-response,132,269262,0.0-56.0-0.0,4945.0,*How <b><u>confident</u></b> are you feeling about your answers at this moment?*,0.5802469135802469,rewlearn,rate_confidence,,tiVref3lqWTIKXosPhMii0001fx1,tiVref3lqWTIKXosPhMii0001fx1,,,,,,,,,,,,,,,,,,,,"['No confidence', 'Complete confidence']",,5de8d53cd0e07e836599d816,09:14:51,27/02/2024
lmdlab-rest-trial-limit,133,275072,0.0-56.0-1.0,4297.699999988079,"<div style=""font-size:40px;""><b>Please take a break!</b><br><br><br><br><p>Great work: you earned undefined points.<br><br><br><p>You have completed part(s) 1 of 6.<br><br><br><br>When you are ready to continue<br><br><br>please click the button.</p><br><br>",0,delaylearn,learning,break,tiVref3lqWTIKXosPhMii0001fx1,tiVref3lqWTIKXosPhMii0001fx1,,,,,,,,,,,,,,,,,,,,,0.0,5de8d53cd0e07e836599d816,09:14:51,27/02/2024
html-keyboard-response,134,278087,0.0-56.0-2.0,,"<div style=""font-size:100px;"">+</div>",,delaylearn,learning,pre_fixation,tiVref3lqWTIKXosPhMii0001fx1,,,,,,,,,,,,,,,,,,,,,,,5de8d53cd0e07e836599d816,09:14:51,27/02/2024
lmdlab-html-vas-response,135,282285,0.0-56.0-3.0-0.0,3188.0,How happy are you right now?,0.4984567901234568,delaylearn,learning,mood_baseline,tiVref3lqWTIKXosPhMii0001fx1,tiVref3lqWTIKXosPhMii0001fx1,,,,,,,,,,,,,,,,,,,,"['Very unhappy', 'Very happy']",,5de8d53cd0e07e836599d816,09:14:51,27/02/2024
html-keyboard-response,136,283800,0.0-56.0-3.0-1.0,,,,,,mood_baseline_fixation,tiVref3lqWTIKXosPhMii0001fx1,,,,,,,,,,,,,,,,,,,,,,,5de8d53cd0e07e836599d816,09:14:51,27/02/2024
html-keyboard-response,137,285544,0.0-57.0,,"<div style=""font-size:100px;"">+</div>",,delaylearn,learning,ITI,tiVref3lqWTIKXosPhMii0001fx1,tiVref3lqWTIKXosPhMii0001fx1,,,,,,,,,,,,,,,,,,,1732.0,,,5de8d53cd0e07e836599d816,09:14:51,27/02/2024
html-keyboard-response,138,286952,0.0-58.0-0.0,1406.4000000059605,"<div style=""display: flex; flex-direction: column; align-items: center; margin-top: -40px;""><img src=""images/pattern_7.png"" style=""width: 234px; height: 230px; margin-top: -50px;""><div style=""display: flex; justify-content: space-between; margin-top: 33px;""><img src=""images/choice_trial_10.png"" style=""width: 408px; height: 417px; margin-right: 200px;""><img src=""images/choice_trial_8.png"" style=""width: 408px; height: 417px;""></div></div>",j,delaylearn,learning,trial,tiVref3lqWTIKXosPhMii0001fx1,tiVref3lqWTIKXosPhMii0001fx1,5.0,images/choice_trial_10.png,images/choice_trial_8.png,images/pattern_7.png,j,j,750.0,10.0,8.0,6.0,1.0,25.0,1.0,1.0,8.0,160.0,,,,,,5de8d53cd0e07e836599d816,09:14:51,27/02/2024
html-keyboard-response,139,287955,0.0-58.0-1.0,,"<div style=""display: flex; flex-direction: column; align-items: center; margin-top: -40px;""><img src=""images/pattern_7.png"" style=""width: 234px; height: 230px; margin-top: -50px;""><div style=""display: flex; justify-content: space-between; margin-top: 33px;""><img src=""images/choice_trial_8.png"" style=""width: 408px; height: 417px; margin-left:608px;""></div></div>",,delaylearn,learning,display_response,tiVref3lqWTIKXosPhMii0001fx1,tiVref3lqWTIKXosPhMii0001fx1,,,,,,,,,,,,,,,,,chosen stimuli: images/choice_trial_8.png,,,,,5de8d53cd0e07e836599d816,09:14:51,27/02/2024
html-keyboard-response,140,288717,0.0-58.0-2.0,,,,delaylearn,learning,feedback_duration_window,tiVref3lqWTIKXosPhMii0001fx1,tiVref3lqWTIKXosPhMii0001fx1,,,,,,,,,,,,,,,,,,750.0,,,,5de8d53cd0e07e836599d816,09:14:51,27/02/2024
html-keyboard-response,141,290222,0.0-58.0-3.0,,<div style='margin:auto;width: auto; font-size: 150%'><span style='font-weight: bold; font-size: 100px; color: green;'>+10 points!</span><br><br></div>,,delaylearn,learning,feedback_image_window,tiVref3lqWTIKXosPhMii0001fx1,tiVref3lqWTIKXosPhMii0001fx1,,,,,,,,,,,,,,,,,,,,,,5de8d53cd0e07e836599d816,09:14:51,27/02/2024
html-keyboard-response,142,290733,0.0-59.0-0.0,,,,,,mood_trial_fixation,tiVref3lqWTIKXosPhMii0001fx1,,,,,,,,,,,,,,,,,,,,,,,5de8d53cd0e07e836599d816,09:14:51,27/02/2024
lmdlab-html-vas-response,143,297880,0.0-59.0-1.0,6137.0,How happy are you right now?,0.4799382716049383,delaylearn,learning,mood_trial,tiVref3lqWTIKXosPhMii0001fx1,tiVref3lqWTIKXosPhMii0001fx1,,,,,,,,,,,,,,,,,,,,"['Very unhappy', 'Very happy']",,5de8d53cd0e07e836599d816,09:14:51,27/02/2024
html-keyboard-response,144,299874,0.0-60.0,,"<div style=""font-size:100px;"">+</div>",,delaylearn,learning,ITI,tiVref3lqWTIKXosPhMii0001fx1,tiVref3lqWTIKXosPhMii0001fx1,,,,,,,,,,,,,,,,,,,1978.0,,,5de8d53cd0e07e836599d816,09:14:51,27/02/2024
html-keyboard-response,145,300944,0.0-61.0-0.0,1068.9000000059605,"<div style=""display: flex; flex-direction: column; align-items: center; margin-top: -40px;""><img src=""images/pattern_1.png"" style=""width: 234px; height: 230px; margin-top: -50px;""><div style=""display: flex; justify-content: space-between; margin-top: 33px;""><img src=""images/choice_trial_6.png"" style=""width: 408px; height: 417px; margin-right: 200px;""><img src=""images/choice_trial_15.png"" style=""width: 408px; height: 417px;""></div></div>",j,delaylearn,learning,trial,tiVref3lqWTIKXosPhMii0001fx1,tiVref3lqWTIKXosPhMii0001fx1,5.0,images/choice_trial_6.png,images/choice_trial_15.png,images/pattern_1.png,f,f,7000.0,6.0,15.0,1.0,0.0,26.0,0.0,0.0,15.0,160.0,,,,,,5de8d53cd0e07e836599d816,09:14:51,27/02/2024
html-keyboard-response,146,301954,0.0-61.0-1.0,,"<div style=""display: flex; flex-direction: column; align-items: center; margin-top: -40px;""><img src=""images/pattern_1.png"" style=""width: 234px; height: 230px; margin-top: -50px;""><div style=""display: flex; justify-content: space-between; margin-top: 33px;""><img src=""images/choice_trial_15.png"" style=""width: 408px; height: 417px; margin-left:608px;""></div></div>",,delaylearn,learning,display_response,tiVref3lqWTIKXosPhMii0001fx1,tiVref3lqWTIKXosPhMii0001fx1,,,,,,,,,,,,,,,,,chosen stimuli: images/choice_trial_15.png,,,,,5de8d53cd0e07e836599d816,09:14:51,27/02/2024
html-keyboard-response,147,308965,0.0-61.0-2.0,,,,delaylearn,learning,feedback_duration_window,tiVref3lqWTIKXosPhMii0001fx1,tiVref3lqWTIKXosPhMii0001fx1,,,,,,,,,,,,,,,,,,7000.0,,,,5de8d53cd0e07e836599d816,09:14:51,27/02/2024
html-keyboard-response,148,310468,0.0-61.0-3.0,,<div style='margin:auto;width: auto; font-size: 150%'><span style='font-weight: bold; font-size: 100px; color: red;'>0 points!</span><br><br></div>,,delaylearn,learning,feedback_image_window,tiVref3lqWTIKXosPhMii0001fx1,tiVref3lqWTIKXosPhMii0001fx1,,,,,,,,,,,,,,,,,,,,,,5de8d53cd0e07e836599d816,09:14:51,27/02/2024
html-keyboard-response,149,312175,0.0-62.0,,"<div style=""font-size:100px;"">+</div>",,delaylearn,learning,ITI,tiVref3lqWTIKXosPhMii0001fx1,tiVref3lqWTIKXosPhMii0001fx1,,,,,,,,,,,,,,,,,,,1694.0,,,5de8d53cd0e07e836599d816,09:14:51,27/02/2024
html-keyboard-response,150,313672,0.0-63.0-0.0,1495.7000000178814,"<div style=""display: flex; flex-direction: column; align-items: center; margin-top: -40px;""><img src=""images/pattern_5.png"" style=""width: 234px; height: 230px; margin-top: -50px;""><div style=""display: flex; justify-content: space-between; margin-top: 33px;""><img src=""images/choice_trial_7.png"" style=""width: 408px; height: 417px; margin-right: 200px;""><img src=""images/choice_trial_13.png"" style=""width: 408px; height: 417px;""></div></div>",f,delaylearn,learning,trial,tiVref3lqWTIKXosPhMii0001fx1,tiVref3lqWTIKXosPhMii0001fx1,5.0,images/choice_trial_7.png,images/choice_trial_13.png,images/pattern_5.png,f,f,750.0,7.0,13.0,4.0,0.0,27.0,1.0,1.0,7.0,170.0,,,,,,5de8d53cd0e07e836599d816,09:14:51,27/02/2024
html-keyboard-response,151,314687,0.0-63.0-1.0,,"<div style=""display: flex; flex-direction: column; align-items: center; margin-top: -40px;""><img src=""images/pattern_5.png"" style=""width: 234px; height: 230px; margin-top: -50px;""><div style=""display: flex; justify-content: space-between; margin-top: 33px;""><img src=""images/choice_trial_7.png"" style=""width: 408px; height: 417px; margin-right: 608px;""></div></div>",,delaylearn,learning,display_response,tiVref3lqWTIKXosPhMii0001fx1,tiVref3lqWTIKXosPhMii0001fx1,,,,,,,,,,,,,,,,,chosen stimuli: images/choice_trial_7.png,,,,,5de8d53cd0e07e836599d816,09:14:51,27/02/2024
html-keyboard-response,152,315450,0.0-63.0-2.0,,,,delaylearn,learning,feedback_duration_window,tiVref3lqWTIKXosPhMii0001fx1,tiVref3lqWTIKXosPhMii0001fx1,,,,,,,,,,,,,,,,,,750.0,,,,5de8d53cd0e07e836599d816,09:14:51,27/02/2024
html-keyboard-response,153,316956,0.0-63.0-3.0,,<div style='margin:auto;width: auto; font-size: 150%'><span style='font-weight: bold; font-size: 100px; color: green;'>+10 points!</span><br><br></div>,,delaylearn,learning,feedback_image_window,tiVref3lqWTIKXosPhMii0001fx1,tiVref3lqWTIKXosPhMii0001fx1,,,,,,,,,,,,,,,,,,,,,,5de8d53cd0e07e836599d816,09:14:51,27/02/2024
html-keyboard-response,154,319420,0.0-64.0,,"<div style=""font-size:100px;"">+</div>",,delaylearn,learning,ITI,tiVref3lqWTIKXosPhMii0001fx1,tiVref3lqWTIKXosPhMii0001fx1,,,,,,,,,,,,,,,,,,,2452.0,,,5de8d53cd0e07e836599d816,09:14:51,27/02/2024
html-keyboard-response,155,322119,0.0-65.0-0.0,2698.399999976158,"<div style=""display: flex; flex-direction: column; align-items: center; margin-top: -40px;""><img src=""images/pattern_6.png"" style=""width: 234px; height: 230px; margin-top: -50px;""><div style=""display: flex; justify-content: space-between; margin-top: 33px;""><img src=""images/choice_trial_9.png"" style=""width: 408px; height: 417px; margin-right: 200px;""><img src=""images/choice_trial_14.png"" style=""width: 408px; height: 417px;""></div></div>",j,delaylearn,learning,trial,tiVref3lqWTIKXosPhMii0001fx1,tiVref3lqWTIKXosPhMii0001fx1,5.0,images/choice_trial_9.png,images/choice_trial_14.png,images/pattern_6.png,j,j,750.0,9.0,14.0,5.0,1.0,28.0,1.0,1.0,14.0,180.0,,,,,,5de8d53cd0e07e836599d816,09:14:51,27/02/2024
html-keyboard-response,156,323130,0.0-65.0-1.0,,"<div style=""display: flex; flex-direction: column; align-items: center; margin-top: -40px;""><img src=""images/pattern_6.png"" style=""width: 234px; height: 230px; margin-top: -50px;""><div style=""display: flex; justify-content: space-between; margin-top: 33px;""><img src=""images/choice_trial_14.png"" style=""width: 408px; height: 417px; margin-left:608px;""></div></div>",,delaylearn,learning,display_response,tiVref3lqWTIKXosPhMii0001fx1,tiVref3lqWTIKXosPhMii0001fx1,,,,,,,,,,,,,,,,,chosen stimuli: images/choice_trial_14.png,,,,,5de8d53cd0e07e836599d816,09:14:51,27/02/2024
html-keyboard-response,157,323890,0.0-65.0-2.0,,,,delaylearn,learning,feedback_duration_window,tiVref3lqWTIKXosPhMii0001fx1,tiVref3lqWTIKXosPhMii0001fx1,,,,,,,,,,,,,,,,,,750.0,,,,5de8d53cd0e07e836599d816,09:14:51,27/02/2024
html-keyboard-response,158,325396,0.0-65.0-3.0,,<div style='margin:auto;width: auto; font-size: 150%'><span style='font-weight: bold; font-size: 100px; color: green;'>+10 points!</span><br><br></div>,,delaylearn,learning,feedback_image_window,tiVref3lqWTIKXosPhMii0001fx1,tiVref3lqWTIKXosPhMii0001fx1,,,,,,,,,,,,,,,,,,,,,,5de8d53cd0e07e836599d816,09:14:51,27/02/2024
html-keyboard-response,159,325908,0.0-66.0-0.0,,,,,,mood_trial_fixation,tiVref3lqWTIKXosPhMii0001fx1,,,,,,,,,,,,,,,,,,,,,,,5de8d53cd0e07e836599d816,09:14:51,27/02/2024
lmdlab-html-vas-response,160,329795,0.0-66.0-1.0,2877.0,How happy are you right now?,0.4783950617283951,delaylearn,learning,mood_trial,tiVref3lqWTIKXosPhMii0001fx1,tiVref3lqWTIKXosPhMii0001fx1,,,,,,,,,,,,,,,,,,,,"['Very unhappy', 'Very happy']",,5de8d53cd0e07e836599d816,09:14:51,27/02/2024
html-keyboard-response,161,331338,0.0-67.0,,"<div style=""font-size:100px;"">+</div>",,delaylearn,learning,ITI,tiVref3lqWTIKXosPhMii0001fx1,tiVref3lqWTIKXosPhMii0001fx1,,,,,,,,,,,,,,,,,,,1528.0,,,5de8d53cd0e07e836599d816,09:14:51,27/02/2024
html-keyboard-response,162,332976,0.0-68.0-0.0,1636.8999999761581,"<div style=""display: flex; flex-direction: column; align-items: center; margin-top: -40px;""><img src=""images/pattern_4.png"" style=""width: 234px; height: 230px; margin-top: -50px;""><div style=""display: flex; justify-content: space-between; margin-top: 33px;""><img src=""images/choice_trial_4.png"" style=""width: 408px; height: 417px; margin-right: 200px;""><img src=""images/choice_trial_11.png"" style=""width: 408px; height: 417px;""></div></div>",j,delaylearn,learning,trial,tiVref3lqWTIKXosPhMii0001fx1,tiVref3lqWTIKXosPhMii0001fx1,5.0,images/choice_trial_4.png,images/choice_trial_11.png,images/pattern_4.png,j,j,7000.0,4.0,11.0,3.0,1.0,29.0,1.0,1.0,11.0,190.0,,,,,,5de8d53cd0e07e836599d816,09:14:51,27/02/2024
html-keyboard-response,163,333982,0.0-68.0-1.0,,"<div style=""display: flex; flex-direction: column; align-items: center; margin-top: -40px;""><img src=""images/pattern_4.png"" style=""width: 234px; height: 230px; margin-top: -50px;""><div style=""display: flex; justify-content: space-between; margin-top: 33px;""><img src=""images/choice_trial_11.png"" style=""width: 408px; height: 417px; margin-left:608px;""></div></div>",,delaylearn,learning,display_response,tiVref3lqWTIKXosPhMii0001fx1,tiVref3lqWTIKXosPhMii0001fx1,,,,,,,,,,,,,,,,,chosen stimuli: images/choice_trial_11.png,,,,,5de8d53cd0e07e836599d816,09:14:51,27/02/2024
html-keyboard-response,164,340984,0.0-68.0-2.0,,,,delaylearn,learning,feedback_duration_window,tiVref3lqWTIKXosPhMii0001fx1,tiVref3lqWTIKXosPhMii0001fx1,,,,,,,,,,,,,,,,,,7000.0,,,,5de8d53cd0e07e836599d816,09:14:51,27/02/2024
html-keyboard-response,165,342490,0.0-68.0-3.0,,<div style='margin:auto;width: auto; font-size: 150%'><span style='font-weight: bold; font-size: 100px; color: green;'>+10 points!</span><br><br></div>,,delaylearn,learning,feedback_image_window,tiVref3lqWTIKXosPhMii0001fx1,tiVref3lqWTIKXosPhMii0001fx1,,,,,,,,,,,,,,,,,,,,,,5de8d53cd0e07e836599d816,09:14:51,27/02/2024
html-keyboard-response,166,344243,0.0-69.0,,"<div style=""font-size:100px;"">+</div>",,delaylearn,learning,ITI,tiVref3lqWTIKXosPhMii0001fx1,tiVref3lqWTIKXosPhMii0001fx1,,,,,,,,,,,,,,,,,,,1744.0,,,5de8d53cd0e07e836599d816,09:14:51,27/02/2024
html-keyboard-response,167,346527,0.0-70.0-0.0,2283.0999999940395,"<div style=""display: flex; flex-direction: column; align-items: center; margin-top: -40px;""><img src=""images/pattern_3.png"" style=""width: 234px; height: 230px; margin-top: -50px;""><div style=""display: flex; justify-content: space-between; margin-top: 33px;""><img src=""images/choice_trial_2.png"" style=""width: 408px; height: 417px; margin-right: 200px;""><img src=""images/choice_trial_16.png"" style=""width: 408px; height: 417px;""></div></div>",f,delaylearn,learning,trial,tiVref3lqWTIKXosPhMii0001fx1,tiVref3lqWTIKXosPhMii0001fx1,5.0,images/choice_trial_2.png,images/choice_trial_16.png,images/pattern_3.png,j,j,7000.0,2.0,16.0,2.0,1.0,30.0,0.0,0.0,2.0,190.0,,,,,,5de8d53cd0e07e836599d816,09:14:51,27/02/2024
html-keyboard-response,168,347539,0.0-70.0-1.0,,"<div style=""display: flex; flex-direction: column; align-items: center; margin-top: -40px;""><img src=""images/pattern_3.png"" style=""width: 234px; height: 230px; margin-top: -50px;""><div style=""display: flex; justify-content: space-between; margin-top: 33px;""><img src=""images/choice_trial_2.png"" style=""width: 408px; height: 417px; margin-right: 608px;""></div></div>",,delaylearn,learning,display_response,tiVref3lqWTIKXosPhMii0001fx1,tiVref3lqWTIKXosPhMii0001fx1,,,,,,,,,,,,,,,,,chosen stimuli: images/choice_trial_2.png,,,,,5de8d53cd0e07e836599d816,09:14:51,27/02/2024
html-keyboard-response,169,354541,0.0-70.0-2.0,,,,delaylearn,learning,feedback_duration_window,tiVref3lqWTIKXosPhMii0001fx1,tiVref3lqWTIKXosPhMii0001fx1,,,,,,,,,,,,,,,,,,7000.0,,,,5de8d53cd0e07e836599d816,09:14:51,27/02/2024
html-keyboard-response,170,356043,0.0-70.0-3.0,,<div style='margin:auto;width: auto; font-size: 150%'><span style='font-weight: bold; font-size: 100px; color: red;'>0 points!</span><br><br></div>,,delaylearn,learning,feedback_image_window,tiVref3lqWTIKXosPhMii0001fx1,tiVref3lqWTIKXosPhMii0001fx1,,,,,,,,,,,,,,,,,,,,,,5de8d53cd0e07e836599d816,09:14:51,27/02/2024
html-keyboard-response,171,358207,0.0-71.0,,"<div style=""font-size:100px;"">+</div>",,delaylearn,learning,ITI,tiVref3lqWTIKXosPhMii0001fx1,tiVref3lqWTIKXosPhMii0001fx1,,,,,,,,,,,,,,,,,,,2151.0,,,5de8d53cd0e07e836599d816,09:14:51,27/02/2024
html-keyboard-response,172,359743,0.0-72.0-0.0,1535.0999999940395,"<div style=""display: flex; flex-direction: column; align-items: center; margin-top: -40px;""><img src=""images/pattern_5.png"" style=""width: 234px; height: 230px; margin-top: -50px;""><div style=""display: flex; justify-content: space-between; margin-top: 33px;""><img src=""images/choice_trial_7.png"" style=""width: 408px; height: 417px; margin-right: 200px;""><img src=""images/choice_trial_13.png"" style=""width: 408px; height: 417px;""></div></div>",f,delaylearn,learning,trial,tiVref3lqWTIKXosPhMii0001fx1,tiVref3lqWTIKXosPhMii0001fx1,5.0,images/choice_trial_7.png,images/choice_trial_13.png,images/pattern_5.png,j,f,750.0,7.0,13.0,4.0,0.0,31.0,1.0,0.0,7.0,190.0,,,,,,5de8d53cd0e07e836599d816,09:14:51,27/02/2024
html-keyboard-response,173,360748,0.0-72.0-1.0,,"<div style=""display: flex; flex-direction: column; align-items: center; margin-top: -40px;""><img src=""images/pattern_5.png"" style=""width: 234px; height: 230px; margin-top: -50px;""><div style=""display: flex; justify-content: space-between; margin-top: 33px;""><img src=""images/choice_trial_7.png"" style=""width: 408px; height: 417px; margin-right: 608px;""></div></div>",,delaylearn,learning,display_response,tiVref3lqWTIKXosPhMii0001fx1,tiVref3lqWTIKXosPhMii0001fx1,,,,,,,,,,,,,,,,,chosen stimuli: images/choice_trial_7.png,,,,,5de8d53cd0e07e836599d816,09:14:51,27/02/2024
html-keyboard-response,174,361510,0.0-72.0-2.0,,,,delaylearn,learning,feedback_duration_window,tiVref3lqWTIKXosPhMii0001fx1,tiVref3lqWTIKXosPhMii0001fx1,,,,,,,,,,,,,,,,,,750.0,,,,5de8d53cd0e07e836599d816,09:14:51,27/02/2024
html-keyboard-response,175,363014,0.0-72.0-3.0,,<div style='margin:auto;width: auto; font-size: 150%'><span style='font-weight: bold; font-size: 100px; color: red;'>0 points!</span><br><br></div>,,delaylearn,learning,feedback_image_window,tiVref3lqWTIKXosPhMii0001fx1,tiVref3lqWTIKXosPhMii0001fx1,,,,,,,,,,,,,,,,,,,,,,5de8d53cd0e07e836599d816,09:14:51,27/02/2024
html-keyboard-response,176,365202,0.0-73.0,,"<div style=""font-size:100px;"">+</div>",,delaylearn,learning,ITI,tiVref3lqWTIKXosPhMii0001fx1,tiVref3lqWTIKXosPhMii0001fx1,,,,,,,,,,,,,,,,,,,2179.0,,,5de8d53cd0e07e836599d816,09:14:51,27/02/2024
html-keyboard-response,177,366559,0.0-74.0-0.0,1356.1000000238419,"<div style=""display: flex; flex-direction: column; align-items: center; margin-top: -40px;""><img src=""images/pattern_1.png"" style=""width: 234px; height: 230px; margin-top: -50px;""><div style=""display: flex; justify-content: space-between; margin-top: 33px;""><img src=""images/choice_trial_6.png"" style=""width: 408px; height: 417px; margin-right: 200px;""><img src=""images/choice_trial_15.png"" style=""width: 408px; height: 417px;""></div></div>",j,delaylearn,learning,trial,tiVref3lqWTIKXosPhMii0001fx1,tiVref3lqWTIKXosPhMii0001fx1,5.0,images/choice_trial_6.png,images/choice_trial_15.png,images/pattern_1.png,f,f,7000.0,6.0,15.0,1.0,0.0,32.0,0.0,0.0,15.0,190.0,,,,,,5de8d53cd0e07e836599d816,09:14:51,27/02/2024
html-keyboard-response,178,367568,0.0-74.0-1.0,,"<div style=""display: flex; flex-direction: column; align-items: center; margin-top: -40px;""><img src=""images/pattern_1.png"" style=""width: 234px; height: 230px; margin-top: -50px;""><div style=""display: flex; justify-content: space-between; margin-top: 33px;""><img src=""images/choice_trial_15.png"" style=""width: 408px; height: 417px; margin-left:608px;""></div></div>",,delaylearn,learning,display_response,tiVref3lqWTIKXosPhMii0001fx1,tiVref3lqWTIKXosPhMii0001fx1,,,,,,,,,,,,,,,,,chosen stimuli: images/choice_trial_15.png,,,,,5de8d53cd0e07e836599d816,09:14:51,27/02/2024
html-keyboard-response,179,374579,0.0-74.0-2.0,,,,delaylearn,learning,feedback_duration_window,tiVref3lqWTIKXosPhMii0001fx1,tiVref3lqWTIKXosPhMii0001fx1,,,,,,,,,,,,,,,,,,7000.0,,,,5de8d53cd0e07e836599d816,09:14:51,27/02/2024
html-keyboard-response,180,376089,0.0-74.0-3.0,,<div style='margin:auto;width: auto; font-size: 150%'><span style='font-weight: bold; font-size: 100px; color: red;'>0 points!</span><br><br></div>,,delaylearn,learning,feedback_image_window,tiVref3lqWTIKXosPhMii0001fx1,tiVref3lqWTIKXosPhMii0001fx1,,,,,,,,,,,,,,,,,,,,,,5de8d53cd0e07e836599d816,09:14:51,27/02/2024
html-keyboard-response,181,376599,0.0-75.0-0.0,,,,,,mood_trial_fixation,tiVref3lqWTIKXosPhMii0001fx1,,,,,,,,,,,,,,,,,,,,,,,5de8d53cd0e07e836599d816,09:14:51,27/02/2024
lmdlab-html-vas-response,182,382585,0.0-75.0-1.0,4972.0,How happy are you right now?,0.4012345679012346,delaylearn,learning,mood_trial,tiVref3lqWTIKXosPhMii0001fx1,tiVref3lqWTIKXosPhMii0001fx1,,,,,,,,,,,,,,,,,,,,"['Very unhappy', 'Very happy']",,5de8d53cd0e07e836599d816,09:14:51,27/02/2024
html-keyboard-response,183,384447,0.0-76.0,,"<div style=""font-size:100px;"">+</div>",,delaylearn,learning,ITI,tiVref3lqWTIKXosPhMii0001fx1,tiVref3lqWTIKXosPhMii0001fx1,,,,,,,,,,,,,,,,,,,1846.0,,,5de8d53cd0e07e836599d816,09:14:51,27/02/2024
html-keyboard-response,184,386055,0.0-77.0-0.0,1607.0,"<div style=""display: flex; flex-direction: column; align-items: center; margin-top: -40px;""><img src=""images/pattern_6.png"" style=""width: 234px; height: 230px; margin-top: -50px;""><div style=""display: flex; justify-content: space-between; margin-top: 33px;""><img src=""images/choice_trial_14.png"" style=""width: 408px; height: 417px; margin-right: 200px;""><img src=""images/choice_trial_9.png"" style=""width: 408px; height: 417px;""></div></div>",f,delaylearn,learning,trial,tiVref3lqWTIKXosPhMii0001fx1,tiVref3lqWTIKXosPhMii0001fx1,5.0,images/choice_trial_14.png,images/choice_trial_9.png,images/pattern_6.png,j,f,750.0,14.0,9.0,5.0,0.0,33.0,1.0,0.0,14.0,190.0,,,,,,5de8d53cd0e07e836599d816,09:14:51,27/02/2024
html-keyboard-response,185,387066,0.0-77.0-1.0,,"<div style=""display: flex; flex-direction: column; align-items: center; margin-top: -40px;""><img src=""images/pattern_6.png"" style=""width: 234px; height: 230px; margin-top: -50px;""><div style=""display: flex; justify-content: space-between; margin-top: 33px;""><img src=""images/choice_trial_14.png"" style=""width: 408px; height: 417px; margin-right: 608px;""></div></div>",,delaylearn,learning,display_response,tiVref3lqWTIKXosPhMii0001fx1,tiVref3lqWTIKXosPhMii0001fx1,,,,,,,,,,,,,,,,,chosen stimuli: images/choice_trial_14.png,,,,,5de8d53cd0e07e836599d816,09:14:51,27/02/2024
html-keyboard-response,186,387826,0.0-77.0-2.0,,,,delaylearn,learning,feedback_duration_window,tiVref3lqWTIKXosPhMii0001fx1,tiVref3lqWTIKXosPhMii0001fx1,,,,,,,,,,,,,,,,,,750.0,,,,5de8d53cd0e07e836599d816,09:14:51,27/02/2024
html-keyboard-response,187,389333,0.0-77.0-3.0,,<div style='margin:auto;width: auto; font-size: 150%'><span style='font-weight: bold; font-size: 100px; color: red;'>0 points!</span><br><br></div>,,delaylearn,learning,feedback_image_window,tiVref3lqWTIKXosPhMii0001fx1,tiVref3lqWTIKXosPhMii0001fx1,,,,,,,,,,,,,,,,,,,,,,5de8d53cd0e07e836599d816,09:14:51,27/02/2024
html-keyboard-response,188,391105,0.0-78.0,,"<div style=""font-size:100px;"">+</div>",,delaylearn,learning,ITI,tiVref3lqWTIKXosPhMii0001fx1,tiVref3lqWTIKXosPhMii0001fx1,,,,,,,,,,,,,,,,,,,1761.0,,,5de8d53cd0e07e836599d816,09:14:51,27/02/2024
html-keyboard-response,189,392687,0.0-79.0-0.0,1580.699999988079,"<div style=""display: flex; flex-direction: column; align-items: center; margin-top: -40px;""><img src=""images/pattern_3.png"" style=""width: 234px; height: 230px; margin-top: -50px;""><div style=""display: flex; justify-content: space-between; margin-top: 33px;""><img src=""images/choice_trial_2.png"" style=""width: 408px; height: 417px; margin-right: 200px;""><img src=""images/choice_trial_16.png"" style=""width: 408px; height: 417px;""></div></div>",j,delaylearn,learning,trial,tiVref3lqWTIKXosPhMii0001fx1,tiVref3lqWTIKXosPhMii0001fx1,5.0,images/choice_trial_2.png,images/choice_trial_16.png,images/pattern_3.png,j,j,7000.0,2.0,16.0,2.0,1.0,34.0,1.0,1.0,16.0,200.0,,,,,,5de8d53cd0e07e836599d816,09:14:51,27/02/2024
html-keyboard-response,190,393698,0.0-79.0-1.0,,"<div style=""display: flex; flex-direction: column; align-items: center; margin-top: -40px;""><img src=""images/pattern_3.png"" style=""width: 234px; height: 230px; margin-top: -50px;""><div style=""display: flex; justify-content: space-between; margin-top: 33px;""><img src=""images/choice_trial_16.png"" style=""width: 408px; height: 417px; margin-left:608px;""></div></div>",,delaylearn,learning,display_response,tiVref3lqWTIKXosPhMii0001fx1,tiVref3lqWTIKXosPhMii0001fx1,,,,,,,,,,,,,,,,,chosen stimuli: images/choice_trial_16.png,,,,,5de8d53cd0e07e836599d816,09:14:51,27/02/2024
html-keyboard-response,191,400710,0.0-79.0-2.0,,,,delaylearn,learning,feedback_duration_window,tiVref3lqWTIKXosPhMii0001fx1,tiVref3lqWTIKXosPhMii0001fx1,,,,,,,,,,,,,,,,,,7000.0,,,,5de8d53cd0e07e836599d816,09:14:51,27/02/2024
html-keyboard-response,192,402216,0.0-79.0-3.0,,<div style='margin:auto;width: auto; font-size: 150%'><span style='font-weight: bold; font-size: 100px; color: green;'>+10 points!</span><br><br></div>,,delaylearn,learning,feedback_image_window,tiVref3lqWTIKXosPhMii0001fx1,tiVref3lqWTIKXosPhMii0001fx1,,,,,,,,,,,,,,,,,,,,,,5de8d53cd0e07e836599d816,09:14:51,27/02/2024
html-keyboard-response,193,404027,0.0-80.0,,"<div style=""font-size:100px;"">+</div>",,delaylearn,learning,ITI,tiVref3lqWTIKXosPhMii0001fx1,tiVref3lqWTIKXosPhMii0001fx1,,,,,,,,,,,,,,,,,,,1810.0,,,5de8d53cd0e07e836599d816,09:14:51,27/02/2024
html-keyboard-response,194,405175,0.0-81.0-0.0,1146.699999988079,"<div style=""display: flex; flex-direction: column; align-items: center; margin-top: -40px;""><img src=""images/pattern_4.png"" style=""width: 234px; height: 230px; margin-top: -50px;""><div style=""display: flex; justify-content: space-between; margin-top: 33px;""><img src=""images/choice_trial_4.png"" style=""width: 408px; height: 417px; margin-right: 200px;""><img src=""images/choice_trial_11.png"" style=""width: 408px; height: 417px;""></div></div>",j,delaylearn,learning,trial,tiVref3lqWTIKXosPhMii0001fx1,tiVref3lqWTIKXosPhMii0001fx1,5.0,images/choice_trial_4.png,images/choice_trial_11.png,images/pattern_4.png,f,j,7000.0,4.0,11.0,3.0,1.0,35.0,1.0,0.0,11.0,200.0,,,,,,5de8d53cd0e07e836599d816,09:14:51,27/02/2024
html-keyboard-response,195,406187,0.0-81.0-1.0,,"<div style=""display: flex; flex-direction: column; align-items: center; margin-top: -40px;""><img src=""images/pattern_4.png"" style=""width: 234px; height: 230px; margin-top: -50px;""><div style=""display: flex; justify-content: space-between; margin-top: 33px;""><img src=""images/choice_trial_11.png"" style=""width: 408px; height: 417px; margin-left:608px;""></div></div>",,delaylearn,learning,display_response,tiVref3lqWTIKXosPhMii0001fx1,tiVref3lqWTIKXosPhMii0001fx1,,,,,,,,,,,,,,,,,chosen stimuli: images/choice_trial_11.png,,,,,5de8d53cd0e07e836599d816,09:14:51,27/02/2024
html-keyboard-response,196,413203,0.0-81.0-2.0,,,,delaylearn,learning,feedback_duration_window,tiVref3lqWTIKXosPhMii0001fx1,tiVref3lqWTIKXosPhMii0001fx1,,,,,,,,,,,,,,,,,,7000.0,,,,5de8d53cd0e07e836599d816,09:14:51,27/02/2024
html-keyboard-response,197,414708,0.0-81.0-3.0,,<div style='margin:auto;width: auto; font-size: 150%'><span style='font-weight: bold; font-size: 100px; color: red;'>0 points!</span><br><br></div>,,delaylearn,learning,feedback_image_window,tiVref3lqWTIKXosPhMii0001fx1,tiVref3lqWTIKXosPhMii0001fx1,,,,,,,,,,,,,,,,,,,,,,5de8d53cd0e07e836599d816,09:14:51,27/02/2024
html-keyboard-response,198,416700,0.0-82.0,,"<div style=""font-size:100px;"">+</div>",,delaylearn,learning,ITI,tiVref3lqWTIKXosPhMii0001fx1,tiVref3lqWTIKXosPhMii0001fx1,,,,,,,,,,,,,,,,,,,1978.0,,,5de8d53cd0e07e836599d816,09:14:51,27/02/2024
html-keyboard-response,199,418183,0.0-83.0-0.0,1482.0,"<div style=""display: flex; flex-direction: column; align-items: center; margin-top: -40px;""><img src=""images/pattern_7.png"" style=""width: 234px; height: 230px; margin-top: -50px;""><div style=""display: flex; justify-content: space-between; margin-top: 33px;""><img src=""images/choice_trial_8.png"" style=""width: 408px; height: 417px; margin-right: 200px;""><img src=""images/choice_trial_10.png"" style=""width: 408px; height: 417px;""></div></div>",f,delaylearn,learning,trial,tiVref3lqWTIKXosPhMii0001fx1,tiVref3lqWTIKXosPhMii0001fx1,5.0,images/choice_trial_8.png,images/choice_trial_10.png,images/pattern_7.png,f,f,750.0,8.0,10.0,6.0,0.0,36.0,1.0,1.0,8.0,210.0,,,,,,5de8d53cd0e07e836599d816,09:14:51,27/02/2024
html-keyboard-response,200,419188,0.0-83.0-1.0,,"<div style=""display: flex; flex-direction: column; align-items: center; margin-top: -40px;""><img src=""images/pattern_7.png"" style=""width: 234px; height: 230px; margin-top: -50px;""><div style=""display: flex; justify-content: space-between; margin-top: 33px;""><img src=""images/choice_trial_8.png"" style=""width: 408px; height: 417px; margin-right: 608px;""></div></div>",,delaylearn,learning,display_response,tiVref3lqWTIKXosPhMii0001fx1,tiVref3lqWTIKXosPhMii0001fx1,,,,,,,,,,,,,,,,,chosen stimuli: images/choice_trial_8.png,,,,,5de8d53cd0e07e836599d816,09:14:51,27/02/2024
html-keyboard-response,201,419948,0.0-83.0-2.0,,,,delaylearn,learning,feedback_duration_window,tiVref3lqWTIKXosPhMii0001fx1,tiVref3lqWTIKXosPhMii0001fx1,,,,,,,,,,,,,,,,,,750.0,,,,5de8d53cd0e07e836599d816,09:14:51,27/02/2024
html-keyboard-response,202,421454,0.0-83.0-3.0,,<div style='margin:auto;width: auto; font-size: 150%'><span style='font-weight: bold; font-size: 100px; color: green;'>+10 points!</span><br><br></div>,,delaylearn,learning,feedback_image_window,tiVref3lqWTIKXosPhMii0001fx1,tiVref3lqWTIKXosPhMii0001fx1,,,,,,,,,,,,,,,,,,,,,,5de8d53cd0e07e836599d816,09:14:51,27/02/2024
html-keyboard-response,203,423702,0.0-84.0,,"<div style=""font-size:100px;"">+</div>",,delaylearn,learning,ITI,tiVref3lqWTIKXosPhMii0001fx1,tiVref3lqWTIKXosPhMii0001fx1,,,,,,,,,,,,,,,,,,,2232.0,,,5de8d53cd0e07e836599d816,09:14:51,27/02/2024
html-keyboard-response,204,424830,0.0-85.0-0.0,1126.800000011921,"<div style=""display: flex; flex-direction: column; align-items: center; margin-top: -40px;""><img src=""images/pattern_1.png"" style=""width: 234px; height: 230px; margin-top: -50px;""><div style=""display: flex; justify-content: space-between; margin-top: 33px;""><img src=""images/choice_trial_6.png"" style=""width: 408px; height: 417px; margin-right: 200px;""><img src=""images/choice_trial_15.png"" style=""width: 408px; height: 417px;""></div></div>",f,delaylearn,learning,trial,tiVref3lqWTIKXosPhMii0001fx1,tiVref3lqWTIKXosPhMii0001fx1,5.0,images/choice_trial_6.png,images/choice_trial_15.png,images/pattern_1.png,f,f,7000.0,6.0,15.0,1.0,0.0,37.0,1.0,1.0,6.0,220.0,,,,,,5de8d53cd0e07e836599d816,09:14:51,27/02/2024
html-keyboard-response,205,425832,0.0-85.0-1.0,,"<div style=""display: flex; flex-direction: column; align-items: center; margin-top: -40px;""><img src=""images/pattern_1.png"" style=""width: 234px; height: 230px; margin-top: -50px;""><div style=""display: flex; justify-content: space-between; margin-top: 33px;""><img src=""images/choice_trial_6.png"" style=""width: 408px; height: 417px; margin-right: 608px;""></div></div>",,delaylearn,learning,display_response,tiVref3lqWTIKXosPhMii0001fx1,tiVref3lqWTIKXosPhMii0001fx1,,,,,,,,,,,,,,,,,chosen stimuli: images/choice_trial_6.png,,,,,5de8d53cd0e07e836599d816,09:14:51,27/02/2024
html-keyboard-response,206,432834,0.0-85.0-2.0,,,,delaylearn,learning,feedback_duration_window,tiVref3lqWTIKXosPhMii0001fx1,tiVref3lqWTIKXosPhMii0001fx1,,,,,,,,,,,,,,,,,,7000.0,,,,5de8d53cd0e07e836599d816,09:14:51,27/02/2024
html-keyboard-response,207,434337,0.0-85.0-3.0,,<div style='margin:auto;width: auto; font-size: 150%'><span style='font-weight: bold; font-size: 100px; color: green;'>+10 points!</span><br><br></div>,,delaylearn,learning,feedback_image_window,tiVref3lqWTIKXosPhMii0001fx1,tiVref3lqWTIKXosPhMii0001fx1,,,,,,,,,,,,,,,,,,,,,,5de8d53cd0e07e836599d816,09:14:51,27/02/2024
html-keyboard-response,208,434848,0.0-86.0-0.0,,,,,,mood_trial_fixation,tiVref3lqWTIKXosPhMii0001fx1,,,,,,,,,,,,,,,,,,,,,,,5de8d53cd0e07e836599d816,09:14:51,27/02/2024
lmdlab-html-vas-response,209,439016,0.0-86.0-1.0,3155.0,How happy are you right now?,0.49382716049382713,delaylearn,learning,mood_trial,tiVref3lqWTIKXosPhMii0001fx1,tiVref3lqWTIKXosPhMii0001fx1,,,,,,,,,,,,,,,,,,,,"['Very unhappy', 'Very happy']",,5de8d53cd0e07e836599d816,09:14:51,27/02/2024
html-keyboard-response,210,441436,0.0-87.0,,"<div style=""font-size:100px;"">+</div>",,delaylearn,learning,ITI,tiVref3lqWTIKXosPhMii0001fx1,tiVref3lqWTIKXosPhMii0001fx1,,,,,,,,,,,,,,,,,,,2408.0,,,5de8d53cd0e07e836599d816,09:14:51,27/02/2024
html-keyboard-response,211,442246,0.0-88.0-0.0,809.4000000059605,"<div style=""display: flex; flex-direction: column; align-items: center; margin-top: -40px;""><img src=""images/pattern_3.png"" style=""width: 234px; height: 230px; margin-top: -50px;""><div style=""display: flex; justify-content: space-between; margin-top: 33px;""><img src=""images/choice_trial_16.png"" style=""width: 408px; height: 417px; margin-right: 200px;""><img src=""images/choice_trial_2.png"" style=""width: 408px; height: 417px;""></div></div>",f,delaylearn,learning,trial,tiVref3lqWTIKXosPhMii0001fx1,tiVref3lqWTIKXosPhMii0001fx1,5.0,images/choice_trial_16.png,images/choice_trial_2.png,images/pattern_3.png,j,f,7000.0,16.0,2.0,2.0,0.0,38.0,1.0,0.0,16.0,220.0,,,,,,5de8d53cd0e07e836599d816,09:14:51,27/02/2024
html-keyboard-response,212,443253,0.0-88.0-1.0,,"<div style=""display: flex; flex-direction: column; align-items: center; margin-top: -40px;""><img src=""images/pattern_3.png"" style=""width: 234px; height: 230px; margin-top: -50px;""><div style=""display: flex; justify-content: space-between; margin-top: 33px;""><img src=""images/choice_trial_16.png"" style=""width: 408px; height: 417px; margin-right: 608px;""></div></div>",,delaylearn,learning,display_response,tiVref3lqWTIKXosPhMii0001fx1,tiVref3lqWTIKXosPhMii0001fx1,,,,,,,,,,,,,,,,,chosen stimuli: images/choice_trial_16.png,,,,,5de8d53cd0e07e836599d816,09:14:51,27/02/2024
html-keyboard-response,213,450255,0.0-88.0-2.0,,,,delaylearn,learning,feedback_duration_window,tiVref3lqWTIKXosPhMii0001fx1,tiVref3lqWTIKXosPhMii0001fx1,,,,,,,,,,,,,,,,,,7000.0,,,,5de8d53cd0e07e836599d816,09:14:51,27/02/2024
html-keyboard-response,214,451758,0.0-88.0-3.0,,<div style='margin:auto;width: auto; font-size: 150%'><span style='font-weight: bold; font-size: 100px; color: red;'>0 points!</span><br><br></div>,,delaylearn,learning,feedback_image_window,tiVref3lqWTIKXosPhMii0001fx1,tiVref3lqWTIKXosPhMii0001fx1,,,,,,,,,,,,,,,,,,,,,,5de8d53cd0e07e836599d816,09:14:51,27/02/2024
html-keyboard-response,215,453396,0.0-89.0,,"<div style=""font-size:100px;"">+</div>",,delaylearn,learning,ITI,tiVref3lqWTIKXosPhMii0001fx1,tiVref3lqWTIKXosPhMii0001fx1,,,,,,,,,,,,,,,,,,,1636.0,,,5de8d53cd0e07e836599d816,09:14:51,27/02/2024
html-keyboard-response,216,454783,0.0-90.0-0.0,1385.2999999821186,"<div style=""display: flex; flex-direction: column; align-items: center; margin-top: -40px;""><img src=""images/pattern_7.png"" style=""width: 234px; height: 230px; margin-top: -50px;""><div style=""display: flex; justify-content: space-between; margin-top: 33px;""><img src=""images/choice_trial_10.png"" style=""width: 408px; height: 417px; margin-right: 200px;""><img src=""images/choice_trial_8.png"" style=""width: 408px; height: 417px;""></div></div>",j,delaylearn,learning,trial,tiVref3lqWTIKXosPhMii0001fx1,tiVref3lqWTIKXosPhMii0001fx1,5.0,images/choice_trial_10.png,images/choice_trial_8.png,images/pattern_7.png,j,j,750.0,10.0,8.0,6.0,1.0,39.0,1.0,1.0,8.0,230.0,,,,,,5de8d53cd0e07e836599d816,09:14:51,27/02/2024
html-keyboard-response,217,455798,0.0-90.0-1.0,,"<div style=""display: flex; flex-direction: column; align-items: center; margin-top: -40px;""><img src=""images/pattern_7.png"" style=""width: 234px; height: 230px; margin-top: -50px;""><div style=""display: flex; justify-content: space-between; margin-top: 33px;""><img src=""images/choice_trial_8.png"" style=""width: 408px; height: 417px; margin-left:608px;""></div></div>",,delaylearn,learning,display_response,tiVref3lqWTIKXosPhMii0001fx1,tiVref3lqWTIKXosPhMii0001fx1,,,,,,,,,,,,,,,,,chosen stimuli: images/choice_trial_8.png,,,,,5de8d53cd0e07e836599d816,09:14:51,27/02/2024
html-keyboard-response,218,456558,0.0-90.0-2.0,,,,delaylearn,learning,feedback_duration_window,tiVref3lqWTIKXosPhMii0001fx1,tiVref3lqWTIKXosPhMii0001fx1,,,,,,,,,,,,,,,,,,750.0,,,,5de8d53cd0e07e836599d816,09:14:51,27/02/2024
html-keyboard-response,219,458067,0.0-90.0-3.0,,<div style='margin:auto;width: auto; font-size: 150%'><span style='font-weight: bold; font-size: 100px; color: green;'>+10 points!</span><br><br></div>,,delaylearn,learning,feedback_image_window,tiVref3lqWTIKXosPhMii0001fx1,tiVref3lqWTIKXosPhMii0001fx1,,,,,,,,,,,,,,,,,,,,,,5de8d53cd0e07e836599d816,09:14:51,27/02/2024
html-keyboard-response,220,460040,0.0-91.0,,"<div style=""font-size:100px;"">+</div>",,delaylearn,learning,ITI,tiVref3lqWTIKXosPhMii0001fx1,tiVref3lqWTIKXosPhMii0001fx1,,,,,,,,,,,,,,,,,,,1971.0,,,5de8d53cd0e07e836599d816,09:14:51,27/02/2024
html-keyboard-response,221,461150,0.0-92.0-0.0,1109.7999999821186,"<div style=""display: flex; flex-direction: column; align-items: center; margin-top: -40px;""><img src=""images/pattern_5.png"" style=""width: 234px; height: 230px; margin-top: -50px;""><div style=""display: flex; justify-content: space-between; margin-top: 33px;""><img src=""images/choice_trial_13.png"" style=""width: 408px; height: 417px; margin-right: 200px;""><img src=""images/choice_trial_7.png"" style=""width: 408px; height: 417px;""></div></div>",j,delaylearn,learning,trial,tiVref3lqWTIKXosPhMii0001fx1,tiVref3lqWTIKXosPhMii0001fx1,5.0,images/choice_trial_13.png,images/choice_trial_7.png,images/pattern_5.png,j,j,750.0,13.0,7.0,4.0,1.0,40.0,1.0,1.0,7.0,240.0,,,,,,5de8d53cd0e07e836599d816,09:14:51,27/02/2024
html-keyboard-response,222,462167,0.0-92.0-1.0,,"<div style=""display: flex; flex-direction: column; align-items: center; margin-top: -40px;""><img src=""images/pattern_5.png"" style=""width: 234px; height: 230px; margin-top: -50px;""><div style=""display: flex; justify-content: space-between; margin-top: 33px;""><img src=""images/choice_trial_7.png"" style=""width: 408px; height: 417px; margin-left:608px;""></div></div>",,delaylearn,learning,display_response,tiVref3lqWTIKXosPhMii0001fx1,tiVref3lqWTIKXosPhMii0001fx1,,,,,,,,,,,,,,,,,chosen stimuli: images/choice_trial_7.png,,,,,5de8d53cd0e07e836599d816,09:14:51,27/02/2024
html-keyboard-response,223,462928,0.0-92.0-2.0,,,,delaylearn,learning,feedback_duration_window,tiVref3lqWTIKXosPhMii0001fx1,tiVref3lqWTIKXosPhMii0001fx1,,,,,,,,,,,,,,,,,,750.0,,,,5de8d53cd0e07e836599d816,09:14:51,27/02/2024
html-keyboard-response,224,464439,0.0-92.0-3.0,,<div style='margin:auto;width: auto; font-size: 150%'><span style='font-weight: bold; font-size: 100px; color: green;'>+10 points!</span><br><br></div>,,delaylearn,learning,feedback_image_window,tiVref3lqWTIKXosPhMii0001fx1,tiVref3lqWTIKXosPhMii0001fx1,,,,,,,,,,,,,,,,,,,,,,5de8d53cd0e07e836599d816,09:14:51,27/02/2024
html-keyboard-response,225,464953,0.0-93.0-0.0,,,,,,mood_trial_fixation,tiVref3lqWTIKXosPhMii0001fx1,,,,,,,,,,,,,,,,,,,,,,,5de8d53cd0e07e836599d816,09:14:51,27/02/2024
lmdlab-html-vas-response,226,468807,0.0-93.0-1.0,2841.0,How happy are you right now?,0.5679012345679012,delaylearn,learning,mood_trial,tiVref3lqWTIKXosPhMii0001fx1,tiVref3lqWTIKXosPhMii0001fx1,,,,,,,,,,,,,,,,,,,,"['Very unhappy', 'Very happy']",,5de8d53cd0e07e836599d816,09:14:51,27/02/2024
html-keyboard-response,227,471320,0.0-94.0,,"<div style=""font-size:100px;"">+</div>",,delaylearn,learning,ITI,tiVref3lqWTIKXosPhMii0001fx1,tiVref3lqWTIKXosPhMii0001fx1,,,,,,,,,,,,,,,,,,,2500.0,,,5de8d53cd0e07e836599d816,09:14:51,27/02/2024
html-keyboard-response,228,472518,0.0-95.0-0.0,1196.4000000059605,"<div style=""display: flex; flex-direction: column; align-items: center; margin-top: -40px;""><img src=""images/pattern_4.png"" style=""width: 234px; height: 230px; margin-top: -50px;""><div style=""display: flex; justify-content: space-between; margin-top: 33px;""><img src=""images/choice_trial_11.png"" style=""width: 408px; height: 417px; margin-right: 200px;""><img src=""images/choice_trial_4.png"" style=""width: 408px; height: 417px;""></div></div>",f,delaylearn,learning,trial,tiVref3lqWTIKXosPhMii0001fx1,tiVref3lqWTIKXosPhMii0001fx1,5.0,images/choice_trial_11.png,images/choice_trial_4.png,images/pattern_4.png,f,f,7000.0,11.0,4.0,3.0,0.0,41.0,1.0,1.0,11.0,250.0,,,,,,5de8d53cd0e07e836599d816,09:14:51,27/02/2024
html-keyboard-response,229,473522,0.0-95.0-1.0,,"<div style=""display: flex; flex-direction: column; align-items: center; margin-top: -40px;""><img src=""images/pattern_4.png"" style=""width: 234px; height: 230px; margin-top: -50px;""><div style=""display: flex; justify-content: space-between; margin-top: 33px;""><img src=""images/choice_trial_11.png"" style=""width: 408px; height: 417px; margin-right: 608px;""></div></div>",,delaylearn,learning,display_response,tiVref3lqWTIKXosPhMii0001fx1,tiVref3lqWTIKXosPhMii0001fx1,,,,,,,,,,,,,,,,,chosen stimuli: images/choice_trial_11.png,,,,,5de8d53cd0e07e836599d816,09:14:51,27/02/2024
html-keyboard-response,230,480533,0.0-95.0-2.0,,,,delaylearn,learning,feedback_duration_window,tiVref3lqWTIKXosPhMii0001fx1,tiVref3lqWTIKXosPhMii0001fx1,,,,,,,,,,,,,,,,,,7000.0,,,,5de8d53cd0e07e836599d816,09:14:51,27/02/2024
html-keyboard-response,231,482039,0.0-95.0-3.0,,<div style='margin:auto;width: auto; font-size: 150%'><span style='font-weight: bold; font-size: 100px; color: green;'>+10 points!</span><br><br></div>,,delaylearn,learning,feedback_image_window,tiVref3lqWTIKXosPhMii0001fx1,tiVref3lqWTIKXosPhMii0001fx1,,,,,,,,,,,,,,,,,,,,,,5de8d53cd0e07e836599d816,09:14:51,27/02/2024
html-keyboard-response,232,484542,0.0-96.0,,"<div style=""font-size:100px;"">+</div>",,delaylearn,learning,ITI,tiVref3lqWTIKXosPhMii0001fx1,tiVref3lqWTIKXosPhMii0001fx1,,,,,,,,,,,,,,,,,,,2494.0,,,5de8d53cd0e07e836599d816,09:14:51,27/02/2024
