trial_type,trial_index,time_elapsed,internal_node_id,rt,stimulus,response,exp_name,exp_stage,test_part,subjectID,databaseID,counterbal,choice_stimuli_1,choice_stimuli_2,pattern_stimuli,rewarded_answer,correct_answer,feedback_duration_times,stim_left,stim_right,pair,leftright_counter,trial,response_correct,response_rewarded,chosen_stim,counter,displayed_choice,feedback_durations,ITI_duration,labels,rest_warning,prolificID,start_time,date
pavlovia,0,524,0.0-0.0,,,,,,,iUPHZqxkJQN4cKRwvdlf0Mmb3Eg2,,,,,,,,,,,,,,,,,,,,,,,576fc3462984e70001a97fc3,16:59:44,27/03/2024
html-keyboard-response,1,3528,0.0-1.0,,"<div style=""font-size:100px;"">+</div>",,delaylearn,learning,pre_fixation,iUPHZqxkJQN4cKRwvdlf0Mmb3Eg2,,,,,,,,,,,,,,,,,,,,,,,576fc3462984e70001a97fc3,16:59:44,27/03/2024
html-keyboard-response,2,4699,0.0-2.0-0.0,1166.9000000953674,"<div style=""display: flex; flex-direction: column; align-items: center; margin-top: -40px;""><img src=""images/demo_images/pattern_1.png"" style=""width: 234px; height: 230px; margin-top: -50px;""><div style=""display: flex; justify-content: space-between; margin-top: 33px;""><img src=""images/demo_images/choice_trial_2.png"" style=""width: 408px; height: 417px; margin-right: 200px;""><img src=""images/demo_images/choice_trial_1.png"" style=""width: 408px; height: 417px;""></div></div>",j,delaylearn,learning,trial,iUPHZqxkJQN4cKRwvdlf0Mmb3Eg2,iUPHZqxkJQN4cKRwvdlf0Mmb3Eg2,2.0,images/demo_images/choice_trial_2.png,images/demo_images/choice_trial_1.png,images/demo_images/pattern_1.png,j,j,3000.0,2.0,1.0,20.0,1.0,1.0,1.0,1.0,1.0,10.0,,,,,,576fc3462984e70001a97fc3,16:59:44,27/03/2024
html-keyboard-response,3,5703,0.0-2.0-1.0,,"<div style=""display: flex; flex-direction: column; align-items: center; margin-top: -40px;""><img src=""images/demo_images/pattern_1.png"" style=""width: 234px; height: 230px; margin-top: -50px;""><div style=""display: flex; justify-content: space-between; margin-top: 33px;""><img src=""images/demo_images/choice_trial_1.png"" style=""width: 408px; height: 417px; margin-left:608px;""></div></div>",,delaylearn,learning,display_response,iUPHZqxkJQN4cKRwvdlf0Mmb3Eg2,iUPHZqxkJQN4cKRwvdlf0Mmb3Eg2,,,,,,,,,,,,,,,,,chosen stimuli: images/demo_images/choice_trial_1.png,,,,,576fc3462984e70001a97fc3,16:59:44,27/03/2024
html-keyboard-response,4,8707,0.0-2.0-2.0,,,,delaylearn,learning,feedback_duration_window,iUPHZqxkJQN4cKRwvdlf0Mmb3Eg2,iUPHZqxkJQN4cKRwvdlf0Mmb3Eg2,,,,,,,,,,,,,,,,,,3000.0,,,,576fc3462984e70001a97fc3,16:59:44,27/03/2024
html-keyboard-response,5,10211,0.0-2.0-3.0,,<div style='margin:auto;width: auto; font-size: 150%'><span style='font-weight: bold; font-size: 100px; color: green;'>+10 points!</span><br><br></div>,,delaylearn,learning,feedback_image_window,iUPHZqxkJQN4cKRwvdlf0Mmb3Eg2,iUPHZqxkJQN4cKRwvdlf0Mmb3Eg2,,,,,,,,,,,,,,,,,,,,,,576fc3462984e70001a97fc3,16:59:44,27/03/2024
html-keyboard-response,6,12480,0.0-3.0,,"<div style=""font-size:100px;"">+</div>",,delaylearn,learning,ITI,iUPHZqxkJQN4cKRwvdlf0Mmb3Eg2,iUPHZqxkJQN4cKRwvdlf0Mmb3Eg2,,,,,,,,,,,,,,,,,,,2264.0,,,576fc3462984e70001a97fc3,16:59:44,27/03/2024
html-keyboard-response,7,13219,0.0-4.0-0.0,734.5,"<div style=""display: flex; flex-direction: column; align-items: center; margin-top: -40px;""><img src=""images/demo_images/pattern_1.png"" style=""width: 234px; height: 230px; margin-top: -50px;""><div style=""display: flex; justify-content: space-between; margin-top: 33px;""><img src=""images/demo_images/choice_trial_2.png"" style=""width: 408px; height: 417px; margin-right: 200px;""><img src=""images/demo_images/choice_trial_1.png"" style=""width: 408px; height: 417px;""></div></div>",j,delaylearn,learning,trial,iUPHZqxkJQN4cKRwvdlf0Mmb3Eg2,iUPHZqxkJQN4cKRwvdlf0Mmb3Eg2,2.0,images/demo_images/choice_trial_2.png,images/demo_images/choice_trial_1.png,images/demo_images/pattern_1.png,j,j,3000.0,2.0,1.0,20.0,1.0,2.0,1.0,1.0,1.0,20.0,,,,,,576fc3462984e70001a97fc3,16:59:44,27/03/2024
html-keyboard-response,8,14222,0.0-4.0-1.0,,"<div style=""display: flex; flex-direction: column; align-items: center; margin-top: -40px;""><img src=""images/demo_images/pattern_1.png"" style=""width: 234px; height: 230px; margin-top: -50px;""><div style=""display: flex; justify-content: space-between; margin-top: 33px;""><img src=""images/demo_images/choice_trial_1.png"" style=""width: 408px; height: 417px; margin-left:608px;""></div></div>",,delaylearn,learning,display_response,iUPHZqxkJQN4cKRwvdlf0Mmb3Eg2,iUPHZqxkJQN4cKRwvdlf0Mmb3Eg2,,,,,,,,,,,,,,,,,chosen stimuli: images/demo_images/choice_trial_1.png,,,,,576fc3462984e70001a97fc3,16:59:44,27/03/2024
html-keyboard-response,9,17225,0.0-4.0-2.0,,,,delaylearn,learning,feedback_duration_window,iUPHZqxkJQN4cKRwvdlf0Mmb3Eg2,iUPHZqxkJQN4cKRwvdlf0Mmb3Eg2,,,,,,,,,,,,,,,,,,3000.0,,,,576fc3462984e70001a97fc3,16:59:44,27/03/2024
html-keyboard-response,10,18730,0.0-4.0-3.0,,<div style='margin:auto;width: auto; font-size: 150%'><span style='font-weight: bold; font-size: 100px; color: green;'>+10 points!</span><br><br></div>,,delaylearn,learning,feedback_image_window,iUPHZqxkJQN4cKRwvdlf0Mmb3Eg2,iUPHZqxkJQN4cKRwvdlf0Mmb3Eg2,,,,,,,,,,,,,,,,,,,,,,576fc3462984e70001a97fc3,16:59:44,27/03/2024
html-keyboard-response,11,20944,0.0-5.0,,"<div style=""font-size:100px;"">+</div>",,delaylearn,learning,ITI,iUPHZqxkJQN4cKRwvdlf0Mmb3Eg2,iUPHZqxkJQN4cKRwvdlf0Mmb3Eg2,,,,,,,,,,,,,,,,,,,2212.0,,,576fc3462984e70001a97fc3,16:59:44,27/03/2024
html-keyboard-response,12,22129,0.0-6.0-0.0,1182.5999999046326,"<div style=""display: flex; flex-direction: column; align-items: center; margin-top: -40px;""><img src=""images/demo_images/pattern_1.png"" style=""width: 234px; height: 230px; margin-top: -50px;""><div style=""display: flex; justify-content: space-between; margin-top: 33px;""><img src=""images/demo_images/choice_trial_1.png"" style=""width: 408px; height: 417px; margin-right: 200px;""><img src=""images/demo_images/choice_trial_2.png"" style=""width: 408px; height: 417px;""></div></div>",f,delaylearn,learning,trial,iUPHZqxkJQN4cKRwvdlf0Mmb3Eg2,iUPHZqxkJQN4cKRwvdlf0Mmb3Eg2,2.0,images/demo_images/choice_trial_1.png,images/demo_images/choice_trial_2.png,images/demo_images/pattern_1.png,j,f,3000.0,1.0,2.0,20.0,0.0,3.0,1.0,0.0,1.0,20.0,,,,,,576fc3462984e70001a97fc3,16:59:44,27/03/2024
html-keyboard-response,13,23133,0.0-6.0-1.0,,"<div style=""display: flex; flex-direction: column; align-items: center; margin-top: -40px;""><img src=""images/demo_images/pattern_1.png"" style=""width: 234px; height: 230px; margin-top: -50px;""><div style=""display: flex; justify-content: space-between; margin-top: 33px;""><img src=""images/demo_images/choice_trial_1.png"" style=""width: 408px; height: 417px; margin-right: 608px;""></div></div>",,delaylearn,learning,display_response,iUPHZqxkJQN4cKRwvdlf0Mmb3Eg2,iUPHZqxkJQN4cKRwvdlf0Mmb3Eg2,,,,,,,,,,,,,,,,,chosen stimuli: images/demo_images/choice_trial_1.png,,,,,576fc3462984e70001a97fc3,16:59:44,27/03/2024
html-keyboard-response,14,26137,0.0-6.0-2.0,,,,delaylearn,learning,feedback_duration_window,iUPHZqxkJQN4cKRwvdlf0Mmb3Eg2,iUPHZqxkJQN4cKRwvdlf0Mmb3Eg2,,,,,,,,,,,,,,,,,,3000.0,,,,576fc3462984e70001a97fc3,16:59:44,27/03/2024
html-keyboard-response,15,27641,0.0-6.0-3.0,,<div style='margin:auto;width: auto; font-size: 150%'><span style='font-weight: bold; font-size: 100px; color: red;'>0 points!</span><br><br></div>,,delaylearn,learning,feedback_image_window,iUPHZqxkJQN4cKRwvdlf0Mmb3Eg2,iUPHZqxkJQN4cKRwvdlf0Mmb3Eg2,,,,,,,,,,,,,,,,,,,,,,576fc3462984e70001a97fc3,16:59:44,27/03/2024
html-keyboard-response,16,29367,0.0-7.0,,"<div style=""font-size:100px;"">+</div>",,delaylearn,learning,ITI,iUPHZqxkJQN4cKRwvdlf0Mmb3Eg2,iUPHZqxkJQN4cKRwvdlf0Mmb3Eg2,,,,,,,,,,,,,,,,,,,1722.0,,,576fc3462984e70001a97fc3,16:59:44,27/03/2024
html-keyboard-response,17,30953,0.0-8.0-0.0,1583.3999998569489,"<div style=""display: flex; flex-direction: column; align-items: center; margin-top: -40px;""><img src=""images/demo_images/pattern_1.png"" style=""width: 234px; height: 230px; margin-top: -50px;""><div style=""display: flex; justify-content: space-between; margin-top: 33px;""><img src=""images/demo_images/choice_trial_1.png"" style=""width: 408px; height: 417px; margin-right: 200px;""><img src=""images/demo_images/choice_trial_2.png"" style=""width: 408px; height: 417px;""></div></div>",f,delaylearn,learning,trial,iUPHZqxkJQN4cKRwvdlf0Mmb3Eg2,iUPHZqxkJQN4cKRwvdlf0Mmb3Eg2,2.0,images/demo_images/choice_trial_1.png,images/demo_images/choice_trial_2.png,images/demo_images/pattern_1.png,f,f,3000.0,1.0,2.0,20.0,0.0,4.0,1.0,1.0,1.0,30.0,,,,,,576fc3462984e70001a97fc3,16:59:44,27/03/2024
html-keyboard-response,18,31956,0.0-8.0-1.0,,"<div style=""display: flex; flex-direction: column; align-items: center; margin-top: -40px;""><img src=""images/demo_images/pattern_1.png"" style=""width: 234px; height: 230px; margin-top: -50px;""><div style=""display: flex; justify-content: space-between; margin-top: 33px;""><img src=""images/demo_images/choice_trial_1.png"" style=""width: 408px; height: 417px; margin-right: 608px;""></div></div>",,delaylearn,learning,display_response,iUPHZqxkJQN4cKRwvdlf0Mmb3Eg2,iUPHZqxkJQN4cKRwvdlf0Mmb3Eg2,,,,,,,,,,,,,,,,,chosen stimuli: images/demo_images/choice_trial_1.png,,,,,576fc3462984e70001a97fc3,16:59:44,27/03/2024
html-keyboard-response,19,34959,0.0-8.0-2.0,,,,delaylearn,learning,feedback_duration_window,iUPHZqxkJQN4cKRwvdlf0Mmb3Eg2,iUPHZqxkJQN4cKRwvdlf0Mmb3Eg2,,,,,,,,,,,,,,,,,,3000.0,,,,576fc3462984e70001a97fc3,16:59:44,27/03/2024
html-keyboard-response,20,36462,0.0-8.0-3.0,,<div style='margin:auto;width: auto; font-size: 150%'><span style='font-weight: bold; font-size: 100px; color: green;'>+10 points!</span><br><br></div>,,delaylearn,learning,feedback_image_window,iUPHZqxkJQN4cKRwvdlf0Mmb3Eg2,iUPHZqxkJQN4cKRwvdlf0Mmb3Eg2,,,,,,,,,,,,,,,,,,,,,,576fc3462984e70001a97fc3,16:59:44,27/03/2024
html-keyboard-response,21,36964,0.0-9.0-0.0,,,,,,mood_trial_fixation,iUPHZqxkJQN4cKRwvdlf0Mmb3Eg2,,,,,,,,,,,,,,,,,,,,,,,576fc3462984e70001a97fc3,16:59:44,27/03/2024
lmdlab-html-vas-response,22,40653,0.0-9.0-1.0,2677.0,How happy are you right now?,0.5317460317460317,delaylearn,learning,mood_trial,iUPHZqxkJQN4cKRwvdlf0Mmb3Eg2,iUPHZqxkJQN4cKRwvdlf0Mmb3Eg2,,,,,,,,,,,,,,,,,,,,"['Very unhappy', 'Very happy']",,576fc3462984e70001a97fc3,16:59:44,27/03/2024
html-keyboard-response,23,42427,0.0-10.0,,"<div style=""font-size:100px;"">+</div>",,delaylearn,learning,ITI,iUPHZqxkJQN4cKRwvdlf0Mmb3Eg2,iUPHZqxkJQN4cKRwvdlf0Mmb3Eg2,,,,,,,,,,,,,,,,,,,1771.0,,,576fc3462984e70001a97fc3,16:59:44,27/03/2024
html-keyboard-response,24,43689,0.0-11.0-0.0,1257.7999999523163,"<div style=""display: flex; flex-direction: column; align-items: center; margin-top: -40px;""><img src=""images/demo_images/pattern_1.png"" style=""width: 234px; height: 230px; margin-top: -50px;""><div style=""display: flex; justify-content: space-between; margin-top: 33px;""><img src=""images/demo_images/choice_trial_2.png"" style=""width: 408px; height: 417px; margin-right: 200px;""><img src=""images/demo_images/choice_trial_1.png"" style=""width: 408px; height: 417px;""></div></div>",j,delaylearn,learning,trial,iUPHZqxkJQN4cKRwvdlf0Mmb3Eg2,iUPHZqxkJQN4cKRwvdlf0Mmb3Eg2,2.0,images/demo_images/choice_trial_2.png,images/demo_images/choice_trial_1.png,images/demo_images/pattern_1.png,j,j,3000.0,2.0,1.0,20.0,1.0,5.0,1.0,1.0,1.0,40.0,,,,,,576fc3462984e70001a97fc3,16:59:44,27/03/2024
html-keyboard-response,25,44692,0.0-11.0-1.0,,"<div style=""display: flex; flex-direction: column; align-items: center; margin-top: -40px;""><img src=""images/demo_images/pattern_1.png"" style=""width: 234px; height: 230px; margin-top: -50px;""><div style=""display: flex; justify-content: space-between; margin-top: 33px;""><img src=""images/demo_images/choice_trial_1.png"" style=""width: 408px; height: 417px; margin-left:608px;""></div></div>",,delaylearn,learning,display_response,iUPHZqxkJQN4cKRwvdlf0Mmb3Eg2,iUPHZqxkJQN4cKRwvdlf0Mmb3Eg2,,,,,,,,,,,,,,,,,chosen stimuli: images/demo_images/choice_trial_1.png,,,,,576fc3462984e70001a97fc3,16:59:44,27/03/2024
html-keyboard-response,26,47696,0.0-11.0-2.0,,,,delaylearn,learning,feedback_duration_window,iUPHZqxkJQN4cKRwvdlf0Mmb3Eg2,iUPHZqxkJQN4cKRwvdlf0Mmb3Eg2,,,,,,,,,,,,,,,,,,3000.0,,,,576fc3462984e70001a97fc3,16:59:44,27/03/2024
html-keyboard-response,27,49200,0.0-11.0-3.0,,<div style='margin:auto;width: auto; font-size: 150%'><span style='font-weight: bold; font-size: 100px; color: green;'>+10 points!</span><br><br></div>,,delaylearn,learning,feedback_image_window,iUPHZqxkJQN4cKRwvdlf0Mmb3Eg2,iUPHZqxkJQN4cKRwvdlf0Mmb3Eg2,,,,,,,,,,,,,,,,,,,,,,576fc3462984e70001a97fc3,16:59:44,27/03/2024
html-keyboard-response,28,50981,0.0-12.0,,"<div style=""font-size:100px;"">+</div>",,delaylearn,learning,ITI,iUPHZqxkJQN4cKRwvdlf0Mmb3Eg2,iUPHZqxkJQN4cKRwvdlf0Mmb3Eg2,,,,,,,,,,,,,,,,,,,1777.0,,,576fc3462984e70001a97fc3,16:59:44,27/03/2024
html-keyboard-response,29,52441,0.0-13.0-0.0,1457.0,"<div style=""display: flex; flex-direction: column; align-items: center; margin-top: -40px;""><img src=""images/demo_images/pattern_1.png"" style=""width: 234px; height: 230px; margin-top: -50px;""><div style=""display: flex; justify-content: space-between; margin-top: 33px;""><img src=""images/demo_images/choice_trial_1.png"" style=""width: 408px; height: 417px; margin-right: 200px;""><img src=""images/demo_images/choice_trial_2.png"" style=""width: 408px; height: 417px;""></div></div>",f,delaylearn,learning,trial,iUPHZqxkJQN4cKRwvdlf0Mmb3Eg2,iUPHZqxkJQN4cKRwvdlf0Mmb3Eg2,2.0,images/demo_images/choice_trial_1.png,images/demo_images/choice_trial_2.png,images/demo_images/pattern_1.png,f,f,3000.0,1.0,2.0,20.0,0.0,6.0,1.0,1.0,1.0,50.0,,,,,,576fc3462984e70001a97fc3,16:59:44,27/03/2024
html-keyboard-response,30,53445,0.0-13.0-1.0,,"<div style=""display: flex; flex-direction: column; align-items: center; margin-top: -40px;""><img src=""images/demo_images/pattern_1.png"" style=""width: 234px; height: 230px; margin-top: -50px;""><div style=""display: flex; justify-content: space-between; margin-top: 33px;""><img src=""images/demo_images/choice_trial_1.png"" style=""width: 408px; height: 417px; margin-right: 608px;""></div></div>",,delaylearn,learning,display_response,iUPHZqxkJQN4cKRwvdlf0Mmb3Eg2,iUPHZqxkJQN4cKRwvdlf0Mmb3Eg2,,,,,,,,,,,,,,,,,chosen stimuli: images/demo_images/choice_trial_1.png,,,,,576fc3462984e70001a97fc3,16:59:44,27/03/2024
html-keyboard-response,31,56449,0.0-13.0-2.0,,,,delaylearn,learning,feedback_duration_window,iUPHZqxkJQN4cKRwvdlf0Mmb3Eg2,iUPHZqxkJQN4cKRwvdlf0Mmb3Eg2,,,,,,,,,,,,,,,,,,3000.0,,,,576fc3462984e70001a97fc3,16:59:44,27/03/2024
html-keyboard-response,32,57952,0.0-13.0-3.0,,<div style='margin:auto;width: auto; font-size: 150%'><span style='font-weight: bold; font-size: 100px; color: green;'>+10 points!</span><br><br></div>,,delaylearn,learning,feedback_image_window,iUPHZqxkJQN4cKRwvdlf0Mmb3Eg2,iUPHZqxkJQN4cKRwvdlf0Mmb3Eg2,,,,,,,,,,,,,,,,,,,,,,576fc3462984e70001a97fc3,16:59:44,27/03/2024
html-keyboard-response,33,60157,0.0-14.0,,"<div style=""font-size:100px;"">+</div>",,delaylearn,learning,ITI,iUPHZqxkJQN4cKRwvdlf0Mmb3Eg2,iUPHZqxkJQN4cKRwvdlf0Mmb3Eg2,,,,,,,,,,,,,,,,,,,2201.0,,,576fc3462984e70001a97fc3,16:59:44,27/03/2024
html-keyboard-response,34,63062,0.0-15.0-0.0,2902.4000000953674,"<div style=""display: flex; flex-direction: column; align-items: center; margin-top: -40px;""><img src=""images/demo_images/pattern_1.png"" style=""width: 234px; height: 230px; margin-top: -50px;""><div style=""display: flex; justify-content: space-between; margin-top: 33px;""><img src=""images/demo_images/choice_trial_2.png"" style=""width: 408px; height: 417px; margin-right: 200px;""><img src=""images/demo_images/choice_trial_1.png"" style=""width: 408px; height: 417px;""></div></div>",j,delaylearn,learning,trial,iUPHZqxkJQN4cKRwvdlf0Mmb3Eg2,iUPHZqxkJQN4cKRwvdlf0Mmb3Eg2,2.0,images/demo_images/choice_trial_2.png,images/demo_images/choice_trial_1.png,images/demo_images/pattern_1.png,j,j,3000.0,2.0,1.0,20.0,1.0,7.0,1.0,1.0,1.0,60.0,,,,,,576fc3462984e70001a97fc3,16:59:44,27/03/2024
html-keyboard-response,35,64066,0.0-15.0-1.0,,"<div style=""display: flex; flex-direction: column; align-items: center; margin-top: -40px;""><img src=""images/demo_images/pattern_1.png"" style=""width: 234px; height: 230px; margin-top: -50px;""><div style=""display: flex; justify-content: space-between; margin-top: 33px;""><img src=""images/demo_images/choice_trial_1.png"" style=""width: 408px; height: 417px; margin-left:608px;""></div></div>",,delaylearn,learning,display_response,iUPHZqxkJQN4cKRwvdlf0Mmb3Eg2,iUPHZqxkJQN4cKRwvdlf0Mmb3Eg2,,,,,,,,,,,,,,,,,chosen stimuli: images/demo_images/choice_trial_1.png,,,,,576fc3462984e70001a97fc3,16:59:44,27/03/2024
html-keyboard-response,36,67069,0.0-15.0-2.0,,,,delaylearn,learning,feedback_duration_window,iUPHZqxkJQN4cKRwvdlf0Mmb3Eg2,iUPHZqxkJQN4cKRwvdlf0Mmb3Eg2,,,,,,,,,,,,,,,,,,3000.0,,,,576fc3462984e70001a97fc3,16:59:44,27/03/2024
html-keyboard-response,37,68572,0.0-15.0-3.0,,<div style='margin:auto;width: auto; font-size: 150%'><span style='font-weight: bold; font-size: 100px; color: green;'>+10 points!</span><br><br></div>,,delaylearn,learning,feedback_image_window,iUPHZqxkJQN4cKRwvdlf0Mmb3Eg2,iUPHZqxkJQN4cKRwvdlf0Mmb3Eg2,,,,,,,,,,,,,,,,,,,,,,576fc3462984e70001a97fc3,16:59:44,27/03/2024
html-keyboard-response,38,70213,0.0-16.0,,"<div style=""font-size:100px;"">+</div>",,delaylearn,learning,ITI,iUPHZqxkJQN4cKRwvdlf0Mmb3Eg2,iUPHZqxkJQN4cKRwvdlf0Mmb3Eg2,,,,,,,,,,,,,,,,,,,1638.0,,,576fc3462984e70001a97fc3,16:59:44,27/03/2024
html-keyboard-response,39,71572,0.0-17.0-0.0,1357.8000001907349,"<div style=""display: flex; flex-direction: column; align-items: center; margin-top: -40px;""><img src=""images/demo_images/pattern_1.png"" style=""width: 234px; height: 230px; margin-top: -50px;""><div style=""display: flex; justify-content: space-between; margin-top: 33px;""><img src=""images/demo_images/choice_trial_1.png"" style=""width: 408px; height: 417px; margin-right: 200px;""><img src=""images/demo_images/choice_trial_2.png"" style=""width: 408px; height: 417px;""></div></div>",f,delaylearn,learning,trial,iUPHZqxkJQN4cKRwvdlf0Mmb3Eg2,iUPHZqxkJQN4cKRwvdlf0Mmb3Eg2,2.0,images/demo_images/choice_trial_1.png,images/demo_images/choice_trial_2.png,images/demo_images/pattern_1.png,f,f,3000.0,1.0,2.0,20.0,0.0,8.0,1.0,1.0,1.0,70.0,,,,,,576fc3462984e70001a97fc3,16:59:44,27/03/2024
html-keyboard-response,40,72575,0.0-17.0-1.0,,"<div style=""display: flex; flex-direction: column; align-items: center; margin-top: -40px;""><img src=""images/demo_images/pattern_1.png"" style=""width: 234px; height: 230px; margin-top: -50px;""><div style=""display: flex; justify-content: space-between; margin-top: 33px;""><img src=""images/demo_images/choice_trial_1.png"" style=""width: 408px; height: 417px; margin-right: 608px;""></div></div>",,delaylearn,learning,display_response,iUPHZqxkJQN4cKRwvdlf0Mmb3Eg2,iUPHZqxkJQN4cKRwvdlf0Mmb3Eg2,,,,,,,,,,,,,,,,,chosen stimuli: images/demo_images/choice_trial_1.png,,,,,576fc3462984e70001a97fc3,16:59:44,27/03/2024
html-keyboard-response,41,75578,0.0-17.0-2.0,,,,delaylearn,learning,feedback_duration_window,iUPHZqxkJQN4cKRwvdlf0Mmb3Eg2,iUPHZqxkJQN4cKRwvdlf0Mmb3Eg2,,,,,,,,,,,,,,,,,,3000.0,,,,576fc3462984e70001a97fc3,16:59:44,27/03/2024
html-keyboard-response,42,77081,0.0-17.0-3.0,,<div style='margin:auto;width: auto; font-size: 150%'><span style='font-weight: bold; font-size: 100px; color: green;'>+10 points!</span><br><br></div>,,delaylearn,learning,feedback_image_window,iUPHZqxkJQN4cKRwvdlf0Mmb3Eg2,iUPHZqxkJQN4cKRwvdlf0Mmb3Eg2,,,,,,,,,,,,,,,,,,,,,,576fc3462984e70001a97fc3,16:59:44,27/03/2024
html-button-response,43,79680,0.0-18.0,2595.2999999523163,"
  <div style=""display: flex; align-items: center; justify-content: center; height: 80vh;"">
  <div>
          <img src=""images/inst_demo_finish.png"" style=""width: 80vw; height:auto;"">
          <br><br>
      </div>
      <br><br>
  </div>",0,,,,iUPHZqxkJQN4cKRwvdlf0Mmb3Eg2,,,,,,,,,,,,,,,,,,,,,,,576fc3462984e70001a97fc3,16:59:44,27/03/2024
html-keyboard-response,44,84029,0.0-19.0,4346.5,"
  <div style=""display: flex; align-items: center; justify-content: center; height: 80vh;"">
  <div>
          <img src=""images/inst_6.png"" style=""width: 80vw; height:auto;"">
          <br><br>
      </div>
      <br><br>
  </div>",f,,,,iUPHZqxkJQN4cKRwvdlf0Mmb3Eg2,,,,,,,,,,,,,,,,,,,,,,,576fc3462984e70001a97fc3,16:59:44,27/03/2024
html-keyboard-response,45,87033,0.0-20.0,,"<div style=""font-size:100px;"">+</div>",,delaylearn,learning,pre_fixation,iUPHZqxkJQN4cKRwvdlf0Mmb3Eg2,,,,,,,,,,,,,,,,,,,,,,,576fc3462984e70001a97fc3,16:59:44,27/03/2024
html-keyboard-response,46,89396,0.0-21.0,,"<div style=""font-size:100px;"">+</div>",,delaylearn,learning,ITI,iUPHZqxkJQN4cKRwvdlf0Mmb3Eg2,iUPHZqxkJQN4cKRwvdlf0Mmb3Eg2,,,,,,,,,,,,,,,,,,,2358.0,,,576fc3462984e70001a97fc3,16:59:44,27/03/2024
html-keyboard-response,47,90824,0.0-22.0-0.0,1424.8000001907349,"<div style=""display: flex; flex-direction: column; align-items: center; margin-top: -40px;""><img src=""images/pattern_3.png"" style=""width: 234px; height: 230px; margin-top: -50px;""><div style=""display: flex; justify-content: space-between; margin-top: 33px;""><img src=""images/choice_trial_12.png"" style=""width: 408px; height: 417px; margin-right: 200px;""><img src=""images/choice_trial_14.png"" style=""width: 408px; height: 417px;""></div></div>",f,delaylearn,learning,trial,iUPHZqxkJQN4cKRwvdlf0Mmb3Eg2,iUPHZqxkJQN4cKRwvdlf0Mmb3Eg2,2.0,images/choice_trial_12.png,images/choice_trial_14.png,images/pattern_3.png,f,f,7000.0,12.0,14.0,2.0,0.0,9.0,1.0,1.0,12.0,80.0,,,,,,576fc3462984e70001a97fc3,16:59:44,27/03/2024
html-keyboard-response,48,91827,0.0-22.0-1.0,,"<div style=""display: flex; flex-direction: column; align-items: center; margin-top: -40px;""><img src=""images/pattern_3.png"" style=""width: 234px; height: 230px; margin-top: -50px;""><div style=""display: flex; justify-content: space-between; margin-top: 33px;""><img src=""images/choice_trial_12.png"" style=""width: 408px; height: 417px; margin-right: 608px;""></div></div>",,delaylearn,learning,display_response,iUPHZqxkJQN4cKRwvdlf0Mmb3Eg2,iUPHZqxkJQN4cKRwvdlf0Mmb3Eg2,,,,,,,,,,,,,,,,,chosen stimuli: images/choice_trial_12.png,,,,,576fc3462984e70001a97fc3,16:59:44,27/03/2024
html-keyboard-response,49,98831,0.0-22.0-2.0,,,,delaylearn,learning,feedback_duration_window,iUPHZqxkJQN4cKRwvdlf0Mmb3Eg2,iUPHZqxkJQN4cKRwvdlf0Mmb3Eg2,,,,,,,,,,,,,,,,,,7000.0,,,,576fc3462984e70001a97fc3,16:59:44,27/03/2024
html-keyboard-response,50,100336,0.0-22.0-3.0,,<div style='margin:auto;width: auto; font-size: 150%'><span style='font-weight: bold; font-size: 100px; color: green;'>+10 points!</span><br><br></div>,,delaylearn,learning,feedback_image_window,iUPHZqxkJQN4cKRwvdlf0Mmb3Eg2,iUPHZqxkJQN4cKRwvdlf0Mmb3Eg2,,,,,,,,,,,,,,,,,,,,,,576fc3462984e70001a97fc3,16:59:44,27/03/2024
html-keyboard-response,51,102639,0.0-23.0,,"<div style=""font-size:100px;"">+</div>",,delaylearn,learning,ITI,iUPHZqxkJQN4cKRwvdlf0Mmb3Eg2,iUPHZqxkJQN4cKRwvdlf0Mmb3Eg2,,,,,,,,,,,,,,,,,,,2300.0,,,576fc3462984e70001a97fc3,16:59:44,27/03/2024
html-keyboard-response,52,104289,0.0-24.0-0.0,1645.2999999523163,"<div style=""display: flex; flex-direction: column; align-items: center; margin-top: -40px;""><img src=""images/pattern_7.png"" style=""width: 234px; height: 230px; margin-top: -50px;""><div style=""display: flex; justify-content: space-between; margin-top: 33px;""><img src=""images/choice_trial_15.png"" style=""width: 408px; height: 417px; margin-right: 200px;""><img src=""images/choice_trial_8.png"" style=""width: 408px; height: 417px;""></div></div>",j,delaylearn,learning,trial,iUPHZqxkJQN4cKRwvdlf0Mmb3Eg2,iUPHZqxkJQN4cKRwvdlf0Mmb3Eg2,2.0,images/choice_trial_15.png,images/choice_trial_8.png,images/pattern_7.png,j,j,750.0,15.0,8.0,6.0,1.0,10.0,1.0,1.0,8.0,90.0,,,,,,576fc3462984e70001a97fc3,16:59:44,27/03/2024
html-keyboard-response,53,105292,0.0-24.0-1.0,,"<div style=""display: flex; flex-direction: column; align-items: center; margin-top: -40px;""><img src=""images/pattern_7.png"" style=""width: 234px; height: 230px; margin-top: -50px;""><div style=""display: flex; justify-content: space-between; margin-top: 33px;""><img src=""images/choice_trial_8.png"" style=""width: 408px; height: 417px; margin-left:608px;""></div></div>",,delaylearn,learning,display_response,iUPHZqxkJQN4cKRwvdlf0Mmb3Eg2,iUPHZqxkJQN4cKRwvdlf0Mmb3Eg2,,,,,,,,,,,,,,,,,chosen stimuli: images/choice_trial_8.png,,,,,576fc3462984e70001a97fc3,16:59:44,27/03/2024
html-keyboard-response,54,106045,0.0-24.0-2.0,,,,delaylearn,learning,feedback_duration_window,iUPHZqxkJQN4cKRwvdlf0Mmb3Eg2,iUPHZqxkJQN4cKRwvdlf0Mmb3Eg2,,,,,,,,,,,,,,,,,,750.0,,,,576fc3462984e70001a97fc3,16:59:44,27/03/2024
html-keyboard-response,55,107548,0.0-24.0-3.0,,<div style='margin:auto;width: auto; font-size: 150%'><span style='font-weight: bold; font-size: 100px; color: green;'>+10 points!</span><br><br></div>,,delaylearn,learning,feedback_image_window,iUPHZqxkJQN4cKRwvdlf0Mmb3Eg2,iUPHZqxkJQN4cKRwvdlf0Mmb3Eg2,,,,,,,,,,,,,,,,,,,,,,576fc3462984e70001a97fc3,16:59:44,27/03/2024
html-keyboard-response,56,109843,0.0-25.0,,"<div style=""font-size:100px;"">+</div>",,delaylearn,learning,ITI,iUPHZqxkJQN4cKRwvdlf0Mmb3Eg2,iUPHZqxkJQN4cKRwvdlf0Mmb3Eg2,,,,,,,,,,,,,,,,,,,2291.0,,,576fc3462984e70001a97fc3,16:59:44,27/03/2024
html-keyboard-response,57,112010,0.0-26.0-0.0,2162.2999999523163,"<div style=""display: flex; flex-direction: column; align-items: center; margin-top: -40px;""><img src=""images/pattern_4.png"" style=""width: 234px; height: 230px; margin-top: -50px;""><div style=""display: flex; justify-content: space-between; margin-top: 33px;""><img src=""images/choice_trial_4.png"" style=""width: 408px; height: 417px; margin-right: 200px;""><img src=""images/choice_trial_16.png"" style=""width: 408px; height: 417px;""></div></div>",j,delaylearn,learning,trial,iUPHZqxkJQN4cKRwvdlf0Mmb3Eg2,iUPHZqxkJQN4cKRwvdlf0Mmb3Eg2,2.0,images/choice_trial_4.png,images/choice_trial_16.png,images/pattern_4.png,f,f,7000.0,4.0,16.0,3.0,0.0,11.0,0.0,0.0,16.0,90.0,,,,,,576fc3462984e70001a97fc3,16:59:44,27/03/2024
html-keyboard-response,58,113014,0.0-26.0-1.0,,"<div style=""display: flex; flex-direction: column; align-items: center; margin-top: -40px;""><img src=""images/pattern_4.png"" style=""width: 234px; height: 230px; margin-top: -50px;""><div style=""display: flex; justify-content: space-between; margin-top: 33px;""><img src=""images/choice_trial_16.png"" style=""width: 408px; height: 417px; margin-left:608px;""></div></div>",,delaylearn,learning,display_response,iUPHZqxkJQN4cKRwvdlf0Mmb3Eg2,iUPHZqxkJQN4cKRwvdlf0Mmb3Eg2,,,,,,,,,,,,,,,,,chosen stimuli: images/choice_trial_16.png,,,,,576fc3462984e70001a97fc3,16:59:44,27/03/2024
html-keyboard-response,59,120018,0.0-26.0-2.0,,,,delaylearn,learning,feedback_duration_window,iUPHZqxkJQN4cKRwvdlf0Mmb3Eg2,iUPHZqxkJQN4cKRwvdlf0Mmb3Eg2,,,,,,,,,,,,,,,,,,7000.0,,,,576fc3462984e70001a97fc3,16:59:44,27/03/2024
html-keyboard-response,60,121522,0.0-26.0-3.0,,<div style='margin:auto;width: auto; font-size: 150%'><span style='font-weight: bold; font-size: 100px; color: red;'>0 points!</span><br><br></div>,,delaylearn,learning,feedback_image_window,iUPHZqxkJQN4cKRwvdlf0Mmb3Eg2,iUPHZqxkJQN4cKRwvdlf0Mmb3Eg2,,,,,,,,,,,,,,,,,,,,,,576fc3462984e70001a97fc3,16:59:44,27/03/2024
html-keyboard-response,61,123849,0.0-27.0,,"<div style=""font-size:100px;"">+</div>",,delaylearn,learning,ITI,iUPHZqxkJQN4cKRwvdlf0Mmb3Eg2,iUPHZqxkJQN4cKRwvdlf0Mmb3Eg2,,,,,,,,,,,,,,,,,,,2324.0,,,576fc3462984e70001a97fc3,16:59:44,27/03/2024
html-keyboard-response,62,126183,0.0-28.0-0.0,2330.0,"<div style=""display: flex; flex-direction: column; align-items: center; margin-top: -40px;""><img src=""images/pattern_5.png"" style=""width: 234px; height: 230px; margin-top: -50px;""><div style=""display: flex; justify-content: space-between; margin-top: 33px;""><img src=""images/choice_trial_9.png"" style=""width: 408px; height: 417px; margin-right: 200px;""><img src=""images/choice_trial_2.png"" style=""width: 408px; height: 417px;""></div></div>",j,delaylearn,learning,trial,iUPHZqxkJQN4cKRwvdlf0Mmb3Eg2,iUPHZqxkJQN4cKRwvdlf0Mmb3Eg2,2.0,images/choice_trial_9.png,images/choice_trial_2.png,images/pattern_5.png,j,j,750.0,9.0,2.0,4.0,1.0,12.0,1.0,1.0,2.0,100.0,,,,,,576fc3462984e70001a97fc3,16:59:44,27/03/2024
html-keyboard-response,63,127188,0.0-28.0-1.0,,"<div style=""display: flex; flex-direction: column; align-items: center; margin-top: -40px;""><img src=""images/pattern_5.png"" style=""width: 234px; height: 230px; margin-top: -50px;""><div style=""display: flex; justify-content: space-between; margin-top: 33px;""><img src=""images/choice_trial_2.png"" style=""width: 408px; height: 417px; margin-left:608px;""></div></div>",,delaylearn,learning,display_response,iUPHZqxkJQN4cKRwvdlf0Mmb3Eg2,iUPHZqxkJQN4cKRwvdlf0Mmb3Eg2,,,,,,,,,,,,,,,,,chosen stimuli: images/choice_trial_2.png,,,,,576fc3462984e70001a97fc3,16:59:44,27/03/2024
html-keyboard-response,64,127941,0.0-28.0-2.0,,,,delaylearn,learning,feedback_duration_window,iUPHZqxkJQN4cKRwvdlf0Mmb3Eg2,iUPHZqxkJQN4cKRwvdlf0Mmb3Eg2,,,,,,,,,,,,,,,,,,750.0,,,,576fc3462984e70001a97fc3,16:59:44,27/03/2024
html-keyboard-response,65,129445,0.0-28.0-3.0,,<div style='margin:auto;width: auto; font-size: 150%'><span style='font-weight: bold; font-size: 100px; color: green;'>+10 points!</span><br><br></div>,,delaylearn,learning,feedback_image_window,iUPHZqxkJQN4cKRwvdlf0Mmb3Eg2,iUPHZqxkJQN4cKRwvdlf0Mmb3Eg2,,,,,,,,,,,,,,,,,,,,,,576fc3462984e70001a97fc3,16:59:44,27/03/2024
html-keyboard-response,66,131798,0.0-29.0,,"<div style=""font-size:100px;"">+</div>",,delaylearn,learning,ITI,iUPHZqxkJQN4cKRwvdlf0Mmb3Eg2,iUPHZqxkJQN4cKRwvdlf0Mmb3Eg2,,,,,,,,,,,,,,,,,,,2349.0,,,576fc3462984e70001a97fc3,16:59:44,27/03/2024
html-keyboard-response,67,133968,0.0-30.0-0.0,2167.5,"<div style=""display: flex; flex-direction: column; align-items: center; margin-top: -40px;""><img src=""images/pattern_6.png"" style=""width: 234px; height: 230px; margin-top: -50px;""><div style=""display: flex; justify-content: space-between; margin-top: 33px;""><img src=""images/choice_trial_11.png"" style=""width: 408px; height: 417px; margin-right: 200px;""><img src=""images/choice_trial_5.png"" style=""width: 408px; height: 417px;""></div></div>",f,delaylearn,learning,trial,iUPHZqxkJQN4cKRwvdlf0Mmb3Eg2,iUPHZqxkJQN4cKRwvdlf0Mmb3Eg2,2.0,images/choice_trial_11.png,images/choice_trial_5.png,images/pattern_6.png,j,f,750.0,11.0,5.0,5.0,0.0,13.0,1.0,0.0,11.0,100.0,,,,,,576fc3462984e70001a97fc3,16:59:44,27/03/2024
html-keyboard-response,68,134971,0.0-30.0-1.0,,"<div style=""display: flex; flex-direction: column; align-items: center; margin-top: -40px;""><img src=""images/pattern_6.png"" style=""width: 234px; height: 230px; margin-top: -50px;""><div style=""display: flex; justify-content: space-between; margin-top: 33px;""><img src=""images/choice_trial_11.png"" style=""width: 408px; height: 417px; margin-right: 608px;""></div></div>",,delaylearn,learning,display_response,iUPHZqxkJQN4cKRwvdlf0Mmb3Eg2,iUPHZqxkJQN4cKRwvdlf0Mmb3Eg2,,,,,,,,,,,,,,,,,chosen stimuli: images/choice_trial_11.png,,,,,576fc3462984e70001a97fc3,16:59:44,27/03/2024
html-keyboard-response,69,135723,0.0-30.0-2.0,,,,delaylearn,learning,feedback_duration_window,iUPHZqxkJQN4cKRwvdlf0Mmb3Eg2,iUPHZqxkJQN4cKRwvdlf0Mmb3Eg2,,,,,,,,,,,,,,,,,,750.0,,,,576fc3462984e70001a97fc3,16:59:44,27/03/2024
html-keyboard-response,70,137226,0.0-30.0-3.0,,<div style='margin:auto;width: auto; font-size: 150%'><span style='font-weight: bold; font-size: 100px; color: red;'>0 points!</span><br><br></div>,,delaylearn,learning,feedback_image_window,iUPHZqxkJQN4cKRwvdlf0Mmb3Eg2,iUPHZqxkJQN4cKRwvdlf0Mmb3Eg2,,,,,,,,,,,,,,,,,,,,,,576fc3462984e70001a97fc3,16:59:44,27/03/2024
html-keyboard-response,71,137730,0.0-31.0-0.0,,,,,,mood_trial_fixation,iUPHZqxkJQN4cKRwvdlf0Mmb3Eg2,,,,,,,,,,,,,,,,,,,,,,,576fc3462984e70001a97fc3,16:59:44,27/03/2024
lmdlab-html-vas-response,72,141943,0.0-31.0-1.0,3206.0,How happy are you right now?,0.5,delaylearn,learning,mood_trial,iUPHZqxkJQN4cKRwvdlf0Mmb3Eg2,iUPHZqxkJQN4cKRwvdlf0Mmb3Eg2,,,,,,,,,,,,,,,,,,,,"['Very unhappy', 'Very happy']",,576fc3462984e70001a97fc3,16:59:44,27/03/2024
html-keyboard-response,73,143886,0.0-32.0,,"<div style=""font-size:100px;"">+</div>",,delaylearn,learning,ITI,iUPHZqxkJQN4cKRwvdlf0Mmb3Eg2,iUPHZqxkJQN4cKRwvdlf0Mmb3Eg2,,,,,,,,,,,,,,,,,,,1940.0,,,576fc3462984e70001a97fc3,16:59:44,27/03/2024
html-keyboard-response,74,145702,0.0-33.0-0.0,1811.5,"<div style=""display: flex; flex-direction: column; align-items: center; margin-top: -40px;""><img src=""images/pattern_1.png"" style=""width: 234px; height: 230px; margin-top: -50px;""><div style=""display: flex; justify-content: space-between; margin-top: 33px;""><img src=""images/choice_trial_10.png"" style=""width: 408px; height: 417px; margin-right: 200px;""><img src=""images/choice_trial_3.png"" style=""width: 408px; height: 417px;""></div></div>",f,delaylearn,learning,trial,iUPHZqxkJQN4cKRwvdlf0Mmb3Eg2,iUPHZqxkJQN4cKRwvdlf0Mmb3Eg2,2.0,images/choice_trial_10.png,images/choice_trial_3.png,images/pattern_1.png,j,j,7000.0,10.0,3.0,1.0,1.0,14.0,0.0,0.0,10.0,100.0,,,,,,576fc3462984e70001a97fc3,16:59:44,27/03/2024
html-keyboard-response,75,146706,0.0-33.0-1.0,,"<div style=""display: flex; flex-direction: column; align-items: center; margin-top: -40px;""><img src=""images/pattern_1.png"" style=""width: 234px; height: 230px; margin-top: -50px;""><div style=""display: flex; justify-content: space-between; margin-top: 33px;""><img src=""images/choice_trial_10.png"" style=""width: 408px; height: 417px; margin-right: 608px;""></div></div>",,delaylearn,learning,display_response,iUPHZqxkJQN4cKRwvdlf0Mmb3Eg2,iUPHZqxkJQN4cKRwvdlf0Mmb3Eg2,,,,,,,,,,,,,,,,,chosen stimuli: images/choice_trial_10.png,,,,,576fc3462984e70001a97fc3,16:59:44,27/03/2024
html-keyboard-response,76,153708,0.0-33.0-2.0,,,,delaylearn,learning,feedback_duration_window,iUPHZqxkJQN4cKRwvdlf0Mmb3Eg2,iUPHZqxkJQN4cKRwvdlf0Mmb3Eg2,,,,,,,,,,,,,,,,,,7000.0,,,,576fc3462984e70001a97fc3,16:59:44,27/03/2024
html-keyboard-response,77,155213,0.0-33.0-3.0,,<div style='margin:auto;width: auto; font-size: 150%'><span style='font-weight: bold; font-size: 100px; color: red;'>0 points!</span><br><br></div>,,delaylearn,learning,feedback_image_window,iUPHZqxkJQN4cKRwvdlf0Mmb3Eg2,iUPHZqxkJQN4cKRwvdlf0Mmb3Eg2,,,,,,,,,,,,,,,,,,,,,,576fc3462984e70001a97fc3,16:59:44,27/03/2024
html-keyboard-response,78,157701,0.0-34.0,,"<div style=""font-size:100px;"">+</div>",,delaylearn,learning,ITI,iUPHZqxkJQN4cKRwvdlf0Mmb3Eg2,iUPHZqxkJQN4cKRwvdlf0Mmb3Eg2,,,,,,,,,,,,,,,,,,,2486.0,,,576fc3462984e70001a97fc3,16:59:44,27/03/2024
html-keyboard-response,79,159787,0.0-35.0-0.0,2083.4000000953674,"<div style=""display: flex; flex-direction: column; align-items: center; margin-top: -40px;""><img src=""images/pattern_3.png"" style=""width: 234px; height: 230px; margin-top: -50px;""><div style=""display: flex; justify-content: space-between; margin-top: 33px;""><img src=""images/choice_trial_14.png"" style=""width: 408px; height: 417px; margin-right: 200px;""><img src=""images/choice_trial_12.png"" style=""width: 408px; height: 417px;""></div></div>",f,delaylearn,learning,trial,iUPHZqxkJQN4cKRwvdlf0Mmb3Eg2,iUPHZqxkJQN4cKRwvdlf0Mmb3Eg2,2.0,images/choice_trial_14.png,images/choice_trial_12.png,images/pattern_3.png,f,j,7000.0,14.0,12.0,2.0,1.0,15.0,0.0,1.0,14.0,110.0,,,,,,576fc3462984e70001a97fc3,16:59:44,27/03/2024
html-keyboard-response,80,160792,0.0-35.0-1.0,,"<div style=""display: flex; flex-direction: column; align-items: center; margin-top: -40px;""><img src=""images/pattern_3.png"" style=""width: 234px; height: 230px; margin-top: -50px;""><div style=""display: flex; justify-content: space-between; margin-top: 33px;""><img src=""images/choice_trial_14.png"" style=""width: 408px; height: 417px; margin-right: 608px;""></div></div>",,delaylearn,learning,display_response,iUPHZqxkJQN4cKRwvdlf0Mmb3Eg2,iUPHZqxkJQN4cKRwvdlf0Mmb3Eg2,,,,,,,,,,,,,,,,,chosen stimuli: images/choice_trial_14.png,,,,,576fc3462984e70001a97fc3,16:59:44,27/03/2024
html-keyboard-response,81,167795,0.0-35.0-2.0,,,,delaylearn,learning,feedback_duration_window,iUPHZqxkJQN4cKRwvdlf0Mmb3Eg2,iUPHZqxkJQN4cKRwvdlf0Mmb3Eg2,,,,,,,,,,,,,,,,,,7000.0,,,,576fc3462984e70001a97fc3,16:59:44,27/03/2024
html-keyboard-response,82,169300,0.0-35.0-3.0,,<div style='margin:auto;width: auto; font-size: 150%'><span style='font-weight: bold; font-size: 100px; color: green;'>+10 points!</span><br><br></div>,,delaylearn,learning,feedback_image_window,iUPHZqxkJQN4cKRwvdlf0Mmb3Eg2,iUPHZqxkJQN4cKRwvdlf0Mmb3Eg2,,,,,,,,,,,,,,,,,,,,,,576fc3462984e70001a97fc3,16:59:44,27/03/2024
html-keyboard-response,83,171414,0.0-36.0,,"<div style=""font-size:100px;"">+</div>",,delaylearn,learning,ITI,iUPHZqxkJQN4cKRwvdlf0Mmb3Eg2,iUPHZqxkJQN4cKRwvdlf0Mmb3Eg2,,,,,,,,,,,,,,,,,,,2111.0,,,576fc3462984e70001a97fc3,16:59:44,27/03/2024
html-keyboard-response,84,172866,0.0-37.0-0.0,1448.5999999046326,"<div style=""display: flex; flex-direction: column; align-items: center; margin-top: -40px;""><img src=""images/pattern_5.png"" style=""width: 234px; height: 230px; margin-top: -50px;""><div style=""display: flex; justify-content: space-between; margin-top: 33px;""><img src=""images/choice_trial_2.png"" style=""width: 408px; height: 417px; margin-right: 200px;""><img src=""images/choice_trial_9.png"" style=""width: 408px; height: 417px;""></div></div>",f,delaylearn,learning,trial,iUPHZqxkJQN4cKRwvdlf0Mmb3Eg2,iUPHZqxkJQN4cKRwvdlf0Mmb3Eg2,2.0,images/choice_trial_2.png,images/choice_trial_9.png,images/pattern_5.png,f,f,750.0,2.0,9.0,4.0,0.0,16.0,1.0,1.0,2.0,120.0,,,,,,576fc3462984e70001a97fc3,16:59:44,27/03/2024
html-keyboard-response,85,173869,0.0-37.0-1.0,,"<div style=""display: flex; flex-direction: column; align-items: center; margin-top: -40px;""><img src=""images/pattern_5.png"" style=""width: 234px; height: 230px; margin-top: -50px;""><div style=""display: flex; justify-content: space-between; margin-top: 33px;""><img src=""images/choice_trial_2.png"" style=""width: 408px; height: 417px; margin-right: 608px;""></div></div>",,delaylearn,learning,display_response,iUPHZqxkJQN4cKRwvdlf0Mmb3Eg2,iUPHZqxkJQN4cKRwvdlf0Mmb3Eg2,,,,,,,,,,,,,,,,,chosen stimuli: images/choice_trial_2.png,,,,,576fc3462984e70001a97fc3,16:59:44,27/03/2024
html-keyboard-response,86,174623,0.0-37.0-2.0,,,,delaylearn,learning,feedback_duration_window,iUPHZqxkJQN4cKRwvdlf0Mmb3Eg2,iUPHZqxkJQN4cKRwvdlf0Mmb3Eg2,,,,,,,,,,,,,,,,,,750.0,,,,576fc3462984e70001a97fc3,16:59:44,27/03/2024
html-keyboard-response,87,176127,0.0-37.0-3.0,,<div style='margin:auto;width: auto; font-size: 150%'><span style='font-weight: bold; font-size: 100px; color: green;'>+10 points!</span><br><br></div>,,delaylearn,learning,feedback_image_window,iUPHZqxkJQN4cKRwvdlf0Mmb3Eg2,iUPHZqxkJQN4cKRwvdlf0Mmb3Eg2,,,,,,,,,,,,,,,,,,,,,,576fc3462984e70001a97fc3,16:59:44,27/03/2024
html-keyboard-response,88,176631,0.0-38.0-0.0,,,,,,mood_trial_fixation,iUPHZqxkJQN4cKRwvdlf0Mmb3Eg2,,,,,,,,,,,,,,,,,,,,,,,576fc3462984e70001a97fc3,16:59:44,27/03/2024
lmdlab-html-vas-response,89,181230,0.0-38.0-1.0,3591.0,How happy are you right now?,0.5158730158730159,delaylearn,learning,mood_trial,iUPHZqxkJQN4cKRwvdlf0Mmb3Eg2,iUPHZqxkJQN4cKRwvdlf0Mmb3Eg2,,,,,,,,,,,,,,,,,,,,"['Very unhappy', 'Very happy']",,576fc3462984e70001a97fc3,16:59:44,27/03/2024
html-keyboard-response,90,182811,0.0-39.0,,"<div style=""font-size:100px;"">+</div>",,delaylearn,learning,ITI,iUPHZqxkJQN4cKRwvdlf0Mmb3Eg2,iUPHZqxkJQN4cKRwvdlf0Mmb3Eg2,,,,,,,,,,,,,,,,,,,1578.0,,,576fc3462984e70001a97fc3,16:59:44,27/03/2024
html-keyboard-response,91,184659,0.0-40.0-0.0,1845.5,"<div style=""display: flex; flex-direction: column; align-items: center; margin-top: -40px;""><img src=""images/pattern_6.png"" style=""width: 234px; height: 230px; margin-top: -50px;""><div style=""display: flex; justify-content: space-between; margin-top: 33px;""><img src=""images/choice_trial_11.png"" style=""width: 408px; height: 417px; margin-right: 200px;""><img src=""images/choice_trial_5.png"" style=""width: 408px; height: 417px;""></div></div>",j,delaylearn,learning,trial,iUPHZqxkJQN4cKRwvdlf0Mmb3Eg2,iUPHZqxkJQN4cKRwvdlf0Mmb3Eg2,2.0,images/choice_trial_11.png,images/choice_trial_5.png,images/pattern_6.png,f,f,750.0,11.0,5.0,5.0,0.0,17.0,0.0,0.0,5.0,120.0,,,,,,576fc3462984e70001a97fc3,16:59:44,27/03/2024
html-keyboard-response,92,185663,0.0-40.0-1.0,,"<div style=""display: flex; flex-direction: column; align-items: center; margin-top: -40px;""><img src=""images/pattern_6.png"" style=""width: 234px; height: 230px; margin-top: -50px;""><div style=""display: flex; justify-content: space-between; margin-top: 33px;""><img src=""images/choice_trial_5.png"" style=""width: 408px; height: 417px; margin-left:608px;""></div></div>",,delaylearn,learning,display_response,iUPHZqxkJQN4cKRwvdlf0Mmb3Eg2,iUPHZqxkJQN4cKRwvdlf0Mmb3Eg2,,,,,,,,,,,,,,,,,chosen stimuli: images/choice_trial_5.png,,,,,576fc3462984e70001a97fc3,16:59:44,27/03/2024
html-keyboard-response,93,186417,0.0-40.0-2.0,,,,delaylearn,learning,feedback_duration_window,iUPHZqxkJQN4cKRwvdlf0Mmb3Eg2,iUPHZqxkJQN4cKRwvdlf0Mmb3Eg2,,,,,,,,,,,,,,,,,,750.0,,,,576fc3462984e70001a97fc3,16:59:44,27/03/2024
html-keyboard-response,94,187921,0.0-40.0-3.0,,<div style='margin:auto;width: auto; font-size: 150%'><span style='font-weight: bold; font-size: 100px; color: red;'>0 points!</span><br><br></div>,,delaylearn,learning,feedback_image_window,iUPHZqxkJQN4cKRwvdlf0Mmb3Eg2,iUPHZqxkJQN4cKRwvdlf0Mmb3Eg2,,,,,,,,,,,,,,,,,,,,,,576fc3462984e70001a97fc3,16:59:44,27/03/2024
html-keyboard-response,95,189534,0.0-41.0,,"<div style=""font-size:100px;"">+</div>",,delaylearn,learning,ITI,iUPHZqxkJQN4cKRwvdlf0Mmb3Eg2,iUPHZqxkJQN4cKRwvdlf0Mmb3Eg2,,,,,,,,,,,,,,,,,,,1609.0,,,576fc3462984e70001a97fc3,16:59:44,27/03/2024
html-keyboard-response,96,191242,0.0-42.0-0.0,1704.4000000953674,"<div style=""display: flex; flex-direction: column; align-items: center; margin-top: -40px;""><img src=""images/pattern_4.png"" style=""width: 234px; height: 230px; margin-top: -50px;""><div style=""display: flex; justify-content: space-between; margin-top: 33px;""><img src=""images/choice_trial_16.png"" style=""width: 408px; height: 417px; margin-right: 200px;""><img src=""images/choice_trial_4.png"" style=""width: 408px; height: 417px;""></div></div>",f,delaylearn,learning,trial,iUPHZqxkJQN4cKRwvdlf0Mmb3Eg2,iUPHZqxkJQN4cKRwvdlf0Mmb3Eg2,2.0,images/choice_trial_16.png,images/choice_trial_4.png,images/pattern_4.png,j,j,7000.0,16.0,4.0,3.0,1.0,18.0,0.0,0.0,16.0,120.0,,,,,,576fc3462984e70001a97fc3,16:59:44,27/03/2024
html-keyboard-response,97,192245,0.0-42.0-1.0,,"<div style=""display: flex; flex-direction: column; align-items: center; margin-top: -40px;""><img src=""images/pattern_4.png"" style=""width: 234px; height: 230px; margin-top: -50px;""><div style=""display: flex; justify-content: space-between; margin-top: 33px;""><img src=""images/choice_trial_16.png"" style=""width: 408px; height: 417px; margin-right: 608px;""></div></div>",,delaylearn,learning,display_response,iUPHZqxkJQN4cKRwvdlf0Mmb3Eg2,iUPHZqxkJQN4cKRwvdlf0Mmb3Eg2,,,,,,,,,,,,,,,,,chosen stimuli: images/choice_trial_16.png,,,,,576fc3462984e70001a97fc3,16:59:44,27/03/2024
html-keyboard-response,98,199248,0.0-42.0-2.0,,,,delaylearn,learning,feedback_duration_window,iUPHZqxkJQN4cKRwvdlf0Mmb3Eg2,iUPHZqxkJQN4cKRwvdlf0Mmb3Eg2,,,,,,,,,,,,,,,,,,7000.0,,,,576fc3462984e70001a97fc3,16:59:44,27/03/2024
html-keyboard-response,99,200751,0.0-42.0-3.0,,<div style='margin:auto;width: auto; font-size: 150%'><span style='font-weight: bold; font-size: 100px; color: red;'>0 points!</span><br><br></div>,,delaylearn,learning,feedback_image_window,iUPHZqxkJQN4cKRwvdlf0Mmb3Eg2,iUPHZqxkJQN4cKRwvdlf0Mmb3Eg2,,,,,,,,,,,,,,,,,,,,,,576fc3462984e70001a97fc3,16:59:44,27/03/2024
html-keyboard-response,100,203128,0.0-43.0,,"<div style=""font-size:100px;"">+</div>",,delaylearn,learning,ITI,iUPHZqxkJQN4cKRwvdlf0Mmb3Eg2,iUPHZqxkJQN4cKRwvdlf0Mmb3Eg2,,,,,,,,,,,,,,,,,,,2376.0,,,576fc3462984e70001a97fc3,16:59:44,27/03/2024
html-keyboard-response,101,204253,0.0-44.0-0.0,1123.5,"<div style=""display: flex; flex-direction: column; align-items: center; margin-top: -40px;""><img src=""images/pattern_7.png"" style=""width: 234px; height: 230px; margin-top: -50px;""><div style=""display: flex; justify-content: space-between; margin-top: 33px;""><img src=""images/choice_trial_8.png"" style=""width: 408px; height: 417px; margin-right: 200px;""><img src=""images/choice_trial_15.png"" style=""width: 408px; height: 417px;""></div></div>",f,delaylearn,learning,trial,iUPHZqxkJQN4cKRwvdlf0Mmb3Eg2,iUPHZqxkJQN4cKRwvdlf0Mmb3Eg2,2.0,images/choice_trial_8.png,images/choice_trial_15.png,images/pattern_7.png,j,f,750.0,8.0,15.0,6.0,0.0,19.0,1.0,0.0,8.0,120.0,,,,,,576fc3462984e70001a97fc3,16:59:44,27/03/2024
html-keyboard-response,102,205258,0.0-44.0-1.0,,"<div style=""display: flex; flex-direction: column; align-items: center; margin-top: -40px;""><img src=""images/pattern_7.png"" style=""width: 234px; height: 230px; margin-top: -50px;""><div style=""display: flex; justify-content: space-between; margin-top: 33px;""><img src=""images/choice_trial_8.png"" style=""width: 408px; height: 417px; margin-right: 608px;""></div></div>",,delaylearn,learning,display_response,iUPHZqxkJQN4cKRwvdlf0Mmb3Eg2,iUPHZqxkJQN4cKRwvdlf0Mmb3Eg2,,,,,,,,,,,,,,,,,chosen stimuli: images/choice_trial_8.png,,,,,576fc3462984e70001a97fc3,16:59:44,27/03/2024
html-keyboard-response,103,206012,0.0-44.0-2.0,,,,delaylearn,learning,feedback_duration_window,iUPHZqxkJQN4cKRwvdlf0Mmb3Eg2,iUPHZqxkJQN4cKRwvdlf0Mmb3Eg2,,,,,,,,,,,,,,,,,,750.0,,,,576fc3462984e70001a97fc3,16:59:44,27/03/2024
html-keyboard-response,104,207516,0.0-44.0-3.0,,<div style='margin:auto;width: auto; font-size: 150%'><span style='font-weight: bold; font-size: 100px; color: red;'>0 points!</span><br><br></div>,,delaylearn,learning,feedback_image_window,iUPHZqxkJQN4cKRwvdlf0Mmb3Eg2,iUPHZqxkJQN4cKRwvdlf0Mmb3Eg2,,,,,,,,,,,,,,,,,,,,,,576fc3462984e70001a97fc3,16:59:44,27/03/2024
html-keyboard-response,105,209443,0.0-45.0,,"<div style=""font-size:100px;"">+</div>",,delaylearn,learning,ITI,iUPHZqxkJQN4cKRwvdlf0Mmb3Eg2,iUPHZqxkJQN4cKRwvdlf0Mmb3Eg2,,,,,,,,,,,,,,,,,,,1924.0,,,576fc3462984e70001a97fc3,16:59:44,27/03/2024
html-keyboard-response,106,212249,0.0-46.0-0.0,2800.9000000953674,"<div style=""display: flex; flex-direction: column; align-items: center; margin-top: -40px;""><img src=""images/pattern_1.png"" style=""width: 234px; height: 230px; margin-top: -50px;""><div style=""display: flex; justify-content: space-between; margin-top: 33px;""><img src=""images/choice_trial_3.png"" style=""width: 408px; height: 417px; margin-right: 200px;""><img src=""images/choice_trial_10.png"" style=""width: 408px; height: 417px;""></div></div>",f,delaylearn,learning,trial,iUPHZqxkJQN4cKRwvdlf0Mmb3Eg2,iUPHZqxkJQN4cKRwvdlf0Mmb3Eg2,2.0,images/choice_trial_3.png,images/choice_trial_10.png,images/pattern_1.png,f,f,7000.0,3.0,10.0,1.0,0.0,20.0,1.0,1.0,3.0,130.0,,,,,,576fc3462984e70001a97fc3,16:59:44,27/03/2024
html-keyboard-response,107,213253,0.0-46.0-1.0,,"<div style=""display: flex; flex-direction: column; align-items: center; margin-top: -40px;""><img src=""images/pattern_1.png"" style=""width: 234px; height: 230px; margin-top: -50px;""><div style=""display: flex; justify-content: space-between; margin-top: 33px;""><img src=""images/choice_trial_3.png"" style=""width: 408px; height: 417px; margin-right: 608px;""></div></div>",,delaylearn,learning,display_response,iUPHZqxkJQN4cKRwvdlf0Mmb3Eg2,iUPHZqxkJQN4cKRwvdlf0Mmb3Eg2,,,,,,,,,,,,,,,,,chosen stimuli: images/choice_trial_3.png,,,,,576fc3462984e70001a97fc3,16:59:44,27/03/2024
html-keyboard-response,108,220256,0.0-46.0-2.0,,,,delaylearn,learning,feedback_duration_window,iUPHZqxkJQN4cKRwvdlf0Mmb3Eg2,iUPHZqxkJQN4cKRwvdlf0Mmb3Eg2,,,,,,,,,,,,,,,,,,7000.0,,,,576fc3462984e70001a97fc3,16:59:44,27/03/2024
html-keyboard-response,109,221759,0.0-46.0-3.0,,<div style='margin:auto;width: auto; font-size: 150%'><span style='font-weight: bold; font-size: 100px; color: green;'>+10 points!</span><br><br></div>,,delaylearn,learning,feedback_image_window,iUPHZqxkJQN4cKRwvdlf0Mmb3Eg2,iUPHZqxkJQN4cKRwvdlf0Mmb3Eg2,,,,,,,,,,,,,,,,,,,,,,576fc3462984e70001a97fc3,16:59:44,27/03/2024
html-keyboard-response,110,224103,0.0-47.0,,"<div style=""font-size:100px;"">+</div>",,delaylearn,learning,ITI,iUPHZqxkJQN4cKRwvdlf0Mmb3Eg2,iUPHZqxkJQN4cKRwvdlf0Mmb3Eg2,,,,,,,,,,,,,,,,,,,2341.0,,,576fc3462984e70001a97fc3,16:59:44,27/03/2024
html-keyboard-response,111,225492,0.0-48.0-0.0,1384.7000000476837,"<div style=""display: flex; flex-direction: column; align-items: center; margin-top: -40px;""><img src=""images/pattern_6.png"" style=""width: 234px; height: 230px; margin-top: -50px;""><div style=""display: flex; justify-content: space-between; margin-top: 33px;""><img src=""images/choice_trial_5.png"" style=""width: 408px; height: 417px; margin-right: 200px;""><img src=""images/choice_trial_11.png"" style=""width: 408px; height: 417px;""></div></div>",f,delaylearn,learning,trial,iUPHZqxkJQN4cKRwvdlf0Mmb3Eg2,iUPHZqxkJQN4cKRwvdlf0Mmb3Eg2,2.0,images/choice_trial_5.png,images/choice_trial_11.png,images/pattern_6.png,j,j,750.0,5.0,11.0,5.0,1.0,21.0,0.0,0.0,5.0,130.0,,,,,,576fc3462984e70001a97fc3,16:59:44,27/03/2024
html-keyboard-response,112,226496,0.0-48.0-1.0,,"<div style=""display: flex; flex-direction: column; align-items: center; margin-top: -40px;""><img src=""images/pattern_6.png"" style=""width: 234px; height: 230px; margin-top: -50px;""><div style=""display: flex; justify-content: space-between; margin-top: 33px;""><img src=""images/choice_trial_5.png"" style=""width: 408px; height: 417px; margin-right: 608px;""></div></div>",,delaylearn,learning,display_response,iUPHZqxkJQN4cKRwvdlf0Mmb3Eg2,iUPHZqxkJQN4cKRwvdlf0Mmb3Eg2,,,,,,,,,,,,,,,,,chosen stimuli: images/choice_trial_5.png,,,,,576fc3462984e70001a97fc3,16:59:44,27/03/2024
html-keyboard-response,113,227249,0.0-48.0-2.0,,,,delaylearn,learning,feedback_duration_window,iUPHZqxkJQN4cKRwvdlf0Mmb3Eg2,iUPHZqxkJQN4cKRwvdlf0Mmb3Eg2,,,,,,,,,,,,,,,,,,750.0,,,,576fc3462984e70001a97fc3,16:59:44,27/03/2024
html-keyboard-response,114,228753,0.0-48.0-3.0,,<div style='margin:auto;width: auto; font-size: 150%'><span style='font-weight: bold; font-size: 100px; color: red;'>0 points!</span><br><br></div>,,delaylearn,learning,feedback_image_window,iUPHZqxkJQN4cKRwvdlf0Mmb3Eg2,iUPHZqxkJQN4cKRwvdlf0Mmb3Eg2,,,,,,,,,,,,,,,,,,,,,,576fc3462984e70001a97fc3,16:59:44,27/03/2024
html-keyboard-response,115,231197,0.0-49.0,,"<div style=""font-size:100px;"">+</div>",,delaylearn,learning,ITI,iUPHZqxkJQN4cKRwvdlf0Mmb3Eg2,iUPHZqxkJQN4cKRwvdlf0Mmb3Eg2,,,,,,,,,,,,,,,,,,,2440.0,,,576fc3462984e70001a97fc3,16:59:44,27/03/2024
html-keyboard-response,116,234059,0.0-50.0-0.0,2857.300000190735,"<div style=""display: flex; flex-direction: column; align-items: center; margin-top: -40px;""><img src=""images/pattern_4.png"" style=""width: 234px; height: 230px; margin-top: -50px;""><div style=""display: flex; justify-content: space-between; margin-top: 33px;""><img src=""images/choice_trial_4.png"" style=""width: 408px; height: 417px; margin-right: 200px;""><img src=""images/choice_trial_16.png"" style=""width: 408px; height: 417px;""></div></div>",j,delaylearn,learning,trial,iUPHZqxkJQN4cKRwvdlf0Mmb3Eg2,iUPHZqxkJQN4cKRwvdlf0Mmb3Eg2,2.0,images/choice_trial_4.png,images/choice_trial_16.png,images/pattern_4.png,f,f,7000.0,4.0,16.0,3.0,0.0,22.0,0.0,0.0,16.0,130.0,,,,,,576fc3462984e70001a97fc3,16:59:44,27/03/2024
html-keyboard-response,117,235064,0.0-50.0-1.0,,"<div style=""display: flex; flex-direction: column; align-items: center; margin-top: -40px;""><img src=""images/pattern_4.png"" style=""width: 234px; height: 230px; margin-top: -50px;""><div style=""display: flex; justify-content: space-between; margin-top: 33px;""><img src=""images/choice_trial_16.png"" style=""width: 408px; height: 417px; margin-left:608px;""></div></div>",,delaylearn,learning,display_response,iUPHZqxkJQN4cKRwvdlf0Mmb3Eg2,iUPHZqxkJQN4cKRwvdlf0Mmb3Eg2,,,,,,,,,,,,,,,,,chosen stimuli: images/choice_trial_16.png,,,,,576fc3462984e70001a97fc3,16:59:44,27/03/2024
html-keyboard-response,118,242067,0.0-50.0-2.0,,,,delaylearn,learning,feedback_duration_window,iUPHZqxkJQN4cKRwvdlf0Mmb3Eg2,iUPHZqxkJQN4cKRwvdlf0Mmb3Eg2,,,,,,,,,,,,,,,,,,7000.0,,,,576fc3462984e70001a97fc3,16:59:44,27/03/2024
html-keyboard-response,119,243570,0.0-50.0-3.0,,<div style='margin:auto;width: auto; font-size: 150%'><span style='font-weight: bold; font-size: 100px; color: red;'>0 points!</span><br><br></div>,,delaylearn,learning,feedback_image_window,iUPHZqxkJQN4cKRwvdlf0Mmb3Eg2,iUPHZqxkJQN4cKRwvdlf0Mmb3Eg2,,,,,,,,,,,,,,,,,,,,,,576fc3462984e70001a97fc3,16:59:44,27/03/2024
html-keyboard-response,120,244074,0.0-51.0-0.0,,,,,,mood_trial_fixation,iUPHZqxkJQN4cKRwvdlf0Mmb3Eg2,,,,,,,,,,,,,,,,,,,,,,,576fc3462984e70001a97fc3,16:59:44,27/03/2024
lmdlab-html-vas-response,121,248209,0.0-51.0-1.0,3128.0,How happy are you right now?,0.42416225749559083,delaylearn,learning,mood_trial,iUPHZqxkJQN4cKRwvdlf0Mmb3Eg2,iUPHZqxkJQN4cKRwvdlf0Mmb3Eg2,,,,,,,,,,,,,,,,,,,,"['Very unhappy', 'Very happy']",,576fc3462984e70001a97fc3,16:59:44,27/03/2024
html-keyboard-response,122,250373,0.0-52.0,,"<div style=""font-size:100px;"">+</div>",,delaylearn,learning,ITI,iUPHZqxkJQN4cKRwvdlf0Mmb3Eg2,iUPHZqxkJQN4cKRwvdlf0Mmb3Eg2,,,,,,,,,,,,,,,,,,,2162.0,,,576fc3462984e70001a97fc3,16:59:44,27/03/2024
html-keyboard-response,123,251464,0.0-53.0-0.0,1086.7000000476837,"<div style=""display: flex; flex-direction: column; align-items: center; margin-top: -40px;""><img src=""images/pattern_7.png"" style=""width: 234px; height: 230px; margin-top: -50px;""><div style=""display: flex; justify-content: space-between; margin-top: 33px;""><img src=""images/choice_trial_15.png"" style=""width: 408px; height: 417px; margin-right: 200px;""><img src=""images/choice_trial_8.png"" style=""width: 408px; height: 417px;""></div></div>",j,delaylearn,learning,trial,iUPHZqxkJQN4cKRwvdlf0Mmb3Eg2,iUPHZqxkJQN4cKRwvdlf0Mmb3Eg2,2.0,images/choice_trial_15.png,images/choice_trial_8.png,images/pattern_7.png,j,j,750.0,15.0,8.0,6.0,1.0,23.0,1.0,1.0,8.0,140.0,,,,,,576fc3462984e70001a97fc3,16:59:44,27/03/2024
html-keyboard-response,124,252468,0.0-53.0-1.0,,"<div style=""display: flex; flex-direction: column; align-items: center; margin-top: -40px;""><img src=""images/pattern_7.png"" style=""width: 234px; height: 230px; margin-top: -50px;""><div style=""display: flex; justify-content: space-between; margin-top: 33px;""><img src=""images/choice_trial_8.png"" style=""width: 408px; height: 417px; margin-left:608px;""></div></div>",,delaylearn,learning,display_response,iUPHZqxkJQN4cKRwvdlf0Mmb3Eg2,iUPHZqxkJQN4cKRwvdlf0Mmb3Eg2,,,,,,,,,,,,,,,,,chosen stimuli: images/choice_trial_8.png,,,,,576fc3462984e70001a97fc3,16:59:44,27/03/2024
html-keyboard-response,125,253220,0.0-53.0-2.0,,,,delaylearn,learning,feedback_duration_window,iUPHZqxkJQN4cKRwvdlf0Mmb3Eg2,iUPHZqxkJQN4cKRwvdlf0Mmb3Eg2,,,,,,,,,,,,,,,,,,750.0,,,,576fc3462984e70001a97fc3,16:59:44,27/03/2024
html-keyboard-response,126,254724,0.0-53.0-3.0,,<div style='margin:auto;width: auto; font-size: 150%'><span style='font-weight: bold; font-size: 100px; color: green;'>+10 points!</span><br><br></div>,,delaylearn,learning,feedback_image_window,iUPHZqxkJQN4cKRwvdlf0Mmb3Eg2,iUPHZqxkJQN4cKRwvdlf0Mmb3Eg2,,,,,,,,,,,,,,,,,,,,,,576fc3462984e70001a97fc3,16:59:44,27/03/2024
html-keyboard-response,127,256920,0.0-54.0,,"<div style=""font-size:100px;"">+</div>",,delaylearn,learning,ITI,iUPHZqxkJQN4cKRwvdlf0Mmb3Eg2,iUPHZqxkJQN4cKRwvdlf0Mmb3Eg2,,,,,,,,,,,,,,,,,,,2192.0,,,576fc3462984e70001a97fc3,16:59:44,27/03/2024
html-keyboard-response,128,258980,0.0-55.0-0.0,2056.5,"<div style=""display: flex; flex-direction: column; align-items: center; margin-top: -40px;""><img src=""images/pattern_1.png"" style=""width: 234px; height: 230px; margin-top: -50px;""><div style=""display: flex; justify-content: space-between; margin-top: 33px;""><img src=""images/choice_trial_10.png"" style=""width: 408px; height: 417px; margin-right: 200px;""><img src=""images/choice_trial_3.png"" style=""width: 408px; height: 417px;""></div></div>",j,delaylearn,learning,trial,iUPHZqxkJQN4cKRwvdlf0Mmb3Eg2,iUPHZqxkJQN4cKRwvdlf0Mmb3Eg2,2.0,images/choice_trial_10.png,images/choice_trial_3.png,images/pattern_1.png,f,j,7000.0,10.0,3.0,1.0,1.0,24.0,1.0,0.0,3.0,140.0,,,,,,576fc3462984e70001a97fc3,16:59:44,27/03/2024
html-keyboard-response,129,259984,0.0-55.0-1.0,,"<div style=""display: flex; flex-direction: column; align-items: center; margin-top: -40px;""><img src=""images/pattern_1.png"" style=""width: 234px; height: 230px; margin-top: -50px;""><div style=""display: flex; justify-content: space-between; margin-top: 33px;""><img src=""images/choice_trial_3.png"" style=""width: 408px; height: 417px; margin-left:608px;""></div></div>",,delaylearn,learning,display_response,iUPHZqxkJQN4cKRwvdlf0Mmb3Eg2,iUPHZqxkJQN4cKRwvdlf0Mmb3Eg2,,,,,,,,,,,,,,,,,chosen stimuli: images/choice_trial_3.png,,,,,576fc3462984e70001a97fc3,16:59:44,27/03/2024
html-keyboard-response,130,266987,0.0-55.0-2.0,,,,delaylearn,learning,feedback_duration_window,iUPHZqxkJQN4cKRwvdlf0Mmb3Eg2,iUPHZqxkJQN4cKRwvdlf0Mmb3Eg2,,,,,,,,,,,,,,,,,,7000.0,,,,576fc3462984e70001a97fc3,16:59:44,27/03/2024
html-keyboard-response,131,268491,0.0-55.0-3.0,,<div style='margin:auto;width: auto; font-size: 150%'><span style='font-weight: bold; font-size: 100px; color: red;'>0 points!</span><br><br></div>,,delaylearn,learning,feedback_image_window,iUPHZqxkJQN4cKRwvdlf0Mmb3Eg2,iUPHZqxkJQN4cKRwvdlf0Mmb3Eg2,,,,,,,,,,,,,,,,,,,,,,576fc3462984e70001a97fc3,16:59:44,27/03/2024
html-keyboard-response,132,270922,0.0-56.0,,"<div style=""font-size:100px;"">+</div>",,delaylearn,learning,ITI,iUPHZqxkJQN4cKRwvdlf0Mmb3Eg2,iUPHZqxkJQN4cKRwvdlf0Mmb3Eg2,,,,,,,,,,,,,,,,,,,2427.0,,,576fc3462984e70001a97fc3,16:59:44,27/03/2024
html-keyboard-response,133,271967,0.0-57.0-0.0,1041.8999998569489,"<div style=""display: flex; flex-direction: column; align-items: center; margin-top: -40px;""><img src=""images/pattern_5.png"" style=""width: 234px; height: 230px; margin-top: -50px;""><div style=""display: flex; justify-content: space-between; margin-top: 33px;""><img src=""images/choice_trial_9.png"" style=""width: 408px; height: 417px; margin-right: 200px;""><img src=""images/choice_trial_2.png"" style=""width: 408px; height: 417px;""></div></div>",j,delaylearn,learning,trial,iUPHZqxkJQN4cKRwvdlf0Mmb3Eg2,iUPHZqxkJQN4cKRwvdlf0Mmb3Eg2,2.0,images/choice_trial_9.png,images/choice_trial_2.png,images/pattern_5.png,j,j,750.0,9.0,2.0,4.0,1.0,25.0,1.0,1.0,2.0,150.0,,,,,,576fc3462984e70001a97fc3,16:59:44,27/03/2024
html-keyboard-response,134,272970,0.0-57.0-1.0,,"<div style=""display: flex; flex-direction: column; align-items: center; margin-top: -40px;""><img src=""images/pattern_5.png"" style=""width: 234px; height: 230px; margin-top: -50px;""><div style=""display: flex; justify-content: space-between; margin-top: 33px;""><img src=""images/choice_trial_2.png"" style=""width: 408px; height: 417px; margin-left:608px;""></div></div>",,delaylearn,learning,display_response,iUPHZqxkJQN4cKRwvdlf0Mmb3Eg2,iUPHZqxkJQN4cKRwvdlf0Mmb3Eg2,,,,,,,,,,,,,,,,,chosen stimuli: images/choice_trial_2.png,,,,,576fc3462984e70001a97fc3,16:59:44,27/03/2024
html-keyboard-response,135,273725,0.0-57.0-2.0,,,,delaylearn,learning,feedback_duration_window,iUPHZqxkJQN4cKRwvdlf0Mmb3Eg2,iUPHZqxkJQN4cKRwvdlf0Mmb3Eg2,,,,,,,,,,,,,,,,,,750.0,,,,576fc3462984e70001a97fc3,16:59:44,27/03/2024
html-keyboard-response,136,275229,0.0-57.0-3.0,,<div style='margin:auto;width: auto; font-size: 150%'><span style='font-weight: bold; font-size: 100px; color: green;'>+10 points!</span><br><br></div>,,delaylearn,learning,feedback_image_window,iUPHZqxkJQN4cKRwvdlf0Mmb3Eg2,iUPHZqxkJQN4cKRwvdlf0Mmb3Eg2,,,,,,,,,,,,,,,,,,,,,,576fc3462984e70001a97fc3,16:59:44,27/03/2024
html-keyboard-response,137,276767,0.0-58.0,,"<div style=""font-size:100px;"">+</div>",,delaylearn,learning,ITI,iUPHZqxkJQN4cKRwvdlf0Mmb3Eg2,iUPHZqxkJQN4cKRwvdlf0Mmb3Eg2,,,,,,,,,,,,,,,,,,,1534.0,,,576fc3462984e70001a97fc3,16:59:44,27/03/2024
html-keyboard-response,138,278296,0.0-59.0-0.0,1525.2000000476837,"<div style=""display: flex; flex-direction: column; align-items: center; margin-top: -40px;""><img src=""images/pattern_3.png"" style=""width: 234px; height: 230px; margin-top: -50px;""><div style=""display: flex; justify-content: space-between; margin-top: 33px;""><img src=""images/choice_trial_14.png"" style=""width: 408px; height: 417px; margin-right: 200px;""><img src=""images/choice_trial_12.png"" style=""width: 408px; height: 417px;""></div></div>",f,delaylearn,learning,trial,iUPHZqxkJQN4cKRwvdlf0Mmb3Eg2,iUPHZqxkJQN4cKRwvdlf0Mmb3Eg2,2.0,images/choice_trial_14.png,images/choice_trial_12.png,images/pattern_3.png,j,j,7000.0,14.0,12.0,2.0,1.0,26.0,0.0,0.0,14.0,150.0,,,,,,576fc3462984e70001a97fc3,16:59:44,27/03/2024
html-keyboard-response,139,279301,0.0-59.0-1.0,,"<div style=""display: flex; flex-direction: column; align-items: center; margin-top: -40px;""><img src=""images/pattern_3.png"" style=""width: 234px; height: 230px; margin-top: -50px;""><div style=""display: flex; justify-content: space-between; margin-top: 33px;""><img src=""images/choice_trial_14.png"" style=""width: 408px; height: 417px; margin-right: 608px;""></div></div>",,delaylearn,learning,display_response,iUPHZqxkJQN4cKRwvdlf0Mmb3Eg2,iUPHZqxkJQN4cKRwvdlf0Mmb3Eg2,,,,,,,,,,,,,,,,,chosen stimuli: images/choice_trial_14.png,,,,,576fc3462984e70001a97fc3,16:59:44,27/03/2024
html-keyboard-response,140,286305,0.0-59.0-2.0,,,,delaylearn,learning,feedback_duration_window,iUPHZqxkJQN4cKRwvdlf0Mmb3Eg2,iUPHZqxkJQN4cKRwvdlf0Mmb3Eg2,,,,,,,,,,,,,,,,,,7000.0,,,,576fc3462984e70001a97fc3,16:59:44,27/03/2024
html-keyboard-response,141,287809,0.0-59.0-3.0,,<div style='margin:auto;width: auto; font-size: 150%'><span style='font-weight: bold; font-size: 100px; color: red;'>0 points!</span><br><br></div>,,delaylearn,learning,feedback_image_window,iUPHZqxkJQN4cKRwvdlf0Mmb3Eg2,iUPHZqxkJQN4cKRwvdlf0Mmb3Eg2,,,,,,,,,,,,,,,,,,,,,,576fc3462984e70001a97fc3,16:59:44,27/03/2024
lmdlab-html-vas-response,142,293284,0.0-60.0-0.0,3963.0,*How <b><u>confident</u></b> are you feeling about your answers at this moment?*,0.2848462301587302,rewlearn,rate_confidence,,iUPHZqxkJQN4cKRwvdlf0Mmb3Eg2,iUPHZqxkJQN4cKRwvdlf0Mmb3Eg2,,,,,,,,,,,,,,,,,,,,"['No confidence', 'Complete confidence']",,576fc3462984e70001a97fc3,16:59:44,27/03/2024
lmdlab-rest-trial-limit,143,301293,0.0-60.0-1.0,6502.700000047684,"<div style=""font-size:40px;""><b>Please take a break!</b><br><br><br><br><p>Great work: you earned 150 points.<br><br><br><p>You have completed part(s) 1 of 5.<br><br><br><br>When you are ready to continue<br><br><br>please click the button.</p><br><br>",0,delaylearn,learning,break,iUPHZqxkJQN4cKRwvdlf0Mmb3Eg2,iUPHZqxkJQN4cKRwvdlf0Mmb3Eg2,,,,,,,,,,,,,,,,,,,,,0.0,576fc3462984e70001a97fc3,16:59:44,27/03/2024
html-keyboard-response,144,304298,0.0-60.0-2.0,,"<div style=""font-size:100px;"">+</div>",,delaylearn,learning,pre_fixation,iUPHZqxkJQN4cKRwvdlf0Mmb3Eg2,,,,,,,,,,,,,,,,,,,,,,,576fc3462984e70001a97fc3,16:59:44,27/03/2024
lmdlab-html-vas-response,145,308048,0.0-60.0-3.0-0.0,2742.0,How happy are you right now?,0.3783068783068783,delaylearn,learning,mood_baseline,iUPHZqxkJQN4cKRwvdlf0Mmb3Eg2,iUPHZqxkJQN4cKRwvdlf0Mmb3Eg2,,,,,,,,,,,,,,,,,,,,"['Very unhappy', 'Very happy']",,576fc3462984e70001a97fc3,16:59:44,27/03/2024
html-keyboard-response,146,309551,0.0-60.0-3.0-1.0,,,,,,mood_baseline_fixation,iUPHZqxkJQN4cKRwvdlf0Mmb3Eg2,,,,,,,,,,,,,,,,,,,,,,,576fc3462984e70001a97fc3,16:59:44,27/03/2024
html-keyboard-response,147,311902,0.0-61.0,,"<div style=""font-size:100px;"">+</div>",,delaylearn,learning,ITI,iUPHZqxkJQN4cKRwvdlf0Mmb3Eg2,iUPHZqxkJQN4cKRwvdlf0Mmb3Eg2,,,,,,,,,,,,,,,,,,,2347.0,,,576fc3462984e70001a97fc3,16:59:44,27/03/2024
html-keyboard-response,148,313003,0.0-62.0-0.0,1097.1000001430511,"<div style=""display: flex; flex-direction: column; align-items: center; margin-top: -40px;""><img src=""images/pattern_7.png"" style=""width: 234px; height: 230px; margin-top: -50px;""><div style=""display: flex; justify-content: space-between; margin-top: 33px;""><img src=""images/choice_trial_15.png"" style=""width: 408px; height: 417px; margin-right: 200px;""><img src=""images/choice_trial_8.png"" style=""width: 408px; height: 417px;""></div></div>",j,delaylearn,learning,trial,iUPHZqxkJQN4cKRwvdlf0Mmb3Eg2,iUPHZqxkJQN4cKRwvdlf0Mmb3Eg2,2.0,images/choice_trial_15.png,images/choice_trial_8.png,images/pattern_7.png,j,j,750.0,15.0,8.0,6.0,1.0,27.0,1.0,1.0,8.0,160.0,,,,,,576fc3462984e70001a97fc3,16:59:44,27/03/2024
html-keyboard-response,149,314007,0.0-62.0-1.0,,"<div style=""display: flex; flex-direction: column; align-items: center; margin-top: -40px;""><img src=""images/pattern_7.png"" style=""width: 234px; height: 230px; margin-top: -50px;""><div style=""display: flex; justify-content: space-between; margin-top: 33px;""><img src=""images/choice_trial_8.png"" style=""width: 408px; height: 417px; margin-left:608px;""></div></div>",,delaylearn,learning,display_response,iUPHZqxkJQN4cKRwvdlf0Mmb3Eg2,iUPHZqxkJQN4cKRwvdlf0Mmb3Eg2,,,,,,,,,,,,,,,,,chosen stimuli: images/choice_trial_8.png,,,,,576fc3462984e70001a97fc3,16:59:44,27/03/2024
html-keyboard-response,150,314760,0.0-62.0-2.0,,,,delaylearn,learning,feedback_duration_window,iUPHZqxkJQN4cKRwvdlf0Mmb3Eg2,iUPHZqxkJQN4cKRwvdlf0Mmb3Eg2,,,,,,,,,,,,,,,,,,750.0,,,,576fc3462984e70001a97fc3,16:59:44,27/03/2024
html-keyboard-response,151,316264,0.0-62.0-3.0,,<div style='margin:auto;width: auto; font-size: 150%'><span style='font-weight: bold; font-size: 100px; color: green;'>+10 points!</span><br><br></div>,,delaylearn,learning,feedback_image_window,iUPHZqxkJQN4cKRwvdlf0Mmb3Eg2,iUPHZqxkJQN4cKRwvdlf0Mmb3Eg2,,,,,,,,,,,,,,,,,,,,,,576fc3462984e70001a97fc3,16:59:44,27/03/2024
html-keyboard-response,152,316767,0.0-63.0-0.0,,,,,,mood_trial_fixation,iUPHZqxkJQN4cKRwvdlf0Mmb3Eg2,,,,,,,,,,,,,,,,,,,,,,,576fc3462984e70001a97fc3,16:59:44,27/03/2024
lmdlab-html-vas-response,153,320731,0.0-63.0-1.0,2956.0,How happy are you right now?,0.41358024691358025,delaylearn,learning,mood_trial,iUPHZqxkJQN4cKRwvdlf0Mmb3Eg2,iUPHZqxkJQN4cKRwvdlf0Mmb3Eg2,,,,,,,,,,,,,,,,,,,,"['Very unhappy', 'Very happy']",,576fc3462984e70001a97fc3,16:59:44,27/03/2024
html-keyboard-response,154,322898,0.0-64.0,,"<div style=""font-size:100px;"">+</div>",,delaylearn,learning,ITI,iUPHZqxkJQN4cKRwvdlf0Mmb3Eg2,iUPHZqxkJQN4cKRwvdlf0Mmb3Eg2,,,,,,,,,,,,,,,,,,,2164.0,,,576fc3462984e70001a97fc3,16:59:44,27/03/2024
html-keyboard-response,155,323844,0.0-65.0-0.0,941.7999999523163,"<div style=""display: flex; flex-direction: column; align-items: center; margin-top: -40px;""><img src=""images/pattern_1.png"" style=""width: 234px; height: 230px; margin-top: -50px;""><div style=""display: flex; justify-content: space-between; margin-top: 33px;""><img src=""images/choice_trial_3.png"" style=""width: 408px; height: 417px; margin-right: 200px;""><img src=""images/choice_trial_10.png"" style=""width: 408px; height: 417px;""></div></div>",j,delaylearn,learning,trial,iUPHZqxkJQN4cKRwvdlf0Mmb3Eg2,iUPHZqxkJQN4cKRwvdlf0Mmb3Eg2,2.0,images/choice_trial_3.png,images/choice_trial_10.png,images/pattern_1.png,f,f,7000.0,3.0,10.0,1.0,0.0,28.0,0.0,0.0,10.0,160.0,,,,,,576fc3462984e70001a97fc3,16:59:44,27/03/2024
html-keyboard-response,156,324848,0.0-65.0-1.0,,"<div style=""display: flex; flex-direction: column; align-items: center; margin-top: -40px;""><img src=""images/pattern_1.png"" style=""width: 234px; height: 230px; margin-top: -50px;""><div style=""display: flex; justify-content: space-between; margin-top: 33px;""><img src=""images/choice_trial_10.png"" style=""width: 408px; height: 417px; margin-left:608px;""></div></div>",,delaylearn,learning,display_response,iUPHZqxkJQN4cKRwvdlf0Mmb3Eg2,iUPHZqxkJQN4cKRwvdlf0Mmb3Eg2,,,,,,,,,,,,,,,,,chosen stimuli: images/choice_trial_10.png,,,,,576fc3462984e70001a97fc3,16:59:44,27/03/2024
html-keyboard-response,157,331852,0.0-65.0-2.0,,,,delaylearn,learning,feedback_duration_window,iUPHZqxkJQN4cKRwvdlf0Mmb3Eg2,iUPHZqxkJQN4cKRwvdlf0Mmb3Eg2,,,,,,,,,,,,,,,,,,7000.0,,,,576fc3462984e70001a97fc3,16:59:44,27/03/2024
html-keyboard-response,158,333356,0.0-65.0-3.0,,<div style='margin:auto;width: auto; font-size: 150%'><span style='font-weight: bold; font-size: 100px; color: red;'>0 points!</span><br><br></div>,,delaylearn,learning,feedback_image_window,iUPHZqxkJQN4cKRwvdlf0Mmb3Eg2,iUPHZqxkJQN4cKRwvdlf0Mmb3Eg2,,,,,,,,,,,,,,,,,,,,,,576fc3462984e70001a97fc3,16:59:44,27/03/2024
html-keyboard-response,159,335133,0.0-66.0,,"<div style=""font-size:100px;"">+</div>",,delaylearn,learning,ITI,iUPHZqxkJQN4cKRwvdlf0Mmb3Eg2,iUPHZqxkJQN4cKRwvdlf0Mmb3Eg2,,,,,,,,,,,,,,,,,,,1774.0,,,576fc3462984e70001a97fc3,16:59:44,27/03/2024
html-keyboard-response,160,336382,0.0-67.0-0.0,1244.7000000476837,"<div style=""display: flex; flex-direction: column; align-items: center; margin-top: -40px;""><img src=""images/pattern_5.png"" style=""width: 234px; height: 230px; margin-top: -50px;""><div style=""display: flex; justify-content: space-between; margin-top: 33px;""><img src=""images/choice_trial_2.png"" style=""width: 408px; height: 417px; margin-right: 200px;""><img src=""images/choice_trial_9.png"" style=""width: 408px; height: 417px;""></div></div>",f,delaylearn,learning,trial,iUPHZqxkJQN4cKRwvdlf0Mmb3Eg2,iUPHZqxkJQN4cKRwvdlf0Mmb3Eg2,2.0,images/choice_trial_2.png,images/choice_trial_9.png,images/pattern_5.png,f,f,750.0,2.0,9.0,4.0,0.0,29.0,1.0,1.0,2.0,170.0,,,,,,576fc3462984e70001a97fc3,16:59:44,27/03/2024
html-keyboard-response,161,337385,0.0-67.0-1.0,,"<div style=""display: flex; flex-direction: column; align-items: center; margin-top: -40px;""><img src=""images/pattern_5.png"" style=""width: 234px; height: 230px; margin-top: -50px;""><div style=""display: flex; justify-content: space-between; margin-top: 33px;""><img src=""images/choice_trial_2.png"" style=""width: 408px; height: 417px; margin-right: 608px;""></div></div>",,delaylearn,learning,display_response,iUPHZqxkJQN4cKRwvdlf0Mmb3Eg2,iUPHZqxkJQN4cKRwvdlf0Mmb3Eg2,,,,,,,,,,,,,,,,,chosen stimuli: images/choice_trial_2.png,,,,,576fc3462984e70001a97fc3,16:59:44,27/03/2024
html-keyboard-response,162,338138,0.0-67.0-2.0,,,,delaylearn,learning,feedback_duration_window,iUPHZqxkJQN4cKRwvdlf0Mmb3Eg2,iUPHZqxkJQN4cKRwvdlf0Mmb3Eg2,,,,,,,,,,,,,,,,,,750.0,,,,576fc3462984e70001a97fc3,16:59:44,27/03/2024
html-keyboard-response,163,339643,0.0-67.0-3.0,,<div style='margin:auto;width: auto; font-size: 150%'><span style='font-weight: bold; font-size: 100px; color: green;'>+10 points!</span><br><br></div>,,delaylearn,learning,feedback_image_window,iUPHZqxkJQN4cKRwvdlf0Mmb3Eg2,iUPHZqxkJQN4cKRwvdlf0Mmb3Eg2,,,,,,,,,,,,,,,,,,,,,,576fc3462984e70001a97fc3,16:59:44,27/03/2024
html-keyboard-response,164,341313,0.0-68.0,,"<div style=""font-size:100px;"">+</div>",,delaylearn,learning,ITI,iUPHZqxkJQN4cKRwvdlf0Mmb3Eg2,iUPHZqxkJQN4cKRwvdlf0Mmb3Eg2,,,,,,,,,,,,,,,,,,,1666.0,,,576fc3462984e70001a97fc3,16:59:44,27/03/2024
html-keyboard-response,165,342826,0.0-69.0-0.0,1510.5,"<div style=""display: flex; flex-direction: column; align-items: center; margin-top: -40px;""><img src=""images/pattern_6.png"" style=""width: 234px; height: 230px; margin-top: -50px;""><div style=""display: flex; justify-content: space-between; margin-top: 33px;""><img src=""images/choice_trial_5.png"" style=""width: 408px; height: 417px; margin-right: 200px;""><img src=""images/choice_trial_11.png"" style=""width: 408px; height: 417px;""></div></div>",f,delaylearn,learning,trial,iUPHZqxkJQN4cKRwvdlf0Mmb3Eg2,iUPHZqxkJQN4cKRwvdlf0Mmb3Eg2,2.0,images/choice_trial_5.png,images/choice_trial_11.png,images/pattern_6.png,j,j,750.0,5.0,11.0,5.0,1.0,30.0,0.0,0.0,5.0,170.0,,,,,,576fc3462984e70001a97fc3,16:59:44,27/03/2024
html-keyboard-response,166,343830,0.0-69.0-1.0,,"<div style=""display: flex; flex-direction: column; align-items: center; margin-top: -40px;""><img src=""images/pattern_6.png"" style=""width: 234px; height: 230px; margin-top: -50px;""><div style=""display: flex; justify-content: space-between; margin-top: 33px;""><img src=""images/choice_trial_5.png"" style=""width: 408px; height: 417px; margin-right: 608px;""></div></div>",,delaylearn,learning,display_response,iUPHZqxkJQN4cKRwvdlf0Mmb3Eg2,iUPHZqxkJQN4cKRwvdlf0Mmb3Eg2,,,,,,,,,,,,,,,,,chosen stimuli: images/choice_trial_5.png,,,,,576fc3462984e70001a97fc3,16:59:44,27/03/2024
html-keyboard-response,167,344584,0.0-69.0-2.0,,,,delaylearn,learning,feedback_duration_window,iUPHZqxkJQN4cKRwvdlf0Mmb3Eg2,iUPHZqxkJQN4cKRwvdlf0Mmb3Eg2,,,,,,,,,,,,,,,,,,750.0,,,,576fc3462984e70001a97fc3,16:59:44,27/03/2024
html-keyboard-response,168,346088,0.0-69.0-3.0,,<div style='margin:auto;width: auto; font-size: 150%'><span style='font-weight: bold; font-size: 100px; color: red;'>0 points!</span><br><br></div>,,delaylearn,learning,feedback_image_window,iUPHZqxkJQN4cKRwvdlf0Mmb3Eg2,iUPHZqxkJQN4cKRwvdlf0Mmb3Eg2,,,,,,,,,,,,,,,,,,,,,,576fc3462984e70001a97fc3,16:59:44,27/03/2024
html-keyboard-response,169,346590,0.0-70.0-0.0,,,,,,mood_trial_fixation,iUPHZqxkJQN4cKRwvdlf0Mmb3Eg2,,,,,,,,,,,,,,,,,,,,,,,576fc3462984e70001a97fc3,16:59:44,27/03/2024
lmdlab-html-vas-response,170,350330,0.0-70.0-1.0,2733.0,How happy are you right now?,0.4947089947089947,delaylearn,learning,mood_trial,iUPHZqxkJQN4cKRwvdlf0Mmb3Eg2,iUPHZqxkJQN4cKRwvdlf0Mmb3Eg2,,,,,,,,,,,,,,,,,,,,"['Very unhappy', 'Very happy']",,576fc3462984e70001a97fc3,16:59:44,27/03/2024
html-keyboard-response,171,351902,0.0-71.0,,"<div style=""font-size:100px;"">+</div>",,delaylearn,learning,ITI,iUPHZqxkJQN4cKRwvdlf0Mmb3Eg2,iUPHZqxkJQN4cKRwvdlf0Mmb3Eg2,,,,,,,,,,,,,,,,,,,1568.0,,,576fc3462984e70001a97fc3,16:59:44,27/03/2024
html-keyboard-response,172,352765,0.0-72.0-0.0,858.3999998569489,"<div style=""display: flex; flex-direction: column; align-items: center; margin-top: -40px;""><img src=""images/pattern_4.png"" style=""width: 234px; height: 230px; margin-top: -50px;""><div style=""display: flex; justify-content: space-between; margin-top: 33px;""><img src=""images/choice_trial_16.png"" style=""width: 408px; height: 417px; margin-right: 200px;""><img src=""images/choice_trial_4.png"" style=""width: 408px; height: 417px;""></div></div>",f,delaylearn,learning,trial,iUPHZqxkJQN4cKRwvdlf0Mmb3Eg2,iUPHZqxkJQN4cKRwvdlf0Mmb3Eg2,2.0,images/choice_trial_16.png,images/choice_trial_4.png,images/pattern_4.png,j,j,7000.0,16.0,4.0,3.0,1.0,31.0,0.0,0.0,16.0,170.0,,,,,,576fc3462984e70001a97fc3,16:59:44,27/03/2024
html-keyboard-response,173,353768,0.0-72.0-1.0,,"<div style=""display: flex; flex-direction: column; align-items: center; margin-top: -40px;""><img src=""images/pattern_4.png"" style=""width: 234px; height: 230px; margin-top: -50px;""><div style=""display: flex; justify-content: space-between; margin-top: 33px;""><img src=""images/choice_trial_16.png"" style=""width: 408px; height: 417px; margin-right: 608px;""></div></div>",,delaylearn,learning,display_response,iUPHZqxkJQN4cKRwvdlf0Mmb3Eg2,iUPHZqxkJQN4cKRwvdlf0Mmb3Eg2,,,,,,,,,,,,,,,,,chosen stimuli: images/choice_trial_16.png,,,,,576fc3462984e70001a97fc3,16:59:44,27/03/2024
html-keyboard-response,174,360771,0.0-72.0-2.0,,,,delaylearn,learning,feedback_duration_window,iUPHZqxkJQN4cKRwvdlf0Mmb3Eg2,iUPHZqxkJQN4cKRwvdlf0Mmb3Eg2,,,,,,,,,,,,,,,,,,7000.0,,,,576fc3462984e70001a97fc3,16:59:44,27/03/2024
html-keyboard-response,175,362275,0.0-72.0-3.0,,<div style='margin:auto;width: auto; font-size: 150%'><span style='font-weight: bold; font-size: 100px; color: red;'>0 points!</span><br><br></div>,,delaylearn,learning,feedback_image_window,iUPHZqxkJQN4cKRwvdlf0Mmb3Eg2,iUPHZqxkJQN4cKRwvdlf0Mmb3Eg2,,,,,,,,,,,,,,,,,,,,,,576fc3462984e70001a97fc3,16:59:44,27/03/2024
html-keyboard-response,176,364178,0.0-73.0,,"<div style=""font-size:100px;"">+</div>",,delaylearn,learning,ITI,iUPHZqxkJQN4cKRwvdlf0Mmb3Eg2,iUPHZqxkJQN4cKRwvdlf0Mmb3Eg2,,,,,,,,,,,,,,,,,,,1899.0,,,576fc3462984e70001a97fc3,16:59:44,27/03/2024
html-keyboard-response,177,365555,0.0-74.0-0.0,1372.5999999046326,"<div style=""display: flex; flex-direction: column; align-items: center; margin-top: -40px;""><img src=""images/pattern_3.png"" style=""width: 234px; height: 230px; margin-top: -50px;""><div style=""display: flex; justify-content: space-between; margin-top: 33px;""><img src=""images/choice_trial_14.png"" style=""width: 408px; height: 417px; margin-right: 200px;""><img src=""images/choice_trial_12.png"" style=""width: 408px; height: 417px;""></div></div>",f,delaylearn,learning,trial,iUPHZqxkJQN4cKRwvdlf0Mmb3Eg2,iUPHZqxkJQN4cKRwvdlf0Mmb3Eg2,2.0,images/choice_trial_14.png,images/choice_trial_12.png,images/pattern_3.png,j,j,7000.0,14.0,12.0,2.0,1.0,32.0,0.0,0.0,14.0,170.0,,,,,,576fc3462984e70001a97fc3,16:59:44,27/03/2024
html-keyboard-response,178,366559,0.0-74.0-1.0,,"<div style=""display: flex; flex-direction: column; align-items: center; margin-top: -40px;""><img src=""images/pattern_3.png"" style=""width: 234px; height: 230px; margin-top: -50px;""><div style=""display: flex; justify-content: space-between; margin-top: 33px;""><img src=""images/choice_trial_14.png"" style=""width: 408px; height: 417px; margin-right: 608px;""></div></div>",,delaylearn,learning,display_response,iUPHZqxkJQN4cKRwvdlf0Mmb3Eg2,iUPHZqxkJQN4cKRwvdlf0Mmb3Eg2,,,,,,,,,,,,,,,,,chosen stimuli: images/choice_trial_14.png,,,,,576fc3462984e70001a97fc3,16:59:44,27/03/2024
html-keyboard-response,179,373562,0.0-74.0-2.0,,,,delaylearn,learning,feedback_duration_window,iUPHZqxkJQN4cKRwvdlf0Mmb3Eg2,iUPHZqxkJQN4cKRwvdlf0Mmb3Eg2,,,,,,,,,,,,,,,,,,7000.0,,,,576fc3462984e70001a97fc3,16:59:44,27/03/2024
html-keyboard-response,180,375065,0.0-74.0-3.0,,<div style='margin:auto;width: auto; font-size: 150%'><span style='font-weight: bold; font-size: 100px; color: red;'>0 points!</span><br><br></div>,,delaylearn,learning,feedback_image_window,iUPHZqxkJQN4cKRwvdlf0Mmb3Eg2,iUPHZqxkJQN4cKRwvdlf0Mmb3Eg2,,,,,,,,,,,,,,,,,,,,,,576fc3462984e70001a97fc3,16:59:44,27/03/2024
html-keyboard-response,181,377154,0.0-75.0,,"<div style=""font-size:100px;"">+</div>",,delaylearn,learning,ITI,iUPHZqxkJQN4cKRwvdlf0Mmb3Eg2,iUPHZqxkJQN4cKRwvdlf0Mmb3Eg2,,,,,,,,,,,,,,,,,,,2087.0,,,576fc3462984e70001a97fc3,16:59:44,27/03/2024
html-keyboard-response,182,378891,0.0-76.0-0.0,1734.0999999046326,"<div style=""display: flex; flex-direction: column; align-items: center; margin-top: -40px;""><img src=""images/pattern_5.png"" style=""width: 234px; height: 230px; margin-top: -50px;""><div style=""display: flex; justify-content: space-between; margin-top: 33px;""><img src=""images/choice_trial_2.png"" style=""width: 408px; height: 417px; margin-right: 200px;""><img src=""images/choice_trial_9.png"" style=""width: 408px; height: 417px;""></div></div>",f,delaylearn,learning,trial,iUPHZqxkJQN4cKRwvdlf0Mmb3Eg2,iUPHZqxkJQN4cKRwvdlf0Mmb3Eg2,2.0,images/choice_trial_2.png,images/choice_trial_9.png,images/pattern_5.png,j,f,750.0,2.0,9.0,4.0,0.0,33.0,1.0,0.0,2.0,170.0,,,,,,576fc3462984e70001a97fc3,16:59:44,27/03/2024
html-keyboard-response,183,379894,0.0-76.0-1.0,,"<div style=""display: flex; flex-direction: column; align-items: center; margin-top: -40px;""><img src=""images/pattern_5.png"" style=""width: 234px; height: 230px; margin-top: -50px;""><div style=""display: flex; justify-content: space-between; margin-top: 33px;""><img src=""images/choice_trial_2.png"" style=""width: 408px; height: 417px; margin-right: 608px;""></div></div>",,delaylearn,learning,display_response,iUPHZqxkJQN4cKRwvdlf0Mmb3Eg2,iUPHZqxkJQN4cKRwvdlf0Mmb3Eg2,,,,,,,,,,,,,,,,,chosen stimuli: images/choice_trial_2.png,,,,,576fc3462984e70001a97fc3,16:59:44,27/03/2024
html-keyboard-response,184,380647,0.0-76.0-2.0,,,,delaylearn,learning,feedback_duration_window,iUPHZqxkJQN4cKRwvdlf0Mmb3Eg2,iUPHZqxkJQN4cKRwvdlf0Mmb3Eg2,,,,,,,,,,,,,,,,,,750.0,,,,576fc3462984e70001a97fc3,16:59:44,27/03/2024
html-keyboard-response,185,382151,0.0-76.0-3.0,,<div style='margin:auto;width: auto; font-size: 150%'><span style='font-weight: bold; font-size: 100px; color: red;'>0 points!</span><br><br></div>,,delaylearn,learning,feedback_image_window,iUPHZqxkJQN4cKRwvdlf0Mmb3Eg2,iUPHZqxkJQN4cKRwvdlf0Mmb3Eg2,,,,,,,,,,,,,,,,,,,,,,576fc3462984e70001a97fc3,16:59:44,27/03/2024
html-keyboard-response,186,384512,0.0-77.0,,"<div style=""font-size:100px;"">+</div>",,delaylearn,learning,ITI,iUPHZqxkJQN4cKRwvdlf0Mmb3Eg2,iUPHZqxkJQN4cKRwvdlf0Mmb3Eg2,,,,,,,,,,,,,,,,,,,2357.0,,,576fc3462984e70001a97fc3,16:59:44,27/03/2024
html-keyboard-response,187,385885,0.0-78.0-0.0,1369.0,"<div style=""display: flex; flex-direction: column; align-items: center; margin-top: -40px;""><img src=""images/pattern_1.png"" style=""width: 234px; height: 230px; margin-top: -50px;""><div style=""display: flex; justify-content: space-between; margin-top: 33px;""><img src=""images/choice_trial_3.png"" style=""width: 408px; height: 417px; margin-right: 200px;""><img src=""images/choice_trial_10.png"" style=""width: 408px; height: 417px;""></div></div>",j,delaylearn,learning,trial,iUPHZqxkJQN4cKRwvdlf0Mmb3Eg2,iUPHZqxkJQN4cKRwvdlf0Mmb3Eg2,2.0,images/choice_trial_3.png,images/choice_trial_10.png,images/pattern_1.png,f,f,7000.0,3.0,10.0,1.0,0.0,34.0,0.0,0.0,10.0,170.0,,,,,,576fc3462984e70001a97fc3,16:59:44,27/03/2024
html-keyboard-response,188,386889,0.0-78.0-1.0,,"<div style=""display: flex; flex-direction: column; align-items: center; margin-top: -40px;""><img src=""images/pattern_1.png"" style=""width: 234px; height: 230px; margin-top: -50px;""><div style=""display: flex; justify-content: space-between; margin-top: 33px;""><img src=""images/choice_trial_10.png"" style=""width: 408px; height: 417px; margin-left:608px;""></div></div>",,delaylearn,learning,display_response,iUPHZqxkJQN4cKRwvdlf0Mmb3Eg2,iUPHZqxkJQN4cKRwvdlf0Mmb3Eg2,,,,,,,,,,,,,,,,,chosen stimuli: images/choice_trial_10.png,,,,,576fc3462984e70001a97fc3,16:59:44,27/03/2024
html-keyboard-response,189,393893,0.0-78.0-2.0,,,,delaylearn,learning,feedback_duration_window,iUPHZqxkJQN4cKRwvdlf0Mmb3Eg2,iUPHZqxkJQN4cKRwvdlf0Mmb3Eg2,,,,,,,,,,,,,,,,,,7000.0,,,,576fc3462984e70001a97fc3,16:59:44,27/03/2024
html-keyboard-response,190,395397,0.0-78.0-3.0,,<div style='margin:auto;width: auto; font-size: 150%'><span style='font-weight: bold; font-size: 100px; color: red;'>0 points!</span><br><br></div>,,delaylearn,learning,feedback_image_window,iUPHZqxkJQN4cKRwvdlf0Mmb3Eg2,iUPHZqxkJQN4cKRwvdlf0Mmb3Eg2,,,,,,,,,,,,,,,,,,,,,,576fc3462984e70001a97fc3,16:59:44,27/03/2024
html-keyboard-response,191,395901,0.0-79.0-0.0,,,,,,mood_trial_fixation,iUPHZqxkJQN4cKRwvdlf0Mmb3Eg2,,,,,,,,,,,,,,,,,,,,,,,576fc3462984e70001a97fc3,16:59:44,27/03/2024
lmdlab-html-vas-response,192,399705,0.0-79.0-1.0,2797.0,How happy are you right now?,0.2777777777777778,delaylearn,learning,mood_trial,iUPHZqxkJQN4cKRwvdlf0Mmb3Eg2,iUPHZqxkJQN4cKRwvdlf0Mmb3Eg2,,,,,,,,,,,,,,,,,,,,"['Very unhappy', 'Very happy']",,576fc3462984e70001a97fc3,16:59:44,27/03/2024
html-keyboard-response,193,401624,0.0-80.0,,"<div style=""font-size:100px;"">+</div>",,delaylearn,learning,ITI,iUPHZqxkJQN4cKRwvdlf0Mmb3Eg2,iUPHZqxkJQN4cKRwvdlf0Mmb3Eg2,,,,,,,,,,,,,,,,,,,1918.0,,,576fc3462984e70001a97fc3,16:59:44,27/03/2024
html-keyboard-response,194,402860,0.0-81.0-0.0,1233.5999999046326,"<div style=""display: flex; flex-direction: column; align-items: center; margin-top: -40px;""><img src=""images/pattern_6.png"" style=""width: 234px; height: 230px; margin-top: -50px;""><div style=""display: flex; justify-content: space-between; margin-top: 33px;""><img src=""images/choice_trial_11.png"" style=""width: 408px; height: 417px; margin-right: 200px;""><img src=""images/choice_trial_5.png"" style=""width: 408px; height: 417px;""></div></div>",f,delaylearn,learning,trial,iUPHZqxkJQN4cKRwvdlf0Mmb3Eg2,iUPHZqxkJQN4cKRwvdlf0Mmb3Eg2,2.0,images/choice_trial_11.png,images/choice_trial_5.png,images/pattern_6.png,j,f,750.0,11.0,5.0,5.0,0.0,35.0,1.0,0.0,11.0,170.0,,,,,,576fc3462984e70001a97fc3,16:59:44,27/03/2024
html-keyboard-response,195,403864,0.0-81.0-1.0,,"<div style=""display: flex; flex-direction: column; align-items: center; margin-top: -40px;""><img src=""images/pattern_6.png"" style=""width: 234px; height: 230px; margin-top: -50px;""><div style=""display: flex; justify-content: space-between; margin-top: 33px;""><img src=""images/choice_trial_11.png"" style=""width: 408px; height: 417px; margin-right: 608px;""></div></div>",,delaylearn,learning,display_response,iUPHZqxkJQN4cKRwvdlf0Mmb3Eg2,iUPHZqxkJQN4cKRwvdlf0Mmb3Eg2,,,,,,,,,,,,,,,,,chosen stimuli: images/choice_trial_11.png,,,,,576fc3462984e70001a97fc3,16:59:44,27/03/2024
html-keyboard-response,196,404617,0.0-81.0-2.0,,,,delaylearn,learning,feedback_duration_window,iUPHZqxkJQN4cKRwvdlf0Mmb3Eg2,iUPHZqxkJQN4cKRwvdlf0Mmb3Eg2,,,,,,,,,,,,,,,,,,750.0,,,,576fc3462984e70001a97fc3,16:59:44,27/03/2024
html-keyboard-response,197,406120,0.0-81.0-3.0,,<div style='margin:auto;width: auto; font-size: 150%'><span style='font-weight: bold; font-size: 100px; color: red;'>0 points!</span><br><br></div>,,delaylearn,learning,feedback_image_window,iUPHZqxkJQN4cKRwvdlf0Mmb3Eg2,iUPHZqxkJQN4cKRwvdlf0Mmb3Eg2,,,,,,,,,,,,,,,,,,,,,,576fc3462984e70001a97fc3,16:59:44,27/03/2024
html-keyboard-response,198,407915,0.0-82.0,,"<div style=""font-size:100px;"">+</div>",,delaylearn,learning,ITI,iUPHZqxkJQN4cKRwvdlf0Mmb3Eg2,iUPHZqxkJQN4cKRwvdlf0Mmb3Eg2,,,,,,,,,,,,,,,,,,,1792.0,,,576fc3462984e70001a97fc3,16:59:44,27/03/2024
html-keyboard-response,199,409244,0.0-83.0-0.0,1327.2000000476837,"<div style=""display: flex; flex-direction: column; align-items: center; margin-top: -40px;""><img src=""images/pattern_3.png"" style=""width: 234px; height: 230px; margin-top: -50px;""><div style=""display: flex; justify-content: space-between; margin-top: 33px;""><img src=""images/choice_trial_14.png"" style=""width: 408px; height: 417px; margin-right: 200px;""><img src=""images/choice_trial_12.png"" style=""width: 408px; height: 417px;""></div></div>",f,delaylearn,learning,trial,iUPHZqxkJQN4cKRwvdlf0Mmb3Eg2,iUPHZqxkJQN4cKRwvdlf0Mmb3Eg2,2.0,images/choice_trial_14.png,images/choice_trial_12.png,images/pattern_3.png,j,j,7000.0,14.0,12.0,2.0,1.0,36.0,0.0,0.0,14.0,170.0,,,,,,576fc3462984e70001a97fc3,16:59:44,27/03/2024
html-keyboard-response,200,410247,0.0-83.0-1.0,,"<div style=""display: flex; flex-direction: column; align-items: center; margin-top: -40px;""><img src=""images/pattern_3.png"" style=""width: 234px; height: 230px; margin-top: -50px;""><div style=""display: flex; justify-content: space-between; margin-top: 33px;""><img src=""images/choice_trial_14.png"" style=""width: 408px; height: 417px; margin-right: 608px;""></div></div>",,delaylearn,learning,display_response,iUPHZqxkJQN4cKRwvdlf0Mmb3Eg2,iUPHZqxkJQN4cKRwvdlf0Mmb3Eg2,,,,,,,,,,,,,,,,,chosen stimuli: images/choice_trial_14.png,,,,,576fc3462984e70001a97fc3,16:59:44,27/03/2024
html-keyboard-response,201,417251,0.0-83.0-2.0,,,,delaylearn,learning,feedback_duration_window,iUPHZqxkJQN4cKRwvdlf0Mmb3Eg2,iUPHZqxkJQN4cKRwvdlf0Mmb3Eg2,,,,,,,,,,,,,,,,,,7000.0,,,,576fc3462984e70001a97fc3,16:59:44,27/03/2024
html-keyboard-response,202,418753,0.0-83.0-3.0,,<div style='margin:auto;width: auto; font-size: 150%'><span style='font-weight: bold; font-size: 100px; color: red;'>0 points!</span><br><br></div>,,delaylearn,learning,feedback_image_window,iUPHZqxkJQN4cKRwvdlf0Mmb3Eg2,iUPHZqxkJQN4cKRwvdlf0Mmb3Eg2,,,,,,,,,,,,,,,,,,,,,,576fc3462984e70001a97fc3,16:59:44,27/03/2024
html-keyboard-response,203,421253,0.0-84.0,,"<div style=""font-size:100px;"">+</div>",,delaylearn,learning,ITI,iUPHZqxkJQN4cKRwvdlf0Mmb3Eg2,iUPHZqxkJQN4cKRwvdlf0Mmb3Eg2,,,,,,,,,,,,,,,,,,,2497.0,,,576fc3462984e70001a97fc3,16:59:44,27/03/2024
html-keyboard-response,204,422122,0.0-85.0-0.0,866.6000001430511,"<div style=""display: flex; flex-direction: column; align-items: center; margin-top: -40px;""><img src=""images/pattern_4.png"" style=""width: 234px; height: 230px; margin-top: -50px;""><div style=""display: flex; justify-content: space-between; margin-top: 33px;""><img src=""images/choice_trial_16.png"" style=""width: 408px; height: 417px; margin-right: 200px;""><img src=""images/choice_trial_4.png"" style=""width: 408px; height: 417px;""></div></div>",j,delaylearn,learning,trial,iUPHZqxkJQN4cKRwvdlf0Mmb3Eg2,iUPHZqxkJQN4cKRwvdlf0Mmb3Eg2,2.0,images/choice_trial_16.png,images/choice_trial_4.png,images/pattern_4.png,f,j,7000.0,16.0,4.0,3.0,1.0,37.0,1.0,0.0,4.0,170.0,,,,,,576fc3462984e70001a97fc3,16:59:44,27/03/2024
html-keyboard-response,205,423126,0.0-85.0-1.0,,"<div style=""display: flex; flex-direction: column; align-items: center; margin-top: -40px;""><img src=""images/pattern_4.png"" style=""width: 234px; height: 230px; margin-top: -50px;""><div style=""display: flex; justify-content: space-between; margin-top: 33px;""><img src=""images/choice_trial_4.png"" style=""width: 408px; height: 417px; margin-left:608px;""></div></div>",,delaylearn,learning,display_response,iUPHZqxkJQN4cKRwvdlf0Mmb3Eg2,iUPHZqxkJQN4cKRwvdlf0Mmb3Eg2,,,,,,,,,,,,,,,,,chosen stimuli: images/choice_trial_4.png,,,,,576fc3462984e70001a97fc3,16:59:44,27/03/2024
html-keyboard-response,206,430130,0.0-85.0-2.0,,,,delaylearn,learning,feedback_duration_window,iUPHZqxkJQN4cKRwvdlf0Mmb3Eg2,iUPHZqxkJQN4cKRwvdlf0Mmb3Eg2,,,,,,,,,,,,,,,,,,7000.0,,,,576fc3462984e70001a97fc3,16:59:44,27/03/2024
html-keyboard-response,207,431633,0.0-85.0-3.0,,<div style='margin:auto;width: auto; font-size: 150%'><span style='font-weight: bold; font-size: 100px; color: red;'>0 points!</span><br><br></div>,,delaylearn,learning,feedback_image_window,iUPHZqxkJQN4cKRwvdlf0Mmb3Eg2,iUPHZqxkJQN4cKRwvdlf0Mmb3Eg2,,,,,,,,,,,,,,,,,,,,,,576fc3462984e70001a97fc3,16:59:44,27/03/2024
html-keyboard-response,208,433871,0.0-86.0,,"<div style=""font-size:100px;"">+</div>",,delaylearn,learning,ITI,iUPHZqxkJQN4cKRwvdlf0Mmb3Eg2,iUPHZqxkJQN4cKRwvdlf0Mmb3Eg2,,,,,,,,,,,,,,,,,,,2236.0,,,576fc3462984e70001a97fc3,16:59:44,27/03/2024
html-keyboard-response,209,434870,0.0-87.0-0.0,994.7999999523163,"<div style=""display: flex; flex-direction: column; align-items: center; margin-top: -40px;""><img src=""images/pattern_7.png"" style=""width: 234px; height: 230px; margin-top: -50px;""><div style=""display: flex; justify-content: space-between; margin-top: 33px;""><img src=""images/choice_trial_8.png"" style=""width: 408px; height: 417px; margin-right: 200px;""><img src=""images/choice_trial_15.png"" style=""width: 408px; height: 417px;""></div></div>",f,delaylearn,learning,trial,iUPHZqxkJQN4cKRwvdlf0Mmb3Eg2,iUPHZqxkJQN4cKRwvdlf0Mmb3Eg2,2.0,images/choice_trial_8.png,images/choice_trial_15.png,images/pattern_7.png,f,f,750.0,8.0,15.0,6.0,0.0,38.0,1.0,1.0,8.0,180.0,,,,,,576fc3462984e70001a97fc3,16:59:44,27/03/2024
html-keyboard-response,210,435873,0.0-87.0-1.0,,"<div style=""display: flex; flex-direction: column; align-items: center; margin-top: -40px;""><img src=""images/pattern_7.png"" style=""width: 234px; height: 230px; margin-top: -50px;""><div style=""display: flex; justify-content: space-between; margin-top: 33px;""><img src=""images/choice_trial_8.png"" style=""width: 408px; height: 417px; margin-right: 608px;""></div></div>",,delaylearn,learning,display_response,iUPHZqxkJQN4cKRwvdlf0Mmb3Eg2,iUPHZqxkJQN4cKRwvdlf0Mmb3Eg2,,,,,,,,,,,,,,,,,chosen stimuli: images/choice_trial_8.png,,,,,576fc3462984e70001a97fc3,16:59:44,27/03/2024
html-keyboard-response,211,436628,0.0-87.0-2.0,,,,delaylearn,learning,feedback_duration_window,iUPHZqxkJQN4cKRwvdlf0Mmb3Eg2,iUPHZqxkJQN4cKRwvdlf0Mmb3Eg2,,,,,,,,,,,,,,,,,,750.0,,,,576fc3462984e70001a97fc3,16:59:44,27/03/2024
html-keyboard-response,212,438132,0.0-87.0-3.0,,<div style='margin:auto;width: auto; font-size: 150%'><span style='font-weight: bold; font-size: 100px; color: green;'>+10 points!</span><br><br></div>,,delaylearn,learning,feedback_image_window,iUPHZqxkJQN4cKRwvdlf0Mmb3Eg2,iUPHZqxkJQN4cKRwvdlf0Mmb3Eg2,,,,,,,,,,,,,,,,,,,,,,576fc3462984e70001a97fc3,16:59:44,27/03/2024
html-keyboard-response,213,440426,0.0-88.0,,"<div style=""font-size:100px;"">+</div>",,delaylearn,learning,ITI,iUPHZqxkJQN4cKRwvdlf0Mmb3Eg2,iUPHZqxkJQN4cKRwvdlf0Mmb3Eg2,,,,,,,,,,,,,,,,,,,2290.0,,,576fc3462984e70001a97fc3,16:59:44,27/03/2024
html-keyboard-response,214,441269,0.0-89.0-0.0,836.5999999046326,"<div style=""display: flex; flex-direction: column; align-items: center; margin-top: -40px;""><img src=""images/pattern_1.png"" style=""width: 234px; height: 230px; margin-top: -50px;""><div style=""display: flex; justify-content: space-between; margin-top: 33px;""><img src=""images/choice_trial_3.png"" style=""width: 408px; height: 417px; margin-right: 200px;""><img src=""images/choice_trial_10.png"" style=""width: 408px; height: 417px;""></div></div>",j,delaylearn,learning,trial,iUPHZqxkJQN4cKRwvdlf0Mmb3Eg2,iUPHZqxkJQN4cKRwvdlf0Mmb3Eg2,2.0,images/choice_trial_3.png,images/choice_trial_10.png,images/pattern_1.png,f,f,7000.0,3.0,10.0,1.0,0.0,39.0,0.0,0.0,10.0,180.0,,,,,,576fc3462984e70001a97fc3,16:59:44,27/03/2024
html-keyboard-response,215,442272,0.0-89.0-1.0,,"<div style=""display: flex; flex-direction: column; align-items: center; margin-top: -40px;""><img src=""images/pattern_1.png"" style=""width: 234px; height: 230px; margin-top: -50px;""><div style=""display: flex; justify-content: space-between; margin-top: 33px;""><img src=""images/choice_trial_10.png"" style=""width: 408px; height: 417px; margin-left:608px;""></div></div>",,delaylearn,learning,display_response,iUPHZqxkJQN4cKRwvdlf0Mmb3Eg2,iUPHZqxkJQN4cKRwvdlf0Mmb3Eg2,,,,,,,,,,,,,,,,,chosen stimuli: images/choice_trial_10.png,,,,,576fc3462984e70001a97fc3,16:59:44,27/03/2024
html-keyboard-response,216,449275,0.0-89.0-2.0,,,,delaylearn,learning,feedback_duration_window,iUPHZqxkJQN4cKRwvdlf0Mmb3Eg2,iUPHZqxkJQN4cKRwvdlf0Mmb3Eg2,,,,,,,,,,,,,,,,,,7000.0,,,,576fc3462984e70001a97fc3,16:59:44,27/03/2024
html-keyboard-response,217,450779,0.0-89.0-3.0,,<div style='margin:auto;width: auto; font-size: 150%'><span style='font-weight: bold; font-size: 100px; color: red;'>0 points!</span><br><br></div>,,delaylearn,learning,feedback_image_window,iUPHZqxkJQN4cKRwvdlf0Mmb3Eg2,iUPHZqxkJQN4cKRwvdlf0Mmb3Eg2,,,,,,,,,,,,,,,,,,,,,,576fc3462984e70001a97fc3,16:59:44,27/03/2024
html-keyboard-response,218,451282,0.0-90.0-0.0,,,,,,mood_trial_fixation,iUPHZqxkJQN4cKRwvdlf0Mmb3Eg2,,,,,,,,,,,,,,,,,,,,,,,576fc3462984e70001a97fc3,16:59:44,27/03/2024
lmdlab-html-vas-response,219,454536,0.0-90.0-1.0,2248.0,How happy are you right now?,0.30599647266313934,delaylearn,learning,mood_trial,iUPHZqxkJQN4cKRwvdlf0Mmb3Eg2,iUPHZqxkJQN4cKRwvdlf0Mmb3Eg2,,,,,,,,,,,,,,,,,,,,"['Very unhappy', 'Very happy']",,576fc3462984e70001a97fc3,16:59:44,27/03/2024
html-keyboard-response,220,456343,0.0-91.0,,"<div style=""font-size:100px;"">+</div>",,delaylearn,learning,ITI,iUPHZqxkJQN4cKRwvdlf0Mmb3Eg2,iUPHZqxkJQN4cKRwvdlf0Mmb3Eg2,,,,,,,,,,,,,,,,,,,1804.0,,,576fc3462984e70001a97fc3,16:59:44,27/03/2024
html-keyboard-response,221,457697,0.0-92.0-0.0,1349.6000001430511,"<div style=""display: flex; flex-direction: column; align-items: center; margin-top: -40px;""><img src=""images/pattern_3.png"" style=""width: 234px; height: 230px; margin-top: -50px;""><div style=""display: flex; justify-content: space-between; margin-top: 33px;""><img src=""images/choice_trial_12.png"" style=""width: 408px; height: 417px; margin-right: 200px;""><img src=""images/choice_trial_14.png"" style=""width: 408px; height: 417px;""></div></div>",j,delaylearn,learning,trial,iUPHZqxkJQN4cKRwvdlf0Mmb3Eg2,iUPHZqxkJQN4cKRwvdlf0Mmb3Eg2,2.0,images/choice_trial_12.png,images/choice_trial_14.png,images/pattern_3.png,j,f,7000.0,12.0,14.0,2.0,0.0,40.0,0.0,1.0,14.0,190.0,,,,,,576fc3462984e70001a97fc3,16:59:44,27/03/2024
html-keyboard-response,222,458701,0.0-92.0-1.0,,"<div style=""display: flex; flex-direction: column; align-items: center; margin-top: -40px;""><img src=""images/pattern_3.png"" style=""width: 234px; height: 230px; margin-top: -50px;""><div style=""display: flex; justify-content: space-between; margin-top: 33px;""><img src=""images/choice_trial_14.png"" style=""width: 408px; height: 417px; margin-left:608px;""></div></div>",,delaylearn,learning,display_response,iUPHZqxkJQN4cKRwvdlf0Mmb3Eg2,iUPHZqxkJQN4cKRwvdlf0Mmb3Eg2,,,,,,,,,,,,,,,,,chosen stimuli: images/choice_trial_14.png,,,,,576fc3462984e70001a97fc3,16:59:44,27/03/2024
html-keyboard-response,223,465705,0.0-92.0-2.0,,,,delaylearn,learning,feedback_duration_window,iUPHZqxkJQN4cKRwvdlf0Mmb3Eg2,iUPHZqxkJQN4cKRwvdlf0Mmb3Eg2,,,,,,,,,,,,,,,,,,7000.0,,,,576fc3462984e70001a97fc3,16:59:44,27/03/2024
html-keyboard-response,224,467209,0.0-92.0-3.0,,<div style='margin:auto;width: auto; font-size: 150%'><span style='font-weight: bold; font-size: 100px; color: green;'>+10 points!</span><br><br></div>,,delaylearn,learning,feedback_image_window,iUPHZqxkJQN4cKRwvdlf0Mmb3Eg2,iUPHZqxkJQN4cKRwvdlf0Mmb3Eg2,,,,,,,,,,,,,,,,,,,,,,576fc3462984e70001a97fc3,16:59:44,27/03/2024
html-keyboard-response,225,469671,0.0-93.0,,"<div style=""font-size:100px;"">+</div>",,delaylearn,learning,ITI,iUPHZqxkJQN4cKRwvdlf0Mmb3Eg2,iUPHZqxkJQN4cKRwvdlf0Mmb3Eg2,,,,,,,,,,,,,,,,,,,2459.0,,,576fc3462984e70001a97fc3,16:59:44,27/03/2024
html-keyboard-response,226,470535,0.0-94.0-0.0,860.0,"<div style=""display: flex; flex-direction: column; align-items: center; margin-top: -40px;""><img src=""images/pattern_7.png"" style=""width: 234px; height: 230px; margin-top: -50px;""><div style=""display: flex; justify-content: space-between; margin-top: 33px;""><img src=""images/choice_trial_15.png"" style=""width: 408px; height: 417px; margin-right: 200px;""><img src=""images/choice_trial_8.png"" style=""width: 408px; height: 417px;""></div></div>",j,delaylearn,learning,trial,iUPHZqxkJQN4cKRwvdlf0Mmb3Eg2,iUPHZqxkJQN4cKRwvdlf0Mmb3Eg2,2.0,images/choice_trial_15.png,images/choice_trial_8.png,images/pattern_7.png,j,j,750.0,15.0,8.0,6.0,1.0,41.0,1.0,1.0,8.0,200.0,,,,,,576fc3462984e70001a97fc3,16:59:44,27/03/2024
html-keyboard-response,227,471539,0.0-94.0-1.0,,"<div style=""display: flex; flex-direction: column; align-items: center; margin-top: -40px;""><img src=""images/pattern_7.png"" style=""width: 234px; height: 230px; margin-top: -50px;""><div style=""display: flex; justify-content: space-between; margin-top: 33px;""><img src=""images/choice_trial_8.png"" style=""width: 408px; height: 417px; margin-left:608px;""></div></div>",,delaylearn,learning,display_response,iUPHZqxkJQN4cKRwvdlf0Mmb3Eg2,iUPHZqxkJQN4cKRwvdlf0Mmb3Eg2,,,,,,,,,,,,,,,,,chosen stimuli: images/choice_trial_8.png,,,,,576fc3462984e70001a97fc3,16:59:44,27/03/2024
html-keyboard-response,228,472294,0.0-94.0-2.0,,,,delaylearn,learning,feedback_duration_window,iUPHZqxkJQN4cKRwvdlf0Mmb3Eg2,iUPHZqxkJQN4cKRwvdlf0Mmb3Eg2,,,,,,,,,,,,,,,,,,750.0,,,,576fc3462984e70001a97fc3,16:59:44,27/03/2024
html-keyboard-response,229,473798,0.0-94.0-3.0,,<div style='margin:auto;width: auto; font-size: 150%'><span style='font-weight: bold; font-size: 100px; color: green;'>+10 points!</span><br><br></div>,,delaylearn,learning,feedback_image_window,iUPHZqxkJQN4cKRwvdlf0Mmb3Eg2,iUPHZqxkJQN4cKRwvdlf0Mmb3Eg2,,,,,,,,,,,,,,,,,,,,,,576fc3462984e70001a97fc3,16:59:44,27/03/2024
html-keyboard-response,230,475961,0.0-95.0,,"<div style=""font-size:100px;"">+</div>",,delaylearn,learning,ITI,iUPHZqxkJQN4cKRwvdlf0Mmb3Eg2,iUPHZqxkJQN4cKRwvdlf0Mmb3Eg2,,,,,,,,,,,,,,,,,,,2159.0,,,576fc3462984e70001a97fc3,16:59:44,27/03/2024
