trial_type,trial_index,time_elapsed,internal_node_id,rt,stimulus,response,exp_name,exp_stage,test_part,subjectID,databaseID,counterbal,choice_stimuli_1,choice_stimuli_2,pattern_stimuli,rewarded_answer,correct_answer,feedback_duration_times,stim_left,stim_right,pair,leftright_counter,trial,response_correct,response_rewarded,chosen_stim,counter,displayed_choice,feedback_durations,ITI_duration,labels,rest_warning,prolificID,start_time,date
pavlovia,0,650,0.0-0.0,,,,,,,XUqBikyVNPZqG2fmFuJtvkvqI6W2,,,,,,,,,,,,,,,,,,,,,,,5d30f3d2d2938d0001bfbd1e,15:52:17,26/03/2024
html-keyboard-response,1,3661,0.0-1.0,,"<div style=""font-size:100px;"">+</div>",,delaylearn,learning,pre_fixation,XUqBikyVNPZqG2fmFuJtvkvqI6W2,,,,,,,,,,,,,,,,,,,,,,,5d30f3d2d2938d0001bfbd1e,15:52:17,26/03/2024
html-keyboard-response,2,4991,0.0-2.0-0.0,1327.7999999970198,"<div style=""display: flex; flex-direction: column; align-items: center; margin-top: -40px;""><img src=""images/demo_images/pattern_1.png"" style=""width: 234px; height: 230px; margin-top: -50px;""><div style=""display: flex; justify-content: space-between; margin-top: 33px;""><img src=""images/demo_images/choice_trial_2.png"" style=""width: 408px; height: 417px; margin-right: 200px;""><img src=""images/demo_images/choice_trial_1.png"" style=""width: 408px; height: 417px;""></div></div>",j,delaylearn,learning,trial,XUqBikyVNPZqG2fmFuJtvkvqI6W2,XUqBikyVNPZqG2fmFuJtvkvqI6W2,2.0,images/demo_images/choice_trial_2.png,images/demo_images/choice_trial_1.png,images/demo_images/pattern_1.png,j,j,3000.0,2.0,1.0,20.0,1.0,1.0,1.0,1.0,1.0,10.0,,,,,,5d30f3d2d2938d0001bfbd1e,15:52:17,26/03/2024
html-keyboard-response,3,6006,0.0-2.0-1.0,,"<div style=""display: flex; flex-direction: column; align-items: center; margin-top: -40px;""><img src=""images/demo_images/pattern_1.png"" style=""width: 234px; height: 230px; margin-top: -50px;""><div style=""display: flex; justify-content: space-between; margin-top: 33px;""><img src=""images/demo_images/choice_trial_1.png"" style=""width: 408px; height: 417px; margin-left:608px;""></div></div>",,delaylearn,learning,display_response,XUqBikyVNPZqG2fmFuJtvkvqI6W2,XUqBikyVNPZqG2fmFuJtvkvqI6W2,,,,,,,,,,,,,,,,,chosen stimuli: images/demo_images/choice_trial_1.png,,,,,5d30f3d2d2938d0001bfbd1e,15:52:17,26/03/2024
html-keyboard-response,4,9014,0.0-2.0-2.0,,,,delaylearn,learning,feedback_duration_window,XUqBikyVNPZqG2fmFuJtvkvqI6W2,XUqBikyVNPZqG2fmFuJtvkvqI6W2,,,,,,,,,,,,,,,,,,3000.0,,,,5d30f3d2d2938d0001bfbd1e,15:52:17,26/03/2024
html-keyboard-response,5,10518,0.0-2.0-3.0,,<div style='margin:auto;width: auto; font-size: 150%'><span style='font-weight: bold; font-size: 100px; color: green;'>+10 points!</span><br><br></div>,,delaylearn,learning,feedback_image_window,XUqBikyVNPZqG2fmFuJtvkvqI6W2,XUqBikyVNPZqG2fmFuJtvkvqI6W2,,,,,,,,,,,,,,,,,,,,,,5d30f3d2d2938d0001bfbd1e,15:52:17,26/03/2024
html-keyboard-response,6,12455,0.0-3.0,,"<div style=""font-size:100px;"">+</div>",,delaylearn,learning,ITI,XUqBikyVNPZqG2fmFuJtvkvqI6W2,XUqBikyVNPZqG2fmFuJtvkvqI6W2,,,,,,,,,,,,,,,,,,,1925.0,,,5d30f3d2d2938d0001bfbd1e,15:52:17,26/03/2024
html-keyboard-response,7,13415,0.0-4.0-0.0,958.4000000059605,"<div style=""display: flex; flex-direction: column; align-items: center; margin-top: -40px;""><img src=""images/demo_images/pattern_1.png"" style=""width: 234px; height: 230px; margin-top: -50px;""><div style=""display: flex; justify-content: space-between; margin-top: 33px;""><img src=""images/demo_images/choice_trial_2.png"" style=""width: 408px; height: 417px; margin-right: 200px;""><img src=""images/demo_images/choice_trial_1.png"" style=""width: 408px; height: 417px;""></div></div>",j,delaylearn,learning,trial,XUqBikyVNPZqG2fmFuJtvkvqI6W2,XUqBikyVNPZqG2fmFuJtvkvqI6W2,2.0,images/demo_images/choice_trial_2.png,images/demo_images/choice_trial_1.png,images/demo_images/pattern_1.png,j,j,3000.0,2.0,1.0,20.0,1.0,2.0,1.0,1.0,1.0,20.0,,,,,,5d30f3d2d2938d0001bfbd1e,15:52:17,26/03/2024
html-keyboard-response,8,14432,0.0-4.0-1.0,,"<div style=""display: flex; flex-direction: column; align-items: center; margin-top: -40px;""><img src=""images/demo_images/pattern_1.png"" style=""width: 234px; height: 230px; margin-top: -50px;""><div style=""display: flex; justify-content: space-between; margin-top: 33px;""><img src=""images/demo_images/choice_trial_1.png"" style=""width: 408px; height: 417px; margin-left:608px;""></div></div>",,delaylearn,learning,display_response,XUqBikyVNPZqG2fmFuJtvkvqI6W2,XUqBikyVNPZqG2fmFuJtvkvqI6W2,,,,,,,,,,,,,,,,,chosen stimuli: images/demo_images/choice_trial_1.png,,,,,5d30f3d2d2938d0001bfbd1e,15:52:17,26/03/2024
html-keyboard-response,9,17438,0.0-4.0-2.0,,,,delaylearn,learning,feedback_duration_window,XUqBikyVNPZqG2fmFuJtvkvqI6W2,XUqBikyVNPZqG2fmFuJtvkvqI6W2,,,,,,,,,,,,,,,,,,3000.0,,,,5d30f3d2d2938d0001bfbd1e,15:52:17,26/03/2024
html-keyboard-response,10,18941,0.0-4.0-3.0,,<div style='margin:auto;width: auto; font-size: 150%'><span style='font-weight: bold; font-size: 100px; color: green;'>+10 points!</span><br><br></div>,,delaylearn,learning,feedback_image_window,XUqBikyVNPZqG2fmFuJtvkvqI6W2,XUqBikyVNPZqG2fmFuJtvkvqI6W2,,,,,,,,,,,,,,,,,,,,,,5d30f3d2d2938d0001bfbd1e,15:52:17,26/03/2024
html-keyboard-response,11,21246,0.0-5.0,,"<div style=""font-size:100px;"">+</div>",,delaylearn,learning,ITI,XUqBikyVNPZqG2fmFuJtvkvqI6W2,XUqBikyVNPZqG2fmFuJtvkvqI6W2,,,,,,,,,,,,,,,,,,,2291.0,,,5d30f3d2d2938d0001bfbd1e,15:52:17,26/03/2024
html-keyboard-response,12,22072,0.0-6.0-0.0,824.9000000059605,"<div style=""display: flex; flex-direction: column; align-items: center; margin-top: -40px;""><img src=""images/demo_images/pattern_1.png"" style=""width: 234px; height: 230px; margin-top: -50px;""><div style=""display: flex; justify-content: space-between; margin-top: 33px;""><img src=""images/demo_images/choice_trial_1.png"" style=""width: 408px; height: 417px; margin-right: 200px;""><img src=""images/demo_images/choice_trial_2.png"" style=""width: 408px; height: 417px;""></div></div>",f,delaylearn,learning,trial,XUqBikyVNPZqG2fmFuJtvkvqI6W2,XUqBikyVNPZqG2fmFuJtvkvqI6W2,2.0,images/demo_images/choice_trial_1.png,images/demo_images/choice_trial_2.png,images/demo_images/pattern_1.png,j,f,3000.0,1.0,2.0,20.0,0.0,3.0,1.0,0.0,1.0,20.0,,,,,,5d30f3d2d2938d0001bfbd1e,15:52:17,26/03/2024
html-keyboard-response,13,23083,0.0-6.0-1.0,,"<div style=""display: flex; flex-direction: column; align-items: center; margin-top: -40px;""><img src=""images/demo_images/pattern_1.png"" style=""width: 234px; height: 230px; margin-top: -50px;""><div style=""display: flex; justify-content: space-between; margin-top: 33px;""><img src=""images/demo_images/choice_trial_1.png"" style=""width: 408px; height: 417px; margin-right: 608px;""></div></div>",,delaylearn,learning,display_response,XUqBikyVNPZqG2fmFuJtvkvqI6W2,XUqBikyVNPZqG2fmFuJtvkvqI6W2,,,,,,,,,,,,,,,,,chosen stimuli: images/demo_images/choice_trial_1.png,,,,,5d30f3d2d2938d0001bfbd1e,15:52:17,26/03/2024
html-keyboard-response,14,26091,0.0-6.0-2.0,,,,delaylearn,learning,feedback_duration_window,XUqBikyVNPZqG2fmFuJtvkvqI6W2,XUqBikyVNPZqG2fmFuJtvkvqI6W2,,,,,,,,,,,,,,,,,,3000.0,,,,5d30f3d2d2938d0001bfbd1e,15:52:17,26/03/2024
html-keyboard-response,15,27594,0.0-6.0-3.0,,<div style='margin:auto;width: auto; font-size: 150%'><span style='font-weight: bold; font-size: 100px; color: red;'>0 points!</span><br><br></div>,,delaylearn,learning,feedback_image_window,XUqBikyVNPZqG2fmFuJtvkvqI6W2,XUqBikyVNPZqG2fmFuJtvkvqI6W2,,,,,,,,,,,,,,,,,,,,,,5d30f3d2d2938d0001bfbd1e,15:52:17,26/03/2024
html-keyboard-response,16,30052,0.0-7.0,,"<div style=""font-size:100px;"">+</div>",,delaylearn,learning,ITI,XUqBikyVNPZqG2fmFuJtvkvqI6W2,XUqBikyVNPZqG2fmFuJtvkvqI6W2,,,,,,,,,,,,,,,,,,,2446.0,,,5d30f3d2d2938d0001bfbd1e,15:52:17,26/03/2024
html-keyboard-response,17,32089,0.0-8.0-0.0,2035.0,"<div style=""display: flex; flex-direction: column; align-items: center; margin-top: -40px;""><img src=""images/demo_images/pattern_1.png"" style=""width: 234px; height: 230px; margin-top: -50px;""><div style=""display: flex; justify-content: space-between; margin-top: 33px;""><img src=""images/demo_images/choice_trial_1.png"" style=""width: 408px; height: 417px; margin-right: 200px;""><img src=""images/demo_images/choice_trial_2.png"" style=""width: 408px; height: 417px;""></div></div>",f,delaylearn,learning,trial,XUqBikyVNPZqG2fmFuJtvkvqI6W2,XUqBikyVNPZqG2fmFuJtvkvqI6W2,2.0,images/demo_images/choice_trial_1.png,images/demo_images/choice_trial_2.png,images/demo_images/pattern_1.png,f,f,3000.0,1.0,2.0,20.0,0.0,4.0,1.0,1.0,1.0,30.0,,,,,,5d30f3d2d2938d0001bfbd1e,15:52:17,26/03/2024
html-keyboard-response,18,33094,0.0-8.0-1.0,,"<div style=""display: flex; flex-direction: column; align-items: center; margin-top: -40px;""><img src=""images/demo_images/pattern_1.png"" style=""width: 234px; height: 230px; margin-top: -50px;""><div style=""display: flex; justify-content: space-between; margin-top: 33px;""><img src=""images/demo_images/choice_trial_1.png"" style=""width: 408px; height: 417px; margin-right: 608px;""></div></div>",,delaylearn,learning,display_response,XUqBikyVNPZqG2fmFuJtvkvqI6W2,XUqBikyVNPZqG2fmFuJtvkvqI6W2,,,,,,,,,,,,,,,,,chosen stimuli: images/demo_images/choice_trial_1.png,,,,,5d30f3d2d2938d0001bfbd1e,15:52:17,26/03/2024
html-keyboard-response,19,36101,0.0-8.0-2.0,,,,delaylearn,learning,feedback_duration_window,XUqBikyVNPZqG2fmFuJtvkvqI6W2,XUqBikyVNPZqG2fmFuJtvkvqI6W2,,,,,,,,,,,,,,,,,,3000.0,,,,5d30f3d2d2938d0001bfbd1e,15:52:17,26/03/2024
html-keyboard-response,20,37606,0.0-8.0-3.0,,<div style='margin:auto;width: auto; font-size: 150%'><span style='font-weight: bold; font-size: 100px; color: green;'>+10 points!</span><br><br></div>,,delaylearn,learning,feedback_image_window,XUqBikyVNPZqG2fmFuJtvkvqI6W2,XUqBikyVNPZqG2fmFuJtvkvqI6W2,,,,,,,,,,,,,,,,,,,,,,5d30f3d2d2938d0001bfbd1e,15:52:17,26/03/2024
html-keyboard-response,21,38107,0.0-9.0-0.0,,,,,,mood_trial_fixation,XUqBikyVNPZqG2fmFuJtvkvqI6W2,,,,,,,,,,,,,,,,,,,,,,,5d30f3d2d2938d0001bfbd1e,15:52:17,26/03/2024
lmdlab-html-vas-response,22,42634,0.0-9.0-1.0,3510.0,How happy are you right now?,0.6996710860940626,delaylearn,learning,mood_trial,XUqBikyVNPZqG2fmFuJtvkvqI6W2,XUqBikyVNPZqG2fmFuJtvkvqI6W2,,,,,,,,,,,,,,,,,,,,"['Very unhappy', 'Very happy']",,5d30f3d2d2938d0001bfbd1e,15:52:17,26/03/2024
html-keyboard-response,23,45136,0.0-10.0,,"<div style=""font-size:100px;"">+</div>",,delaylearn,learning,ITI,XUqBikyVNPZqG2fmFuJtvkvqI6W2,XUqBikyVNPZqG2fmFuJtvkvqI6W2,,,,,,,,,,,,,,,,,,,2491.0,,,5d30f3d2d2938d0001bfbd1e,15:52:17,26/03/2024
html-keyboard-response,24,48146,0.0-11.0-0.0,,"<div style=""display: flex; flex-direction: column; align-items: center; margin-top: -40px;""><img src=""images/demo_images/pattern_1.png"" style=""width: 234px; height: 230px; margin-top: -50px;""><div style=""display: flex; justify-content: space-between; margin-top: 33px;""><img src=""images/demo_images/choice_trial_2.png"" style=""width: 408px; height: 417px; margin-right: 200px;""><img src=""images/demo_images/choice_trial_1.png"" style=""width: 408px; height: 417px;""></div></div>",,delaylearn,learning,trial,XUqBikyVNPZqG2fmFuJtvkvqI6W2,XUqBikyVNPZqG2fmFuJtvkvqI6W2,2.0,images/demo_images/choice_trial_2.png,images/demo_images/choice_trial_1.png,images/demo_images/pattern_1.png,j,j,3000.0,2.0,1.0,20.0,1.0,5.0,0.0,0.0,0.0,30.0,,,,,,5d30f3d2d2938d0001bfbd1e,15:52:17,26/03/2024
html-keyboard-response,25,49149,0.0-11.0-1.0,,<div style='font-weight: bold; font-size: 75px; color: red;'>Missed Trial <br><br><br><br> Please respond faster</div>,,delaylearn,learning,display_response,XUqBikyVNPZqG2fmFuJtvkvqI6W2,XUqBikyVNPZqG2fmFuJtvkvqI6W2,,,,,,,,,,,,,,,,,Missed trial,,,,,5d30f3d2d2938d0001bfbd1e,15:52:17,26/03/2024
html-keyboard-response,26,49155,0.0-11.0-2.0,,,,delaylearn,learning,feedback_duration_window,XUqBikyVNPZqG2fmFuJtvkvqI6W2,XUqBikyVNPZqG2fmFuJtvkvqI6W2,,,,,,,,,,,,,,,,,,0.0,,,,5d30f3d2d2938d0001bfbd1e,15:52:17,26/03/2024
html-keyboard-response,27,49160,0.0-11.0-3.0,,,,delaylearn,learning,feedback_image_window,XUqBikyVNPZqG2fmFuJtvkvqI6W2,XUqBikyVNPZqG2fmFuJtvkvqI6W2,,,,,,,,,,,,,,,,,,,,,,5d30f3d2d2938d0001bfbd1e,15:52:17,26/03/2024
html-keyboard-response,28,51107,0.0-12.0,,"<div style=""font-size:100px;"">+</div>",,delaylearn,learning,ITI,XUqBikyVNPZqG2fmFuJtvkvqI6W2,XUqBikyVNPZqG2fmFuJtvkvqI6W2,,,,,,,,,,,,,,,,,,,1930.0,,,5d30f3d2d2938d0001bfbd1e,15:52:17,26/03/2024
html-keyboard-response,29,52236,0.0-13.0-0.0,1127.3999999910593,"<div style=""display: flex; flex-direction: column; align-items: center; margin-top: -40px;""><img src=""images/demo_images/pattern_1.png"" style=""width: 234px; height: 230px; margin-top: -50px;""><div style=""display: flex; justify-content: space-between; margin-top: 33px;""><img src=""images/demo_images/choice_trial_1.png"" style=""width: 408px; height: 417px; margin-right: 200px;""><img src=""images/demo_images/choice_trial_2.png"" style=""width: 408px; height: 417px;""></div></div>",j,delaylearn,learning,trial,XUqBikyVNPZqG2fmFuJtvkvqI6W2,XUqBikyVNPZqG2fmFuJtvkvqI6W2,2.0,images/demo_images/choice_trial_1.png,images/demo_images/choice_trial_2.png,images/demo_images/pattern_1.png,f,f,3000.0,1.0,2.0,20.0,0.0,6.0,0.0,0.0,2.0,30.0,,,,,,5d30f3d2d2938d0001bfbd1e,15:52:17,26/03/2024
html-keyboard-response,30,53246,0.0-13.0-1.0,,"<div style=""display: flex; flex-direction: column; align-items: center; margin-top: -40px;""><img src=""images/demo_images/pattern_1.png"" style=""width: 234px; height: 230px; margin-top: -50px;""><div style=""display: flex; justify-content: space-between; margin-top: 33px;""><img src=""images/demo_images/choice_trial_2.png"" style=""width: 408px; height: 417px; margin-left:608px;""></div></div>",,delaylearn,learning,display_response,XUqBikyVNPZqG2fmFuJtvkvqI6W2,XUqBikyVNPZqG2fmFuJtvkvqI6W2,,,,,,,,,,,,,,,,,chosen stimuli: images/demo_images/choice_trial_2.png,,,,,5d30f3d2d2938d0001bfbd1e,15:52:17,26/03/2024
html-keyboard-response,31,56254,0.0-13.0-2.0,,,,delaylearn,learning,feedback_duration_window,XUqBikyVNPZqG2fmFuJtvkvqI6W2,XUqBikyVNPZqG2fmFuJtvkvqI6W2,,,,,,,,,,,,,,,,,,3000.0,,,,5d30f3d2d2938d0001bfbd1e,15:52:17,26/03/2024
html-keyboard-response,32,57760,0.0-13.0-3.0,,<div style='margin:auto;width: auto; font-size: 150%'><span style='font-weight: bold; font-size: 100px; color: red;'>0 points!</span><br><br></div>,,delaylearn,learning,feedback_image_window,XUqBikyVNPZqG2fmFuJtvkvqI6W2,XUqBikyVNPZqG2fmFuJtvkvqI6W2,,,,,,,,,,,,,,,,,,,,,,5d30f3d2d2938d0001bfbd1e,15:52:17,26/03/2024
html-keyboard-response,33,59695,0.0-14.0,,"<div style=""font-size:100px;"">+</div>",,delaylearn,learning,ITI,XUqBikyVNPZqG2fmFuJtvkvqI6W2,XUqBikyVNPZqG2fmFuJtvkvqI6W2,,,,,,,,,,,,,,,,,,,1921.0,,,5d30f3d2d2938d0001bfbd1e,15:52:17,26/03/2024
html-keyboard-response,34,61121,0.0-15.0-0.0,1424.5,"<div style=""display: flex; flex-direction: column; align-items: center; margin-top: -40px;""><img src=""images/demo_images/pattern_1.png"" style=""width: 234px; height: 230px; margin-top: -50px;""><div style=""display: flex; justify-content: space-between; margin-top: 33px;""><img src=""images/demo_images/choice_trial_2.png"" style=""width: 408px; height: 417px; margin-right: 200px;""><img src=""images/demo_images/choice_trial_1.png"" style=""width: 408px; height: 417px;""></div></div>",j,delaylearn,learning,trial,XUqBikyVNPZqG2fmFuJtvkvqI6W2,XUqBikyVNPZqG2fmFuJtvkvqI6W2,2.0,images/demo_images/choice_trial_2.png,images/demo_images/choice_trial_1.png,images/demo_images/pattern_1.png,j,j,3000.0,2.0,1.0,20.0,1.0,7.0,1.0,1.0,1.0,40.0,,,,,,5d30f3d2d2938d0001bfbd1e,15:52:17,26/03/2024
html-keyboard-response,35,62142,0.0-15.0-1.0,,"<div style=""display: flex; flex-direction: column; align-items: center; margin-top: -40px;""><img src=""images/demo_images/pattern_1.png"" style=""width: 234px; height: 230px; margin-top: -50px;""><div style=""display: flex; justify-content: space-between; margin-top: 33px;""><img src=""images/demo_images/choice_trial_1.png"" style=""width: 408px; height: 417px; margin-left:608px;""></div></div>",,delaylearn,learning,display_response,XUqBikyVNPZqG2fmFuJtvkvqI6W2,XUqBikyVNPZqG2fmFuJtvkvqI6W2,,,,,,,,,,,,,,,,,chosen stimuli: images/demo_images/choice_trial_1.png,,,,,5d30f3d2d2938d0001bfbd1e,15:52:17,26/03/2024
html-keyboard-response,36,65148,0.0-15.0-2.0,,,,delaylearn,learning,feedback_duration_window,XUqBikyVNPZqG2fmFuJtvkvqI6W2,XUqBikyVNPZqG2fmFuJtvkvqI6W2,,,,,,,,,,,,,,,,,,3000.0,,,,5d30f3d2d2938d0001bfbd1e,15:52:17,26/03/2024
html-keyboard-response,37,66654,0.0-15.0-3.0,,<div style='margin:auto;width: auto; font-size: 150%'><span style='font-weight: bold; font-size: 100px; color: green;'>+10 points!</span><br><br></div>,,delaylearn,learning,feedback_image_window,XUqBikyVNPZqG2fmFuJtvkvqI6W2,XUqBikyVNPZqG2fmFuJtvkvqI6W2,,,,,,,,,,,,,,,,,,,,,,5d30f3d2d2938d0001bfbd1e,15:52:17,26/03/2024
html-keyboard-response,38,69158,0.0-16.0,,"<div style=""font-size:100px;"">+</div>",,delaylearn,learning,ITI,XUqBikyVNPZqG2fmFuJtvkvqI6W2,XUqBikyVNPZqG2fmFuJtvkvqI6W2,,,,,,,,,,,,,,,,,,,2487.0,,,5d30f3d2d2938d0001bfbd1e,15:52:17,26/03/2024
html-keyboard-response,39,70156,0.0-17.0-0.0,995.7999999970198,"<div style=""display: flex; flex-direction: column; align-items: center; margin-top: -40px;""><img src=""images/demo_images/pattern_1.png"" style=""width: 234px; height: 230px; margin-top: -50px;""><div style=""display: flex; justify-content: space-between; margin-top: 33px;""><img src=""images/demo_images/choice_trial_1.png"" style=""width: 408px; height: 417px; margin-right: 200px;""><img src=""images/demo_images/choice_trial_2.png"" style=""width: 408px; height: 417px;""></div></div>",f,delaylearn,learning,trial,XUqBikyVNPZqG2fmFuJtvkvqI6W2,XUqBikyVNPZqG2fmFuJtvkvqI6W2,2.0,images/demo_images/choice_trial_1.png,images/demo_images/choice_trial_2.png,images/demo_images/pattern_1.png,f,f,3000.0,1.0,2.0,20.0,0.0,8.0,1.0,1.0,1.0,50.0,,,,,,5d30f3d2d2938d0001bfbd1e,15:52:17,26/03/2024
html-keyboard-response,40,71165,0.0-17.0-1.0,,"<div style=""display: flex; flex-direction: column; align-items: center; margin-top: -40px;""><img src=""images/demo_images/pattern_1.png"" style=""width: 234px; height: 230px; margin-top: -50px;""><div style=""display: flex; justify-content: space-between; margin-top: 33px;""><img src=""images/demo_images/choice_trial_1.png"" style=""width: 408px; height: 417px; margin-right: 608px;""></div></div>",,delaylearn,learning,display_response,XUqBikyVNPZqG2fmFuJtvkvqI6W2,XUqBikyVNPZqG2fmFuJtvkvqI6W2,,,,,,,,,,,,,,,,,chosen stimuli: images/demo_images/choice_trial_1.png,,,,,5d30f3d2d2938d0001bfbd1e,15:52:17,26/03/2024
html-keyboard-response,41,74172,0.0-17.0-2.0,,,,delaylearn,learning,feedback_duration_window,XUqBikyVNPZqG2fmFuJtvkvqI6W2,XUqBikyVNPZqG2fmFuJtvkvqI6W2,,,,,,,,,,,,,,,,,,3000.0,,,,5d30f3d2d2938d0001bfbd1e,15:52:17,26/03/2024
html-keyboard-response,42,75675,0.0-17.0-3.0,,<div style='margin:auto;width: auto; font-size: 150%'><span style='font-weight: bold; font-size: 100px; color: green;'>+10 points!</span><br><br></div>,,delaylearn,learning,feedback_image_window,XUqBikyVNPZqG2fmFuJtvkvqI6W2,XUqBikyVNPZqG2fmFuJtvkvqI6W2,,,,,,,,,,,,,,,,,,,,,,5d30f3d2d2938d0001bfbd1e,15:52:17,26/03/2024
html-button-response,43,78570,0.0-18.0,2893.5,"
  <div style=""display: flex; align-items: center; justify-content: center; height: 80vh;"">
  <div>
          <img src=""images/inst_demo_finish.png"" style=""width: 80vw; height:auto;"">
          <br><br>
      </div>
      <br><br>
  </div>",0,,,,XUqBikyVNPZqG2fmFuJtvkvqI6W2,,,,,,,,,,,,,,,,,,,,,,,5d30f3d2d2938d0001bfbd1e,15:52:17,26/03/2024
html-keyboard-response,44,84196,0.0-19.0,5624.899999991059,"
  <div style=""display: flex; align-items: center; justify-content: center; height: 80vh;"">
  <div>
          <img src=""images/inst_6.png"" style=""width: 80vw; height:auto;"">
          <br><br>
      </div>
      <br><br>
  </div>",f,,,,XUqBikyVNPZqG2fmFuJtvkvqI6W2,,,,,,,,,,,,,,,,,,,,,,,5d30f3d2d2938d0001bfbd1e,15:52:17,26/03/2024
html-keyboard-response,45,87208,0.0-20.0,,"<div style=""font-size:100px;"">+</div>",,delaylearn,learning,pre_fixation,XUqBikyVNPZqG2fmFuJtvkvqI6W2,,,,,,,,,,,,,,,,,,,,,,,5d30f3d2d2938d0001bfbd1e,15:52:17,26/03/2024
html-keyboard-response,46,89562,0.0-21.0,,"<div style=""font-size:100px;"">+</div>",,delaylearn,learning,ITI,XUqBikyVNPZqG2fmFuJtvkvqI6W2,XUqBikyVNPZqG2fmFuJtvkvqI6W2,,,,,,,,,,,,,,,,,,,2352.0,,,5d30f3d2d2938d0001bfbd1e,15:52:17,26/03/2024
html-keyboard-response,47,91114,0.0-22.0-0.0,1551.0999999940395,"<div style=""display: flex; flex-direction: column; align-items: center; margin-top: -40px;""><img src=""images/pattern_3.png"" style=""width: 234px; height: 230px; margin-top: -50px;""><div style=""display: flex; justify-content: space-between; margin-top: 33px;""><img src=""images/choice_trial_12.png"" style=""width: 408px; height: 417px; margin-right: 200px;""><img src=""images/choice_trial_14.png"" style=""width: 408px; height: 417px;""></div></div>",f,delaylearn,learning,trial,XUqBikyVNPZqG2fmFuJtvkvqI6W2,XUqBikyVNPZqG2fmFuJtvkvqI6W2,2.0,images/choice_trial_12.png,images/choice_trial_14.png,images/pattern_3.png,f,f,7000.0,12.0,14.0,2.0,0.0,9.0,1.0,1.0,12.0,60.0,,,,,,5d30f3d2d2938d0001bfbd1e,15:52:17,26/03/2024
html-keyboard-response,48,92124,0.0-22.0-1.0,,"<div style=""display: flex; flex-direction: column; align-items: center; margin-top: -40px;""><img src=""images/pattern_3.png"" style=""width: 234px; height: 230px; margin-top: -50px;""><div style=""display: flex; justify-content: space-between; margin-top: 33px;""><img src=""images/choice_trial_12.png"" style=""width: 408px; height: 417px; margin-right: 608px;""></div></div>",,delaylearn,learning,display_response,XUqBikyVNPZqG2fmFuJtvkvqI6W2,XUqBikyVNPZqG2fmFuJtvkvqI6W2,,,,,,,,,,,,,,,,,chosen stimuli: images/choice_trial_12.png,,,,,5d30f3d2d2938d0001bfbd1e,15:52:17,26/03/2024
html-keyboard-response,49,99144,0.0-22.0-2.0,,,,delaylearn,learning,feedback_duration_window,XUqBikyVNPZqG2fmFuJtvkvqI6W2,XUqBikyVNPZqG2fmFuJtvkvqI6W2,,,,,,,,,,,,,,,,,,7000.0,,,,5d30f3d2d2938d0001bfbd1e,15:52:17,26/03/2024
html-keyboard-response,50,100648,0.0-22.0-3.0,,<div style='margin:auto;width: auto; font-size: 150%'><span style='font-weight: bold; font-size: 100px; color: green;'>+10 points!</span><br><br></div>,,delaylearn,learning,feedback_image_window,XUqBikyVNPZqG2fmFuJtvkvqI6W2,XUqBikyVNPZqG2fmFuJtvkvqI6W2,,,,,,,,,,,,,,,,,,,,,,5d30f3d2d2938d0001bfbd1e,15:52:17,26/03/2024
html-keyboard-response,51,102934,0.0-23.0,,"<div style=""font-size:100px;"">+</div>",,delaylearn,learning,ITI,XUqBikyVNPZqG2fmFuJtvkvqI6W2,XUqBikyVNPZqG2fmFuJtvkvqI6W2,,,,,,,,,,,,,,,,,,,2272.0,,,5d30f3d2d2938d0001bfbd1e,15:52:17,26/03/2024
html-keyboard-response,52,105782,0.0-24.0-0.0,2846.5999999940395,"<div style=""display: flex; flex-direction: column; align-items: center; margin-top: -40px;""><img src=""images/pattern_7.png"" style=""width: 234px; height: 230px; margin-top: -50px;""><div style=""display: flex; justify-content: space-between; margin-top: 33px;""><img src=""images/choice_trial_15.png"" style=""width: 408px; height: 417px; margin-right: 200px;""><img src=""images/choice_trial_8.png"" style=""width: 408px; height: 417px;""></div></div>",j,delaylearn,learning,trial,XUqBikyVNPZqG2fmFuJtvkvqI6W2,XUqBikyVNPZqG2fmFuJtvkvqI6W2,2.0,images/choice_trial_15.png,images/choice_trial_8.png,images/pattern_7.png,j,j,750.0,15.0,8.0,6.0,1.0,10.0,1.0,1.0,8.0,70.0,,,,,,5d30f3d2d2938d0001bfbd1e,15:52:17,26/03/2024
html-keyboard-response,53,106799,0.0-24.0-1.0,,"<div style=""display: flex; flex-direction: column; align-items: center; margin-top: -40px;""><img src=""images/pattern_7.png"" style=""width: 234px; height: 230px; margin-top: -50px;""><div style=""display: flex; justify-content: space-between; margin-top: 33px;""><img src=""images/choice_trial_8.png"" style=""width: 408px; height: 417px; margin-left:608px;""></div></div>",,delaylearn,learning,display_response,XUqBikyVNPZqG2fmFuJtvkvqI6W2,XUqBikyVNPZqG2fmFuJtvkvqI6W2,,,,,,,,,,,,,,,,,chosen stimuli: images/choice_trial_8.png,,,,,5d30f3d2d2938d0001bfbd1e,15:52:17,26/03/2024
html-keyboard-response,54,107570,0.0-24.0-2.0,,,,delaylearn,learning,feedback_duration_window,XUqBikyVNPZqG2fmFuJtvkvqI6W2,XUqBikyVNPZqG2fmFuJtvkvqI6W2,,,,,,,,,,,,,,,,,,750.0,,,,5d30f3d2d2938d0001bfbd1e,15:52:17,26/03/2024
html-keyboard-response,55,109073,0.0-24.0-3.0,,<div style='margin:auto;width: auto; font-size: 150%'><span style='font-weight: bold; font-size: 100px; color: green;'>+10 points!</span><br><br></div>,,delaylearn,learning,feedback_image_window,XUqBikyVNPZqG2fmFuJtvkvqI6W2,XUqBikyVNPZqG2fmFuJtvkvqI6W2,,,,,,,,,,,,,,,,,,,,,,5d30f3d2d2938d0001bfbd1e,15:52:17,26/03/2024
html-keyboard-response,56,110895,0.0-25.0,,"<div style=""font-size:100px;"">+</div>",,delaylearn,learning,ITI,XUqBikyVNPZqG2fmFuJtvkvqI6W2,XUqBikyVNPZqG2fmFuJtvkvqI6W2,,,,,,,,,,,,,,,,,,,1816.0,,,5d30f3d2d2938d0001bfbd1e,15:52:17,26/03/2024
html-keyboard-response,57,113824,0.0-26.0-0.0,2928.1000000089407,"<div style=""display: flex; flex-direction: column; align-items: center; margin-top: -40px;""><img src=""images/pattern_4.png"" style=""width: 234px; height: 230px; margin-top: -50px;""><div style=""display: flex; justify-content: space-between; margin-top: 33px;""><img src=""images/choice_trial_4.png"" style=""width: 408px; height: 417px; margin-right: 200px;""><img src=""images/choice_trial_16.png"" style=""width: 408px; height: 417px;""></div></div>",j,delaylearn,learning,trial,XUqBikyVNPZqG2fmFuJtvkvqI6W2,XUqBikyVNPZqG2fmFuJtvkvqI6W2,2.0,images/choice_trial_4.png,images/choice_trial_16.png,images/pattern_4.png,f,f,7000.0,4.0,16.0,3.0,0.0,11.0,0.0,0.0,16.0,70.0,,,,,,5d30f3d2d2938d0001bfbd1e,15:52:17,26/03/2024
html-keyboard-response,58,114840,0.0-26.0-1.0,,"<div style=""display: flex; flex-direction: column; align-items: center; margin-top: -40px;""><img src=""images/pattern_4.png"" style=""width: 234px; height: 230px; margin-top: -50px;""><div style=""display: flex; justify-content: space-between; margin-top: 33px;""><img src=""images/choice_trial_16.png"" style=""width: 408px; height: 417px; margin-left:608px;""></div></div>",,delaylearn,learning,display_response,XUqBikyVNPZqG2fmFuJtvkvqI6W2,XUqBikyVNPZqG2fmFuJtvkvqI6W2,,,,,,,,,,,,,,,,,chosen stimuli: images/choice_trial_16.png,,,,,5d30f3d2d2938d0001bfbd1e,15:52:17,26/03/2024
html-keyboard-response,59,121842,0.0-26.0-2.0,,,,delaylearn,learning,feedback_duration_window,XUqBikyVNPZqG2fmFuJtvkvqI6W2,XUqBikyVNPZqG2fmFuJtvkvqI6W2,,,,,,,,,,,,,,,,,,7000.0,,,,5d30f3d2d2938d0001bfbd1e,15:52:17,26/03/2024
html-keyboard-response,60,123347,0.0-26.0-3.0,,<div style='margin:auto;width: auto; font-size: 150%'><span style='font-weight: bold; font-size: 100px; color: red;'>0 points!</span><br><br></div>,,delaylearn,learning,feedback_image_window,XUqBikyVNPZqG2fmFuJtvkvqI6W2,XUqBikyVNPZqG2fmFuJtvkvqI6W2,,,,,,,,,,,,,,,,,,,,,,5d30f3d2d2938d0001bfbd1e,15:52:17,26/03/2024
html-keyboard-response,61,125350,0.0-27.0,,"<div style=""font-size:100px;"">+</div>",,delaylearn,learning,ITI,XUqBikyVNPZqG2fmFuJtvkvqI6W2,XUqBikyVNPZqG2fmFuJtvkvqI6W2,,,,,,,,,,,,,,,,,,,1994.0,,,5d30f3d2d2938d0001bfbd1e,15:52:17,26/03/2024
html-keyboard-response,62,127334,0.0-28.0-0.0,1981.800000011921,"<div style=""display: flex; flex-direction: column; align-items: center; margin-top: -40px;""><img src=""images/pattern_5.png"" style=""width: 234px; height: 230px; margin-top: -50px;""><div style=""display: flex; justify-content: space-between; margin-top: 33px;""><img src=""images/choice_trial_9.png"" style=""width: 408px; height: 417px; margin-right: 200px;""><img src=""images/choice_trial_2.png"" style=""width: 408px; height: 417px;""></div></div>",f,delaylearn,learning,trial,XUqBikyVNPZqG2fmFuJtvkvqI6W2,XUqBikyVNPZqG2fmFuJtvkvqI6W2,2.0,images/choice_trial_9.png,images/choice_trial_2.png,images/pattern_5.png,j,j,750.0,9.0,2.0,4.0,1.0,12.0,0.0,0.0,9.0,70.0,,,,,,5d30f3d2d2938d0001bfbd1e,15:52:17,26/03/2024
html-keyboard-response,63,128343,0.0-28.0-1.0,,"<div style=""display: flex; flex-direction: column; align-items: center; margin-top: -40px;""><img src=""images/pattern_5.png"" style=""width: 234px; height: 230px; margin-top: -50px;""><div style=""display: flex; justify-content: space-between; margin-top: 33px;""><img src=""images/choice_trial_9.png"" style=""width: 408px; height: 417px; margin-right: 608px;""></div></div>",,delaylearn,learning,display_response,XUqBikyVNPZqG2fmFuJtvkvqI6W2,XUqBikyVNPZqG2fmFuJtvkvqI6W2,,,,,,,,,,,,,,,,,chosen stimuli: images/choice_trial_9.png,,,,,5d30f3d2d2938d0001bfbd1e,15:52:17,26/03/2024
html-keyboard-response,64,129098,0.0-28.0-2.0,,,,delaylearn,learning,feedback_duration_window,XUqBikyVNPZqG2fmFuJtvkvqI6W2,XUqBikyVNPZqG2fmFuJtvkvqI6W2,,,,,,,,,,,,,,,,,,750.0,,,,5d30f3d2d2938d0001bfbd1e,15:52:17,26/03/2024
html-keyboard-response,65,130602,0.0-28.0-3.0,,<div style='margin:auto;width: auto; font-size: 150%'><span style='font-weight: bold; font-size: 100px; color: red;'>0 points!</span><br><br></div>,,delaylearn,learning,feedback_image_window,XUqBikyVNPZqG2fmFuJtvkvqI6W2,XUqBikyVNPZqG2fmFuJtvkvqI6W2,,,,,,,,,,,,,,,,,,,,,,5d30f3d2d2938d0001bfbd1e,15:52:17,26/03/2024
html-keyboard-response,66,132523,0.0-29.0,,"<div style=""font-size:100px;"">+</div>",,delaylearn,learning,ITI,XUqBikyVNPZqG2fmFuJtvkvqI6W2,XUqBikyVNPZqG2fmFuJtvkvqI6W2,,,,,,,,,,,,,,,,,,,1918.0,,,5d30f3d2d2938d0001bfbd1e,15:52:17,26/03/2024
html-keyboard-response,67,135531,0.0-30.0-0.0,,"<div style=""display: flex; flex-direction: column; align-items: center; margin-top: -40px;""><img src=""images/pattern_6.png"" style=""width: 234px; height: 230px; margin-top: -50px;""><div style=""display: flex; justify-content: space-between; margin-top: 33px;""><img src=""images/choice_trial_11.png"" style=""width: 408px; height: 417px; margin-right: 200px;""><img src=""images/choice_trial_5.png"" style=""width: 408px; height: 417px;""></div></div>",,delaylearn,learning,trial,XUqBikyVNPZqG2fmFuJtvkvqI6W2,XUqBikyVNPZqG2fmFuJtvkvqI6W2,2.0,images/choice_trial_11.png,images/choice_trial_5.png,images/pattern_6.png,j,f,750.0,11.0,5.0,5.0,0.0,13.0,0.0,0.0,0.0,70.0,,,,,,5d30f3d2d2938d0001bfbd1e,15:52:17,26/03/2024
html-keyboard-response,68,136533,0.0-30.0-1.0,,<div style='font-weight: bold; font-size: 75px; color: red;'>Missed Trial <br><br><br><br> Please respond faster</div>,,delaylearn,learning,display_response,XUqBikyVNPZqG2fmFuJtvkvqI6W2,XUqBikyVNPZqG2fmFuJtvkvqI6W2,,,,,,,,,,,,,,,,,Missed trial,,,,,5d30f3d2d2938d0001bfbd1e,15:52:17,26/03/2024
html-keyboard-response,69,136539,0.0-30.0-2.0,,,,delaylearn,learning,feedback_duration_window,XUqBikyVNPZqG2fmFuJtvkvqI6W2,XUqBikyVNPZqG2fmFuJtvkvqI6W2,,,,,,,,,,,,,,,,,,0.0,,,,5d30f3d2d2938d0001bfbd1e,15:52:17,26/03/2024
html-keyboard-response,70,136544,0.0-30.0-3.0,,,,delaylearn,learning,feedback_image_window,XUqBikyVNPZqG2fmFuJtvkvqI6W2,XUqBikyVNPZqG2fmFuJtvkvqI6W2,,,,,,,,,,,,,,,,,,,,,,5d30f3d2d2938d0001bfbd1e,15:52:17,26/03/2024
html-keyboard-response,71,137050,0.0-31.0-0.0,,,,,,mood_trial_fixation,XUqBikyVNPZqG2fmFuJtvkvqI6W2,,,,,,,,,,,,,,,,,,,,,,,5d30f3d2d2938d0001bfbd1e,15:52:17,26/03/2024
lmdlab-html-vas-response,72,141929,0.0-31.0-1.0,3871.0,How happy are you right now?,0.371977891560137,delaylearn,learning,mood_trial,XUqBikyVNPZqG2fmFuJtvkvqI6W2,XUqBikyVNPZqG2fmFuJtvkvqI6W2,,,,,,,,,,,,,,,,,,,,"['Very unhappy', 'Very happy']",,5d30f3d2d2938d0001bfbd1e,15:52:17,26/03/2024
html-keyboard-response,73,143949,0.0-32.0,,"<div style=""font-size:100px;"">+</div>",,delaylearn,learning,ITI,XUqBikyVNPZqG2fmFuJtvkvqI6W2,XUqBikyVNPZqG2fmFuJtvkvqI6W2,,,,,,,,,,,,,,,,,,,2014.0,,,5d30f3d2d2938d0001bfbd1e,15:52:17,26/03/2024
html-keyboard-response,74,144858,0.0-33.0-0.0,907.0,"<div style=""display: flex; flex-direction: column; align-items: center; margin-top: -40px;""><img src=""images/pattern_1.png"" style=""width: 234px; height: 230px; margin-top: -50px;""><div style=""display: flex; justify-content: space-between; margin-top: 33px;""><img src=""images/choice_trial_10.png"" style=""width: 408px; height: 417px; margin-right: 200px;""><img src=""images/choice_trial_3.png"" style=""width: 408px; height: 417px;""></div></div>",j,delaylearn,learning,trial,XUqBikyVNPZqG2fmFuJtvkvqI6W2,XUqBikyVNPZqG2fmFuJtvkvqI6W2,2.0,images/choice_trial_10.png,images/choice_trial_3.png,images/pattern_1.png,j,j,7000.0,10.0,3.0,1.0,1.0,14.0,1.0,1.0,3.0,80.0,,,,,,5d30f3d2d2938d0001bfbd1e,15:52:17,26/03/2024
html-keyboard-response,75,145872,0.0-33.0-1.0,,"<div style=""display: flex; flex-direction: column; align-items: center; margin-top: -40px;""><img src=""images/pattern_1.png"" style=""width: 234px; height: 230px; margin-top: -50px;""><div style=""display: flex; justify-content: space-between; margin-top: 33px;""><img src=""images/choice_trial_3.png"" style=""width: 408px; height: 417px; margin-left:608px;""></div></div>",,delaylearn,learning,display_response,XUqBikyVNPZqG2fmFuJtvkvqI6W2,XUqBikyVNPZqG2fmFuJtvkvqI6W2,,,,,,,,,,,,,,,,,chosen stimuli: images/choice_trial_3.png,,,,,5d30f3d2d2938d0001bfbd1e,15:52:17,26/03/2024
html-keyboard-response,76,152873,0.0-33.0-2.0,,,,delaylearn,learning,feedback_duration_window,XUqBikyVNPZqG2fmFuJtvkvqI6W2,XUqBikyVNPZqG2fmFuJtvkvqI6W2,,,,,,,,,,,,,,,,,,7000.0,,,,5d30f3d2d2938d0001bfbd1e,15:52:17,26/03/2024
html-keyboard-response,77,154376,0.0-33.0-3.0,,<div style='margin:auto;width: auto; font-size: 150%'><span style='font-weight: bold; font-size: 100px; color: green;'>+10 points!</span><br><br></div>,,delaylearn,learning,feedback_image_window,XUqBikyVNPZqG2fmFuJtvkvqI6W2,XUqBikyVNPZqG2fmFuJtvkvqI6W2,,,,,,,,,,,,,,,,,,,,,,5d30f3d2d2938d0001bfbd1e,15:52:17,26/03/2024
html-keyboard-response,78,155980,0.0-34.0,,"<div style=""font-size:100px;"">+</div>",,delaylearn,learning,ITI,XUqBikyVNPZqG2fmFuJtvkvqI6W2,XUqBikyVNPZqG2fmFuJtvkvqI6W2,,,,,,,,,,,,,,,,,,,1590.0,,,5d30f3d2d2938d0001bfbd1e,15:52:17,26/03/2024
html-keyboard-response,79,157070,0.0-35.0-0.0,1088.7000000029802,"<div style=""display: flex; flex-direction: column; align-items: center; margin-top: -40px;""><img src=""images/pattern_3.png"" style=""width: 234px; height: 230px; margin-top: -50px;""><div style=""display: flex; justify-content: space-between; margin-top: 33px;""><img src=""images/choice_trial_14.png"" style=""width: 408px; height: 417px; margin-right: 200px;""><img src=""images/choice_trial_12.png"" style=""width: 408px; height: 417px;""></div></div>",j,delaylearn,learning,trial,XUqBikyVNPZqG2fmFuJtvkvqI6W2,XUqBikyVNPZqG2fmFuJtvkvqI6W2,2.0,images/choice_trial_14.png,images/choice_trial_12.png,images/pattern_3.png,f,j,7000.0,14.0,12.0,2.0,1.0,15.0,1.0,0.0,12.0,80.0,,,,,,5d30f3d2d2938d0001bfbd1e,15:52:17,26/03/2024
html-keyboard-response,80,158084,0.0-35.0-1.0,,"<div style=""display: flex; flex-direction: column; align-items: center; margin-top: -40px;""><img src=""images/pattern_3.png"" style=""width: 234px; height: 230px; margin-top: -50px;""><div style=""display: flex; justify-content: space-between; margin-top: 33px;""><img src=""images/choice_trial_12.png"" style=""width: 408px; height: 417px; margin-left:608px;""></div></div>",,delaylearn,learning,display_response,XUqBikyVNPZqG2fmFuJtvkvqI6W2,XUqBikyVNPZqG2fmFuJtvkvqI6W2,,,,,,,,,,,,,,,,,chosen stimuli: images/choice_trial_12.png,,,,,5d30f3d2d2938d0001bfbd1e,15:52:17,26/03/2024
html-keyboard-response,81,165089,0.0-35.0-2.0,,,,delaylearn,learning,feedback_duration_window,XUqBikyVNPZqG2fmFuJtvkvqI6W2,XUqBikyVNPZqG2fmFuJtvkvqI6W2,,,,,,,,,,,,,,,,,,7000.0,,,,5d30f3d2d2938d0001bfbd1e,15:52:17,26/03/2024
html-keyboard-response,82,166593,0.0-35.0-3.0,,<div style='margin:auto;width: auto; font-size: 150%'><span style='font-weight: bold; font-size: 100px; color: red;'>0 points!</span><br><br></div>,,delaylearn,learning,feedback_image_window,XUqBikyVNPZqG2fmFuJtvkvqI6W2,XUqBikyVNPZqG2fmFuJtvkvqI6W2,,,,,,,,,,,,,,,,,,,,,,5d30f3d2d2938d0001bfbd1e,15:52:17,26/03/2024
html-keyboard-response,83,168537,0.0-36.0,,"<div style=""font-size:100px;"">+</div>",,delaylearn,learning,ITI,XUqBikyVNPZqG2fmFuJtvkvqI6W2,XUqBikyVNPZqG2fmFuJtvkvqI6W2,,,,,,,,,,,,,,,,,,,1929.0,,,5d30f3d2d2938d0001bfbd1e,15:52:17,26/03/2024
html-keyboard-response,84,169830,0.0-37.0-0.0,1290.8999999910593,"<div style=""display: flex; flex-direction: column; align-items: center; margin-top: -40px;""><img src=""images/pattern_5.png"" style=""width: 234px; height: 230px; margin-top: -50px;""><div style=""display: flex; justify-content: space-between; margin-top: 33px;""><img src=""images/choice_trial_2.png"" style=""width: 408px; height: 417px; margin-right: 200px;""><img src=""images/choice_trial_9.png"" style=""width: 408px; height: 417px;""></div></div>",f,delaylearn,learning,trial,XUqBikyVNPZqG2fmFuJtvkvqI6W2,XUqBikyVNPZqG2fmFuJtvkvqI6W2,2.0,images/choice_trial_2.png,images/choice_trial_9.png,images/pattern_5.png,f,f,750.0,2.0,9.0,4.0,0.0,16.0,1.0,1.0,2.0,90.0,,,,,,5d30f3d2d2938d0001bfbd1e,15:52:17,26/03/2024
html-keyboard-response,85,170846,0.0-37.0-1.0,,"<div style=""display: flex; flex-direction: column; align-items: center; margin-top: -40px;""><img src=""images/pattern_5.png"" style=""width: 234px; height: 230px; margin-top: -50px;""><div style=""display: flex; justify-content: space-between; margin-top: 33px;""><img src=""images/choice_trial_2.png"" style=""width: 408px; height: 417px; margin-right: 608px;""></div></div>",,delaylearn,learning,display_response,XUqBikyVNPZqG2fmFuJtvkvqI6W2,XUqBikyVNPZqG2fmFuJtvkvqI6W2,,,,,,,,,,,,,,,,,chosen stimuli: images/choice_trial_2.png,,,,,5d30f3d2d2938d0001bfbd1e,15:52:17,26/03/2024
html-keyboard-response,86,171611,0.0-37.0-2.0,,,,delaylearn,learning,feedback_duration_window,XUqBikyVNPZqG2fmFuJtvkvqI6W2,XUqBikyVNPZqG2fmFuJtvkvqI6W2,,,,,,,,,,,,,,,,,,750.0,,,,5d30f3d2d2938d0001bfbd1e,15:52:17,26/03/2024
html-keyboard-response,87,173116,0.0-37.0-3.0,,<div style='margin:auto;width: auto; font-size: 150%'><span style='font-weight: bold; font-size: 100px; color: green;'>+10 points!</span><br><br></div>,,delaylearn,learning,feedback_image_window,XUqBikyVNPZqG2fmFuJtvkvqI6W2,XUqBikyVNPZqG2fmFuJtvkvqI6W2,,,,,,,,,,,,,,,,,,,,,,5d30f3d2d2938d0001bfbd1e,15:52:17,26/03/2024
html-keyboard-response,88,173639,0.0-38.0-0.0,,,,,,mood_trial_fixation,XUqBikyVNPZqG2fmFuJtvkvqI6W2,,,,,,,,,,,,,,,,,,,,,,,5d30f3d2d2938d0001bfbd1e,15:52:17,26/03/2024
lmdlab-html-vas-response,89,179163,0.0-38.0-1.0,4515.0,How happy are you right now?,0.7495846190363161,delaylearn,learning,mood_trial,XUqBikyVNPZqG2fmFuJtvkvqI6W2,XUqBikyVNPZqG2fmFuJtvkvqI6W2,,,,,,,,,,,,,,,,,,,,"['Very unhappy', 'Very happy']",,5d30f3d2d2938d0001bfbd1e,15:52:17,26/03/2024
html-keyboard-response,90,181100,0.0-39.0,,"<div style=""font-size:100px;"">+</div>",,delaylearn,learning,ITI,XUqBikyVNPZqG2fmFuJtvkvqI6W2,XUqBikyVNPZqG2fmFuJtvkvqI6W2,,,,,,,,,,,,,,,,,,,1935.0,,,5d30f3d2d2938d0001bfbd1e,15:52:17,26/03/2024
html-keyboard-response,91,182360,0.0-40.0-0.0,1258.3999999910593,"<div style=""display: flex; flex-direction: column; align-items: center; margin-top: -40px;""><img src=""images/pattern_6.png"" style=""width: 234px; height: 230px; margin-top: -50px;""><div style=""display: flex; justify-content: space-between; margin-top: 33px;""><img src=""images/choice_trial_11.png"" style=""width: 408px; height: 417px; margin-right: 200px;""><img src=""images/choice_trial_5.png"" style=""width: 408px; height: 417px;""></div></div>",f,delaylearn,learning,trial,XUqBikyVNPZqG2fmFuJtvkvqI6W2,XUqBikyVNPZqG2fmFuJtvkvqI6W2,2.0,images/choice_trial_11.png,images/choice_trial_5.png,images/pattern_6.png,f,f,750.0,11.0,5.0,5.0,0.0,17.0,1.0,1.0,11.0,100.0,,,,,,5d30f3d2d2938d0001bfbd1e,15:52:17,26/03/2024
html-keyboard-response,92,183376,0.0-40.0-1.0,,"<div style=""display: flex; flex-direction: column; align-items: center; margin-top: -40px;""><img src=""images/pattern_6.png"" style=""width: 234px; height: 230px; margin-top: -50px;""><div style=""display: flex; justify-content: space-between; margin-top: 33px;""><img src=""images/choice_trial_11.png"" style=""width: 408px; height: 417px; margin-right: 608px;""></div></div>",,delaylearn,learning,display_response,XUqBikyVNPZqG2fmFuJtvkvqI6W2,XUqBikyVNPZqG2fmFuJtvkvqI6W2,,,,,,,,,,,,,,,,,chosen stimuli: images/choice_trial_11.png,,,,,5d30f3d2d2938d0001bfbd1e,15:52:17,26/03/2024
html-keyboard-response,93,184140,0.0-40.0-2.0,,,,delaylearn,learning,feedback_duration_window,XUqBikyVNPZqG2fmFuJtvkvqI6W2,XUqBikyVNPZqG2fmFuJtvkvqI6W2,,,,,,,,,,,,,,,,,,750.0,,,,5d30f3d2d2938d0001bfbd1e,15:52:17,26/03/2024
html-keyboard-response,94,185643,0.0-40.0-3.0,,<div style='margin:auto;width: auto; font-size: 150%'><span style='font-weight: bold; font-size: 100px; color: green;'>+10 points!</span><br><br></div>,,delaylearn,learning,feedback_image_window,XUqBikyVNPZqG2fmFuJtvkvqI6W2,XUqBikyVNPZqG2fmFuJtvkvqI6W2,,,,,,,,,,,,,,,,,,,,,,5d30f3d2d2938d0001bfbd1e,15:52:17,26/03/2024
html-keyboard-response,95,187971,0.0-41.0,,"<div style=""font-size:100px;"">+</div>",,delaylearn,learning,ITI,XUqBikyVNPZqG2fmFuJtvkvqI6W2,XUqBikyVNPZqG2fmFuJtvkvqI6W2,,,,,,,,,,,,,,,,,,,2317.0,,,5d30f3d2d2938d0001bfbd1e,15:52:17,26/03/2024
html-keyboard-response,96,189460,0.0-42.0-0.0,1487.0,"<div style=""display: flex; flex-direction: column; align-items: center; margin-top: -40px;""><img src=""images/pattern_4.png"" style=""width: 234px; height: 230px; margin-top: -50px;""><div style=""display: flex; justify-content: space-between; margin-top: 33px;""><img src=""images/choice_trial_16.png"" style=""width: 408px; height: 417px; margin-right: 200px;""><img src=""images/choice_trial_4.png"" style=""width: 408px; height: 417px;""></div></div>",j,delaylearn,learning,trial,XUqBikyVNPZqG2fmFuJtvkvqI6W2,XUqBikyVNPZqG2fmFuJtvkvqI6W2,2.0,images/choice_trial_16.png,images/choice_trial_4.png,images/pattern_4.png,j,j,7000.0,16.0,4.0,3.0,1.0,18.0,1.0,1.0,4.0,110.0,,,,,,5d30f3d2d2938d0001bfbd1e,15:52:17,26/03/2024
html-keyboard-response,97,190476,0.0-42.0-1.0,,"<div style=""display: flex; flex-direction: column; align-items: center; margin-top: -40px;""><img src=""images/pattern_4.png"" style=""width: 234px; height: 230px; margin-top: -50px;""><div style=""display: flex; justify-content: space-between; margin-top: 33px;""><img src=""images/choice_trial_4.png"" style=""width: 408px; height: 417px; margin-left:608px;""></div></div>",,delaylearn,learning,display_response,XUqBikyVNPZqG2fmFuJtvkvqI6W2,XUqBikyVNPZqG2fmFuJtvkvqI6W2,,,,,,,,,,,,,,,,,chosen stimuli: images/choice_trial_4.png,,,,,5d30f3d2d2938d0001bfbd1e,15:52:17,26/03/2024
html-keyboard-response,98,197496,0.0-42.0-2.0,,,,delaylearn,learning,feedback_duration_window,XUqBikyVNPZqG2fmFuJtvkvqI6W2,XUqBikyVNPZqG2fmFuJtvkvqI6W2,,,,,,,,,,,,,,,,,,7000.0,,,,5d30f3d2d2938d0001bfbd1e,15:52:17,26/03/2024
html-keyboard-response,99,198999,0.0-42.0-3.0,,<div style='margin:auto;width: auto; font-size: 150%'><span style='font-weight: bold; font-size: 100px; color: green;'>+10 points!</span><br><br></div>,,delaylearn,learning,feedback_image_window,XUqBikyVNPZqG2fmFuJtvkvqI6W2,XUqBikyVNPZqG2fmFuJtvkvqI6W2,,,,,,,,,,,,,,,,,,,,,,5d30f3d2d2938d0001bfbd1e,15:52:17,26/03/2024
html-keyboard-response,100,201306,0.0-43.0,,"<div style=""font-size:100px;"">+</div>",,delaylearn,learning,ITI,XUqBikyVNPZqG2fmFuJtvkvqI6W2,XUqBikyVNPZqG2fmFuJtvkvqI6W2,,,,,,,,,,,,,,,,,,,2288.0,,,5d30f3d2d2938d0001bfbd1e,15:52:17,26/03/2024
html-keyboard-response,101,202888,0.0-44.0-0.0,1579.2999999970198,"<div style=""display: flex; flex-direction: column; align-items: center; margin-top: -40px;""><img src=""images/pattern_7.png"" style=""width: 234px; height: 230px; margin-top: -50px;""><div style=""display: flex; justify-content: space-between; margin-top: 33px;""><img src=""images/choice_trial_8.png"" style=""width: 408px; height: 417px; margin-right: 200px;""><img src=""images/choice_trial_15.png"" style=""width: 408px; height: 417px;""></div></div>",j,delaylearn,learning,trial,XUqBikyVNPZqG2fmFuJtvkvqI6W2,XUqBikyVNPZqG2fmFuJtvkvqI6W2,2.0,images/choice_trial_8.png,images/choice_trial_15.png,images/pattern_7.png,j,f,750.0,8.0,15.0,6.0,0.0,19.0,0.0,1.0,15.0,120.0,,,,,,5d30f3d2d2938d0001bfbd1e,15:52:17,26/03/2024
html-keyboard-response,102,203893,0.0-44.0-1.0,,"<div style=""display: flex; flex-direction: column; align-items: center; margin-top: -40px;""><img src=""images/pattern_7.png"" style=""width: 234px; height: 230px; margin-top: -50px;""><div style=""display: flex; justify-content: space-between; margin-top: 33px;""><img src=""images/choice_trial_15.png"" style=""width: 408px; height: 417px; margin-left:608px;""></div></div>",,delaylearn,learning,display_response,XUqBikyVNPZqG2fmFuJtvkvqI6W2,XUqBikyVNPZqG2fmFuJtvkvqI6W2,,,,,,,,,,,,,,,,,chosen stimuli: images/choice_trial_15.png,,,,,5d30f3d2d2938d0001bfbd1e,15:52:17,26/03/2024
html-keyboard-response,103,204647,0.0-44.0-2.0,,,,delaylearn,learning,feedback_duration_window,XUqBikyVNPZqG2fmFuJtvkvqI6W2,XUqBikyVNPZqG2fmFuJtvkvqI6W2,,,,,,,,,,,,,,,,,,750.0,,,,5d30f3d2d2938d0001bfbd1e,15:52:17,26/03/2024
html-keyboard-response,104,206151,0.0-44.0-3.0,,<div style='margin:auto;width: auto; font-size: 150%'><span style='font-weight: bold; font-size: 100px; color: green;'>+10 points!</span><br><br></div>,,delaylearn,learning,feedback_image_window,XUqBikyVNPZqG2fmFuJtvkvqI6W2,XUqBikyVNPZqG2fmFuJtvkvqI6W2,,,,,,,,,,,,,,,,,,,,,,5d30f3d2d2938d0001bfbd1e,15:52:17,26/03/2024
html-keyboard-response,105,207789,0.0-45.0,,"<div style=""font-size:100px;"">+</div>",,delaylearn,learning,ITI,XUqBikyVNPZqG2fmFuJtvkvqI6W2,XUqBikyVNPZqG2fmFuJtvkvqI6W2,,,,,,,,,,,,,,,,,,,1631.0,,,5d30f3d2d2938d0001bfbd1e,15:52:17,26/03/2024
html-keyboard-response,106,208869,0.0-46.0-0.0,1079.2000000029802,"<div style=""display: flex; flex-direction: column; align-items: center; margin-top: -40px;""><img src=""images/pattern_1.png"" style=""width: 234px; height: 230px; margin-top: -50px;""><div style=""display: flex; justify-content: space-between; margin-top: 33px;""><img src=""images/choice_trial_3.png"" style=""width: 408px; height: 417px; margin-right: 200px;""><img src=""images/choice_trial_10.png"" style=""width: 408px; height: 417px;""></div></div>",j,delaylearn,learning,trial,XUqBikyVNPZqG2fmFuJtvkvqI6W2,XUqBikyVNPZqG2fmFuJtvkvqI6W2,2.0,images/choice_trial_3.png,images/choice_trial_10.png,images/pattern_1.png,f,f,7000.0,3.0,10.0,1.0,0.0,20.0,0.0,0.0,10.0,120.0,,,,,,5d30f3d2d2938d0001bfbd1e,15:52:17,26/03/2024
html-keyboard-response,107,209878,0.0-46.0-1.0,,"<div style=""display: flex; flex-direction: column; align-items: center; margin-top: -40px;""><img src=""images/pattern_1.png"" style=""width: 234px; height: 230px; margin-top: -50px;""><div style=""display: flex; justify-content: space-between; margin-top: 33px;""><img src=""images/choice_trial_10.png"" style=""width: 408px; height: 417px; margin-left:608px;""></div></div>",,delaylearn,learning,display_response,XUqBikyVNPZqG2fmFuJtvkvqI6W2,XUqBikyVNPZqG2fmFuJtvkvqI6W2,,,,,,,,,,,,,,,,,chosen stimuli: images/choice_trial_10.png,,,,,5d30f3d2d2938d0001bfbd1e,15:52:17,26/03/2024
html-keyboard-response,108,216880,0.0-46.0-2.0,,,,delaylearn,learning,feedback_duration_window,XUqBikyVNPZqG2fmFuJtvkvqI6W2,XUqBikyVNPZqG2fmFuJtvkvqI6W2,,,,,,,,,,,,,,,,,,7000.0,,,,5d30f3d2d2938d0001bfbd1e,15:52:17,26/03/2024
html-keyboard-response,109,218385,0.0-46.0-3.0,,<div style='margin:auto;width: auto; font-size: 150%'><span style='font-weight: bold; font-size: 100px; color: red;'>0 points!</span><br><br></div>,,delaylearn,learning,feedback_image_window,XUqBikyVNPZqG2fmFuJtvkvqI6W2,XUqBikyVNPZqG2fmFuJtvkvqI6W2,,,,,,,,,,,,,,,,,,,,,,5d30f3d2d2938d0001bfbd1e,15:52:17,26/03/2024
html-keyboard-response,110,220073,0.0-47.0,,"<div style=""font-size:100px;"">+</div>",,delaylearn,learning,ITI,XUqBikyVNPZqG2fmFuJtvkvqI6W2,XUqBikyVNPZqG2fmFuJtvkvqI6W2,,,,,,,,,,,,,,,,,,,1681.0,,,5d30f3d2d2938d0001bfbd1e,15:52:17,26/03/2024
html-keyboard-response,111,221202,0.0-48.0-0.0,1127.5,"<div style=""display: flex; flex-direction: column; align-items: center; margin-top: -40px;""><img src=""images/pattern_6.png"" style=""width: 234px; height: 230px; margin-top: -50px;""><div style=""display: flex; justify-content: space-between; margin-top: 33px;""><img src=""images/choice_trial_5.png"" style=""width: 408px; height: 417px; margin-right: 200px;""><img src=""images/choice_trial_11.png"" style=""width: 408px; height: 417px;""></div></div>",f,delaylearn,learning,trial,XUqBikyVNPZqG2fmFuJtvkvqI6W2,XUqBikyVNPZqG2fmFuJtvkvqI6W2,2.0,images/choice_trial_5.png,images/choice_trial_11.png,images/pattern_6.png,j,j,750.0,5.0,11.0,5.0,1.0,21.0,0.0,0.0,5.0,120.0,,,,,,5d30f3d2d2938d0001bfbd1e,15:52:17,26/03/2024
html-keyboard-response,112,222209,0.0-48.0-1.0,,"<div style=""display: flex; flex-direction: column; align-items: center; margin-top: -40px;""><img src=""images/pattern_6.png"" style=""width: 234px; height: 230px; margin-top: -50px;""><div style=""display: flex; justify-content: space-between; margin-top: 33px;""><img src=""images/choice_trial_5.png"" style=""width: 408px; height: 417px; margin-right: 608px;""></div></div>",,delaylearn,learning,display_response,XUqBikyVNPZqG2fmFuJtvkvqI6W2,XUqBikyVNPZqG2fmFuJtvkvqI6W2,,,,,,,,,,,,,,,,,chosen stimuli: images/choice_trial_5.png,,,,,5d30f3d2d2938d0001bfbd1e,15:52:17,26/03/2024
html-keyboard-response,113,222966,0.0-48.0-2.0,,,,delaylearn,learning,feedback_duration_window,XUqBikyVNPZqG2fmFuJtvkvqI6W2,XUqBikyVNPZqG2fmFuJtvkvqI6W2,,,,,,,,,,,,,,,,,,750.0,,,,5d30f3d2d2938d0001bfbd1e,15:52:17,26/03/2024
html-keyboard-response,114,224470,0.0-48.0-3.0,,<div style='margin:auto;width: auto; font-size: 150%'><span style='font-weight: bold; font-size: 100px; color: red;'>0 points!</span><br><br></div>,,delaylearn,learning,feedback_image_window,XUqBikyVNPZqG2fmFuJtvkvqI6W2,XUqBikyVNPZqG2fmFuJtvkvqI6W2,,,,,,,,,,,,,,,,,,,,,,5d30f3d2d2938d0001bfbd1e,15:52:17,26/03/2024
html-keyboard-response,115,226608,0.0-49.0,,"<div style=""font-size:100px;"">+</div>",,delaylearn,learning,ITI,XUqBikyVNPZqG2fmFuJtvkvqI6W2,XUqBikyVNPZqG2fmFuJtvkvqI6W2,,,,,,,,,,,,,,,,,,,2130.0,,,5d30f3d2d2938d0001bfbd1e,15:52:17,26/03/2024
html-keyboard-response,116,227509,0.0-50.0-0.0,899.0999999940395,"<div style=""display: flex; flex-direction: column; align-items: center; margin-top: -40px;""><img src=""images/pattern_4.png"" style=""width: 234px; height: 230px; margin-top: -50px;""><div style=""display: flex; justify-content: space-between; margin-top: 33px;""><img src=""images/choice_trial_4.png"" style=""width: 408px; height: 417px; margin-right: 200px;""><img src=""images/choice_trial_16.png"" style=""width: 408px; height: 417px;""></div></div>",f,delaylearn,learning,trial,XUqBikyVNPZqG2fmFuJtvkvqI6W2,XUqBikyVNPZqG2fmFuJtvkvqI6W2,2.0,images/choice_trial_4.png,images/choice_trial_16.png,images/pattern_4.png,f,f,7000.0,4.0,16.0,3.0,0.0,22.0,1.0,1.0,4.0,130.0,,,,,,5d30f3d2d2938d0001bfbd1e,15:52:17,26/03/2024
html-keyboard-response,117,228515,0.0-50.0-1.0,,"<div style=""display: flex; flex-direction: column; align-items: center; margin-top: -40px;""><img src=""images/pattern_4.png"" style=""width: 234px; height: 230px; margin-top: -50px;""><div style=""display: flex; justify-content: space-between; margin-top: 33px;""><img src=""images/choice_trial_4.png"" style=""width: 408px; height: 417px; margin-right: 608px;""></div></div>",,delaylearn,learning,display_response,XUqBikyVNPZqG2fmFuJtvkvqI6W2,XUqBikyVNPZqG2fmFuJtvkvqI6W2,,,,,,,,,,,,,,,,,chosen stimuli: images/choice_trial_4.png,,,,,5d30f3d2d2938d0001bfbd1e,15:52:17,26/03/2024
html-keyboard-response,118,235517,0.0-50.0-2.0,,,,delaylearn,learning,feedback_duration_window,XUqBikyVNPZqG2fmFuJtvkvqI6W2,XUqBikyVNPZqG2fmFuJtvkvqI6W2,,,,,,,,,,,,,,,,,,7000.0,,,,5d30f3d2d2938d0001bfbd1e,15:52:17,26/03/2024
html-keyboard-response,119,237021,0.0-50.0-3.0,,<div style='margin:auto;width: auto; font-size: 150%'><span style='font-weight: bold; font-size: 100px; color: green;'>+10 points!</span><br><br></div>,,delaylearn,learning,feedback_image_window,XUqBikyVNPZqG2fmFuJtvkvqI6W2,XUqBikyVNPZqG2fmFuJtvkvqI6W2,,,,,,,,,,,,,,,,,,,,,,5d30f3d2d2938d0001bfbd1e,15:52:17,26/03/2024
html-keyboard-response,120,237523,0.0-51.0-0.0,,,,,,mood_trial_fixation,XUqBikyVNPZqG2fmFuJtvkvqI6W2,,,,,,,,,,,,,,,,,,,,,,,5d30f3d2d2938d0001bfbd1e,15:52:17,26/03/2024
lmdlab-html-vas-response,121,242440,0.0-51.0-1.0,3902.0,How happy are you right now?,0.6302261706961446,delaylearn,learning,mood_trial,XUqBikyVNPZqG2fmFuJtvkvqI6W2,XUqBikyVNPZqG2fmFuJtvkvqI6W2,,,,,,,,,,,,,,,,,,,,"['Very unhappy', 'Very happy']",,5d30f3d2d2938d0001bfbd1e,15:52:17,26/03/2024
html-keyboard-response,122,244857,0.0-52.0,,"<div style=""font-size:100px;"">+</div>",,delaylearn,learning,ITI,XUqBikyVNPZqG2fmFuJtvkvqI6W2,XUqBikyVNPZqG2fmFuJtvkvqI6W2,,,,,,,,,,,,,,,,,,,2405.0,,,5d30f3d2d2938d0001bfbd1e,15:52:17,26/03/2024
html-keyboard-response,123,246152,0.0-53.0-0.0,1292.8999999910593,"<div style=""display: flex; flex-direction: column; align-items: center; margin-top: -40px;""><img src=""images/pattern_7.png"" style=""width: 234px; height: 230px; margin-top: -50px;""><div style=""display: flex; justify-content: space-between; margin-top: 33px;""><img src=""images/choice_trial_15.png"" style=""width: 408px; height: 417px; margin-right: 200px;""><img src=""images/choice_trial_8.png"" style=""width: 408px; height: 417px;""></div></div>",f,delaylearn,learning,trial,XUqBikyVNPZqG2fmFuJtvkvqI6W2,XUqBikyVNPZqG2fmFuJtvkvqI6W2,2.0,images/choice_trial_15.png,images/choice_trial_8.png,images/pattern_7.png,j,j,750.0,15.0,8.0,6.0,1.0,23.0,0.0,0.0,15.0,130.0,,,,,,5d30f3d2d2938d0001bfbd1e,15:52:17,26/03/2024
html-keyboard-response,124,247163,0.0-53.0-1.0,,"<div style=""display: flex; flex-direction: column; align-items: center; margin-top: -40px;""><img src=""images/pattern_7.png"" style=""width: 234px; height: 230px; margin-top: -50px;""><div style=""display: flex; justify-content: space-between; margin-top: 33px;""><img src=""images/choice_trial_15.png"" style=""width: 408px; height: 417px; margin-right: 608px;""></div></div>",,delaylearn,learning,display_response,XUqBikyVNPZqG2fmFuJtvkvqI6W2,XUqBikyVNPZqG2fmFuJtvkvqI6W2,,,,,,,,,,,,,,,,,chosen stimuli: images/choice_trial_15.png,,,,,5d30f3d2d2938d0001bfbd1e,15:52:17,26/03/2024
html-keyboard-response,125,247935,0.0-53.0-2.0,,,,delaylearn,learning,feedback_duration_window,XUqBikyVNPZqG2fmFuJtvkvqI6W2,XUqBikyVNPZqG2fmFuJtvkvqI6W2,,,,,,,,,,,,,,,,,,750.0,,,,5d30f3d2d2938d0001bfbd1e,15:52:17,26/03/2024
html-keyboard-response,126,249438,0.0-53.0-3.0,,<div style='margin:auto;width: auto; font-size: 150%'><span style='font-weight: bold; font-size: 100px; color: red;'>0 points!</span><br><br></div>,,delaylearn,learning,feedback_image_window,XUqBikyVNPZqG2fmFuJtvkvqI6W2,XUqBikyVNPZqG2fmFuJtvkvqI6W2,,,,,,,,,,,,,,,,,,,,,,5d30f3d2d2938d0001bfbd1e,15:52:17,26/03/2024
html-keyboard-response,127,251859,0.0-54.0,,"<div style=""font-size:100px;"">+</div>",,delaylearn,learning,ITI,XUqBikyVNPZqG2fmFuJtvkvqI6W2,XUqBikyVNPZqG2fmFuJtvkvqI6W2,,,,,,,,,,,,,,,,,,,2418.0,,,5d30f3d2d2938d0001bfbd1e,15:52:17,26/03/2024
html-keyboard-response,128,252556,0.0-55.0-0.0,694.9000000059605,"<div style=""display: flex; flex-direction: column; align-items: center; margin-top: -40px;""><img src=""images/pattern_1.png"" style=""width: 234px; height: 230px; margin-top: -50px;""><div style=""display: flex; justify-content: space-between; margin-top: 33px;""><img src=""images/choice_trial_10.png"" style=""width: 408px; height: 417px; margin-right: 200px;""><img src=""images/choice_trial_3.png"" style=""width: 408px; height: 417px;""></div></div>",j,delaylearn,learning,trial,XUqBikyVNPZqG2fmFuJtvkvqI6W2,XUqBikyVNPZqG2fmFuJtvkvqI6W2,2.0,images/choice_trial_10.png,images/choice_trial_3.png,images/pattern_1.png,f,j,7000.0,10.0,3.0,1.0,1.0,24.0,1.0,0.0,3.0,130.0,,,,,,5d30f3d2d2938d0001bfbd1e,15:52:17,26/03/2024
html-keyboard-response,129,253566,0.0-55.0-1.0,,"<div style=""display: flex; flex-direction: column; align-items: center; margin-top: -40px;""><img src=""images/pattern_1.png"" style=""width: 234px; height: 230px; margin-top: -50px;""><div style=""display: flex; justify-content: space-between; margin-top: 33px;""><img src=""images/choice_trial_3.png"" style=""width: 408px; height: 417px; margin-left:608px;""></div></div>",,delaylearn,learning,display_response,XUqBikyVNPZqG2fmFuJtvkvqI6W2,XUqBikyVNPZqG2fmFuJtvkvqI6W2,,,,,,,,,,,,,,,,,chosen stimuli: images/choice_trial_3.png,,,,,5d30f3d2d2938d0001bfbd1e,15:52:17,26/03/2024
html-keyboard-response,130,260568,0.0-55.0-2.0,,,,delaylearn,learning,feedback_duration_window,XUqBikyVNPZqG2fmFuJtvkvqI6W2,XUqBikyVNPZqG2fmFuJtvkvqI6W2,,,,,,,,,,,,,,,,,,7000.0,,,,5d30f3d2d2938d0001bfbd1e,15:52:17,26/03/2024
html-keyboard-response,131,262072,0.0-55.0-3.0,,<div style='margin:auto;width: auto; font-size: 150%'><span style='font-weight: bold; font-size: 100px; color: red;'>0 points!</span><br><br></div>,,delaylearn,learning,feedback_image_window,XUqBikyVNPZqG2fmFuJtvkvqI6W2,XUqBikyVNPZqG2fmFuJtvkvqI6W2,,,,,,,,,,,,,,,,,,,,,,5d30f3d2d2938d0001bfbd1e,15:52:17,26/03/2024
html-keyboard-response,132,263755,0.0-56.0,,"<div style=""font-size:100px;"">+</div>",,delaylearn,learning,ITI,XUqBikyVNPZqG2fmFuJtvkvqI6W2,XUqBikyVNPZqG2fmFuJtvkvqI6W2,,,,,,,,,,,,,,,,,,,1667.0,,,5d30f3d2d2938d0001bfbd1e,15:52:17,26/03/2024
html-keyboard-response,133,264973,0.0-57.0-0.0,1216.1000000089407,"<div style=""display: flex; flex-direction: column; align-items: center; margin-top: -40px;""><img src=""images/pattern_5.png"" style=""width: 234px; height: 230px; margin-top: -50px;""><div style=""display: flex; justify-content: space-between; margin-top: 33px;""><img src=""images/choice_trial_9.png"" style=""width: 408px; height: 417px; margin-right: 200px;""><img src=""images/choice_trial_2.png"" style=""width: 408px; height: 417px;""></div></div>",f,delaylearn,learning,trial,XUqBikyVNPZqG2fmFuJtvkvqI6W2,XUqBikyVNPZqG2fmFuJtvkvqI6W2,2.0,images/choice_trial_9.png,images/choice_trial_2.png,images/pattern_5.png,j,j,750.0,9.0,2.0,4.0,1.0,25.0,0.0,0.0,9.0,130.0,,,,,,5d30f3d2d2938d0001bfbd1e,15:52:17,26/03/2024
html-keyboard-response,134,265984,0.0-57.0-1.0,,"<div style=""display: flex; flex-direction: column; align-items: center; margin-top: -40px;""><img src=""images/pattern_5.png"" style=""width: 234px; height: 230px; margin-top: -50px;""><div style=""display: flex; justify-content: space-between; margin-top: 33px;""><img src=""images/choice_trial_9.png"" style=""width: 408px; height: 417px; margin-right: 608px;""></div></div>",,delaylearn,learning,display_response,XUqBikyVNPZqG2fmFuJtvkvqI6W2,XUqBikyVNPZqG2fmFuJtvkvqI6W2,,,,,,,,,,,,,,,,,chosen stimuli: images/choice_trial_9.png,,,,,5d30f3d2d2938d0001bfbd1e,15:52:17,26/03/2024
html-keyboard-response,135,266748,0.0-57.0-2.0,,,,delaylearn,learning,feedback_duration_window,XUqBikyVNPZqG2fmFuJtvkvqI6W2,XUqBikyVNPZqG2fmFuJtvkvqI6W2,,,,,,,,,,,,,,,,,,750.0,,,,5d30f3d2d2938d0001bfbd1e,15:52:17,26/03/2024
html-keyboard-response,136,268252,0.0-57.0-3.0,,<div style='margin:auto;width: auto; font-size: 150%'><span style='font-weight: bold; font-size: 100px; color: red;'>0 points!</span><br><br></div>,,delaylearn,learning,feedback_image_window,XUqBikyVNPZqG2fmFuJtvkvqI6W2,XUqBikyVNPZqG2fmFuJtvkvqI6W2,,,,,,,,,,,,,,,,,,,,,,5d30f3d2d2938d0001bfbd1e,15:52:17,26/03/2024
html-keyboard-response,137,270025,0.0-58.0,,"<div style=""font-size:100px;"">+</div>",,delaylearn,learning,ITI,XUqBikyVNPZqG2fmFuJtvkvqI6W2,XUqBikyVNPZqG2fmFuJtvkvqI6W2,,,,,,,,,,,,,,,,,,,1763.0,,,5d30f3d2d2938d0001bfbd1e,15:52:17,26/03/2024
html-keyboard-response,138,271196,0.0-59.0-0.0,1169.300000011921,"<div style=""display: flex; flex-direction: column; align-items: center; margin-top: -40px;""><img src=""images/pattern_3.png"" style=""width: 234px; height: 230px; margin-top: -50px;""><div style=""display: flex; justify-content: space-between; margin-top: 33px;""><img src=""images/choice_trial_14.png"" style=""width: 408px; height: 417px; margin-right: 200px;""><img src=""images/choice_trial_12.png"" style=""width: 408px; height: 417px;""></div></div>",f,delaylearn,learning,trial,XUqBikyVNPZqG2fmFuJtvkvqI6W2,XUqBikyVNPZqG2fmFuJtvkvqI6W2,2.0,images/choice_trial_14.png,images/choice_trial_12.png,images/pattern_3.png,j,j,7000.0,14.0,12.0,2.0,1.0,26.0,0.0,0.0,14.0,130.0,,,,,,5d30f3d2d2938d0001bfbd1e,15:52:17,26/03/2024
html-keyboard-response,139,272201,0.0-59.0-1.0,,"<div style=""display: flex; flex-direction: column; align-items: center; margin-top: -40px;""><img src=""images/pattern_3.png"" style=""width: 234px; height: 230px; margin-top: -50px;""><div style=""display: flex; justify-content: space-between; margin-top: 33px;""><img src=""images/choice_trial_14.png"" style=""width: 408px; height: 417px; margin-right: 608px;""></div></div>",,delaylearn,learning,display_response,XUqBikyVNPZqG2fmFuJtvkvqI6W2,XUqBikyVNPZqG2fmFuJtvkvqI6W2,,,,,,,,,,,,,,,,,chosen stimuli: images/choice_trial_14.png,,,,,5d30f3d2d2938d0001bfbd1e,15:52:17,26/03/2024
html-keyboard-response,140,279220,0.0-59.0-2.0,,,,delaylearn,learning,feedback_duration_window,XUqBikyVNPZqG2fmFuJtvkvqI6W2,XUqBikyVNPZqG2fmFuJtvkvqI6W2,,,,,,,,,,,,,,,,,,7000.0,,,,5d30f3d2d2938d0001bfbd1e,15:52:17,26/03/2024
html-keyboard-response,141,280724,0.0-59.0-3.0,,<div style='margin:auto;width: auto; font-size: 150%'><span style='font-weight: bold; font-size: 100px; color: red;'>0 points!</span><br><br></div>,,delaylearn,learning,feedback_image_window,XUqBikyVNPZqG2fmFuJtvkvqI6W2,XUqBikyVNPZqG2fmFuJtvkvqI6W2,,,,,,,,,,,,,,,,,,,,,,5d30f3d2d2938d0001bfbd1e,15:52:17,26/03/2024
lmdlab-html-vas-response,142,286095,0.0-60.0-0.0,3855.0,*How <b><u>confident</u></b> are you feeling about your answers at this moment?*,0.20270591027771184,rewlearn,rate_confidence,,XUqBikyVNPZqG2fmFuJtvkvqI6W2,XUqBikyVNPZqG2fmFuJtvkvqI6W2,,,,,,,,,,,,,,,,,,,,"['No confidence', 'Complete confidence']",,5d30f3d2d2938d0001bfbd1e,15:52:17,26/03/2024
lmdlab-rest-trial-limit,143,296260,0.0-60.0-1.0,8647.79999999702,"<div style=""font-size:40px;""><b>Please take a break!</b><br><br><br><br><p>Great work: you earned 130 points.<br><br><br><p>You have completed part(s) 1 of 5.<br><br><br><br>When you are ready to continue<br><br><br>please click the button.</p><br><br>",0,delaylearn,learning,break,XUqBikyVNPZqG2fmFuJtvkvqI6W2,XUqBikyVNPZqG2fmFuJtvkvqI6W2,,,,,,,,,,,,,,,,,,,,,0.0,5d30f3d2d2938d0001bfbd1e,15:52:17,26/03/2024
html-keyboard-response,144,299270,0.0-60.0-2.0,,"<div style=""font-size:100px;"">+</div>",,delaylearn,learning,pre_fixation,XUqBikyVNPZqG2fmFuJtvkvqI6W2,,,,,,,,,,,,,,,,,,,,,,,5d30f3d2d2938d0001bfbd1e,15:52:17,26/03/2024
lmdlab-html-vas-response,145,305509,0.0-60.0-3.0-0.0,5227.0,How happy are you right now?,0.3264046658302533,delaylearn,learning,mood_baseline,XUqBikyVNPZqG2fmFuJtvkvqI6W2,XUqBikyVNPZqG2fmFuJtvkvqI6W2,,,,,,,,,,,,,,,,,,,,"['Very unhappy', 'Very happy']",,5d30f3d2d2938d0001bfbd1e,15:52:17,26/03/2024
html-keyboard-response,146,307019,0.0-60.0-3.0-1.0,,,,,,mood_baseline_fixation,XUqBikyVNPZqG2fmFuJtvkvqI6W2,,,,,,,,,,,,,,,,,,,,,,,5d30f3d2d2938d0001bfbd1e,15:52:17,26/03/2024
html-keyboard-response,147,309273,0.0-61.0,,"<div style=""font-size:100px;"">+</div>",,delaylearn,learning,ITI,XUqBikyVNPZqG2fmFuJtvkvqI6W2,XUqBikyVNPZqG2fmFuJtvkvqI6W2,,,,,,,,,,,,,,,,,,,2245.0,,,5d30f3d2d2938d0001bfbd1e,15:52:17,26/03/2024
html-keyboard-response,148,310161,0.0-62.0-0.0,886.9000000059605,"<div style=""display: flex; flex-direction: column; align-items: center; margin-top: -40px;""><img src=""images/pattern_7.png"" style=""width: 234px; height: 230px; margin-top: -50px;""><div style=""display: flex; justify-content: space-between; margin-top: 33px;""><img src=""images/choice_trial_15.png"" style=""width: 408px; height: 417px; margin-right: 200px;""><img src=""images/choice_trial_8.png"" style=""width: 408px; height: 417px;""></div></div>",j,delaylearn,learning,trial,XUqBikyVNPZqG2fmFuJtvkvqI6W2,XUqBikyVNPZqG2fmFuJtvkvqI6W2,2.0,images/choice_trial_15.png,images/choice_trial_8.png,images/pattern_7.png,j,j,750.0,15.0,8.0,6.0,1.0,27.0,1.0,1.0,8.0,140.0,,,,,,5d30f3d2d2938d0001bfbd1e,15:52:17,26/03/2024
html-keyboard-response,149,311178,0.0-62.0-1.0,,"<div style=""display: flex; flex-direction: column; align-items: center; margin-top: -40px;""><img src=""images/pattern_7.png"" style=""width: 234px; height: 230px; margin-top: -50px;""><div style=""display: flex; justify-content: space-between; margin-top: 33px;""><img src=""images/choice_trial_8.png"" style=""width: 408px; height: 417px; margin-left:608px;""></div></div>",,delaylearn,learning,display_response,XUqBikyVNPZqG2fmFuJtvkvqI6W2,XUqBikyVNPZqG2fmFuJtvkvqI6W2,,,,,,,,,,,,,,,,,chosen stimuli: images/choice_trial_8.png,,,,,5d30f3d2d2938d0001bfbd1e,15:52:17,26/03/2024
html-keyboard-response,150,311934,0.0-62.0-2.0,,,,delaylearn,learning,feedback_duration_window,XUqBikyVNPZqG2fmFuJtvkvqI6W2,XUqBikyVNPZqG2fmFuJtvkvqI6W2,,,,,,,,,,,,,,,,,,750.0,,,,5d30f3d2d2938d0001bfbd1e,15:52:17,26/03/2024
html-keyboard-response,151,313438,0.0-62.0-3.0,,<div style='margin:auto;width: auto; font-size: 150%'><span style='font-weight: bold; font-size: 100px; color: green;'>+10 points!</span><br><br></div>,,delaylearn,learning,feedback_image_window,XUqBikyVNPZqG2fmFuJtvkvqI6W2,XUqBikyVNPZqG2fmFuJtvkvqI6W2,,,,,,,,,,,,,,,,,,,,,,5d30f3d2d2938d0001bfbd1e,15:52:17,26/03/2024
html-keyboard-response,152,313940,0.0-63.0-0.0,,,,,,mood_trial_fixation,XUqBikyVNPZqG2fmFuJtvkvqI6W2,,,,,,,,,,,,,,,,,,,,,,,5d30f3d2d2938d0001bfbd1e,15:52:17,26/03/2024
lmdlab-html-vas-response,153,319103,0.0-63.0-1.0,4154.0,How happy are you right now?,0.8494116849208233,delaylearn,learning,mood_trial,XUqBikyVNPZqG2fmFuJtvkvqI6W2,XUqBikyVNPZqG2fmFuJtvkvqI6W2,,,,,,,,,,,,,,,,,,,,"['Very unhappy', 'Very happy']",,5d30f3d2d2938d0001bfbd1e,15:52:17,26/03/2024
html-keyboard-response,154,320669,0.0-64.0,,"<div style=""font-size:100px;"">+</div>",,delaylearn,learning,ITI,XUqBikyVNPZqG2fmFuJtvkvqI6W2,XUqBikyVNPZqG2fmFuJtvkvqI6W2,,,,,,,,,,,,,,,,,,,1556.0,,,5d30f3d2d2938d0001bfbd1e,15:52:17,26/03/2024
html-keyboard-response,155,321451,0.0-65.0-0.0,780.1999999880791,"<div style=""display: flex; flex-direction: column; align-items: center; margin-top: -40px;""><img src=""images/pattern_1.png"" style=""width: 234px; height: 230px; margin-top: -50px;""><div style=""display: flex; justify-content: space-between; margin-top: 33px;""><img src=""images/choice_trial_3.png"" style=""width: 408px; height: 417px; margin-right: 200px;""><img src=""images/choice_trial_10.png"" style=""width: 408px; height: 417px;""></div></div>",f,delaylearn,learning,trial,XUqBikyVNPZqG2fmFuJtvkvqI6W2,XUqBikyVNPZqG2fmFuJtvkvqI6W2,2.0,images/choice_trial_3.png,images/choice_trial_10.png,images/pattern_1.png,f,f,7000.0,3.0,10.0,1.0,0.0,28.0,1.0,1.0,3.0,150.0,,,,,,5d30f3d2d2938d0001bfbd1e,15:52:17,26/03/2024
html-keyboard-response,156,322459,0.0-65.0-1.0,,"<div style=""display: flex; flex-direction: column; align-items: center; margin-top: -40px;""><img src=""images/pattern_1.png"" style=""width: 234px; height: 230px; margin-top: -50px;""><div style=""display: flex; justify-content: space-between; margin-top: 33px;""><img src=""images/choice_trial_3.png"" style=""width: 408px; height: 417px; margin-right: 608px;""></div></div>",,delaylearn,learning,display_response,XUqBikyVNPZqG2fmFuJtvkvqI6W2,XUqBikyVNPZqG2fmFuJtvkvqI6W2,,,,,,,,,,,,,,,,,chosen stimuli: images/choice_trial_3.png,,,,,5d30f3d2d2938d0001bfbd1e,15:52:17,26/03/2024
html-keyboard-response,157,329463,0.0-65.0-2.0,,,,delaylearn,learning,feedback_duration_window,XUqBikyVNPZqG2fmFuJtvkvqI6W2,XUqBikyVNPZqG2fmFuJtvkvqI6W2,,,,,,,,,,,,,,,,,,7000.0,,,,5d30f3d2d2938d0001bfbd1e,15:52:17,26/03/2024
html-keyboard-response,158,330966,0.0-65.0-3.0,,<div style='margin:auto;width: auto; font-size: 150%'><span style='font-weight: bold; font-size: 100px; color: green;'>+10 points!</span><br><br></div>,,delaylearn,learning,feedback_image_window,XUqBikyVNPZqG2fmFuJtvkvqI6W2,XUqBikyVNPZqG2fmFuJtvkvqI6W2,,,,,,,,,,,,,,,,,,,,,,5d30f3d2d2938d0001bfbd1e,15:52:17,26/03/2024
html-keyboard-response,159,332871,0.0-66.0,,"<div style=""font-size:100px;"">+</div>",,delaylearn,learning,ITI,XUqBikyVNPZqG2fmFuJtvkvqI6W2,XUqBikyVNPZqG2fmFuJtvkvqI6W2,,,,,,,,,,,,,,,,,,,1895.0,,,5d30f3d2d2938d0001bfbd1e,15:52:17,26/03/2024
html-keyboard-response,160,333893,0.0-67.0-0.0,1019.7999999970198,"<div style=""display: flex; flex-direction: column; align-items: center; margin-top: -40px;""><img src=""images/pattern_5.png"" style=""width: 234px; height: 230px; margin-top: -50px;""><div style=""display: flex; justify-content: space-between; margin-top: 33px;""><img src=""images/choice_trial_2.png"" style=""width: 408px; height: 417px; margin-right: 200px;""><img src=""images/choice_trial_9.png"" style=""width: 408px; height: 417px;""></div></div>",f,delaylearn,learning,trial,XUqBikyVNPZqG2fmFuJtvkvqI6W2,XUqBikyVNPZqG2fmFuJtvkvqI6W2,2.0,images/choice_trial_2.png,images/choice_trial_9.png,images/pattern_5.png,f,f,750.0,2.0,9.0,4.0,0.0,29.0,1.0,1.0,2.0,160.0,,,,,,5d30f3d2d2938d0001bfbd1e,15:52:17,26/03/2024
html-keyboard-response,161,334909,0.0-67.0-1.0,,"<div style=""display: flex; flex-direction: column; align-items: center; margin-top: -40px;""><img src=""images/pattern_5.png"" style=""width: 234px; height: 230px; margin-top: -50px;""><div style=""display: flex; justify-content: space-between; margin-top: 33px;""><img src=""images/choice_trial_2.png"" style=""width: 408px; height: 417px; margin-right: 608px;""></div></div>",,delaylearn,learning,display_response,XUqBikyVNPZqG2fmFuJtvkvqI6W2,XUqBikyVNPZqG2fmFuJtvkvqI6W2,,,,,,,,,,,,,,,,,chosen stimuli: images/choice_trial_2.png,,,,,5d30f3d2d2938d0001bfbd1e,15:52:17,26/03/2024
html-keyboard-response,162,335664,0.0-67.0-2.0,,,,delaylearn,learning,feedback_duration_window,XUqBikyVNPZqG2fmFuJtvkvqI6W2,XUqBikyVNPZqG2fmFuJtvkvqI6W2,,,,,,,,,,,,,,,,,,750.0,,,,5d30f3d2d2938d0001bfbd1e,15:52:17,26/03/2024
html-keyboard-response,163,337168,0.0-67.0-3.0,,<div style='margin:auto;width: auto; font-size: 150%'><span style='font-weight: bold; font-size: 100px; color: green;'>+10 points!</span><br><br></div>,,delaylearn,learning,feedback_image_window,XUqBikyVNPZqG2fmFuJtvkvqI6W2,XUqBikyVNPZqG2fmFuJtvkvqI6W2,,,,,,,,,,,,,,,,,,,,,,5d30f3d2d2938d0001bfbd1e,15:52:17,26/03/2024
html-keyboard-response,164,339354,0.0-68.0,,"<div style=""font-size:100px;"">+</div>",,delaylearn,learning,ITI,XUqBikyVNPZqG2fmFuJtvkvqI6W2,XUqBikyVNPZqG2fmFuJtvkvqI6W2,,,,,,,,,,,,,,,,,,,2170.0,,,5d30f3d2d2938d0001bfbd1e,15:52:17,26/03/2024
html-keyboard-response,165,340384,0.0-69.0-0.0,1028.0,"<div style=""display: flex; flex-direction: column; align-items: center; margin-top: -40px;""><img src=""images/pattern_6.png"" style=""width: 234px; height: 230px; margin-top: -50px;""><div style=""display: flex; justify-content: space-between; margin-top: 33px;""><img src=""images/choice_trial_5.png"" style=""width: 408px; height: 417px; margin-right: 200px;""><img src=""images/choice_trial_11.png"" style=""width: 408px; height: 417px;""></div></div>",f,delaylearn,learning,trial,XUqBikyVNPZqG2fmFuJtvkvqI6W2,XUqBikyVNPZqG2fmFuJtvkvqI6W2,2.0,images/choice_trial_5.png,images/choice_trial_11.png,images/pattern_6.png,j,j,750.0,5.0,11.0,5.0,1.0,30.0,0.0,0.0,5.0,160.0,,,,,,5d30f3d2d2938d0001bfbd1e,15:52:17,26/03/2024
html-keyboard-response,166,341397,0.0-69.0-1.0,,"<div style=""display: flex; flex-direction: column; align-items: center; margin-top: -40px;""><img src=""images/pattern_6.png"" style=""width: 234px; height: 230px; margin-top: -50px;""><div style=""display: flex; justify-content: space-between; margin-top: 33px;""><img src=""images/choice_trial_5.png"" style=""width: 408px; height: 417px; margin-right: 608px;""></div></div>",,delaylearn,learning,display_response,XUqBikyVNPZqG2fmFuJtvkvqI6W2,XUqBikyVNPZqG2fmFuJtvkvqI6W2,,,,,,,,,,,,,,,,,chosen stimuli: images/choice_trial_5.png,,,,,5d30f3d2d2938d0001bfbd1e,15:52:17,26/03/2024
html-keyboard-response,167,342162,0.0-69.0-2.0,,,,delaylearn,learning,feedback_duration_window,XUqBikyVNPZqG2fmFuJtvkvqI6W2,XUqBikyVNPZqG2fmFuJtvkvqI6W2,,,,,,,,,,,,,,,,,,750.0,,,,5d30f3d2d2938d0001bfbd1e,15:52:17,26/03/2024
html-keyboard-response,168,343667,0.0-69.0-3.0,,<div style='margin:auto;width: auto; font-size: 150%'><span style='font-weight: bold; font-size: 100px; color: red;'>0 points!</span><br><br></div>,,delaylearn,learning,feedback_image_window,XUqBikyVNPZqG2fmFuJtvkvqI6W2,XUqBikyVNPZqG2fmFuJtvkvqI6W2,,,,,,,,,,,,,,,,,,,,,,5d30f3d2d2938d0001bfbd1e,15:52:17,26/03/2024
html-keyboard-response,169,344191,0.0-70.0-0.0,,,,,,mood_trial_fixation,XUqBikyVNPZqG2fmFuJtvkvqI6W2,,,,,,,,,,,,,,,,,,,,,,,5d30f3d2d2938d0001bfbd1e,15:52:17,26/03/2024
lmdlab-html-vas-response,170,347939,0.0-70.0-1.0,2738.0,How happy are you right now?,0.2634702112508901,delaylearn,learning,mood_trial,XUqBikyVNPZqG2fmFuJtvkvqI6W2,XUqBikyVNPZqG2fmFuJtvkvqI6W2,,,,,,,,,,,,,,,,,,,,"['Very unhappy', 'Very happy']",,5d30f3d2d2938d0001bfbd1e,15:52:17,26/03/2024
html-keyboard-response,171,349681,0.0-71.0,,"<div style=""font-size:100px;"">+</div>",,delaylearn,learning,ITI,XUqBikyVNPZqG2fmFuJtvkvqI6W2,XUqBikyVNPZqG2fmFuJtvkvqI6W2,,,,,,,,,,,,,,,,,,,1729.0,,,5d30f3d2d2938d0001bfbd1e,15:52:17,26/03/2024
html-keyboard-response,172,350762,0.0-72.0-0.0,1079.0,"<div style=""display: flex; flex-direction: column; align-items: center; margin-top: -40px;""><img src=""images/pattern_4.png"" style=""width: 234px; height: 230px; margin-top: -50px;""><div style=""display: flex; justify-content: space-between; margin-top: 33px;""><img src=""images/choice_trial_16.png"" style=""width: 408px; height: 417px; margin-right: 200px;""><img src=""images/choice_trial_4.png"" style=""width: 408px; height: 417px;""></div></div>",j,delaylearn,learning,trial,XUqBikyVNPZqG2fmFuJtvkvqI6W2,XUqBikyVNPZqG2fmFuJtvkvqI6W2,2.0,images/choice_trial_16.png,images/choice_trial_4.png,images/pattern_4.png,j,j,7000.0,16.0,4.0,3.0,1.0,31.0,1.0,1.0,4.0,170.0,,,,,,5d30f3d2d2938d0001bfbd1e,15:52:17,26/03/2024
html-keyboard-response,173,351771,0.0-72.0-1.0,,"<div style=""display: flex; flex-direction: column; align-items: center; margin-top: -40px;""><img src=""images/pattern_4.png"" style=""width: 234px; height: 230px; margin-top: -50px;""><div style=""display: flex; justify-content: space-between; margin-top: 33px;""><img src=""images/choice_trial_4.png"" style=""width: 408px; height: 417px; margin-left:608px;""></div></div>",,delaylearn,learning,display_response,XUqBikyVNPZqG2fmFuJtvkvqI6W2,XUqBikyVNPZqG2fmFuJtvkvqI6W2,,,,,,,,,,,,,,,,,chosen stimuli: images/choice_trial_4.png,,,,,5d30f3d2d2938d0001bfbd1e,15:52:17,26/03/2024
html-keyboard-response,174,358778,0.0-72.0-2.0,,,,delaylearn,learning,feedback_duration_window,XUqBikyVNPZqG2fmFuJtvkvqI6W2,XUqBikyVNPZqG2fmFuJtvkvqI6W2,,,,,,,,,,,,,,,,,,7000.0,,,,5d30f3d2d2938d0001bfbd1e,15:52:17,26/03/2024
html-keyboard-response,175,360282,0.0-72.0-3.0,,<div style='margin:auto;width: auto; font-size: 150%'><span style='font-weight: bold; font-size: 100px; color: green;'>+10 points!</span><br><br></div>,,delaylearn,learning,feedback_image_window,XUqBikyVNPZqG2fmFuJtvkvqI6W2,XUqBikyVNPZqG2fmFuJtvkvqI6W2,,,,,,,,,,,,,,,,,,,,,,5d30f3d2d2938d0001bfbd1e,15:52:17,26/03/2024
html-keyboard-response,176,362719,0.0-73.0,,"<div style=""font-size:100px;"">+</div>",,delaylearn,learning,ITI,XUqBikyVNPZqG2fmFuJtvkvqI6W2,XUqBikyVNPZqG2fmFuJtvkvqI6W2,,,,,,,,,,,,,,,,,,,2427.0,,,5d30f3d2d2938d0001bfbd1e,15:52:17,26/03/2024
html-keyboard-response,177,364289,0.0-74.0-0.0,1567.4000000059605,"<div style=""display: flex; flex-direction: column; align-items: center; margin-top: -40px;""><img src=""images/pattern_3.png"" style=""width: 234px; height: 230px; margin-top: -50px;""><div style=""display: flex; justify-content: space-between; margin-top: 33px;""><img src=""images/choice_trial_14.png"" style=""width: 408px; height: 417px; margin-right: 200px;""><img src=""images/choice_trial_12.png"" style=""width: 408px; height: 417px;""></div></div>",j,delaylearn,learning,trial,XUqBikyVNPZqG2fmFuJtvkvqI6W2,XUqBikyVNPZqG2fmFuJtvkvqI6W2,2.0,images/choice_trial_14.png,images/choice_trial_12.png,images/pattern_3.png,j,j,7000.0,14.0,12.0,2.0,1.0,32.0,1.0,1.0,12.0,180.0,,,,,,5d30f3d2d2938d0001bfbd1e,15:52:17,26/03/2024
html-keyboard-response,178,365296,0.0-74.0-1.0,,"<div style=""display: flex; flex-direction: column; align-items: center; margin-top: -40px;""><img src=""images/pattern_3.png"" style=""width: 234px; height: 230px; margin-top: -50px;""><div style=""display: flex; justify-content: space-between; margin-top: 33px;""><img src=""images/choice_trial_12.png"" style=""width: 408px; height: 417px; margin-left:608px;""></div></div>",,delaylearn,learning,display_response,XUqBikyVNPZqG2fmFuJtvkvqI6W2,XUqBikyVNPZqG2fmFuJtvkvqI6W2,,,,,,,,,,,,,,,,,chosen stimuli: images/choice_trial_12.png,,,,,5d30f3d2d2938d0001bfbd1e,15:52:17,26/03/2024
html-keyboard-response,179,372304,0.0-74.0-2.0,,,,delaylearn,learning,feedback_duration_window,XUqBikyVNPZqG2fmFuJtvkvqI6W2,XUqBikyVNPZqG2fmFuJtvkvqI6W2,,,,,,,,,,,,,,,,,,7000.0,,,,5d30f3d2d2938d0001bfbd1e,15:52:17,26/03/2024
html-keyboard-response,180,373809,0.0-74.0-3.0,,<div style='margin:auto;width: auto; font-size: 150%'><span style='font-weight: bold; font-size: 100px; color: green;'>+10 points!</span><br><br></div>,,delaylearn,learning,feedback_image_window,XUqBikyVNPZqG2fmFuJtvkvqI6W2,XUqBikyVNPZqG2fmFuJtvkvqI6W2,,,,,,,,,,,,,,,,,,,,,,5d30f3d2d2938d0001bfbd1e,15:52:17,26/03/2024
html-keyboard-response,181,375930,0.0-75.0,,"<div style=""font-size:100px;"">+</div>",,delaylearn,learning,ITI,XUqBikyVNPZqG2fmFuJtvkvqI6W2,XUqBikyVNPZqG2fmFuJtvkvqI6W2,,,,,,,,,,,,,,,,,,,2109.0,,,5d30f3d2d2938d0001bfbd1e,15:52:17,26/03/2024
html-keyboard-response,182,376926,0.0-76.0-0.0,994.1000000089407,"<div style=""display: flex; flex-direction: column; align-items: center; margin-top: -40px;""><img src=""images/pattern_5.png"" style=""width: 234px; height: 230px; margin-top: -50px;""><div style=""display: flex; justify-content: space-between; margin-top: 33px;""><img src=""images/choice_trial_2.png"" style=""width: 408px; height: 417px; margin-right: 200px;""><img src=""images/choice_trial_9.png"" style=""width: 408px; height: 417px;""></div></div>",j,delaylearn,learning,trial,XUqBikyVNPZqG2fmFuJtvkvqI6W2,XUqBikyVNPZqG2fmFuJtvkvqI6W2,2.0,images/choice_trial_2.png,images/choice_trial_9.png,images/pattern_5.png,j,f,750.0,2.0,9.0,4.0,0.0,33.0,0.0,1.0,9.0,190.0,,,,,,5d30f3d2d2938d0001bfbd1e,15:52:17,26/03/2024
html-keyboard-response,183,377936,0.0-76.0-1.0,,"<div style=""display: flex; flex-direction: column; align-items: center; margin-top: -40px;""><img src=""images/pattern_5.png"" style=""width: 234px; height: 230px; margin-top: -50px;""><div style=""display: flex; justify-content: space-between; margin-top: 33px;""><img src=""images/choice_trial_9.png"" style=""width: 408px; height: 417px; margin-left:608px;""></div></div>",,delaylearn,learning,display_response,XUqBikyVNPZqG2fmFuJtvkvqI6W2,XUqBikyVNPZqG2fmFuJtvkvqI6W2,,,,,,,,,,,,,,,,,chosen stimuli: images/choice_trial_9.png,,,,,5d30f3d2d2938d0001bfbd1e,15:52:17,26/03/2024
html-keyboard-response,184,378691,0.0-76.0-2.0,,,,delaylearn,learning,feedback_duration_window,XUqBikyVNPZqG2fmFuJtvkvqI6W2,XUqBikyVNPZqG2fmFuJtvkvqI6W2,,,,,,,,,,,,,,,,,,750.0,,,,5d30f3d2d2938d0001bfbd1e,15:52:17,26/03/2024
html-keyboard-response,185,380195,0.0-76.0-3.0,,<div style='margin:auto;width: auto; font-size: 150%'><span style='font-weight: bold; font-size: 100px; color: green;'>+10 points!</span><br><br></div>,,delaylearn,learning,feedback_image_window,XUqBikyVNPZqG2fmFuJtvkvqI6W2,XUqBikyVNPZqG2fmFuJtvkvqI6W2,,,,,,,,,,,,,,,,,,,,,,5d30f3d2d2938d0001bfbd1e,15:52:17,26/03/2024
html-keyboard-response,186,381745,0.0-77.0,,"<div style=""font-size:100px;"">+</div>",,delaylearn,learning,ITI,XUqBikyVNPZqG2fmFuJtvkvqI6W2,XUqBikyVNPZqG2fmFuJtvkvqI6W2,,,,,,,,,,,,,,,,,,,1545.0,,,5d30f3d2d2938d0001bfbd1e,15:52:17,26/03/2024
html-keyboard-response,187,382979,0.0-78.0-0.0,1232.0999999940395,"<div style=""display: flex; flex-direction: column; align-items: center; margin-top: -40px;""><img src=""images/pattern_1.png"" style=""width: 234px; height: 230px; margin-top: -50px;""><div style=""display: flex; justify-content: space-between; margin-top: 33px;""><img src=""images/choice_trial_3.png"" style=""width: 408px; height: 417px; margin-right: 200px;""><img src=""images/choice_trial_10.png"" style=""width: 408px; height: 417px;""></div></div>",f,delaylearn,learning,trial,XUqBikyVNPZqG2fmFuJtvkvqI6W2,XUqBikyVNPZqG2fmFuJtvkvqI6W2,2.0,images/choice_trial_3.png,images/choice_trial_10.png,images/pattern_1.png,f,f,7000.0,3.0,10.0,1.0,0.0,34.0,1.0,1.0,3.0,200.0,,,,,,5d30f3d2d2938d0001bfbd1e,15:52:17,26/03/2024
html-keyboard-response,188,383983,0.0-78.0-1.0,,"<div style=""display: flex; flex-direction: column; align-items: center; margin-top: -40px;""><img src=""images/pattern_1.png"" style=""width: 234px; height: 230px; margin-top: -50px;""><div style=""display: flex; justify-content: space-between; margin-top: 33px;""><img src=""images/choice_trial_3.png"" style=""width: 408px; height: 417px; margin-right: 608px;""></div></div>",,delaylearn,learning,display_response,XUqBikyVNPZqG2fmFuJtvkvqI6W2,XUqBikyVNPZqG2fmFuJtvkvqI6W2,,,,,,,,,,,,,,,,,chosen stimuli: images/choice_trial_3.png,,,,,5d30f3d2d2938d0001bfbd1e,15:52:17,26/03/2024
html-keyboard-response,189,390989,0.0-78.0-2.0,,,,delaylearn,learning,feedback_duration_window,XUqBikyVNPZqG2fmFuJtvkvqI6W2,XUqBikyVNPZqG2fmFuJtvkvqI6W2,,,,,,,,,,,,,,,,,,7000.0,,,,5d30f3d2d2938d0001bfbd1e,15:52:17,26/03/2024
html-keyboard-response,190,392494,0.0-78.0-3.0,,<div style='margin:auto;width: auto; font-size: 150%'><span style='font-weight: bold; font-size: 100px; color: green;'>+10 points!</span><br><br></div>,,delaylearn,learning,feedback_image_window,XUqBikyVNPZqG2fmFuJtvkvqI6W2,XUqBikyVNPZqG2fmFuJtvkvqI6W2,,,,,,,,,,,,,,,,,,,,,,5d30f3d2d2938d0001bfbd1e,15:52:17,26/03/2024
html-keyboard-response,191,392995,0.0-79.0-0.0,,,,,,mood_trial_fixation,XUqBikyVNPZqG2fmFuJtvkvqI6W2,,,,,,,,,,,,,,,,,,,,,,,5d30f3d2d2938d0001bfbd1e,15:52:17,26/03/2024
lmdlab-html-vas-response,192,397347,0.0-79.0-1.0,3338.0,How happy are you right now?,0.8190295344342342,delaylearn,learning,mood_trial,XUqBikyVNPZqG2fmFuJtvkvqI6W2,XUqBikyVNPZqG2fmFuJtvkvqI6W2,,,,,,,,,,,,,,,,,,,,"['Very unhappy', 'Very happy']",,5d30f3d2d2938d0001bfbd1e,15:52:17,26/03/2024
html-keyboard-response,193,399599,0.0-80.0,,"<div style=""font-size:100px;"">+</div>",,delaylearn,learning,ITI,XUqBikyVNPZqG2fmFuJtvkvqI6W2,XUqBikyVNPZqG2fmFuJtvkvqI6W2,,,,,,,,,,,,,,,,,,,2247.0,,,5d30f3d2d2938d0001bfbd1e,15:52:17,26/03/2024
html-keyboard-response,194,400803,0.0-81.0-0.0,1202.7999999970198,"<div style=""display: flex; flex-direction: column; align-items: center; margin-top: -40px;""><img src=""images/pattern_6.png"" style=""width: 234px; height: 230px; margin-top: -50px;""><div style=""display: flex; justify-content: space-between; margin-top: 33px;""><img src=""images/choice_trial_11.png"" style=""width: 408px; height: 417px; margin-right: 200px;""><img src=""images/choice_trial_5.png"" style=""width: 408px; height: 417px;""></div></div>",j,delaylearn,learning,trial,XUqBikyVNPZqG2fmFuJtvkvqI6W2,XUqBikyVNPZqG2fmFuJtvkvqI6W2,2.0,images/choice_trial_11.png,images/choice_trial_5.png,images/pattern_6.png,j,f,750.0,11.0,5.0,5.0,0.0,35.0,0.0,1.0,5.0,210.0,,,,,,5d30f3d2d2938d0001bfbd1e,15:52:17,26/03/2024
html-keyboard-response,195,401807,0.0-81.0-1.0,,"<div style=""display: flex; flex-direction: column; align-items: center; margin-top: -40px;""><img src=""images/pattern_6.png"" style=""width: 234px; height: 230px; margin-top: -50px;""><div style=""display: flex; justify-content: space-between; margin-top: 33px;""><img src=""images/choice_trial_5.png"" style=""width: 408px; height: 417px; margin-left:608px;""></div></div>",,delaylearn,learning,display_response,XUqBikyVNPZqG2fmFuJtvkvqI6W2,XUqBikyVNPZqG2fmFuJtvkvqI6W2,,,,,,,,,,,,,,,,,chosen stimuli: images/choice_trial_5.png,,,,,5d30f3d2d2938d0001bfbd1e,15:52:17,26/03/2024
html-keyboard-response,196,402562,0.0-81.0-2.0,,,,delaylearn,learning,feedback_duration_window,XUqBikyVNPZqG2fmFuJtvkvqI6W2,XUqBikyVNPZqG2fmFuJtvkvqI6W2,,,,,,,,,,,,,,,,,,750.0,,,,5d30f3d2d2938d0001bfbd1e,15:52:17,26/03/2024
html-keyboard-response,197,404068,0.0-81.0-3.0,,<div style='margin:auto;width: auto; font-size: 150%'><span style='font-weight: bold; font-size: 100px; color: green;'>+10 points!</span><br><br></div>,,delaylearn,learning,feedback_image_window,XUqBikyVNPZqG2fmFuJtvkvqI6W2,XUqBikyVNPZqG2fmFuJtvkvqI6W2,,,,,,,,,,,,,,,,,,,,,,5d30f3d2d2938d0001bfbd1e,15:52:17,26/03/2024
html-keyboard-response,198,406175,0.0-82.0,,"<div style=""font-size:100px;"">+</div>",,delaylearn,learning,ITI,XUqBikyVNPZqG2fmFuJtvkvqI6W2,XUqBikyVNPZqG2fmFuJtvkvqI6W2,,,,,,,,,,,,,,,,,,,2099.0,,,5d30f3d2d2938d0001bfbd1e,15:52:17,26/03/2024
html-keyboard-response,199,406994,0.0-83.0-0.0,817.2000000029802,"<div style=""display: flex; flex-direction: column; align-items: center; margin-top: -40px;""><img src=""images/pattern_3.png"" style=""width: 234px; height: 230px; margin-top: -50px;""><div style=""display: flex; justify-content: space-between; margin-top: 33px;""><img src=""images/choice_trial_14.png"" style=""width: 408px; height: 417px; margin-right: 200px;""><img src=""images/choice_trial_12.png"" style=""width: 408px; height: 417px;""></div></div>",j,delaylearn,learning,trial,XUqBikyVNPZqG2fmFuJtvkvqI6W2,XUqBikyVNPZqG2fmFuJtvkvqI6W2,2.0,images/choice_trial_14.png,images/choice_trial_12.png,images/pattern_3.png,j,j,7000.0,14.0,12.0,2.0,1.0,36.0,1.0,1.0,12.0,220.0,,,,,,5d30f3d2d2938d0001bfbd1e,15:52:17,26/03/2024
html-keyboard-response,200,407997,0.0-83.0-1.0,,"<div style=""display: flex; flex-direction: column; align-items: center; margin-top: -40px;""><img src=""images/pattern_3.png"" style=""width: 234px; height: 230px; margin-top: -50px;""><div style=""display: flex; justify-content: space-between; margin-top: 33px;""><img src=""images/choice_trial_12.png"" style=""width: 408px; height: 417px; margin-left:608px;""></div></div>",,delaylearn,learning,display_response,XUqBikyVNPZqG2fmFuJtvkvqI6W2,XUqBikyVNPZqG2fmFuJtvkvqI6W2,,,,,,,,,,,,,,,,,chosen stimuli: images/choice_trial_12.png,,,,,5d30f3d2d2938d0001bfbd1e,15:52:17,26/03/2024
html-keyboard-response,201,415003,0.0-83.0-2.0,,,,delaylearn,learning,feedback_duration_window,XUqBikyVNPZqG2fmFuJtvkvqI6W2,XUqBikyVNPZqG2fmFuJtvkvqI6W2,,,,,,,,,,,,,,,,,,7000.0,,,,5d30f3d2d2938d0001bfbd1e,15:52:17,26/03/2024
html-keyboard-response,202,416507,0.0-83.0-3.0,,<div style='margin:auto;width: auto; font-size: 150%'><span style='font-weight: bold; font-size: 100px; color: green;'>+10 points!</span><br><br></div>,,delaylearn,learning,feedback_image_window,XUqBikyVNPZqG2fmFuJtvkvqI6W2,XUqBikyVNPZqG2fmFuJtvkvqI6W2,,,,,,,,,,,,,,,,,,,,,,5d30f3d2d2938d0001bfbd1e,15:52:17,26/03/2024
html-keyboard-response,203,418812,0.0-84.0,,"<div style=""font-size:100px;"">+</div>",,delaylearn,learning,ITI,XUqBikyVNPZqG2fmFuJtvkvqI6W2,XUqBikyVNPZqG2fmFuJtvkvqI6W2,,,,,,,,,,,,,,,,,,,2295.0,,,5d30f3d2d2938d0001bfbd1e,15:52:17,26/03/2024
html-keyboard-response,204,419576,0.0-85.0-0.0,761.5,"<div style=""display: flex; flex-direction: column; align-items: center; margin-top: -40px;""><img src=""images/pattern_4.png"" style=""width: 234px; height: 230px; margin-top: -50px;""><div style=""display: flex; justify-content: space-between; margin-top: 33px;""><img src=""images/choice_trial_16.png"" style=""width: 408px; height: 417px; margin-right: 200px;""><img src=""images/choice_trial_4.png"" style=""width: 408px; height: 417px;""></div></div>",j,delaylearn,learning,trial,XUqBikyVNPZqG2fmFuJtvkvqI6W2,XUqBikyVNPZqG2fmFuJtvkvqI6W2,2.0,images/choice_trial_16.png,images/choice_trial_4.png,images/pattern_4.png,f,j,7000.0,16.0,4.0,3.0,1.0,37.0,1.0,0.0,4.0,220.0,,,,,,5d30f3d2d2938d0001bfbd1e,15:52:17,26/03/2024
html-keyboard-response,205,420580,0.0-85.0-1.0,,"<div style=""display: flex; flex-direction: column; align-items: center; margin-top: -40px;""><img src=""images/pattern_4.png"" style=""width: 234px; height: 230px; margin-top: -50px;""><div style=""display: flex; justify-content: space-between; margin-top: 33px;""><img src=""images/choice_trial_4.png"" style=""width: 408px; height: 417px; margin-left:608px;""></div></div>",,delaylearn,learning,display_response,XUqBikyVNPZqG2fmFuJtvkvqI6W2,XUqBikyVNPZqG2fmFuJtvkvqI6W2,,,,,,,,,,,,,,,,,chosen stimuli: images/choice_trial_4.png,,,,,5d30f3d2d2938d0001bfbd1e,15:52:17,26/03/2024
html-keyboard-response,206,427584,0.0-85.0-2.0,,,,delaylearn,learning,feedback_duration_window,XUqBikyVNPZqG2fmFuJtvkvqI6W2,XUqBikyVNPZqG2fmFuJtvkvqI6W2,,,,,,,,,,,,,,,,,,7000.0,,,,5d30f3d2d2938d0001bfbd1e,15:52:17,26/03/2024
html-keyboard-response,207,429088,0.0-85.0-3.0,,<div style='margin:auto;width: auto; font-size: 150%'><span style='font-weight: bold; font-size: 100px; color: red;'>0 points!</span><br><br></div>,,delaylearn,learning,feedback_image_window,XUqBikyVNPZqG2fmFuJtvkvqI6W2,XUqBikyVNPZqG2fmFuJtvkvqI6W2,,,,,,,,,,,,,,,,,,,,,,5d30f3d2d2938d0001bfbd1e,15:52:17,26/03/2024
html-keyboard-response,208,430645,0.0-86.0,,"<div style=""font-size:100px;"">+</div>",,delaylearn,learning,ITI,XUqBikyVNPZqG2fmFuJtvkvqI6W2,XUqBikyVNPZqG2fmFuJtvkvqI6W2,,,,,,,,,,,,,,,,,,,1546.0,,,5d30f3d2d2938d0001bfbd1e,15:52:17,26/03/2024
html-keyboard-response,209,431716,0.0-87.0-0.0,1069.2000000029802,"<div style=""display: flex; flex-direction: column; align-items: center; margin-top: -40px;""><img src=""images/pattern_7.png"" style=""width: 234px; height: 230px; margin-top: -50px;""><div style=""display: flex; justify-content: space-between; margin-top: 33px;""><img src=""images/choice_trial_8.png"" style=""width: 408px; height: 417px; margin-right: 200px;""><img src=""images/choice_trial_15.png"" style=""width: 408px; height: 417px;""></div></div>",f,delaylearn,learning,trial,XUqBikyVNPZqG2fmFuJtvkvqI6W2,XUqBikyVNPZqG2fmFuJtvkvqI6W2,2.0,images/choice_trial_8.png,images/choice_trial_15.png,images/pattern_7.png,f,f,750.0,8.0,15.0,6.0,0.0,38.0,1.0,1.0,8.0,230.0,,,,,,5d30f3d2d2938d0001bfbd1e,15:52:17,26/03/2024
html-keyboard-response,210,432728,0.0-87.0-1.0,,"<div style=""display: flex; flex-direction: column; align-items: center; margin-top: -40px;""><img src=""images/pattern_7.png"" style=""width: 234px; height: 230px; margin-top: -50px;""><div style=""display: flex; justify-content: space-between; margin-top: 33px;""><img src=""images/choice_trial_8.png"" style=""width: 408px; height: 417px; margin-right: 608px;""></div></div>",,delaylearn,learning,display_response,XUqBikyVNPZqG2fmFuJtvkvqI6W2,XUqBikyVNPZqG2fmFuJtvkvqI6W2,,,,,,,,,,,,,,,,,chosen stimuli: images/choice_trial_8.png,,,,,5d30f3d2d2938d0001bfbd1e,15:52:17,26/03/2024
html-keyboard-response,211,433483,0.0-87.0-2.0,,,,delaylearn,learning,feedback_duration_window,XUqBikyVNPZqG2fmFuJtvkvqI6W2,XUqBikyVNPZqG2fmFuJtvkvqI6W2,,,,,,,,,,,,,,,,,,750.0,,,,5d30f3d2d2938d0001bfbd1e,15:52:17,26/03/2024
html-keyboard-response,212,434986,0.0-87.0-3.0,,<div style='margin:auto;width: auto; font-size: 150%'><span style='font-weight: bold; font-size: 100px; color: green;'>+10 points!</span><br><br></div>,,delaylearn,learning,feedback_image_window,XUqBikyVNPZqG2fmFuJtvkvqI6W2,XUqBikyVNPZqG2fmFuJtvkvqI6W2,,,,,,,,,,,,,,,,,,,,,,5d30f3d2d2938d0001bfbd1e,15:52:17,26/03/2024
html-keyboard-response,213,437362,0.0-88.0,,"<div style=""font-size:100px;"">+</div>",,delaylearn,learning,ITI,XUqBikyVNPZqG2fmFuJtvkvqI6W2,XUqBikyVNPZqG2fmFuJtvkvqI6W2,,,,,,,,,,,,,,,,,,,2373.0,,,5d30f3d2d2938d0001bfbd1e,15:52:17,26/03/2024
html-keyboard-response,214,438256,0.0-89.0-0.0,892.0,"<div style=""display: flex; flex-direction: column; align-items: center; margin-top: -40px;""><img src=""images/pattern_1.png"" style=""width: 234px; height: 230px; margin-top: -50px;""><div style=""display: flex; justify-content: space-between; margin-top: 33px;""><img src=""images/choice_trial_3.png"" style=""width: 408px; height: 417px; margin-right: 200px;""><img src=""images/choice_trial_10.png"" style=""width: 408px; height: 417px;""></div></div>",j,delaylearn,learning,trial,XUqBikyVNPZqG2fmFuJtvkvqI6W2,XUqBikyVNPZqG2fmFuJtvkvqI6W2,2.0,images/choice_trial_3.png,images/choice_trial_10.png,images/pattern_1.png,f,f,7000.0,3.0,10.0,1.0,0.0,39.0,0.0,0.0,10.0,230.0,,,,,,5d30f3d2d2938d0001bfbd1e,15:52:17,26/03/2024
html-keyboard-response,215,439270,0.0-89.0-1.0,,"<div style=""display: flex; flex-direction: column; align-items: center; margin-top: -40px;""><img src=""images/pattern_1.png"" style=""width: 234px; height: 230px; margin-top: -50px;""><div style=""display: flex; justify-content: space-between; margin-top: 33px;""><img src=""images/choice_trial_10.png"" style=""width: 408px; height: 417px; margin-left:608px;""></div></div>",,delaylearn,learning,display_response,XUqBikyVNPZqG2fmFuJtvkvqI6W2,XUqBikyVNPZqG2fmFuJtvkvqI6W2,,,,,,,,,,,,,,,,,chosen stimuli: images/choice_trial_10.png,,,,,5d30f3d2d2938d0001bfbd1e,15:52:17,26/03/2024
html-keyboard-response,216,446272,0.0-89.0-2.0,,,,delaylearn,learning,feedback_duration_window,XUqBikyVNPZqG2fmFuJtvkvqI6W2,XUqBikyVNPZqG2fmFuJtvkvqI6W2,,,,,,,,,,,,,,,,,,7000.0,,,,5d30f3d2d2938d0001bfbd1e,15:52:17,26/03/2024
html-keyboard-response,217,447776,0.0-89.0-3.0,,<div style='margin:auto;width: auto; font-size: 150%'><span style='font-weight: bold; font-size: 100px; color: red;'>0 points!</span><br><br></div>,,delaylearn,learning,feedback_image_window,XUqBikyVNPZqG2fmFuJtvkvqI6W2,XUqBikyVNPZqG2fmFuJtvkvqI6W2,,,,,,,,,,,,,,,,,,,,,,5d30f3d2d2938d0001bfbd1e,15:52:17,26/03/2024
html-keyboard-response,218,448278,0.0-90.0-0.0,,,,,,mood_trial_fixation,XUqBikyVNPZqG2fmFuJtvkvqI6W2,,,,,,,,,,,,,,,,,,,,,,,5d30f3d2d2938d0001bfbd1e,15:52:17,26/03/2024
lmdlab-html-vas-response,219,453126,0.0-90.0-1.0,3839.0,How happy are you right now?,0.7126920077311723,delaylearn,learning,mood_trial,XUqBikyVNPZqG2fmFuJtvkvqI6W2,XUqBikyVNPZqG2fmFuJtvkvqI6W2,,,,,,,,,,,,,,,,,,,,"['Very unhappy', 'Very happy']",,5d30f3d2d2938d0001bfbd1e,15:52:17,26/03/2024
html-keyboard-response,220,454730,0.0-91.0,,"<div style=""font-size:100px;"">+</div>",,delaylearn,learning,ITI,XUqBikyVNPZqG2fmFuJtvkvqI6W2,XUqBikyVNPZqG2fmFuJtvkvqI6W2,,,,,,,,,,,,,,,,,,,1595.0,,,5d30f3d2d2938d0001bfbd1e,15:52:17,26/03/2024
html-keyboard-response,221,455655,0.0-92.0-0.0,922.3999999910593,"<div style=""display: flex; flex-direction: column; align-items: center; margin-top: -40px;""><img src=""images/pattern_3.png"" style=""width: 234px; height: 230px; margin-top: -50px;""><div style=""display: flex; justify-content: space-between; margin-top: 33px;""><img src=""images/choice_trial_12.png"" style=""width: 408px; height: 417px; margin-right: 200px;""><img src=""images/choice_trial_14.png"" style=""width: 408px; height: 417px;""></div></div>",f,delaylearn,learning,trial,XUqBikyVNPZqG2fmFuJtvkvqI6W2,XUqBikyVNPZqG2fmFuJtvkvqI6W2,2.0,images/choice_trial_12.png,images/choice_trial_14.png,images/pattern_3.png,j,f,7000.0,12.0,14.0,2.0,0.0,40.0,1.0,0.0,12.0,230.0,,,,,,5d30f3d2d2938d0001bfbd1e,15:52:17,26/03/2024
html-keyboard-response,222,456665,0.0-92.0-1.0,,"<div style=""display: flex; flex-direction: column; align-items: center; margin-top: -40px;""><img src=""images/pattern_3.png"" style=""width: 234px; height: 230px; margin-top: -50px;""><div style=""display: flex; justify-content: space-between; margin-top: 33px;""><img src=""images/choice_trial_12.png"" style=""width: 408px; height: 417px; margin-right: 608px;""></div></div>",,delaylearn,learning,display_response,XUqBikyVNPZqG2fmFuJtvkvqI6W2,XUqBikyVNPZqG2fmFuJtvkvqI6W2,,,,,,,,,,,,,,,,,chosen stimuli: images/choice_trial_12.png,,,,,5d30f3d2d2938d0001bfbd1e,15:52:17,26/03/2024
html-keyboard-response,223,463672,0.0-92.0-2.0,,,,delaylearn,learning,feedback_duration_window,XUqBikyVNPZqG2fmFuJtvkvqI6W2,XUqBikyVNPZqG2fmFuJtvkvqI6W2,,,,,,,,,,,,,,,,,,7000.0,,,,5d30f3d2d2938d0001bfbd1e,15:52:17,26/03/2024
html-keyboard-response,224,465177,0.0-92.0-3.0,,<div style='margin:auto;width: auto; font-size: 150%'><span style='font-weight: bold; font-size: 100px; color: red;'>0 points!</span><br><br></div>,,delaylearn,learning,feedback_image_window,XUqBikyVNPZqG2fmFuJtvkvqI6W2,XUqBikyVNPZqG2fmFuJtvkvqI6W2,,,,,,,,,,,,,,,,,,,,,,5d30f3d2d2938d0001bfbd1e,15:52:17,26/03/2024
html-keyboard-response,225,467229,0.0-93.0,,"<div style=""font-size:100px;"">+</div>",,delaylearn,learning,ITI,XUqBikyVNPZqG2fmFuJtvkvqI6W2,XUqBikyVNPZqG2fmFuJtvkvqI6W2,,,,,,,,,,,,,,,,,,,2047.0,,,5d30f3d2d2938d0001bfbd1e,15:52:17,26/03/2024
html-keyboard-response,226,468536,0.0-94.0-0.0,1303.5999999940395,"<div style=""display: flex; flex-direction: column; align-items: center; margin-top: -40px;""><img src=""images/pattern_7.png"" style=""width: 234px; height: 230px; margin-top: -50px;""><div style=""display: flex; justify-content: space-between; margin-top: 33px;""><img src=""images/choice_trial_15.png"" style=""width: 408px; height: 417px; margin-right: 200px;""><img src=""images/choice_trial_8.png"" style=""width: 408px; height: 417px;""></div></div>",j,delaylearn,learning,trial,XUqBikyVNPZqG2fmFuJtvkvqI6W2,XUqBikyVNPZqG2fmFuJtvkvqI6W2,2.0,images/choice_trial_15.png,images/choice_trial_8.png,images/pattern_7.png,j,j,750.0,15.0,8.0,6.0,1.0,41.0,1.0,1.0,8.0,240.0,,,,,,5d30f3d2d2938d0001bfbd1e,15:52:17,26/03/2024
html-keyboard-response,227,469558,0.0-94.0-1.0,,"<div style=""display: flex; flex-direction: column; align-items: center; margin-top: -40px;""><img src=""images/pattern_7.png"" style=""width: 234px; height: 230px; margin-top: -50px;""><div style=""display: flex; justify-content: space-between; margin-top: 33px;""><img src=""images/choice_trial_8.png"" style=""width: 408px; height: 417px; margin-left:608px;""></div></div>",,delaylearn,learning,display_response,XUqBikyVNPZqG2fmFuJtvkvqI6W2,XUqBikyVNPZqG2fmFuJtvkvqI6W2,,,,,,,,,,,,,,,,,chosen stimuli: images/choice_trial_8.png,,,,,5d30f3d2d2938d0001bfbd1e,15:52:17,26/03/2024
html-keyboard-response,228,470323,0.0-94.0-2.0,,,,delaylearn,learning,feedback_duration_window,XUqBikyVNPZqG2fmFuJtvkvqI6W2,XUqBikyVNPZqG2fmFuJtvkvqI6W2,,,,,,,,,,,,,,,,,,750.0,,,,5d30f3d2d2938d0001bfbd1e,15:52:17,26/03/2024
html-keyboard-response,229,471827,0.0-94.0-3.0,,<div style='margin:auto;width: auto; font-size: 150%'><span style='font-weight: bold; font-size: 100px; color: green;'>+10 points!</span><br><br></div>,,delaylearn,learning,feedback_image_window,XUqBikyVNPZqG2fmFuJtvkvqI6W2,XUqBikyVNPZqG2fmFuJtvkvqI6W2,,,,,,,,,,,,,,,,,,,,,,5d30f3d2d2938d0001bfbd1e,15:52:17,26/03/2024
html-keyboard-response,230,473470,0.0-95.0,,"<div style=""font-size:100px;"">+</div>",,delaylearn,learning,ITI,XUqBikyVNPZqG2fmFuJtvkvqI6W2,XUqBikyVNPZqG2fmFuJtvkvqI6W2,,,,,,,,,,,,,,,,,,,1627.0,,,5d30f3d2d2938d0001bfbd1e,15:52:17,26/03/2024
html-keyboard-response,231,474453,0.0-96.0-0.0,981.5999999940395,"<div style=""display: flex; flex-direction: column; align-items: center; margin-top: -40px;""><img src=""images/pattern_5.png"" style=""width: 234px; height: 230px; margin-top: -50px;""><div style=""display: flex; justify-content: space-between; margin-top: 33px;""><img src=""images/choice_trial_9.png"" style=""width: 408px; height: 417px; margin-right: 200px;""><img src=""images/choice_trial_2.png"" style=""width: 408px; height: 417px;""></div></div>",f,delaylearn,learning,trial,XUqBikyVNPZqG2fmFuJtvkvqI6W2,XUqBikyVNPZqG2fmFuJtvkvqI6W2,2.0,images/choice_trial_9.png,images/choice_trial_2.png,images/pattern_5.png,j,j,750.0,9.0,2.0,4.0,1.0,42.0,0.0,0.0,9.0,240.0,,,,,,5d30f3d2d2938d0001bfbd1e,15:52:17,26/03/2024
