trial_type,trial_index,time_elapsed,internal_node_id,rt,stimulus,response,exp_name,exp_stage,test_part,subjectID,databaseID,counterbal,choice_stimuli_1,choice_stimuli_2,pattern_stimuli,rewarded_answer,correct_answer,feedback_duration_times,stim_left,stim_right,pair,leftright_counter,trial,response_correct,response_rewarded,chosen_stim,counter,displayed_choice,feedback_durations,ITI_duration,labels,rest_warning,prolificID,start_time,date
pavlovia,0,549,0.0-0.0,,,,,,,NeXZwmX2ksSAQ5m3jQXn1Fh6Mf13,,,,,,,,,,,,,,,,,,,,,,,59269aac7724de000109190f,09:05:51,27/02/2024
html-keyboard-response,1,3554,0.0-1.0,,"<div style=""font-size:100px;"">+</div>",,delaylearn,learning,pre_fixation,NeXZwmX2ksSAQ5m3jQXn1Fh6Mf13,,,,,,,,,,,,,,,,,,,,,,,59269aac7724de000109190f,09:05:51,27/02/2024
html-keyboard-response,2,4613,0.0-2.0-0.0,1055.7000000001863,"<div style=""display: flex; flex-direction: column; align-items: center; margin-top: -40px;""><img src=""images/demo_images/pattern_1.png"" style=""width: 234px; height: 230px; margin-top: -50px;""><div style=""display: flex; justify-content: space-between; margin-top: 33px;""><img src=""images/demo_images/choice_trial_2.png"" style=""width: 408px; height: 417px; margin-right: 200px;""><img src=""images/demo_images/choice_trial_1.png"" style=""width: 408px; height: 417px;""></div></div>",j,delaylearn,learning,trial,NeXZwmX2ksSAQ5m3jQXn1Fh6Mf13,NeXZwmX2ksSAQ5m3jQXn1Fh6Mf13,3.0,images/demo_images/choice_trial_2.png,images/demo_images/choice_trial_1.png,images/demo_images/pattern_1.png,j,j,3000.0,2.0,1.0,20.0,1.0,1.0,1.0,1.0,1.0,10.0,,,,,,59269aac7724de000109190f,09:05:51,27/02/2024
html-keyboard-response,3,5618,0.0-2.0-1.0,,"<div style=""display: flex; flex-direction: column; align-items: center; margin-top: -40px;""><img src=""images/demo_images/pattern_1.png"" style=""width: 234px; height: 230px; margin-top: -50px;""><div style=""display: flex; justify-content: space-between; margin-top: 33px;""><img src=""images/demo_images/choice_trial_1.png"" style=""width: 408px; height: 417px; margin-left:608px;""></div></div>",,delaylearn,learning,display_response,NeXZwmX2ksSAQ5m3jQXn1Fh6Mf13,NeXZwmX2ksSAQ5m3jQXn1Fh6Mf13,,,,,,,,,,,,,,,,,chosen stimuli: images/demo_images/choice_trial_1.png,,,,,59269aac7724de000109190f,09:05:51,27/02/2024
html-keyboard-response,4,8620,0.0-2.0-2.0,,,,delaylearn,learning,feedback_duration_window,NeXZwmX2ksSAQ5m3jQXn1Fh6Mf13,NeXZwmX2ksSAQ5m3jQXn1Fh6Mf13,,,,,,,,,,,,,,,,,,3000.0,,,,59269aac7724de000109190f,09:05:51,27/02/2024
html-keyboard-response,5,10122,0.0-2.0-3.0,,<div style='margin:auto;width: auto; font-size: 150%'><span style='font-weight: bold; font-size: 100px; color: green;'>+10 points!</span><br><br></div>,,delaylearn,learning,feedback_image_window,NeXZwmX2ksSAQ5m3jQXn1Fh6Mf13,NeXZwmX2ksSAQ5m3jQXn1Fh6Mf13,,,,,,,,,,,,,,,,,,,,,,59269aac7724de000109190f,09:05:51,27/02/2024
html-keyboard-response,6,12069,0.0-3.0,,"<div style=""font-size:100px;"">+</div>",,delaylearn,learning,ITI,NeXZwmX2ksSAQ5m3jQXn1Fh6Mf13,NeXZwmX2ksSAQ5m3jQXn1Fh6Mf13,,,,,,,,,,,,,,,,,,,1946.0,,,59269aac7724de000109190f,09:05:51,27/02/2024
html-keyboard-response,7,12659,0.0-4.0-0.0,587.2000000001863,"<div style=""display: flex; flex-direction: column; align-items: center; margin-top: -40px;""><img src=""images/demo_images/pattern_1.png"" style=""width: 234px; height: 230px; margin-top: -50px;""><div style=""display: flex; justify-content: space-between; margin-top: 33px;""><img src=""images/demo_images/choice_trial_2.png"" style=""width: 408px; height: 417px; margin-right: 200px;""><img src=""images/demo_images/choice_trial_1.png"" style=""width: 408px; height: 417px;""></div></div>",j,delaylearn,learning,trial,NeXZwmX2ksSAQ5m3jQXn1Fh6Mf13,NeXZwmX2ksSAQ5m3jQXn1Fh6Mf13,3.0,images/demo_images/choice_trial_2.png,images/demo_images/choice_trial_1.png,images/demo_images/pattern_1.png,j,j,3000.0,2.0,1.0,20.0,1.0,2.0,1.0,1.0,1.0,20.0,,,,,,59269aac7724de000109190f,09:05:51,27/02/2024
html-keyboard-response,8,13661,0.0-4.0-1.0,,"<div style=""display: flex; flex-direction: column; align-items: center; margin-top: -40px;""><img src=""images/demo_images/pattern_1.png"" style=""width: 234px; height: 230px; margin-top: -50px;""><div style=""display: flex; justify-content: space-between; margin-top: 33px;""><img src=""images/demo_images/choice_trial_1.png"" style=""width: 408px; height: 417px; margin-left:608px;""></div></div>",,delaylearn,learning,display_response,NeXZwmX2ksSAQ5m3jQXn1Fh6Mf13,NeXZwmX2ksSAQ5m3jQXn1Fh6Mf13,,,,,,,,,,,,,,,,,chosen stimuli: images/demo_images/choice_trial_1.png,,,,,59269aac7724de000109190f,09:05:51,27/02/2024
html-keyboard-response,9,16663,0.0-4.0-2.0,,,,delaylearn,learning,feedback_duration_window,NeXZwmX2ksSAQ5m3jQXn1Fh6Mf13,NeXZwmX2ksSAQ5m3jQXn1Fh6Mf13,,,,,,,,,,,,,,,,,,3000.0,,,,59269aac7724de000109190f,09:05:51,27/02/2024
html-keyboard-response,10,18164,0.0-4.0-3.0,,<div style='margin:auto;width: auto; font-size: 150%'><span style='font-weight: bold; font-size: 100px; color: green;'>+10 points!</span><br><br></div>,,delaylearn,learning,feedback_image_window,NeXZwmX2ksSAQ5m3jQXn1Fh6Mf13,NeXZwmX2ksSAQ5m3jQXn1Fh6Mf13,,,,,,,,,,,,,,,,,,,,,,59269aac7724de000109190f,09:05:51,27/02/2024
html-keyboard-response,11,20076,0.0-5.0,,"<div style=""font-size:100px;"">+</div>",,delaylearn,learning,ITI,NeXZwmX2ksSAQ5m3jQXn1Fh6Mf13,NeXZwmX2ksSAQ5m3jQXn1Fh6Mf13,,,,,,,,,,,,,,,,,,,1910.0,,,59269aac7724de000109190f,09:05:51,27/02/2024
html-keyboard-response,12,20649,0.0-6.0-0.0,571.0,"<div style=""display: flex; flex-direction: column; align-items: center; margin-top: -40px;""><img src=""images/demo_images/pattern_1.png"" style=""width: 234px; height: 230px; margin-top: -50px;""><div style=""display: flex; justify-content: space-between; margin-top: 33px;""><img src=""images/demo_images/choice_trial_1.png"" style=""width: 408px; height: 417px; margin-right: 200px;""><img src=""images/demo_images/choice_trial_2.png"" style=""width: 408px; height: 417px;""></div></div>",f,delaylearn,learning,trial,NeXZwmX2ksSAQ5m3jQXn1Fh6Mf13,NeXZwmX2ksSAQ5m3jQXn1Fh6Mf13,3.0,images/demo_images/choice_trial_1.png,images/demo_images/choice_trial_2.png,images/demo_images/pattern_1.png,j,f,3000.0,1.0,2.0,20.0,0.0,3.0,1.0,0.0,1.0,20.0,,,,,,59269aac7724de000109190f,09:05:51,27/02/2024
html-keyboard-response,13,21651,0.0-6.0-1.0,,"<div style=""display: flex; flex-direction: column; align-items: center; margin-top: -40px;""><img src=""images/demo_images/pattern_1.png"" style=""width: 234px; height: 230px; margin-top: -50px;""><div style=""display: flex; justify-content: space-between; margin-top: 33px;""><img src=""images/demo_images/choice_trial_1.png"" style=""width: 408px; height: 417px; margin-right: 608px;""></div></div>",,delaylearn,learning,display_response,NeXZwmX2ksSAQ5m3jQXn1Fh6Mf13,NeXZwmX2ksSAQ5m3jQXn1Fh6Mf13,,,,,,,,,,,,,,,,,chosen stimuli: images/demo_images/choice_trial_1.png,,,,,59269aac7724de000109190f,09:05:51,27/02/2024
html-keyboard-response,14,24652,0.0-6.0-2.0,,,,delaylearn,learning,feedback_duration_window,NeXZwmX2ksSAQ5m3jQXn1Fh6Mf13,NeXZwmX2ksSAQ5m3jQXn1Fh6Mf13,,,,,,,,,,,,,,,,,,3000.0,,,,59269aac7724de000109190f,09:05:51,27/02/2024
html-keyboard-response,15,26154,0.0-6.0-3.0,,<div style='margin:auto;width: auto; font-size: 150%'><span style='font-weight: bold; font-size: 100px; color: red;'>0 points!</span><br><br></div>,,delaylearn,learning,feedback_image_window,NeXZwmX2ksSAQ5m3jQXn1Fh6Mf13,NeXZwmX2ksSAQ5m3jQXn1Fh6Mf13,,,,,,,,,,,,,,,,,,,,,,59269aac7724de000109190f,09:05:51,27/02/2024
html-keyboard-response,16,28202,0.0-7.0,,"<div style=""font-size:100px;"">+</div>",,delaylearn,learning,ITI,NeXZwmX2ksSAQ5m3jQXn1Fh6Mf13,NeXZwmX2ksSAQ5m3jQXn1Fh6Mf13,,,,,,,,,,,,,,,,,,,2047.0,,,59269aac7724de000109190f,09:05:51,27/02/2024
html-keyboard-response,17,29352,0.0-8.0-0.0,1147.5999999996275,"<div style=""display: flex; flex-direction: column; align-items: center; margin-top: -40px;""><img src=""images/demo_images/pattern_1.png"" style=""width: 234px; height: 230px; margin-top: -50px;""><div style=""display: flex; justify-content: space-between; margin-top: 33px;""><img src=""images/demo_images/choice_trial_1.png"" style=""width: 408px; height: 417px; margin-right: 200px;""><img src=""images/demo_images/choice_trial_2.png"" style=""width: 408px; height: 417px;""></div></div>",j,delaylearn,learning,trial,NeXZwmX2ksSAQ5m3jQXn1Fh6Mf13,NeXZwmX2ksSAQ5m3jQXn1Fh6Mf13,3.0,images/demo_images/choice_trial_1.png,images/demo_images/choice_trial_2.png,images/demo_images/pattern_1.png,f,f,3000.0,1.0,2.0,20.0,0.0,4.0,0.0,0.0,2.0,20.0,,,,,,59269aac7724de000109190f,09:05:51,27/02/2024
html-keyboard-response,18,30355,0.0-8.0-1.0,,"<div style=""display: flex; flex-direction: column; align-items: center; margin-top: -40px;""><img src=""images/demo_images/pattern_1.png"" style=""width: 234px; height: 230px; margin-top: -50px;""><div style=""display: flex; justify-content: space-between; margin-top: 33px;""><img src=""images/demo_images/choice_trial_2.png"" style=""width: 408px; height: 417px; margin-left:608px;""></div></div>",,delaylearn,learning,display_response,NeXZwmX2ksSAQ5m3jQXn1Fh6Mf13,NeXZwmX2ksSAQ5m3jQXn1Fh6Mf13,,,,,,,,,,,,,,,,,chosen stimuli: images/demo_images/choice_trial_2.png,,,,,59269aac7724de000109190f,09:05:51,27/02/2024
html-keyboard-response,19,33356,0.0-8.0-2.0,,,,delaylearn,learning,feedback_duration_window,NeXZwmX2ksSAQ5m3jQXn1Fh6Mf13,NeXZwmX2ksSAQ5m3jQXn1Fh6Mf13,,,,,,,,,,,,,,,,,,3000.0,,,,59269aac7724de000109190f,09:05:51,27/02/2024
html-keyboard-response,20,34858,0.0-8.0-3.0,,<div style='margin:auto;width: auto; font-size: 150%'><span style='font-weight: bold; font-size: 100px; color: red;'>0 points!</span><br><br></div>,,delaylearn,learning,feedback_image_window,NeXZwmX2ksSAQ5m3jQXn1Fh6Mf13,NeXZwmX2ksSAQ5m3jQXn1Fh6Mf13,,,,,,,,,,,,,,,,,,,,,,59269aac7724de000109190f,09:05:51,27/02/2024
html-keyboard-response,21,35359,0.0-9.0-0.0,,,,,,mood_trial_fixation,NeXZwmX2ksSAQ5m3jQXn1Fh6Mf13,,,,,,,,,,,,,,,,,,,,,,,59269aac7724de000109190f,09:05:51,27/02/2024
lmdlab-html-vas-response,22,39620,0.0-9.0-1.0,3252.0,How happy are you right now?,0.6273388861508364,delaylearn,learning,mood_trial,NeXZwmX2ksSAQ5m3jQXn1Fh6Mf13,NeXZwmX2ksSAQ5m3jQXn1Fh6Mf13,,,,,,,,,,,,,,,,,,,,"['Very unhappy', 'Very happy']",,59269aac7724de000109190f,09:05:51,27/02/2024
html-keyboard-response,23,41769,0.0-10.0,,"<div style=""font-size:100px;"">+</div>",,delaylearn,learning,ITI,NeXZwmX2ksSAQ5m3jQXn1Fh6Mf13,NeXZwmX2ksSAQ5m3jQXn1Fh6Mf13,,,,,,,,,,,,,,,,,,,2146.0,,,59269aac7724de000109190f,09:05:51,27/02/2024
html-keyboard-response,24,43156,0.0-11.0-0.0,1381.300000000745,"<div style=""display: flex; flex-direction: column; align-items: center; margin-top: -40px;""><img src=""images/demo_images/pattern_1.png"" style=""width: 234px; height: 230px; margin-top: -50px;""><div style=""display: flex; justify-content: space-between; margin-top: 33px;""><img src=""images/demo_images/choice_trial_2.png"" style=""width: 408px; height: 417px; margin-right: 200px;""><img src=""images/demo_images/choice_trial_1.png"" style=""width: 408px; height: 417px;""></div></div>",j,delaylearn,learning,trial,NeXZwmX2ksSAQ5m3jQXn1Fh6Mf13,NeXZwmX2ksSAQ5m3jQXn1Fh6Mf13,3.0,images/demo_images/choice_trial_2.png,images/demo_images/choice_trial_1.png,images/demo_images/pattern_1.png,j,j,3000.0,2.0,1.0,20.0,1.0,5.0,1.0,1.0,1.0,30.0,,,,,,59269aac7724de000109190f,09:05:51,27/02/2024
html-keyboard-response,25,44158,0.0-11.0-1.0,,"<div style=""display: flex; flex-direction: column; align-items: center; margin-top: -40px;""><img src=""images/demo_images/pattern_1.png"" style=""width: 234px; height: 230px; margin-top: -50px;""><div style=""display: flex; justify-content: space-between; margin-top: 33px;""><img src=""images/demo_images/choice_trial_1.png"" style=""width: 408px; height: 417px; margin-left:608px;""></div></div>",,delaylearn,learning,display_response,NeXZwmX2ksSAQ5m3jQXn1Fh6Mf13,NeXZwmX2ksSAQ5m3jQXn1Fh6Mf13,,,,,,,,,,,,,,,,,chosen stimuli: images/demo_images/choice_trial_1.png,,,,,59269aac7724de000109190f,09:05:51,27/02/2024
html-keyboard-response,26,47160,0.0-11.0-2.0,,,,delaylearn,learning,feedback_duration_window,NeXZwmX2ksSAQ5m3jQXn1Fh6Mf13,NeXZwmX2ksSAQ5m3jQXn1Fh6Mf13,,,,,,,,,,,,,,,,,,3000.0,,,,59269aac7724de000109190f,09:05:51,27/02/2024
html-keyboard-response,27,48662,0.0-11.0-3.0,,<div style='margin:auto;width: auto; font-size: 150%'><span style='font-weight: bold; font-size: 100px; color: green;'>+10 points!</span><br><br></div>,,delaylearn,learning,feedback_image_window,NeXZwmX2ksSAQ5m3jQXn1Fh6Mf13,NeXZwmX2ksSAQ5m3jQXn1Fh6Mf13,,,,,,,,,,,,,,,,,,,,,,59269aac7724de000109190f,09:05:51,27/02/2024
html-keyboard-response,28,50733,0.0-12.0,,"<div style=""font-size:100px;"">+</div>",,delaylearn,learning,ITI,NeXZwmX2ksSAQ5m3jQXn1Fh6Mf13,NeXZwmX2ksSAQ5m3jQXn1Fh6Mf13,,,,,,,,,,,,,,,,,,,2070.0,,,59269aac7724de000109190f,09:05:51,27/02/2024
html-keyboard-response,29,52227,0.0-13.0-0.0,1490.7999999998137,"<div style=""display: flex; flex-direction: column; align-items: center; margin-top: -40px;""><img src=""images/demo_images/pattern_1.png"" style=""width: 234px; height: 230px; margin-top: -50px;""><div style=""display: flex; justify-content: space-between; margin-top: 33px;""><img src=""images/demo_images/choice_trial_1.png"" style=""width: 408px; height: 417px; margin-right: 200px;""><img src=""images/demo_images/choice_trial_2.png"" style=""width: 408px; height: 417px;""></div></div>",f,delaylearn,learning,trial,NeXZwmX2ksSAQ5m3jQXn1Fh6Mf13,NeXZwmX2ksSAQ5m3jQXn1Fh6Mf13,3.0,images/demo_images/choice_trial_1.png,images/demo_images/choice_trial_2.png,images/demo_images/pattern_1.png,f,f,3000.0,1.0,2.0,20.0,0.0,6.0,1.0,1.0,1.0,40.0,,,,,,59269aac7724de000109190f,09:05:51,27/02/2024
html-keyboard-response,30,53231,0.0-13.0-1.0,,"<div style=""display: flex; flex-direction: column; align-items: center; margin-top: -40px;""><img src=""images/demo_images/pattern_1.png"" style=""width: 234px; height: 230px; margin-top: -50px;""><div style=""display: flex; justify-content: space-between; margin-top: 33px;""><img src=""images/demo_images/choice_trial_1.png"" style=""width: 408px; height: 417px; margin-right: 608px;""></div></div>",,delaylearn,learning,display_response,NeXZwmX2ksSAQ5m3jQXn1Fh6Mf13,NeXZwmX2ksSAQ5m3jQXn1Fh6Mf13,,,,,,,,,,,,,,,,,chosen stimuli: images/demo_images/choice_trial_1.png,,,,,59269aac7724de000109190f,09:05:51,27/02/2024
html-keyboard-response,31,56232,0.0-13.0-2.0,,,,delaylearn,learning,feedback_duration_window,NeXZwmX2ksSAQ5m3jQXn1Fh6Mf13,NeXZwmX2ksSAQ5m3jQXn1Fh6Mf13,,,,,,,,,,,,,,,,,,3000.0,,,,59269aac7724de000109190f,09:05:51,27/02/2024
html-keyboard-response,32,57734,0.0-13.0-3.0,,<div style='margin:auto;width: auto; font-size: 150%'><span style='font-weight: bold; font-size: 100px; color: green;'>+10 points!</span><br><br></div>,,delaylearn,learning,feedback_image_window,NeXZwmX2ksSAQ5m3jQXn1Fh6Mf13,NeXZwmX2ksSAQ5m3jQXn1Fh6Mf13,,,,,,,,,,,,,,,,,,,,,,59269aac7724de000109190f,09:05:51,27/02/2024
html-button-response,33,60112,0.0-14.0,2375.2999999998137,"
  <div style=""display: flex; align-items: center; justify-content: center; height: 80vh;"">
  <div>
          <img src=""images/inst_demo_finish.png"" style=""width: 80vw; height:auto;"">
          <br><br>
      </div>
      <br><br>
  </div>",0,,,,NeXZwmX2ksSAQ5m3jQXn1Fh6Mf13,,,,,,,,,,,,,,,,,,,,,,,59269aac7724de000109190f,09:05:51,27/02/2024
html-keyboard-response,34,63792,0.0-15.0,3678.2000000001863,"
  <div style=""display: flex; align-items: center; justify-content: center; height: 80vh;"">
  <div>
          <img src=""images/inst_6.png"" style=""width: 80vw; height:auto;"">
          <br><br>
      </div>
      <br><br>
  </div>",j,,,,NeXZwmX2ksSAQ5m3jQXn1Fh6Mf13,,,,,,,,,,,,,,,,,,,,,,,59269aac7724de000109190f,09:05:51,27/02/2024
html-keyboard-response,35,66794,0.0-16.0,,"<div style=""font-size:100px;"">+</div>",,delaylearn,learning,pre_fixation,NeXZwmX2ksSAQ5m3jQXn1Fh6Mf13,,,,,,,,,,,,,,,,,,,,,,,59269aac7724de000109190f,09:05:51,27/02/2024
html-keyboard-response,36,68778,0.0-17.0,,"<div style=""font-size:100px;"">+</div>",,delaylearn,learning,ITI,NeXZwmX2ksSAQ5m3jQXn1Fh6Mf13,NeXZwmX2ksSAQ5m3jQXn1Fh6Mf13,,,,,,,,,,,,,,,,,,,1982.0,,,59269aac7724de000109190f,09:05:51,27/02/2024
html-keyboard-response,37,70110,0.0-18.0-0.0,1329.6000000005588,"<div style=""display: flex; flex-direction: column; align-items: center; margin-top: -40px;""><img src=""images/pattern_3.png"" style=""width: 234px; height: 230px; margin-top: -50px;""><div style=""display: flex; justify-content: space-between; margin-top: 33px;""><img src=""images/choice_trial_13.png"" style=""width: 408px; height: 417px; margin-right: 200px;""><img src=""images/choice_trial_10.png"" style=""width: 408px; height: 417px;""></div></div>",j,delaylearn,learning,trial,NeXZwmX2ksSAQ5m3jQXn1Fh6Mf13,NeXZwmX2ksSAQ5m3jQXn1Fh6Mf13,3.0,images/choice_trial_13.png,images/choice_trial_10.png,images/pattern_3.png,f,f,7000.0,13.0,10.0,2.0,0.0,7.0,0.0,0.0,10.0,40.0,,,,,,59269aac7724de000109190f,09:05:51,27/02/2024
html-keyboard-response,38,71113,0.0-18.0-1.0,,"<div style=""display: flex; flex-direction: column; align-items: center; margin-top: -40px;""><img src=""images/pattern_3.png"" style=""width: 234px; height: 230px; margin-top: -50px;""><div style=""display: flex; justify-content: space-between; margin-top: 33px;""><img src=""images/choice_trial_10.png"" style=""width: 408px; height: 417px; margin-left:608px;""></div></div>",,delaylearn,learning,display_response,NeXZwmX2ksSAQ5m3jQXn1Fh6Mf13,NeXZwmX2ksSAQ5m3jQXn1Fh6Mf13,,,,,,,,,,,,,,,,,chosen stimuli: images/choice_trial_10.png,,,,,59269aac7724de000109190f,09:05:51,27/02/2024
html-keyboard-response,39,78114,0.0-18.0-2.0,,,,delaylearn,learning,feedback_duration_window,NeXZwmX2ksSAQ5m3jQXn1Fh6Mf13,NeXZwmX2ksSAQ5m3jQXn1Fh6Mf13,,,,,,,,,,,,,,,,,,7000.0,,,,59269aac7724de000109190f,09:05:51,27/02/2024
html-keyboard-response,40,79616,0.0-18.0-3.0,,<div style='margin:auto;width: auto; font-size: 150%'><span style='font-weight: bold; font-size: 100px; color: red;'>0 points!</span><br><br></div>,,delaylearn,learning,feedback_image_window,NeXZwmX2ksSAQ5m3jQXn1Fh6Mf13,NeXZwmX2ksSAQ5m3jQXn1Fh6Mf13,,,,,,,,,,,,,,,,,,,,,,59269aac7724de000109190f,09:05:51,27/02/2024
html-keyboard-response,41,81823,0.0-19.0,,"<div style=""font-size:100px;"">+</div>",,delaylearn,learning,ITI,NeXZwmX2ksSAQ5m3jQXn1Fh6Mf13,NeXZwmX2ksSAQ5m3jQXn1Fh6Mf13,,,,,,,,,,,,,,,,,,,2205.0,,,59269aac7724de000109190f,09:05:51,27/02/2024
html-keyboard-response,42,83281,0.0-20.0-0.0,1454.7999999998137,"<div style=""display: flex; flex-direction: column; align-items: center; margin-top: -40px;""><img src=""images/pattern_7.png"" style=""width: 234px; height: 230px; margin-top: -50px;""><div style=""display: flex; justify-content: space-between; margin-top: 33px;""><img src=""images/choice_trial_12.png"" style=""width: 408px; height: 417px; margin-right: 200px;""><img src=""images/choice_trial_6.png"" style=""width: 408px; height: 417px;""></div></div>",j,delaylearn,learning,trial,NeXZwmX2ksSAQ5m3jQXn1Fh6Mf13,NeXZwmX2ksSAQ5m3jQXn1Fh6Mf13,3.0,images/choice_trial_12.png,images/choice_trial_6.png,images/pattern_7.png,j,j,750.0,12.0,6.0,6.0,1.0,8.0,1.0,1.0,6.0,50.0,,,,,,59269aac7724de000109190f,09:05:51,27/02/2024
html-keyboard-response,43,84283,0.0-20.0-1.0,,"<div style=""display: flex; flex-direction: column; align-items: center; margin-top: -40px;""><img src=""images/pattern_7.png"" style=""width: 234px; height: 230px; margin-top: -50px;""><div style=""display: flex; justify-content: space-between; margin-top: 33px;""><img src=""images/choice_trial_6.png"" style=""width: 408px; height: 417px; margin-left:608px;""></div></div>",,delaylearn,learning,display_response,NeXZwmX2ksSAQ5m3jQXn1Fh6Mf13,NeXZwmX2ksSAQ5m3jQXn1Fh6Mf13,,,,,,,,,,,,,,,,,chosen stimuli: images/choice_trial_6.png,,,,,59269aac7724de000109190f,09:05:51,27/02/2024
html-keyboard-response,44,85034,0.0-20.0-2.0,,,,delaylearn,learning,feedback_duration_window,NeXZwmX2ksSAQ5m3jQXn1Fh6Mf13,NeXZwmX2ksSAQ5m3jQXn1Fh6Mf13,,,,,,,,,,,,,,,,,,750.0,,,,59269aac7724de000109190f,09:05:51,27/02/2024
html-keyboard-response,45,86535,0.0-20.0-3.0,,<div style='margin:auto;width: auto; font-size: 150%'><span style='font-weight: bold; font-size: 100px; color: green;'>+10 points!</span><br><br></div>,,delaylearn,learning,feedback_image_window,NeXZwmX2ksSAQ5m3jQXn1Fh6Mf13,NeXZwmX2ksSAQ5m3jQXn1Fh6Mf13,,,,,,,,,,,,,,,,,,,,,,59269aac7724de000109190f,09:05:51,27/02/2024
html-keyboard-response,46,88464,0.0-21.0,,"<div style=""font-size:100px;"">+</div>",,delaylearn,learning,ITI,NeXZwmX2ksSAQ5m3jQXn1Fh6Mf13,NeXZwmX2ksSAQ5m3jQXn1Fh6Mf13,,,,,,,,,,,,,,,,,,,1927.0,,,59269aac7724de000109190f,09:05:51,27/02/2024
html-keyboard-response,47,90272,0.0-22.0-0.0,1806.2999999998137,"<div style=""display: flex; flex-direction: column; align-items: center; margin-top: -40px;""><img src=""images/pattern_4.png"" style=""width: 234px; height: 230px; margin-top: -50px;""><div style=""display: flex; justify-content: space-between; margin-top: 33px;""><img src=""images/choice_trial_15.png"" style=""width: 408px; height: 417px; margin-right: 200px;""><img src=""images/choice_trial_9.png"" style=""width: 408px; height: 417px;""></div></div>",f,delaylearn,learning,trial,NeXZwmX2ksSAQ5m3jQXn1Fh6Mf13,NeXZwmX2ksSAQ5m3jQXn1Fh6Mf13,3.0,images/choice_trial_15.png,images/choice_trial_9.png,images/pattern_4.png,f,f,7000.0,15.0,9.0,3.0,0.0,9.0,1.0,1.0,15.0,60.0,,,,,,59269aac7724de000109190f,09:05:51,27/02/2024
html-keyboard-response,48,91274,0.0-22.0-1.0,,"<div style=""display: flex; flex-direction: column; align-items: center; margin-top: -40px;""><img src=""images/pattern_4.png"" style=""width: 234px; height: 230px; margin-top: -50px;""><div style=""display: flex; justify-content: space-between; margin-top: 33px;""><img src=""images/choice_trial_15.png"" style=""width: 408px; height: 417px; margin-right: 608px;""></div></div>",,delaylearn,learning,display_response,NeXZwmX2ksSAQ5m3jQXn1Fh6Mf13,NeXZwmX2ksSAQ5m3jQXn1Fh6Mf13,,,,,,,,,,,,,,,,,chosen stimuli: images/choice_trial_15.png,,,,,59269aac7724de000109190f,09:05:51,27/02/2024
html-keyboard-response,49,98275,0.0-22.0-2.0,,,,delaylearn,learning,feedback_duration_window,NeXZwmX2ksSAQ5m3jQXn1Fh6Mf13,NeXZwmX2ksSAQ5m3jQXn1Fh6Mf13,,,,,,,,,,,,,,,,,,7000.0,,,,59269aac7724de000109190f,09:05:51,27/02/2024
html-keyboard-response,50,99777,0.0-22.0-3.0,,<div style='margin:auto;width: auto; font-size: 150%'><span style='font-weight: bold; font-size: 100px; color: green;'>+10 points!</span><br><br></div>,,delaylearn,learning,feedback_image_window,NeXZwmX2ksSAQ5m3jQXn1Fh6Mf13,NeXZwmX2ksSAQ5m3jQXn1Fh6Mf13,,,,,,,,,,,,,,,,,,,,,,59269aac7724de000109190f,09:05:51,27/02/2024
html-keyboard-response,51,101604,0.0-23.0,,"<div style=""font-size:100px;"">+</div>",,delaylearn,learning,ITI,NeXZwmX2ksSAQ5m3jQXn1Fh6Mf13,NeXZwmX2ksSAQ5m3jQXn1Fh6Mf13,,,,,,,,,,,,,,,,,,,1825.0,,,59269aac7724de000109190f,09:05:51,27/02/2024
html-keyboard-response,52,103897,0.0-24.0-0.0,2290.0,"<div style=""display: flex; flex-direction: column; align-items: center; margin-top: -40px;""><img src=""images/pattern_5.png"" style=""width: 234px; height: 230px; margin-top: -50px;""><div style=""display: flex; justify-content: space-between; margin-top: 33px;""><img src=""images/choice_trial_2.png"" style=""width: 408px; height: 417px; margin-right: 200px;""><img src=""images/choice_trial_11.png"" style=""width: 408px; height: 417px;""></div></div>",f,delaylearn,learning,trial,NeXZwmX2ksSAQ5m3jQXn1Fh6Mf13,NeXZwmX2ksSAQ5m3jQXn1Fh6Mf13,3.0,images/choice_trial_2.png,images/choice_trial_11.png,images/pattern_5.png,j,j,750.0,2.0,11.0,4.0,1.0,10.0,0.0,0.0,2.0,60.0,,,,,,59269aac7724de000109190f,09:05:51,27/02/2024
html-keyboard-response,53,104898,0.0-24.0-1.0,,"<div style=""display: flex; flex-direction: column; align-items: center; margin-top: -40px;""><img src=""images/pattern_5.png"" style=""width: 234px; height: 230px; margin-top: -50px;""><div style=""display: flex; justify-content: space-between; margin-top: 33px;""><img src=""images/choice_trial_2.png"" style=""width: 408px; height: 417px; margin-right: 608px;""></div></div>",,delaylearn,learning,display_response,NeXZwmX2ksSAQ5m3jQXn1Fh6Mf13,NeXZwmX2ksSAQ5m3jQXn1Fh6Mf13,,,,,,,,,,,,,,,,,chosen stimuli: images/choice_trial_2.png,,,,,59269aac7724de000109190f,09:05:51,27/02/2024
html-keyboard-response,54,105650,0.0-24.0-2.0,,,,delaylearn,learning,feedback_duration_window,NeXZwmX2ksSAQ5m3jQXn1Fh6Mf13,NeXZwmX2ksSAQ5m3jQXn1Fh6Mf13,,,,,,,,,,,,,,,,,,750.0,,,,59269aac7724de000109190f,09:05:51,27/02/2024
html-keyboard-response,55,107153,0.0-24.0-3.0,,<div style='margin:auto;width: auto; font-size: 150%'><span style='font-weight: bold; font-size: 100px; color: red;'>0 points!</span><br><br></div>,,delaylearn,learning,feedback_image_window,NeXZwmX2ksSAQ5m3jQXn1Fh6Mf13,NeXZwmX2ksSAQ5m3jQXn1Fh6Mf13,,,,,,,,,,,,,,,,,,,,,,59269aac7724de000109190f,09:05:51,27/02/2024
html-keyboard-response,56,109168,0.0-25.0,,"<div style=""font-size:100px;"">+</div>",,delaylearn,learning,ITI,NeXZwmX2ksSAQ5m3jQXn1Fh6Mf13,NeXZwmX2ksSAQ5m3jQXn1Fh6Mf13,,,,,,,,,,,,,,,,,,,2014.0,,,59269aac7724de000109190f,09:05:51,27/02/2024
html-keyboard-response,57,111007,0.0-26.0-0.0,1836.2999999998137,"<div style=""display: flex; flex-direction: column; align-items: center; margin-top: -40px;""><img src=""images/pattern_6.png"" style=""width: 234px; height: 230px; margin-top: -50px;""><div style=""display: flex; justify-content: space-between; margin-top: 33px;""><img src=""images/choice_trial_16.png"" style=""width: 408px; height: 417px; margin-right: 200px;""><img src=""images/choice_trial_3.png"" style=""width: 408px; height: 417px;""></div></div>",j,delaylearn,learning,trial,NeXZwmX2ksSAQ5m3jQXn1Fh6Mf13,NeXZwmX2ksSAQ5m3jQXn1Fh6Mf13,3.0,images/choice_trial_16.png,images/choice_trial_3.png,images/pattern_6.png,j,f,750.0,16.0,3.0,5.0,0.0,11.0,0.0,1.0,3.0,70.0,,,,,,59269aac7724de000109190f,09:05:51,27/02/2024
html-keyboard-response,58,112011,0.0-26.0-1.0,,"<div style=""display: flex; flex-direction: column; align-items: center; margin-top: -40px;""><img src=""images/pattern_6.png"" style=""width: 234px; height: 230px; margin-top: -50px;""><div style=""display: flex; justify-content: space-between; margin-top: 33px;""><img src=""images/choice_trial_3.png"" style=""width: 408px; height: 417px; margin-left:608px;""></div></div>",,delaylearn,learning,display_response,NeXZwmX2ksSAQ5m3jQXn1Fh6Mf13,NeXZwmX2ksSAQ5m3jQXn1Fh6Mf13,,,,,,,,,,,,,,,,,chosen stimuli: images/choice_trial_3.png,,,,,59269aac7724de000109190f,09:05:51,27/02/2024
html-keyboard-response,59,112762,0.0-26.0-2.0,,,,delaylearn,learning,feedback_duration_window,NeXZwmX2ksSAQ5m3jQXn1Fh6Mf13,NeXZwmX2ksSAQ5m3jQXn1Fh6Mf13,,,,,,,,,,,,,,,,,,750.0,,,,59269aac7724de000109190f,09:05:51,27/02/2024
html-keyboard-response,60,114265,0.0-26.0-3.0,,<div style='margin:auto;width: auto; font-size: 150%'><span style='font-weight: bold; font-size: 100px; color: green;'>+10 points!</span><br><br></div>,,delaylearn,learning,feedback_image_window,NeXZwmX2ksSAQ5m3jQXn1Fh6Mf13,NeXZwmX2ksSAQ5m3jQXn1Fh6Mf13,,,,,,,,,,,,,,,,,,,,,,59269aac7724de000109190f,09:05:51,27/02/2024
html-keyboard-response,61,114766,0.0-27.0-0.0,,,,,,mood_trial_fixation,NeXZwmX2ksSAQ5m3jQXn1Fh6Mf13,,,,,,,,,,,,,,,,,,,,,,,59269aac7724de000109190f,09:05:51,27/02/2024
lmdlab-html-vas-response,62,119118,0.0-27.0-1.0,3347.0,How happy are you right now?,0.6987123395796251,delaylearn,learning,mood_trial,NeXZwmX2ksSAQ5m3jQXn1Fh6Mf13,NeXZwmX2ksSAQ5m3jQXn1Fh6Mf13,,,,,,,,,,,,,,,,,,,,"['Very unhappy', 'Very happy']",,59269aac7724de000109190f,09:05:51,27/02/2024
html-keyboard-response,63,121324,0.0-28.0,,"<div style=""font-size:100px;"">+</div>",,delaylearn,learning,ITI,NeXZwmX2ksSAQ5m3jQXn1Fh6Mf13,NeXZwmX2ksSAQ5m3jQXn1Fh6Mf13,,,,,,,,,,,,,,,,,,,2205.0,,,59269aac7724de000109190f,09:05:51,27/02/2024
html-keyboard-response,64,122915,0.0-29.0-0.0,1587.300000000745,"<div style=""display: flex; flex-direction: column; align-items: center; margin-top: -40px;""><img src=""images/pattern_1.png"" style=""width: 234px; height: 230px; margin-top: -50px;""><div style=""display: flex; justify-content: space-between; margin-top: 33px;""><img src=""images/choice_trial_8.png"" style=""width: 408px; height: 417px; margin-right: 200px;""><img src=""images/choice_trial_14.png"" style=""width: 408px; height: 417px;""></div></div>",j,delaylearn,learning,trial,NeXZwmX2ksSAQ5m3jQXn1Fh6Mf13,NeXZwmX2ksSAQ5m3jQXn1Fh6Mf13,3.0,images/choice_trial_8.png,images/choice_trial_14.png,images/pattern_1.png,j,j,7000.0,8.0,14.0,1.0,1.0,12.0,1.0,1.0,14.0,80.0,,,,,,59269aac7724de000109190f,09:05:51,27/02/2024
html-keyboard-response,65,123917,0.0-29.0-1.0,,"<div style=""display: flex; flex-direction: column; align-items: center; margin-top: -40px;""><img src=""images/pattern_1.png"" style=""width: 234px; height: 230px; margin-top: -50px;""><div style=""display: flex; justify-content: space-between; margin-top: 33px;""><img src=""images/choice_trial_14.png"" style=""width: 408px; height: 417px; margin-left:608px;""></div></div>",,delaylearn,learning,display_response,NeXZwmX2ksSAQ5m3jQXn1Fh6Mf13,NeXZwmX2ksSAQ5m3jQXn1Fh6Mf13,,,,,,,,,,,,,,,,,chosen stimuli: images/choice_trial_14.png,,,,,59269aac7724de000109190f,09:05:51,27/02/2024
html-keyboard-response,66,130918,0.0-29.0-2.0,,,,delaylearn,learning,feedback_duration_window,NeXZwmX2ksSAQ5m3jQXn1Fh6Mf13,NeXZwmX2ksSAQ5m3jQXn1Fh6Mf13,,,,,,,,,,,,,,,,,,7000.0,,,,59269aac7724de000109190f,09:05:51,27/02/2024
html-keyboard-response,67,132420,0.0-29.0-3.0,,<div style='margin:auto;width: auto; font-size: 150%'><span style='font-weight: bold; font-size: 100px; color: green;'>+10 points!</span><br><br></div>,,delaylearn,learning,feedback_image_window,NeXZwmX2ksSAQ5m3jQXn1Fh6Mf13,NeXZwmX2ksSAQ5m3jQXn1Fh6Mf13,,,,,,,,,,,,,,,,,,,,,,59269aac7724de000109190f,09:05:51,27/02/2024
html-keyboard-response,68,134452,0.0-30.0,,"<div style=""font-size:100px;"">+</div>",,delaylearn,learning,ITI,NeXZwmX2ksSAQ5m3jQXn1Fh6Mf13,NeXZwmX2ksSAQ5m3jQXn1Fh6Mf13,,,,,,,,,,,,,,,,,,,2030.0,,,59269aac7724de000109190f,09:05:51,27/02/2024
html-keyboard-response,69,136289,0.0-31.0-0.0,1831.9000000003725,"<div style=""display: flex; flex-direction: column; align-items: center; margin-top: -40px;""><img src=""images/pattern_3.png"" style=""width: 234px; height: 230px; margin-top: -50px;""><div style=""display: flex; justify-content: space-between; margin-top: 33px;""><img src=""images/choice_trial_10.png"" style=""width: 408px; height: 417px; margin-right: 200px;""><img src=""images/choice_trial_13.png"" style=""width: 408px; height: 417px;""></div></div>",j,delaylearn,learning,trial,NeXZwmX2ksSAQ5m3jQXn1Fh6Mf13,NeXZwmX2ksSAQ5m3jQXn1Fh6Mf13,3.0,images/choice_trial_10.png,images/choice_trial_13.png,images/pattern_3.png,f,j,7000.0,10.0,13.0,2.0,1.0,13.0,1.0,0.0,13.0,80.0,,,,,,59269aac7724de000109190f,09:05:51,27/02/2024
html-keyboard-response,70,137291,0.0-31.0-1.0,,"<div style=""display: flex; flex-direction: column; align-items: center; margin-top: -40px;""><img src=""images/pattern_3.png"" style=""width: 234px; height: 230px; margin-top: -50px;""><div style=""display: flex; justify-content: space-between; margin-top: 33px;""><img src=""images/choice_trial_13.png"" style=""width: 408px; height: 417px; margin-left:608px;""></div></div>",,delaylearn,learning,display_response,NeXZwmX2ksSAQ5m3jQXn1Fh6Mf13,NeXZwmX2ksSAQ5m3jQXn1Fh6Mf13,,,,,,,,,,,,,,,,,chosen stimuli: images/choice_trial_13.png,,,,,59269aac7724de000109190f,09:05:51,27/02/2024
html-keyboard-response,71,144292,0.0-31.0-2.0,,,,delaylearn,learning,feedback_duration_window,NeXZwmX2ksSAQ5m3jQXn1Fh6Mf13,NeXZwmX2ksSAQ5m3jQXn1Fh6Mf13,,,,,,,,,,,,,,,,,,7000.0,,,,59269aac7724de000109190f,09:05:51,27/02/2024
html-keyboard-response,72,145794,0.0-31.0-3.0,,<div style='margin:auto;width: auto; font-size: 150%'><span style='font-weight: bold; font-size: 100px; color: red;'>0 points!</span><br><br></div>,,delaylearn,learning,feedback_image_window,NeXZwmX2ksSAQ5m3jQXn1Fh6Mf13,NeXZwmX2ksSAQ5m3jQXn1Fh6Mf13,,,,,,,,,,,,,,,,,,,,,,59269aac7724de000109190f,09:05:51,27/02/2024
html-keyboard-response,73,147644,0.0-32.0,,"<div style=""font-size:100px;"">+</div>",,delaylearn,learning,ITI,NeXZwmX2ksSAQ5m3jQXn1Fh6Mf13,NeXZwmX2ksSAQ5m3jQXn1Fh6Mf13,,,,,,,,,,,,,,,,,,,1849.0,,,59269aac7724de000109190f,09:05:51,27/02/2024
html-keyboard-response,74,149754,0.0-33.0-0.0,2105.7000000001863,"<div style=""display: flex; flex-direction: column; align-items: center; margin-top: -40px;""><img src=""images/pattern_5.png"" style=""width: 234px; height: 230px; margin-top: -50px;""><div style=""display: flex; justify-content: space-between; margin-top: 33px;""><img src=""images/choice_trial_11.png"" style=""width: 408px; height: 417px; margin-right: 200px;""><img src=""images/choice_trial_2.png"" style=""width: 408px; height: 417px;""></div></div>",j,delaylearn,learning,trial,NeXZwmX2ksSAQ5m3jQXn1Fh6Mf13,NeXZwmX2ksSAQ5m3jQXn1Fh6Mf13,3.0,images/choice_trial_11.png,images/choice_trial_2.png,images/pattern_5.png,f,f,750.0,11.0,2.0,4.0,0.0,14.0,0.0,0.0,2.0,80.0,,,,,,59269aac7724de000109190f,09:05:51,27/02/2024
html-keyboard-response,75,150756,0.0-33.0-1.0,,"<div style=""display: flex; flex-direction: column; align-items: center; margin-top: -40px;""><img src=""images/pattern_5.png"" style=""width: 234px; height: 230px; margin-top: -50px;""><div style=""display: flex; justify-content: space-between; margin-top: 33px;""><img src=""images/choice_trial_2.png"" style=""width: 408px; height: 417px; margin-left:608px;""></div></div>",,delaylearn,learning,display_response,NeXZwmX2ksSAQ5m3jQXn1Fh6Mf13,NeXZwmX2ksSAQ5m3jQXn1Fh6Mf13,,,,,,,,,,,,,,,,,chosen stimuli: images/choice_trial_2.png,,,,,59269aac7724de000109190f,09:05:51,27/02/2024
html-keyboard-response,76,151508,0.0-33.0-2.0,,,,delaylearn,learning,feedback_duration_window,NeXZwmX2ksSAQ5m3jQXn1Fh6Mf13,NeXZwmX2ksSAQ5m3jQXn1Fh6Mf13,,,,,,,,,,,,,,,,,,750.0,,,,59269aac7724de000109190f,09:05:51,27/02/2024
html-keyboard-response,77,153010,0.0-33.0-3.0,,<div style='margin:auto;width: auto; font-size: 150%'><span style='font-weight: bold; font-size: 100px; color: red;'>0 points!</span><br><br></div>,,delaylearn,learning,feedback_image_window,NeXZwmX2ksSAQ5m3jQXn1Fh6Mf13,NeXZwmX2ksSAQ5m3jQXn1Fh6Mf13,,,,,,,,,,,,,,,,,,,,,,59269aac7724de000109190f,09:05:51,27/02/2024
html-keyboard-response,78,153511,0.0-34.0-0.0,,,,,,mood_trial_fixation,NeXZwmX2ksSAQ5m3jQXn1Fh6Mf13,,,,,,,,,,,,,,,,,,,,,,,59269aac7724de000109190f,09:05:51,27/02/2024
lmdlab-html-vas-response,79,157044,0.0-34.0-1.0,2528.0,How happy are you right now?,0.6389129596798292,delaylearn,learning,mood_trial,NeXZwmX2ksSAQ5m3jQXn1Fh6Mf13,NeXZwmX2ksSAQ5m3jQXn1Fh6Mf13,,,,,,,,,,,,,,,,,,,,"['Very unhappy', 'Very happy']",,59269aac7724de000109190f,09:05:51,27/02/2024
html-keyboard-response,80,159314,0.0-35.0,,"<div style=""font-size:100px;"">+</div>",,delaylearn,learning,ITI,NeXZwmX2ksSAQ5m3jQXn1Fh6Mf13,NeXZwmX2ksSAQ5m3jQXn1Fh6Mf13,,,,,,,,,,,,,,,,,,,2268.0,,,59269aac7724de000109190f,09:05:51,27/02/2024
html-keyboard-response,81,160840,0.0-36.0-0.0,1520.5,"<div style=""display: flex; flex-direction: column; align-items: center; margin-top: -40px;""><img src=""images/pattern_6.png"" style=""width: 234px; height: 230px; margin-top: -50px;""><div style=""display: flex; justify-content: space-between; margin-top: 33px;""><img src=""images/choice_trial_16.png"" style=""width: 408px; height: 417px; margin-right: 200px;""><img src=""images/choice_trial_3.png"" style=""width: 408px; height: 417px;""></div></div>",f,delaylearn,learning,trial,NeXZwmX2ksSAQ5m3jQXn1Fh6Mf13,NeXZwmX2ksSAQ5m3jQXn1Fh6Mf13,3.0,images/choice_trial_16.png,images/choice_trial_3.png,images/pattern_6.png,f,f,750.0,16.0,3.0,5.0,0.0,15.0,1.0,1.0,16.0,90.0,,,,,,59269aac7724de000109190f,09:05:51,27/02/2024
html-keyboard-response,82,161843,0.0-36.0-1.0,,"<div style=""display: flex; flex-direction: column; align-items: center; margin-top: -40px;""><img src=""images/pattern_6.png"" style=""width: 234px; height: 230px; margin-top: -50px;""><div style=""display: flex; justify-content: space-between; margin-top: 33px;""><img src=""images/choice_trial_16.png"" style=""width: 408px; height: 417px; margin-right: 608px;""></div></div>",,delaylearn,learning,display_response,NeXZwmX2ksSAQ5m3jQXn1Fh6Mf13,NeXZwmX2ksSAQ5m3jQXn1Fh6Mf13,,,,,,,,,,,,,,,,,chosen stimuli: images/choice_trial_16.png,,,,,59269aac7724de000109190f,09:05:51,27/02/2024
html-keyboard-response,83,162596,0.0-36.0-2.0,,,,delaylearn,learning,feedback_duration_window,NeXZwmX2ksSAQ5m3jQXn1Fh6Mf13,NeXZwmX2ksSAQ5m3jQXn1Fh6Mf13,,,,,,,,,,,,,,,,,,750.0,,,,59269aac7724de000109190f,09:05:51,27/02/2024
html-keyboard-response,84,164098,0.0-36.0-3.0,,<div style='margin:auto;width: auto; font-size: 150%'><span style='font-weight: bold; font-size: 100px; color: green;'>+10 points!</span><br><br></div>,,delaylearn,learning,feedback_image_window,NeXZwmX2ksSAQ5m3jQXn1Fh6Mf13,NeXZwmX2ksSAQ5m3jQXn1Fh6Mf13,,,,,,,,,,,,,,,,,,,,,,59269aac7724de000109190f,09:05:51,27/02/2024
html-keyboard-response,85,166576,0.0-37.0,,"<div style=""font-size:100px;"">+</div>",,delaylearn,learning,ITI,NeXZwmX2ksSAQ5m3jQXn1Fh6Mf13,NeXZwmX2ksSAQ5m3jQXn1Fh6Mf13,,,,,,,,,,,,,,,,,,,2476.0,,,59269aac7724de000109190f,09:05:51,27/02/2024
html-keyboard-response,86,167765,0.0-38.0-0.0,1186.6000000005588,"<div style=""display: flex; flex-direction: column; align-items: center; margin-top: -40px;""><img src=""images/pattern_4.png"" style=""width: 234px; height: 230px; margin-top: -50px;""><div style=""display: flex; justify-content: space-between; margin-top: 33px;""><img src=""images/choice_trial_9.png"" style=""width: 408px; height: 417px; margin-right: 200px;""><img src=""images/choice_trial_15.png"" style=""width: 408px; height: 417px;""></div></div>",j,delaylearn,learning,trial,NeXZwmX2ksSAQ5m3jQXn1Fh6Mf13,NeXZwmX2ksSAQ5m3jQXn1Fh6Mf13,3.0,images/choice_trial_9.png,images/choice_trial_15.png,images/pattern_4.png,j,j,7000.0,9.0,15.0,3.0,1.0,16.0,1.0,1.0,15.0,100.0,,,,,,59269aac7724de000109190f,09:05:51,27/02/2024
html-keyboard-response,87,168770,0.0-38.0-1.0,,"<div style=""display: flex; flex-direction: column; align-items: center; margin-top: -40px;""><img src=""images/pattern_4.png"" style=""width: 234px; height: 230px; margin-top: -50px;""><div style=""display: flex; justify-content: space-between; margin-top: 33px;""><img src=""images/choice_trial_15.png"" style=""width: 408px; height: 417px; margin-left:608px;""></div></div>",,delaylearn,learning,display_response,NeXZwmX2ksSAQ5m3jQXn1Fh6Mf13,NeXZwmX2ksSAQ5m3jQXn1Fh6Mf13,,,,,,,,,,,,,,,,,chosen stimuli: images/choice_trial_15.png,,,,,59269aac7724de000109190f,09:05:51,27/02/2024
html-keyboard-response,88,175772,0.0-38.0-2.0,,,,delaylearn,learning,feedback_duration_window,NeXZwmX2ksSAQ5m3jQXn1Fh6Mf13,NeXZwmX2ksSAQ5m3jQXn1Fh6Mf13,,,,,,,,,,,,,,,,,,7000.0,,,,59269aac7724de000109190f,09:05:51,27/02/2024
html-keyboard-response,89,177274,0.0-38.0-3.0,,<div style='margin:auto;width: auto; font-size: 150%'><span style='font-weight: bold; font-size: 100px; color: green;'>+10 points!</span><br><br></div>,,delaylearn,learning,feedback_image_window,NeXZwmX2ksSAQ5m3jQXn1Fh6Mf13,NeXZwmX2ksSAQ5m3jQXn1Fh6Mf13,,,,,,,,,,,,,,,,,,,,,,59269aac7724de000109190f,09:05:51,27/02/2024
html-keyboard-response,90,179197,0.0-39.0,,"<div style=""font-size:100px;"">+</div>",,delaylearn,learning,ITI,NeXZwmX2ksSAQ5m3jQXn1Fh6Mf13,NeXZwmX2ksSAQ5m3jQXn1Fh6Mf13,,,,,,,,,,,,,,,,,,,1921.0,,,59269aac7724de000109190f,09:05:51,27/02/2024
html-keyboard-response,91,181230,0.0-40.0-0.0,2027.199999999255,"<div style=""display: flex; flex-direction: column; align-items: center; margin-top: -40px;""><img src=""images/pattern_7.png"" style=""width: 234px; height: 230px; margin-top: -50px;""><div style=""display: flex; justify-content: space-between; margin-top: 33px;""><img src=""images/choice_trial_6.png"" style=""width: 408px; height: 417px; margin-right: 200px;""><img src=""images/choice_trial_12.png"" style=""width: 408px; height: 417px;""></div></div>",f,delaylearn,learning,trial,NeXZwmX2ksSAQ5m3jQXn1Fh6Mf13,NeXZwmX2ksSAQ5m3jQXn1Fh6Mf13,3.0,images/choice_trial_6.png,images/choice_trial_12.png,images/pattern_7.png,j,f,750.0,6.0,12.0,6.0,0.0,17.0,1.0,0.0,6.0,100.0,,,,,,59269aac7724de000109190f,09:05:51,27/02/2024
html-keyboard-response,92,182235,0.0-40.0-1.0,,"<div style=""display: flex; flex-direction: column; align-items: center; margin-top: -40px;""><img src=""images/pattern_7.png"" style=""width: 234px; height: 230px; margin-top: -50px;""><div style=""display: flex; justify-content: space-between; margin-top: 33px;""><img src=""images/choice_trial_6.png"" style=""width: 408px; height: 417px; margin-right: 608px;""></div></div>",,delaylearn,learning,display_response,NeXZwmX2ksSAQ5m3jQXn1Fh6Mf13,NeXZwmX2ksSAQ5m3jQXn1Fh6Mf13,,,,,,,,,,,,,,,,,chosen stimuli: images/choice_trial_6.png,,,,,59269aac7724de000109190f,09:05:51,27/02/2024
html-keyboard-response,93,182987,0.0-40.0-2.0,,,,delaylearn,learning,feedback_duration_window,NeXZwmX2ksSAQ5m3jQXn1Fh6Mf13,NeXZwmX2ksSAQ5m3jQXn1Fh6Mf13,,,,,,,,,,,,,,,,,,750.0,,,,59269aac7724de000109190f,09:05:51,27/02/2024
html-keyboard-response,94,184490,0.0-40.0-3.0,,<div style='margin:auto;width: auto; font-size: 150%'><span style='font-weight: bold; font-size: 100px; color: red;'>0 points!</span><br><br></div>,,delaylearn,learning,feedback_image_window,NeXZwmX2ksSAQ5m3jQXn1Fh6Mf13,NeXZwmX2ksSAQ5m3jQXn1Fh6Mf13,,,,,,,,,,,,,,,,,,,,,,59269aac7724de000109190f,09:05:51,27/02/2024
html-keyboard-response,95,186380,0.0-41.0,,"<div style=""font-size:100px;"">+</div>",,delaylearn,learning,ITI,NeXZwmX2ksSAQ5m3jQXn1Fh6Mf13,NeXZwmX2ksSAQ5m3jQXn1Fh6Mf13,,,,,,,,,,,,,,,,,,,1888.0,,,59269aac7724de000109190f,09:05:51,27/02/2024
html-keyboard-response,96,188168,0.0-42.0-0.0,1781.5999999996275,"<div style=""display: flex; flex-direction: column; align-items: center; margin-top: -40px;""><img src=""images/pattern_1.png"" style=""width: 234px; height: 230px; margin-top: -50px;""><div style=""display: flex; justify-content: space-between; margin-top: 33px;""><img src=""images/choice_trial_14.png"" style=""width: 408px; height: 417px; margin-right: 200px;""><img src=""images/choice_trial_8.png"" style=""width: 408px; height: 417px;""></div></div>",f,delaylearn,learning,trial,NeXZwmX2ksSAQ5m3jQXn1Fh6Mf13,NeXZwmX2ksSAQ5m3jQXn1Fh6Mf13,3.0,images/choice_trial_14.png,images/choice_trial_8.png,images/pattern_1.png,f,f,7000.0,14.0,8.0,1.0,0.0,18.0,1.0,1.0,14.0,110.0,,,,,,59269aac7724de000109190f,09:05:51,27/02/2024
html-keyboard-response,97,189173,0.0-42.0-1.0,,"<div style=""display: flex; flex-direction: column; align-items: center; margin-top: -40px;""><img src=""images/pattern_1.png"" style=""width: 234px; height: 230px; margin-top: -50px;""><div style=""display: flex; justify-content: space-between; margin-top: 33px;""><img src=""images/choice_trial_14.png"" style=""width: 408px; height: 417px; margin-right: 608px;""></div></div>",,delaylearn,learning,display_response,NeXZwmX2ksSAQ5m3jQXn1Fh6Mf13,NeXZwmX2ksSAQ5m3jQXn1Fh6Mf13,,,,,,,,,,,,,,,,,chosen stimuli: images/choice_trial_14.png,,,,,59269aac7724de000109190f,09:05:51,27/02/2024
html-keyboard-response,98,196175,0.0-42.0-2.0,,,,delaylearn,learning,feedback_duration_window,NeXZwmX2ksSAQ5m3jQXn1Fh6Mf13,NeXZwmX2ksSAQ5m3jQXn1Fh6Mf13,,,,,,,,,,,,,,,,,,7000.0,,,,59269aac7724de000109190f,09:05:51,27/02/2024
html-keyboard-response,99,197679,0.0-42.0-3.0,,<div style='margin:auto;width: auto; font-size: 150%'><span style='font-weight: bold; font-size: 100px; color: green;'>+10 points!</span><br><br></div>,,delaylearn,learning,feedback_image_window,NeXZwmX2ksSAQ5m3jQXn1Fh6Mf13,NeXZwmX2ksSAQ5m3jQXn1Fh6Mf13,,,,,,,,,,,,,,,,,,,,,,59269aac7724de000109190f,09:05:51,27/02/2024
html-keyboard-response,100,199640,0.0-43.0,,"<div style=""font-size:100px;"">+</div>",,delaylearn,learning,ITI,NeXZwmX2ksSAQ5m3jQXn1Fh6Mf13,NeXZwmX2ksSAQ5m3jQXn1Fh6Mf13,,,,,,,,,,,,,,,,,,,1959.0,,,59269aac7724de000109190f,09:05:51,27/02/2024
html-keyboard-response,101,201492,0.0-44.0-0.0,1846.7999999998137,"<div style=""display: flex; flex-direction: column; align-items: center; margin-top: -40px;""><img src=""images/pattern_6.png"" style=""width: 234px; height: 230px; margin-top: -50px;""><div style=""display: flex; justify-content: space-between; margin-top: 33px;""><img src=""images/choice_trial_3.png"" style=""width: 408px; height: 417px; margin-right: 200px;""><img src=""images/choice_trial_16.png"" style=""width: 408px; height: 417px;""></div></div>",f,delaylearn,learning,trial,NeXZwmX2ksSAQ5m3jQXn1Fh6Mf13,NeXZwmX2ksSAQ5m3jQXn1Fh6Mf13,3.0,images/choice_trial_3.png,images/choice_trial_16.png,images/pattern_6.png,j,j,750.0,3.0,16.0,5.0,1.0,19.0,0.0,0.0,3.0,110.0,,,,,,59269aac7724de000109190f,09:05:51,27/02/2024
html-keyboard-response,102,202497,0.0-44.0-1.0,,"<div style=""display: flex; flex-direction: column; align-items: center; margin-top: -40px;""><img src=""images/pattern_6.png"" style=""width: 234px; height: 230px; margin-top: -50px;""><div style=""display: flex; justify-content: space-between; margin-top: 33px;""><img src=""images/choice_trial_3.png"" style=""width: 408px; height: 417px; margin-right: 608px;""></div></div>",,delaylearn,learning,display_response,NeXZwmX2ksSAQ5m3jQXn1Fh6Mf13,NeXZwmX2ksSAQ5m3jQXn1Fh6Mf13,,,,,,,,,,,,,,,,,chosen stimuli: images/choice_trial_3.png,,,,,59269aac7724de000109190f,09:05:51,27/02/2024
html-keyboard-response,103,203249,0.0-44.0-2.0,,,,delaylearn,learning,feedback_duration_window,NeXZwmX2ksSAQ5m3jQXn1Fh6Mf13,NeXZwmX2ksSAQ5m3jQXn1Fh6Mf13,,,,,,,,,,,,,,,,,,750.0,,,,59269aac7724de000109190f,09:05:51,27/02/2024
html-keyboard-response,104,204752,0.0-44.0-3.0,,<div style='margin:auto;width: auto; font-size: 150%'><span style='font-weight: bold; font-size: 100px; color: red;'>0 points!</span><br><br></div>,,delaylearn,learning,feedback_image_window,NeXZwmX2ksSAQ5m3jQXn1Fh6Mf13,NeXZwmX2ksSAQ5m3jQXn1Fh6Mf13,,,,,,,,,,,,,,,,,,,,,,59269aac7724de000109190f,09:05:51,27/02/2024
html-keyboard-response,105,206336,0.0-45.0,,"<div style=""font-size:100px;"">+</div>",,delaylearn,learning,ITI,NeXZwmX2ksSAQ5m3jQXn1Fh6Mf13,NeXZwmX2ksSAQ5m3jQXn1Fh6Mf13,,,,,,,,,,,,,,,,,,,1582.0,,,59269aac7724de000109190f,09:05:51,27/02/2024
html-keyboard-response,106,207750,0.0-46.0-0.0,1408.0,"<div style=""display: flex; flex-direction: column; align-items: center; margin-top: -40px;""><img src=""images/pattern_4.png"" style=""width: 234px; height: 230px; margin-top: -50px;""><div style=""display: flex; justify-content: space-between; margin-top: 33px;""><img src=""images/choice_trial_15.png"" style=""width: 408px; height: 417px; margin-right: 200px;""><img src=""images/choice_trial_9.png"" style=""width: 408px; height: 417px;""></div></div>",f,delaylearn,learning,trial,NeXZwmX2ksSAQ5m3jQXn1Fh6Mf13,NeXZwmX2ksSAQ5m3jQXn1Fh6Mf13,3.0,images/choice_trial_15.png,images/choice_trial_9.png,images/pattern_4.png,f,f,7000.0,15.0,9.0,3.0,0.0,20.0,1.0,1.0,15.0,120.0,,,,,,59269aac7724de000109190f,09:05:51,27/02/2024
html-keyboard-response,107,208754,0.0-46.0-1.0,,"<div style=""display: flex; flex-direction: column; align-items: center; margin-top: -40px;""><img src=""images/pattern_4.png"" style=""width: 234px; height: 230px; margin-top: -50px;""><div style=""display: flex; justify-content: space-between; margin-top: 33px;""><img src=""images/choice_trial_15.png"" style=""width: 408px; height: 417px; margin-right: 608px;""></div></div>",,delaylearn,learning,display_response,NeXZwmX2ksSAQ5m3jQXn1Fh6Mf13,NeXZwmX2ksSAQ5m3jQXn1Fh6Mf13,,,,,,,,,,,,,,,,,chosen stimuli: images/choice_trial_15.png,,,,,59269aac7724de000109190f,09:05:51,27/02/2024
html-keyboard-response,108,215757,0.0-46.0-2.0,,,,delaylearn,learning,feedback_duration_window,NeXZwmX2ksSAQ5m3jQXn1Fh6Mf13,NeXZwmX2ksSAQ5m3jQXn1Fh6Mf13,,,,,,,,,,,,,,,,,,7000.0,,,,59269aac7724de000109190f,09:05:51,27/02/2024
html-keyboard-response,109,217260,0.0-46.0-3.0,,<div style='margin:auto;width: auto; font-size: 150%'><span style='font-weight: bold; font-size: 100px; color: green;'>+10 points!</span><br><br></div>,,delaylearn,learning,feedback_image_window,NeXZwmX2ksSAQ5m3jQXn1Fh6Mf13,NeXZwmX2ksSAQ5m3jQXn1Fh6Mf13,,,,,,,,,,,,,,,,,,,,,,59269aac7724de000109190f,09:05:51,27/02/2024
html-keyboard-response,110,217763,0.0-47.0-0.0,,,,,,mood_trial_fixation,NeXZwmX2ksSAQ5m3jQXn1Fh6Mf13,,,,,,,,,,,,,,,,,,,,,,,59269aac7724de000109190f,09:05:51,27/02/2024
lmdlab-html-vas-response,111,221716,0.0-47.0-1.0,2945.0,How happy are you right now?,0.681351229286136,delaylearn,learning,mood_trial,NeXZwmX2ksSAQ5m3jQXn1Fh6Mf13,NeXZwmX2ksSAQ5m3jQXn1Fh6Mf13,,,,,,,,,,,,,,,,,,,,"['Very unhappy', 'Very happy']",,59269aac7724de000109190f,09:05:51,27/02/2024
html-keyboard-response,112,223813,0.0-48.0,,"<div style=""font-size:100px;"">+</div>",,delaylearn,learning,ITI,NeXZwmX2ksSAQ5m3jQXn1Fh6Mf13,NeXZwmX2ksSAQ5m3jQXn1Fh6Mf13,,,,,,,,,,,,,,,,,,,2095.0,,,59269aac7724de000109190f,09:05:51,27/02/2024
html-keyboard-response,113,225800,0.0-49.0-0.0,1979.2999999998137,"<div style=""display: flex; flex-direction: column; align-items: center; margin-top: -40px;""><img src=""images/pattern_7.png"" style=""width: 234px; height: 230px; margin-top: -50px;""><div style=""display: flex; justify-content: space-between; margin-top: 33px;""><img src=""images/choice_trial_12.png"" style=""width: 408px; height: 417px; margin-right: 200px;""><img src=""images/choice_trial_6.png"" style=""width: 408px; height: 417px;""></div></div>",f,delaylearn,learning,trial,NeXZwmX2ksSAQ5m3jQXn1Fh6Mf13,NeXZwmX2ksSAQ5m3jQXn1Fh6Mf13,3.0,images/choice_trial_12.png,images/choice_trial_6.png,images/pattern_7.png,j,j,750.0,12.0,6.0,6.0,1.0,21.0,0.0,0.0,12.0,120.0,,,,,,59269aac7724de000109190f,09:05:51,27/02/2024
html-keyboard-response,114,226804,0.0-49.0-1.0,,"<div style=""display: flex; flex-direction: column; align-items: center; margin-top: -40px;""><img src=""images/pattern_7.png"" style=""width: 234px; height: 230px; margin-top: -50px;""><div style=""display: flex; justify-content: space-between; margin-top: 33px;""><img src=""images/choice_trial_12.png"" style=""width: 408px; height: 417px; margin-right: 608px;""></div></div>",,delaylearn,learning,display_response,NeXZwmX2ksSAQ5m3jQXn1Fh6Mf13,NeXZwmX2ksSAQ5m3jQXn1Fh6Mf13,,,,,,,,,,,,,,,,,chosen stimuli: images/choice_trial_12.png,,,,,59269aac7724de000109190f,09:05:51,27/02/2024
html-keyboard-response,115,227557,0.0-49.0-2.0,,,,delaylearn,learning,feedback_duration_window,NeXZwmX2ksSAQ5m3jQXn1Fh6Mf13,NeXZwmX2ksSAQ5m3jQXn1Fh6Mf13,,,,,,,,,,,,,,,,,,750.0,,,,59269aac7724de000109190f,09:05:51,27/02/2024
html-keyboard-response,116,229060,0.0-49.0-3.0,,<div style='margin:auto;width: auto; font-size: 150%'><span style='font-weight: bold; font-size: 100px; color: red;'>0 points!</span><br><br></div>,,delaylearn,learning,feedback_image_window,NeXZwmX2ksSAQ5m3jQXn1Fh6Mf13,NeXZwmX2ksSAQ5m3jQXn1Fh6Mf13,,,,,,,,,,,,,,,,,,,,,,59269aac7724de000109190f,09:05:51,27/02/2024
html-keyboard-response,117,231374,0.0-50.0,,"<div style=""font-size:100px;"">+</div>",,delaylearn,learning,ITI,NeXZwmX2ksSAQ5m3jQXn1Fh6Mf13,NeXZwmX2ksSAQ5m3jQXn1Fh6Mf13,,,,,,,,,,,,,,,,,,,2312.0,,,59269aac7724de000109190f,09:05:51,27/02/2024
html-keyboard-response,118,232791,0.0-51.0-0.0,1414.7999999998137,"<div style=""display: flex; flex-direction: column; align-items: center; margin-top: -40px;""><img src=""images/pattern_1.png"" style=""width: 234px; height: 230px; margin-top: -50px;""><div style=""display: flex; justify-content: space-between; margin-top: 33px;""><img src=""images/choice_trial_8.png"" style=""width: 408px; height: 417px; margin-right: 200px;""><img src=""images/choice_trial_14.png"" style=""width: 408px; height: 417px;""></div></div>",j,delaylearn,learning,trial,NeXZwmX2ksSAQ5m3jQXn1Fh6Mf13,NeXZwmX2ksSAQ5m3jQXn1Fh6Mf13,3.0,images/choice_trial_8.png,images/choice_trial_14.png,images/pattern_1.png,f,j,7000.0,8.0,14.0,1.0,1.0,22.0,1.0,0.0,14.0,120.0,,,,,,59269aac7724de000109190f,09:05:51,27/02/2024
html-keyboard-response,119,233796,0.0-51.0-1.0,,"<div style=""display: flex; flex-direction: column; align-items: center; margin-top: -40px;""><img src=""images/pattern_1.png"" style=""width: 234px; height: 230px; margin-top: -50px;""><div style=""display: flex; justify-content: space-between; margin-top: 33px;""><img src=""images/choice_trial_14.png"" style=""width: 408px; height: 417px; margin-left:608px;""></div></div>",,delaylearn,learning,display_response,NeXZwmX2ksSAQ5m3jQXn1Fh6Mf13,NeXZwmX2ksSAQ5m3jQXn1Fh6Mf13,,,,,,,,,,,,,,,,,chosen stimuli: images/choice_trial_14.png,,,,,59269aac7724de000109190f,09:05:51,27/02/2024
html-keyboard-response,120,240798,0.0-51.0-2.0,,,,delaylearn,learning,feedback_duration_window,NeXZwmX2ksSAQ5m3jQXn1Fh6Mf13,NeXZwmX2ksSAQ5m3jQXn1Fh6Mf13,,,,,,,,,,,,,,,,,,7000.0,,,,59269aac7724de000109190f,09:05:51,27/02/2024
html-keyboard-response,121,242302,0.0-51.0-3.0,,<div style='margin:auto;width: auto; font-size: 150%'><span style='font-weight: bold; font-size: 100px; color: red;'>0 points!</span><br><br></div>,,delaylearn,learning,feedback_image_window,NeXZwmX2ksSAQ5m3jQXn1Fh6Mf13,NeXZwmX2ksSAQ5m3jQXn1Fh6Mf13,,,,,,,,,,,,,,,,,,,,,,59269aac7724de000109190f,09:05:51,27/02/2024
html-keyboard-response,122,244307,0.0-52.0,,"<div style=""font-size:100px;"">+</div>",,delaylearn,learning,ITI,NeXZwmX2ksSAQ5m3jQXn1Fh6Mf13,NeXZwmX2ksSAQ5m3jQXn1Fh6Mf13,,,,,,,,,,,,,,,,,,,2003.0,,,59269aac7724de000109190f,09:05:51,27/02/2024
html-keyboard-response,123,246344,0.0-53.0-0.0,2029.8999999994412,"<div style=""display: flex; flex-direction: column; align-items: center; margin-top: -40px;""><img src=""images/pattern_5.png"" style=""width: 234px; height: 230px; margin-top: -50px;""><div style=""display: flex; justify-content: space-between; margin-top: 33px;""><img src=""images/choice_trial_2.png"" style=""width: 408px; height: 417px; margin-right: 200px;""><img src=""images/choice_trial_11.png"" style=""width: 408px; height: 417px;""></div></div>",f,delaylearn,learning,trial,NeXZwmX2ksSAQ5m3jQXn1Fh6Mf13,NeXZwmX2ksSAQ5m3jQXn1Fh6Mf13,3.0,images/choice_trial_2.png,images/choice_trial_11.png,images/pattern_5.png,j,j,750.0,2.0,11.0,4.0,1.0,23.0,0.0,0.0,2.0,120.0,,,,,,59269aac7724de000109190f,09:05:51,27/02/2024
html-keyboard-response,124,247348,0.0-53.0-1.0,,"<div style=""display: flex; flex-direction: column; align-items: center; margin-top: -40px;""><img src=""images/pattern_5.png"" style=""width: 234px; height: 230px; margin-top: -50px;""><div style=""display: flex; justify-content: space-between; margin-top: 33px;""><img src=""images/choice_trial_2.png"" style=""width: 408px; height: 417px; margin-right: 608px;""></div></div>",,delaylearn,learning,display_response,NeXZwmX2ksSAQ5m3jQXn1Fh6Mf13,NeXZwmX2ksSAQ5m3jQXn1Fh6Mf13,,,,,,,,,,,,,,,,,chosen stimuli: images/choice_trial_2.png,,,,,59269aac7724de000109190f,09:05:51,27/02/2024
html-keyboard-response,125,248100,0.0-53.0-2.0,,,,delaylearn,learning,feedback_duration_window,NeXZwmX2ksSAQ5m3jQXn1Fh6Mf13,NeXZwmX2ksSAQ5m3jQXn1Fh6Mf13,,,,,,,,,,,,,,,,,,750.0,,,,59269aac7724de000109190f,09:05:51,27/02/2024
html-keyboard-response,126,249602,0.0-53.0-3.0,,<div style='margin:auto;width: auto; font-size: 150%'><span style='font-weight: bold; font-size: 100px; color: red;'>0 points!</span><br><br></div>,,delaylearn,learning,feedback_image_window,NeXZwmX2ksSAQ5m3jQXn1Fh6Mf13,NeXZwmX2ksSAQ5m3jQXn1Fh6Mf13,,,,,,,,,,,,,,,,,,,,,,59269aac7724de000109190f,09:05:51,27/02/2024
html-keyboard-response,127,251304,0.0-54.0,,"<div style=""font-size:100px;"">+</div>",,delaylearn,learning,ITI,NeXZwmX2ksSAQ5m3jQXn1Fh6Mf13,NeXZwmX2ksSAQ5m3jQXn1Fh6Mf13,,,,,,,,,,,,,,,,,,,1700.0,,,59269aac7724de000109190f,09:05:51,27/02/2024
html-keyboard-response,128,253044,0.0-55.0-0.0,1733.5,"<div style=""display: flex; flex-direction: column; align-items: center; margin-top: -40px;""><img src=""images/pattern_3.png"" style=""width: 234px; height: 230px; margin-top: -50px;""><div style=""display: flex; justify-content: space-between; margin-top: 33px;""><img src=""images/choice_trial_10.png"" style=""width: 408px; height: 417px; margin-right: 200px;""><img src=""images/choice_trial_13.png"" style=""width: 408px; height: 417px;""></div></div>",f,delaylearn,learning,trial,NeXZwmX2ksSAQ5m3jQXn1Fh6Mf13,NeXZwmX2ksSAQ5m3jQXn1Fh6Mf13,3.0,images/choice_trial_10.png,images/choice_trial_13.png,images/pattern_3.png,j,j,7000.0,10.0,13.0,2.0,1.0,24.0,0.0,0.0,10.0,120.0,,,,,,59269aac7724de000109190f,09:05:51,27/02/2024
html-keyboard-response,129,254048,0.0-55.0-1.0,,"<div style=""display: flex; flex-direction: column; align-items: center; margin-top: -40px;""><img src=""images/pattern_3.png"" style=""width: 234px; height: 230px; margin-top: -50px;""><div style=""display: flex; justify-content: space-between; margin-top: 33px;""><img src=""images/choice_trial_10.png"" style=""width: 408px; height: 417px; margin-right: 608px;""></div></div>",,delaylearn,learning,display_response,NeXZwmX2ksSAQ5m3jQXn1Fh6Mf13,NeXZwmX2ksSAQ5m3jQXn1Fh6Mf13,,,,,,,,,,,,,,,,,chosen stimuli: images/choice_trial_10.png,,,,,59269aac7724de000109190f,09:05:51,27/02/2024
html-keyboard-response,130,261050,0.0-55.0-2.0,,,,delaylearn,learning,feedback_duration_window,NeXZwmX2ksSAQ5m3jQXn1Fh6Mf13,NeXZwmX2ksSAQ5m3jQXn1Fh6Mf13,,,,,,,,,,,,,,,,,,7000.0,,,,59269aac7724de000109190f,09:05:51,27/02/2024
html-keyboard-response,131,262554,0.0-55.0-3.0,,<div style='margin:auto;width: auto; font-size: 150%'><span style='font-weight: bold; font-size: 100px; color: red;'>0 points!</span><br><br></div>,,delaylearn,learning,feedback_image_window,NeXZwmX2ksSAQ5m3jQXn1Fh6Mf13,NeXZwmX2ksSAQ5m3jQXn1Fh6Mf13,,,,,,,,,,,,,,,,,,,,,,59269aac7724de000109190f,09:05:51,27/02/2024
lmdlab-html-vas-response,132,268421,0.0-56.0-0.0,4358.0,*How <b><u>confident</u></b> are you feeling about your answers at this moment?*,0.22415118869022377,rewlearn,rate_confidence,,NeXZwmX2ksSAQ5m3jQXn1Fh6Mf13,NeXZwmX2ksSAQ5m3jQXn1Fh6Mf13,,,,,,,,,,,,,,,,,,,,"['No confidence', 'Complete confidence']",,59269aac7724de000109190f,09:05:51,27/02/2024
lmdlab-rest-trial-limit,133,354406,0.0-56.0-1.0,84479.79999999981,"<div style=""font-size:40px;""><b>Please take a break!</b><br><br><br><br><p>Great work: you earned undefined points.<br><br><br><p>You have completed part(s) 1 of 6.<br><br><br><br>When you are ready to continue<br><br><br>please click the button.</p><br><br>",0,delaylearn,learning,break,NeXZwmX2ksSAQ5m3jQXn1Fh6Mf13,NeXZwmX2ksSAQ5m3jQXn1Fh6Mf13,,,,,,,,,,,,,,,,,,,,,0.0,59269aac7724de000109190f,09:05:51,27/02/2024
html-keyboard-response,134,357409,0.0-56.0-2.0,,"<div style=""font-size:100px;"">+</div>",,delaylearn,learning,pre_fixation,NeXZwmX2ksSAQ5m3jQXn1Fh6Mf13,,,,,,,,,,,,,,,,,,,,,,,59269aac7724de000109190f,09:05:51,27/02/2024
lmdlab-html-vas-response,135,361001,0.0-56.0-3.0-0.0,2586.0,How happy are you right now?,0.5173851876254052,delaylearn,learning,mood_baseline,NeXZwmX2ksSAQ5m3jQXn1Fh6Mf13,NeXZwmX2ksSAQ5m3jQXn1Fh6Mf13,,,,,,,,,,,,,,,,,,,,"['Very unhappy', 'Very happy']",,59269aac7724de000109190f,09:05:51,27/02/2024
html-keyboard-response,136,362503,0.0-56.0-3.0-1.0,,,,,,mood_baseline_fixation,NeXZwmX2ksSAQ5m3jQXn1Fh6Mf13,,,,,,,,,,,,,,,,,,,,,,,59269aac7724de000109190f,09:05:51,27/02/2024
html-keyboard-response,137,364638,0.0-57.0,,"<div style=""font-size:100px;"">+</div>",,delaylearn,learning,ITI,NeXZwmX2ksSAQ5m3jQXn1Fh6Mf13,NeXZwmX2ksSAQ5m3jQXn1Fh6Mf13,,,,,,,,,,,,,,,,,,,2133.0,,,59269aac7724de000109190f,09:05:51,27/02/2024
html-keyboard-response,138,366195,0.0-58.0-0.0,1551.7000000001863,"<div style=""display: flex; flex-direction: column; align-items: center; margin-top: -40px;""><img src=""images/pattern_7.png"" style=""width: 234px; height: 230px; margin-top: -50px;""><div style=""display: flex; justify-content: space-between; margin-top: 33px;""><img src=""images/choice_trial_12.png"" style=""width: 408px; height: 417px; margin-right: 200px;""><img src=""images/choice_trial_6.png"" style=""width: 408px; height: 417px;""></div></div>",j,delaylearn,learning,trial,NeXZwmX2ksSAQ5m3jQXn1Fh6Mf13,NeXZwmX2ksSAQ5m3jQXn1Fh6Mf13,3.0,images/choice_trial_12.png,images/choice_trial_6.png,images/pattern_7.png,j,j,750.0,12.0,6.0,6.0,1.0,25.0,1.0,1.0,6.0,130.0,,,,,,59269aac7724de000109190f,09:05:51,27/02/2024
html-keyboard-response,139,367200,0.0-58.0-1.0,,"<div style=""display: flex; flex-direction: column; align-items: center; margin-top: -40px;""><img src=""images/pattern_7.png"" style=""width: 234px; height: 230px; margin-top: -50px;""><div style=""display: flex; justify-content: space-between; margin-top: 33px;""><img src=""images/choice_trial_6.png"" style=""width: 408px; height: 417px; margin-left:608px;""></div></div>",,delaylearn,learning,display_response,NeXZwmX2ksSAQ5m3jQXn1Fh6Mf13,NeXZwmX2ksSAQ5m3jQXn1Fh6Mf13,,,,,,,,,,,,,,,,,chosen stimuli: images/choice_trial_6.png,,,,,59269aac7724de000109190f,09:05:51,27/02/2024
html-keyboard-response,140,367952,0.0-58.0-2.0,,,,delaylearn,learning,feedback_duration_window,NeXZwmX2ksSAQ5m3jQXn1Fh6Mf13,NeXZwmX2ksSAQ5m3jQXn1Fh6Mf13,,,,,,,,,,,,,,,,,,750.0,,,,59269aac7724de000109190f,09:05:51,27/02/2024
html-keyboard-response,141,369455,0.0-58.0-3.0,,<div style='margin:auto;width: auto; font-size: 150%'><span style='font-weight: bold; font-size: 100px; color: green;'>+10 points!</span><br><br></div>,,delaylearn,learning,feedback_image_window,NeXZwmX2ksSAQ5m3jQXn1Fh6Mf13,NeXZwmX2ksSAQ5m3jQXn1Fh6Mf13,,,,,,,,,,,,,,,,,,,,,,59269aac7724de000109190f,09:05:51,27/02/2024
html-keyboard-response,142,369958,0.0-59.0-0.0,,,,,,mood_trial_fixation,NeXZwmX2ksSAQ5m3jQXn1Fh6Mf13,,,,,,,,,,,,,,,,,,,,,,,59269aac7724de000109190f,09:05:51,27/02/2024
lmdlab-html-vas-response,143,374091,0.0-59.0-1.0,3125.0,How happy are you right now?,0.62155184938634,delaylearn,learning,mood_trial,NeXZwmX2ksSAQ5m3jQXn1Fh6Mf13,NeXZwmX2ksSAQ5m3jQXn1Fh6Mf13,,,,,,,,,,,,,,,,,,,,"['Very unhappy', 'Very happy']",,59269aac7724de000109190f,09:05:51,27/02/2024
html-keyboard-response,144,376537,0.0-60.0,,"<div style=""font-size:100px;"">+</div>",,delaylearn,learning,ITI,NeXZwmX2ksSAQ5m3jQXn1Fh6Mf13,NeXZwmX2ksSAQ5m3jQXn1Fh6Mf13,,,,,,,,,,,,,,,,,,,2443.0,,,59269aac7724de000109190f,09:05:51,27/02/2024
html-keyboard-response,145,378131,0.0-61.0-0.0,1589.5,"<div style=""display: flex; flex-direction: column; align-items: center; margin-top: -40px;""><img src=""images/pattern_1.png"" style=""width: 234px; height: 230px; margin-top: -50px;""><div style=""display: flex; justify-content: space-between; margin-top: 33px;""><img src=""images/choice_trial_14.png"" style=""width: 408px; height: 417px; margin-right: 200px;""><img src=""images/choice_trial_8.png"" style=""width: 408px; height: 417px;""></div></div>",f,delaylearn,learning,trial,NeXZwmX2ksSAQ5m3jQXn1Fh6Mf13,NeXZwmX2ksSAQ5m3jQXn1Fh6Mf13,3.0,images/choice_trial_14.png,images/choice_trial_8.png,images/pattern_1.png,f,f,7000.0,14.0,8.0,1.0,0.0,26.0,1.0,1.0,14.0,140.0,,,,,,59269aac7724de000109190f,09:05:51,27/02/2024
html-keyboard-response,146,379136,0.0-61.0-1.0,,"<div style=""display: flex; flex-direction: column; align-items: center; margin-top: -40px;""><img src=""images/pattern_1.png"" style=""width: 234px; height: 230px; margin-top: -50px;""><div style=""display: flex; justify-content: space-between; margin-top: 33px;""><img src=""images/choice_trial_14.png"" style=""width: 408px; height: 417px; margin-right: 608px;""></div></div>",,delaylearn,learning,display_response,NeXZwmX2ksSAQ5m3jQXn1Fh6Mf13,NeXZwmX2ksSAQ5m3jQXn1Fh6Mf13,,,,,,,,,,,,,,,,,chosen stimuli: images/choice_trial_14.png,,,,,59269aac7724de000109190f,09:05:51,27/02/2024
html-keyboard-response,147,386138,0.0-61.0-2.0,,,,delaylearn,learning,feedback_duration_window,NeXZwmX2ksSAQ5m3jQXn1Fh6Mf13,NeXZwmX2ksSAQ5m3jQXn1Fh6Mf13,,,,,,,,,,,,,,,,,,7000.0,,,,59269aac7724de000109190f,09:05:51,27/02/2024
html-keyboard-response,148,387641,0.0-61.0-3.0,,<div style='margin:auto;width: auto; font-size: 150%'><span style='font-weight: bold; font-size: 100px; color: green;'>+10 points!</span><br><br></div>,,delaylearn,learning,feedback_image_window,NeXZwmX2ksSAQ5m3jQXn1Fh6Mf13,NeXZwmX2ksSAQ5m3jQXn1Fh6Mf13,,,,,,,,,,,,,,,,,,,,,,59269aac7724de000109190f,09:05:51,27/02/2024
html-keyboard-response,149,389289,0.0-62.0,,"<div style=""font-size:100px;"">+</div>",,delaylearn,learning,ITI,NeXZwmX2ksSAQ5m3jQXn1Fh6Mf13,NeXZwmX2ksSAQ5m3jQXn1Fh6Mf13,,,,,,,,,,,,,,,,,,,1646.0,,,59269aac7724de000109190f,09:05:51,27/02/2024
html-keyboard-response,150,391273,0.0-63.0-0.0,1979.0999999996275,"<div style=""display: flex; flex-direction: column; align-items: center; margin-top: -40px;""><img src=""images/pattern_5.png"" style=""width: 234px; height: 230px; margin-top: -50px;""><div style=""display: flex; justify-content: space-between; margin-top: 33px;""><img src=""images/choice_trial_11.png"" style=""width: 408px; height: 417px; margin-right: 200px;""><img src=""images/choice_trial_2.png"" style=""width: 408px; height: 417px;""></div></div>",j,delaylearn,learning,trial,NeXZwmX2ksSAQ5m3jQXn1Fh6Mf13,NeXZwmX2ksSAQ5m3jQXn1Fh6Mf13,3.0,images/choice_trial_11.png,images/choice_trial_2.png,images/pattern_5.png,f,f,750.0,11.0,2.0,4.0,0.0,27.0,0.0,0.0,2.0,140.0,,,,,,59269aac7724de000109190f,09:05:51,27/02/2024
html-keyboard-response,151,392278,0.0-63.0-1.0,,"<div style=""display: flex; flex-direction: column; align-items: center; margin-top: -40px;""><img src=""images/pattern_5.png"" style=""width: 234px; height: 230px; margin-top: -50px;""><div style=""display: flex; justify-content: space-between; margin-top: 33px;""><img src=""images/choice_trial_2.png"" style=""width: 408px; height: 417px; margin-left:608px;""></div></div>",,delaylearn,learning,display_response,NeXZwmX2ksSAQ5m3jQXn1Fh6Mf13,NeXZwmX2ksSAQ5m3jQXn1Fh6Mf13,,,,,,,,,,,,,,,,,chosen stimuli: images/choice_trial_2.png,,,,,59269aac7724de000109190f,09:05:51,27/02/2024
html-keyboard-response,152,393030,0.0-63.0-2.0,,,,delaylearn,learning,feedback_duration_window,NeXZwmX2ksSAQ5m3jQXn1Fh6Mf13,NeXZwmX2ksSAQ5m3jQXn1Fh6Mf13,,,,,,,,,,,,,,,,,,750.0,,,,59269aac7724de000109190f,09:05:51,27/02/2024
html-keyboard-response,153,394533,0.0-63.0-3.0,,<div style='margin:auto;width: auto; font-size: 150%'><span style='font-weight: bold; font-size: 100px; color: red;'>0 points!</span><br><br></div>,,delaylearn,learning,feedback_image_window,NeXZwmX2ksSAQ5m3jQXn1Fh6Mf13,NeXZwmX2ksSAQ5m3jQXn1Fh6Mf13,,,,,,,,,,,,,,,,,,,,,,59269aac7724de000109190f,09:05:51,27/02/2024
html-keyboard-response,154,396607,0.0-64.0,,"<div style=""font-size:100px;"">+</div>",,delaylearn,learning,ITI,NeXZwmX2ksSAQ5m3jQXn1Fh6Mf13,NeXZwmX2ksSAQ5m3jQXn1Fh6Mf13,,,,,,,,,,,,,,,,,,,2071.0,,,59269aac7724de000109190f,09:05:51,27/02/2024
html-keyboard-response,155,398873,0.0-65.0-0.0,2260.7000000001863,"<div style=""display: flex; flex-direction: column; align-items: center; margin-top: -40px;""><img src=""images/pattern_6.png"" style=""width: 234px; height: 230px; margin-top: -50px;""><div style=""display: flex; justify-content: space-between; margin-top: 33px;""><img src=""images/choice_trial_3.png"" style=""width: 408px; height: 417px; margin-right: 200px;""><img src=""images/choice_trial_16.png"" style=""width: 408px; height: 417px;""></div></div>",j,delaylearn,learning,trial,NeXZwmX2ksSAQ5m3jQXn1Fh6Mf13,NeXZwmX2ksSAQ5m3jQXn1Fh6Mf13,3.0,images/choice_trial_3.png,images/choice_trial_16.png,images/pattern_6.png,j,j,750.0,3.0,16.0,5.0,1.0,28.0,1.0,1.0,16.0,150.0,,,,,,59269aac7724de000109190f,09:05:51,27/02/2024
html-keyboard-response,156,399878,0.0-65.0-1.0,,"<div style=""display: flex; flex-direction: column; align-items: center; margin-top: -40px;""><img src=""images/pattern_6.png"" style=""width: 234px; height: 230px; margin-top: -50px;""><div style=""display: flex; justify-content: space-between; margin-top: 33px;""><img src=""images/choice_trial_16.png"" style=""width: 408px; height: 417px; margin-left:608px;""></div></div>",,delaylearn,learning,display_response,NeXZwmX2ksSAQ5m3jQXn1Fh6Mf13,NeXZwmX2ksSAQ5m3jQXn1Fh6Mf13,,,,,,,,,,,,,,,,,chosen stimuli: images/choice_trial_16.png,,,,,59269aac7724de000109190f,09:05:51,27/02/2024
html-keyboard-response,157,400630,0.0-65.0-2.0,,,,delaylearn,learning,feedback_duration_window,NeXZwmX2ksSAQ5m3jQXn1Fh6Mf13,NeXZwmX2ksSAQ5m3jQXn1Fh6Mf13,,,,,,,,,,,,,,,,,,750.0,,,,59269aac7724de000109190f,09:05:51,27/02/2024
html-keyboard-response,158,402133,0.0-65.0-3.0,,<div style='margin:auto;width: auto; font-size: 150%'><span style='font-weight: bold; font-size: 100px; color: green;'>+10 points!</span><br><br></div>,,delaylearn,learning,feedback_image_window,NeXZwmX2ksSAQ5m3jQXn1Fh6Mf13,NeXZwmX2ksSAQ5m3jQXn1Fh6Mf13,,,,,,,,,,,,,,,,,,,,,,59269aac7724de000109190f,09:05:51,27/02/2024
html-keyboard-response,159,402635,0.0-66.0-0.0,,,,,,mood_trial_fixation,NeXZwmX2ksSAQ5m3jQXn1Fh6Mf13,,,,,,,,,,,,,,,,,,,,,,,59269aac7724de000109190f,09:05:51,27/02/2024
lmdlab-html-vas-response,160,406236,0.0-66.0-1.0,2593.0,How happy are you right now?,0.6717061680119754,delaylearn,learning,mood_trial,NeXZwmX2ksSAQ5m3jQXn1Fh6Mf13,NeXZwmX2ksSAQ5m3jQXn1Fh6Mf13,,,,,,,,,,,,,,,,,,,,"['Very unhappy', 'Very happy']",,59269aac7724de000109190f,09:05:51,27/02/2024
html-keyboard-response,161,407858,0.0-67.0,,"<div style=""font-size:100px;"">+</div>",,delaylearn,learning,ITI,NeXZwmX2ksSAQ5m3jQXn1Fh6Mf13,NeXZwmX2ksSAQ5m3jQXn1Fh6Mf13,,,,,,,,,,,,,,,,,,,1620.0,,,59269aac7724de000109190f,09:05:51,27/02/2024
html-keyboard-response,162,409443,0.0-68.0-0.0,1579.5,"<div style=""display: flex; flex-direction: column; align-items: center; margin-top: -40px;""><img src=""images/pattern_4.png"" style=""width: 234px; height: 230px; margin-top: -50px;""><div style=""display: flex; justify-content: space-between; margin-top: 33px;""><img src=""images/choice_trial_9.png"" style=""width: 408px; height: 417px; margin-right: 200px;""><img src=""images/choice_trial_15.png"" style=""width: 408px; height: 417px;""></div></div>",j,delaylearn,learning,trial,NeXZwmX2ksSAQ5m3jQXn1Fh6Mf13,NeXZwmX2ksSAQ5m3jQXn1Fh6Mf13,3.0,images/choice_trial_9.png,images/choice_trial_15.png,images/pattern_4.png,j,j,7000.0,9.0,15.0,3.0,1.0,29.0,1.0,1.0,15.0,160.0,,,,,,59269aac7724de000109190f,09:05:51,27/02/2024
html-keyboard-response,163,410447,0.0-68.0-1.0,,"<div style=""display: flex; flex-direction: column; align-items: center; margin-top: -40px;""><img src=""images/pattern_4.png"" style=""width: 234px; height: 230px; margin-top: -50px;""><div style=""display: flex; justify-content: space-between; margin-top: 33px;""><img src=""images/choice_trial_15.png"" style=""width: 408px; height: 417px; margin-left:608px;""></div></div>",,delaylearn,learning,display_response,NeXZwmX2ksSAQ5m3jQXn1Fh6Mf13,NeXZwmX2ksSAQ5m3jQXn1Fh6Mf13,,,,,,,,,,,,,,,,,chosen stimuli: images/choice_trial_15.png,,,,,59269aac7724de000109190f,09:05:51,27/02/2024
html-keyboard-response,164,417449,0.0-68.0-2.0,,,,delaylearn,learning,feedback_duration_window,NeXZwmX2ksSAQ5m3jQXn1Fh6Mf13,NeXZwmX2ksSAQ5m3jQXn1Fh6Mf13,,,,,,,,,,,,,,,,,,7000.0,,,,59269aac7724de000109190f,09:05:51,27/02/2024
html-keyboard-response,165,418952,0.0-68.0-3.0,,<div style='margin:auto;width: auto; font-size: 150%'><span style='font-weight: bold; font-size: 100px; color: green;'>+10 points!</span><br><br></div>,,delaylearn,learning,feedback_image_window,NeXZwmX2ksSAQ5m3jQXn1Fh6Mf13,NeXZwmX2ksSAQ5m3jQXn1Fh6Mf13,,,,,,,,,,,,,,,,,,,,,,59269aac7724de000109190f,09:05:51,27/02/2024
html-keyboard-response,166,420907,0.0-69.0,,"<div style=""font-size:100px;"">+</div>",,delaylearn,learning,ITI,NeXZwmX2ksSAQ5m3jQXn1Fh6Mf13,NeXZwmX2ksSAQ5m3jQXn1Fh6Mf13,,,,,,,,,,,,,,,,,,,1953.0,,,59269aac7724de000109190f,09:05:51,27/02/2024
html-keyboard-response,167,422323,0.0-70.0-0.0,1411.5,"<div style=""display: flex; flex-direction: column; align-items: center; margin-top: -40px;""><img src=""images/pattern_3.png"" style=""width: 234px; height: 230px; margin-top: -50px;""><div style=""display: flex; justify-content: space-between; margin-top: 33px;""><img src=""images/choice_trial_10.png"" style=""width: 408px; height: 417px; margin-right: 200px;""><img src=""images/choice_trial_13.png"" style=""width: 408px; height: 417px;""></div></div>",f,delaylearn,learning,trial,NeXZwmX2ksSAQ5m3jQXn1Fh6Mf13,NeXZwmX2ksSAQ5m3jQXn1Fh6Mf13,3.0,images/choice_trial_10.png,images/choice_trial_13.png,images/pattern_3.png,j,j,7000.0,10.0,13.0,2.0,1.0,30.0,0.0,0.0,10.0,160.0,,,,,,59269aac7724de000109190f,09:05:51,27/02/2024
html-keyboard-response,168,423326,0.0-70.0-1.0,,"<div style=""display: flex; flex-direction: column; align-items: center; margin-top: -40px;""><img src=""images/pattern_3.png"" style=""width: 234px; height: 230px; margin-top: -50px;""><div style=""display: flex; justify-content: space-between; margin-top: 33px;""><img src=""images/choice_trial_10.png"" style=""width: 408px; height: 417px; margin-right: 608px;""></div></div>",,delaylearn,learning,display_response,NeXZwmX2ksSAQ5m3jQXn1Fh6Mf13,NeXZwmX2ksSAQ5m3jQXn1Fh6Mf13,,,,,,,,,,,,,,,,,chosen stimuli: images/choice_trial_10.png,,,,,59269aac7724de000109190f,09:05:51,27/02/2024
html-keyboard-response,169,430328,0.0-70.0-2.0,,,,delaylearn,learning,feedback_duration_window,NeXZwmX2ksSAQ5m3jQXn1Fh6Mf13,NeXZwmX2ksSAQ5m3jQXn1Fh6Mf13,,,,,,,,,,,,,,,,,,7000.0,,,,59269aac7724de000109190f,09:05:51,27/02/2024
html-keyboard-response,170,431831,0.0-70.0-3.0,,<div style='margin:auto;width: auto; font-size: 150%'><span style='font-weight: bold; font-size: 100px; color: red;'>0 points!</span><br><br></div>,,delaylearn,learning,feedback_image_window,NeXZwmX2ksSAQ5m3jQXn1Fh6Mf13,NeXZwmX2ksSAQ5m3jQXn1Fh6Mf13,,,,,,,,,,,,,,,,,,,,,,59269aac7724de000109190f,09:05:51,27/02/2024
html-keyboard-response,171,433435,0.0-71.0,,"<div style=""font-size:100px;"">+</div>",,delaylearn,learning,ITI,NeXZwmX2ksSAQ5m3jQXn1Fh6Mf13,NeXZwmX2ksSAQ5m3jQXn1Fh6Mf13,,,,,,,,,,,,,,,,,,,1603.0,,,59269aac7724de000109190f,09:05:51,27/02/2024
html-keyboard-response,172,434793,0.0-72.0-0.0,1354.8999999994412,"<div style=""display: flex; flex-direction: column; align-items: center; margin-top: -40px;""><img src=""images/pattern_5.png"" style=""width: 234px; height: 230px; margin-top: -50px;""><div style=""display: flex; justify-content: space-between; margin-top: 33px;""><img src=""images/choice_trial_11.png"" style=""width: 408px; height: 417px; margin-right: 200px;""><img src=""images/choice_trial_2.png"" style=""width: 408px; height: 417px;""></div></div>",j,delaylearn,learning,trial,NeXZwmX2ksSAQ5m3jQXn1Fh6Mf13,NeXZwmX2ksSAQ5m3jQXn1Fh6Mf13,3.0,images/choice_trial_11.png,images/choice_trial_2.png,images/pattern_5.png,j,f,750.0,11.0,2.0,4.0,0.0,31.0,0.0,1.0,2.0,170.0,,,,,,59269aac7724de000109190f,09:05:51,27/02/2024
html-keyboard-response,173,435795,0.0-72.0-1.0,,"<div style=""display: flex; flex-direction: column; align-items: center; margin-top: -40px;""><img src=""images/pattern_5.png"" style=""width: 234px; height: 230px; margin-top: -50px;""><div style=""display: flex; justify-content: space-between; margin-top: 33px;""><img src=""images/choice_trial_2.png"" style=""width: 408px; height: 417px; margin-left:608px;""></div></div>",,delaylearn,learning,display_response,NeXZwmX2ksSAQ5m3jQXn1Fh6Mf13,NeXZwmX2ksSAQ5m3jQXn1Fh6Mf13,,,,,,,,,,,,,,,,,chosen stimuli: images/choice_trial_2.png,,,,,59269aac7724de000109190f,09:05:51,27/02/2024
html-keyboard-response,174,436547,0.0-72.0-2.0,,,,delaylearn,learning,feedback_duration_window,NeXZwmX2ksSAQ5m3jQXn1Fh6Mf13,NeXZwmX2ksSAQ5m3jQXn1Fh6Mf13,,,,,,,,,,,,,,,,,,750.0,,,,59269aac7724de000109190f,09:05:51,27/02/2024
html-keyboard-response,175,438049,0.0-72.0-3.0,,<div style='margin:auto;width: auto; font-size: 150%'><span style='font-weight: bold; font-size: 100px; color: green;'>+10 points!</span><br><br></div>,,delaylearn,learning,feedback_image_window,NeXZwmX2ksSAQ5m3jQXn1Fh6Mf13,NeXZwmX2ksSAQ5m3jQXn1Fh6Mf13,,,,,,,,,,,,,,,,,,,,,,59269aac7724de000109190f,09:05:51,27/02/2024
html-keyboard-response,176,439982,0.0-73.0,,"<div style=""font-size:100px;"">+</div>",,delaylearn,learning,ITI,NeXZwmX2ksSAQ5m3jQXn1Fh6Mf13,NeXZwmX2ksSAQ5m3jQXn1Fh6Mf13,,,,,,,,,,,,,,,,,,,1932.0,,,59269aac7724de000109190f,09:05:51,27/02/2024
html-keyboard-response,177,442072,0.0-74.0-0.0,2086.7000000001863,"<div style=""display: flex; flex-direction: column; align-items: center; margin-top: -40px;""><img src=""images/pattern_1.png"" style=""width: 234px; height: 230px; margin-top: -50px;""><div style=""display: flex; justify-content: space-between; margin-top: 33px;""><img src=""images/choice_trial_14.png"" style=""width: 408px; height: 417px; margin-right: 200px;""><img src=""images/choice_trial_8.png"" style=""width: 408px; height: 417px;""></div></div>",f,delaylearn,learning,trial,NeXZwmX2ksSAQ5m3jQXn1Fh6Mf13,NeXZwmX2ksSAQ5m3jQXn1Fh6Mf13,3.0,images/choice_trial_14.png,images/choice_trial_8.png,images/pattern_1.png,f,f,7000.0,14.0,8.0,1.0,0.0,32.0,1.0,1.0,14.0,180.0,,,,,,59269aac7724de000109190f,09:05:51,27/02/2024
html-keyboard-response,178,443074,0.0-74.0-1.0,,"<div style=""display: flex; flex-direction: column; align-items: center; margin-top: -40px;""><img src=""images/pattern_1.png"" style=""width: 234px; height: 230px; margin-top: -50px;""><div style=""display: flex; justify-content: space-between; margin-top: 33px;""><img src=""images/choice_trial_14.png"" style=""width: 408px; height: 417px; margin-right: 608px;""></div></div>",,delaylearn,learning,display_response,NeXZwmX2ksSAQ5m3jQXn1Fh6Mf13,NeXZwmX2ksSAQ5m3jQXn1Fh6Mf13,,,,,,,,,,,,,,,,,chosen stimuli: images/choice_trial_14.png,,,,,59269aac7724de000109190f,09:05:51,27/02/2024
html-keyboard-response,179,450075,0.0-74.0-2.0,,,,delaylearn,learning,feedback_duration_window,NeXZwmX2ksSAQ5m3jQXn1Fh6Mf13,NeXZwmX2ksSAQ5m3jQXn1Fh6Mf13,,,,,,,,,,,,,,,,,,7000.0,,,,59269aac7724de000109190f,09:05:51,27/02/2024
html-keyboard-response,180,451577,0.0-74.0-3.0,,<div style='margin:auto;width: auto; font-size: 150%'><span style='font-weight: bold; font-size: 100px; color: green;'>+10 points!</span><br><br></div>,,delaylearn,learning,feedback_image_window,NeXZwmX2ksSAQ5m3jQXn1Fh6Mf13,NeXZwmX2ksSAQ5m3jQXn1Fh6Mf13,,,,,,,,,,,,,,,,,,,,,,59269aac7724de000109190f,09:05:51,27/02/2024
html-keyboard-response,181,452078,0.0-75.0-0.0,,,,,,mood_trial_fixation,NeXZwmX2ksSAQ5m3jQXn1Fh6Mf13,,,,,,,,,,,,,,,,,,,,,,,59269aac7724de000109190f,09:05:51,27/02/2024
lmdlab-html-vas-response,182,456081,0.0-75.0-1.0,2997.0,How happy are you right now?,0.6832802415409681,delaylearn,learning,mood_trial,NeXZwmX2ksSAQ5m3jQXn1Fh6Mf13,NeXZwmX2ksSAQ5m3jQXn1Fh6Mf13,,,,,,,,,,,,,,,,,,,,"['Very unhappy', 'Very happy']",,59269aac7724de000109190f,09:05:51,27/02/2024
html-keyboard-response,183,457691,0.0-76.0,,"<div style=""font-size:100px;"">+</div>",,delaylearn,learning,ITI,NeXZwmX2ksSAQ5m3jQXn1Fh6Mf13,NeXZwmX2ksSAQ5m3jQXn1Fh6Mf13,,,,,,,,,,,,,,,,,,,1608.0,,,59269aac7724de000109190f,09:05:51,27/02/2024
html-keyboard-response,184,459494,0.0-77.0-0.0,1799.5,"<div style=""display: flex; flex-direction: column; align-items: center; margin-top: -40px;""><img src=""images/pattern_6.png"" style=""width: 234px; height: 230px; margin-top: -50px;""><div style=""display: flex; justify-content: space-between; margin-top: 33px;""><img src=""images/choice_trial_16.png"" style=""width: 408px; height: 417px; margin-right: 200px;""><img src=""images/choice_trial_3.png"" style=""width: 408px; height: 417px;""></div></div>",f,delaylearn,learning,trial,NeXZwmX2ksSAQ5m3jQXn1Fh6Mf13,NeXZwmX2ksSAQ5m3jQXn1Fh6Mf13,3.0,images/choice_trial_16.png,images/choice_trial_3.png,images/pattern_6.png,j,f,750.0,16.0,3.0,5.0,0.0,33.0,1.0,0.0,16.0,180.0,,,,,,59269aac7724de000109190f,09:05:51,27/02/2024
html-keyboard-response,185,460498,0.0-77.0-1.0,,"<div style=""display: flex; flex-direction: column; align-items: center; margin-top: -40px;""><img src=""images/pattern_6.png"" style=""width: 234px; height: 230px; margin-top: -50px;""><div style=""display: flex; justify-content: space-between; margin-top: 33px;""><img src=""images/choice_trial_16.png"" style=""width: 408px; height: 417px; margin-right: 608px;""></div></div>",,delaylearn,learning,display_response,NeXZwmX2ksSAQ5m3jQXn1Fh6Mf13,NeXZwmX2ksSAQ5m3jQXn1Fh6Mf13,,,,,,,,,,,,,,,,,chosen stimuli: images/choice_trial_16.png,,,,,59269aac7724de000109190f,09:05:51,27/02/2024
html-keyboard-response,186,461251,0.0-77.0-2.0,,,,delaylearn,learning,feedback_duration_window,NeXZwmX2ksSAQ5m3jQXn1Fh6Mf13,NeXZwmX2ksSAQ5m3jQXn1Fh6Mf13,,,,,,,,,,,,,,,,,,750.0,,,,59269aac7724de000109190f,09:05:51,27/02/2024
html-keyboard-response,187,462754,0.0-77.0-3.0,,<div style='margin:auto;width: auto; font-size: 150%'><span style='font-weight: bold; font-size: 100px; color: red;'>0 points!</span><br><br></div>,,delaylearn,learning,feedback_image_window,NeXZwmX2ksSAQ5m3jQXn1Fh6Mf13,NeXZwmX2ksSAQ5m3jQXn1Fh6Mf13,,,,,,,,,,,,,,,,,,,,,,59269aac7724de000109190f,09:05:51,27/02/2024
html-keyboard-response,188,464927,0.0-78.0,,"<div style=""font-size:100px;"">+</div>",,delaylearn,learning,ITI,NeXZwmX2ksSAQ5m3jQXn1Fh6Mf13,NeXZwmX2ksSAQ5m3jQXn1Fh6Mf13,,,,,,,,,,,,,,,,,,,2171.0,,,59269aac7724de000109190f,09:05:51,27/02/2024
html-keyboard-response,189,466973,0.0-79.0-0.0,2040.4000000003725,"<div style=""display: flex; flex-direction: column; align-items: center; margin-top: -40px;""><img src=""images/pattern_3.png"" style=""width: 234px; height: 230px; margin-top: -50px;""><div style=""display: flex; justify-content: space-between; margin-top: 33px;""><img src=""images/choice_trial_10.png"" style=""width: 408px; height: 417px; margin-right: 200px;""><img src=""images/choice_trial_13.png"" style=""width: 408px; height: 417px;""></div></div>",j,delaylearn,learning,trial,NeXZwmX2ksSAQ5m3jQXn1Fh6Mf13,NeXZwmX2ksSAQ5m3jQXn1Fh6Mf13,3.0,images/choice_trial_10.png,images/choice_trial_13.png,images/pattern_3.png,j,j,7000.0,10.0,13.0,2.0,1.0,34.0,1.0,1.0,13.0,190.0,,,,,,59269aac7724de000109190f,09:05:51,27/02/2024
html-keyboard-response,190,467978,0.0-79.0-1.0,,"<div style=""display: flex; flex-direction: column; align-items: center; margin-top: -40px;""><img src=""images/pattern_3.png"" style=""width: 234px; height: 230px; margin-top: -50px;""><div style=""display: flex; justify-content: space-between; margin-top: 33px;""><img src=""images/choice_trial_13.png"" style=""width: 408px; height: 417px; margin-left:608px;""></div></div>",,delaylearn,learning,display_response,NeXZwmX2ksSAQ5m3jQXn1Fh6Mf13,NeXZwmX2ksSAQ5m3jQXn1Fh6Mf13,,,,,,,,,,,,,,,,,chosen stimuli: images/choice_trial_13.png,,,,,59269aac7724de000109190f,09:05:51,27/02/2024
html-keyboard-response,191,474980,0.0-79.0-2.0,,,,delaylearn,learning,feedback_duration_window,NeXZwmX2ksSAQ5m3jQXn1Fh6Mf13,NeXZwmX2ksSAQ5m3jQXn1Fh6Mf13,,,,,,,,,,,,,,,,,,7000.0,,,,59269aac7724de000109190f,09:05:51,27/02/2024
html-keyboard-response,192,476484,0.0-79.0-3.0,,<div style='margin:auto;width: auto; font-size: 150%'><span style='font-weight: bold; font-size: 100px; color: green;'>+10 points!</span><br><br></div>,,delaylearn,learning,feedback_image_window,NeXZwmX2ksSAQ5m3jQXn1Fh6Mf13,NeXZwmX2ksSAQ5m3jQXn1Fh6Mf13,,,,,,,,,,,,,,,,,,,,,,59269aac7724de000109190f,09:05:51,27/02/2024
html-keyboard-response,193,478356,0.0-80.0,,"<div style=""font-size:100px;"">+</div>",,delaylearn,learning,ITI,NeXZwmX2ksSAQ5m3jQXn1Fh6Mf13,NeXZwmX2ksSAQ5m3jQXn1Fh6Mf13,,,,,,,,,,,,,,,,,,,1870.0,,,59269aac7724de000109190f,09:05:51,27/02/2024
html-keyboard-response,194,479868,0.0-81.0-0.0,1506.9000000003725,"<div style=""display: flex; flex-direction: column; align-items: center; margin-top: -40px;""><img src=""images/pattern_4.png"" style=""width: 234px; height: 230px; margin-top: -50px;""><div style=""display: flex; justify-content: space-between; margin-top: 33px;""><img src=""images/choice_trial_9.png"" style=""width: 408px; height: 417px; margin-right: 200px;""><img src=""images/choice_trial_15.png"" style=""width: 408px; height: 417px;""></div></div>",j,delaylearn,learning,trial,NeXZwmX2ksSAQ5m3jQXn1Fh6Mf13,NeXZwmX2ksSAQ5m3jQXn1Fh6Mf13,3.0,images/choice_trial_9.png,images/choice_trial_15.png,images/pattern_4.png,f,j,7000.0,9.0,15.0,3.0,1.0,35.0,1.0,0.0,15.0,190.0,,,,,,59269aac7724de000109190f,09:05:51,27/02/2024
html-keyboard-response,195,480870,0.0-81.0-1.0,,"<div style=""display: flex; flex-direction: column; align-items: center; margin-top: -40px;""><img src=""images/pattern_4.png"" style=""width: 234px; height: 230px; margin-top: -50px;""><div style=""display: flex; justify-content: space-between; margin-top: 33px;""><img src=""images/choice_trial_15.png"" style=""width: 408px; height: 417px; margin-left:608px;""></div></div>",,delaylearn,learning,display_response,NeXZwmX2ksSAQ5m3jQXn1Fh6Mf13,NeXZwmX2ksSAQ5m3jQXn1Fh6Mf13,,,,,,,,,,,,,,,,,chosen stimuli: images/choice_trial_15.png,,,,,59269aac7724de000109190f,09:05:51,27/02/2024
html-keyboard-response,196,487873,0.0-81.0-2.0,,,,delaylearn,learning,feedback_duration_window,NeXZwmX2ksSAQ5m3jQXn1Fh6Mf13,NeXZwmX2ksSAQ5m3jQXn1Fh6Mf13,,,,,,,,,,,,,,,,,,7000.0,,,,59269aac7724de000109190f,09:05:51,27/02/2024
html-keyboard-response,197,489377,0.0-81.0-3.0,,<div style='margin:auto;width: auto; font-size: 150%'><span style='font-weight: bold; font-size: 100px; color: red;'>0 points!</span><br><br></div>,,delaylearn,learning,feedback_image_window,NeXZwmX2ksSAQ5m3jQXn1Fh6Mf13,NeXZwmX2ksSAQ5m3jQXn1Fh6Mf13,,,,,,,,,,,,,,,,,,,,,,59269aac7724de000109190f,09:05:51,27/02/2024
html-keyboard-response,198,491707,0.0-82.0,,"<div style=""font-size:100px;"">+</div>",,delaylearn,learning,ITI,NeXZwmX2ksSAQ5m3jQXn1Fh6Mf13,NeXZwmX2ksSAQ5m3jQXn1Fh6Mf13,,,,,,,,,,,,,,,,,,,2328.0,,,59269aac7724de000109190f,09:05:51,27/02/2024
html-keyboard-response,199,493464,0.0-83.0-0.0,1751.2000000001863,"<div style=""display: flex; flex-direction: column; align-items: center; margin-top: -40px;""><img src=""images/pattern_7.png"" style=""width: 234px; height: 230px; margin-top: -50px;""><div style=""display: flex; justify-content: space-between; margin-top: 33px;""><img src=""images/choice_trial_6.png"" style=""width: 408px; height: 417px; margin-right: 200px;""><img src=""images/choice_trial_12.png"" style=""width: 408px; height: 417px;""></div></div>",f,delaylearn,learning,trial,NeXZwmX2ksSAQ5m3jQXn1Fh6Mf13,NeXZwmX2ksSAQ5m3jQXn1Fh6Mf13,3.0,images/choice_trial_6.png,images/choice_trial_12.png,images/pattern_7.png,f,f,750.0,6.0,12.0,6.0,0.0,36.0,1.0,1.0,6.0,200.0,,,,,,59269aac7724de000109190f,09:05:51,27/02/2024
html-keyboard-response,200,494469,0.0-83.0-1.0,,"<div style=""display: flex; flex-direction: column; align-items: center; margin-top: -40px;""><img src=""images/pattern_7.png"" style=""width: 234px; height: 230px; margin-top: -50px;""><div style=""display: flex; justify-content: space-between; margin-top: 33px;""><img src=""images/choice_trial_6.png"" style=""width: 408px; height: 417px; margin-right: 608px;""></div></div>",,delaylearn,learning,display_response,NeXZwmX2ksSAQ5m3jQXn1Fh6Mf13,NeXZwmX2ksSAQ5m3jQXn1Fh6Mf13,,,,,,,,,,,,,,,,,chosen stimuli: images/choice_trial_6.png,,,,,59269aac7724de000109190f,09:05:51,27/02/2024
html-keyboard-response,201,495222,0.0-83.0-2.0,,,,delaylearn,learning,feedback_duration_window,NeXZwmX2ksSAQ5m3jQXn1Fh6Mf13,NeXZwmX2ksSAQ5m3jQXn1Fh6Mf13,,,,,,,,,,,,,,,,,,750.0,,,,59269aac7724de000109190f,09:05:51,27/02/2024
html-keyboard-response,202,496725,0.0-83.0-3.0,,<div style='margin:auto;width: auto; font-size: 150%'><span style='font-weight: bold; font-size: 100px; color: green;'>+10 points!</span><br><br></div>,,delaylearn,learning,feedback_image_window,NeXZwmX2ksSAQ5m3jQXn1Fh6Mf13,NeXZwmX2ksSAQ5m3jQXn1Fh6Mf13,,,,,,,,,,,,,,,,,,,,,,59269aac7724de000109190f,09:05:51,27/02/2024
html-keyboard-response,203,498338,0.0-84.0,,"<div style=""font-size:100px;"">+</div>",,delaylearn,learning,ITI,NeXZwmX2ksSAQ5m3jQXn1Fh6Mf13,NeXZwmX2ksSAQ5m3jQXn1Fh6Mf13,,,,,,,,,,,,,,,,,,,1611.0,,,59269aac7724de000109190f,09:05:51,27/02/2024
html-keyboard-response,204,499614,0.0-85.0-0.0,1272.699999999255,"<div style=""display: flex; flex-direction: column; align-items: center; margin-top: -40px;""><img src=""images/pattern_1.png"" style=""width: 234px; height: 230px; margin-top: -50px;""><div style=""display: flex; justify-content: space-between; margin-top: 33px;""><img src=""images/choice_trial_14.png"" style=""width: 408px; height: 417px; margin-right: 200px;""><img src=""images/choice_trial_8.png"" style=""width: 408px; height: 417px;""></div></div>",f,delaylearn,learning,trial,NeXZwmX2ksSAQ5m3jQXn1Fh6Mf13,NeXZwmX2ksSAQ5m3jQXn1Fh6Mf13,3.0,images/choice_trial_14.png,images/choice_trial_8.png,images/pattern_1.png,f,f,7000.0,14.0,8.0,1.0,0.0,37.0,1.0,1.0,14.0,210.0,,,,,,59269aac7724de000109190f,09:05:51,27/02/2024
html-keyboard-response,205,500618,0.0-85.0-1.0,,"<div style=""display: flex; flex-direction: column; align-items: center; margin-top: -40px;""><img src=""images/pattern_1.png"" style=""width: 234px; height: 230px; margin-top: -50px;""><div style=""display: flex; justify-content: space-between; margin-top: 33px;""><img src=""images/choice_trial_14.png"" style=""width: 408px; height: 417px; margin-right: 608px;""></div></div>",,delaylearn,learning,display_response,NeXZwmX2ksSAQ5m3jQXn1Fh6Mf13,NeXZwmX2ksSAQ5m3jQXn1Fh6Mf13,,,,,,,,,,,,,,,,,chosen stimuli: images/choice_trial_14.png,,,,,59269aac7724de000109190f,09:05:51,27/02/2024
html-keyboard-response,206,507621,0.0-85.0-2.0,,,,delaylearn,learning,feedback_duration_window,NeXZwmX2ksSAQ5m3jQXn1Fh6Mf13,NeXZwmX2ksSAQ5m3jQXn1Fh6Mf13,,,,,,,,,,,,,,,,,,7000.0,,,,59269aac7724de000109190f,09:05:51,27/02/2024
html-keyboard-response,207,509124,0.0-85.0-3.0,,<div style='margin:auto;width: auto; font-size: 150%'><span style='font-weight: bold; font-size: 100px; color: green;'>+10 points!</span><br><br></div>,,delaylearn,learning,feedback_image_window,NeXZwmX2ksSAQ5m3jQXn1Fh6Mf13,NeXZwmX2ksSAQ5m3jQXn1Fh6Mf13,,,,,,,,,,,,,,,,,,,,,,59269aac7724de000109190f,09:05:51,27/02/2024
html-keyboard-response,208,509627,0.0-86.0-0.0,,,,,,mood_trial_fixation,NeXZwmX2ksSAQ5m3jQXn1Fh6Mf13,,,,,,,,,,,,,,,,,,,,,,,59269aac7724de000109190f,09:05:51,27/02/2024
lmdlab-html-vas-response,209,513542,0.0-86.0-1.0,2908.0,How happy are you right now?,0.7237894988924427,delaylearn,learning,mood_trial,NeXZwmX2ksSAQ5m3jQXn1Fh6Mf13,NeXZwmX2ksSAQ5m3jQXn1Fh6Mf13,,,,,,,,,,,,,,,,,,,,"['Very unhappy', 'Very happy']",,59269aac7724de000109190f,09:05:51,27/02/2024
html-keyboard-response,210,515579,0.0-87.0,,"<div style=""font-size:100px;"">+</div>",,delaylearn,learning,ITI,NeXZwmX2ksSAQ5m3jQXn1Fh6Mf13,NeXZwmX2ksSAQ5m3jQXn1Fh6Mf13,,,,,,,,,,,,,,,,,,,2035.0,,,59269aac7724de000109190f,09:05:51,27/02/2024
html-keyboard-response,211,517733,0.0-88.0-0.0,2152.100000000559,"<div style=""display: flex; flex-direction: column; align-items: center; margin-top: -40px;""><img src=""images/pattern_3.png"" style=""width: 234px; height: 230px; margin-top: -50px;""><div style=""display: flex; justify-content: space-between; margin-top: 33px;""><img src=""images/choice_trial_13.png"" style=""width: 408px; height: 417px; margin-right: 200px;""><img src=""images/choice_trial_10.png"" style=""width: 408px; height: 417px;""></div></div>",f,delaylearn,learning,trial,NeXZwmX2ksSAQ5m3jQXn1Fh6Mf13,NeXZwmX2ksSAQ5m3jQXn1Fh6Mf13,3.0,images/choice_trial_13.png,images/choice_trial_10.png,images/pattern_3.png,j,f,7000.0,13.0,10.0,2.0,0.0,38.0,1.0,0.0,13.0,210.0,,,,,,59269aac7724de000109190f,09:05:51,27/02/2024
html-keyboard-response,212,518736,0.0-88.0-1.0,,"<div style=""display: flex; flex-direction: column; align-items: center; margin-top: -40px;""><img src=""images/pattern_3.png"" style=""width: 234px; height: 230px; margin-top: -50px;""><div style=""display: flex; justify-content: space-between; margin-top: 33px;""><img src=""images/choice_trial_13.png"" style=""width: 408px; height: 417px; margin-right: 608px;""></div></div>",,delaylearn,learning,display_response,NeXZwmX2ksSAQ5m3jQXn1Fh6Mf13,NeXZwmX2ksSAQ5m3jQXn1Fh6Mf13,,,,,,,,,,,,,,,,,chosen stimuli: images/choice_trial_13.png,,,,,59269aac7724de000109190f,09:05:51,27/02/2024
html-keyboard-response,213,525737,0.0-88.0-2.0,,,,delaylearn,learning,feedback_duration_window,NeXZwmX2ksSAQ5m3jQXn1Fh6Mf13,NeXZwmX2ksSAQ5m3jQXn1Fh6Mf13,,,,,,,,,,,,,,,,,,7000.0,,,,59269aac7724de000109190f,09:05:51,27/02/2024
html-keyboard-response,214,527239,0.0-88.0-3.0,,<div style='margin:auto;width: auto; font-size: 150%'><span style='font-weight: bold; font-size: 100px; color: red;'>0 points!</span><br><br></div>,,delaylearn,learning,feedback_image_window,NeXZwmX2ksSAQ5m3jQXn1Fh6Mf13,NeXZwmX2ksSAQ5m3jQXn1Fh6Mf13,,,,,,,,,,,,,,,,,,,,,,59269aac7724de000109190f,09:05:51,27/02/2024
html-keyboard-response,215,529707,0.0-89.0,,"<div style=""font-size:100px;"">+</div>",,delaylearn,learning,ITI,NeXZwmX2ksSAQ5m3jQXn1Fh6Mf13,NeXZwmX2ksSAQ5m3jQXn1Fh6Mf13,,,,,,,,,,,,,,,,,,,2467.0,,,59269aac7724de000109190f,09:05:51,27/02/2024
html-keyboard-response,216,531628,0.0-90.0-0.0,1917.7000000001863,"<div style=""display: flex; flex-direction: column; align-items: center; margin-top: -40px;""><img src=""images/pattern_7.png"" style=""width: 234px; height: 230px; margin-top: -50px;""><div style=""display: flex; justify-content: space-between; margin-top: 33px;""><img src=""images/choice_trial_12.png"" style=""width: 408px; height: 417px; margin-right: 200px;""><img src=""images/choice_trial_6.png"" style=""width: 408px; height: 417px;""></div></div>",j,delaylearn,learning,trial,NeXZwmX2ksSAQ5m3jQXn1Fh6Mf13,NeXZwmX2ksSAQ5m3jQXn1Fh6Mf13,3.0,images/choice_trial_12.png,images/choice_trial_6.png,images/pattern_7.png,j,j,750.0,12.0,6.0,6.0,1.0,39.0,1.0,1.0,6.0,220.0,,,,,,59269aac7724de000109190f,09:05:51,27/02/2024
html-keyboard-response,217,532630,0.0-90.0-1.0,,"<div style=""display: flex; flex-direction: column; align-items: center; margin-top: -40px;""><img src=""images/pattern_7.png"" style=""width: 234px; height: 230px; margin-top: -50px;""><div style=""display: flex; justify-content: space-between; margin-top: 33px;""><img src=""images/choice_trial_6.png"" style=""width: 408px; height: 417px; margin-left:608px;""></div></div>",,delaylearn,learning,display_response,NeXZwmX2ksSAQ5m3jQXn1Fh6Mf13,NeXZwmX2ksSAQ5m3jQXn1Fh6Mf13,,,,,,,,,,,,,,,,,chosen stimuli: images/choice_trial_6.png,,,,,59269aac7724de000109190f,09:05:51,27/02/2024
html-keyboard-response,218,533381,0.0-90.0-2.0,,,,delaylearn,learning,feedback_duration_window,NeXZwmX2ksSAQ5m3jQXn1Fh6Mf13,NeXZwmX2ksSAQ5m3jQXn1Fh6Mf13,,,,,,,,,,,,,,,,,,750.0,,,,59269aac7724de000109190f,09:05:51,27/02/2024
html-keyboard-response,219,534883,0.0-90.0-3.0,,<div style='margin:auto;width: auto; font-size: 150%'><span style='font-weight: bold; font-size: 100px; color: green;'>+10 points!</span><br><br></div>,,delaylearn,learning,feedback_image_window,NeXZwmX2ksSAQ5m3jQXn1Fh6Mf13,NeXZwmX2ksSAQ5m3jQXn1Fh6Mf13,,,,,,,,,,,,,,,,,,,,,,59269aac7724de000109190f,09:05:51,27/02/2024
html-keyboard-response,220,536520,0.0-91.0,,"<div style=""font-size:100px;"">+</div>",,delaylearn,learning,ITI,NeXZwmX2ksSAQ5m3jQXn1Fh6Mf13,NeXZwmX2ksSAQ5m3jQXn1Fh6Mf13,,,,,,,,,,,,,,,,,,,1636.0,,,59269aac7724de000109190f,09:05:51,27/02/2024
html-keyboard-response,221,538409,0.0-92.0-0.0,1886.4000000003725,"<div style=""display: flex; flex-direction: column; align-items: center; margin-top: -40px;""><img src=""images/pattern_5.png"" style=""width: 234px; height: 230px; margin-top: -50px;""><div style=""display: flex; justify-content: space-between; margin-top: 33px;""><img src=""images/choice_trial_2.png"" style=""width: 408px; height: 417px; margin-right: 200px;""><img src=""images/choice_trial_11.png"" style=""width: 408px; height: 417px;""></div></div>",j,delaylearn,learning,trial,NeXZwmX2ksSAQ5m3jQXn1Fh6Mf13,NeXZwmX2ksSAQ5m3jQXn1Fh6Mf13,3.0,images/choice_trial_2.png,images/choice_trial_11.png,images/pattern_5.png,j,j,750.0,2.0,11.0,4.0,1.0,40.0,1.0,1.0,11.0,230.0,,,,,,59269aac7724de000109190f,09:05:51,27/02/2024
html-keyboard-response,222,539411,0.0-92.0-1.0,,"<div style=""display: flex; flex-direction: column; align-items: center; margin-top: -40px;""><img src=""images/pattern_5.png"" style=""width: 234px; height: 230px; margin-top: -50px;""><div style=""display: flex; justify-content: space-between; margin-top: 33px;""><img src=""images/choice_trial_11.png"" style=""width: 408px; height: 417px; margin-left:608px;""></div></div>",,delaylearn,learning,display_response,NeXZwmX2ksSAQ5m3jQXn1Fh6Mf13,NeXZwmX2ksSAQ5m3jQXn1Fh6Mf13,,,,,,,,,,,,,,,,,chosen stimuli: images/choice_trial_11.png,,,,,59269aac7724de000109190f,09:05:51,27/02/2024
html-keyboard-response,223,540162,0.0-92.0-2.0,,,,delaylearn,learning,feedback_duration_window,NeXZwmX2ksSAQ5m3jQXn1Fh6Mf13,NeXZwmX2ksSAQ5m3jQXn1Fh6Mf13,,,,,,,,,,,,,,,,,,750.0,,,,59269aac7724de000109190f,09:05:51,27/02/2024
html-keyboard-response,224,541664,0.0-92.0-3.0,,<div style='margin:auto;width: auto; font-size: 150%'><span style='font-weight: bold; font-size: 100px; color: green;'>+10 points!</span><br><br></div>,,delaylearn,learning,feedback_image_window,NeXZwmX2ksSAQ5m3jQXn1Fh6Mf13,NeXZwmX2ksSAQ5m3jQXn1Fh6Mf13,,,,,,,,,,,,,,,,,,,,,,59269aac7724de000109190f,09:05:51,27/02/2024
html-keyboard-response,225,542165,0.0-93.0-0.0,,,,,,mood_trial_fixation,NeXZwmX2ksSAQ5m3jQXn1Fh6Mf13,,,,,,,,,,,,,,,,,,,,,,,59269aac7724de000109190f,09:05:51,27/02/2024
lmdlab-html-vas-response,226,546199,0.0-93.0-1.0,3028.0,How happy are you right now?,0.6774932047764717,delaylearn,learning,mood_trial,NeXZwmX2ksSAQ5m3jQXn1Fh6Mf13,NeXZwmX2ksSAQ5m3jQXn1Fh6Mf13,,,,,,,,,,,,,,,,,,,,"['Very unhappy', 'Very happy']",,59269aac7724de000109190f,09:05:51,27/02/2024
html-keyboard-response,227,547871,0.0-94.0,,"<div style=""font-size:100px;"">+</div>",,delaylearn,learning,ITI,NeXZwmX2ksSAQ5m3jQXn1Fh6Mf13,NeXZwmX2ksSAQ5m3jQXn1Fh6Mf13,,,,,,,,,,,,,,,,,,,1670.0,,,59269aac7724de000109190f,09:05:51,27/02/2024
html-keyboard-response,228,549296,0.0-95.0-0.0,1421.5,"<div style=""display: flex; flex-direction: column; align-items: center; margin-top: -40px;""><img src=""images/pattern_4.png"" style=""width: 234px; height: 230px; margin-top: -50px;""><div style=""display: flex; justify-content: space-between; margin-top: 33px;""><img src=""images/choice_trial_15.png"" style=""width: 408px; height: 417px; margin-right: 200px;""><img src=""images/choice_trial_9.png"" style=""width: 408px; height: 417px;""></div></div>",f,delaylearn,learning,trial,NeXZwmX2ksSAQ5m3jQXn1Fh6Mf13,NeXZwmX2ksSAQ5m3jQXn1Fh6Mf13,3.0,images/choice_trial_15.png,images/choice_trial_9.png,images/pattern_4.png,f,f,7000.0,15.0,9.0,3.0,0.0,41.0,1.0,1.0,15.0,240.0,,,,,,59269aac7724de000109190f,09:05:51,27/02/2024
html-keyboard-response,229,550299,0.0-95.0-1.0,,"<div style=""display: flex; flex-direction: column; align-items: center; margin-top: -40px;""><img src=""images/pattern_4.png"" style=""width: 234px; height: 230px; margin-top: -50px;""><div style=""display: flex; justify-content: space-between; margin-top: 33px;""><img src=""images/choice_trial_15.png"" style=""width: 408px; height: 417px; margin-right: 608px;""></div></div>",,delaylearn,learning,display_response,NeXZwmX2ksSAQ5m3jQXn1Fh6Mf13,NeXZwmX2ksSAQ5m3jQXn1Fh6Mf13,,,,,,,,,,,,,,,,,chosen stimuli: images/choice_trial_15.png,,,,,59269aac7724de000109190f,09:05:51,27/02/2024
html-keyboard-response,230,557301,0.0-95.0-2.0,,,,delaylearn,learning,feedback_duration_window,NeXZwmX2ksSAQ5m3jQXn1Fh6Mf13,NeXZwmX2ksSAQ5m3jQXn1Fh6Mf13,,,,,,,,,,,,,,,,,,7000.0,,,,59269aac7724de000109190f,09:05:51,27/02/2024
html-keyboard-response,231,558803,0.0-95.0-3.0,,<div style='margin:auto;width: auto; font-size: 150%'><span style='font-weight: bold; font-size: 100px; color: green;'>+10 points!</span><br><br></div>,,delaylearn,learning,feedback_image_window,NeXZwmX2ksSAQ5m3jQXn1Fh6Mf13,NeXZwmX2ksSAQ5m3jQXn1Fh6Mf13,,,,,,,,,,,,,,,,,,,,,,59269aac7724de000109190f,09:05:51,27/02/2024
