trial_type,trial_index,time_elapsed,internal_node_id,rt,stimulus,response,exp_name,exp_stage,test_part,subjectID,databaseID,counterbal,choice_stimuli_1,choice_stimuli_2,pattern_stimuli,rewarded_answer,correct_answer,feedback_duration_times,stim_left,stim_right,pair,leftright_counter,trial,response_correct,response_rewarded,chosen_stim,counter,displayed_choice,feedback_durations,ITI_duration,labels,rest_warning,prolificID,start_time,date
pavlovia,0,526,0.0-0.0,,,,,,,vRXGXiaJLCdYrnxYqBohs4NChQt2,,,,,,,,,,,,,,,,,,,,,,,5fecdbad0b1a449e3288b07b,16:49:32,27/03/2024
html-keyboard-response,1,3531,0.0-1.0,,"<div style=""font-size:100px;"">+</div>",,delaylearn,learning,pre_fixation,vRXGXiaJLCdYrnxYqBohs4NChQt2,,,,,,,,,,,,,,,,,,,,,,,5fecdbad0b1a449e3288b07b,16:49:32,27/03/2024
html-keyboard-response,2,4732,0.0-2.0-0.0,1199.4000000059605,"<div style=""display: flex; flex-direction: column; align-items: center; margin-top: -40px;""><img src=""images/demo_images/pattern_1.png"" style=""width: 234px; height: 230px; margin-top: -50px;""><div style=""display: flex; justify-content: space-between; margin-top: 33px;""><img src=""images/demo_images/choice_trial_2.png"" style=""width: 408px; height: 417px; margin-right: 200px;""><img src=""images/demo_images/choice_trial_1.png"" style=""width: 408px; height: 417px;""></div></div>",f,delaylearn,learning,trial,vRXGXiaJLCdYrnxYqBohs4NChQt2,vRXGXiaJLCdYrnxYqBohs4NChQt2,4.0,images/demo_images/choice_trial_2.png,images/demo_images/choice_trial_1.png,images/demo_images/pattern_1.png,j,j,3000.0,2.0,1.0,20.0,1.0,1.0,0.0,0.0,2.0,0.0,,,,,,5fecdbad0b1a449e3288b07b,16:49:32,27/03/2024
html-keyboard-response,3,5745,0.0-2.0-1.0,,"<div style=""display: flex; flex-direction: column; align-items: center; margin-top: -40px;""><img src=""images/demo_images/pattern_1.png"" style=""width: 234px; height: 230px; margin-top: -50px;""><div style=""display: flex; justify-content: space-between; margin-top: 33px;""><img src=""images/demo_images/choice_trial_2.png"" style=""width: 408px; height: 417px; margin-right: 608px;""></div></div>",,delaylearn,learning,display_response,vRXGXiaJLCdYrnxYqBohs4NChQt2,vRXGXiaJLCdYrnxYqBohs4NChQt2,,,,,,,,,,,,,,,,,chosen stimuli: images/demo_images/choice_trial_2.png,,,,,5fecdbad0b1a449e3288b07b,16:49:32,27/03/2024
html-keyboard-response,4,8751,0.0-2.0-2.0,,,,delaylearn,learning,feedback_duration_window,vRXGXiaJLCdYrnxYqBohs4NChQt2,vRXGXiaJLCdYrnxYqBohs4NChQt2,,,,,,,,,,,,,,,,,,3000.0,,,,5fecdbad0b1a449e3288b07b,16:49:32,27/03/2024
html-keyboard-response,5,10254,0.0-2.0-3.0,,<div style='margin:auto;width: auto; font-size: 150%'><span style='font-weight: bold; font-size: 100px; color: red;'>0 points!</span><br><br></div>,,delaylearn,learning,feedback_image_window,vRXGXiaJLCdYrnxYqBohs4NChQt2,vRXGXiaJLCdYrnxYqBohs4NChQt2,,,,,,,,,,,,,,,,,,,,,,5fecdbad0b1a449e3288b07b,16:49:32,27/03/2024
html-keyboard-response,6,12474,0.0-3.0,,"<div style=""font-size:100px;"">+</div>",,delaylearn,learning,ITI,vRXGXiaJLCdYrnxYqBohs4NChQt2,vRXGXiaJLCdYrnxYqBohs4NChQt2,,,,,,,,,,,,,,,,,,,2204.0,,,5fecdbad0b1a449e3288b07b,16:49:32,27/03/2024
html-keyboard-response,7,13132,0.0-4.0-0.0,656.2000000029802,"<div style=""display: flex; flex-direction: column; align-items: center; margin-top: -40px;""><img src=""images/demo_images/pattern_1.png"" style=""width: 234px; height: 230px; margin-top: -50px;""><div style=""display: flex; justify-content: space-between; margin-top: 33px;""><img src=""images/demo_images/choice_trial_2.png"" style=""width: 408px; height: 417px; margin-right: 200px;""><img src=""images/demo_images/choice_trial_1.png"" style=""width: 408px; height: 417px;""></div></div>",j,delaylearn,learning,trial,vRXGXiaJLCdYrnxYqBohs4NChQt2,vRXGXiaJLCdYrnxYqBohs4NChQt2,4.0,images/demo_images/choice_trial_2.png,images/demo_images/choice_trial_1.png,images/demo_images/pattern_1.png,j,j,3000.0,2.0,1.0,20.0,1.0,2.0,1.0,1.0,1.0,10.0,,,,,,5fecdbad0b1a449e3288b07b,16:49:32,27/03/2024
html-keyboard-response,8,14143,0.0-4.0-1.0,,"<div style=""display: flex; flex-direction: column; align-items: center; margin-top: -40px;""><img src=""images/demo_images/pattern_1.png"" style=""width: 234px; height: 230px; margin-top: -50px;""><div style=""display: flex; justify-content: space-between; margin-top: 33px;""><img src=""images/demo_images/choice_trial_1.png"" style=""width: 408px; height: 417px; margin-left:608px;""></div></div>",,delaylearn,learning,display_response,vRXGXiaJLCdYrnxYqBohs4NChQt2,vRXGXiaJLCdYrnxYqBohs4NChQt2,,,,,,,,,,,,,,,,,chosen stimuli: images/demo_images/choice_trial_1.png,,,,,5fecdbad0b1a449e3288b07b,16:49:32,27/03/2024
html-keyboard-response,9,17155,0.0-4.0-2.0,,,,delaylearn,learning,feedback_duration_window,vRXGXiaJLCdYrnxYqBohs4NChQt2,vRXGXiaJLCdYrnxYqBohs4NChQt2,,,,,,,,,,,,,,,,,,3000.0,,,,5fecdbad0b1a449e3288b07b,16:49:32,27/03/2024
html-keyboard-response,10,18668,0.0-4.0-3.0,,<div style='margin:auto;width: auto; font-size: 150%'><span style='font-weight: bold; font-size: 100px; color: green;'>+10 points!</span><br><br></div>,,delaylearn,learning,feedback_image_window,vRXGXiaJLCdYrnxYqBohs4NChQt2,vRXGXiaJLCdYrnxYqBohs4NChQt2,,,,,,,,,,,,,,,,,,,,,,5fecdbad0b1a449e3288b07b,16:49:32,27/03/2024
html-keyboard-response,11,20496,0.0-5.0,,"<div style=""font-size:100px;"">+</div>",,delaylearn,learning,ITI,vRXGXiaJLCdYrnxYqBohs4NChQt2,vRXGXiaJLCdYrnxYqBohs4NChQt2,,,,,,,,,,,,,,,,,,,1812.0,,,5fecdbad0b1a449e3288b07b,16:49:32,27/03/2024
html-keyboard-response,12,21467,0.0-6.0-0.0,970.0,"<div style=""display: flex; flex-direction: column; align-items: center; margin-top: -40px;""><img src=""images/demo_images/pattern_1.png"" style=""width: 234px; height: 230px; margin-top: -50px;""><div style=""display: flex; justify-content: space-between; margin-top: 33px;""><img src=""images/demo_images/choice_trial_1.png"" style=""width: 408px; height: 417px; margin-right: 200px;""><img src=""images/demo_images/choice_trial_2.png"" style=""width: 408px; height: 417px;""></div></div>",f,delaylearn,learning,trial,vRXGXiaJLCdYrnxYqBohs4NChQt2,vRXGXiaJLCdYrnxYqBohs4NChQt2,4.0,images/demo_images/choice_trial_1.png,images/demo_images/choice_trial_2.png,images/demo_images/pattern_1.png,j,f,3000.0,1.0,2.0,20.0,0.0,3.0,1.0,0.0,1.0,10.0,,,,,,5fecdbad0b1a449e3288b07b,16:49:32,27/03/2024
html-keyboard-response,13,22475,0.0-6.0-1.0,,"<div style=""display: flex; flex-direction: column; align-items: center; margin-top: -40px;""><img src=""images/demo_images/pattern_1.png"" style=""width: 234px; height: 230px; margin-top: -50px;""><div style=""display: flex; justify-content: space-between; margin-top: 33px;""><img src=""images/demo_images/choice_trial_1.png"" style=""width: 408px; height: 417px; margin-right: 608px;""></div></div>",,delaylearn,learning,display_response,vRXGXiaJLCdYrnxYqBohs4NChQt2,vRXGXiaJLCdYrnxYqBohs4NChQt2,,,,,,,,,,,,,,,,,chosen stimuli: images/demo_images/choice_trial_1.png,,,,,5fecdbad0b1a449e3288b07b,16:49:32,27/03/2024
html-keyboard-response,14,25489,0.0-6.0-2.0,,,,delaylearn,learning,feedback_duration_window,vRXGXiaJLCdYrnxYqBohs4NChQt2,vRXGXiaJLCdYrnxYqBohs4NChQt2,,,,,,,,,,,,,,,,,,3000.0,,,,5fecdbad0b1a449e3288b07b,16:49:32,27/03/2024
html-keyboard-response,15,26997,0.0-6.0-3.0,,<div style='margin:auto;width: auto; font-size: 150%'><span style='font-weight: bold; font-size: 100px; color: red;'>0 points!</span><br><br></div>,,delaylearn,learning,feedback_image_window,vRXGXiaJLCdYrnxYqBohs4NChQt2,vRXGXiaJLCdYrnxYqBohs4NChQt2,,,,,,,,,,,,,,,,,,,,,,5fecdbad0b1a449e3288b07b,16:49:32,27/03/2024
html-keyboard-response,16,29283,0.0-7.0,,"<div style=""font-size:100px;"">+</div>",,delaylearn,learning,ITI,vRXGXiaJLCdYrnxYqBohs4NChQt2,vRXGXiaJLCdYrnxYqBohs4NChQt2,,,,,,,,,,,,,,,,,,,2283.0,,,5fecdbad0b1a449e3288b07b,16:49:32,27/03/2024
html-keyboard-response,17,30101,0.0-8.0-0.0,817.6999999880791,"<div style=""display: flex; flex-direction: column; align-items: center; margin-top: -40px;""><img src=""images/demo_images/pattern_1.png"" style=""width: 234px; height: 230px; margin-top: -50px;""><div style=""display: flex; justify-content: space-between; margin-top: 33px;""><img src=""images/demo_images/choice_trial_1.png"" style=""width: 408px; height: 417px; margin-right: 200px;""><img src=""images/demo_images/choice_trial_2.png"" style=""width: 408px; height: 417px;""></div></div>",j,delaylearn,learning,trial,vRXGXiaJLCdYrnxYqBohs4NChQt2,vRXGXiaJLCdYrnxYqBohs4NChQt2,4.0,images/demo_images/choice_trial_1.png,images/demo_images/choice_trial_2.png,images/demo_images/pattern_1.png,f,f,3000.0,1.0,2.0,20.0,0.0,4.0,0.0,0.0,2.0,10.0,,,,,,5fecdbad0b1a449e3288b07b,16:49:32,27/03/2024
html-keyboard-response,18,31112,0.0-8.0-1.0,,"<div style=""display: flex; flex-direction: column; align-items: center; margin-top: -40px;""><img src=""images/demo_images/pattern_1.png"" style=""width: 234px; height: 230px; margin-top: -50px;""><div style=""display: flex; justify-content: space-between; margin-top: 33px;""><img src=""images/demo_images/choice_trial_2.png"" style=""width: 408px; height: 417px; margin-left:608px;""></div></div>",,delaylearn,learning,display_response,vRXGXiaJLCdYrnxYqBohs4NChQt2,vRXGXiaJLCdYrnxYqBohs4NChQt2,,,,,,,,,,,,,,,,,chosen stimuli: images/demo_images/choice_trial_2.png,,,,,5fecdbad0b1a449e3288b07b,16:49:32,27/03/2024
html-keyboard-response,19,34119,0.0-8.0-2.0,,,,delaylearn,learning,feedback_duration_window,vRXGXiaJLCdYrnxYqBohs4NChQt2,vRXGXiaJLCdYrnxYqBohs4NChQt2,,,,,,,,,,,,,,,,,,3000.0,,,,5fecdbad0b1a449e3288b07b,16:49:32,27/03/2024
html-keyboard-response,20,35633,0.0-8.0-3.0,,<div style='margin:auto;width: auto; font-size: 150%'><span style='font-weight: bold; font-size: 100px; color: red;'>0 points!</span><br><br></div>,,delaylearn,learning,feedback_image_window,vRXGXiaJLCdYrnxYqBohs4NChQt2,vRXGXiaJLCdYrnxYqBohs4NChQt2,,,,,,,,,,,,,,,,,,,,,,5fecdbad0b1a449e3288b07b,16:49:32,27/03/2024
html-keyboard-response,21,36146,0.0-9.0-0.0,,,,,,mood_trial_fixation,vRXGXiaJLCdYrnxYqBohs4NChQt2,,,,,,,,,,,,,,,,,,,,,,,5fecdbad0b1a449e3288b07b,16:49:32,27/03/2024
lmdlab-html-vas-response,22,41070,0.0-9.0-1.0,3912.0,How happy are you right now?,0.8547453350490994,delaylearn,learning,mood_trial,vRXGXiaJLCdYrnxYqBohs4NChQt2,vRXGXiaJLCdYrnxYqBohs4NChQt2,,,,,,,,,,,,,,,,,,,,"['Very unhappy', 'Very happy']",,5fecdbad0b1a449e3288b07b,16:49:32,27/03/2024
html-keyboard-response,23,43224,0.0-10.0,,"<div style=""font-size:100px;"">+</div>",,delaylearn,learning,ITI,vRXGXiaJLCdYrnxYqBohs4NChQt2,vRXGXiaJLCdYrnxYqBohs4NChQt2,,,,,,,,,,,,,,,,,,,2143.0,,,5fecdbad0b1a449e3288b07b,16:49:32,27/03/2024
html-keyboard-response,24,44526,0.0-11.0-0.0,1300.699999988079,"<div style=""display: flex; flex-direction: column; align-items: center; margin-top: -40px;""><img src=""images/demo_images/pattern_1.png"" style=""width: 234px; height: 230px; margin-top: -50px;""><div style=""display: flex; justify-content: space-between; margin-top: 33px;""><img src=""images/demo_images/choice_trial_2.png"" style=""width: 408px; height: 417px; margin-right: 200px;""><img src=""images/demo_images/choice_trial_1.png"" style=""width: 408px; height: 417px;""></div></div>",j,delaylearn,learning,trial,vRXGXiaJLCdYrnxYqBohs4NChQt2,vRXGXiaJLCdYrnxYqBohs4NChQt2,4.0,images/demo_images/choice_trial_2.png,images/demo_images/choice_trial_1.png,images/demo_images/pattern_1.png,j,j,3000.0,2.0,1.0,20.0,1.0,5.0,1.0,1.0,1.0,20.0,,,,,,5fecdbad0b1a449e3288b07b,16:49:32,27/03/2024
html-keyboard-response,25,45537,0.0-11.0-1.0,,"<div style=""display: flex; flex-direction: column; align-items: center; margin-top: -40px;""><img src=""images/demo_images/pattern_1.png"" style=""width: 234px; height: 230px; margin-top: -50px;""><div style=""display: flex; justify-content: space-between; margin-top: 33px;""><img src=""images/demo_images/choice_trial_1.png"" style=""width: 408px; height: 417px; margin-left:608px;""></div></div>",,delaylearn,learning,display_response,vRXGXiaJLCdYrnxYqBohs4NChQt2,vRXGXiaJLCdYrnxYqBohs4NChQt2,,,,,,,,,,,,,,,,,chosen stimuli: images/demo_images/choice_trial_1.png,,,,,5fecdbad0b1a449e3288b07b,16:49:32,27/03/2024
html-keyboard-response,26,48540,0.0-11.0-2.0,,,,delaylearn,learning,feedback_duration_window,vRXGXiaJLCdYrnxYqBohs4NChQt2,vRXGXiaJLCdYrnxYqBohs4NChQt2,,,,,,,,,,,,,,,,,,3000.0,,,,5fecdbad0b1a449e3288b07b,16:49:32,27/03/2024
html-keyboard-response,27,50057,0.0-11.0-3.0,,<div style='margin:auto;width: auto; font-size: 150%'><span style='font-weight: bold; font-size: 100px; color: green;'>+10 points!</span><br><br></div>,,delaylearn,learning,feedback_image_window,vRXGXiaJLCdYrnxYqBohs4NChQt2,vRXGXiaJLCdYrnxYqBohs4NChQt2,,,,,,,,,,,,,,,,,,,,,,5fecdbad0b1a449e3288b07b,16:49:32,27/03/2024
html-keyboard-response,28,51582,0.0-12.0,,"<div style=""font-size:100px;"">+</div>",,delaylearn,learning,ITI,vRXGXiaJLCdYrnxYqBohs4NChQt2,vRXGXiaJLCdYrnxYqBohs4NChQt2,,,,,,,,,,,,,,,,,,,1509.0,,,5fecdbad0b1a449e3288b07b,16:49:32,27/03/2024
html-keyboard-response,29,52823,0.0-13.0-0.0,1240.699999988079,"<div style=""display: flex; flex-direction: column; align-items: center; margin-top: -40px;""><img src=""images/demo_images/pattern_1.png"" style=""width: 234px; height: 230px; margin-top: -50px;""><div style=""display: flex; justify-content: space-between; margin-top: 33px;""><img src=""images/demo_images/choice_trial_1.png"" style=""width: 408px; height: 417px; margin-right: 200px;""><img src=""images/demo_images/choice_trial_2.png"" style=""width: 408px; height: 417px;""></div></div>",f,delaylearn,learning,trial,vRXGXiaJLCdYrnxYqBohs4NChQt2,vRXGXiaJLCdYrnxYqBohs4NChQt2,4.0,images/demo_images/choice_trial_1.png,images/demo_images/choice_trial_2.png,images/demo_images/pattern_1.png,f,f,3000.0,1.0,2.0,20.0,0.0,6.0,1.0,1.0,1.0,30.0,,,,,,5fecdbad0b1a449e3288b07b,16:49:32,27/03/2024
html-keyboard-response,30,53827,0.0-13.0-1.0,,"<div style=""display: flex; flex-direction: column; align-items: center; margin-top: -40px;""><img src=""images/demo_images/pattern_1.png"" style=""width: 234px; height: 230px; margin-top: -50px;""><div style=""display: flex; justify-content: space-between; margin-top: 33px;""><img src=""images/demo_images/choice_trial_1.png"" style=""width: 408px; height: 417px; margin-right: 608px;""></div></div>",,delaylearn,learning,display_response,vRXGXiaJLCdYrnxYqBohs4NChQt2,vRXGXiaJLCdYrnxYqBohs4NChQt2,,,,,,,,,,,,,,,,,chosen stimuli: images/demo_images/choice_trial_1.png,,,,,5fecdbad0b1a449e3288b07b,16:49:32,27/03/2024
html-keyboard-response,31,56841,0.0-13.0-2.0,,,,delaylearn,learning,feedback_duration_window,vRXGXiaJLCdYrnxYqBohs4NChQt2,vRXGXiaJLCdYrnxYqBohs4NChQt2,,,,,,,,,,,,,,,,,,3000.0,,,,5fecdbad0b1a449e3288b07b,16:49:32,27/03/2024
html-keyboard-response,32,58353,0.0-13.0-3.0,,<div style='margin:auto;width: auto; font-size: 150%'><span style='font-weight: bold; font-size: 100px; color: green;'>+10 points!</span><br><br></div>,,delaylearn,learning,feedback_image_window,vRXGXiaJLCdYrnxYqBohs4NChQt2,vRXGXiaJLCdYrnxYqBohs4NChQt2,,,,,,,,,,,,,,,,,,,,,,5fecdbad0b1a449e3288b07b,16:49:32,27/03/2024
html-keyboard-response,33,60633,0.0-14.0,,"<div style=""font-size:100px;"">+</div>",,delaylearn,learning,ITI,vRXGXiaJLCdYrnxYqBohs4NChQt2,vRXGXiaJLCdYrnxYqBohs4NChQt2,,,,,,,,,,,,,,,,,,,2269.0,,,5fecdbad0b1a449e3288b07b,16:49:32,27/03/2024
html-keyboard-response,34,61675,0.0-15.0-0.0,1041.4000000059605,"<div style=""display: flex; flex-direction: column; align-items: center; margin-top: -40px;""><img src=""images/demo_images/pattern_1.png"" style=""width: 234px; height: 230px; margin-top: -50px;""><div style=""display: flex; justify-content: space-between; margin-top: 33px;""><img src=""images/demo_images/choice_trial_2.png"" style=""width: 408px; height: 417px; margin-right: 200px;""><img src=""images/demo_images/choice_trial_1.png"" style=""width: 408px; height: 417px;""></div></div>",j,delaylearn,learning,trial,vRXGXiaJLCdYrnxYqBohs4NChQt2,vRXGXiaJLCdYrnxYqBohs4NChQt2,4.0,images/demo_images/choice_trial_2.png,images/demo_images/choice_trial_1.png,images/demo_images/pattern_1.png,j,j,3000.0,2.0,1.0,20.0,1.0,7.0,1.0,1.0,1.0,40.0,,,,,,5fecdbad0b1a449e3288b07b,16:49:32,27/03/2024
html-keyboard-response,35,62683,0.0-15.0-1.0,,"<div style=""display: flex; flex-direction: column; align-items: center; margin-top: -40px;""><img src=""images/demo_images/pattern_1.png"" style=""width: 234px; height: 230px; margin-top: -50px;""><div style=""display: flex; justify-content: space-between; margin-top: 33px;""><img src=""images/demo_images/choice_trial_1.png"" style=""width: 408px; height: 417px; margin-left:608px;""></div></div>",,delaylearn,learning,display_response,vRXGXiaJLCdYrnxYqBohs4NChQt2,vRXGXiaJLCdYrnxYqBohs4NChQt2,,,,,,,,,,,,,,,,,chosen stimuli: images/demo_images/choice_trial_1.png,,,,,5fecdbad0b1a449e3288b07b,16:49:32,27/03/2024
html-keyboard-response,36,65694,0.0-15.0-2.0,,,,delaylearn,learning,feedback_duration_window,vRXGXiaJLCdYrnxYqBohs4NChQt2,vRXGXiaJLCdYrnxYqBohs4NChQt2,,,,,,,,,,,,,,,,,,3000.0,,,,5fecdbad0b1a449e3288b07b,16:49:32,27/03/2024
html-keyboard-response,37,67196,0.0-15.0-3.0,,<div style='margin:auto;width: auto; font-size: 150%'><span style='font-weight: bold; font-size: 100px; color: green;'>+10 points!</span><br><br></div>,,delaylearn,learning,feedback_image_window,vRXGXiaJLCdYrnxYqBohs4NChQt2,vRXGXiaJLCdYrnxYqBohs4NChQt2,,,,,,,,,,,,,,,,,,,,,,5fecdbad0b1a449e3288b07b,16:49:32,27/03/2024
html-keyboard-response,38,68744,0.0-16.0,,"<div style=""font-size:100px;"">+</div>",,delaylearn,learning,ITI,vRXGXiaJLCdYrnxYqBohs4NChQt2,vRXGXiaJLCdYrnxYqBohs4NChQt2,,,,,,,,,,,,,,,,,,,1542.0,,,5fecdbad0b1a449e3288b07b,16:49:32,27/03/2024
html-keyboard-response,39,69574,0.0-17.0-0.0,827.6000000089407,"<div style=""display: flex; flex-direction: column; align-items: center; margin-top: -40px;""><img src=""images/demo_images/pattern_1.png"" style=""width: 234px; height: 230px; margin-top: -50px;""><div style=""display: flex; justify-content: space-between; margin-top: 33px;""><img src=""images/demo_images/choice_trial_1.png"" style=""width: 408px; height: 417px; margin-right: 200px;""><img src=""images/demo_images/choice_trial_2.png"" style=""width: 408px; height: 417px;""></div></div>",f,delaylearn,learning,trial,vRXGXiaJLCdYrnxYqBohs4NChQt2,vRXGXiaJLCdYrnxYqBohs4NChQt2,4.0,images/demo_images/choice_trial_1.png,images/demo_images/choice_trial_2.png,images/demo_images/pattern_1.png,f,f,3000.0,1.0,2.0,20.0,0.0,8.0,1.0,1.0,1.0,50.0,,,,,,5fecdbad0b1a449e3288b07b,16:49:32,27/03/2024
html-keyboard-response,40,70585,0.0-17.0-1.0,,"<div style=""display: flex; flex-direction: column; align-items: center; margin-top: -40px;""><img src=""images/demo_images/pattern_1.png"" style=""width: 234px; height: 230px; margin-top: -50px;""><div style=""display: flex; justify-content: space-between; margin-top: 33px;""><img src=""images/demo_images/choice_trial_1.png"" style=""width: 408px; height: 417px; margin-right: 608px;""></div></div>",,delaylearn,learning,display_response,vRXGXiaJLCdYrnxYqBohs4NChQt2,vRXGXiaJLCdYrnxYqBohs4NChQt2,,,,,,,,,,,,,,,,,chosen stimuli: images/demo_images/choice_trial_1.png,,,,,5fecdbad0b1a449e3288b07b,16:49:32,27/03/2024
html-keyboard-response,41,73587,0.0-17.0-2.0,,,,delaylearn,learning,feedback_duration_window,vRXGXiaJLCdYrnxYqBohs4NChQt2,vRXGXiaJLCdYrnxYqBohs4NChQt2,,,,,,,,,,,,,,,,,,3000.0,,,,5fecdbad0b1a449e3288b07b,16:49:32,27/03/2024
html-keyboard-response,42,75096,0.0-17.0-3.0,,<div style='margin:auto;width: auto; font-size: 150%'><span style='font-weight: bold; font-size: 100px; color: green;'>+10 points!</span><br><br></div>,,delaylearn,learning,feedback_image_window,vRXGXiaJLCdYrnxYqBohs4NChQt2,vRXGXiaJLCdYrnxYqBohs4NChQt2,,,,,,,,,,,,,,,,,,,,,,5fecdbad0b1a449e3288b07b,16:49:32,27/03/2024
html-button-response,43,78644,0.0-18.0,3547.3999999910593,"
  <div style=""display: flex; align-items: center; justify-content: center; height: 80vh;"">
  <div>
          <img src=""images/inst_demo_finish.png"" style=""width: 80vw; height:auto;"">
          <br><br>
      </div>
      <br><br>
  </div>",0,,,,vRXGXiaJLCdYrnxYqBohs4NChQt2,,,,,,,,,,,,,,,,,,,,,,,5fecdbad0b1a449e3288b07b,16:49:32,27/03/2024
html-keyboard-response,44,82035,0.0-19.0,3390.2999999970198,"
  <div style=""display: flex; align-items: center; justify-content: center; height: 80vh;"">
  <div>
          <img src=""images/inst_6.png"" style=""width: 80vw; height:auto;"">
          <br><br>
      </div>
      <br><br>
  </div>",j,,,,vRXGXiaJLCdYrnxYqBohs4NChQt2,,,,,,,,,,,,,,,,,,,,,,,5fecdbad0b1a449e3288b07b,16:49:32,27/03/2024
html-keyboard-response,45,85040,0.0-20.0,,"<div style=""font-size:100px;"">+</div>",,delaylearn,learning,pre_fixation,vRXGXiaJLCdYrnxYqBohs4NChQt2,,,,,,,,,,,,,,,,,,,,,,,5fecdbad0b1a449e3288b07b,16:49:32,27/03/2024
html-keyboard-response,46,87179,0.0-21.0,,"<div style=""font-size:100px;"">+</div>",,delaylearn,learning,ITI,vRXGXiaJLCdYrnxYqBohs4NChQt2,vRXGXiaJLCdYrnxYqBohs4NChQt2,,,,,,,,,,,,,,,,,,,2135.0,,,5fecdbad0b1a449e3288b07b,16:49:32,27/03/2024
html-keyboard-response,47,88853,0.0-22.0-0.0,1672.5,"<div style=""display: flex; flex-direction: column; align-items: center; margin-top: -40px;""><img src=""images/pattern_3.png"" style=""width: 234px; height: 230px; margin-top: -50px;""><div style=""display: flex; justify-content: space-between; margin-top: 33px;""><img src=""images/choice_trial_16.png"" style=""width: 408px; height: 417px; margin-right: 200px;""><img src=""images/choice_trial_6.png"" style=""width: 408px; height: 417px;""></div></div>",f,delaylearn,learning,trial,vRXGXiaJLCdYrnxYqBohs4NChQt2,vRXGXiaJLCdYrnxYqBohs4NChQt2,4.0,images/choice_trial_16.png,images/choice_trial_6.png,images/pattern_3.png,f,f,7000.0,16.0,6.0,2.0,0.0,9.0,1.0,1.0,16.0,60.0,,,,,,5fecdbad0b1a449e3288b07b,16:49:32,27/03/2024
html-keyboard-response,48,89863,0.0-22.0-1.0,,"<div style=""display: flex; flex-direction: column; align-items: center; margin-top: -40px;""><img src=""images/pattern_3.png"" style=""width: 234px; height: 230px; margin-top: -50px;""><div style=""display: flex; justify-content: space-between; margin-top: 33px;""><img src=""images/choice_trial_16.png"" style=""width: 408px; height: 417px; margin-right: 608px;""></div></div>",,delaylearn,learning,display_response,vRXGXiaJLCdYrnxYqBohs4NChQt2,vRXGXiaJLCdYrnxYqBohs4NChQt2,,,,,,,,,,,,,,,,,chosen stimuli: images/choice_trial_16.png,,,,,5fecdbad0b1a449e3288b07b,16:49:32,27/03/2024
html-keyboard-response,49,96869,0.0-22.0-2.0,,,,delaylearn,learning,feedback_duration_window,vRXGXiaJLCdYrnxYqBohs4NChQt2,vRXGXiaJLCdYrnxYqBohs4NChQt2,,,,,,,,,,,,,,,,,,7000.0,,,,5fecdbad0b1a449e3288b07b,16:49:32,27/03/2024
html-keyboard-response,50,98376,0.0-22.0-3.0,,<div style='margin:auto;width: auto; font-size: 150%'><span style='font-weight: bold; font-size: 100px; color: green;'>+10 points!</span><br><br></div>,,delaylearn,learning,feedback_image_window,vRXGXiaJLCdYrnxYqBohs4NChQt2,vRXGXiaJLCdYrnxYqBohs4NChQt2,,,,,,,,,,,,,,,,,,,,,,5fecdbad0b1a449e3288b07b,16:49:32,27/03/2024
html-keyboard-response,51,100384,0.0-23.0,,"<div style=""font-size:100px;"">+</div>",,delaylearn,learning,ITI,vRXGXiaJLCdYrnxYqBohs4NChQt2,vRXGXiaJLCdYrnxYqBohs4NChQt2,,,,,,,,,,,,,,,,,,,1992.0,,,5fecdbad0b1a449e3288b07b,16:49:32,27/03/2024
html-keyboard-response,52,102239,0.0-24.0-0.0,1854.2999999970198,"<div style=""display: flex; flex-direction: column; align-items: center; margin-top: -40px;""><img src=""images/pattern_7.png"" style=""width: 234px; height: 230px; margin-top: -50px;""><div style=""display: flex; justify-content: space-between; margin-top: 33px;""><img src=""images/choice_trial_4.png"" style=""width: 408px; height: 417px; margin-right: 200px;""><img src=""images/choice_trial_13.png"" style=""width: 408px; height: 417px;""></div></div>",f,delaylearn,learning,trial,vRXGXiaJLCdYrnxYqBohs4NChQt2,vRXGXiaJLCdYrnxYqBohs4NChQt2,4.0,images/choice_trial_4.png,images/choice_trial_13.png,images/pattern_7.png,j,j,750.0,4.0,13.0,6.0,1.0,10.0,0.0,0.0,4.0,60.0,,,,,,5fecdbad0b1a449e3288b07b,16:49:32,27/03/2024
html-keyboard-response,53,103252,0.0-24.0-1.0,,"<div style=""display: flex; flex-direction: column; align-items: center; margin-top: -40px;""><img src=""images/pattern_7.png"" style=""width: 234px; height: 230px; margin-top: -50px;""><div style=""display: flex; justify-content: space-between; margin-top: 33px;""><img src=""images/choice_trial_4.png"" style=""width: 408px; height: 417px; margin-right: 608px;""></div></div>",,delaylearn,learning,display_response,vRXGXiaJLCdYrnxYqBohs4NChQt2,vRXGXiaJLCdYrnxYqBohs4NChQt2,,,,,,,,,,,,,,,,,chosen stimuli: images/choice_trial_4.png,,,,,5fecdbad0b1a449e3288b07b,16:49:32,27/03/2024
html-keyboard-response,54,104008,0.0-24.0-2.0,,,,delaylearn,learning,feedback_duration_window,vRXGXiaJLCdYrnxYqBohs4NChQt2,vRXGXiaJLCdYrnxYqBohs4NChQt2,,,,,,,,,,,,,,,,,,750.0,,,,5fecdbad0b1a449e3288b07b,16:49:32,27/03/2024
html-keyboard-response,55,105513,0.0-24.0-3.0,,<div style='margin:auto;width: auto; font-size: 150%'><span style='font-weight: bold; font-size: 100px; color: red;'>0 points!</span><br><br></div>,,delaylearn,learning,feedback_image_window,vRXGXiaJLCdYrnxYqBohs4NChQt2,vRXGXiaJLCdYrnxYqBohs4NChQt2,,,,,,,,,,,,,,,,,,,,,,5fecdbad0b1a449e3288b07b,16:49:32,27/03/2024
html-keyboard-response,56,107229,0.0-25.0,,"<div style=""font-size:100px;"">+</div>",,delaylearn,learning,ITI,vRXGXiaJLCdYrnxYqBohs4NChQt2,vRXGXiaJLCdYrnxYqBohs4NChQt2,,,,,,,,,,,,,,,,,,,1715.0,,,5fecdbad0b1a449e3288b07b,16:49:32,27/03/2024
html-keyboard-response,57,108767,0.0-26.0-0.0,1536.8999999910593,"<div style=""display: flex; flex-direction: column; align-items: center; margin-top: -40px;""><img src=""images/pattern_4.png"" style=""width: 234px; height: 230px; margin-top: -50px;""><div style=""display: flex; justify-content: space-between; margin-top: 33px;""><img src=""images/choice_trial_8.png"" style=""width: 408px; height: 417px; margin-right: 200px;""><img src=""images/choice_trial_7.png"" style=""width: 408px; height: 417px;""></div></div>",j,delaylearn,learning,trial,vRXGXiaJLCdYrnxYqBohs4NChQt2,vRXGXiaJLCdYrnxYqBohs4NChQt2,4.0,images/choice_trial_8.png,images/choice_trial_7.png,images/pattern_4.png,f,f,7000.0,8.0,7.0,3.0,0.0,11.0,0.0,0.0,7.0,60.0,,,,,,5fecdbad0b1a449e3288b07b,16:49:32,27/03/2024
html-keyboard-response,58,109783,0.0-26.0-1.0,,"<div style=""display: flex; flex-direction: column; align-items: center; margin-top: -40px;""><img src=""images/pattern_4.png"" style=""width: 234px; height: 230px; margin-top: -50px;""><div style=""display: flex; justify-content: space-between; margin-top: 33px;""><img src=""images/choice_trial_7.png"" style=""width: 408px; height: 417px; margin-left:608px;""></div></div>",,delaylearn,learning,display_response,vRXGXiaJLCdYrnxYqBohs4NChQt2,vRXGXiaJLCdYrnxYqBohs4NChQt2,,,,,,,,,,,,,,,,,chosen stimuli: images/choice_trial_7.png,,,,,5fecdbad0b1a449e3288b07b,16:49:32,27/03/2024
html-keyboard-response,59,116785,0.0-26.0-2.0,,,,delaylearn,learning,feedback_duration_window,vRXGXiaJLCdYrnxYqBohs4NChQt2,vRXGXiaJLCdYrnxYqBohs4NChQt2,,,,,,,,,,,,,,,,,,7000.0,,,,5fecdbad0b1a449e3288b07b,16:49:32,27/03/2024
html-keyboard-response,60,118298,0.0-26.0-3.0,,<div style='margin:auto;width: auto; font-size: 150%'><span style='font-weight: bold; font-size: 100px; color: red;'>0 points!</span><br><br></div>,,delaylearn,learning,feedback_image_window,vRXGXiaJLCdYrnxYqBohs4NChQt2,vRXGXiaJLCdYrnxYqBohs4NChQt2,,,,,,,,,,,,,,,,,,,,,,5fecdbad0b1a449e3288b07b,16:49:32,27/03/2024
html-keyboard-response,61,119821,0.0-27.0,,"<div style=""font-size:100px;"">+</div>",,delaylearn,learning,ITI,vRXGXiaJLCdYrnxYqBohs4NChQt2,vRXGXiaJLCdYrnxYqBohs4NChQt2,,,,,,,,,,,,,,,,,,,1516.0,,,5fecdbad0b1a449e3288b07b,16:49:32,27/03/2024
html-keyboard-response,62,121612,0.0-28.0-0.0,1789.8999999910593,"<div style=""display: flex; flex-direction: column; align-items: center; margin-top: -40px;""><img src=""images/pattern_5.png"" style=""width: 234px; height: 230px; margin-top: -50px;""><div style=""display: flex; justify-content: space-between; margin-top: 33px;""><img src=""images/choice_trial_15.png"" style=""width: 408px; height: 417px; margin-right: 200px;""><img src=""images/choice_trial_5.png"" style=""width: 408px; height: 417px;""></div></div>",j,delaylearn,learning,trial,vRXGXiaJLCdYrnxYqBohs4NChQt2,vRXGXiaJLCdYrnxYqBohs4NChQt2,4.0,images/choice_trial_15.png,images/choice_trial_5.png,images/pattern_5.png,j,j,750.0,15.0,5.0,4.0,1.0,12.0,1.0,1.0,5.0,70.0,,,,,,5fecdbad0b1a449e3288b07b,16:49:32,27/03/2024
html-keyboard-response,63,122614,0.0-28.0-1.0,,"<div style=""display: flex; flex-direction: column; align-items: center; margin-top: -40px;""><img src=""images/pattern_5.png"" style=""width: 234px; height: 230px; margin-top: -50px;""><div style=""display: flex; justify-content: space-between; margin-top: 33px;""><img src=""images/choice_trial_5.png"" style=""width: 408px; height: 417px; margin-left:608px;""></div></div>",,delaylearn,learning,display_response,vRXGXiaJLCdYrnxYqBohs4NChQt2,vRXGXiaJLCdYrnxYqBohs4NChQt2,,,,,,,,,,,,,,,,,chosen stimuli: images/choice_trial_5.png,,,,,5fecdbad0b1a449e3288b07b,16:49:32,27/03/2024
html-keyboard-response,64,123378,0.0-28.0-2.0,,,,delaylearn,learning,feedback_duration_window,vRXGXiaJLCdYrnxYqBohs4NChQt2,vRXGXiaJLCdYrnxYqBohs4NChQt2,,,,,,,,,,,,,,,,,,750.0,,,,5fecdbad0b1a449e3288b07b,16:49:32,27/03/2024
html-keyboard-response,65,124881,0.0-28.0-3.0,,<div style='margin:auto;width: auto; font-size: 150%'><span style='font-weight: bold; font-size: 100px; color: green;'>+10 points!</span><br><br></div>,,delaylearn,learning,feedback_image_window,vRXGXiaJLCdYrnxYqBohs4NChQt2,vRXGXiaJLCdYrnxYqBohs4NChQt2,,,,,,,,,,,,,,,,,,,,,,5fecdbad0b1a449e3288b07b,16:49:32,27/03/2024
html-keyboard-response,66,126665,0.0-29.0,,"<div style=""font-size:100px;"">+</div>",,delaylearn,learning,ITI,vRXGXiaJLCdYrnxYqBohs4NChQt2,vRXGXiaJLCdYrnxYqBohs4NChQt2,,,,,,,,,,,,,,,,,,,1775.0,,,5fecdbad0b1a449e3288b07b,16:49:32,27/03/2024
html-keyboard-response,67,127979,0.0-30.0-0.0,1312.699999988079,"<div style=""display: flex; flex-direction: column; align-items: center; margin-top: -40px;""><img src=""images/pattern_6.png"" style=""width: 234px; height: 230px; margin-top: -50px;""><div style=""display: flex; justify-content: space-between; margin-top: 33px;""><img src=""images/choice_trial_10.png"" style=""width: 408px; height: 417px; margin-right: 200px;""><img src=""images/choice_trial_3.png"" style=""width: 408px; height: 417px;""></div></div>",f,delaylearn,learning,trial,vRXGXiaJLCdYrnxYqBohs4NChQt2,vRXGXiaJLCdYrnxYqBohs4NChQt2,4.0,images/choice_trial_10.png,images/choice_trial_3.png,images/pattern_6.png,j,f,750.0,10.0,3.0,5.0,0.0,13.0,1.0,0.0,10.0,70.0,,,,,,5fecdbad0b1a449e3288b07b,16:49:32,27/03/2024
html-keyboard-response,68,128986,0.0-30.0-1.0,,"<div style=""display: flex; flex-direction: column; align-items: center; margin-top: -40px;""><img src=""images/pattern_6.png"" style=""width: 234px; height: 230px; margin-top: -50px;""><div style=""display: flex; justify-content: space-between; margin-top: 33px;""><img src=""images/choice_trial_10.png"" style=""width: 408px; height: 417px; margin-right: 608px;""></div></div>",,delaylearn,learning,display_response,vRXGXiaJLCdYrnxYqBohs4NChQt2,vRXGXiaJLCdYrnxYqBohs4NChQt2,,,,,,,,,,,,,,,,,chosen stimuli: images/choice_trial_10.png,,,,,5fecdbad0b1a449e3288b07b,16:49:32,27/03/2024
html-keyboard-response,69,129741,0.0-30.0-2.0,,,,delaylearn,learning,feedback_duration_window,vRXGXiaJLCdYrnxYqBohs4NChQt2,vRXGXiaJLCdYrnxYqBohs4NChQt2,,,,,,,,,,,,,,,,,,750.0,,,,5fecdbad0b1a449e3288b07b,16:49:32,27/03/2024
html-keyboard-response,70,131246,0.0-30.0-3.0,,<div style='margin:auto;width: auto; font-size: 150%'><span style='font-weight: bold; font-size: 100px; color: red;'>0 points!</span><br><br></div>,,delaylearn,learning,feedback_image_window,vRXGXiaJLCdYrnxYqBohs4NChQt2,vRXGXiaJLCdYrnxYqBohs4NChQt2,,,,,,,,,,,,,,,,,,,,,,5fecdbad0b1a449e3288b07b,16:49:32,27/03/2024
html-keyboard-response,71,131748,0.0-31.0-0.0,,,,,,mood_trial_fixation,vRXGXiaJLCdYrnxYqBohs4NChQt2,,,,,,,,,,,,,,,,,,,,,,,5fecdbad0b1a449e3288b07b,16:49:32,27/03/2024
lmdlab-html-vas-response,72,135283,0.0-31.0-1.0,2518.0,How happy are you right now?,0.5457175572713217,delaylearn,learning,mood_trial,vRXGXiaJLCdYrnxYqBohs4NChQt2,vRXGXiaJLCdYrnxYqBohs4NChQt2,,,,,,,,,,,,,,,,,,,,"['Very unhappy', 'Very happy']",,5fecdbad0b1a449e3288b07b,16:49:32,27/03/2024
html-keyboard-response,73,137147,0.0-32.0,,"<div style=""font-size:100px;"">+</div>",,delaylearn,learning,ITI,vRXGXiaJLCdYrnxYqBohs4NChQt2,vRXGXiaJLCdYrnxYqBohs4NChQt2,,,,,,,,,,,,,,,,,,,1862.0,,,5fecdbad0b1a449e3288b07b,16:49:32,27/03/2024
html-keyboard-response,74,140065,0.0-33.0-0.0,2916.800000011921,"<div style=""display: flex; flex-direction: column; align-items: center; margin-top: -40px;""><img src=""images/pattern_1.png"" style=""width: 234px; height: 230px; margin-top: -50px;""><div style=""display: flex; justify-content: space-between; margin-top: 33px;""><img src=""images/choice_trial_9.png"" style=""width: 408px; height: 417px; margin-right: 200px;""><img src=""images/choice_trial_1.png"" style=""width: 408px; height: 417px;""></div></div>",f,delaylearn,learning,trial,vRXGXiaJLCdYrnxYqBohs4NChQt2,vRXGXiaJLCdYrnxYqBohs4NChQt2,4.0,images/choice_trial_9.png,images/choice_trial_1.png,images/pattern_1.png,j,j,7000.0,9.0,1.0,1.0,1.0,14.0,0.0,0.0,9.0,70.0,,,,,,5fecdbad0b1a449e3288b07b,16:49:32,27/03/2024
html-keyboard-response,75,141073,0.0-33.0-1.0,,"<div style=""display: flex; flex-direction: column; align-items: center; margin-top: -40px;""><img src=""images/pattern_1.png"" style=""width: 234px; height: 230px; margin-top: -50px;""><div style=""display: flex; justify-content: space-between; margin-top: 33px;""><img src=""images/choice_trial_9.png"" style=""width: 408px; height: 417px; margin-right: 608px;""></div></div>",,delaylearn,learning,display_response,vRXGXiaJLCdYrnxYqBohs4NChQt2,vRXGXiaJLCdYrnxYqBohs4NChQt2,,,,,,,,,,,,,,,,,chosen stimuli: images/choice_trial_9.png,,,,,5fecdbad0b1a449e3288b07b,16:49:32,27/03/2024
html-keyboard-response,76,148081,0.0-33.0-2.0,,,,delaylearn,learning,feedback_duration_window,vRXGXiaJLCdYrnxYqBohs4NChQt2,vRXGXiaJLCdYrnxYqBohs4NChQt2,,,,,,,,,,,,,,,,,,7000.0,,,,5fecdbad0b1a449e3288b07b,16:49:32,27/03/2024
html-keyboard-response,77,149585,0.0-33.0-3.0,,<div style='margin:auto;width: auto; font-size: 150%'><span style='font-weight: bold; font-size: 100px; color: red;'>0 points!</span><br><br></div>,,delaylearn,learning,feedback_image_window,vRXGXiaJLCdYrnxYqBohs4NChQt2,vRXGXiaJLCdYrnxYqBohs4NChQt2,,,,,,,,,,,,,,,,,,,,,,5fecdbad0b1a449e3288b07b,16:49:32,27/03/2024
html-keyboard-response,78,151262,0.0-34.0,,"<div style=""font-size:100px;"">+</div>",,delaylearn,learning,ITI,vRXGXiaJLCdYrnxYqBohs4NChQt2,vRXGXiaJLCdYrnxYqBohs4NChQt2,,,,,,,,,,,,,,,,,,,1663.0,,,5fecdbad0b1a449e3288b07b,16:49:32,27/03/2024
html-keyboard-response,79,153246,0.0-35.0-0.0,1982.7999999970198,"<div style=""display: flex; flex-direction: column; align-items: center; margin-top: -40px;""><img src=""images/pattern_3.png"" style=""width: 234px; height: 230px; margin-top: -50px;""><div style=""display: flex; justify-content: space-between; margin-top: 33px;""><img src=""images/choice_trial_6.png"" style=""width: 408px; height: 417px; margin-right: 200px;""><img src=""images/choice_trial_16.png"" style=""width: 408px; height: 417px;""></div></div>",j,delaylearn,learning,trial,vRXGXiaJLCdYrnxYqBohs4NChQt2,vRXGXiaJLCdYrnxYqBohs4NChQt2,4.0,images/choice_trial_6.png,images/choice_trial_16.png,images/pattern_3.png,f,j,7000.0,6.0,16.0,2.0,1.0,15.0,1.0,0.0,16.0,70.0,,,,,,5fecdbad0b1a449e3288b07b,16:49:32,27/03/2024
html-keyboard-response,80,154256,0.0-35.0-1.0,,"<div style=""display: flex; flex-direction: column; align-items: center; margin-top: -40px;""><img src=""images/pattern_3.png"" style=""width: 234px; height: 230px; margin-top: -50px;""><div style=""display: flex; justify-content: space-between; margin-top: 33px;""><img src=""images/choice_trial_16.png"" style=""width: 408px; height: 417px; margin-left:608px;""></div></div>",,delaylearn,learning,display_response,vRXGXiaJLCdYrnxYqBohs4NChQt2,vRXGXiaJLCdYrnxYqBohs4NChQt2,,,,,,,,,,,,,,,,,chosen stimuli: images/choice_trial_16.png,,,,,5fecdbad0b1a449e3288b07b,16:49:32,27/03/2024
html-keyboard-response,81,161265,0.0-35.0-2.0,,,,delaylearn,learning,feedback_duration_window,vRXGXiaJLCdYrnxYqBohs4NChQt2,vRXGXiaJLCdYrnxYqBohs4NChQt2,,,,,,,,,,,,,,,,,,7000.0,,,,5fecdbad0b1a449e3288b07b,16:49:32,27/03/2024
html-keyboard-response,82,162775,0.0-35.0-3.0,,<div style='margin:auto;width: auto; font-size: 150%'><span style='font-weight: bold; font-size: 100px; color: red;'>0 points!</span><br><br></div>,,delaylearn,learning,feedback_image_window,vRXGXiaJLCdYrnxYqBohs4NChQt2,vRXGXiaJLCdYrnxYqBohs4NChQt2,,,,,,,,,,,,,,,,,,,,,,5fecdbad0b1a449e3288b07b,16:49:32,27/03/2024
html-keyboard-response,83,164978,0.0-36.0,,"<div style=""font-size:100px;"">+</div>",,delaylearn,learning,ITI,vRXGXiaJLCdYrnxYqBohs4NChQt2,vRXGXiaJLCdYrnxYqBohs4NChQt2,,,,,,,,,,,,,,,,,,,2192.0,,,5fecdbad0b1a449e3288b07b,16:49:32,27/03/2024
html-keyboard-response,84,166621,0.0-37.0-0.0,1641.5999999940395,"<div style=""display: flex; flex-direction: column; align-items: center; margin-top: -40px;""><img src=""images/pattern_5.png"" style=""width: 234px; height: 230px; margin-top: -50px;""><div style=""display: flex; justify-content: space-between; margin-top: 33px;""><img src=""images/choice_trial_5.png"" style=""width: 408px; height: 417px; margin-right: 200px;""><img src=""images/choice_trial_15.png"" style=""width: 408px; height: 417px;""></div></div>",f,delaylearn,learning,trial,vRXGXiaJLCdYrnxYqBohs4NChQt2,vRXGXiaJLCdYrnxYqBohs4NChQt2,4.0,images/choice_trial_5.png,images/choice_trial_15.png,images/pattern_5.png,f,f,750.0,5.0,15.0,4.0,0.0,16.0,1.0,1.0,5.0,80.0,,,,,,5fecdbad0b1a449e3288b07b,16:49:32,27/03/2024
html-keyboard-response,85,167627,0.0-37.0-1.0,,"<div style=""display: flex; flex-direction: column; align-items: center; margin-top: -40px;""><img src=""images/pattern_5.png"" style=""width: 234px; height: 230px; margin-top: -50px;""><div style=""display: flex; justify-content: space-between; margin-top: 33px;""><img src=""images/choice_trial_5.png"" style=""width: 408px; height: 417px; margin-right: 608px;""></div></div>",,delaylearn,learning,display_response,vRXGXiaJLCdYrnxYqBohs4NChQt2,vRXGXiaJLCdYrnxYqBohs4NChQt2,,,,,,,,,,,,,,,,,chosen stimuli: images/choice_trial_5.png,,,,,5fecdbad0b1a449e3288b07b,16:49:32,27/03/2024
html-keyboard-response,86,168389,0.0-37.0-2.0,,,,delaylearn,learning,feedback_duration_window,vRXGXiaJLCdYrnxYqBohs4NChQt2,vRXGXiaJLCdYrnxYqBohs4NChQt2,,,,,,,,,,,,,,,,,,750.0,,,,5fecdbad0b1a449e3288b07b,16:49:32,27/03/2024
html-keyboard-response,87,169902,0.0-37.0-3.0,,<div style='margin:auto;width: auto; font-size: 150%'><span style='font-weight: bold; font-size: 100px; color: green;'>+10 points!</span><br><br></div>,,delaylearn,learning,feedback_image_window,vRXGXiaJLCdYrnxYqBohs4NChQt2,vRXGXiaJLCdYrnxYqBohs4NChQt2,,,,,,,,,,,,,,,,,,,,,,5fecdbad0b1a449e3288b07b,16:49:32,27/03/2024
html-keyboard-response,88,170413,0.0-38.0-0.0,,,,,,mood_trial_fixation,vRXGXiaJLCdYrnxYqBohs4NChQt2,,,,,,,,,,,,,,,,,,,,,,,5fecdbad0b1a449e3288b07b,16:49:32,27/03/2024
lmdlab-html-vas-response,89,175199,0.0-38.0-1.0,3770.0,How happy are you right now?,0.8512731128268771,delaylearn,learning,mood_trial,vRXGXiaJLCdYrnxYqBohs4NChQt2,vRXGXiaJLCdYrnxYqBohs4NChQt2,,,,,,,,,,,,,,,,,,,,"['Very unhappy', 'Very happy']",,5fecdbad0b1a449e3288b07b,16:49:32,27/03/2024
html-keyboard-response,90,177596,0.0-39.0,,"<div style=""font-size:100px;"">+</div>",,delaylearn,learning,ITI,vRXGXiaJLCdYrnxYqBohs4NChQt2,vRXGXiaJLCdYrnxYqBohs4NChQt2,,,,,,,,,,,,,,,,,,,2392.0,,,5fecdbad0b1a449e3288b07b,16:49:32,27/03/2024
html-keyboard-response,91,179187,0.0-40.0-0.0,1589.5,"<div style=""display: flex; flex-direction: column; align-items: center; margin-top: -40px;""><img src=""images/pattern_6.png"" style=""width: 234px; height: 230px; margin-top: -50px;""><div style=""display: flex; justify-content: space-between; margin-top: 33px;""><img src=""images/choice_trial_10.png"" style=""width: 408px; height: 417px; margin-right: 200px;""><img src=""images/choice_trial_3.png"" style=""width: 408px; height: 417px;""></div></div>",j,delaylearn,learning,trial,vRXGXiaJLCdYrnxYqBohs4NChQt2,vRXGXiaJLCdYrnxYqBohs4NChQt2,4.0,images/choice_trial_10.png,images/choice_trial_3.png,images/pattern_6.png,f,f,750.0,10.0,3.0,5.0,0.0,17.0,0.0,0.0,3.0,80.0,,,,,,5fecdbad0b1a449e3288b07b,16:49:32,27/03/2024
html-keyboard-response,92,180201,0.0-40.0-1.0,,"<div style=""display: flex; flex-direction: column; align-items: center; margin-top: -40px;""><img src=""images/pattern_6.png"" style=""width: 234px; height: 230px; margin-top: -50px;""><div style=""display: flex; justify-content: space-between; margin-top: 33px;""><img src=""images/choice_trial_3.png"" style=""width: 408px; height: 417px; margin-left:608px;""></div></div>",,delaylearn,learning,display_response,vRXGXiaJLCdYrnxYqBohs4NChQt2,vRXGXiaJLCdYrnxYqBohs4NChQt2,,,,,,,,,,,,,,,,,chosen stimuli: images/choice_trial_3.png,,,,,5fecdbad0b1a449e3288b07b,16:49:32,27/03/2024
html-keyboard-response,93,180959,0.0-40.0-2.0,,,,delaylearn,learning,feedback_duration_window,vRXGXiaJLCdYrnxYqBohs4NChQt2,vRXGXiaJLCdYrnxYqBohs4NChQt2,,,,,,,,,,,,,,,,,,750.0,,,,5fecdbad0b1a449e3288b07b,16:49:32,27/03/2024
html-keyboard-response,94,182465,0.0-40.0-3.0,,<div style='margin:auto;width: auto; font-size: 150%'><span style='font-weight: bold; font-size: 100px; color: red;'>0 points!</span><br><br></div>,,delaylearn,learning,feedback_image_window,vRXGXiaJLCdYrnxYqBohs4NChQt2,vRXGXiaJLCdYrnxYqBohs4NChQt2,,,,,,,,,,,,,,,,,,,,,,5fecdbad0b1a449e3288b07b,16:49:32,27/03/2024
html-keyboard-response,95,184630,0.0-41.0,,"<div style=""font-size:100px;"">+</div>",,delaylearn,learning,ITI,vRXGXiaJLCdYrnxYqBohs4NChQt2,vRXGXiaJLCdYrnxYqBohs4NChQt2,,,,,,,,,,,,,,,,,,,2163.0,,,5fecdbad0b1a449e3288b07b,16:49:32,27/03/2024
html-keyboard-response,96,186965,0.0-42.0-0.0,2333.5,"<div style=""display: flex; flex-direction: column; align-items: center; margin-top: -40px;""><img src=""images/pattern_4.png"" style=""width: 234px; height: 230px; margin-top: -50px;""><div style=""display: flex; justify-content: space-between; margin-top: 33px;""><img src=""images/choice_trial_7.png"" style=""width: 408px; height: 417px; margin-right: 200px;""><img src=""images/choice_trial_8.png"" style=""width: 408px; height: 417px;""></div></div>",j,delaylearn,learning,trial,vRXGXiaJLCdYrnxYqBohs4NChQt2,vRXGXiaJLCdYrnxYqBohs4NChQt2,4.0,images/choice_trial_7.png,images/choice_trial_8.png,images/pattern_4.png,j,j,7000.0,7.0,8.0,3.0,1.0,18.0,1.0,1.0,8.0,90.0,,,,,,5fecdbad0b1a449e3288b07b,16:49:32,27/03/2024
html-keyboard-response,97,187981,0.0-42.0-1.0,,"<div style=""display: flex; flex-direction: column; align-items: center; margin-top: -40px;""><img src=""images/pattern_4.png"" style=""width: 234px; height: 230px; margin-top: -50px;""><div style=""display: flex; justify-content: space-between; margin-top: 33px;""><img src=""images/choice_trial_8.png"" style=""width: 408px; height: 417px; margin-left:608px;""></div></div>",,delaylearn,learning,display_response,vRXGXiaJLCdYrnxYqBohs4NChQt2,vRXGXiaJLCdYrnxYqBohs4NChQt2,,,,,,,,,,,,,,,,,chosen stimuli: images/choice_trial_8.png,,,,,5fecdbad0b1a449e3288b07b,16:49:32,27/03/2024
html-keyboard-response,98,194994,0.0-42.0-2.0,,,,delaylearn,learning,feedback_duration_window,vRXGXiaJLCdYrnxYqBohs4NChQt2,vRXGXiaJLCdYrnxYqBohs4NChQt2,,,,,,,,,,,,,,,,,,7000.0,,,,5fecdbad0b1a449e3288b07b,16:49:32,27/03/2024
html-keyboard-response,99,196499,0.0-42.0-3.0,,<div style='margin:auto;width: auto; font-size: 150%'><span style='font-weight: bold; font-size: 100px; color: green;'>+10 points!</span><br><br></div>,,delaylearn,learning,feedback_image_window,vRXGXiaJLCdYrnxYqBohs4NChQt2,vRXGXiaJLCdYrnxYqBohs4NChQt2,,,,,,,,,,,,,,,,,,,,,,5fecdbad0b1a449e3288b07b,16:49:32,27/03/2024
html-keyboard-response,100,198449,0.0-43.0,,"<div style=""font-size:100px;"">+</div>",,delaylearn,learning,ITI,vRXGXiaJLCdYrnxYqBohs4NChQt2,vRXGXiaJLCdYrnxYqBohs4NChQt2,,,,,,,,,,,,,,,,,,,1947.0,,,5fecdbad0b1a449e3288b07b,16:49:32,27/03/2024
html-keyboard-response,101,200384,0.0-44.0-0.0,1933.4000000059605,"<div style=""display: flex; flex-direction: column; align-items: center; margin-top: -40px;""><img src=""images/pattern_7.png"" style=""width: 234px; height: 230px; margin-top: -50px;""><div style=""display: flex; justify-content: space-between; margin-top: 33px;""><img src=""images/choice_trial_13.png"" style=""width: 408px; height: 417px; margin-right: 200px;""><img src=""images/choice_trial_4.png"" style=""width: 408px; height: 417px;""></div></div>",j,delaylearn,learning,trial,vRXGXiaJLCdYrnxYqBohs4NChQt2,vRXGXiaJLCdYrnxYqBohs4NChQt2,4.0,images/choice_trial_13.png,images/choice_trial_4.png,images/pattern_7.png,j,f,750.0,13.0,4.0,6.0,0.0,19.0,0.0,1.0,4.0,100.0,,,,,,5fecdbad0b1a449e3288b07b,16:49:32,27/03/2024
html-keyboard-response,102,201393,0.0-44.0-1.0,,"<div style=""display: flex; flex-direction: column; align-items: center; margin-top: -40px;""><img src=""images/pattern_7.png"" style=""width: 234px; height: 230px; margin-top: -50px;""><div style=""display: flex; justify-content: space-between; margin-top: 33px;""><img src=""images/choice_trial_4.png"" style=""width: 408px; height: 417px; margin-left:608px;""></div></div>",,delaylearn,learning,display_response,vRXGXiaJLCdYrnxYqBohs4NChQt2,vRXGXiaJLCdYrnxYqBohs4NChQt2,,,,,,,,,,,,,,,,,chosen stimuli: images/choice_trial_4.png,,,,,5fecdbad0b1a449e3288b07b,16:49:32,27/03/2024
html-keyboard-response,103,202146,0.0-44.0-2.0,,,,delaylearn,learning,feedback_duration_window,vRXGXiaJLCdYrnxYqBohs4NChQt2,vRXGXiaJLCdYrnxYqBohs4NChQt2,,,,,,,,,,,,,,,,,,750.0,,,,5fecdbad0b1a449e3288b07b,16:49:32,27/03/2024
html-keyboard-response,104,203653,0.0-44.0-3.0,,<div style='margin:auto;width: auto; font-size: 150%'><span style='font-weight: bold; font-size: 100px; color: green;'>+10 points!</span><br><br></div>,,delaylearn,learning,feedback_image_window,vRXGXiaJLCdYrnxYqBohs4NChQt2,vRXGXiaJLCdYrnxYqBohs4NChQt2,,,,,,,,,,,,,,,,,,,,,,5fecdbad0b1a449e3288b07b,16:49:32,27/03/2024
html-keyboard-response,105,205491,0.0-45.0,,"<div style=""font-size:100px;"">+</div>",,delaylearn,learning,ITI,vRXGXiaJLCdYrnxYqBohs4NChQt2,vRXGXiaJLCdYrnxYqBohs4NChQt2,,,,,,,,,,,,,,,,,,,1828.0,,,5fecdbad0b1a449e3288b07b,16:49:32,27/03/2024
html-keyboard-response,106,207763,0.0-46.0-0.0,2270.3999999910593,"<div style=""display: flex; flex-direction: column; align-items: center; margin-top: -40px;""><img src=""images/pattern_1.png"" style=""width: 234px; height: 230px; margin-top: -50px;""><div style=""display: flex; justify-content: space-between; margin-top: 33px;""><img src=""images/choice_trial_1.png"" style=""width: 408px; height: 417px; margin-right: 200px;""><img src=""images/choice_trial_9.png"" style=""width: 408px; height: 417px;""></div></div>",f,delaylearn,learning,trial,vRXGXiaJLCdYrnxYqBohs4NChQt2,vRXGXiaJLCdYrnxYqBohs4NChQt2,4.0,images/choice_trial_1.png,images/choice_trial_9.png,images/pattern_1.png,f,f,7000.0,1.0,9.0,1.0,0.0,20.0,1.0,1.0,1.0,110.0,,,,,,5fecdbad0b1a449e3288b07b,16:49:32,27/03/2024
html-keyboard-response,107,208773,0.0-46.0-1.0,,"<div style=""display: flex; flex-direction: column; align-items: center; margin-top: -40px;""><img src=""images/pattern_1.png"" style=""width: 234px; height: 230px; margin-top: -50px;""><div style=""display: flex; justify-content: space-between; margin-top: 33px;""><img src=""images/choice_trial_1.png"" style=""width: 408px; height: 417px; margin-right: 608px;""></div></div>",,delaylearn,learning,display_response,vRXGXiaJLCdYrnxYqBohs4NChQt2,vRXGXiaJLCdYrnxYqBohs4NChQt2,,,,,,,,,,,,,,,,,chosen stimuli: images/choice_trial_1.png,,,,,5fecdbad0b1a449e3288b07b,16:49:32,27/03/2024
html-keyboard-response,108,215789,0.0-46.0-2.0,,,,delaylearn,learning,feedback_duration_window,vRXGXiaJLCdYrnxYqBohs4NChQt2,vRXGXiaJLCdYrnxYqBohs4NChQt2,,,,,,,,,,,,,,,,,,7000.0,,,,5fecdbad0b1a449e3288b07b,16:49:32,27/03/2024
html-keyboard-response,109,217293,0.0-46.0-3.0,,<div style='margin:auto;width: auto; font-size: 150%'><span style='font-weight: bold; font-size: 100px; color: green;'>+10 points!</span><br><br></div>,,delaylearn,learning,feedback_image_window,vRXGXiaJLCdYrnxYqBohs4NChQt2,vRXGXiaJLCdYrnxYqBohs4NChQt2,,,,,,,,,,,,,,,,,,,,,,5fecdbad0b1a449e3288b07b,16:49:32,27/03/2024
html-keyboard-response,110,219744,0.0-47.0,,"<div style=""font-size:100px;"">+</div>",,delaylearn,learning,ITI,vRXGXiaJLCdYrnxYqBohs4NChQt2,vRXGXiaJLCdYrnxYqBohs4NChQt2,,,,,,,,,,,,,,,,,,,2442.0,,,5fecdbad0b1a449e3288b07b,16:49:32,27/03/2024
html-keyboard-response,111,221572,0.0-48.0-0.0,1826.2999999970198,"<div style=""display: flex; flex-direction: column; align-items: center; margin-top: -40px;""><img src=""images/pattern_6.png"" style=""width: 234px; height: 230px; margin-top: -50px;""><div style=""display: flex; justify-content: space-between; margin-top: 33px;""><img src=""images/choice_trial_3.png"" style=""width: 408px; height: 417px; margin-right: 200px;""><img src=""images/choice_trial_10.png"" style=""width: 408px; height: 417px;""></div></div>",f,delaylearn,learning,trial,vRXGXiaJLCdYrnxYqBohs4NChQt2,vRXGXiaJLCdYrnxYqBohs4NChQt2,4.0,images/choice_trial_3.png,images/choice_trial_10.png,images/pattern_6.png,j,j,750.0,3.0,10.0,5.0,1.0,21.0,0.0,0.0,3.0,110.0,,,,,,5fecdbad0b1a449e3288b07b,16:49:32,27/03/2024
html-keyboard-response,112,222586,0.0-48.0-1.0,,"<div style=""display: flex; flex-direction: column; align-items: center; margin-top: -40px;""><img src=""images/pattern_6.png"" style=""width: 234px; height: 230px; margin-top: -50px;""><div style=""display: flex; justify-content: space-between; margin-top: 33px;""><img src=""images/choice_trial_3.png"" style=""width: 408px; height: 417px; margin-right: 608px;""></div></div>",,delaylearn,learning,display_response,vRXGXiaJLCdYrnxYqBohs4NChQt2,vRXGXiaJLCdYrnxYqBohs4NChQt2,,,,,,,,,,,,,,,,,chosen stimuli: images/choice_trial_3.png,,,,,5fecdbad0b1a449e3288b07b,16:49:32,27/03/2024
html-keyboard-response,113,223339,0.0-48.0-2.0,,,,delaylearn,learning,feedback_duration_window,vRXGXiaJLCdYrnxYqBohs4NChQt2,vRXGXiaJLCdYrnxYqBohs4NChQt2,,,,,,,,,,,,,,,,,,750.0,,,,5fecdbad0b1a449e3288b07b,16:49:32,27/03/2024
html-keyboard-response,114,224841,0.0-48.0-3.0,,<div style='margin:auto;width: auto; font-size: 150%'><span style='font-weight: bold; font-size: 100px; color: red;'>0 points!</span><br><br></div>,,delaylearn,learning,feedback_image_window,vRXGXiaJLCdYrnxYqBohs4NChQt2,vRXGXiaJLCdYrnxYqBohs4NChQt2,,,,,,,,,,,,,,,,,,,,,,5fecdbad0b1a449e3288b07b,16:49:32,27/03/2024
html-keyboard-response,115,226788,0.0-49.0,,"<div style=""font-size:100px;"">+</div>",,delaylearn,learning,ITI,vRXGXiaJLCdYrnxYqBohs4NChQt2,vRXGXiaJLCdYrnxYqBohs4NChQt2,,,,,,,,,,,,,,,,,,,1931.0,,,5fecdbad0b1a449e3288b07b,16:49:32,27/03/2024
html-keyboard-response,116,228305,0.0-50.0-0.0,1515.4000000059605,"<div style=""display: flex; flex-direction: column; align-items: center; margin-top: -40px;""><img src=""images/pattern_4.png"" style=""width: 234px; height: 230px; margin-top: -50px;""><div style=""display: flex; justify-content: space-between; margin-top: 33px;""><img src=""images/choice_trial_8.png"" style=""width: 408px; height: 417px; margin-right: 200px;""><img src=""images/choice_trial_7.png"" style=""width: 408px; height: 417px;""></div></div>",f,delaylearn,learning,trial,vRXGXiaJLCdYrnxYqBohs4NChQt2,vRXGXiaJLCdYrnxYqBohs4NChQt2,4.0,images/choice_trial_8.png,images/choice_trial_7.png,images/pattern_4.png,f,f,7000.0,8.0,7.0,3.0,0.0,22.0,1.0,1.0,8.0,120.0,,,,,,5fecdbad0b1a449e3288b07b,16:49:32,27/03/2024
html-keyboard-response,117,229312,0.0-50.0-1.0,,"<div style=""display: flex; flex-direction: column; align-items: center; margin-top: -40px;""><img src=""images/pattern_4.png"" style=""width: 234px; height: 230px; margin-top: -50px;""><div style=""display: flex; justify-content: space-between; margin-top: 33px;""><img src=""images/choice_trial_8.png"" style=""width: 408px; height: 417px; margin-right: 608px;""></div></div>",,delaylearn,learning,display_response,vRXGXiaJLCdYrnxYqBohs4NChQt2,vRXGXiaJLCdYrnxYqBohs4NChQt2,,,,,,,,,,,,,,,,,chosen stimuli: images/choice_trial_8.png,,,,,5fecdbad0b1a449e3288b07b,16:49:32,27/03/2024
html-keyboard-response,118,236328,0.0-50.0-2.0,,,,delaylearn,learning,feedback_duration_window,vRXGXiaJLCdYrnxYqBohs4NChQt2,vRXGXiaJLCdYrnxYqBohs4NChQt2,,,,,,,,,,,,,,,,,,7000.0,,,,5fecdbad0b1a449e3288b07b,16:49:32,27/03/2024
html-keyboard-response,119,237837,0.0-50.0-3.0,,<div style='margin:auto;width: auto; font-size: 150%'><span style='font-weight: bold; font-size: 100px; color: green;'>+10 points!</span><br><br></div>,,delaylearn,learning,feedback_image_window,vRXGXiaJLCdYrnxYqBohs4NChQt2,vRXGXiaJLCdYrnxYqBohs4NChQt2,,,,,,,,,,,,,,,,,,,,,,5fecdbad0b1a449e3288b07b,16:49:32,27/03/2024
html-keyboard-response,120,238346,0.0-51.0-0.0,,,,,,mood_trial_fixation,vRXGXiaJLCdYrnxYqBohs4NChQt2,,,,,,,,,,,,,,,,,,,,,,,5fecdbad0b1a449e3288b07b,16:49:32,27/03/2024
lmdlab-html-vas-response,121,241945,0.0-51.0-1.0,2583.0,How happy are you right now?,0.8252314461602105,delaylearn,learning,mood_trial,vRXGXiaJLCdYrnxYqBohs4NChQt2,vRXGXiaJLCdYrnxYqBohs4NChQt2,,,,,,,,,,,,,,,,,,,,"['Very unhappy', 'Very happy']",,5fecdbad0b1a449e3288b07b,16:49:32,27/03/2024
html-keyboard-response,122,244255,0.0-52.0,,"<div style=""font-size:100px;"">+</div>",,delaylearn,learning,ITI,vRXGXiaJLCdYrnxYqBohs4NChQt2,vRXGXiaJLCdYrnxYqBohs4NChQt2,,,,,,,,,,,,,,,,,,,2302.0,,,5fecdbad0b1a449e3288b07b,16:49:32,27/03/2024
html-keyboard-response,123,245173,0.0-53.0-0.0,916.0,"<div style=""display: flex; flex-direction: column; align-items: center; margin-top: -40px;""><img src=""images/pattern_7.png"" style=""width: 234px; height: 230px; margin-top: -50px;""><div style=""display: flex; justify-content: space-between; margin-top: 33px;""><img src=""images/choice_trial_4.png"" style=""width: 408px; height: 417px; margin-right: 200px;""><img src=""images/choice_trial_13.png"" style=""width: 408px; height: 417px;""></div></div>",f,delaylearn,learning,trial,vRXGXiaJLCdYrnxYqBohs4NChQt2,vRXGXiaJLCdYrnxYqBohs4NChQt2,4.0,images/choice_trial_4.png,images/choice_trial_13.png,images/pattern_7.png,j,j,750.0,4.0,13.0,6.0,1.0,23.0,0.0,0.0,4.0,120.0,,,,,,5fecdbad0b1a449e3288b07b,16:49:32,27/03/2024
html-keyboard-response,124,246180,0.0-53.0-1.0,,"<div style=""display: flex; flex-direction: column; align-items: center; margin-top: -40px;""><img src=""images/pattern_7.png"" style=""width: 234px; height: 230px; margin-top: -50px;""><div style=""display: flex; justify-content: space-between; margin-top: 33px;""><img src=""images/choice_trial_4.png"" style=""width: 408px; height: 417px; margin-right: 608px;""></div></div>",,delaylearn,learning,display_response,vRXGXiaJLCdYrnxYqBohs4NChQt2,vRXGXiaJLCdYrnxYqBohs4NChQt2,,,,,,,,,,,,,,,,,chosen stimuli: images/choice_trial_4.png,,,,,5fecdbad0b1a449e3288b07b,16:49:32,27/03/2024
html-keyboard-response,125,246941,0.0-53.0-2.0,,,,delaylearn,learning,feedback_duration_window,vRXGXiaJLCdYrnxYqBohs4NChQt2,vRXGXiaJLCdYrnxYqBohs4NChQt2,,,,,,,,,,,,,,,,,,750.0,,,,5fecdbad0b1a449e3288b07b,16:49:32,27/03/2024
html-keyboard-response,126,248454,0.0-53.0-3.0,,<div style='margin:auto;width: auto; font-size: 150%'><span style='font-weight: bold; font-size: 100px; color: red;'>0 points!</span><br><br></div>,,delaylearn,learning,feedback_image_window,vRXGXiaJLCdYrnxYqBohs4NChQt2,vRXGXiaJLCdYrnxYqBohs4NChQt2,,,,,,,,,,,,,,,,,,,,,,5fecdbad0b1a449e3288b07b,16:49:32,27/03/2024
html-keyboard-response,127,250792,0.0-54.0,,"<div style=""font-size:100px;"">+</div>",,delaylearn,learning,ITI,vRXGXiaJLCdYrnxYqBohs4NChQt2,vRXGXiaJLCdYrnxYqBohs4NChQt2,,,,,,,,,,,,,,,,,,,2331.0,,,5fecdbad0b1a449e3288b07b,16:49:32,27/03/2024
html-keyboard-response,128,252696,0.0-55.0-0.0,1903.1000000089407,"<div style=""display: flex; flex-direction: column; align-items: center; margin-top: -40px;""><img src=""images/pattern_1.png"" style=""width: 234px; height: 230px; margin-top: -50px;""><div style=""display: flex; justify-content: space-between; margin-top: 33px;""><img src=""images/choice_trial_9.png"" style=""width: 408px; height: 417px; margin-right: 200px;""><img src=""images/choice_trial_1.png"" style=""width: 408px; height: 417px;""></div></div>",f,delaylearn,learning,trial,vRXGXiaJLCdYrnxYqBohs4NChQt2,vRXGXiaJLCdYrnxYqBohs4NChQt2,4.0,images/choice_trial_9.png,images/choice_trial_1.png,images/pattern_1.png,f,j,7000.0,9.0,1.0,1.0,1.0,24.0,0.0,1.0,9.0,130.0,,,,,,5fecdbad0b1a449e3288b07b,16:49:32,27/03/2024
html-keyboard-response,129,253699,0.0-55.0-1.0,,"<div style=""display: flex; flex-direction: column; align-items: center; margin-top: -40px;""><img src=""images/pattern_1.png"" style=""width: 234px; height: 230px; margin-top: -50px;""><div style=""display: flex; justify-content: space-between; margin-top: 33px;""><img src=""images/choice_trial_9.png"" style=""width: 408px; height: 417px; margin-right: 608px;""></div></div>",,delaylearn,learning,display_response,vRXGXiaJLCdYrnxYqBohs4NChQt2,vRXGXiaJLCdYrnxYqBohs4NChQt2,,,,,,,,,,,,,,,,,chosen stimuli: images/choice_trial_9.png,,,,,5fecdbad0b1a449e3288b07b,16:49:32,27/03/2024
html-keyboard-response,130,260714,0.0-55.0-2.0,,,,delaylearn,learning,feedback_duration_window,vRXGXiaJLCdYrnxYqBohs4NChQt2,vRXGXiaJLCdYrnxYqBohs4NChQt2,,,,,,,,,,,,,,,,,,7000.0,,,,5fecdbad0b1a449e3288b07b,16:49:32,27/03/2024
html-keyboard-response,131,262227,0.0-55.0-3.0,,<div style='margin:auto;width: auto; font-size: 150%'><span style='font-weight: bold; font-size: 100px; color: green;'>+10 points!</span><br><br></div>,,delaylearn,learning,feedback_image_window,vRXGXiaJLCdYrnxYqBohs4NChQt2,vRXGXiaJLCdYrnxYqBohs4NChQt2,,,,,,,,,,,,,,,,,,,,,,5fecdbad0b1a449e3288b07b,16:49:32,27/03/2024
html-keyboard-response,132,263886,0.0-56.0,,"<div style=""font-size:100px;"">+</div>",,delaylearn,learning,ITI,vRXGXiaJLCdYrnxYqBohs4NChQt2,vRXGXiaJLCdYrnxYqBohs4NChQt2,,,,,,,,,,,,,,,,,,,1649.0,,,5fecdbad0b1a449e3288b07b,16:49:32,27/03/2024
html-keyboard-response,133,265163,0.0-57.0-0.0,1274.7999999970198,"<div style=""display: flex; flex-direction: column; align-items: center; margin-top: -40px;""><img src=""images/pattern_5.png"" style=""width: 234px; height: 230px; margin-top: -50px;""><div style=""display: flex; justify-content: space-between; margin-top: 33px;""><img src=""images/choice_trial_15.png"" style=""width: 408px; height: 417px; margin-right: 200px;""><img src=""images/choice_trial_5.png"" style=""width: 408px; height: 417px;""></div></div>",j,delaylearn,learning,trial,vRXGXiaJLCdYrnxYqBohs4NChQt2,vRXGXiaJLCdYrnxYqBohs4NChQt2,4.0,images/choice_trial_15.png,images/choice_trial_5.png,images/pattern_5.png,j,j,750.0,15.0,5.0,4.0,1.0,25.0,1.0,1.0,5.0,140.0,,,,,,5fecdbad0b1a449e3288b07b,16:49:32,27/03/2024
html-keyboard-response,134,266167,0.0-57.0-1.0,,"<div style=""display: flex; flex-direction: column; align-items: center; margin-top: -40px;""><img src=""images/pattern_5.png"" style=""width: 234px; height: 230px; margin-top: -50px;""><div style=""display: flex; justify-content: space-between; margin-top: 33px;""><img src=""images/choice_trial_5.png"" style=""width: 408px; height: 417px; margin-left:608px;""></div></div>",,delaylearn,learning,display_response,vRXGXiaJLCdYrnxYqBohs4NChQt2,vRXGXiaJLCdYrnxYqBohs4NChQt2,,,,,,,,,,,,,,,,,chosen stimuli: images/choice_trial_5.png,,,,,5fecdbad0b1a449e3288b07b,16:49:32,27/03/2024
html-keyboard-response,135,266929,0.0-57.0-2.0,,,,delaylearn,learning,feedback_duration_window,vRXGXiaJLCdYrnxYqBohs4NChQt2,vRXGXiaJLCdYrnxYqBohs4NChQt2,,,,,,,,,,,,,,,,,,750.0,,,,5fecdbad0b1a449e3288b07b,16:49:32,27/03/2024
html-keyboard-response,136,268443,0.0-57.0-3.0,,<div style='margin:auto;width: auto; font-size: 150%'><span style='font-weight: bold; font-size: 100px; color: green;'>+10 points!</span><br><br></div>,,delaylearn,learning,feedback_image_window,vRXGXiaJLCdYrnxYqBohs4NChQt2,vRXGXiaJLCdYrnxYqBohs4NChQt2,,,,,,,,,,,,,,,,,,,,,,5fecdbad0b1a449e3288b07b,16:49:32,27/03/2024
html-keyboard-response,137,269975,0.0-58.0,,"<div style=""font-size:100px;"">+</div>",,delaylearn,learning,ITI,vRXGXiaJLCdYrnxYqBohs4NChQt2,vRXGXiaJLCdYrnxYqBohs4NChQt2,,,,,,,,,,,,,,,,,,,1522.0,,,5fecdbad0b1a449e3288b07b,16:49:32,27/03/2024
html-keyboard-response,138,271657,0.0-59.0-0.0,1679.8999999910593,"<div style=""display: flex; flex-direction: column; align-items: center; margin-top: -40px;""><img src=""images/pattern_3.png"" style=""width: 234px; height: 230px; margin-top: -50px;""><div style=""display: flex; justify-content: space-between; margin-top: 33px;""><img src=""images/choice_trial_6.png"" style=""width: 408px; height: 417px; margin-right: 200px;""><img src=""images/choice_trial_16.png"" style=""width: 408px; height: 417px;""></div></div>",j,delaylearn,learning,trial,vRXGXiaJLCdYrnxYqBohs4NChQt2,vRXGXiaJLCdYrnxYqBohs4NChQt2,4.0,images/choice_trial_6.png,images/choice_trial_16.png,images/pattern_3.png,j,j,7000.0,6.0,16.0,2.0,1.0,26.0,1.0,1.0,16.0,150.0,,,,,,5fecdbad0b1a449e3288b07b,16:49:32,27/03/2024
html-keyboard-response,139,272668,0.0-59.0-1.0,,"<div style=""display: flex; flex-direction: column; align-items: center; margin-top: -40px;""><img src=""images/pattern_3.png"" style=""width: 234px; height: 230px; margin-top: -50px;""><div style=""display: flex; justify-content: space-between; margin-top: 33px;""><img src=""images/choice_trial_16.png"" style=""width: 408px; height: 417px; margin-left:608px;""></div></div>",,delaylearn,learning,display_response,vRXGXiaJLCdYrnxYqBohs4NChQt2,vRXGXiaJLCdYrnxYqBohs4NChQt2,,,,,,,,,,,,,,,,,chosen stimuli: images/choice_trial_16.png,,,,,5fecdbad0b1a449e3288b07b,16:49:32,27/03/2024
html-keyboard-response,140,279674,0.0-59.0-2.0,,,,delaylearn,learning,feedback_duration_window,vRXGXiaJLCdYrnxYqBohs4NChQt2,vRXGXiaJLCdYrnxYqBohs4NChQt2,,,,,,,,,,,,,,,,,,7000.0,,,,5fecdbad0b1a449e3288b07b,16:49:32,27/03/2024
html-keyboard-response,141,281191,0.0-59.0-3.0,,<div style='margin:auto;width: auto; font-size: 150%'><span style='font-weight: bold; font-size: 100px; color: green;'>+10 points!</span><br><br></div>,,delaylearn,learning,feedback_image_window,vRXGXiaJLCdYrnxYqBohs4NChQt2,vRXGXiaJLCdYrnxYqBohs4NChQt2,,,,,,,,,,,,,,,,,,,,,,5fecdbad0b1a449e3288b07b,16:49:32,27/03/2024
lmdlab-html-vas-response,142,288576,0.0-60.0-0.0,5866.0,*How <b><u>confident</u></b> are you feeling about your answers at this moment?*,0.6793981128268771,rewlearn,rate_confidence,,vRXGXiaJLCdYrnxYqBohs4NChQt2,vRXGXiaJLCdYrnxYqBohs4NChQt2,,,,,,,,,,,,,,,,,,,,"['No confidence', 'Complete confidence']",,5fecdbad0b1a449e3288b07b,16:49:32,27/03/2024
lmdlab-rest-trial-limit,143,295935,0.0-60.0-1.0,5853.0999999940395,"<div style=""font-size:40px;""><b>Please take a break!</b><br><br><br><br><p>Great work: you earned 150 points.<br><br><br><p>You have completed part(s) 1 of 5.<br><br><br><br>When you are ready to continue<br><br><br>please click the button.</p><br><br>",0,delaylearn,learning,break,vRXGXiaJLCdYrnxYqBohs4NChQt2,vRXGXiaJLCdYrnxYqBohs4NChQt2,,,,,,,,,,,,,,,,,,,,,0.0,5fecdbad0b1a449e3288b07b,16:49:32,27/03/2024
html-keyboard-response,144,298936,0.0-60.0-2.0,,"<div style=""font-size:100px;"">+</div>",,delaylearn,learning,pre_fixation,vRXGXiaJLCdYrnxYqBohs4NChQt2,,,,,,,,,,,,,,,,,,,,,,,5fecdbad0b1a449e3288b07b,16:49:32,27/03/2024
lmdlab-html-vas-response,145,304013,0.0-60.0-3.0-0.0,4061.0,How happy are you right now?,0.6221064461602105,delaylearn,learning,mood_baseline,vRXGXiaJLCdYrnxYqBohs4NChQt2,vRXGXiaJLCdYrnxYqBohs4NChQt2,,,,,,,,,,,,,,,,,,,,"['Very unhappy', 'Very happy']",,5fecdbad0b1a449e3288b07b,16:49:32,27/03/2024
html-keyboard-response,146,305528,0.0-60.0-3.0-1.0,,,,,,mood_baseline_fixation,vRXGXiaJLCdYrnxYqBohs4NChQt2,,,,,,,,,,,,,,,,,,,,,,,5fecdbad0b1a449e3288b07b,16:49:32,27/03/2024
html-keyboard-response,147,307603,0.0-61.0,,"<div style=""font-size:100px;"">+</div>",,delaylearn,learning,ITI,vRXGXiaJLCdYrnxYqBohs4NChQt2,vRXGXiaJLCdYrnxYqBohs4NChQt2,,,,,,,,,,,,,,,,,,,2071.0,,,5fecdbad0b1a449e3288b07b,16:49:32,27/03/2024
html-keyboard-response,148,309042,0.0-62.0-0.0,1436.6000000089407,"<div style=""display: flex; flex-direction: column; align-items: center; margin-top: -40px;""><img src=""images/pattern_7.png"" style=""width: 234px; height: 230px; margin-top: -50px;""><div style=""display: flex; justify-content: space-between; margin-top: 33px;""><img src=""images/choice_trial_4.png"" style=""width: 408px; height: 417px; margin-right: 200px;""><img src=""images/choice_trial_13.png"" style=""width: 408px; height: 417px;""></div></div>",f,delaylearn,learning,trial,vRXGXiaJLCdYrnxYqBohs4NChQt2,vRXGXiaJLCdYrnxYqBohs4NChQt2,4.0,images/choice_trial_4.png,images/choice_trial_13.png,images/pattern_7.png,j,j,750.0,4.0,13.0,6.0,1.0,27.0,0.0,0.0,4.0,150.0,,,,,,5fecdbad0b1a449e3288b07b,16:49:32,27/03/2024
html-keyboard-response,149,310053,0.0-62.0-1.0,,"<div style=""display: flex; flex-direction: column; align-items: center; margin-top: -40px;""><img src=""images/pattern_7.png"" style=""width: 234px; height: 230px; margin-top: -50px;""><div style=""display: flex; justify-content: space-between; margin-top: 33px;""><img src=""images/choice_trial_4.png"" style=""width: 408px; height: 417px; margin-right: 608px;""></div></div>",,delaylearn,learning,display_response,vRXGXiaJLCdYrnxYqBohs4NChQt2,vRXGXiaJLCdYrnxYqBohs4NChQt2,,,,,,,,,,,,,,,,,chosen stimuli: images/choice_trial_4.png,,,,,5fecdbad0b1a449e3288b07b,16:49:32,27/03/2024
html-keyboard-response,150,310814,0.0-62.0-2.0,,,,delaylearn,learning,feedback_duration_window,vRXGXiaJLCdYrnxYqBohs4NChQt2,vRXGXiaJLCdYrnxYqBohs4NChQt2,,,,,,,,,,,,,,,,,,750.0,,,,5fecdbad0b1a449e3288b07b,16:49:32,27/03/2024
html-keyboard-response,151,312316,0.0-62.0-3.0,,<div style='margin:auto;width: auto; font-size: 150%'><span style='font-weight: bold; font-size: 100px; color: red;'>0 points!</span><br><br></div>,,delaylearn,learning,feedback_image_window,vRXGXiaJLCdYrnxYqBohs4NChQt2,vRXGXiaJLCdYrnxYqBohs4NChQt2,,,,,,,,,,,,,,,,,,,,,,5fecdbad0b1a449e3288b07b,16:49:32,27/03/2024
html-keyboard-response,152,312819,0.0-63.0-0.0,,,,,,mood_trial_fixation,vRXGXiaJLCdYrnxYqBohs4NChQt2,,,,,,,,,,,,,,,,,,,,,,,5fecdbad0b1a449e3288b07b,16:49:32,27/03/2024
lmdlab-html-vas-response,153,316380,0.0-63.0-1.0,2554.0,How happy are you right now?,0.7054397794935439,delaylearn,learning,mood_trial,vRXGXiaJLCdYrnxYqBohs4NChQt2,vRXGXiaJLCdYrnxYqBohs4NChQt2,,,,,,,,,,,,,,,,,,,,"['Very unhappy', 'Very happy']",,5fecdbad0b1a449e3288b07b,16:49:32,27/03/2024
html-keyboard-response,154,318572,0.0-64.0,,"<div style=""font-size:100px;"">+</div>",,delaylearn,learning,ITI,vRXGXiaJLCdYrnxYqBohs4NChQt2,vRXGXiaJLCdYrnxYqBohs4NChQt2,,,,,,,,,,,,,,,,,,,2184.0,,,5fecdbad0b1a449e3288b07b,16:49:32,27/03/2024
html-keyboard-response,155,320499,0.0-65.0-0.0,1925.5,"<div style=""display: flex; flex-direction: column; align-items: center; margin-top: -40px;""><img src=""images/pattern_1.png"" style=""width: 234px; height: 230px; margin-top: -50px;""><div style=""display: flex; justify-content: space-between; margin-top: 33px;""><img src=""images/choice_trial_1.png"" style=""width: 408px; height: 417px; margin-right: 200px;""><img src=""images/choice_trial_9.png"" style=""width: 408px; height: 417px;""></div></div>",j,delaylearn,learning,trial,vRXGXiaJLCdYrnxYqBohs4NChQt2,vRXGXiaJLCdYrnxYqBohs4NChQt2,4.0,images/choice_trial_1.png,images/choice_trial_9.png,images/pattern_1.png,f,f,7000.0,1.0,9.0,1.0,0.0,28.0,0.0,0.0,9.0,150.0,,,,,,5fecdbad0b1a449e3288b07b,16:49:32,27/03/2024
html-keyboard-response,156,321508,0.0-65.0-1.0,,"<div style=""display: flex; flex-direction: column; align-items: center; margin-top: -40px;""><img src=""images/pattern_1.png"" style=""width: 234px; height: 230px; margin-top: -50px;""><div style=""display: flex; justify-content: space-between; margin-top: 33px;""><img src=""images/choice_trial_9.png"" style=""width: 408px; height: 417px; margin-left:608px;""></div></div>",,delaylearn,learning,display_response,vRXGXiaJLCdYrnxYqBohs4NChQt2,vRXGXiaJLCdYrnxYqBohs4NChQt2,,,,,,,,,,,,,,,,,chosen stimuli: images/choice_trial_9.png,,,,,5fecdbad0b1a449e3288b07b,16:49:32,27/03/2024
html-keyboard-response,157,328512,0.0-65.0-2.0,,,,delaylearn,learning,feedback_duration_window,vRXGXiaJLCdYrnxYqBohs4NChQt2,vRXGXiaJLCdYrnxYqBohs4NChQt2,,,,,,,,,,,,,,,,,,7000.0,,,,5fecdbad0b1a449e3288b07b,16:49:32,27/03/2024
html-keyboard-response,158,330016,0.0-65.0-3.0,,<div style='margin:auto;width: auto; font-size: 150%'><span style='font-weight: bold; font-size: 100px; color: red;'>0 points!</span><br><br></div>,,delaylearn,learning,feedback_image_window,vRXGXiaJLCdYrnxYqBohs4NChQt2,vRXGXiaJLCdYrnxYqBohs4NChQt2,,,,,,,,,,,,,,,,,,,,,,5fecdbad0b1a449e3288b07b,16:49:32,27/03/2024
html-keyboard-response,159,332360,0.0-66.0,,"<div style=""font-size:100px;"">+</div>",,delaylearn,learning,ITI,vRXGXiaJLCdYrnxYqBohs4NChQt2,vRXGXiaJLCdYrnxYqBohs4NChQt2,,,,,,,,,,,,,,,,,,,2329.0,,,5fecdbad0b1a449e3288b07b,16:49:32,27/03/2024
html-keyboard-response,160,333306,0.0-67.0-0.0,944.6000000089407,"<div style=""display: flex; flex-direction: column; align-items: center; margin-top: -40px;""><img src=""images/pattern_5.png"" style=""width: 234px; height: 230px; margin-top: -50px;""><div style=""display: flex; justify-content: space-between; margin-top: 33px;""><img src=""images/choice_trial_5.png"" style=""width: 408px; height: 417px; margin-right: 200px;""><img src=""images/choice_trial_15.png"" style=""width: 408px; height: 417px;""></div></div>",f,delaylearn,learning,trial,vRXGXiaJLCdYrnxYqBohs4NChQt2,vRXGXiaJLCdYrnxYqBohs4NChQt2,4.0,images/choice_trial_5.png,images/choice_trial_15.png,images/pattern_5.png,f,f,750.0,5.0,15.0,4.0,0.0,29.0,1.0,1.0,5.0,160.0,,,,,,5fecdbad0b1a449e3288b07b,16:49:32,27/03/2024
html-keyboard-response,161,334311,0.0-67.0-1.0,,"<div style=""display: flex; flex-direction: column; align-items: center; margin-top: -40px;""><img src=""images/pattern_5.png"" style=""width: 234px; height: 230px; margin-top: -50px;""><div style=""display: flex; justify-content: space-between; margin-top: 33px;""><img src=""images/choice_trial_5.png"" style=""width: 408px; height: 417px; margin-right: 608px;""></div></div>",,delaylearn,learning,display_response,vRXGXiaJLCdYrnxYqBohs4NChQt2,vRXGXiaJLCdYrnxYqBohs4NChQt2,,,,,,,,,,,,,,,,,chosen stimuli: images/choice_trial_5.png,,,,,5fecdbad0b1a449e3288b07b,16:49:32,27/03/2024
html-keyboard-response,162,335067,0.0-67.0-2.0,,,,delaylearn,learning,feedback_duration_window,vRXGXiaJLCdYrnxYqBohs4NChQt2,vRXGXiaJLCdYrnxYqBohs4NChQt2,,,,,,,,,,,,,,,,,,750.0,,,,5fecdbad0b1a449e3288b07b,16:49:32,27/03/2024
html-keyboard-response,163,336572,0.0-67.0-3.0,,<div style='margin:auto;width: auto; font-size: 150%'><span style='font-weight: bold; font-size: 100px; color: green;'>+10 points!</span><br><br></div>,,delaylearn,learning,feedback_image_window,vRXGXiaJLCdYrnxYqBohs4NChQt2,vRXGXiaJLCdYrnxYqBohs4NChQt2,,,,,,,,,,,,,,,,,,,,,,5fecdbad0b1a449e3288b07b,16:49:32,27/03/2024
html-keyboard-response,164,338109,0.0-68.0,,"<div style=""font-size:100px;"">+</div>",,delaylearn,learning,ITI,vRXGXiaJLCdYrnxYqBohs4NChQt2,vRXGXiaJLCdYrnxYqBohs4NChQt2,,,,,,,,,,,,,,,,,,,1523.0,,,5fecdbad0b1a449e3288b07b,16:49:32,27/03/2024
html-keyboard-response,165,340620,0.0-69.0-0.0,2509.7999999970198,"<div style=""display: flex; flex-direction: column; align-items: center; margin-top: -40px;""><img src=""images/pattern_6.png"" style=""width: 234px; height: 230px; margin-top: -50px;""><div style=""display: flex; justify-content: space-between; margin-top: 33px;""><img src=""images/choice_trial_3.png"" style=""width: 408px; height: 417px; margin-right: 200px;""><img src=""images/choice_trial_10.png"" style=""width: 408px; height: 417px;""></div></div>",f,delaylearn,learning,trial,vRXGXiaJLCdYrnxYqBohs4NChQt2,vRXGXiaJLCdYrnxYqBohs4NChQt2,4.0,images/choice_trial_3.png,images/choice_trial_10.png,images/pattern_6.png,j,j,750.0,3.0,10.0,5.0,1.0,30.0,0.0,0.0,3.0,160.0,,,,,,5fecdbad0b1a449e3288b07b,16:49:32,27/03/2024
html-keyboard-response,166,341633,0.0-69.0-1.0,,"<div style=""display: flex; flex-direction: column; align-items: center; margin-top: -40px;""><img src=""images/pattern_6.png"" style=""width: 234px; height: 230px; margin-top: -50px;""><div style=""display: flex; justify-content: space-between; margin-top: 33px;""><img src=""images/choice_trial_3.png"" style=""width: 408px; height: 417px; margin-right: 608px;""></div></div>",,delaylearn,learning,display_response,vRXGXiaJLCdYrnxYqBohs4NChQt2,vRXGXiaJLCdYrnxYqBohs4NChQt2,,,,,,,,,,,,,,,,,chosen stimuli: images/choice_trial_3.png,,,,,5fecdbad0b1a449e3288b07b,16:49:32,27/03/2024
html-keyboard-response,167,342400,0.0-69.0-2.0,,,,delaylearn,learning,feedback_duration_window,vRXGXiaJLCdYrnxYqBohs4NChQt2,vRXGXiaJLCdYrnxYqBohs4NChQt2,,,,,,,,,,,,,,,,,,750.0,,,,5fecdbad0b1a449e3288b07b,16:49:32,27/03/2024
html-keyboard-response,168,343905,0.0-69.0-3.0,,<div style='margin:auto;width: auto; font-size: 150%'><span style='font-weight: bold; font-size: 100px; color: red;'>0 points!</span><br><br></div>,,delaylearn,learning,feedback_image_window,vRXGXiaJLCdYrnxYqBohs4NChQt2,vRXGXiaJLCdYrnxYqBohs4NChQt2,,,,,,,,,,,,,,,,,,,,,,5fecdbad0b1a449e3288b07b,16:49:32,27/03/2024
html-keyboard-response,169,344411,0.0-70.0-0.0,,,,,,mood_trial_fixation,vRXGXiaJLCdYrnxYqBohs4NChQt2,,,,,,,,,,,,,,,,,,,,,,,5fecdbad0b1a449e3288b07b,16:49:32,27/03/2024
lmdlab-html-vas-response,170,347645,0.0-70.0-1.0,2216.0,How happy are you right now?,0.6585647794935439,delaylearn,learning,mood_trial,vRXGXiaJLCdYrnxYqBohs4NChQt2,vRXGXiaJLCdYrnxYqBohs4NChQt2,,,,,,,,,,,,,,,,,,,,"['Very unhappy', 'Very happy']",,5fecdbad0b1a449e3288b07b,16:49:32,27/03/2024
html-keyboard-response,171,349311,0.0-71.0,,"<div style=""font-size:100px;"">+</div>",,delaylearn,learning,ITI,vRXGXiaJLCdYrnxYqBohs4NChQt2,vRXGXiaJLCdYrnxYqBohs4NChQt2,,,,,,,,,,,,,,,,,,,1657.0,,,5fecdbad0b1a449e3288b07b,16:49:32,27/03/2024
html-keyboard-response,172,351002,0.0-72.0-0.0,1689.5999999940395,"<div style=""display: flex; flex-direction: column; align-items: center; margin-top: -40px;""><img src=""images/pattern_4.png"" style=""width: 234px; height: 230px; margin-top: -50px;""><div style=""display: flex; justify-content: space-between; margin-top: 33px;""><img src=""images/choice_trial_7.png"" style=""width: 408px; height: 417px; margin-right: 200px;""><img src=""images/choice_trial_8.png"" style=""width: 408px; height: 417px;""></div></div>",j,delaylearn,learning,trial,vRXGXiaJLCdYrnxYqBohs4NChQt2,vRXGXiaJLCdYrnxYqBohs4NChQt2,4.0,images/choice_trial_7.png,images/choice_trial_8.png,images/pattern_4.png,j,j,7000.0,7.0,8.0,3.0,1.0,31.0,1.0,1.0,8.0,170.0,,,,,,5fecdbad0b1a449e3288b07b,16:49:32,27/03/2024
html-keyboard-response,173,352015,0.0-72.0-1.0,,"<div style=""display: flex; flex-direction: column; align-items: center; margin-top: -40px;""><img src=""images/pattern_4.png"" style=""width: 234px; height: 230px; margin-top: -50px;""><div style=""display: flex; justify-content: space-between; margin-top: 33px;""><img src=""images/choice_trial_8.png"" style=""width: 408px; height: 417px; margin-left:608px;""></div></div>",,delaylearn,learning,display_response,vRXGXiaJLCdYrnxYqBohs4NChQt2,vRXGXiaJLCdYrnxYqBohs4NChQt2,,,,,,,,,,,,,,,,,chosen stimuli: images/choice_trial_8.png,,,,,5fecdbad0b1a449e3288b07b,16:49:32,27/03/2024
html-keyboard-response,174,359022,0.0-72.0-2.0,,,,delaylearn,learning,feedback_duration_window,vRXGXiaJLCdYrnxYqBohs4NChQt2,vRXGXiaJLCdYrnxYqBohs4NChQt2,,,,,,,,,,,,,,,,,,7000.0,,,,5fecdbad0b1a449e3288b07b,16:49:32,27/03/2024
html-keyboard-response,175,360533,0.0-72.0-3.0,,<div style='margin:auto;width: auto; font-size: 150%'><span style='font-weight: bold; font-size: 100px; color: green;'>+10 points!</span><br><br></div>,,delaylearn,learning,feedback_image_window,vRXGXiaJLCdYrnxYqBohs4NChQt2,vRXGXiaJLCdYrnxYqBohs4NChQt2,,,,,,,,,,,,,,,,,,,,,,5fecdbad0b1a449e3288b07b,16:49:32,27/03/2024
html-keyboard-response,176,362126,0.0-73.0,,"<div style=""font-size:100px;"">+</div>",,delaylearn,learning,ITI,vRXGXiaJLCdYrnxYqBohs4NChQt2,vRXGXiaJLCdYrnxYqBohs4NChQt2,,,,,,,,,,,,,,,,,,,1582.0,,,5fecdbad0b1a449e3288b07b,16:49:32,27/03/2024
html-keyboard-response,177,364188,0.0-74.0-0.0,2061.0,"<div style=""display: flex; flex-direction: column; align-items: center; margin-top: -40px;""><img src=""images/pattern_3.png"" style=""width: 234px; height: 230px; margin-top: -50px;""><div style=""display: flex; justify-content: space-between; margin-top: 33px;""><img src=""images/choice_trial_6.png"" style=""width: 408px; height: 417px; margin-right: 200px;""><img src=""images/choice_trial_16.png"" style=""width: 408px; height: 417px;""></div></div>",j,delaylearn,learning,trial,vRXGXiaJLCdYrnxYqBohs4NChQt2,vRXGXiaJLCdYrnxYqBohs4NChQt2,4.0,images/choice_trial_6.png,images/choice_trial_16.png,images/pattern_3.png,j,j,7000.0,6.0,16.0,2.0,1.0,32.0,1.0,1.0,16.0,180.0,,,,,,5fecdbad0b1a449e3288b07b,16:49:32,27/03/2024
html-keyboard-response,178,365202,0.0-74.0-1.0,,"<div style=""display: flex; flex-direction: column; align-items: center; margin-top: -40px;""><img src=""images/pattern_3.png"" style=""width: 234px; height: 230px; margin-top: -50px;""><div style=""display: flex; justify-content: space-between; margin-top: 33px;""><img src=""images/choice_trial_16.png"" style=""width: 408px; height: 417px; margin-left:608px;""></div></div>",,delaylearn,learning,display_response,vRXGXiaJLCdYrnxYqBohs4NChQt2,vRXGXiaJLCdYrnxYqBohs4NChQt2,,,,,,,,,,,,,,,,,chosen stimuli: images/choice_trial_16.png,,,,,5fecdbad0b1a449e3288b07b,16:49:32,27/03/2024
html-keyboard-response,179,372207,0.0-74.0-2.0,,,,delaylearn,learning,feedback_duration_window,vRXGXiaJLCdYrnxYqBohs4NChQt2,vRXGXiaJLCdYrnxYqBohs4NChQt2,,,,,,,,,,,,,,,,,,7000.0,,,,5fecdbad0b1a449e3288b07b,16:49:32,27/03/2024
html-keyboard-response,180,373719,0.0-74.0-3.0,,<div style='margin:auto;width: auto; font-size: 150%'><span style='font-weight: bold; font-size: 100px; color: green;'>+10 points!</span><br><br></div>,,delaylearn,learning,feedback_image_window,vRXGXiaJLCdYrnxYqBohs4NChQt2,vRXGXiaJLCdYrnxYqBohs4NChQt2,,,,,,,,,,,,,,,,,,,,,,5fecdbad0b1a449e3288b07b,16:49:32,27/03/2024
html-keyboard-response,181,375982,0.0-75.0,,"<div style=""font-size:100px;"">+</div>",,delaylearn,learning,ITI,vRXGXiaJLCdYrnxYqBohs4NChQt2,vRXGXiaJLCdYrnxYqBohs4NChQt2,,,,,,,,,,,,,,,,,,,2255.0,,,5fecdbad0b1a449e3288b07b,16:49:32,27/03/2024
html-keyboard-response,182,376960,0.0-76.0-0.0,976.0,"<div style=""display: flex; flex-direction: column; align-items: center; margin-top: -40px;""><img src=""images/pattern_5.png"" style=""width: 234px; height: 230px; margin-top: -50px;""><div style=""display: flex; justify-content: space-between; margin-top: 33px;""><img src=""images/choice_trial_5.png"" style=""width: 408px; height: 417px; margin-right: 200px;""><img src=""images/choice_trial_15.png"" style=""width: 408px; height: 417px;""></div></div>",f,delaylearn,learning,trial,vRXGXiaJLCdYrnxYqBohs4NChQt2,vRXGXiaJLCdYrnxYqBohs4NChQt2,4.0,images/choice_trial_5.png,images/choice_trial_15.png,images/pattern_5.png,j,f,750.0,5.0,15.0,4.0,0.0,33.0,1.0,0.0,5.0,180.0,,,,,,5fecdbad0b1a449e3288b07b,16:49:32,27/03/2024
html-keyboard-response,183,377963,0.0-76.0-1.0,,"<div style=""display: flex; flex-direction: column; align-items: center; margin-top: -40px;""><img src=""images/pattern_5.png"" style=""width: 234px; height: 230px; margin-top: -50px;""><div style=""display: flex; justify-content: space-between; margin-top: 33px;""><img src=""images/choice_trial_5.png"" style=""width: 408px; height: 417px; margin-right: 608px;""></div></div>",,delaylearn,learning,display_response,vRXGXiaJLCdYrnxYqBohs4NChQt2,vRXGXiaJLCdYrnxYqBohs4NChQt2,,,,,,,,,,,,,,,,,chosen stimuli: images/choice_trial_5.png,,,,,5fecdbad0b1a449e3288b07b,16:49:32,27/03/2024
html-keyboard-response,184,378720,0.0-76.0-2.0,,,,delaylearn,learning,feedback_duration_window,vRXGXiaJLCdYrnxYqBohs4NChQt2,vRXGXiaJLCdYrnxYqBohs4NChQt2,,,,,,,,,,,,,,,,,,750.0,,,,5fecdbad0b1a449e3288b07b,16:49:32,27/03/2024
html-keyboard-response,185,380231,0.0-76.0-3.0,,<div style='margin:auto;width: auto; font-size: 150%'><span style='font-weight: bold; font-size: 100px; color: red;'>0 points!</span><br><br></div>,,delaylearn,learning,feedback_image_window,vRXGXiaJLCdYrnxYqBohs4NChQt2,vRXGXiaJLCdYrnxYqBohs4NChQt2,,,,,,,,,,,,,,,,,,,,,,5fecdbad0b1a449e3288b07b,16:49:32,27/03/2024
html-keyboard-response,186,382303,0.0-77.0,,"<div style=""font-size:100px;"">+</div>",,delaylearn,learning,ITI,vRXGXiaJLCdYrnxYqBohs4NChQt2,vRXGXiaJLCdYrnxYqBohs4NChQt2,,,,,,,,,,,,,,,,,,,2059.0,,,5fecdbad0b1a449e3288b07b,16:49:32,27/03/2024
html-keyboard-response,187,383985,0.0-78.0-0.0,1681.2000000029802,"<div style=""display: flex; flex-direction: column; align-items: center; margin-top: -40px;""><img src=""images/pattern_1.png"" style=""width: 234px; height: 230px; margin-top: -50px;""><div style=""display: flex; justify-content: space-between; margin-top: 33px;""><img src=""images/choice_trial_1.png"" style=""width: 408px; height: 417px; margin-right: 200px;""><img src=""images/choice_trial_9.png"" style=""width: 408px; height: 417px;""></div></div>",f,delaylearn,learning,trial,vRXGXiaJLCdYrnxYqBohs4NChQt2,vRXGXiaJLCdYrnxYqBohs4NChQt2,4.0,images/choice_trial_1.png,images/choice_trial_9.png,images/pattern_1.png,f,f,7000.0,1.0,9.0,1.0,0.0,34.0,1.0,1.0,1.0,190.0,,,,,,5fecdbad0b1a449e3288b07b,16:49:32,27/03/2024
html-keyboard-response,188,384996,0.0-78.0-1.0,,"<div style=""display: flex; flex-direction: column; align-items: center; margin-top: -40px;""><img src=""images/pattern_1.png"" style=""width: 234px; height: 230px; margin-top: -50px;""><div style=""display: flex; justify-content: space-between; margin-top: 33px;""><img src=""images/choice_trial_1.png"" style=""width: 408px; height: 417px; margin-right: 608px;""></div></div>",,delaylearn,learning,display_response,vRXGXiaJLCdYrnxYqBohs4NChQt2,vRXGXiaJLCdYrnxYqBohs4NChQt2,,,,,,,,,,,,,,,,,chosen stimuli: images/choice_trial_1.png,,,,,5fecdbad0b1a449e3288b07b,16:49:32,27/03/2024
html-keyboard-response,189,392010,0.0-78.0-2.0,,,,delaylearn,learning,feedback_duration_window,vRXGXiaJLCdYrnxYqBohs4NChQt2,vRXGXiaJLCdYrnxYqBohs4NChQt2,,,,,,,,,,,,,,,,,,7000.0,,,,5fecdbad0b1a449e3288b07b,16:49:32,27/03/2024
html-keyboard-response,190,393512,0.0-78.0-3.0,,<div style='margin:auto;width: auto; font-size: 150%'><span style='font-weight: bold; font-size: 100px; color: green;'>+10 points!</span><br><br></div>,,delaylearn,learning,feedback_image_window,vRXGXiaJLCdYrnxYqBohs4NChQt2,vRXGXiaJLCdYrnxYqBohs4NChQt2,,,,,,,,,,,,,,,,,,,,,,5fecdbad0b1a449e3288b07b,16:49:32,27/03/2024
html-keyboard-response,191,394014,0.0-79.0-0.0,,,,,,mood_trial_fixation,vRXGXiaJLCdYrnxYqBohs4NChQt2,,,,,,,,,,,,,,,,,,,,,,,5fecdbad0b1a449e3288b07b,16:49:32,27/03/2024
lmdlab-html-vas-response,192,398350,0.0-79.0-1.0,3322.0,How happy are you right now?,0.6707175572713217,delaylearn,learning,mood_trial,vRXGXiaJLCdYrnxYqBohs4NChQt2,vRXGXiaJLCdYrnxYqBohs4NChQt2,,,,,,,,,,,,,,,,,,,,"['Very unhappy', 'Very happy']",,5fecdbad0b1a449e3288b07b,16:49:32,27/03/2024
html-keyboard-response,193,400744,0.0-80.0,,"<div style=""font-size:100px;"">+</div>",,delaylearn,learning,ITI,vRXGXiaJLCdYrnxYqBohs4NChQt2,vRXGXiaJLCdYrnxYqBohs4NChQt2,,,,,,,,,,,,,,,,,,,2386.0,,,5fecdbad0b1a449e3288b07b,16:49:32,27/03/2024
html-keyboard-response,194,403760,0.0-81.0-0.0,,"<div style=""display: flex; flex-direction: column; align-items: center; margin-top: -40px;""><img src=""images/pattern_6.png"" style=""width: 234px; height: 230px; margin-top: -50px;""><div style=""display: flex; justify-content: space-between; margin-top: 33px;""><img src=""images/choice_trial_10.png"" style=""width: 408px; height: 417px; margin-right: 200px;""><img src=""images/choice_trial_3.png"" style=""width: 408px; height: 417px;""></div></div>",,delaylearn,learning,trial,vRXGXiaJLCdYrnxYqBohs4NChQt2,vRXGXiaJLCdYrnxYqBohs4NChQt2,4.0,images/choice_trial_10.png,images/choice_trial_3.png,images/pattern_6.png,j,f,750.0,10.0,3.0,5.0,0.0,35.0,0.0,0.0,0.0,190.0,,,,,,5fecdbad0b1a449e3288b07b,16:49:32,27/03/2024
html-keyboard-response,195,404769,0.0-81.0-1.0,,<div style='font-weight: bold; font-size: 75px; color: red;'>Missed Trial <br><br><br><br> Please respond faster</div>,,delaylearn,learning,display_response,vRXGXiaJLCdYrnxYqBohs4NChQt2,vRXGXiaJLCdYrnxYqBohs4NChQt2,,,,,,,,,,,,,,,,,Missed trial,,,,,5fecdbad0b1a449e3288b07b,16:49:32,27/03/2024
html-keyboard-response,196,404774,0.0-81.0-2.0,,,,delaylearn,learning,feedback_duration_window,vRXGXiaJLCdYrnxYqBohs4NChQt2,vRXGXiaJLCdYrnxYqBohs4NChQt2,,,,,,,,,,,,,,,,,,0.0,,,,5fecdbad0b1a449e3288b07b,16:49:32,27/03/2024
html-keyboard-response,197,404779,0.0-81.0-3.0,,,,delaylearn,learning,feedback_image_window,vRXGXiaJLCdYrnxYqBohs4NChQt2,vRXGXiaJLCdYrnxYqBohs4NChQt2,,,,,,,,,,,,,,,,,,,,,,5fecdbad0b1a449e3288b07b,16:49:32,27/03/2024
html-keyboard-response,198,406337,0.0-82.0,,"<div style=""font-size:100px;"">+</div>",,delaylearn,learning,ITI,vRXGXiaJLCdYrnxYqBohs4NChQt2,vRXGXiaJLCdYrnxYqBohs4NChQt2,,,,,,,,,,,,,,,,,,,1554.0,,,5fecdbad0b1a449e3288b07b,16:49:32,27/03/2024
html-keyboard-response,199,407168,0.0-83.0-0.0,830.1999999880791,"<div style=""display: flex; flex-direction: column; align-items: center; margin-top: -40px;""><img src=""images/pattern_3.png"" style=""width: 234px; height: 230px; margin-top: -50px;""><div style=""display: flex; justify-content: space-between; margin-top: 33px;""><img src=""images/choice_trial_6.png"" style=""width: 408px; height: 417px; margin-right: 200px;""><img src=""images/choice_trial_16.png"" style=""width: 408px; height: 417px;""></div></div>",j,delaylearn,learning,trial,vRXGXiaJLCdYrnxYqBohs4NChQt2,vRXGXiaJLCdYrnxYqBohs4NChQt2,4.0,images/choice_trial_6.png,images/choice_trial_16.png,images/pattern_3.png,j,j,7000.0,6.0,16.0,2.0,1.0,36.0,1.0,1.0,16.0,200.0,,,,,,5fecdbad0b1a449e3288b07b,16:49:32,27/03/2024
html-keyboard-response,200,408184,0.0-83.0-1.0,,"<div style=""display: flex; flex-direction: column; align-items: center; margin-top: -40px;""><img src=""images/pattern_3.png"" style=""width: 234px; height: 230px; margin-top: -50px;""><div style=""display: flex; justify-content: space-between; margin-top: 33px;""><img src=""images/choice_trial_16.png"" style=""width: 408px; height: 417px; margin-left:608px;""></div></div>",,delaylearn,learning,display_response,vRXGXiaJLCdYrnxYqBohs4NChQt2,vRXGXiaJLCdYrnxYqBohs4NChQt2,,,,,,,,,,,,,,,,,chosen stimuli: images/choice_trial_16.png,,,,,5fecdbad0b1a449e3288b07b,16:49:32,27/03/2024
html-keyboard-response,201,415199,0.0-83.0-2.0,,,,delaylearn,learning,feedback_duration_window,vRXGXiaJLCdYrnxYqBohs4NChQt2,vRXGXiaJLCdYrnxYqBohs4NChQt2,,,,,,,,,,,,,,,,,,7000.0,,,,5fecdbad0b1a449e3288b07b,16:49:32,27/03/2024
html-keyboard-response,202,416704,0.0-83.0-3.0,,<div style='margin:auto;width: auto; font-size: 150%'><span style='font-weight: bold; font-size: 100px; color: green;'>+10 points!</span><br><br></div>,,delaylearn,learning,feedback_image_window,vRXGXiaJLCdYrnxYqBohs4NChQt2,vRXGXiaJLCdYrnxYqBohs4NChQt2,,,,,,,,,,,,,,,,,,,,,,5fecdbad0b1a449e3288b07b,16:49:32,27/03/2024
html-keyboard-response,203,419140,0.0-84.0,,"<div style=""font-size:100px;"">+</div>",,delaylearn,learning,ITI,vRXGXiaJLCdYrnxYqBohs4NChQt2,vRXGXiaJLCdYrnxYqBohs4NChQt2,,,,,,,,,,,,,,,,,,,2421.0,,,5fecdbad0b1a449e3288b07b,16:49:32,27/03/2024
html-keyboard-response,204,420277,0.0-85.0-0.0,1134.5999999940395,"<div style=""display: flex; flex-direction: column; align-items: center; margin-top: -40px;""><img src=""images/pattern_4.png"" style=""width: 234px; height: 230px; margin-top: -50px;""><div style=""display: flex; justify-content: space-between; margin-top: 33px;""><img src=""images/choice_trial_7.png"" style=""width: 408px; height: 417px; margin-right: 200px;""><img src=""images/choice_trial_8.png"" style=""width: 408px; height: 417px;""></div></div>",j,delaylearn,learning,trial,vRXGXiaJLCdYrnxYqBohs4NChQt2,vRXGXiaJLCdYrnxYqBohs4NChQt2,4.0,images/choice_trial_7.png,images/choice_trial_8.png,images/pattern_4.png,f,j,7000.0,7.0,8.0,3.0,1.0,37.0,1.0,0.0,8.0,200.0,,,,,,5fecdbad0b1a449e3288b07b,16:49:32,27/03/2024
html-keyboard-response,205,421285,0.0-85.0-1.0,,"<div style=""display: flex; flex-direction: column; align-items: center; margin-top: -40px;""><img src=""images/pattern_4.png"" style=""width: 234px; height: 230px; margin-top: -50px;""><div style=""display: flex; justify-content: space-between; margin-top: 33px;""><img src=""images/choice_trial_8.png"" style=""width: 408px; height: 417px; margin-left:608px;""></div></div>",,delaylearn,learning,display_response,vRXGXiaJLCdYrnxYqBohs4NChQt2,vRXGXiaJLCdYrnxYqBohs4NChQt2,,,,,,,,,,,,,,,,,chosen stimuli: images/choice_trial_8.png,,,,,5fecdbad0b1a449e3288b07b,16:49:32,27/03/2024
html-keyboard-response,206,428300,0.0-85.0-2.0,,,,delaylearn,learning,feedback_duration_window,vRXGXiaJLCdYrnxYqBohs4NChQt2,vRXGXiaJLCdYrnxYqBohs4NChQt2,,,,,,,,,,,,,,,,,,7000.0,,,,5fecdbad0b1a449e3288b07b,16:49:32,27/03/2024
html-keyboard-response,207,429815,0.0-85.0-3.0,,<div style='margin:auto;width: auto; font-size: 150%'><span style='font-weight: bold; font-size: 100px; color: red;'>0 points!</span><br><br></div>,,delaylearn,learning,feedback_image_window,vRXGXiaJLCdYrnxYqBohs4NChQt2,vRXGXiaJLCdYrnxYqBohs4NChQt2,,,,,,,,,,,,,,,,,,,,,,5fecdbad0b1a449e3288b07b,16:49:32,27/03/2024
html-keyboard-response,208,431401,0.0-86.0,,"<div style=""font-size:100px;"">+</div>",,delaylearn,learning,ITI,vRXGXiaJLCdYrnxYqBohs4NChQt2,vRXGXiaJLCdYrnxYqBohs4NChQt2,,,,,,,,,,,,,,,,,,,1579.0,,,5fecdbad0b1a449e3288b07b,16:49:32,27/03/2024
html-keyboard-response,209,432877,0.0-87.0-0.0,1474.2999999970198,"<div style=""display: flex; flex-direction: column; align-items: center; margin-top: -40px;""><img src=""images/pattern_7.png"" style=""width: 234px; height: 230px; margin-top: -50px;""><div style=""display: flex; justify-content: space-between; margin-top: 33px;""><img src=""images/choice_trial_13.png"" style=""width: 408px; height: 417px; margin-right: 200px;""><img src=""images/choice_trial_4.png"" style=""width: 408px; height: 417px;""></div></div>",f,delaylearn,learning,trial,vRXGXiaJLCdYrnxYqBohs4NChQt2,vRXGXiaJLCdYrnxYqBohs4NChQt2,4.0,images/choice_trial_13.png,images/choice_trial_4.png,images/pattern_7.png,f,f,750.0,13.0,4.0,6.0,0.0,38.0,1.0,1.0,13.0,210.0,,,,,,5fecdbad0b1a449e3288b07b,16:49:32,27/03/2024
html-keyboard-response,210,433882,0.0-87.0-1.0,,"<div style=""display: flex; flex-direction: column; align-items: center; margin-top: -40px;""><img src=""images/pattern_7.png"" style=""width: 234px; height: 230px; margin-top: -50px;""><div style=""display: flex; justify-content: space-between; margin-top: 33px;""><img src=""images/choice_trial_13.png"" style=""width: 408px; height: 417px; margin-right: 608px;""></div></div>",,delaylearn,learning,display_response,vRXGXiaJLCdYrnxYqBohs4NChQt2,vRXGXiaJLCdYrnxYqBohs4NChQt2,,,,,,,,,,,,,,,,,chosen stimuli: images/choice_trial_13.png,,,,,5fecdbad0b1a449e3288b07b,16:49:32,27/03/2024
html-keyboard-response,211,434643,0.0-87.0-2.0,,,,delaylearn,learning,feedback_duration_window,vRXGXiaJLCdYrnxYqBohs4NChQt2,vRXGXiaJLCdYrnxYqBohs4NChQt2,,,,,,,,,,,,,,,,,,750.0,,,,5fecdbad0b1a449e3288b07b,16:49:32,27/03/2024
html-keyboard-response,212,436156,0.0-87.0-3.0,,<div style='margin:auto;width: auto; font-size: 150%'><span style='font-weight: bold; font-size: 100px; color: green;'>+10 points!</span><br><br></div>,,delaylearn,learning,feedback_image_window,vRXGXiaJLCdYrnxYqBohs4NChQt2,vRXGXiaJLCdYrnxYqBohs4NChQt2,,,,,,,,,,,,,,,,,,,,,,5fecdbad0b1a449e3288b07b,16:49:32,27/03/2024
html-keyboard-response,213,438542,0.0-88.0,,"<div style=""font-size:100px;"">+</div>",,delaylearn,learning,ITI,vRXGXiaJLCdYrnxYqBohs4NChQt2,vRXGXiaJLCdYrnxYqBohs4NChQt2,,,,,,,,,,,,,,,,,,,2373.0,,,5fecdbad0b1a449e3288b07b,16:49:32,27/03/2024
html-keyboard-response,214,440158,0.0-89.0-0.0,1614.2000000029802,"<div style=""display: flex; flex-direction: column; align-items: center; margin-top: -40px;""><img src=""images/pattern_1.png"" style=""width: 234px; height: 230px; margin-top: -50px;""><div style=""display: flex; justify-content: space-between; margin-top: 33px;""><img src=""images/choice_trial_1.png"" style=""width: 408px; height: 417px; margin-right: 200px;""><img src=""images/choice_trial_9.png"" style=""width: 408px; height: 417px;""></div></div>",f,delaylearn,learning,trial,vRXGXiaJLCdYrnxYqBohs4NChQt2,vRXGXiaJLCdYrnxYqBohs4NChQt2,4.0,images/choice_trial_1.png,images/choice_trial_9.png,images/pattern_1.png,f,f,7000.0,1.0,9.0,1.0,0.0,39.0,1.0,1.0,1.0,220.0,,,,,,5fecdbad0b1a449e3288b07b,16:49:32,27/03/2024
html-keyboard-response,215,441171,0.0-89.0-1.0,,"<div style=""display: flex; flex-direction: column; align-items: center; margin-top: -40px;""><img src=""images/pattern_1.png"" style=""width: 234px; height: 230px; margin-top: -50px;""><div style=""display: flex; justify-content: space-between; margin-top: 33px;""><img src=""images/choice_trial_1.png"" style=""width: 408px; height: 417px; margin-right: 608px;""></div></div>",,delaylearn,learning,display_response,vRXGXiaJLCdYrnxYqBohs4NChQt2,vRXGXiaJLCdYrnxYqBohs4NChQt2,,,,,,,,,,,,,,,,,chosen stimuli: images/choice_trial_1.png,,,,,5fecdbad0b1a449e3288b07b,16:49:32,27/03/2024
html-keyboard-response,216,448179,0.0-89.0-2.0,,,,delaylearn,learning,feedback_duration_window,vRXGXiaJLCdYrnxYqBohs4NChQt2,vRXGXiaJLCdYrnxYqBohs4NChQt2,,,,,,,,,,,,,,,,,,7000.0,,,,5fecdbad0b1a449e3288b07b,16:49:32,27/03/2024
html-keyboard-response,217,449686,0.0-89.0-3.0,,<div style='margin:auto;width: auto; font-size: 150%'><span style='font-weight: bold; font-size: 100px; color: green;'>+10 points!</span><br><br></div>,,delaylearn,learning,feedback_image_window,vRXGXiaJLCdYrnxYqBohs4NChQt2,vRXGXiaJLCdYrnxYqBohs4NChQt2,,,,,,,,,,,,,,,,,,,,,,5fecdbad0b1a449e3288b07b,16:49:32,27/03/2024
html-keyboard-response,218,450198,0.0-90.0-0.0,,,,,,mood_trial_fixation,vRXGXiaJLCdYrnxYqBohs4NChQt2,,,,,,,,,,,,,,,,,,,,,,,5fecdbad0b1a449e3288b07b,16:49:32,27/03/2024
lmdlab-html-vas-response,219,454074,0.0-90.0-1.0,2871.0,How happy are you right now?,0.5422453350490994,delaylearn,learning,mood_trial,vRXGXiaJLCdYrnxYqBohs4NChQt2,vRXGXiaJLCdYrnxYqBohs4NChQt2,,,,,,,,,,,,,,,,,,,,"['Very unhappy', 'Very happy']",,5fecdbad0b1a449e3288b07b,16:49:32,27/03/2024
html-keyboard-response,220,456365,0.0-91.0,,"<div style=""font-size:100px;"">+</div>",,delaylearn,learning,ITI,vRXGXiaJLCdYrnxYqBohs4NChQt2,vRXGXiaJLCdYrnxYqBohs4NChQt2,,,,,,,,,,,,,,,,,,,2288.0,,,5fecdbad0b1a449e3288b07b,16:49:32,27/03/2024
html-keyboard-response,221,457769,0.0-92.0-0.0,1401.2999999970198,"<div style=""display: flex; flex-direction: column; align-items: center; margin-top: -40px;""><img src=""images/pattern_3.png"" style=""width: 234px; height: 230px; margin-top: -50px;""><div style=""display: flex; justify-content: space-between; margin-top: 33px;""><img src=""images/choice_trial_16.png"" style=""width: 408px; height: 417px; margin-right: 200px;""><img src=""images/choice_trial_6.png"" style=""width: 408px; height: 417px;""></div></div>",f,delaylearn,learning,trial,vRXGXiaJLCdYrnxYqBohs4NChQt2,vRXGXiaJLCdYrnxYqBohs4NChQt2,4.0,images/choice_trial_16.png,images/choice_trial_6.png,images/pattern_3.png,j,f,7000.0,16.0,6.0,2.0,0.0,40.0,1.0,0.0,16.0,220.0,,,,,,5fecdbad0b1a449e3288b07b,16:49:32,27/03/2024
html-keyboard-response,222,458775,0.0-92.0-1.0,,"<div style=""display: flex; flex-direction: column; align-items: center; margin-top: -40px;""><img src=""images/pattern_3.png"" style=""width: 234px; height: 230px; margin-top: -50px;""><div style=""display: flex; justify-content: space-between; margin-top: 33px;""><img src=""images/choice_trial_16.png"" style=""width: 408px; height: 417px; margin-right: 608px;""></div></div>",,delaylearn,learning,display_response,vRXGXiaJLCdYrnxYqBohs4NChQt2,vRXGXiaJLCdYrnxYqBohs4NChQt2,,,,,,,,,,,,,,,,,chosen stimuli: images/choice_trial_16.png,,,,,5fecdbad0b1a449e3288b07b,16:49:32,27/03/2024
html-keyboard-response,223,465779,0.0-92.0-2.0,,,,delaylearn,learning,feedback_duration_window,vRXGXiaJLCdYrnxYqBohs4NChQt2,vRXGXiaJLCdYrnxYqBohs4NChQt2,,,,,,,,,,,,,,,,,,7000.0,,,,5fecdbad0b1a449e3288b07b,16:49:32,27/03/2024
html-keyboard-response,224,467281,0.0-92.0-3.0,,<div style='margin:auto;width: auto; font-size: 150%'><span style='font-weight: bold; font-size: 100px; color: red;'>0 points!</span><br><br></div>,,delaylearn,learning,feedback_image_window,vRXGXiaJLCdYrnxYqBohs4NChQt2,vRXGXiaJLCdYrnxYqBohs4NChQt2,,,,,,,,,,,,,,,,,,,,,,5fecdbad0b1a449e3288b07b,16:49:32,27/03/2024
html-keyboard-response,225,469780,0.0-93.0,,"<div style=""font-size:100px;"">+</div>",,delaylearn,learning,ITI,vRXGXiaJLCdYrnxYqBohs4NChQt2,vRXGXiaJLCdYrnxYqBohs4NChQt2,,,,,,,,,,,,,,,,,,,2494.0,,,5fecdbad0b1a449e3288b07b,16:49:32,27/03/2024
html-keyboard-response,226,471360,0.0-94.0-0.0,1578.2999999970198,"<div style=""display: flex; flex-direction: column; align-items: center; margin-top: -40px;""><img src=""images/pattern_7.png"" style=""width: 234px; height: 230px; margin-top: -50px;""><div style=""display: flex; justify-content: space-between; margin-top: 33px;""><img src=""images/choice_trial_4.png"" style=""width: 408px; height: 417px; margin-right: 200px;""><img src=""images/choice_trial_13.png"" style=""width: 408px; height: 417px;""></div></div>",j,delaylearn,learning,trial,vRXGXiaJLCdYrnxYqBohs4NChQt2,vRXGXiaJLCdYrnxYqBohs4NChQt2,4.0,images/choice_trial_4.png,images/choice_trial_13.png,images/pattern_7.png,j,j,750.0,4.0,13.0,6.0,1.0,41.0,1.0,1.0,13.0,230.0,,,,,,5fecdbad0b1a449e3288b07b,16:49:32,27/03/2024
html-keyboard-response,227,472369,0.0-94.0-1.0,,"<div style=""display: flex; flex-direction: column; align-items: center; margin-top: -40px;""><img src=""images/pattern_7.png"" style=""width: 234px; height: 230px; margin-top: -50px;""><div style=""display: flex; justify-content: space-between; margin-top: 33px;""><img src=""images/choice_trial_13.png"" style=""width: 408px; height: 417px; margin-left:608px;""></div></div>",,delaylearn,learning,display_response,vRXGXiaJLCdYrnxYqBohs4NChQt2,vRXGXiaJLCdYrnxYqBohs4NChQt2,,,,,,,,,,,,,,,,,chosen stimuli: images/choice_trial_13.png,,,,,5fecdbad0b1a449e3288b07b,16:49:32,27/03/2024
html-keyboard-response,228,473124,0.0-94.0-2.0,,,,delaylearn,learning,feedback_duration_window,vRXGXiaJLCdYrnxYqBohs4NChQt2,vRXGXiaJLCdYrnxYqBohs4NChQt2,,,,,,,,,,,,,,,,,,750.0,,,,5fecdbad0b1a449e3288b07b,16:49:32,27/03/2024
html-keyboard-response,229,474628,0.0-94.0-3.0,,<div style='margin:auto;width: auto; font-size: 150%'><span style='font-weight: bold; font-size: 100px; color: green;'>+10 points!</span><br><br></div>,,delaylearn,learning,feedback_image_window,vRXGXiaJLCdYrnxYqBohs4NChQt2,vRXGXiaJLCdYrnxYqBohs4NChQt2,,,,,,,,,,,,,,,,,,,,,,5fecdbad0b1a449e3288b07b,16:49:32,27/03/2024
html-keyboard-response,230,476886,0.0-95.0,,"<div style=""font-size:100px;"">+</div>",,delaylearn,learning,ITI,vRXGXiaJLCdYrnxYqBohs4NChQt2,vRXGXiaJLCdYrnxYqBohs4NChQt2,,,,,,,,,,,,,,,,,,,2254.0,,,5fecdbad0b1a449e3288b07b,16:49:32,27/03/2024
