trial_type,trial_index,time_elapsed,internal_node_id,rt,stimulus,response,exp_name,exp_stage,test_part,subjectID,databaseID,counterbal,choice_stimuli_1,choice_stimuli_2,pattern_stimuli,rewarded_answer,correct_answer,feedback_duration_times,stim_left,stim_right,pair,leftright_counter,trial,response_correct,response_rewarded,chosen_stim,counter,displayed_choice,feedback_durations,ITI_duration,labels,rest_warning,prolificID,start_time,date
pavlovia,0,493,0.0-0.0,,,,,,,JaiusMIRzJWjj6UpHNFAm3MU87l2,,,,,,,,,,,,,,,,,,,,,,,60fd2a117181bc22b970997d,09:06:26,27/02/2024
html-keyboard-response,1,3500,0.0-1.0,,"<div style=""font-size:100px;"">+</div>",,delaylearn,learning,pre_fixation,JaiusMIRzJWjj6UpHNFAm3MU87l2,,,,,,,,,,,,,,,,,,,,,,,60fd2a117181bc22b970997d,09:06:26,27/02/2024
html-keyboard-response,2,4941,0.0-2.0-0.0,1439.0999999999767,"<div style=""display: flex; flex-direction: column; align-items: center; margin-top: -40px;""><img src=""images/demo_images/pattern_1.png"" style=""width: 234px; height: 230px; margin-top: -50px;""><div style=""display: flex; justify-content: space-between; margin-top: 33px;""><img src=""images/demo_images/choice_trial_2.png"" style=""width: 408px; height: 417px; margin-right: 200px;""><img src=""images/demo_images/choice_trial_1.png"" style=""width: 408px; height: 417px;""></div></div>",f,delaylearn,learning,trial,JaiusMIRzJWjj6UpHNFAm3MU87l2,JaiusMIRzJWjj6UpHNFAm3MU87l2,1.0,images/demo_images/choice_trial_2.png,images/demo_images/choice_trial_1.png,images/demo_images/pattern_1.png,j,j,3000.0,2.0,1.0,20.0,1.0,1.0,0.0,0.0,2.0,0.0,,,,,,60fd2a117181bc22b970997d,09:06:26,27/02/2024
html-keyboard-response,3,5950,0.0-2.0-1.0,,"<div style=""display: flex; flex-direction: column; align-items: center; margin-top: -40px;""><img src=""images/demo_images/pattern_1.png"" style=""width: 234px; height: 230px; margin-top: -50px;""><div style=""display: flex; justify-content: space-between; margin-top: 33px;""><img src=""images/demo_images/choice_trial_2.png"" style=""width: 408px; height: 417px; margin-right: 608px;""></div></div>",,delaylearn,learning,display_response,JaiusMIRzJWjj6UpHNFAm3MU87l2,JaiusMIRzJWjj6UpHNFAm3MU87l2,,,,,,,,,,,,,,,,,chosen stimuli: images/demo_images/choice_trial_2.png,,,,,60fd2a117181bc22b970997d,09:06:26,27/02/2024
html-keyboard-response,4,8955,0.0-2.0-2.0,,,,delaylearn,learning,feedback_duration_window,JaiusMIRzJWjj6UpHNFAm3MU87l2,JaiusMIRzJWjj6UpHNFAm3MU87l2,,,,,,,,,,,,,,,,,,3000.0,,,,60fd2a117181bc22b970997d,09:06:26,27/02/2024
html-keyboard-response,5,10457,0.0-2.0-3.0,,<div style='margin:auto;width: auto; font-size: 150%'><span style='font-weight: bold; font-size: 100px; color: red;'>0 points!</span><br><br></div>,,delaylearn,learning,feedback_image_window,JaiusMIRzJWjj6UpHNFAm3MU87l2,JaiusMIRzJWjj6UpHNFAm3MU87l2,,,,,,,,,,,,,,,,,,,,,,60fd2a117181bc22b970997d,09:06:26,27/02/2024
html-keyboard-response,6,11974,0.0-3.0,,"<div style=""font-size:100px;"">+</div>",,delaylearn,learning,ITI,JaiusMIRzJWjj6UpHNFAm3MU87l2,JaiusMIRzJWjj6UpHNFAm3MU87l2,,,,,,,,,,,,,,,,,,,1511.0,,,60fd2a117181bc22b970997d,09:06:26,27/02/2024
html-keyboard-response,7,13870,0.0-4.0-0.0,1895.4000000000233,"<div style=""display: flex; flex-direction: column; align-items: center; margin-top: -40px;""><img src=""images/demo_images/pattern_1.png"" style=""width: 234px; height: 230px; margin-top: -50px;""><div style=""display: flex; justify-content: space-between; margin-top: 33px;""><img src=""images/demo_images/choice_trial_2.png"" style=""width: 408px; height: 417px; margin-right: 200px;""><img src=""images/demo_images/choice_trial_1.png"" style=""width: 408px; height: 417px;""></div></div>",j,delaylearn,learning,trial,JaiusMIRzJWjj6UpHNFAm3MU87l2,JaiusMIRzJWjj6UpHNFAm3MU87l2,1.0,images/demo_images/choice_trial_2.png,images/demo_images/choice_trial_1.png,images/demo_images/pattern_1.png,j,j,3000.0,2.0,1.0,20.0,1.0,2.0,1.0,1.0,1.0,10.0,,,,,,60fd2a117181bc22b970997d,09:06:26,27/02/2024
html-keyboard-response,8,14875,0.0-4.0-1.0,,"<div style=""display: flex; flex-direction: column; align-items: center; margin-top: -40px;""><img src=""images/demo_images/pattern_1.png"" style=""width: 234px; height: 230px; margin-top: -50px;""><div style=""display: flex; justify-content: space-between; margin-top: 33px;""><img src=""images/demo_images/choice_trial_1.png"" style=""width: 408px; height: 417px; margin-left:608px;""></div></div>",,delaylearn,learning,display_response,JaiusMIRzJWjj6UpHNFAm3MU87l2,JaiusMIRzJWjj6UpHNFAm3MU87l2,,,,,,,,,,,,,,,,,chosen stimuli: images/demo_images/choice_trial_1.png,,,,,60fd2a117181bc22b970997d,09:06:26,27/02/2024
html-keyboard-response,9,17883,0.0-4.0-2.0,,,,delaylearn,learning,feedback_duration_window,JaiusMIRzJWjj6UpHNFAm3MU87l2,JaiusMIRzJWjj6UpHNFAm3MU87l2,,,,,,,,,,,,,,,,,,3000.0,,,,60fd2a117181bc22b970997d,09:06:26,27/02/2024
html-keyboard-response,10,19384,0.0-4.0-3.0,,<div style='margin:auto;width: auto; font-size: 150%'><span style='font-weight: bold; font-size: 100px; color: green;'>+10 points!</span><br><br></div>,,delaylearn,learning,feedback_image_window,JaiusMIRzJWjj6UpHNFAm3MU87l2,JaiusMIRzJWjj6UpHNFAm3MU87l2,,,,,,,,,,,,,,,,,,,,,,60fd2a117181bc22b970997d,09:06:26,27/02/2024
html-keyboard-response,11,21445,0.0-5.0,,"<div style=""font-size:100px;"">+</div>",,delaylearn,learning,ITI,JaiusMIRzJWjj6UpHNFAm3MU87l2,JaiusMIRzJWjj6UpHNFAm3MU87l2,,,,,,,,,,,,,,,,,,,2059.0,,,60fd2a117181bc22b970997d,09:06:26,27/02/2024
html-keyboard-response,12,22808,0.0-6.0-0.0,1362.0999999999767,"<div style=""display: flex; flex-direction: column; align-items: center; margin-top: -40px;""><img src=""images/demo_images/pattern_1.png"" style=""width: 234px; height: 230px; margin-top: -50px;""><div style=""display: flex; justify-content: space-between; margin-top: 33px;""><img src=""images/demo_images/choice_trial_1.png"" style=""width: 408px; height: 417px; margin-right: 200px;""><img src=""images/demo_images/choice_trial_2.png"" style=""width: 408px; height: 417px;""></div></div>",f,delaylearn,learning,trial,JaiusMIRzJWjj6UpHNFAm3MU87l2,JaiusMIRzJWjj6UpHNFAm3MU87l2,1.0,images/demo_images/choice_trial_1.png,images/demo_images/choice_trial_2.png,images/demo_images/pattern_1.png,j,f,3000.0,1.0,2.0,20.0,0.0,3.0,1.0,0.0,1.0,10.0,,,,,,60fd2a117181bc22b970997d,09:06:26,27/02/2024
html-keyboard-response,13,23809,0.0-6.0-1.0,,"<div style=""display: flex; flex-direction: column; align-items: center; margin-top: -40px;""><img src=""images/demo_images/pattern_1.png"" style=""width: 234px; height: 230px; margin-top: -50px;""><div style=""display: flex; justify-content: space-between; margin-top: 33px;""><img src=""images/demo_images/choice_trial_1.png"" style=""width: 408px; height: 417px; margin-right: 608px;""></div></div>",,delaylearn,learning,display_response,JaiusMIRzJWjj6UpHNFAm3MU87l2,JaiusMIRzJWjj6UpHNFAm3MU87l2,,,,,,,,,,,,,,,,,chosen stimuli: images/demo_images/choice_trial_1.png,,,,,60fd2a117181bc22b970997d,09:06:26,27/02/2024
html-keyboard-response,14,26825,0.0-6.0-2.0,,,,delaylearn,learning,feedback_duration_window,JaiusMIRzJWjj6UpHNFAm3MU87l2,JaiusMIRzJWjj6UpHNFAm3MU87l2,,,,,,,,,,,,,,,,,,3000.0,,,,60fd2a117181bc22b970997d,09:06:26,27/02/2024
html-keyboard-response,15,28340,0.0-6.0-3.0,,<div style='margin:auto;width: auto; font-size: 150%'><span style='font-weight: bold; font-size: 100px; color: red;'>0 points!</span><br><br></div>,,delaylearn,learning,feedback_image_window,JaiusMIRzJWjj6UpHNFAm3MU87l2,JaiusMIRzJWjj6UpHNFAm3MU87l2,,,,,,,,,,,,,,,,,,,,,,60fd2a117181bc22b970997d,09:06:26,27/02/2024
html-keyboard-response,16,30573,0.0-7.0,,"<div style=""font-size:100px;"">+</div>",,delaylearn,learning,ITI,JaiusMIRzJWjj6UpHNFAm3MU87l2,JaiusMIRzJWjj6UpHNFAm3MU87l2,,,,,,,,,,,,,,,,,,,2229.0,,,60fd2a117181bc22b970997d,09:06:26,27/02/2024
html-keyboard-response,17,32832,0.0-8.0-0.0,2258.9000000000233,"<div style=""display: flex; flex-direction: column; align-items: center; margin-top: -40px;""><img src=""images/demo_images/pattern_1.png"" style=""width: 234px; height: 230px; margin-top: -50px;""><div style=""display: flex; justify-content: space-between; margin-top: 33px;""><img src=""images/demo_images/choice_trial_1.png"" style=""width: 408px; height: 417px; margin-right: 200px;""><img src=""images/demo_images/choice_trial_2.png"" style=""width: 408px; height: 417px;""></div></div>",f,delaylearn,learning,trial,JaiusMIRzJWjj6UpHNFAm3MU87l2,JaiusMIRzJWjj6UpHNFAm3MU87l2,1.0,images/demo_images/choice_trial_1.png,images/demo_images/choice_trial_2.png,images/demo_images/pattern_1.png,f,f,3000.0,1.0,2.0,20.0,0.0,4.0,1.0,1.0,1.0,20.0,,,,,,60fd2a117181bc22b970997d,09:06:26,27/02/2024
html-keyboard-response,18,33840,0.0-8.0-1.0,,"<div style=""display: flex; flex-direction: column; align-items: center; margin-top: -40px;""><img src=""images/demo_images/pattern_1.png"" style=""width: 234px; height: 230px; margin-top: -50px;""><div style=""display: flex; justify-content: space-between; margin-top: 33px;""><img src=""images/demo_images/choice_trial_1.png"" style=""width: 408px; height: 417px; margin-right: 608px;""></div></div>",,delaylearn,learning,display_response,JaiusMIRzJWjj6UpHNFAm3MU87l2,JaiusMIRzJWjj6UpHNFAm3MU87l2,,,,,,,,,,,,,,,,,chosen stimuli: images/demo_images/choice_trial_1.png,,,,,60fd2a117181bc22b970997d,09:06:26,27/02/2024
html-keyboard-response,19,36855,0.0-8.0-2.0,,,,delaylearn,learning,feedback_duration_window,JaiusMIRzJWjj6UpHNFAm3MU87l2,JaiusMIRzJWjj6UpHNFAm3MU87l2,,,,,,,,,,,,,,,,,,3000.0,,,,60fd2a117181bc22b970997d,09:06:26,27/02/2024
html-keyboard-response,20,38369,0.0-8.0-3.0,,<div style='margin:auto;width: auto; font-size: 150%'><span style='font-weight: bold; font-size: 100px; color: green;'>+10 points!</span><br><br></div>,,delaylearn,learning,feedback_image_window,JaiusMIRzJWjj6UpHNFAm3MU87l2,JaiusMIRzJWjj6UpHNFAm3MU87l2,,,,,,,,,,,,,,,,,,,,,,60fd2a117181bc22b970997d,09:06:26,27/02/2024
html-keyboard-response,21,38872,0.0-9.0-0.0,,,,,,mood_trial_fixation,JaiusMIRzJWjj6UpHNFAm3MU87l2,,,,,,,,,,,,,,,,,,,,,,,60fd2a117181bc22b970997d,09:06:26,27/02/2024
lmdlab-html-vas-response,22,44863,0.0-9.0-1.0,4977.0,How happy are you right now?,0.47685185185185186,delaylearn,learning,mood_trial,JaiusMIRzJWjj6UpHNFAm3MU87l2,JaiusMIRzJWjj6UpHNFAm3MU87l2,,,,,,,,,,,,,,,,,,,,"['Very unhappy', 'Very happy']",,60fd2a117181bc22b970997d,09:06:26,27/02/2024
html-keyboard-response,23,46387,0.0-10.0,,"<div style=""font-size:100px;"">+</div>",,delaylearn,learning,ITI,JaiusMIRzJWjj6UpHNFAm3MU87l2,JaiusMIRzJWjj6UpHNFAm3MU87l2,,,,,,,,,,,,,,,,,,,1523.0,,,60fd2a117181bc22b970997d,09:06:26,27/02/2024
html-keyboard-response,24,48230,0.0-11.0-0.0,1842.2000000000698,"<div style=""display: flex; flex-direction: column; align-items: center; margin-top: -40px;""><img src=""images/demo_images/pattern_1.png"" style=""width: 234px; height: 230px; margin-top: -50px;""><div style=""display: flex; justify-content: space-between; margin-top: 33px;""><img src=""images/demo_images/choice_trial_2.png"" style=""width: 408px; height: 417px; margin-right: 200px;""><img src=""images/demo_images/choice_trial_1.png"" style=""width: 408px; height: 417px;""></div></div>",j,delaylearn,learning,trial,JaiusMIRzJWjj6UpHNFAm3MU87l2,JaiusMIRzJWjj6UpHNFAm3MU87l2,1.0,images/demo_images/choice_trial_2.png,images/demo_images/choice_trial_1.png,images/demo_images/pattern_1.png,j,j,3000.0,2.0,1.0,20.0,1.0,5.0,1.0,1.0,1.0,30.0,,,,,,60fd2a117181bc22b970997d,09:06:26,27/02/2024
html-keyboard-response,25,49234,0.0-11.0-1.0,,"<div style=""display: flex; flex-direction: column; align-items: center; margin-top: -40px;""><img src=""images/demo_images/pattern_1.png"" style=""width: 234px; height: 230px; margin-top: -50px;""><div style=""display: flex; justify-content: space-between; margin-top: 33px;""><img src=""images/demo_images/choice_trial_1.png"" style=""width: 408px; height: 417px; margin-left:608px;""></div></div>",,delaylearn,learning,display_response,JaiusMIRzJWjj6UpHNFAm3MU87l2,JaiusMIRzJWjj6UpHNFAm3MU87l2,,,,,,,,,,,,,,,,,chosen stimuli: images/demo_images/choice_trial_1.png,,,,,60fd2a117181bc22b970997d,09:06:26,27/02/2024
html-keyboard-response,26,52238,0.0-11.0-2.0,,,,delaylearn,learning,feedback_duration_window,JaiusMIRzJWjj6UpHNFAm3MU87l2,JaiusMIRzJWjj6UpHNFAm3MU87l2,,,,,,,,,,,,,,,,,,3000.0,,,,60fd2a117181bc22b970997d,09:06:26,27/02/2024
html-keyboard-response,27,53743,0.0-11.0-3.0,,<div style='margin:auto;width: auto; font-size: 150%'><span style='font-weight: bold; font-size: 100px; color: green;'>+10 points!</span><br><br></div>,,delaylearn,learning,feedback_image_window,JaiusMIRzJWjj6UpHNFAm3MU87l2,JaiusMIRzJWjj6UpHNFAm3MU87l2,,,,,,,,,,,,,,,,,,,,,,60fd2a117181bc22b970997d,09:06:26,27/02/2024
html-keyboard-response,28,55916,0.0-12.0,,"<div style=""font-size:100px;"">+</div>",,delaylearn,learning,ITI,JaiusMIRzJWjj6UpHNFAm3MU87l2,JaiusMIRzJWjj6UpHNFAm3MU87l2,,,,,,,,,,,,,,,,,,,2163.0,,,60fd2a117181bc22b970997d,09:06:26,27/02/2024
html-keyboard-response,29,57570,0.0-13.0-0.0,1653.0999999999767,"<div style=""display: flex; flex-direction: column; align-items: center; margin-top: -40px;""><img src=""images/demo_images/pattern_1.png"" style=""width: 234px; height: 230px; margin-top: -50px;""><div style=""display: flex; justify-content: space-between; margin-top: 33px;""><img src=""images/demo_images/choice_trial_1.png"" style=""width: 408px; height: 417px; margin-right: 200px;""><img src=""images/demo_images/choice_trial_2.png"" style=""width: 408px; height: 417px;""></div></div>",f,delaylearn,learning,trial,JaiusMIRzJWjj6UpHNFAm3MU87l2,JaiusMIRzJWjj6UpHNFAm3MU87l2,1.0,images/demo_images/choice_trial_1.png,images/demo_images/choice_trial_2.png,images/demo_images/pattern_1.png,f,f,3000.0,1.0,2.0,20.0,0.0,6.0,1.0,1.0,1.0,40.0,,,,,,60fd2a117181bc22b970997d,09:06:26,27/02/2024
html-keyboard-response,30,58572,0.0-13.0-1.0,,"<div style=""display: flex; flex-direction: column; align-items: center; margin-top: -40px;""><img src=""images/demo_images/pattern_1.png"" style=""width: 234px; height: 230px; margin-top: -50px;""><div style=""display: flex; justify-content: space-between; margin-top: 33px;""><img src=""images/demo_images/choice_trial_1.png"" style=""width: 408px; height: 417px; margin-right: 608px;""></div></div>",,delaylearn,learning,display_response,JaiusMIRzJWjj6UpHNFAm3MU87l2,JaiusMIRzJWjj6UpHNFAm3MU87l2,,,,,,,,,,,,,,,,,chosen stimuli: images/demo_images/choice_trial_1.png,,,,,60fd2a117181bc22b970997d,09:06:26,27/02/2024
html-keyboard-response,31,61579,0.0-13.0-2.0,,,,delaylearn,learning,feedback_duration_window,JaiusMIRzJWjj6UpHNFAm3MU87l2,JaiusMIRzJWjj6UpHNFAm3MU87l2,,,,,,,,,,,,,,,,,,3000.0,,,,60fd2a117181bc22b970997d,09:06:26,27/02/2024
html-keyboard-response,32,63084,0.0-13.0-3.0,,<div style='margin:auto;width: auto; font-size: 150%'><span style='font-weight: bold; font-size: 100px; color: green;'>+10 points!</span><br><br></div>,,delaylearn,learning,feedback_image_window,JaiusMIRzJWjj6UpHNFAm3MU87l2,JaiusMIRzJWjj6UpHNFAm3MU87l2,,,,,,,,,,,,,,,,,,,,,,60fd2a117181bc22b970997d,09:06:26,27/02/2024
html-button-response,33,74980,0.0-14.0,11895.800000000047,"
  <div style=""display: flex; align-items: center; justify-content: center; height: 80vh;"">
  <div>
          <img src=""images/inst_demo_finish.png"" style=""width: 80vw; height:auto;"">
          <br><br>
      </div>
      <br><br>
  </div>",0,,,,JaiusMIRzJWjj6UpHNFAm3MU87l2,,,,,,,,,,,,,,,,,,,,,,,60fd2a117181bc22b970997d,09:06:26,27/02/2024
html-keyboard-response,34,79380,0.0-15.0,4399.20000000007,"
  <div style=""display: flex; align-items: center; justify-content: center; height: 80vh;"">
  <div>
          <img src=""images/inst_6.png"" style=""width: 80vw; height:auto;"">
          <br><br>
      </div>
      <br><br>
  </div>",j,,,,JaiusMIRzJWjj6UpHNFAm3MU87l2,,,,,,,,,,,,,,,,,,,,,,,60fd2a117181bc22b970997d,09:06:26,27/02/2024
html-keyboard-response,35,82386,0.0-16.0,,"<div style=""font-size:100px;"">+</div>",,delaylearn,learning,pre_fixation,JaiusMIRzJWjj6UpHNFAm3MU87l2,,,,,,,,,,,,,,,,,,,,,,,60fd2a117181bc22b970997d,09:06:26,27/02/2024
html-keyboard-response,36,84759,0.0-17.0,,"<div style=""font-size:100px;"">+</div>",,delaylearn,learning,ITI,JaiusMIRzJWjj6UpHNFAm3MU87l2,JaiusMIRzJWjj6UpHNFAm3MU87l2,,,,,,,,,,,,,,,,,,,2361.0,,,60fd2a117181bc22b970997d,09:06:26,27/02/2024
html-keyboard-response,37,86650,0.0-18.0-0.0,1890.5,"<div style=""display: flex; flex-direction: column; align-items: center; margin-top: -40px;""><img src=""images/pattern_3.png"" style=""width: 234px; height: 230px; margin-top: -50px;""><div style=""display: flex; justify-content: space-between; margin-top: 33px;""><img src=""images/choice_trial_5.png"" style=""width: 408px; height: 417px; margin-right: 200px;""><img src=""images/choice_trial_6.png"" style=""width: 408px; height: 417px;""></div></div>",f,delaylearn,learning,trial,JaiusMIRzJWjj6UpHNFAm3MU87l2,JaiusMIRzJWjj6UpHNFAm3MU87l2,1.0,images/choice_trial_5.png,images/choice_trial_6.png,images/pattern_3.png,f,f,7000.0,5.0,6.0,2.0,0.0,7.0,1.0,1.0,5.0,50.0,,,,,,60fd2a117181bc22b970997d,09:06:26,27/02/2024
html-keyboard-response,38,87665,0.0-18.0-1.0,,"<div style=""display: flex; flex-direction: column; align-items: center; margin-top: -40px;""><img src=""images/pattern_3.png"" style=""width: 234px; height: 230px; margin-top: -50px;""><div style=""display: flex; justify-content: space-between; margin-top: 33px;""><img src=""images/choice_trial_5.png"" style=""width: 408px; height: 417px; margin-right: 608px;""></div></div>",,delaylearn,learning,display_response,JaiusMIRzJWjj6UpHNFAm3MU87l2,JaiusMIRzJWjj6UpHNFAm3MU87l2,,,,,,,,,,,,,,,,,chosen stimuli: images/choice_trial_5.png,,,,,60fd2a117181bc22b970997d,09:06:26,27/02/2024
html-keyboard-response,39,94676,0.0-18.0-2.0,,,,delaylearn,learning,feedback_duration_window,JaiusMIRzJWjj6UpHNFAm3MU87l2,JaiusMIRzJWjj6UpHNFAm3MU87l2,,,,,,,,,,,,,,,,,,7000.0,,,,60fd2a117181bc22b970997d,09:06:26,27/02/2024
html-keyboard-response,40,96187,0.0-18.0-3.0,,<div style='margin:auto;width: auto; font-size: 150%'><span style='font-weight: bold; font-size: 100px; color: green;'>+10 points!</span><br><br></div>,,delaylearn,learning,feedback_image_window,JaiusMIRzJWjj6UpHNFAm3MU87l2,JaiusMIRzJWjj6UpHNFAm3MU87l2,,,,,,,,,,,,,,,,,,,,,,60fd2a117181bc22b970997d,09:06:26,27/02/2024
html-keyboard-response,41,98482,0.0-19.0,,"<div style=""font-size:100px;"">+</div>",,delaylearn,learning,ITI,JaiusMIRzJWjj6UpHNFAm3MU87l2,JaiusMIRzJWjj6UpHNFAm3MU87l2,,,,,,,,,,,,,,,,,,,2293.0,,,60fd2a117181bc22b970997d,09:06:26,27/02/2024
html-keyboard-response,42,101055,0.0-20.0-0.0,2572.0999999999767,"<div style=""display: flex; flex-direction: column; align-items: center; margin-top: -40px;""><img src=""images/pattern_7.png"" style=""width: 234px; height: 230px; margin-top: -50px;""><div style=""display: flex; justify-content: space-between; margin-top: 33px;""><img src=""images/choice_trial_14.png"" style=""width: 408px; height: 417px; margin-right: 200px;""><img src=""images/choice_trial_13.png"" style=""width: 408px; height: 417px;""></div></div>",f,delaylearn,learning,trial,JaiusMIRzJWjj6UpHNFAm3MU87l2,JaiusMIRzJWjj6UpHNFAm3MU87l2,1.0,images/choice_trial_14.png,images/choice_trial_13.png,images/pattern_7.png,j,j,750.0,14.0,13.0,6.0,1.0,8.0,0.0,0.0,14.0,50.0,,,,,,60fd2a117181bc22b970997d,09:06:26,27/02/2024
html-keyboard-response,43,102067,0.0-20.0-1.0,,"<div style=""display: flex; flex-direction: column; align-items: center; margin-top: -40px;""><img src=""images/pattern_7.png"" style=""width: 234px; height: 230px; margin-top: -50px;""><div style=""display: flex; justify-content: space-between; margin-top: 33px;""><img src=""images/choice_trial_14.png"" style=""width: 408px; height: 417px; margin-right: 608px;""></div></div>",,delaylearn,learning,display_response,JaiusMIRzJWjj6UpHNFAm3MU87l2,JaiusMIRzJWjj6UpHNFAm3MU87l2,,,,,,,,,,,,,,,,,chosen stimuli: images/choice_trial_14.png,,,,,60fd2a117181bc22b970997d,09:06:26,27/02/2024
html-keyboard-response,44,102824,0.0-20.0-2.0,,,,delaylearn,learning,feedback_duration_window,JaiusMIRzJWjj6UpHNFAm3MU87l2,JaiusMIRzJWjj6UpHNFAm3MU87l2,,,,,,,,,,,,,,,,,,750.0,,,,60fd2a117181bc22b970997d,09:06:26,27/02/2024
html-keyboard-response,45,104325,0.0-20.0-3.0,,<div style='margin:auto;width: auto; font-size: 150%'><span style='font-weight: bold; font-size: 100px; color: red;'>0 points!</span><br><br></div>,,delaylearn,learning,feedback_image_window,JaiusMIRzJWjj6UpHNFAm3MU87l2,JaiusMIRzJWjj6UpHNFAm3MU87l2,,,,,,,,,,,,,,,,,,,,,,60fd2a117181bc22b970997d,09:06:26,27/02/2024
html-keyboard-response,46,106360,0.0-21.0,,"<div style=""font-size:100px;"">+</div>",,delaylearn,learning,ITI,JaiusMIRzJWjj6UpHNFAm3MU87l2,JaiusMIRzJWjj6UpHNFAm3MU87l2,,,,,,,,,,,,,,,,,,,2020.0,,,60fd2a117181bc22b970997d,09:06:26,27/02/2024
html-keyboard-response,47,108955,0.0-22.0-0.0,2593.9000000000233,"<div style=""display: flex; flex-direction: column; align-items: center; margin-top: -40px;""><img src=""images/pattern_4.png"" style=""width: 234px; height: 230px; margin-top: -50px;""><div style=""display: flex; justify-content: space-between; margin-top: 33px;""><img src=""images/choice_trial_7.png"" style=""width: 408px; height: 417px; margin-right: 200px;""><img src=""images/choice_trial_8.png"" style=""width: 408px; height: 417px;""></div></div>",f,delaylearn,learning,trial,JaiusMIRzJWjj6UpHNFAm3MU87l2,JaiusMIRzJWjj6UpHNFAm3MU87l2,1.0,images/choice_trial_7.png,images/choice_trial_8.png,images/pattern_4.png,f,f,7000.0,7.0,8.0,3.0,0.0,9.0,1.0,1.0,7.0,60.0,,,,,,60fd2a117181bc22b970997d,09:06:26,27/02/2024
html-keyboard-response,48,109962,0.0-22.0-1.0,,"<div style=""display: flex; flex-direction: column; align-items: center; margin-top: -40px;""><img src=""images/pattern_4.png"" style=""width: 234px; height: 230px; margin-top: -50px;""><div style=""display: flex; justify-content: space-between; margin-top: 33px;""><img src=""images/choice_trial_7.png"" style=""width: 408px; height: 417px; margin-right: 608px;""></div></div>",,delaylearn,learning,display_response,JaiusMIRzJWjj6UpHNFAm3MU87l2,JaiusMIRzJWjj6UpHNFAm3MU87l2,,,,,,,,,,,,,,,,,chosen stimuli: images/choice_trial_7.png,,,,,60fd2a117181bc22b970997d,09:06:26,27/02/2024
html-keyboard-response,49,116975,0.0-22.0-2.0,,,,delaylearn,learning,feedback_duration_window,JaiusMIRzJWjj6UpHNFAm3MU87l2,JaiusMIRzJWjj6UpHNFAm3MU87l2,,,,,,,,,,,,,,,,,,7000.0,,,,60fd2a117181bc22b970997d,09:06:26,27/02/2024
html-keyboard-response,50,118483,0.0-22.0-3.0,,<div style='margin:auto;width: auto; font-size: 150%'><span style='font-weight: bold; font-size: 100px; color: green;'>+10 points!</span><br><br></div>,,delaylearn,learning,feedback_image_window,JaiusMIRzJWjj6UpHNFAm3MU87l2,JaiusMIRzJWjj6UpHNFAm3MU87l2,,,,,,,,,,,,,,,,,,,,,,60fd2a117181bc22b970997d,09:06:26,27/02/2024
html-keyboard-response,51,120622,0.0-23.0,,"<div style=""font-size:100px;"">+</div>",,delaylearn,learning,ITI,JaiusMIRzJWjj6UpHNFAm3MU87l2,JaiusMIRzJWjj6UpHNFAm3MU87l2,,,,,,,,,,,,,,,,,,,2134.0,,,60fd2a117181bc22b970997d,09:06:26,27/02/2024
html-keyboard-response,52,122802,0.0-24.0-0.0,2179.3000000000466,"<div style=""display: flex; flex-direction: column; align-items: center; margin-top: -40px;""><img src=""images/pattern_5.png"" style=""width: 234px; height: 230px; margin-top: -50px;""><div style=""display: flex; justify-content: space-between; margin-top: 33px;""><img src=""images/choice_trial_10.png"" style=""width: 408px; height: 417px; margin-right: 200px;""><img src=""images/choice_trial_9.png"" style=""width: 408px; height: 417px;""></div></div>",j,delaylearn,learning,trial,JaiusMIRzJWjj6UpHNFAm3MU87l2,JaiusMIRzJWjj6UpHNFAm3MU87l2,1.0,images/choice_trial_10.png,images/choice_trial_9.png,images/pattern_5.png,j,j,750.0,10.0,9.0,4.0,1.0,10.0,1.0,1.0,9.0,70.0,,,,,,60fd2a117181bc22b970997d,09:06:26,27/02/2024
html-keyboard-response,53,123803,0.0-24.0-1.0,,"<div style=""display: flex; flex-direction: column; align-items: center; margin-top: -40px;""><img src=""images/pattern_5.png"" style=""width: 234px; height: 230px; margin-top: -50px;""><div style=""display: flex; justify-content: space-between; margin-top: 33px;""><img src=""images/choice_trial_9.png"" style=""width: 408px; height: 417px; margin-left:608px;""></div></div>",,delaylearn,learning,display_response,JaiusMIRzJWjj6UpHNFAm3MU87l2,JaiusMIRzJWjj6UpHNFAm3MU87l2,,,,,,,,,,,,,,,,,chosen stimuli: images/choice_trial_9.png,,,,,60fd2a117181bc22b970997d,09:06:26,27/02/2024
html-keyboard-response,54,124556,0.0-24.0-2.0,,,,delaylearn,learning,feedback_duration_window,JaiusMIRzJWjj6UpHNFAm3MU87l2,JaiusMIRzJWjj6UpHNFAm3MU87l2,,,,,,,,,,,,,,,,,,750.0,,,,60fd2a117181bc22b970997d,09:06:26,27/02/2024
html-keyboard-response,55,126072,0.0-24.0-3.0,,<div style='margin:auto;width: auto; font-size: 150%'><span style='font-weight: bold; font-size: 100px; color: green;'>+10 points!</span><br><br></div>,,delaylearn,learning,feedback_image_window,JaiusMIRzJWjj6UpHNFAm3MU87l2,JaiusMIRzJWjj6UpHNFAm3MU87l2,,,,,,,,,,,,,,,,,,,,,,60fd2a117181bc22b970997d,09:06:26,27/02/2024
html-keyboard-response,56,128449,0.0-25.0,,"<div style=""font-size:100px;"">+</div>",,delaylearn,learning,ITI,JaiusMIRzJWjj6UpHNFAm3MU87l2,JaiusMIRzJWjj6UpHNFAm3MU87l2,,,,,,,,,,,,,,,,,,,2368.0,,,60fd2a117181bc22b970997d,09:06:26,27/02/2024
html-keyboard-response,57,130807,0.0-26.0-0.0,2357.5,"<div style=""display: flex; flex-direction: column; align-items: center; margin-top: -40px;""><img src=""images/pattern_6.png"" style=""width: 234px; height: 230px; margin-top: -50px;""><div style=""display: flex; justify-content: space-between; margin-top: 33px;""><img src=""images/choice_trial_11.png"" style=""width: 408px; height: 417px; margin-right: 200px;""><img src=""images/choice_trial_12.png"" style=""width: 408px; height: 417px;""></div></div>",j,delaylearn,learning,trial,JaiusMIRzJWjj6UpHNFAm3MU87l2,JaiusMIRzJWjj6UpHNFAm3MU87l2,1.0,images/choice_trial_11.png,images/choice_trial_12.png,images/pattern_6.png,j,f,750.0,11.0,12.0,5.0,0.0,11.0,0.0,1.0,12.0,80.0,,,,,,60fd2a117181bc22b970997d,09:06:26,27/02/2024
html-keyboard-response,58,131813,0.0-26.0-1.0,,"<div style=""display: flex; flex-direction: column; align-items: center; margin-top: -40px;""><img src=""images/pattern_6.png"" style=""width: 234px; height: 230px; margin-top: -50px;""><div style=""display: flex; justify-content: space-between; margin-top: 33px;""><img src=""images/choice_trial_12.png"" style=""width: 408px; height: 417px; margin-left:608px;""></div></div>",,delaylearn,learning,display_response,JaiusMIRzJWjj6UpHNFAm3MU87l2,JaiusMIRzJWjj6UpHNFAm3MU87l2,,,,,,,,,,,,,,,,,chosen stimuli: images/choice_trial_12.png,,,,,60fd2a117181bc22b970997d,09:06:26,27/02/2024
html-keyboard-response,59,132566,0.0-26.0-2.0,,,,delaylearn,learning,feedback_duration_window,JaiusMIRzJWjj6UpHNFAm3MU87l2,JaiusMIRzJWjj6UpHNFAm3MU87l2,,,,,,,,,,,,,,,,,,750.0,,,,60fd2a117181bc22b970997d,09:06:26,27/02/2024
html-keyboard-response,60,134072,0.0-26.0-3.0,,<div style='margin:auto;width: auto; font-size: 150%'><span style='font-weight: bold; font-size: 100px; color: green;'>+10 points!</span><br><br></div>,,delaylearn,learning,feedback_image_window,JaiusMIRzJWjj6UpHNFAm3MU87l2,JaiusMIRzJWjj6UpHNFAm3MU87l2,,,,,,,,,,,,,,,,,,,,,,60fd2a117181bc22b970997d,09:06:26,27/02/2024
html-keyboard-response,61,134577,0.0-27.0-0.0,,,,,,mood_trial_fixation,JaiusMIRzJWjj6UpHNFAm3MU87l2,,,,,,,,,,,,,,,,,,,,,,,60fd2a117181bc22b970997d,09:06:26,27/02/2024
lmdlab-html-vas-response,62,139429,0.0-27.0-1.0,3847.0,How happy are you right now?,0.47685185185185186,delaylearn,learning,mood_trial,JaiusMIRzJWjj6UpHNFAm3MU87l2,JaiusMIRzJWjj6UpHNFAm3MU87l2,,,,,,,,,,,,,,,,,,,,"['Very unhappy', 'Very happy']",,60fd2a117181bc22b970997d,09:06:26,27/02/2024
html-keyboard-response,63,141233,0.0-28.0,,"<div style=""font-size:100px;"">+</div>",,delaylearn,learning,ITI,JaiusMIRzJWjj6UpHNFAm3MU87l2,JaiusMIRzJWjj6UpHNFAm3MU87l2,,,,,,,,,,,,,,,,,,,1790.0,,,60fd2a117181bc22b970997d,09:06:26,27/02/2024
html-keyboard-response,64,143594,0.0-29.0-0.0,2360.29999999993,"<div style=""display: flex; flex-direction: column; align-items: center; margin-top: -40px;""><img src=""images/pattern_1.png"" style=""width: 234px; height: 230px; margin-top: -50px;""><div style=""display: flex; justify-content: space-between; margin-top: 33px;""><img src=""images/choice_trial_2.png"" style=""width: 408px; height: 417px; margin-right: 200px;""><img src=""images/choice_trial_1.png"" style=""width: 408px; height: 417px;""></div></div>",j,delaylearn,learning,trial,JaiusMIRzJWjj6UpHNFAm3MU87l2,JaiusMIRzJWjj6UpHNFAm3MU87l2,1.0,images/choice_trial_2.png,images/choice_trial_1.png,images/pattern_1.png,j,j,7000.0,2.0,1.0,1.0,1.0,12.0,1.0,1.0,1.0,90.0,,,,,,60fd2a117181bc22b970997d,09:06:26,27/02/2024
html-keyboard-response,65,144599,0.0-29.0-1.0,,"<div style=""display: flex; flex-direction: column; align-items: center; margin-top: -40px;""><img src=""images/pattern_1.png"" style=""width: 234px; height: 230px; margin-top: -50px;""><div style=""display: flex; justify-content: space-between; margin-top: 33px;""><img src=""images/choice_trial_1.png"" style=""width: 408px; height: 417px; margin-left:608px;""></div></div>",,delaylearn,learning,display_response,JaiusMIRzJWjj6UpHNFAm3MU87l2,JaiusMIRzJWjj6UpHNFAm3MU87l2,,,,,,,,,,,,,,,,,chosen stimuli: images/choice_trial_1.png,,,,,60fd2a117181bc22b970997d,09:06:26,27/02/2024
html-keyboard-response,66,151607,0.0-29.0-2.0,,,,delaylearn,learning,feedback_duration_window,JaiusMIRzJWjj6UpHNFAm3MU87l2,JaiusMIRzJWjj6UpHNFAm3MU87l2,,,,,,,,,,,,,,,,,,7000.0,,,,60fd2a117181bc22b970997d,09:06:26,27/02/2024
html-keyboard-response,67,153114,0.0-29.0-3.0,,<div style='margin:auto;width: auto; font-size: 150%'><span style='font-weight: bold; font-size: 100px; color: green;'>+10 points!</span><br><br></div>,,delaylearn,learning,feedback_image_window,JaiusMIRzJWjj6UpHNFAm3MU87l2,JaiusMIRzJWjj6UpHNFAm3MU87l2,,,,,,,,,,,,,,,,,,,,,,60fd2a117181bc22b970997d,09:06:26,27/02/2024
html-keyboard-response,68,155001,0.0-30.0,,"<div style=""font-size:100px;"">+</div>",,delaylearn,learning,ITI,JaiusMIRzJWjj6UpHNFAm3MU87l2,JaiusMIRzJWjj6UpHNFAm3MU87l2,,,,,,,,,,,,,,,,,,,1876.0,,,60fd2a117181bc22b970997d,09:06:26,27/02/2024
html-keyboard-response,69,156309,0.0-31.0-0.0,1307.8000000000466,"<div style=""display: flex; flex-direction: column; align-items: center; margin-top: -40px;""><img src=""images/pattern_3.png"" style=""width: 234px; height: 230px; margin-top: -50px;""><div style=""display: flex; justify-content: space-between; margin-top: 33px;""><img src=""images/choice_trial_6.png"" style=""width: 408px; height: 417px; margin-right: 200px;""><img src=""images/choice_trial_5.png"" style=""width: 408px; height: 417px;""></div></div>",j,delaylearn,learning,trial,JaiusMIRzJWjj6UpHNFAm3MU87l2,JaiusMIRzJWjj6UpHNFAm3MU87l2,1.0,images/choice_trial_6.png,images/choice_trial_5.png,images/pattern_3.png,f,j,7000.0,6.0,5.0,2.0,1.0,13.0,1.0,0.0,5.0,90.0,,,,,,60fd2a117181bc22b970997d,09:06:26,27/02/2024
html-keyboard-response,70,157315,0.0-31.0-1.0,,"<div style=""display: flex; flex-direction: column; align-items: center; margin-top: -40px;""><img src=""images/pattern_3.png"" style=""width: 234px; height: 230px; margin-top: -50px;""><div style=""display: flex; justify-content: space-between; margin-top: 33px;""><img src=""images/choice_trial_5.png"" style=""width: 408px; height: 417px; margin-left:608px;""></div></div>",,delaylearn,learning,display_response,JaiusMIRzJWjj6UpHNFAm3MU87l2,JaiusMIRzJWjj6UpHNFAm3MU87l2,,,,,,,,,,,,,,,,,chosen stimuli: images/choice_trial_5.png,,,,,60fd2a117181bc22b970997d,09:06:26,27/02/2024
html-keyboard-response,71,164319,0.0-31.0-2.0,,,,delaylearn,learning,feedback_duration_window,JaiusMIRzJWjj6UpHNFAm3MU87l2,JaiusMIRzJWjj6UpHNFAm3MU87l2,,,,,,,,,,,,,,,,,,7000.0,,,,60fd2a117181bc22b970997d,09:06:26,27/02/2024
html-keyboard-response,72,165824,0.0-31.0-3.0,,<div style='margin:auto;width: auto; font-size: 150%'><span style='font-weight: bold; font-size: 100px; color: red;'>0 points!</span><br><br></div>,,delaylearn,learning,feedback_image_window,JaiusMIRzJWjj6UpHNFAm3MU87l2,JaiusMIRzJWjj6UpHNFAm3MU87l2,,,,,,,,,,,,,,,,,,,,,,60fd2a117181bc22b970997d,09:06:26,27/02/2024
html-keyboard-response,73,168283,0.0-32.0,,"<div style=""font-size:100px;"">+</div>",,delaylearn,learning,ITI,JaiusMIRzJWjj6UpHNFAm3MU87l2,JaiusMIRzJWjj6UpHNFAm3MU87l2,,,,,,,,,,,,,,,,,,,2453.0,,,60fd2a117181bc22b970997d,09:06:26,27/02/2024
html-keyboard-response,74,170370,0.0-33.0-0.0,2086.1999999999534,"<div style=""display: flex; flex-direction: column; align-items: center; margin-top: -40px;""><img src=""images/pattern_5.png"" style=""width: 234px; height: 230px; margin-top: -50px;""><div style=""display: flex; justify-content: space-between; margin-top: 33px;""><img src=""images/choice_trial_9.png"" style=""width: 408px; height: 417px; margin-right: 200px;""><img src=""images/choice_trial_10.png"" style=""width: 408px; height: 417px;""></div></div>",f,delaylearn,learning,trial,JaiusMIRzJWjj6UpHNFAm3MU87l2,JaiusMIRzJWjj6UpHNFAm3MU87l2,1.0,images/choice_trial_9.png,images/choice_trial_10.png,images/pattern_5.png,f,f,750.0,9.0,10.0,4.0,0.0,14.0,1.0,1.0,9.0,100.0,,,,,,60fd2a117181bc22b970997d,09:06:26,27/02/2024
html-keyboard-response,75,171383,0.0-33.0-1.0,,"<div style=""display: flex; flex-direction: column; align-items: center; margin-top: -40px;""><img src=""images/pattern_5.png"" style=""width: 234px; height: 230px; margin-top: -50px;""><div style=""display: flex; justify-content: space-between; margin-top: 33px;""><img src=""images/choice_trial_9.png"" style=""width: 408px; height: 417px; margin-right: 608px;""></div></div>",,delaylearn,learning,display_response,JaiusMIRzJWjj6UpHNFAm3MU87l2,JaiusMIRzJWjj6UpHNFAm3MU87l2,,,,,,,,,,,,,,,,,chosen stimuli: images/choice_trial_9.png,,,,,60fd2a117181bc22b970997d,09:06:26,27/02/2024
html-keyboard-response,76,172138,0.0-33.0-2.0,,,,delaylearn,learning,feedback_duration_window,JaiusMIRzJWjj6UpHNFAm3MU87l2,JaiusMIRzJWjj6UpHNFAm3MU87l2,,,,,,,,,,,,,,,,,,750.0,,,,60fd2a117181bc22b970997d,09:06:26,27/02/2024
html-keyboard-response,77,173646,0.0-33.0-3.0,,<div style='margin:auto;width: auto; font-size: 150%'><span style='font-weight: bold; font-size: 100px; color: green;'>+10 points!</span><br><br></div>,,delaylearn,learning,feedback_image_window,JaiusMIRzJWjj6UpHNFAm3MU87l2,JaiusMIRzJWjj6UpHNFAm3MU87l2,,,,,,,,,,,,,,,,,,,,,,60fd2a117181bc22b970997d,09:06:26,27/02/2024
html-keyboard-response,78,174150,0.0-34.0-0.0,,,,,,mood_trial_fixation,JaiusMIRzJWjj6UpHNFAm3MU87l2,,,,,,,,,,,,,,,,,,,,,,,60fd2a117181bc22b970997d,09:06:26,27/02/2024
lmdlab-html-vas-response,79,178989,0.0-34.0-1.0,3827.0,How happy are you right now?,0.47685185185185186,delaylearn,learning,mood_trial,JaiusMIRzJWjj6UpHNFAm3MU87l2,JaiusMIRzJWjj6UpHNFAm3MU87l2,,,,,,,,,,,,,,,,,,,,"['Very unhappy', 'Very happy']",,60fd2a117181bc22b970997d,09:06:26,27/02/2024
html-keyboard-response,80,180596,0.0-35.0,,"<div style=""font-size:100px;"">+</div>",,delaylearn,learning,ITI,JaiusMIRzJWjj6UpHNFAm3MU87l2,JaiusMIRzJWjj6UpHNFAm3MU87l2,,,,,,,,,,,,,,,,,,,1605.0,,,60fd2a117181bc22b970997d,09:06:26,27/02/2024
html-keyboard-response,81,183249,0.0-36.0-0.0,2652.79999999993,"<div style=""display: flex; flex-direction: column; align-items: center; margin-top: -40px;""><img src=""images/pattern_6.png"" style=""width: 234px; height: 230px; margin-top: -50px;""><div style=""display: flex; justify-content: space-between; margin-top: 33px;""><img src=""images/choice_trial_11.png"" style=""width: 408px; height: 417px; margin-right: 200px;""><img src=""images/choice_trial_12.png"" style=""width: 408px; height: 417px;""></div></div>",j,delaylearn,learning,trial,JaiusMIRzJWjj6UpHNFAm3MU87l2,JaiusMIRzJWjj6UpHNFAm3MU87l2,1.0,images/choice_trial_11.png,images/choice_trial_12.png,images/pattern_6.png,f,f,750.0,11.0,12.0,5.0,0.0,15.0,0.0,0.0,12.0,100.0,,,,,,60fd2a117181bc22b970997d,09:06:26,27/02/2024
html-keyboard-response,82,184250,0.0-36.0-1.0,,"<div style=""display: flex; flex-direction: column; align-items: center; margin-top: -40px;""><img src=""images/pattern_6.png"" style=""width: 234px; height: 230px; margin-top: -50px;""><div style=""display: flex; justify-content: space-between; margin-top: 33px;""><img src=""images/choice_trial_12.png"" style=""width: 408px; height: 417px; margin-left:608px;""></div></div>",,delaylearn,learning,display_response,JaiusMIRzJWjj6UpHNFAm3MU87l2,JaiusMIRzJWjj6UpHNFAm3MU87l2,,,,,,,,,,,,,,,,,chosen stimuli: images/choice_trial_12.png,,,,,60fd2a117181bc22b970997d,09:06:26,27/02/2024
html-keyboard-response,83,185004,0.0-36.0-2.0,,,,delaylearn,learning,feedback_duration_window,JaiusMIRzJWjj6UpHNFAm3MU87l2,JaiusMIRzJWjj6UpHNFAm3MU87l2,,,,,,,,,,,,,,,,,,750.0,,,,60fd2a117181bc22b970997d,09:06:26,27/02/2024
html-keyboard-response,84,186512,0.0-36.0-3.0,,<div style='margin:auto;width: auto; font-size: 150%'><span style='font-weight: bold; font-size: 100px; color: red;'>0 points!</span><br><br></div>,,delaylearn,learning,feedback_image_window,JaiusMIRzJWjj6UpHNFAm3MU87l2,JaiusMIRzJWjj6UpHNFAm3MU87l2,,,,,,,,,,,,,,,,,,,,,,60fd2a117181bc22b970997d,09:06:26,27/02/2024
html-keyboard-response,85,188354,0.0-37.0,,"<div style=""font-size:100px;"">+</div>",,delaylearn,learning,ITI,JaiusMIRzJWjj6UpHNFAm3MU87l2,JaiusMIRzJWjj6UpHNFAm3MU87l2,,,,,,,,,,,,,,,,,,,1840.0,,,60fd2a117181bc22b970997d,09:06:26,27/02/2024
html-keyboard-response,86,190824,0.0-38.0-0.0,2469.0999999999767,"<div style=""display: flex; flex-direction: column; align-items: center; margin-top: -40px;""><img src=""images/pattern_4.png"" style=""width: 234px; height: 230px; margin-top: -50px;""><div style=""display: flex; justify-content: space-between; margin-top: 33px;""><img src=""images/choice_trial_8.png"" style=""width: 408px; height: 417px; margin-right: 200px;""><img src=""images/choice_trial_7.png"" style=""width: 408px; height: 417px;""></div></div>",j,delaylearn,learning,trial,JaiusMIRzJWjj6UpHNFAm3MU87l2,JaiusMIRzJWjj6UpHNFAm3MU87l2,1.0,images/choice_trial_8.png,images/choice_trial_7.png,images/pattern_4.png,j,j,7000.0,8.0,7.0,3.0,1.0,16.0,1.0,1.0,7.0,110.0,,,,,,60fd2a117181bc22b970997d,09:06:26,27/02/2024
html-keyboard-response,87,191835,0.0-38.0-1.0,,"<div style=""display: flex; flex-direction: column; align-items: center; margin-top: -40px;""><img src=""images/pattern_4.png"" style=""width: 234px; height: 230px; margin-top: -50px;""><div style=""display: flex; justify-content: space-between; margin-top: 33px;""><img src=""images/choice_trial_7.png"" style=""width: 408px; height: 417px; margin-left:608px;""></div></div>",,delaylearn,learning,display_response,JaiusMIRzJWjj6UpHNFAm3MU87l2,JaiusMIRzJWjj6UpHNFAm3MU87l2,,,,,,,,,,,,,,,,,chosen stimuli: images/choice_trial_7.png,,,,,60fd2a117181bc22b970997d,09:06:26,27/02/2024
html-keyboard-response,88,198850,0.0-38.0-2.0,,,,delaylearn,learning,feedback_duration_window,JaiusMIRzJWjj6UpHNFAm3MU87l2,JaiusMIRzJWjj6UpHNFAm3MU87l2,,,,,,,,,,,,,,,,,,7000.0,,,,60fd2a117181bc22b970997d,09:06:26,27/02/2024
html-keyboard-response,89,200352,0.0-38.0-3.0,,<div style='margin:auto;width: auto; font-size: 150%'><span style='font-weight: bold; font-size: 100px; color: green;'>+10 points!</span><br><br></div>,,delaylearn,learning,feedback_image_window,JaiusMIRzJWjj6UpHNFAm3MU87l2,JaiusMIRzJWjj6UpHNFAm3MU87l2,,,,,,,,,,,,,,,,,,,,,,60fd2a117181bc22b970997d,09:06:26,27/02/2024
html-keyboard-response,90,202454,0.0-39.0,,"<div style=""font-size:100px;"">+</div>",,delaylearn,learning,ITI,JaiusMIRzJWjj6UpHNFAm3MU87l2,JaiusMIRzJWjj6UpHNFAm3MU87l2,,,,,,,,,,,,,,,,,,,2097.0,,,60fd2a117181bc22b970997d,09:06:26,27/02/2024
html-keyboard-response,91,204655,0.0-40.0-0.0,2200.600000000093,"<div style=""display: flex; flex-direction: column; align-items: center; margin-top: -40px;""><img src=""images/pattern_7.png"" style=""width: 234px; height: 230px; margin-top: -50px;""><div style=""display: flex; justify-content: space-between; margin-top: 33px;""><img src=""images/choice_trial_13.png"" style=""width: 408px; height: 417px; margin-right: 200px;""><img src=""images/choice_trial_14.png"" style=""width: 408px; height: 417px;""></div></div>",j,delaylearn,learning,trial,JaiusMIRzJWjj6UpHNFAm3MU87l2,JaiusMIRzJWjj6UpHNFAm3MU87l2,1.0,images/choice_trial_13.png,images/choice_trial_14.png,images/pattern_7.png,j,f,750.0,13.0,14.0,6.0,0.0,17.0,0.0,1.0,14.0,120.0,,,,,,60fd2a117181bc22b970997d,09:06:26,27/02/2024
html-keyboard-response,92,205666,0.0-40.0-1.0,,"<div style=""display: flex; flex-direction: column; align-items: center; margin-top: -40px;""><img src=""images/pattern_7.png"" style=""width: 234px; height: 230px; margin-top: -50px;""><div style=""display: flex; justify-content: space-between; margin-top: 33px;""><img src=""images/choice_trial_14.png"" style=""width: 408px; height: 417px; margin-left:608px;""></div></div>",,delaylearn,learning,display_response,JaiusMIRzJWjj6UpHNFAm3MU87l2,JaiusMIRzJWjj6UpHNFAm3MU87l2,,,,,,,,,,,,,,,,,chosen stimuli: images/choice_trial_14.png,,,,,60fd2a117181bc22b970997d,09:06:26,27/02/2024
html-keyboard-response,93,206429,0.0-40.0-2.0,,,,delaylearn,learning,feedback_duration_window,JaiusMIRzJWjj6UpHNFAm3MU87l2,JaiusMIRzJWjj6UpHNFAm3MU87l2,,,,,,,,,,,,,,,,,,750.0,,,,60fd2a117181bc22b970997d,09:06:26,27/02/2024
html-keyboard-response,94,207930,0.0-40.0-3.0,,<div style='margin:auto;width: auto; font-size: 150%'><span style='font-weight: bold; font-size: 100px; color: green;'>+10 points!</span><br><br></div>,,delaylearn,learning,feedback_image_window,JaiusMIRzJWjj6UpHNFAm3MU87l2,JaiusMIRzJWjj6UpHNFAm3MU87l2,,,,,,,,,,,,,,,,,,,,,,60fd2a117181bc22b970997d,09:06:26,27/02/2024
html-keyboard-response,95,210120,0.0-41.0,,"<div style=""font-size:100px;"">+</div>",,delaylearn,learning,ITI,JaiusMIRzJWjj6UpHNFAm3MU87l2,JaiusMIRzJWjj6UpHNFAm3MU87l2,,,,,,,,,,,,,,,,,,,2189.0,,,60fd2a117181bc22b970997d,09:06:26,27/02/2024
html-keyboard-response,96,212359,0.0-42.0-0.0,2238.3000000000466,"<div style=""display: flex; flex-direction: column; align-items: center; margin-top: -40px;""><img src=""images/pattern_1.png"" style=""width: 234px; height: 230px; margin-top: -50px;""><div style=""display: flex; justify-content: space-between; margin-top: 33px;""><img src=""images/choice_trial_1.png"" style=""width: 408px; height: 417px; margin-right: 200px;""><img src=""images/choice_trial_2.png"" style=""width: 408px; height: 417px;""></div></div>",j,delaylearn,learning,trial,JaiusMIRzJWjj6UpHNFAm3MU87l2,JaiusMIRzJWjj6UpHNFAm3MU87l2,1.0,images/choice_trial_1.png,images/choice_trial_2.png,images/pattern_1.png,f,f,7000.0,1.0,2.0,1.0,0.0,18.0,0.0,0.0,2.0,120.0,,,,,,60fd2a117181bc22b970997d,09:06:26,27/02/2024
html-keyboard-response,97,213363,0.0-42.0-1.0,,"<div style=""display: flex; flex-direction: column; align-items: center; margin-top: -40px;""><img src=""images/pattern_1.png"" style=""width: 234px; height: 230px; margin-top: -50px;""><div style=""display: flex; justify-content: space-between; margin-top: 33px;""><img src=""images/choice_trial_2.png"" style=""width: 408px; height: 417px; margin-left:608px;""></div></div>",,delaylearn,learning,display_response,JaiusMIRzJWjj6UpHNFAm3MU87l2,JaiusMIRzJWjj6UpHNFAm3MU87l2,,,,,,,,,,,,,,,,,chosen stimuli: images/choice_trial_2.png,,,,,60fd2a117181bc22b970997d,09:06:26,27/02/2024
html-keyboard-response,98,220372,0.0-42.0-2.0,,,,delaylearn,learning,feedback_duration_window,JaiusMIRzJWjj6UpHNFAm3MU87l2,JaiusMIRzJWjj6UpHNFAm3MU87l2,,,,,,,,,,,,,,,,,,7000.0,,,,60fd2a117181bc22b970997d,09:06:26,27/02/2024
html-keyboard-response,99,221884,0.0-42.0-3.0,,<div style='margin:auto;width: auto; font-size: 150%'><span style='font-weight: bold; font-size: 100px; color: red;'>0 points!</span><br><br></div>,,delaylearn,learning,feedback_image_window,JaiusMIRzJWjj6UpHNFAm3MU87l2,JaiusMIRzJWjj6UpHNFAm3MU87l2,,,,,,,,,,,,,,,,,,,,,,60fd2a117181bc22b970997d,09:06:26,27/02/2024
html-keyboard-response,100,223826,0.0-43.0,,"<div style=""font-size:100px;"">+</div>",,delaylearn,learning,ITI,JaiusMIRzJWjj6UpHNFAm3MU87l2,JaiusMIRzJWjj6UpHNFAm3MU87l2,,,,,,,,,,,,,,,,,,,1930.0,,,60fd2a117181bc22b970997d,09:06:26,27/02/2024
html-keyboard-response,101,226419,0.0-44.0-0.0,2592.3000000000466,"<div style=""display: flex; flex-direction: column; align-items: center; margin-top: -40px;""><img src=""images/pattern_6.png"" style=""width: 234px; height: 230px; margin-top: -50px;""><div style=""display: flex; justify-content: space-between; margin-top: 33px;""><img src=""images/choice_trial_12.png"" style=""width: 408px; height: 417px; margin-right: 200px;""><img src=""images/choice_trial_11.png"" style=""width: 408px; height: 417px;""></div></div>",f,delaylearn,learning,trial,JaiusMIRzJWjj6UpHNFAm3MU87l2,JaiusMIRzJWjj6UpHNFAm3MU87l2,1.0,images/choice_trial_12.png,images/choice_trial_11.png,images/pattern_6.png,j,j,750.0,12.0,11.0,5.0,1.0,19.0,0.0,0.0,12.0,120.0,,,,,,60fd2a117181bc22b970997d,09:06:26,27/02/2024
html-keyboard-response,102,227433,0.0-44.0-1.0,,"<div style=""display: flex; flex-direction: column; align-items: center; margin-top: -40px;""><img src=""images/pattern_6.png"" style=""width: 234px; height: 230px; margin-top: -50px;""><div style=""display: flex; justify-content: space-between; margin-top: 33px;""><img src=""images/choice_trial_12.png"" style=""width: 408px; height: 417px; margin-right: 608px;""></div></div>",,delaylearn,learning,display_response,JaiusMIRzJWjj6UpHNFAm3MU87l2,JaiusMIRzJWjj6UpHNFAm3MU87l2,,,,,,,,,,,,,,,,,chosen stimuli: images/choice_trial_12.png,,,,,60fd2a117181bc22b970997d,09:06:26,27/02/2024
html-keyboard-response,103,228196,0.0-44.0-2.0,,,,delaylearn,learning,feedback_duration_window,JaiusMIRzJWjj6UpHNFAm3MU87l2,JaiusMIRzJWjj6UpHNFAm3MU87l2,,,,,,,,,,,,,,,,,,750.0,,,,60fd2a117181bc22b970997d,09:06:26,27/02/2024
html-keyboard-response,104,229706,0.0-44.0-3.0,,<div style='margin:auto;width: auto; font-size: 150%'><span style='font-weight: bold; font-size: 100px; color: red;'>0 points!</span><br><br></div>,,delaylearn,learning,feedback_image_window,JaiusMIRzJWjj6UpHNFAm3MU87l2,JaiusMIRzJWjj6UpHNFAm3MU87l2,,,,,,,,,,,,,,,,,,,,,,60fd2a117181bc22b970997d,09:06:26,27/02/2024
html-keyboard-response,105,231492,0.0-45.0,,"<div style=""font-size:100px;"">+</div>",,delaylearn,learning,ITI,JaiusMIRzJWjj6UpHNFAm3MU87l2,JaiusMIRzJWjj6UpHNFAm3MU87l2,,,,,,,,,,,,,,,,,,,1771.0,,,60fd2a117181bc22b970997d,09:06:26,27/02/2024
html-keyboard-response,106,233579,0.0-46.0-0.0,2085.3000000000466,"<div style=""display: flex; flex-direction: column; align-items: center; margin-top: -40px;""><img src=""images/pattern_4.png"" style=""width: 234px; height: 230px; margin-top: -50px;""><div style=""display: flex; justify-content: space-between; margin-top: 33px;""><img src=""images/choice_trial_7.png"" style=""width: 408px; height: 417px; margin-right: 200px;""><img src=""images/choice_trial_8.png"" style=""width: 408px; height: 417px;""></div></div>",f,delaylearn,learning,trial,JaiusMIRzJWjj6UpHNFAm3MU87l2,JaiusMIRzJWjj6UpHNFAm3MU87l2,1.0,images/choice_trial_7.png,images/choice_trial_8.png,images/pattern_4.png,f,f,7000.0,7.0,8.0,3.0,0.0,20.0,1.0,1.0,7.0,130.0,,,,,,60fd2a117181bc22b970997d,09:06:26,27/02/2024
html-keyboard-response,107,234592,0.0-46.0-1.0,,"<div style=""display: flex; flex-direction: column; align-items: center; margin-top: -40px;""><img src=""images/pattern_4.png"" style=""width: 234px; height: 230px; margin-top: -50px;""><div style=""display: flex; justify-content: space-between; margin-top: 33px;""><img src=""images/choice_trial_7.png"" style=""width: 408px; height: 417px; margin-right: 608px;""></div></div>",,delaylearn,learning,display_response,JaiusMIRzJWjj6UpHNFAm3MU87l2,JaiusMIRzJWjj6UpHNFAm3MU87l2,,,,,,,,,,,,,,,,,chosen stimuli: images/choice_trial_7.png,,,,,60fd2a117181bc22b970997d,09:06:26,27/02/2024
html-keyboard-response,108,241597,0.0-46.0-2.0,,,,delaylearn,learning,feedback_duration_window,JaiusMIRzJWjj6UpHNFAm3MU87l2,JaiusMIRzJWjj6UpHNFAm3MU87l2,,,,,,,,,,,,,,,,,,7000.0,,,,60fd2a117181bc22b970997d,09:06:26,27/02/2024
html-keyboard-response,109,243107,0.0-46.0-3.0,,<div style='margin:auto;width: auto; font-size: 150%'><span style='font-weight: bold; font-size: 100px; color: green;'>+10 points!</span><br><br></div>,,delaylearn,learning,feedback_image_window,JaiusMIRzJWjj6UpHNFAm3MU87l2,JaiusMIRzJWjj6UpHNFAm3MU87l2,,,,,,,,,,,,,,,,,,,,,,60fd2a117181bc22b970997d,09:06:26,27/02/2024
html-keyboard-response,110,243609,0.0-47.0-0.0,,,,,,mood_trial_fixation,JaiusMIRzJWjj6UpHNFAm3MU87l2,,,,,,,,,,,,,,,,,,,,,,,60fd2a117181bc22b970997d,09:06:26,27/02/2024
lmdlab-html-vas-response,111,249369,0.0-47.0-1.0,4758.0,How happy are you right now?,0.5185185185185185,delaylearn,learning,mood_trial,JaiusMIRzJWjj6UpHNFAm3MU87l2,JaiusMIRzJWjj6UpHNFAm3MU87l2,,,,,,,,,,,,,,,,,,,,"['Very unhappy', 'Very happy']",,60fd2a117181bc22b970997d,09:06:26,27/02/2024
html-keyboard-response,112,251763,0.0-48.0,,"<div style=""font-size:100px;"">+</div>",,delaylearn,learning,ITI,JaiusMIRzJWjj6UpHNFAm3MU87l2,JaiusMIRzJWjj6UpHNFAm3MU87l2,,,,,,,,,,,,,,,,,,,2388.0,,,60fd2a117181bc22b970997d,09:06:26,27/02/2024
html-keyboard-response,113,253947,0.0-49.0-0.0,2182.6999999999534,"<div style=""display: flex; flex-direction: column; align-items: center; margin-top: -40px;""><img src=""images/pattern_7.png"" style=""width: 234px; height: 230px; margin-top: -50px;""><div style=""display: flex; justify-content: space-between; margin-top: 33px;""><img src=""images/choice_trial_14.png"" style=""width: 408px; height: 417px; margin-right: 200px;""><img src=""images/choice_trial_13.png"" style=""width: 408px; height: 417px;""></div></div>",j,delaylearn,learning,trial,JaiusMIRzJWjj6UpHNFAm3MU87l2,JaiusMIRzJWjj6UpHNFAm3MU87l2,1.0,images/choice_trial_14.png,images/choice_trial_13.png,images/pattern_7.png,j,j,750.0,14.0,13.0,6.0,1.0,21.0,1.0,1.0,13.0,140.0,,,,,,60fd2a117181bc22b970997d,09:06:26,27/02/2024
html-keyboard-response,114,254950,0.0-49.0-1.0,,"<div style=""display: flex; flex-direction: column; align-items: center; margin-top: -40px;""><img src=""images/pattern_7.png"" style=""width: 234px; height: 230px; margin-top: -50px;""><div style=""display: flex; justify-content: space-between; margin-top: 33px;""><img src=""images/choice_trial_13.png"" style=""width: 408px; height: 417px; margin-left:608px;""></div></div>",,delaylearn,learning,display_response,JaiusMIRzJWjj6UpHNFAm3MU87l2,JaiusMIRzJWjj6UpHNFAm3MU87l2,,,,,,,,,,,,,,,,,chosen stimuli: images/choice_trial_13.png,,,,,60fd2a117181bc22b970997d,09:06:26,27/02/2024
html-keyboard-response,115,255705,0.0-49.0-2.0,,,,delaylearn,learning,feedback_duration_window,JaiusMIRzJWjj6UpHNFAm3MU87l2,JaiusMIRzJWjj6UpHNFAm3MU87l2,,,,,,,,,,,,,,,,,,750.0,,,,60fd2a117181bc22b970997d,09:06:26,27/02/2024
html-keyboard-response,116,257217,0.0-49.0-3.0,,<div style='margin:auto;width: auto; font-size: 150%'><span style='font-weight: bold; font-size: 100px; color: green;'>+10 points!</span><br><br></div>,,delaylearn,learning,feedback_image_window,JaiusMIRzJWjj6UpHNFAm3MU87l2,JaiusMIRzJWjj6UpHNFAm3MU87l2,,,,,,,,,,,,,,,,,,,,,,60fd2a117181bc22b970997d,09:06:26,27/02/2024
html-keyboard-response,117,258998,0.0-50.0,,"<div style=""font-size:100px;"">+</div>",,delaylearn,learning,ITI,JaiusMIRzJWjj6UpHNFAm3MU87l2,JaiusMIRzJWjj6UpHNFAm3MU87l2,,,,,,,,,,,,,,,,,,,1777.0,,,60fd2a117181bc22b970997d,09:06:26,27/02/2024
html-keyboard-response,118,261717,0.0-51.0-0.0,2718.7999999998137,"<div style=""display: flex; flex-direction: column; align-items: center; margin-top: -40px;""><img src=""images/pattern_1.png"" style=""width: 234px; height: 230px; margin-top: -50px;""><div style=""display: flex; justify-content: space-between; margin-top: 33px;""><img src=""images/choice_trial_2.png"" style=""width: 408px; height: 417px; margin-right: 200px;""><img src=""images/choice_trial_1.png"" style=""width: 408px; height: 417px;""></div></div>",f,delaylearn,learning,trial,JaiusMIRzJWjj6UpHNFAm3MU87l2,JaiusMIRzJWjj6UpHNFAm3MU87l2,1.0,images/choice_trial_2.png,images/choice_trial_1.png,images/pattern_1.png,f,j,7000.0,2.0,1.0,1.0,1.0,22.0,0.0,1.0,2.0,150.0,,,,,,60fd2a117181bc22b970997d,09:06:26,27/02/2024
html-keyboard-response,119,262727,0.0-51.0-1.0,,"<div style=""display: flex; flex-direction: column; align-items: center; margin-top: -40px;""><img src=""images/pattern_1.png"" style=""width: 234px; height: 230px; margin-top: -50px;""><div style=""display: flex; justify-content: space-between; margin-top: 33px;""><img src=""images/choice_trial_2.png"" style=""width: 408px; height: 417px; margin-right: 608px;""></div></div>",,delaylearn,learning,display_response,JaiusMIRzJWjj6UpHNFAm3MU87l2,JaiusMIRzJWjj6UpHNFAm3MU87l2,,,,,,,,,,,,,,,,,chosen stimuli: images/choice_trial_2.png,,,,,60fd2a117181bc22b970997d,09:06:26,27/02/2024
html-keyboard-response,120,269738,0.0-51.0-2.0,,,,delaylearn,learning,feedback_duration_window,JaiusMIRzJWjj6UpHNFAm3MU87l2,JaiusMIRzJWjj6UpHNFAm3MU87l2,,,,,,,,,,,,,,,,,,7000.0,,,,60fd2a117181bc22b970997d,09:06:26,27/02/2024
html-keyboard-response,121,271245,0.0-51.0-3.0,,<div style='margin:auto;width: auto; font-size: 150%'><span style='font-weight: bold; font-size: 100px; color: green;'>+10 points!</span><br><br></div>,,delaylearn,learning,feedback_image_window,JaiusMIRzJWjj6UpHNFAm3MU87l2,JaiusMIRzJWjj6UpHNFAm3MU87l2,,,,,,,,,,,,,,,,,,,,,,60fd2a117181bc22b970997d,09:06:26,27/02/2024
html-keyboard-response,122,273703,0.0-52.0,,"<div style=""font-size:100px;"">+</div>",,delaylearn,learning,ITI,JaiusMIRzJWjj6UpHNFAm3MU87l2,JaiusMIRzJWjj6UpHNFAm3MU87l2,,,,,,,,,,,,,,,,,,,2443.0,,,60fd2a117181bc22b970997d,09:06:26,27/02/2024
html-keyboard-response,123,276457,0.0-53.0-0.0,2753.2999999998137,"<div style=""display: flex; flex-direction: column; align-items: center; margin-top: -40px;""><img src=""images/pattern_5.png"" style=""width: 234px; height: 230px; margin-top: -50px;""><div style=""display: flex; justify-content: space-between; margin-top: 33px;""><img src=""images/choice_trial_10.png"" style=""width: 408px; height: 417px; margin-right: 200px;""><img src=""images/choice_trial_9.png"" style=""width: 408px; height: 417px;""></div></div>",j,delaylearn,learning,trial,JaiusMIRzJWjj6UpHNFAm3MU87l2,JaiusMIRzJWjj6UpHNFAm3MU87l2,1.0,images/choice_trial_10.png,images/choice_trial_9.png,images/pattern_5.png,j,j,750.0,10.0,9.0,4.0,1.0,23.0,1.0,1.0,9.0,160.0,,,,,,60fd2a117181bc22b970997d,09:06:26,27/02/2024
html-keyboard-response,124,277462,0.0-53.0-1.0,,"<div style=""display: flex; flex-direction: column; align-items: center; margin-top: -40px;""><img src=""images/pattern_5.png"" style=""width: 234px; height: 230px; margin-top: -50px;""><div style=""display: flex; justify-content: space-between; margin-top: 33px;""><img src=""images/choice_trial_9.png"" style=""width: 408px; height: 417px; margin-left:608px;""></div></div>",,delaylearn,learning,display_response,JaiusMIRzJWjj6UpHNFAm3MU87l2,JaiusMIRzJWjj6UpHNFAm3MU87l2,,,,,,,,,,,,,,,,,chosen stimuli: images/choice_trial_9.png,,,,,60fd2a117181bc22b970997d,09:06:26,27/02/2024
html-keyboard-response,125,278216,0.0-53.0-2.0,,,,delaylearn,learning,feedback_duration_window,JaiusMIRzJWjj6UpHNFAm3MU87l2,JaiusMIRzJWjj6UpHNFAm3MU87l2,,,,,,,,,,,,,,,,,,750.0,,,,60fd2a117181bc22b970997d,09:06:26,27/02/2024
html-keyboard-response,126,279718,0.0-53.0-3.0,,<div style='margin:auto;width: auto; font-size: 150%'><span style='font-weight: bold; font-size: 100px; color: green;'>+10 points!</span><br><br></div>,,delaylearn,learning,feedback_image_window,JaiusMIRzJWjj6UpHNFAm3MU87l2,JaiusMIRzJWjj6UpHNFAm3MU87l2,,,,,,,,,,,,,,,,,,,,,,60fd2a117181bc22b970997d,09:06:26,27/02/2024
html-keyboard-response,127,281291,0.0-54.0,,"<div style=""font-size:100px;"">+</div>",,delaylearn,learning,ITI,JaiusMIRzJWjj6UpHNFAm3MU87l2,JaiusMIRzJWjj6UpHNFAm3MU87l2,,,,,,,,,,,,,,,,,,,1565.0,,,60fd2a117181bc22b970997d,09:06:26,27/02/2024
html-keyboard-response,128,283497,0.0-55.0-0.0,2205.5999999998603,"<div style=""display: flex; flex-direction: column; align-items: center; margin-top: -40px;""><img src=""images/pattern_3.png"" style=""width: 234px; height: 230px; margin-top: -50px;""><div style=""display: flex; justify-content: space-between; margin-top: 33px;""><img src=""images/choice_trial_6.png"" style=""width: 408px; height: 417px; margin-right: 200px;""><img src=""images/choice_trial_5.png"" style=""width: 408px; height: 417px;""></div></div>",j,delaylearn,learning,trial,JaiusMIRzJWjj6UpHNFAm3MU87l2,JaiusMIRzJWjj6UpHNFAm3MU87l2,1.0,images/choice_trial_6.png,images/choice_trial_5.png,images/pattern_3.png,j,j,7000.0,6.0,5.0,2.0,1.0,24.0,1.0,1.0,5.0,170.0,,,,,,60fd2a117181bc22b970997d,09:06:26,27/02/2024
html-keyboard-response,129,284503,0.0-55.0-1.0,,"<div style=""display: flex; flex-direction: column; align-items: center; margin-top: -40px;""><img src=""images/pattern_3.png"" style=""width: 234px; height: 230px; margin-top: -50px;""><div style=""display: flex; justify-content: space-between; margin-top: 33px;""><img src=""images/choice_trial_5.png"" style=""width: 408px; height: 417px; margin-left:608px;""></div></div>",,delaylearn,learning,display_response,JaiusMIRzJWjj6UpHNFAm3MU87l2,JaiusMIRzJWjj6UpHNFAm3MU87l2,,,,,,,,,,,,,,,,,chosen stimuli: images/choice_trial_5.png,,,,,60fd2a117181bc22b970997d,09:06:26,27/02/2024
html-keyboard-response,130,291517,0.0-55.0-2.0,,,,delaylearn,learning,feedback_duration_window,JaiusMIRzJWjj6UpHNFAm3MU87l2,JaiusMIRzJWjj6UpHNFAm3MU87l2,,,,,,,,,,,,,,,,,,7000.0,,,,60fd2a117181bc22b970997d,09:06:26,27/02/2024
html-keyboard-response,131,293021,0.0-55.0-3.0,,<div style='margin:auto;width: auto; font-size: 150%'><span style='font-weight: bold; font-size: 100px; color: green;'>+10 points!</span><br><br></div>,,delaylearn,learning,feedback_image_window,JaiusMIRzJWjj6UpHNFAm3MU87l2,JaiusMIRzJWjj6UpHNFAm3MU87l2,,,,,,,,,,,,,,,,,,,,,,60fd2a117181bc22b970997d,09:06:26,27/02/2024
lmdlab-html-vas-response,132,301602,0.0-56.0-0.0,7072.0,*How <b><u>confident</u></b> are you feeling about your answers at this moment?*,0.3101851851851852,rewlearn,rate_confidence,,JaiusMIRzJWjj6UpHNFAm3MU87l2,JaiusMIRzJWjj6UpHNFAm3MU87l2,,,,,,,,,,,,,,,,,,,,"['No confidence', 'Complete confidence']",,60fd2a117181bc22b970997d,09:06:26,27/02/2024
lmdlab-rest-trial-limit,133,327368,0.0-56.0-1.0,24254.800000000047,"<div style=""font-size:40px;""><b>Please take a break!</b><br><br><br><br><p>Great work: you earned undefined points.<br><br><br><p>You have completed part(s) 1 of 6.<br><br><br><br>When you are ready to continue<br><br><br>please click the button.</p><br><br>",0,delaylearn,learning,break,JaiusMIRzJWjj6UpHNFAm3MU87l2,JaiusMIRzJWjj6UpHNFAm3MU87l2,,,,,,,,,,,,,,,,,,,,,0.0,60fd2a117181bc22b970997d,09:06:26,27/02/2024
html-keyboard-response,134,330374,0.0-56.0-2.0,,"<div style=""font-size:100px;"">+</div>",,delaylearn,learning,pre_fixation,JaiusMIRzJWjj6UpHNFAm3MU87l2,,,,,,,,,,,,,,,,,,,,,,,60fd2a117181bc22b970997d,09:06:26,27/02/2024
lmdlab-html-vas-response,135,335443,0.0-56.0-3.0-0.0,4052.0,How happy are you right now?,0.5200617283950617,delaylearn,learning,mood_baseline,JaiusMIRzJWjj6UpHNFAm3MU87l2,JaiusMIRzJWjj6UpHNFAm3MU87l2,,,,,,,,,,,,,,,,,,,,"['Very unhappy', 'Very happy']",,60fd2a117181bc22b970997d,09:06:26,27/02/2024
html-keyboard-response,136,336950,0.0-56.0-3.0-1.0,,,,,,mood_baseline_fixation,JaiusMIRzJWjj6UpHNFAm3MU87l2,,,,,,,,,,,,,,,,,,,,,,,60fd2a117181bc22b970997d,09:06:26,27/02/2024
html-keyboard-response,137,339347,0.0-57.0,,"<div style=""font-size:100px;"">+</div>",,delaylearn,learning,ITI,JaiusMIRzJWjj6UpHNFAm3MU87l2,JaiusMIRzJWjj6UpHNFAm3MU87l2,,,,,,,,,,,,,,,,,,,2392.0,,,60fd2a117181bc22b970997d,09:06:26,27/02/2024
html-keyboard-response,138,341548,0.0-58.0-0.0,2200.0999999998603,"<div style=""display: flex; flex-direction: column; align-items: center; margin-top: -40px;""><img src=""images/pattern_7.png"" style=""width: 234px; height: 230px; margin-top: -50px;""><div style=""display: flex; justify-content: space-between; margin-top: 33px;""><img src=""images/choice_trial_14.png"" style=""width: 408px; height: 417px; margin-right: 200px;""><img src=""images/choice_trial_13.png"" style=""width: 408px; height: 417px;""></div></div>",j,delaylearn,learning,trial,JaiusMIRzJWjj6UpHNFAm3MU87l2,JaiusMIRzJWjj6UpHNFAm3MU87l2,1.0,images/choice_trial_14.png,images/choice_trial_13.png,images/pattern_7.png,j,j,750.0,14.0,13.0,6.0,1.0,25.0,1.0,1.0,13.0,180.0,,,,,,60fd2a117181bc22b970997d,09:06:26,27/02/2024
html-keyboard-response,139,342552,0.0-58.0-1.0,,"<div style=""display: flex; flex-direction: column; align-items: center; margin-top: -40px;""><img src=""images/pattern_7.png"" style=""width: 234px; height: 230px; margin-top: -50px;""><div style=""display: flex; justify-content: space-between; margin-top: 33px;""><img src=""images/choice_trial_13.png"" style=""width: 408px; height: 417px; margin-left:608px;""></div></div>",,delaylearn,learning,display_response,JaiusMIRzJWjj6UpHNFAm3MU87l2,JaiusMIRzJWjj6UpHNFAm3MU87l2,,,,,,,,,,,,,,,,,chosen stimuli: images/choice_trial_13.png,,,,,60fd2a117181bc22b970997d,09:06:26,27/02/2024
html-keyboard-response,140,343306,0.0-58.0-2.0,,,,delaylearn,learning,feedback_duration_window,JaiusMIRzJWjj6UpHNFAm3MU87l2,JaiusMIRzJWjj6UpHNFAm3MU87l2,,,,,,,,,,,,,,,,,,750.0,,,,60fd2a117181bc22b970997d,09:06:26,27/02/2024
html-keyboard-response,141,344816,0.0-58.0-3.0,,<div style='margin:auto;width: auto; font-size: 150%'><span style='font-weight: bold; font-size: 100px; color: green;'>+10 points!</span><br><br></div>,,delaylearn,learning,feedback_image_window,JaiusMIRzJWjj6UpHNFAm3MU87l2,JaiusMIRzJWjj6UpHNFAm3MU87l2,,,,,,,,,,,,,,,,,,,,,,60fd2a117181bc22b970997d,09:06:26,27/02/2024
html-keyboard-response,142,345317,0.0-59.0-0.0,,,,,,mood_trial_fixation,JaiusMIRzJWjj6UpHNFAm3MU87l2,,,,,,,,,,,,,,,,,,,,,,,60fd2a117181bc22b970997d,09:06:26,27/02/2024
lmdlab-html-vas-response,143,349879,0.0-59.0-1.0,3555.0,How happy are you right now?,0.5185185185185185,delaylearn,learning,mood_trial,JaiusMIRzJWjj6UpHNFAm3MU87l2,JaiusMIRzJWjj6UpHNFAm3MU87l2,,,,,,,,,,,,,,,,,,,,"['Very unhappy', 'Very happy']",,60fd2a117181bc22b970997d,09:06:26,27/02/2024
html-keyboard-response,144,351820,0.0-60.0,,"<div style=""font-size:100px;"">+</div>",,delaylearn,learning,ITI,JaiusMIRzJWjj6UpHNFAm3MU87l2,JaiusMIRzJWjj6UpHNFAm3MU87l2,,,,,,,,,,,,,,,,,,,1927.0,,,60fd2a117181bc22b970997d,09:06:26,27/02/2024
html-keyboard-response,145,353528,0.0-61.0-0.0,1706.8000000000466,"<div style=""display: flex; flex-direction: column; align-items: center; margin-top: -40px;""><img src=""images/pattern_1.png"" style=""width: 234px; height: 230px; margin-top: -50px;""><div style=""display: flex; justify-content: space-between; margin-top: 33px;""><img src=""images/choice_trial_1.png"" style=""width: 408px; height: 417px; margin-right: 200px;""><img src=""images/choice_trial_2.png"" style=""width: 408px; height: 417px;""></div></div>",j,delaylearn,learning,trial,JaiusMIRzJWjj6UpHNFAm3MU87l2,JaiusMIRzJWjj6UpHNFAm3MU87l2,1.0,images/choice_trial_1.png,images/choice_trial_2.png,images/pattern_1.png,f,f,7000.0,1.0,2.0,1.0,0.0,26.0,0.0,0.0,2.0,180.0,,,,,,60fd2a117181bc22b970997d,09:06:26,27/02/2024
html-keyboard-response,146,354544,0.0-61.0-1.0,,"<div style=""display: flex; flex-direction: column; align-items: center; margin-top: -40px;""><img src=""images/pattern_1.png"" style=""width: 234px; height: 230px; margin-top: -50px;""><div style=""display: flex; justify-content: space-between; margin-top: 33px;""><img src=""images/choice_trial_2.png"" style=""width: 408px; height: 417px; margin-left:608px;""></div></div>",,delaylearn,learning,display_response,JaiusMIRzJWjj6UpHNFAm3MU87l2,JaiusMIRzJWjj6UpHNFAm3MU87l2,,,,,,,,,,,,,,,,,chosen stimuli: images/choice_trial_2.png,,,,,60fd2a117181bc22b970997d,09:06:26,27/02/2024
html-keyboard-response,147,361557,0.0-61.0-2.0,,,,delaylearn,learning,feedback_duration_window,JaiusMIRzJWjj6UpHNFAm3MU87l2,JaiusMIRzJWjj6UpHNFAm3MU87l2,,,,,,,,,,,,,,,,,,7000.0,,,,60fd2a117181bc22b970997d,09:06:26,27/02/2024
html-keyboard-response,148,363070,0.0-61.0-3.0,,<div style='margin:auto;width: auto; font-size: 150%'><span style='font-weight: bold; font-size: 100px; color: red;'>0 points!</span><br><br></div>,,delaylearn,learning,feedback_image_window,JaiusMIRzJWjj6UpHNFAm3MU87l2,JaiusMIRzJWjj6UpHNFAm3MU87l2,,,,,,,,,,,,,,,,,,,,,,60fd2a117181bc22b970997d,09:06:26,27/02/2024
html-keyboard-response,149,364770,0.0-62.0,,"<div style=""font-size:100px;"">+</div>",,delaylearn,learning,ITI,JaiusMIRzJWjj6UpHNFAm3MU87l2,JaiusMIRzJWjj6UpHNFAm3MU87l2,,,,,,,,,,,,,,,,,,,1687.0,,,60fd2a117181bc22b970997d,09:06:26,27/02/2024
html-keyboard-response,150,367298,0.0-63.0-0.0,2527.0,"<div style=""display: flex; flex-direction: column; align-items: center; margin-top: -40px;""><img src=""images/pattern_5.png"" style=""width: 234px; height: 230px; margin-top: -50px;""><div style=""display: flex; justify-content: space-between; margin-top: 33px;""><img src=""images/choice_trial_9.png"" style=""width: 408px; height: 417px; margin-right: 200px;""><img src=""images/choice_trial_10.png"" style=""width: 408px; height: 417px;""></div></div>",f,delaylearn,learning,trial,JaiusMIRzJWjj6UpHNFAm3MU87l2,JaiusMIRzJWjj6UpHNFAm3MU87l2,1.0,images/choice_trial_9.png,images/choice_trial_10.png,images/pattern_5.png,f,f,750.0,9.0,10.0,4.0,0.0,27.0,1.0,1.0,9.0,190.0,,,,,,60fd2a117181bc22b970997d,09:06:26,27/02/2024
html-keyboard-response,151,368310,0.0-63.0-1.0,,"<div style=""display: flex; flex-direction: column; align-items: center; margin-top: -40px;""><img src=""images/pattern_5.png"" style=""width: 234px; height: 230px; margin-top: -50px;""><div style=""display: flex; justify-content: space-between; margin-top: 33px;""><img src=""images/choice_trial_9.png"" style=""width: 408px; height: 417px; margin-right: 608px;""></div></div>",,delaylearn,learning,display_response,JaiusMIRzJWjj6UpHNFAm3MU87l2,JaiusMIRzJWjj6UpHNFAm3MU87l2,,,,,,,,,,,,,,,,,chosen stimuli: images/choice_trial_9.png,,,,,60fd2a117181bc22b970997d,09:06:26,27/02/2024
html-keyboard-response,152,369065,0.0-63.0-2.0,,,,delaylearn,learning,feedback_duration_window,JaiusMIRzJWjj6UpHNFAm3MU87l2,JaiusMIRzJWjj6UpHNFAm3MU87l2,,,,,,,,,,,,,,,,,,750.0,,,,60fd2a117181bc22b970997d,09:06:26,27/02/2024
html-keyboard-response,153,370580,0.0-63.0-3.0,,<div style='margin:auto;width: auto; font-size: 150%'><span style='font-weight: bold; font-size: 100px; color: green;'>+10 points!</span><br><br></div>,,delaylearn,learning,feedback_image_window,JaiusMIRzJWjj6UpHNFAm3MU87l2,JaiusMIRzJWjj6UpHNFAm3MU87l2,,,,,,,,,,,,,,,,,,,,,,60fd2a117181bc22b970997d,09:06:26,27/02/2024
html-keyboard-response,154,372531,0.0-64.0,,"<div style=""font-size:100px;"">+</div>",,delaylearn,learning,ITI,JaiusMIRzJWjj6UpHNFAm3MU87l2,JaiusMIRzJWjj6UpHNFAm3MU87l2,,,,,,,,,,,,,,,,,,,1940.0,,,60fd2a117181bc22b970997d,09:06:26,27/02/2024
html-keyboard-response,155,375058,0.0-65.0-0.0,2525.399999999907,"<div style=""display: flex; flex-direction: column; align-items: center; margin-top: -40px;""><img src=""images/pattern_6.png"" style=""width: 234px; height: 230px; margin-top: -50px;""><div style=""display: flex; justify-content: space-between; margin-top: 33px;""><img src=""images/choice_trial_12.png"" style=""width: 408px; height: 417px; margin-right: 200px;""><img src=""images/choice_trial_11.png"" style=""width: 408px; height: 417px;""></div></div>",j,delaylearn,learning,trial,JaiusMIRzJWjj6UpHNFAm3MU87l2,JaiusMIRzJWjj6UpHNFAm3MU87l2,1.0,images/choice_trial_12.png,images/choice_trial_11.png,images/pattern_6.png,j,j,750.0,12.0,11.0,5.0,1.0,28.0,1.0,1.0,11.0,200.0,,,,,,60fd2a117181bc22b970997d,09:06:26,27/02/2024
html-keyboard-response,156,376066,0.0-65.0-1.0,,"<div style=""display: flex; flex-direction: column; align-items: center; margin-top: -40px;""><img src=""images/pattern_6.png"" style=""width: 234px; height: 230px; margin-top: -50px;""><div style=""display: flex; justify-content: space-between; margin-top: 33px;""><img src=""images/choice_trial_11.png"" style=""width: 408px; height: 417px; margin-left:608px;""></div></div>",,delaylearn,learning,display_response,JaiusMIRzJWjj6UpHNFAm3MU87l2,JaiusMIRzJWjj6UpHNFAm3MU87l2,,,,,,,,,,,,,,,,,chosen stimuli: images/choice_trial_11.png,,,,,60fd2a117181bc22b970997d,09:06:26,27/02/2024
html-keyboard-response,157,376830,0.0-65.0-2.0,,,,delaylearn,learning,feedback_duration_window,JaiusMIRzJWjj6UpHNFAm3MU87l2,JaiusMIRzJWjj6UpHNFAm3MU87l2,,,,,,,,,,,,,,,,,,750.0,,,,60fd2a117181bc22b970997d,09:06:26,27/02/2024
html-keyboard-response,158,378347,0.0-65.0-3.0,,<div style='margin:auto;width: auto; font-size: 150%'><span style='font-weight: bold; font-size: 100px; color: green;'>+10 points!</span><br><br></div>,,delaylearn,learning,feedback_image_window,JaiusMIRzJWjj6UpHNFAm3MU87l2,JaiusMIRzJWjj6UpHNFAm3MU87l2,,,,,,,,,,,,,,,,,,,,,,60fd2a117181bc22b970997d,09:06:26,27/02/2024
html-keyboard-response,159,378848,0.0-66.0-0.0,,,,,,mood_trial_fixation,JaiusMIRzJWjj6UpHNFAm3MU87l2,,,,,,,,,,,,,,,,,,,,,,,60fd2a117181bc22b970997d,09:06:26,27/02/2024
lmdlab-html-vas-response,160,384688,0.0-66.0-1.0,4832.0,How happy are you right now?,0.5833333333333334,delaylearn,learning,mood_trial,JaiusMIRzJWjj6UpHNFAm3MU87l2,JaiusMIRzJWjj6UpHNFAm3MU87l2,,,,,,,,,,,,,,,,,,,,"['Very unhappy', 'Very happy']",,60fd2a117181bc22b970997d,09:06:26,27/02/2024
html-keyboard-response,161,386621,0.0-67.0,,"<div style=""font-size:100px;"">+</div>",,delaylearn,learning,ITI,JaiusMIRzJWjj6UpHNFAm3MU87l2,JaiusMIRzJWjj6UpHNFAm3MU87l2,,,,,,,,,,,,,,,,,,,1925.0,,,60fd2a117181bc22b970997d,09:06:26,27/02/2024
html-keyboard-response,162,388837,0.0-68.0-0.0,2215.3000000000466,"<div style=""display: flex; flex-direction: column; align-items: center; margin-top: -40px;""><img src=""images/pattern_4.png"" style=""width: 234px; height: 230px; margin-top: -50px;""><div style=""display: flex; justify-content: space-between; margin-top: 33px;""><img src=""images/choice_trial_8.png"" style=""width: 408px; height: 417px; margin-right: 200px;""><img src=""images/choice_trial_7.png"" style=""width: 408px; height: 417px;""></div></div>",j,delaylearn,learning,trial,JaiusMIRzJWjj6UpHNFAm3MU87l2,JaiusMIRzJWjj6UpHNFAm3MU87l2,1.0,images/choice_trial_8.png,images/choice_trial_7.png,images/pattern_4.png,j,j,7000.0,8.0,7.0,3.0,1.0,29.0,1.0,1.0,7.0,210.0,,,,,,60fd2a117181bc22b970997d,09:06:26,27/02/2024
html-keyboard-response,163,389843,0.0-68.0-1.0,,"<div style=""display: flex; flex-direction: column; align-items: center; margin-top: -40px;""><img src=""images/pattern_4.png"" style=""width: 234px; height: 230px; margin-top: -50px;""><div style=""display: flex; justify-content: space-between; margin-top: 33px;""><img src=""images/choice_trial_7.png"" style=""width: 408px; height: 417px; margin-left:608px;""></div></div>",,delaylearn,learning,display_response,JaiusMIRzJWjj6UpHNFAm3MU87l2,JaiusMIRzJWjj6UpHNFAm3MU87l2,,,,,,,,,,,,,,,,,chosen stimuli: images/choice_trial_7.png,,,,,60fd2a117181bc22b970997d,09:06:26,27/02/2024
html-keyboard-response,164,396846,0.0-68.0-2.0,,,,delaylearn,learning,feedback_duration_window,JaiusMIRzJWjj6UpHNFAm3MU87l2,JaiusMIRzJWjj6UpHNFAm3MU87l2,,,,,,,,,,,,,,,,,,7000.0,,,,60fd2a117181bc22b970997d,09:06:26,27/02/2024
html-keyboard-response,165,398362,0.0-68.0-3.0,,<div style='margin:auto;width: auto; font-size: 150%'><span style='font-weight: bold; font-size: 100px; color: green;'>+10 points!</span><br><br></div>,,delaylearn,learning,feedback_image_window,JaiusMIRzJWjj6UpHNFAm3MU87l2,JaiusMIRzJWjj6UpHNFAm3MU87l2,,,,,,,,,,,,,,,,,,,,,,60fd2a117181bc22b970997d,09:06:26,27/02/2024
html-keyboard-response,166,399885,0.0-69.0,,"<div style=""font-size:100px;"">+</div>",,delaylearn,learning,ITI,JaiusMIRzJWjj6UpHNFAm3MU87l2,JaiusMIRzJWjj6UpHNFAm3MU87l2,,,,,,,,,,,,,,,,,,,1521.0,,,60fd2a117181bc22b970997d,09:06:26,27/02/2024
html-keyboard-response,167,401797,0.0-70.0-0.0,1911.5999999998603,"<div style=""display: flex; flex-direction: column; align-items: center; margin-top: -40px;""><img src=""images/pattern_3.png"" style=""width: 234px; height: 230px; margin-top: -50px;""><div style=""display: flex; justify-content: space-between; margin-top: 33px;""><img src=""images/choice_trial_6.png"" style=""width: 408px; height: 417px; margin-right: 200px;""><img src=""images/choice_trial_5.png"" style=""width: 408px; height: 417px;""></div></div>",j,delaylearn,learning,trial,JaiusMIRzJWjj6UpHNFAm3MU87l2,JaiusMIRzJWjj6UpHNFAm3MU87l2,1.0,images/choice_trial_6.png,images/choice_trial_5.png,images/pattern_3.png,j,j,7000.0,6.0,5.0,2.0,1.0,30.0,1.0,1.0,5.0,220.0,,,,,,60fd2a117181bc22b970997d,09:06:26,27/02/2024
html-keyboard-response,168,402813,0.0-70.0-1.0,,"<div style=""display: flex; flex-direction: column; align-items: center; margin-top: -40px;""><img src=""images/pattern_3.png"" style=""width: 234px; height: 230px; margin-top: -50px;""><div style=""display: flex; justify-content: space-between; margin-top: 33px;""><img src=""images/choice_trial_5.png"" style=""width: 408px; height: 417px; margin-left:608px;""></div></div>",,delaylearn,learning,display_response,JaiusMIRzJWjj6UpHNFAm3MU87l2,JaiusMIRzJWjj6UpHNFAm3MU87l2,,,,,,,,,,,,,,,,,chosen stimuli: images/choice_trial_5.png,,,,,60fd2a117181bc22b970997d,09:06:26,27/02/2024
html-keyboard-response,169,409824,0.0-70.0-2.0,,,,delaylearn,learning,feedback_duration_window,JaiusMIRzJWjj6UpHNFAm3MU87l2,JaiusMIRzJWjj6UpHNFAm3MU87l2,,,,,,,,,,,,,,,,,,7000.0,,,,60fd2a117181bc22b970997d,09:06:26,27/02/2024
html-keyboard-response,170,411339,0.0-70.0-3.0,,<div style='margin:auto;width: auto; font-size: 150%'><span style='font-weight: bold; font-size: 100px; color: green;'>+10 points!</span><br><br></div>,,delaylearn,learning,feedback_image_window,JaiusMIRzJWjj6UpHNFAm3MU87l2,JaiusMIRzJWjj6UpHNFAm3MU87l2,,,,,,,,,,,,,,,,,,,,,,60fd2a117181bc22b970997d,09:06:26,27/02/2024
html-keyboard-response,171,413079,0.0-71.0,,"<div style=""font-size:100px;"">+</div>",,delaylearn,learning,ITI,JaiusMIRzJWjj6UpHNFAm3MU87l2,JaiusMIRzJWjj6UpHNFAm3MU87l2,,,,,,,,,,,,,,,,,,,1735.0,,,60fd2a117181bc22b970997d,09:06:26,27/02/2024
html-keyboard-response,172,414807,0.0-72.0-0.0,1726.8000000000466,"<div style=""display: flex; flex-direction: column; align-items: center; margin-top: -40px;""><img src=""images/pattern_5.png"" style=""width: 234px; height: 230px; margin-top: -50px;""><div style=""display: flex; justify-content: space-between; margin-top: 33px;""><img src=""images/choice_trial_9.png"" style=""width: 408px; height: 417px; margin-right: 200px;""><img src=""images/choice_trial_10.png"" style=""width: 408px; height: 417px;""></div></div>",f,delaylearn,learning,trial,JaiusMIRzJWjj6UpHNFAm3MU87l2,JaiusMIRzJWjj6UpHNFAm3MU87l2,1.0,images/choice_trial_9.png,images/choice_trial_10.png,images/pattern_5.png,j,f,750.0,9.0,10.0,4.0,0.0,31.0,1.0,0.0,9.0,220.0,,,,,,60fd2a117181bc22b970997d,09:06:26,27/02/2024
html-keyboard-response,173,415822,0.0-72.0-1.0,,"<div style=""display: flex; flex-direction: column; align-items: center; margin-top: -40px;""><img src=""images/pattern_5.png"" style=""width: 234px; height: 230px; margin-top: -50px;""><div style=""display: flex; justify-content: space-between; margin-top: 33px;""><img src=""images/choice_trial_9.png"" style=""width: 408px; height: 417px; margin-right: 608px;""></div></div>",,delaylearn,learning,display_response,JaiusMIRzJWjj6UpHNFAm3MU87l2,JaiusMIRzJWjj6UpHNFAm3MU87l2,,,,,,,,,,,,,,,,,chosen stimuli: images/choice_trial_9.png,,,,,60fd2a117181bc22b970997d,09:06:26,27/02/2024
html-keyboard-response,174,416588,0.0-72.0-2.0,,,,delaylearn,learning,feedback_duration_window,JaiusMIRzJWjj6UpHNFAm3MU87l2,JaiusMIRzJWjj6UpHNFAm3MU87l2,,,,,,,,,,,,,,,,,,750.0,,,,60fd2a117181bc22b970997d,09:06:26,27/02/2024
html-keyboard-response,175,418092,0.0-72.0-3.0,,<div style='margin:auto;width: auto; font-size: 150%'><span style='font-weight: bold; font-size: 100px; color: red;'>0 points!</span><br><br></div>,,delaylearn,learning,feedback_image_window,JaiusMIRzJWjj6UpHNFAm3MU87l2,JaiusMIRzJWjj6UpHNFAm3MU87l2,,,,,,,,,,,,,,,,,,,,,,60fd2a117181bc22b970997d,09:06:26,27/02/2024
html-keyboard-response,176,419965,0.0-73.0,,"<div style=""font-size:100px;"">+</div>",,delaylearn,learning,ITI,JaiusMIRzJWjj6UpHNFAm3MU87l2,JaiusMIRzJWjj6UpHNFAm3MU87l2,,,,,,,,,,,,,,,,,,,1863.0,,,60fd2a117181bc22b970997d,09:06:26,27/02/2024
html-keyboard-response,177,421987,0.0-74.0-0.0,2021.0,"<div style=""display: flex; flex-direction: column; align-items: center; margin-top: -40px;""><img src=""images/pattern_1.png"" style=""width: 234px; height: 230px; margin-top: -50px;""><div style=""display: flex; justify-content: space-between; margin-top: 33px;""><img src=""images/choice_trial_1.png"" style=""width: 408px; height: 417px; margin-right: 200px;""><img src=""images/choice_trial_2.png"" style=""width: 408px; height: 417px;""></div></div>",j,delaylearn,learning,trial,JaiusMIRzJWjj6UpHNFAm3MU87l2,JaiusMIRzJWjj6UpHNFAm3MU87l2,1.0,images/choice_trial_1.png,images/choice_trial_2.png,images/pattern_1.png,f,f,7000.0,1.0,2.0,1.0,0.0,32.0,0.0,0.0,2.0,220.0,,,,,,60fd2a117181bc22b970997d,09:06:26,27/02/2024
html-keyboard-response,178,422992,0.0-74.0-1.0,,"<div style=""display: flex; flex-direction: column; align-items: center; margin-top: -40px;""><img src=""images/pattern_1.png"" style=""width: 234px; height: 230px; margin-top: -50px;""><div style=""display: flex; justify-content: space-between; margin-top: 33px;""><img src=""images/choice_trial_2.png"" style=""width: 408px; height: 417px; margin-left:608px;""></div></div>",,delaylearn,learning,display_response,JaiusMIRzJWjj6UpHNFAm3MU87l2,JaiusMIRzJWjj6UpHNFAm3MU87l2,,,,,,,,,,,,,,,,,chosen stimuli: images/choice_trial_2.png,,,,,60fd2a117181bc22b970997d,09:06:26,27/02/2024
html-keyboard-response,179,430000,0.0-74.0-2.0,,,,delaylearn,learning,feedback_duration_window,JaiusMIRzJWjj6UpHNFAm3MU87l2,JaiusMIRzJWjj6UpHNFAm3MU87l2,,,,,,,,,,,,,,,,,,7000.0,,,,60fd2a117181bc22b970997d,09:06:26,27/02/2024
html-keyboard-response,180,431511,0.0-74.0-3.0,,<div style='margin:auto;width: auto; font-size: 150%'><span style='font-weight: bold; font-size: 100px; color: red;'>0 points!</span><br><br></div>,,delaylearn,learning,feedback_image_window,JaiusMIRzJWjj6UpHNFAm3MU87l2,JaiusMIRzJWjj6UpHNFAm3MU87l2,,,,,,,,,,,,,,,,,,,,,,60fd2a117181bc22b970997d,09:06:26,27/02/2024
html-keyboard-response,181,432017,0.0-75.0-0.0,,,,,,mood_trial_fixation,JaiusMIRzJWjj6UpHNFAm3MU87l2,,,,,,,,,,,,,,,,,,,,,,,60fd2a117181bc22b970997d,09:06:26,27/02/2024
lmdlab-html-vas-response,182,436678,0.0-75.0-1.0,3654.0,How happy are you right now?,0.4722222222222222,delaylearn,learning,mood_trial,JaiusMIRzJWjj6UpHNFAm3MU87l2,JaiusMIRzJWjj6UpHNFAm3MU87l2,,,,,,,,,,,,,,,,,,,,"['Very unhappy', 'Very happy']",,60fd2a117181bc22b970997d,09:06:26,27/02/2024
html-keyboard-response,183,438252,0.0-76.0,,"<div style=""font-size:100px;"">+</div>",,delaylearn,learning,ITI,JaiusMIRzJWjj6UpHNFAm3MU87l2,JaiusMIRzJWjj6UpHNFAm3MU87l2,,,,,,,,,,,,,,,,,,,1560.0,,,60fd2a117181bc22b970997d,09:06:26,27/02/2024
html-keyboard-response,184,440617,0.0-77.0-0.0,2364.0,"<div style=""display: flex; flex-direction: column; align-items: center; margin-top: -40px;""><img src=""images/pattern_6.png"" style=""width: 234px; height: 230px; margin-top: -50px;""><div style=""display: flex; justify-content: space-between; margin-top: 33px;""><img src=""images/choice_trial_11.png"" style=""width: 408px; height: 417px; margin-right: 200px;""><img src=""images/choice_trial_12.png"" style=""width: 408px; height: 417px;""></div></div>",f,delaylearn,learning,trial,JaiusMIRzJWjj6UpHNFAm3MU87l2,JaiusMIRzJWjj6UpHNFAm3MU87l2,1.0,images/choice_trial_11.png,images/choice_trial_12.png,images/pattern_6.png,j,f,750.0,11.0,12.0,5.0,0.0,33.0,1.0,0.0,11.0,220.0,,,,,,60fd2a117181bc22b970997d,09:06:26,27/02/2024
html-keyboard-response,185,441623,0.0-77.0-1.0,,"<div style=""display: flex; flex-direction: column; align-items: center; margin-top: -40px;""><img src=""images/pattern_6.png"" style=""width: 234px; height: 230px; margin-top: -50px;""><div style=""display: flex; justify-content: space-between; margin-top: 33px;""><img src=""images/choice_trial_11.png"" style=""width: 408px; height: 417px; margin-right: 608px;""></div></div>",,delaylearn,learning,display_response,JaiusMIRzJWjj6UpHNFAm3MU87l2,JaiusMIRzJWjj6UpHNFAm3MU87l2,,,,,,,,,,,,,,,,,chosen stimuli: images/choice_trial_11.png,,,,,60fd2a117181bc22b970997d,09:06:26,27/02/2024
html-keyboard-response,186,442383,0.0-77.0-2.0,,,,delaylearn,learning,feedback_duration_window,JaiusMIRzJWjj6UpHNFAm3MU87l2,JaiusMIRzJWjj6UpHNFAm3MU87l2,,,,,,,,,,,,,,,,,,750.0,,,,60fd2a117181bc22b970997d,09:06:26,27/02/2024
html-keyboard-response,187,443896,0.0-77.0-3.0,,<div style='margin:auto;width: auto; font-size: 150%'><span style='font-weight: bold; font-size: 100px; color: red;'>0 points!</span><br><br></div>,,delaylearn,learning,feedback_image_window,JaiusMIRzJWjj6UpHNFAm3MU87l2,JaiusMIRzJWjj6UpHNFAm3MU87l2,,,,,,,,,,,,,,,,,,,,,,60fd2a117181bc22b970997d,09:06:26,27/02/2024
html-keyboard-response,188,445766,0.0-78.0,,"<div style=""font-size:100px;"">+</div>",,delaylearn,learning,ITI,JaiusMIRzJWjj6UpHNFAm3MU87l2,JaiusMIRzJWjj6UpHNFAm3MU87l2,,,,,,,,,,,,,,,,,,,1866.0,,,60fd2a117181bc22b970997d,09:06:26,27/02/2024
html-keyboard-response,189,447340,0.0-79.0-0.0,1572.6000000000931,"<div style=""display: flex; flex-direction: column; align-items: center; margin-top: -40px;""><img src=""images/pattern_3.png"" style=""width: 234px; height: 230px; margin-top: -50px;""><div style=""display: flex; justify-content: space-between; margin-top: 33px;""><img src=""images/choice_trial_6.png"" style=""width: 408px; height: 417px; margin-right: 200px;""><img src=""images/choice_trial_5.png"" style=""width: 408px; height: 417px;""></div></div>",j,delaylearn,learning,trial,JaiusMIRzJWjj6UpHNFAm3MU87l2,JaiusMIRzJWjj6UpHNFAm3MU87l2,1.0,images/choice_trial_6.png,images/choice_trial_5.png,images/pattern_3.png,j,j,7000.0,6.0,5.0,2.0,1.0,34.0,1.0,1.0,5.0,230.0,,,,,,60fd2a117181bc22b970997d,09:06:26,27/02/2024
html-keyboard-response,190,448346,0.0-79.0-1.0,,"<div style=""display: flex; flex-direction: column; align-items: center; margin-top: -40px;""><img src=""images/pattern_3.png"" style=""width: 234px; height: 230px; margin-top: -50px;""><div style=""display: flex; justify-content: space-between; margin-top: 33px;""><img src=""images/choice_trial_5.png"" style=""width: 408px; height: 417px; margin-left:608px;""></div></div>",,delaylearn,learning,display_response,JaiusMIRzJWjj6UpHNFAm3MU87l2,JaiusMIRzJWjj6UpHNFAm3MU87l2,,,,,,,,,,,,,,,,,chosen stimuli: images/choice_trial_5.png,,,,,60fd2a117181bc22b970997d,09:06:26,27/02/2024
html-keyboard-response,191,455354,0.0-79.0-2.0,,,,delaylearn,learning,feedback_duration_window,JaiusMIRzJWjj6UpHNFAm3MU87l2,JaiusMIRzJWjj6UpHNFAm3MU87l2,,,,,,,,,,,,,,,,,,7000.0,,,,60fd2a117181bc22b970997d,09:06:26,27/02/2024
html-keyboard-response,192,456862,0.0-79.0-3.0,,<div style='margin:auto;width: auto; font-size: 150%'><span style='font-weight: bold; font-size: 100px; color: green;'>+10 points!</span><br><br></div>,,delaylearn,learning,feedback_image_window,JaiusMIRzJWjj6UpHNFAm3MU87l2,JaiusMIRzJWjj6UpHNFAm3MU87l2,,,,,,,,,,,,,,,,,,,,,,60fd2a117181bc22b970997d,09:06:26,27/02/2024
html-keyboard-response,193,458833,0.0-80.0,,"<div style=""font-size:100px;"">+</div>",,delaylearn,learning,ITI,JaiusMIRzJWjj6UpHNFAm3MU87l2,JaiusMIRzJWjj6UpHNFAm3MU87l2,,,,,,,,,,,,,,,,,,,1967.0,,,60fd2a117181bc22b970997d,09:06:26,27/02/2024
html-keyboard-response,194,460767,0.0-81.0-0.0,1933.2000000001863,"<div style=""display: flex; flex-direction: column; align-items: center; margin-top: -40px;""><img src=""images/pattern_4.png"" style=""width: 234px; height: 230px; margin-top: -50px;""><div style=""display: flex; justify-content: space-between; margin-top: 33px;""><img src=""images/choice_trial_8.png"" style=""width: 408px; height: 417px; margin-right: 200px;""><img src=""images/choice_trial_7.png"" style=""width: 408px; height: 417px;""></div></div>",j,delaylearn,learning,trial,JaiusMIRzJWjj6UpHNFAm3MU87l2,JaiusMIRzJWjj6UpHNFAm3MU87l2,1.0,images/choice_trial_8.png,images/choice_trial_7.png,images/pattern_4.png,f,j,7000.0,8.0,7.0,3.0,1.0,35.0,1.0,0.0,7.0,230.0,,,,,,60fd2a117181bc22b970997d,09:06:26,27/02/2024
html-keyboard-response,195,461777,0.0-81.0-1.0,,"<div style=""display: flex; flex-direction: column; align-items: center; margin-top: -40px;""><img src=""images/pattern_4.png"" style=""width: 234px; height: 230px; margin-top: -50px;""><div style=""display: flex; justify-content: space-between; margin-top: 33px;""><img src=""images/choice_trial_7.png"" style=""width: 408px; height: 417px; margin-left:608px;""></div></div>",,delaylearn,learning,display_response,JaiusMIRzJWjj6UpHNFAm3MU87l2,JaiusMIRzJWjj6UpHNFAm3MU87l2,,,,,,,,,,,,,,,,,chosen stimuli: images/choice_trial_7.png,,,,,60fd2a117181bc22b970997d,09:06:26,27/02/2024
html-keyboard-response,196,468778,0.0-81.0-2.0,,,,delaylearn,learning,feedback_duration_window,JaiusMIRzJWjj6UpHNFAm3MU87l2,JaiusMIRzJWjj6UpHNFAm3MU87l2,,,,,,,,,,,,,,,,,,7000.0,,,,60fd2a117181bc22b970997d,09:06:26,27/02/2024
html-keyboard-response,197,470294,0.0-81.0-3.0,,<div style='margin:auto;width: auto; font-size: 150%'><span style='font-weight: bold; font-size: 100px; color: red;'>0 points!</span><br><br></div>,,delaylearn,learning,feedback_image_window,JaiusMIRzJWjj6UpHNFAm3MU87l2,JaiusMIRzJWjj6UpHNFAm3MU87l2,,,,,,,,,,,,,,,,,,,,,,60fd2a117181bc22b970997d,09:06:26,27/02/2024
html-keyboard-response,198,472171,0.0-82.0,,"<div style=""font-size:100px;"">+</div>",,delaylearn,learning,ITI,JaiusMIRzJWjj6UpHNFAm3MU87l2,JaiusMIRzJWjj6UpHNFAm3MU87l2,,,,,,,,,,,,,,,,,,,1868.0,,,60fd2a117181bc22b970997d,09:06:26,27/02/2024
html-keyboard-response,199,474317,0.0-83.0-0.0,2145.1999999999534,"<div style=""display: flex; flex-direction: column; align-items: center; margin-top: -40px;""><img src=""images/pattern_7.png"" style=""width: 234px; height: 230px; margin-top: -50px;""><div style=""display: flex; justify-content: space-between; margin-top: 33px;""><img src=""images/choice_trial_13.png"" style=""width: 408px; height: 417px; margin-right: 200px;""><img src=""images/choice_trial_14.png"" style=""width: 408px; height: 417px;""></div></div>",f,delaylearn,learning,trial,JaiusMIRzJWjj6UpHNFAm3MU87l2,JaiusMIRzJWjj6UpHNFAm3MU87l2,1.0,images/choice_trial_13.png,images/choice_trial_14.png,images/pattern_7.png,f,f,750.0,13.0,14.0,6.0,0.0,36.0,1.0,1.0,13.0,240.0,,,,,,60fd2a117181bc22b970997d,09:06:26,27/02/2024
html-keyboard-response,200,475327,0.0-83.0-1.0,,"<div style=""display: flex; flex-direction: column; align-items: center; margin-top: -40px;""><img src=""images/pattern_7.png"" style=""width: 234px; height: 230px; margin-top: -50px;""><div style=""display: flex; justify-content: space-between; margin-top: 33px;""><img src=""images/choice_trial_13.png"" style=""width: 408px; height: 417px; margin-right: 608px;""></div></div>",,delaylearn,learning,display_response,JaiusMIRzJWjj6UpHNFAm3MU87l2,JaiusMIRzJWjj6UpHNFAm3MU87l2,,,,,,,,,,,,,,,,,chosen stimuli: images/choice_trial_13.png,,,,,60fd2a117181bc22b970997d,09:06:26,27/02/2024
html-keyboard-response,201,476087,0.0-83.0-2.0,,,,delaylearn,learning,feedback_duration_window,JaiusMIRzJWjj6UpHNFAm3MU87l2,JaiusMIRzJWjj6UpHNFAm3MU87l2,,,,,,,,,,,,,,,,,,750.0,,,,60fd2a117181bc22b970997d,09:06:26,27/02/2024
html-keyboard-response,202,477590,0.0-83.0-3.0,,<div style='margin:auto;width: auto; font-size: 150%'><span style='font-weight: bold; font-size: 100px; color: green;'>+10 points!</span><br><br></div>,,delaylearn,learning,feedback_image_window,JaiusMIRzJWjj6UpHNFAm3MU87l2,JaiusMIRzJWjj6UpHNFAm3MU87l2,,,,,,,,,,,,,,,,,,,,,,60fd2a117181bc22b970997d,09:06:26,27/02/2024
html-keyboard-response,203,479357,0.0-84.0,,"<div style=""font-size:100px;"">+</div>",,delaylearn,learning,ITI,JaiusMIRzJWjj6UpHNFAm3MU87l2,JaiusMIRzJWjj6UpHNFAm3MU87l2,,,,,,,,,,,,,,,,,,,1757.0,,,60fd2a117181bc22b970997d,09:06:26,27/02/2024
html-keyboard-response,204,481152,0.0-85.0-0.0,1793.5999999998603,"<div style=""display: flex; flex-direction: column; align-items: center; margin-top: -40px;""><img src=""images/pattern_1.png"" style=""width: 234px; height: 230px; margin-top: -50px;""><div style=""display: flex; justify-content: space-between; margin-top: 33px;""><img src=""images/choice_trial_1.png"" style=""width: 408px; height: 417px; margin-right: 200px;""><img src=""images/choice_trial_2.png"" style=""width: 408px; height: 417px;""></div></div>",j,delaylearn,learning,trial,JaiusMIRzJWjj6UpHNFAm3MU87l2,JaiusMIRzJWjj6UpHNFAm3MU87l2,1.0,images/choice_trial_1.png,images/choice_trial_2.png,images/pattern_1.png,f,f,7000.0,1.0,2.0,1.0,0.0,37.0,0.0,0.0,2.0,240.0,,,,,,60fd2a117181bc22b970997d,09:06:26,27/02/2024
html-keyboard-response,205,482161,0.0-85.0-1.0,,"<div style=""display: flex; flex-direction: column; align-items: center; margin-top: -40px;""><img src=""images/pattern_1.png"" style=""width: 234px; height: 230px; margin-top: -50px;""><div style=""display: flex; justify-content: space-between; margin-top: 33px;""><img src=""images/choice_trial_2.png"" style=""width: 408px; height: 417px; margin-left:608px;""></div></div>",,delaylearn,learning,display_response,JaiusMIRzJWjj6UpHNFAm3MU87l2,JaiusMIRzJWjj6UpHNFAm3MU87l2,,,,,,,,,,,,,,,,,chosen stimuli: images/choice_trial_2.png,,,,,60fd2a117181bc22b970997d,09:06:26,27/02/2024
html-keyboard-response,206,489176,0.0-85.0-2.0,,,,delaylearn,learning,feedback_duration_window,JaiusMIRzJWjj6UpHNFAm3MU87l2,JaiusMIRzJWjj6UpHNFAm3MU87l2,,,,,,,,,,,,,,,,,,7000.0,,,,60fd2a117181bc22b970997d,09:06:26,27/02/2024
html-keyboard-response,207,490690,0.0-85.0-3.0,,<div style='margin:auto;width: auto; font-size: 150%'><span style='font-weight: bold; font-size: 100px; color: red;'>0 points!</span><br><br></div>,,delaylearn,learning,feedback_image_window,JaiusMIRzJWjj6UpHNFAm3MU87l2,JaiusMIRzJWjj6UpHNFAm3MU87l2,,,,,,,,,,,,,,,,,,,,,,60fd2a117181bc22b970997d,09:06:26,27/02/2024
html-keyboard-response,208,491205,0.0-86.0-0.0,,,,,,mood_trial_fixation,JaiusMIRzJWjj6UpHNFAm3MU87l2,,,,,,,,,,,,,,,,,,,,,,,60fd2a117181bc22b970997d,09:06:26,27/02/2024
lmdlab-html-vas-response,209,496557,0.0-86.0-1.0,4345.0,How happy are you right now?,0.4645061728395062,delaylearn,learning,mood_trial,JaiusMIRzJWjj6UpHNFAm3MU87l2,JaiusMIRzJWjj6UpHNFAm3MU87l2,,,,,,,,,,,,,,,,,,,,"['Very unhappy', 'Very happy']",,60fd2a117181bc22b970997d,09:06:26,27/02/2024
html-keyboard-response,210,498722,0.0-87.0,,"<div style=""font-size:100px;"">+</div>",,delaylearn,learning,ITI,JaiusMIRzJWjj6UpHNFAm3MU87l2,JaiusMIRzJWjj6UpHNFAm3MU87l2,,,,,,,,,,,,,,,,,,,2161.0,,,60fd2a117181bc22b970997d,09:06:26,27/02/2024
html-keyboard-response,211,500027,0.0-88.0-0.0,1303.6999999999534,"<div style=""display: flex; flex-direction: column; align-items: center; margin-top: -40px;""><img src=""images/pattern_3.png"" style=""width: 234px; height: 230px; margin-top: -50px;""><div style=""display: flex; justify-content: space-between; margin-top: 33px;""><img src=""images/choice_trial_5.png"" style=""width: 408px; height: 417px; margin-right: 200px;""><img src=""images/choice_trial_6.png"" style=""width: 408px; height: 417px;""></div></div>",f,delaylearn,learning,trial,JaiusMIRzJWjj6UpHNFAm3MU87l2,JaiusMIRzJWjj6UpHNFAm3MU87l2,1.0,images/choice_trial_5.png,images/choice_trial_6.png,images/pattern_3.png,j,f,7000.0,5.0,6.0,2.0,0.0,38.0,1.0,0.0,5.0,240.0,,,,,,60fd2a117181bc22b970997d,09:06:26,27/02/2024
html-keyboard-response,212,501031,0.0-88.0-1.0,,"<div style=""display: flex; flex-direction: column; align-items: center; margin-top: -40px;""><img src=""images/pattern_3.png"" style=""width: 234px; height: 230px; margin-top: -50px;""><div style=""display: flex; justify-content: space-between; margin-top: 33px;""><img src=""images/choice_trial_5.png"" style=""width: 408px; height: 417px; margin-right: 608px;""></div></div>",,delaylearn,learning,display_response,JaiusMIRzJWjj6UpHNFAm3MU87l2,JaiusMIRzJWjj6UpHNFAm3MU87l2,,,,,,,,,,,,,,,,,chosen stimuli: images/choice_trial_5.png,,,,,60fd2a117181bc22b970997d,09:06:26,27/02/2024
html-keyboard-response,213,508033,0.0-88.0-2.0,,,,delaylearn,learning,feedback_duration_window,JaiusMIRzJWjj6UpHNFAm3MU87l2,JaiusMIRzJWjj6UpHNFAm3MU87l2,,,,,,,,,,,,,,,,,,7000.0,,,,60fd2a117181bc22b970997d,09:06:26,27/02/2024
html-keyboard-response,214,509540,0.0-88.0-3.0,,<div style='margin:auto;width: auto; font-size: 150%'><span style='font-weight: bold; font-size: 100px; color: red;'>0 points!</span><br><br></div>,,delaylearn,learning,feedback_image_window,JaiusMIRzJWjj6UpHNFAm3MU87l2,JaiusMIRzJWjj6UpHNFAm3MU87l2,,,,,,,,,,,,,,,,,,,,,,60fd2a117181bc22b970997d,09:06:26,27/02/2024
html-keyboard-response,215,511768,0.0-89.0,,"<div style=""font-size:100px;"">+</div>",,delaylearn,learning,ITI,JaiusMIRzJWjj6UpHNFAm3MU87l2,JaiusMIRzJWjj6UpHNFAm3MU87l2,,,,,,,,,,,,,,,,,,,2227.0,,,60fd2a117181bc22b970997d,09:06:26,27/02/2024
html-keyboard-response,216,513457,0.0-90.0-0.0,1687.5,"<div style=""display: flex; flex-direction: column; align-items: center; margin-top: -40px;""><img src=""images/pattern_7.png"" style=""width: 234px; height: 230px; margin-top: -50px;""><div style=""display: flex; justify-content: space-between; margin-top: 33px;""><img src=""images/choice_trial_14.png"" style=""width: 408px; height: 417px; margin-right: 200px;""><img src=""images/choice_trial_13.png"" style=""width: 408px; height: 417px;""></div></div>",j,delaylearn,learning,trial,JaiusMIRzJWjj6UpHNFAm3MU87l2,JaiusMIRzJWjj6UpHNFAm3MU87l2,1.0,images/choice_trial_14.png,images/choice_trial_13.png,images/pattern_7.png,j,j,750.0,14.0,13.0,6.0,1.0,39.0,1.0,1.0,13.0,250.0,,,,,,60fd2a117181bc22b970997d,09:06:26,27/02/2024
html-keyboard-response,217,514471,0.0-90.0-1.0,,"<div style=""display: flex; flex-direction: column; align-items: center; margin-top: -40px;""><img src=""images/pattern_7.png"" style=""width: 234px; height: 230px; margin-top: -50px;""><div style=""display: flex; justify-content: space-between; margin-top: 33px;""><img src=""images/choice_trial_13.png"" style=""width: 408px; height: 417px; margin-left:608px;""></div></div>",,delaylearn,learning,display_response,JaiusMIRzJWjj6UpHNFAm3MU87l2,JaiusMIRzJWjj6UpHNFAm3MU87l2,,,,,,,,,,,,,,,,,chosen stimuli: images/choice_trial_13.png,,,,,60fd2a117181bc22b970997d,09:06:26,27/02/2024
html-keyboard-response,218,515224,0.0-90.0-2.0,,,,delaylearn,learning,feedback_duration_window,JaiusMIRzJWjj6UpHNFAm3MU87l2,JaiusMIRzJWjj6UpHNFAm3MU87l2,,,,,,,,,,,,,,,,,,750.0,,,,60fd2a117181bc22b970997d,09:06:26,27/02/2024
html-keyboard-response,219,516736,0.0-90.0-3.0,,<div style='margin:auto;width: auto; font-size: 150%'><span style='font-weight: bold; font-size: 100px; color: green;'>+10 points!</span><br><br></div>,,delaylearn,learning,feedback_image_window,JaiusMIRzJWjj6UpHNFAm3MU87l2,JaiusMIRzJWjj6UpHNFAm3MU87l2,,,,,,,,,,,,,,,,,,,,,,60fd2a117181bc22b970997d,09:06:26,27/02/2024
html-keyboard-response,220,518575,0.0-91.0,,"<div style=""font-size:100px;"">+</div>",,delaylearn,learning,ITI,JaiusMIRzJWjj6UpHNFAm3MU87l2,JaiusMIRzJWjj6UpHNFAm3MU87l2,,,,,,,,,,,,,,,,,,,1836.0,,,60fd2a117181bc22b970997d,09:06:26,27/02/2024
html-keyboard-response,221,520109,0.0-92.0-0.0,1533.0,"<div style=""display: flex; flex-direction: column; align-items: center; margin-top: -40px;""><img src=""images/pattern_5.png"" style=""width: 234px; height: 230px; margin-top: -50px;""><div style=""display: flex; justify-content: space-between; margin-top: 33px;""><img src=""images/choice_trial_10.png"" style=""width: 408px; height: 417px; margin-right: 200px;""><img src=""images/choice_trial_9.png"" style=""width: 408px; height: 417px;""></div></div>",j,delaylearn,learning,trial,JaiusMIRzJWjj6UpHNFAm3MU87l2,JaiusMIRzJWjj6UpHNFAm3MU87l2,1.0,images/choice_trial_10.png,images/choice_trial_9.png,images/pattern_5.png,j,j,750.0,10.0,9.0,4.0,1.0,40.0,1.0,1.0,9.0,260.0,,,,,,60fd2a117181bc22b970997d,09:06:26,27/02/2024
html-keyboard-response,222,521118,0.0-92.0-1.0,,"<div style=""display: flex; flex-direction: column; align-items: center; margin-top: -40px;""><img src=""images/pattern_5.png"" style=""width: 234px; height: 230px; margin-top: -50px;""><div style=""display: flex; justify-content: space-between; margin-top: 33px;""><img src=""images/choice_trial_9.png"" style=""width: 408px; height: 417px; margin-left:608px;""></div></div>",,delaylearn,learning,display_response,JaiusMIRzJWjj6UpHNFAm3MU87l2,JaiusMIRzJWjj6UpHNFAm3MU87l2,,,,,,,,,,,,,,,,,chosen stimuli: images/choice_trial_9.png,,,,,60fd2a117181bc22b970997d,09:06:26,27/02/2024
html-keyboard-response,223,521869,0.0-92.0-2.0,,,,delaylearn,learning,feedback_duration_window,JaiusMIRzJWjj6UpHNFAm3MU87l2,JaiusMIRzJWjj6UpHNFAm3MU87l2,,,,,,,,,,,,,,,,,,750.0,,,,60fd2a117181bc22b970997d,09:06:26,27/02/2024
html-keyboard-response,224,523379,0.0-92.0-3.0,,<div style='margin:auto;width: auto; font-size: 150%'><span style='font-weight: bold; font-size: 100px; color: green;'>+10 points!</span><br><br></div>,,delaylearn,learning,feedback_image_window,JaiusMIRzJWjj6UpHNFAm3MU87l2,JaiusMIRzJWjj6UpHNFAm3MU87l2,,,,,,,,,,,,,,,,,,,,,,60fd2a117181bc22b970997d,09:06:26,27/02/2024
html-keyboard-response,225,523884,0.0-93.0-0.0,,,,,,mood_trial_fixation,JaiusMIRzJWjj6UpHNFAm3MU87l2,,,,,,,,,,,,,,,,,,,,,,,60fd2a117181bc22b970997d,09:06:26,27/02/2024
lmdlab-html-vas-response,226,528507,0.0-93.0-1.0,3612.0,How happy are you right now?,0.5339506172839507,delaylearn,learning,mood_trial,JaiusMIRzJWjj6UpHNFAm3MU87l2,JaiusMIRzJWjj6UpHNFAm3MU87l2,,,,,,,,,,,,,,,,,,,,"['Very unhappy', 'Very happy']",,60fd2a117181bc22b970997d,09:06:26,27/02/2024
html-keyboard-response,227,530574,0.0-94.0,,"<div style=""font-size:100px;"">+</div>",,delaylearn,learning,ITI,JaiusMIRzJWjj6UpHNFAm3MU87l2,JaiusMIRzJWjj6UpHNFAm3MU87l2,,,,,,,,,,,,,,,,,,,2064.0,,,60fd2a117181bc22b970997d,09:06:26,27/02/2024
html-keyboard-response,228,532209,0.0-95.0-0.0,1634.2999999998137,"<div style=""display: flex; flex-direction: column; align-items: center; margin-top: -40px;""><img src=""images/pattern_4.png"" style=""width: 234px; height: 230px; margin-top: -50px;""><div style=""display: flex; justify-content: space-between; margin-top: 33px;""><img src=""images/choice_trial_7.png"" style=""width: 408px; height: 417px; margin-right: 200px;""><img src=""images/choice_trial_8.png"" style=""width: 408px; height: 417px;""></div></div>",f,delaylearn,learning,trial,JaiusMIRzJWjj6UpHNFAm3MU87l2,JaiusMIRzJWjj6UpHNFAm3MU87l2,1.0,images/choice_trial_7.png,images/choice_trial_8.png,images/pattern_4.png,f,f,7000.0,7.0,8.0,3.0,0.0,41.0,1.0,1.0,7.0,270.0,,,,,,60fd2a117181bc22b970997d,09:06:26,27/02/2024
html-keyboard-response,229,533225,0.0-95.0-1.0,,"<div style=""display: flex; flex-direction: column; align-items: center; margin-top: -40px;""><img src=""images/pattern_4.png"" style=""width: 234px; height: 230px; margin-top: -50px;""><div style=""display: flex; justify-content: space-between; margin-top: 33px;""><img src=""images/choice_trial_7.png"" style=""width: 408px; height: 417px; margin-right: 608px;""></div></div>",,delaylearn,learning,display_response,JaiusMIRzJWjj6UpHNFAm3MU87l2,JaiusMIRzJWjj6UpHNFAm3MU87l2,,,,,,,,,,,,,,,,,chosen stimuli: images/choice_trial_7.png,,,,,60fd2a117181bc22b970997d,09:06:26,27/02/2024
html-keyboard-response,230,540238,0.0-95.0-2.0,,,,delaylearn,learning,feedback_duration_window,JaiusMIRzJWjj6UpHNFAm3MU87l2,JaiusMIRzJWjj6UpHNFAm3MU87l2,,,,,,,,,,,,,,,,,,7000.0,,,,60fd2a117181bc22b970997d,09:06:26,27/02/2024
html-keyboard-response,231,541742,0.0-95.0-3.0,,<div style='margin:auto;width: auto; font-size: 150%'><span style='font-weight: bold; font-size: 100px; color: green;'>+10 points!</span><br><br></div>,,delaylearn,learning,feedback_image_window,JaiusMIRzJWjj6UpHNFAm3MU87l2,JaiusMIRzJWjj6UpHNFAm3MU87l2,,,,,,,,,,,,,,,,,,,,,,60fd2a117181bc22b970997d,09:06:26,27/02/2024
