trial_type,trial_index,time_elapsed,internal_node_id,rt,stimulus,response,exp_name,exp_stage,test_part,subjectID,databaseID,counterbal,choice_stimuli_1,choice_stimuli_2,pattern_stimuli,rewarded_answer,correct_answer,feedback_duration_times,stim_left,stim_right,pair,leftright_counter,trial,response_correct,response_rewarded,chosen_stim,counter,displayed_choice,feedback_durations,ITI_duration,labels,rest_warning,prolificID,start_time,date
pavlovia,0,493,0.0-0.0,,,,,,,0as1LruXGrgcYPIqHi2ZL33ZIk02,,,,,,,,,,,,,,,,,,,,,,,62ce9f115a24ca323371d2dc,09:08:01,27/02/2024
html-keyboard-response,1,3495,0.0-1.0,,"<div style=""font-size:100px;"">+</div>",,delaylearn,learning,pre_fixation,0as1LruXGrgcYPIqHi2ZL33ZIk02,,,,,,,,,,,,,,,,,,,,,,,62ce9f115a24ca323371d2dc,09:08:01,27/02/2024
html-keyboard-response,2,4475,0.0-2.0-0.0,978.0,"<div style=""display: flex; flex-direction: column; align-items: center; margin-top: -40px;""><img src=""images/demo_images/pattern_1.png"" style=""width: 234px; height: 230px; margin-top: -50px;""><div style=""display: flex; justify-content: space-between; margin-top: 33px;""><img src=""images/demo_images/choice_trial_2.png"" style=""width: 408px; height: 417px; margin-right: 200px;""><img src=""images/demo_images/choice_trial_1.png"" style=""width: 408px; height: 417px;""></div></div>",j,delaylearn,learning,trial,0as1LruXGrgcYPIqHi2ZL33ZIk02,0as1LruXGrgcYPIqHi2ZL33ZIk02,5.0,images/demo_images/choice_trial_2.png,images/demo_images/choice_trial_1.png,images/demo_images/pattern_1.png,j,j,3000.0,2.0,1.0,20.0,1.0,1.0,1.0,1.0,1.0,10.0,,,,,,62ce9f115a24ca323371d2dc,09:08:01,27/02/2024
html-keyboard-response,3,5478,0.0-2.0-1.0,,"<div style=""display: flex; flex-direction: column; align-items: center; margin-top: -40px;""><img src=""images/demo_images/pattern_1.png"" style=""width: 234px; height: 230px; margin-top: -50px;""><div style=""display: flex; justify-content: space-between; margin-top: 33px;""><img src=""images/demo_images/choice_trial_1.png"" style=""width: 408px; height: 417px; margin-left:608px;""></div></div>",,delaylearn,learning,display_response,0as1LruXGrgcYPIqHi2ZL33ZIk02,0as1LruXGrgcYPIqHi2ZL33ZIk02,,,,,,,,,,,,,,,,,chosen stimuli: images/demo_images/choice_trial_1.png,,,,,62ce9f115a24ca323371d2dc,09:08:01,27/02/2024
html-keyboard-response,4,8480,0.0-2.0-2.0,,,,delaylearn,learning,feedback_duration_window,0as1LruXGrgcYPIqHi2ZL33ZIk02,0as1LruXGrgcYPIqHi2ZL33ZIk02,,,,,,,,,,,,,,,,,,3000.0,,,,62ce9f115a24ca323371d2dc,09:08:01,27/02/2024
html-keyboard-response,5,9983,0.0-2.0-3.0,,<div style='margin:auto;width: auto; font-size: 150%'><span style='font-weight: bold; font-size: 100px; color: green;'>+10 points!</span><br><br></div>,,delaylearn,learning,feedback_image_window,0as1LruXGrgcYPIqHi2ZL33ZIk02,0as1LruXGrgcYPIqHi2ZL33ZIk02,,,,,,,,,,,,,,,,,,,,,,62ce9f115a24ca323371d2dc,09:08:01,27/02/2024
html-keyboard-response,6,12029,0.0-3.0,,"<div style=""font-size:100px;"">+</div>",,delaylearn,learning,ITI,0as1LruXGrgcYPIqHi2ZL33ZIk02,0as1LruXGrgcYPIqHi2ZL33ZIk02,,,,,,,,,,,,,,,,,,,2046.0,,,62ce9f115a24ca323371d2dc,09:08:01,27/02/2024
html-keyboard-response,7,13243,0.0-4.0-0.0,1211.0,"<div style=""display: flex; flex-direction: column; align-items: center; margin-top: -40px;""><img src=""images/demo_images/pattern_1.png"" style=""width: 234px; height: 230px; margin-top: -50px;""><div style=""display: flex; justify-content: space-between; margin-top: 33px;""><img src=""images/demo_images/choice_trial_2.png"" style=""width: 408px; height: 417px; margin-right: 200px;""><img src=""images/demo_images/choice_trial_1.png"" style=""width: 408px; height: 417px;""></div></div>",j,delaylearn,learning,trial,0as1LruXGrgcYPIqHi2ZL33ZIk02,0as1LruXGrgcYPIqHi2ZL33ZIk02,5.0,images/demo_images/choice_trial_2.png,images/demo_images/choice_trial_1.png,images/demo_images/pattern_1.png,j,j,3000.0,2.0,1.0,20.0,1.0,2.0,1.0,1.0,1.0,20.0,,,,,,62ce9f115a24ca323371d2dc,09:08:01,27/02/2024
html-keyboard-response,8,14245,0.0-4.0-1.0,,"<div style=""display: flex; flex-direction: column; align-items: center; margin-top: -40px;""><img src=""images/demo_images/pattern_1.png"" style=""width: 234px; height: 230px; margin-top: -50px;""><div style=""display: flex; justify-content: space-between; margin-top: 33px;""><img src=""images/demo_images/choice_trial_1.png"" style=""width: 408px; height: 417px; margin-left:608px;""></div></div>",,delaylearn,learning,display_response,0as1LruXGrgcYPIqHi2ZL33ZIk02,0as1LruXGrgcYPIqHi2ZL33ZIk02,,,,,,,,,,,,,,,,,chosen stimuli: images/demo_images/choice_trial_1.png,,,,,62ce9f115a24ca323371d2dc,09:08:01,27/02/2024
html-keyboard-response,9,17247,0.0-4.0-2.0,,,,delaylearn,learning,feedback_duration_window,0as1LruXGrgcYPIqHi2ZL33ZIk02,0as1LruXGrgcYPIqHi2ZL33ZIk02,,,,,,,,,,,,,,,,,,3000.0,,,,62ce9f115a24ca323371d2dc,09:08:01,27/02/2024
html-keyboard-response,10,18749,0.0-4.0-3.0,,<div style='margin:auto;width: auto; font-size: 150%'><span style='font-weight: bold; font-size: 100px; color: green;'>+10 points!</span><br><br></div>,,delaylearn,learning,feedback_image_window,0as1LruXGrgcYPIqHi2ZL33ZIk02,0as1LruXGrgcYPIqHi2ZL33ZIk02,,,,,,,,,,,,,,,,,,,,,,62ce9f115a24ca323371d2dc,09:08:01,27/02/2024
html-keyboard-response,11,20664,0.0-5.0,,"<div style=""font-size:100px;"">+</div>",,delaylearn,learning,ITI,0as1LruXGrgcYPIqHi2ZL33ZIk02,0as1LruXGrgcYPIqHi2ZL33ZIk02,,,,,,,,,,,,,,,,,,,1913.0,,,62ce9f115a24ca323371d2dc,09:08:01,27/02/2024
html-keyboard-response,12,21786,0.0-6.0-0.0,1121.0,"<div style=""display: flex; flex-direction: column; align-items: center; margin-top: -40px;""><img src=""images/demo_images/pattern_1.png"" style=""width: 234px; height: 230px; margin-top: -50px;""><div style=""display: flex; justify-content: space-between; margin-top: 33px;""><img src=""images/demo_images/choice_trial_1.png"" style=""width: 408px; height: 417px; margin-right: 200px;""><img src=""images/demo_images/choice_trial_2.png"" style=""width: 408px; height: 417px;""></div></div>",f,delaylearn,learning,trial,0as1LruXGrgcYPIqHi2ZL33ZIk02,0as1LruXGrgcYPIqHi2ZL33ZIk02,5.0,images/demo_images/choice_trial_1.png,images/demo_images/choice_trial_2.png,images/demo_images/pattern_1.png,j,f,3000.0,1.0,2.0,20.0,0.0,3.0,1.0,0.0,1.0,20.0,,,,,,62ce9f115a24ca323371d2dc,09:08:01,27/02/2024
html-keyboard-response,13,22789,0.0-6.0-1.0,,"<div style=""display: flex; flex-direction: column; align-items: center; margin-top: -40px;""><img src=""images/demo_images/pattern_1.png"" style=""width: 234px; height: 230px; margin-top: -50px;""><div style=""display: flex; justify-content: space-between; margin-top: 33px;""><img src=""images/demo_images/choice_trial_1.png"" style=""width: 408px; height: 417px; margin-right: 608px;""></div></div>",,delaylearn,learning,display_response,0as1LruXGrgcYPIqHi2ZL33ZIk02,0as1LruXGrgcYPIqHi2ZL33ZIk02,,,,,,,,,,,,,,,,,chosen stimuli: images/demo_images/choice_trial_1.png,,,,,62ce9f115a24ca323371d2dc,09:08:01,27/02/2024
html-keyboard-response,14,25790,0.0-6.0-2.0,,,,delaylearn,learning,feedback_duration_window,0as1LruXGrgcYPIqHi2ZL33ZIk02,0as1LruXGrgcYPIqHi2ZL33ZIk02,,,,,,,,,,,,,,,,,,3000.0,,,,62ce9f115a24ca323371d2dc,09:08:01,27/02/2024
html-keyboard-response,15,27293,0.0-6.0-3.0,,<div style='margin:auto;width: auto; font-size: 150%'><span style='font-weight: bold; font-size: 100px; color: red;'>0 points!</span><br><br></div>,,delaylearn,learning,feedback_image_window,0as1LruXGrgcYPIqHi2ZL33ZIk02,0as1LruXGrgcYPIqHi2ZL33ZIk02,,,,,,,,,,,,,,,,,,,,,,62ce9f115a24ca323371d2dc,09:08:01,27/02/2024
html-keyboard-response,16,29148,0.0-7.0,,"<div style=""font-size:100px;"">+</div>",,delaylearn,learning,ITI,0as1LruXGrgcYPIqHi2ZL33ZIk02,0as1LruXGrgcYPIqHi2ZL33ZIk02,,,,,,,,,,,,,,,,,,,1853.0,,,62ce9f115a24ca323371d2dc,09:08:01,27/02/2024
html-keyboard-response,17,30195,0.0-8.0-0.0,1044.0,"<div style=""display: flex; flex-direction: column; align-items: center; margin-top: -40px;""><img src=""images/demo_images/pattern_1.png"" style=""width: 234px; height: 230px; margin-top: -50px;""><div style=""display: flex; justify-content: space-between; margin-top: 33px;""><img src=""images/demo_images/choice_trial_1.png"" style=""width: 408px; height: 417px; margin-right: 200px;""><img src=""images/demo_images/choice_trial_2.png"" style=""width: 408px; height: 417px;""></div></div>",j,delaylearn,learning,trial,0as1LruXGrgcYPIqHi2ZL33ZIk02,0as1LruXGrgcYPIqHi2ZL33ZIk02,5.0,images/demo_images/choice_trial_1.png,images/demo_images/choice_trial_2.png,images/demo_images/pattern_1.png,f,f,3000.0,1.0,2.0,20.0,0.0,4.0,0.0,0.0,2.0,20.0,,,,,,62ce9f115a24ca323371d2dc,09:08:01,27/02/2024
html-keyboard-response,18,31197,0.0-8.0-1.0,,"<div style=""display: flex; flex-direction: column; align-items: center; margin-top: -40px;""><img src=""images/demo_images/pattern_1.png"" style=""width: 234px; height: 230px; margin-top: -50px;""><div style=""display: flex; justify-content: space-between; margin-top: 33px;""><img src=""images/demo_images/choice_trial_2.png"" style=""width: 408px; height: 417px; margin-left:608px;""></div></div>",,delaylearn,learning,display_response,0as1LruXGrgcYPIqHi2ZL33ZIk02,0as1LruXGrgcYPIqHi2ZL33ZIk02,,,,,,,,,,,,,,,,,chosen stimuli: images/demo_images/choice_trial_2.png,,,,,62ce9f115a24ca323371d2dc,09:08:01,27/02/2024
html-keyboard-response,19,34199,0.0-8.0-2.0,,,,delaylearn,learning,feedback_duration_window,0as1LruXGrgcYPIqHi2ZL33ZIk02,0as1LruXGrgcYPIqHi2ZL33ZIk02,,,,,,,,,,,,,,,,,,3000.0,,,,62ce9f115a24ca323371d2dc,09:08:01,27/02/2024
html-keyboard-response,20,35702,0.0-8.0-3.0,,<div style='margin:auto;width: auto; font-size: 150%'><span style='font-weight: bold; font-size: 100px; color: red;'>0 points!</span><br><br></div>,,delaylearn,learning,feedback_image_window,0as1LruXGrgcYPIqHi2ZL33ZIk02,0as1LruXGrgcYPIqHi2ZL33ZIk02,,,,,,,,,,,,,,,,,,,,,,62ce9f115a24ca323371d2dc,09:08:01,27/02/2024
html-keyboard-response,21,36203,0.0-9.0-0.0,,,,,,mood_trial_fixation,0as1LruXGrgcYPIqHi2ZL33ZIk02,,,,,,,,,,,,,,,,,,,,,,,62ce9f115a24ca323371d2dc,09:08:01,27/02/2024
lmdlab-html-vas-response,22,40245,0.0-9.0-1.0,3035.0,How happy are you right now?,0.6033950617283951,delaylearn,learning,mood_trial,0as1LruXGrgcYPIqHi2ZL33ZIk02,0as1LruXGrgcYPIqHi2ZL33ZIk02,,,,,,,,,,,,,,,,,,,,"['Very unhappy', 'Very happy']",,62ce9f115a24ca323371d2dc,09:08:01,27/02/2024
html-keyboard-response,23,42267,0.0-10.0,,"<div style=""font-size:100px;"">+</div>",,delaylearn,learning,ITI,0as1LruXGrgcYPIqHi2ZL33ZIk02,0as1LruXGrgcYPIqHi2ZL33ZIk02,,,,,,,,,,,,,,,,,,,2021.0,,,62ce9f115a24ca323371d2dc,09:08:01,27/02/2024
html-keyboard-response,24,43211,0.0-11.0-0.0,940.0,"<div style=""display: flex; flex-direction: column; align-items: center; margin-top: -40px;""><img src=""images/demo_images/pattern_1.png"" style=""width: 234px; height: 230px; margin-top: -50px;""><div style=""display: flex; justify-content: space-between; margin-top: 33px;""><img src=""images/demo_images/choice_trial_2.png"" style=""width: 408px; height: 417px; margin-right: 200px;""><img src=""images/demo_images/choice_trial_1.png"" style=""width: 408px; height: 417px;""></div></div>",j,delaylearn,learning,trial,0as1LruXGrgcYPIqHi2ZL33ZIk02,0as1LruXGrgcYPIqHi2ZL33ZIk02,5.0,images/demo_images/choice_trial_2.png,images/demo_images/choice_trial_1.png,images/demo_images/pattern_1.png,j,j,3000.0,2.0,1.0,20.0,1.0,5.0,1.0,1.0,1.0,30.0,,,,,,62ce9f115a24ca323371d2dc,09:08:01,27/02/2024
html-keyboard-response,25,44213,0.0-11.0-1.0,,"<div style=""display: flex; flex-direction: column; align-items: center; margin-top: -40px;""><img src=""images/demo_images/pattern_1.png"" style=""width: 234px; height: 230px; margin-top: -50px;""><div style=""display: flex; justify-content: space-between; margin-top: 33px;""><img src=""images/demo_images/choice_trial_1.png"" style=""width: 408px; height: 417px; margin-left:608px;""></div></div>",,delaylearn,learning,display_response,0as1LruXGrgcYPIqHi2ZL33ZIk02,0as1LruXGrgcYPIqHi2ZL33ZIk02,,,,,,,,,,,,,,,,,chosen stimuli: images/demo_images/choice_trial_1.png,,,,,62ce9f115a24ca323371d2dc,09:08:01,27/02/2024
html-keyboard-response,26,47215,0.0-11.0-2.0,,,,delaylearn,learning,feedback_duration_window,0as1LruXGrgcYPIqHi2ZL33ZIk02,0as1LruXGrgcYPIqHi2ZL33ZIk02,,,,,,,,,,,,,,,,,,3000.0,,,,62ce9f115a24ca323371d2dc,09:08:01,27/02/2024
html-keyboard-response,27,48717,0.0-11.0-3.0,,<div style='margin:auto;width: auto; font-size: 150%'><span style='font-weight: bold; font-size: 100px; color: green;'>+10 points!</span><br><br></div>,,delaylearn,learning,feedback_image_window,0as1LruXGrgcYPIqHi2ZL33ZIk02,0as1LruXGrgcYPIqHi2ZL33ZIk02,,,,,,,,,,,,,,,,,,,,,,62ce9f115a24ca323371d2dc,09:08:01,27/02/2024
html-keyboard-response,28,51220,0.0-12.0,,"<div style=""font-size:100px;"">+</div>",,delaylearn,learning,ITI,0as1LruXGrgcYPIqHi2ZL33ZIk02,0as1LruXGrgcYPIqHi2ZL33ZIk02,,,,,,,,,,,,,,,,,,,2500.0,,,62ce9f115a24ca323371d2dc,09:08:01,27/02/2024
html-keyboard-response,29,52019,0.0-13.0-0.0,796.0,"<div style=""display: flex; flex-direction: column; align-items: center; margin-top: -40px;""><img src=""images/demo_images/pattern_1.png"" style=""width: 234px; height: 230px; margin-top: -50px;""><div style=""display: flex; justify-content: space-between; margin-top: 33px;""><img src=""images/demo_images/choice_trial_1.png"" style=""width: 408px; height: 417px; margin-right: 200px;""><img src=""images/demo_images/choice_trial_2.png"" style=""width: 408px; height: 417px;""></div></div>",f,delaylearn,learning,trial,0as1LruXGrgcYPIqHi2ZL33ZIk02,0as1LruXGrgcYPIqHi2ZL33ZIk02,5.0,images/demo_images/choice_trial_1.png,images/demo_images/choice_trial_2.png,images/demo_images/pattern_1.png,f,f,3000.0,1.0,2.0,20.0,0.0,6.0,1.0,1.0,1.0,40.0,,,,,,62ce9f115a24ca323371d2dc,09:08:01,27/02/2024
html-keyboard-response,30,53021,0.0-13.0-1.0,,"<div style=""display: flex; flex-direction: column; align-items: center; margin-top: -40px;""><img src=""images/demo_images/pattern_1.png"" style=""width: 234px; height: 230px; margin-top: -50px;""><div style=""display: flex; justify-content: space-between; margin-top: 33px;""><img src=""images/demo_images/choice_trial_1.png"" style=""width: 408px; height: 417px; margin-right: 608px;""></div></div>",,delaylearn,learning,display_response,0as1LruXGrgcYPIqHi2ZL33ZIk02,0as1LruXGrgcYPIqHi2ZL33ZIk02,,,,,,,,,,,,,,,,,chosen stimuli: images/demo_images/choice_trial_1.png,,,,,62ce9f115a24ca323371d2dc,09:08:01,27/02/2024
html-keyboard-response,31,56024,0.0-13.0-2.0,,,,delaylearn,learning,feedback_duration_window,0as1LruXGrgcYPIqHi2ZL33ZIk02,0as1LruXGrgcYPIqHi2ZL33ZIk02,,,,,,,,,,,,,,,,,,3000.0,,,,62ce9f115a24ca323371d2dc,09:08:01,27/02/2024
html-keyboard-response,32,57525,0.0-13.0-3.0,,<div style='margin:auto;width: auto; font-size: 150%'><span style='font-weight: bold; font-size: 100px; color: green;'>+10 points!</span><br><br></div>,,delaylearn,learning,feedback_image_window,0as1LruXGrgcYPIqHi2ZL33ZIk02,0as1LruXGrgcYPIqHi2ZL33ZIk02,,,,,,,,,,,,,,,,,,,,,,62ce9f115a24ca323371d2dc,09:08:01,27/02/2024
html-button-response,33,68816,0.0-14.0,11290.0,"
  <div style=""display: flex; align-items: center; justify-content: center; height: 80vh;"">
  <div>
          <img src=""images/inst_demo_finish.png"" style=""width: 80vw; height:auto;"">
          <br><br>
      </div>
      <br><br>
  </div>",0,,,,0as1LruXGrgcYPIqHi2ZL33ZIk02,,,,,,,,,,,,,,,,,,,,,,,62ce9f115a24ca323371d2dc,09:08:01,27/02/2024
html-keyboard-response,34,86747,0.0-15.0,17928.0,"
  <div style=""display: flex; align-items: center; justify-content: center; height: 80vh;"">
  <div>
          <img src=""images/inst_6.png"" style=""width: 80vw; height:auto;"">
          <br><br>
      </div>
      <br><br>
  </div>",f,,,,0as1LruXGrgcYPIqHi2ZL33ZIk02,,,,,,,,,,,,,,,,,,,,,,,62ce9f115a24ca323371d2dc,09:08:01,27/02/2024
html-keyboard-response,35,89748,0.0-16.0,,"<div style=""font-size:100px;"">+</div>",,delaylearn,learning,pre_fixation,0as1LruXGrgcYPIqHi2ZL33ZIk02,,,,,,,,,,,,,,,,,,,,,,,62ce9f115a24ca323371d2dc,09:08:01,27/02/2024
html-keyboard-response,36,92132,0.0-17.0,,"<div style=""font-size:100px;"">+</div>",,delaylearn,learning,ITI,0as1LruXGrgcYPIqHi2ZL33ZIk02,0as1LruXGrgcYPIqHi2ZL33ZIk02,,,,,,,,,,,,,,,,,,,2381.0,,,62ce9f115a24ca323371d2dc,09:08:01,27/02/2024
html-keyboard-response,37,93153,0.0-18.0-0.0,1020.0,"<div style=""display: flex; flex-direction: column; align-items: center; margin-top: -40px;""><img src=""images/pattern_3.png"" style=""width: 234px; height: 230px; margin-top: -50px;""><div style=""display: flex; justify-content: space-between; margin-top: 33px;""><img src=""images/choice_trial_16.png"" style=""width: 408px; height: 417px; margin-right: 200px;""><img src=""images/choice_trial_2.png"" style=""width: 408px; height: 417px;""></div></div>",j,delaylearn,learning,trial,0as1LruXGrgcYPIqHi2ZL33ZIk02,0as1LruXGrgcYPIqHi2ZL33ZIk02,5.0,images/choice_trial_16.png,images/choice_trial_2.png,images/pattern_3.png,f,f,7000.0,16.0,2.0,2.0,0.0,7.0,0.0,0.0,2.0,40.0,,,,,,62ce9f115a24ca323371d2dc,09:08:01,27/02/2024
html-keyboard-response,38,94157,0.0-18.0-1.0,,"<div style=""display: flex; flex-direction: column; align-items: center; margin-top: -40px;""><img src=""images/pattern_3.png"" style=""width: 234px; height: 230px; margin-top: -50px;""><div style=""display: flex; justify-content: space-between; margin-top: 33px;""><img src=""images/choice_trial_2.png"" style=""width: 408px; height: 417px; margin-left:608px;""></div></div>",,delaylearn,learning,display_response,0as1LruXGrgcYPIqHi2ZL33ZIk02,0as1LruXGrgcYPIqHi2ZL33ZIk02,,,,,,,,,,,,,,,,,chosen stimuli: images/choice_trial_2.png,,,,,62ce9f115a24ca323371d2dc,09:08:01,27/02/2024
html-keyboard-response,39,101159,0.0-18.0-2.0,,,,delaylearn,learning,feedback_duration_window,0as1LruXGrgcYPIqHi2ZL33ZIk02,0as1LruXGrgcYPIqHi2ZL33ZIk02,,,,,,,,,,,,,,,,,,7000.0,,,,62ce9f115a24ca323371d2dc,09:08:01,27/02/2024
html-keyboard-response,40,102661,0.0-18.0-3.0,,<div style='margin:auto;width: auto; font-size: 150%'><span style='font-weight: bold; font-size: 100px; color: red;'>0 points!</span><br><br></div>,,delaylearn,learning,feedback_image_window,0as1LruXGrgcYPIqHi2ZL33ZIk02,0as1LruXGrgcYPIqHi2ZL33ZIk02,,,,,,,,,,,,,,,,,,,,,,62ce9f115a24ca323371d2dc,09:08:01,27/02/2024
html-keyboard-response,41,104661,0.0-19.0,,"<div style=""font-size:100px;"">+</div>",,delaylearn,learning,ITI,0as1LruXGrgcYPIqHi2ZL33ZIk02,0as1LruXGrgcYPIqHi2ZL33ZIk02,,,,,,,,,,,,,,,,,,,1998.0,,,62ce9f115a24ca323371d2dc,09:08:01,27/02/2024
html-keyboard-response,42,105801,0.0-20.0-0.0,1136.0,"<div style=""display: flex; flex-direction: column; align-items: center; margin-top: -40px;""><img src=""images/pattern_7.png"" style=""width: 234px; height: 230px; margin-top: -50px;""><div style=""display: flex; justify-content: space-between; margin-top: 33px;""><img src=""images/choice_trial_10.png"" style=""width: 408px; height: 417px; margin-right: 200px;""><img src=""images/choice_trial_8.png"" style=""width: 408px; height: 417px;""></div></div>",f,delaylearn,learning,trial,0as1LruXGrgcYPIqHi2ZL33ZIk02,0as1LruXGrgcYPIqHi2ZL33ZIk02,5.0,images/choice_trial_10.png,images/choice_trial_8.png,images/pattern_7.png,j,j,750.0,10.0,8.0,6.0,1.0,8.0,0.0,0.0,10.0,40.0,,,,,,62ce9f115a24ca323371d2dc,09:08:01,27/02/2024
html-keyboard-response,43,106803,0.0-20.0-1.0,,"<div style=""display: flex; flex-direction: column; align-items: center; margin-top: -40px;""><img src=""images/pattern_7.png"" style=""width: 234px; height: 230px; margin-top: -50px;""><div style=""display: flex; justify-content: space-between; margin-top: 33px;""><img src=""images/choice_trial_10.png"" style=""width: 408px; height: 417px; margin-right: 608px;""></div></div>",,delaylearn,learning,display_response,0as1LruXGrgcYPIqHi2ZL33ZIk02,0as1LruXGrgcYPIqHi2ZL33ZIk02,,,,,,,,,,,,,,,,,chosen stimuli: images/choice_trial_10.png,,,,,62ce9f115a24ca323371d2dc,09:08:01,27/02/2024
html-keyboard-response,44,107553,0.0-20.0-2.0,,,,delaylearn,learning,feedback_duration_window,0as1LruXGrgcYPIqHi2ZL33ZIk02,0as1LruXGrgcYPIqHi2ZL33ZIk02,,,,,,,,,,,,,,,,,,750.0,,,,62ce9f115a24ca323371d2dc,09:08:01,27/02/2024
html-keyboard-response,45,109054,0.0-20.0-3.0,,<div style='margin:auto;width: auto; font-size: 150%'><span style='font-weight: bold; font-size: 100px; color: red;'>0 points!</span><br><br></div>,,delaylearn,learning,feedback_image_window,0as1LruXGrgcYPIqHi2ZL33ZIk02,0as1LruXGrgcYPIqHi2ZL33ZIk02,,,,,,,,,,,,,,,,,,,,,,62ce9f115a24ca323371d2dc,09:08:01,27/02/2024
html-keyboard-response,46,111268,0.0-21.0,,"<div style=""font-size:100px;"">+</div>",,delaylearn,learning,ITI,0as1LruXGrgcYPIqHi2ZL33ZIk02,0as1LruXGrgcYPIqHi2ZL33ZIk02,,,,,,,,,,,,,,,,,,,2211.0,,,62ce9f115a24ca323371d2dc,09:08:01,27/02/2024
html-keyboard-response,47,112569,0.0-22.0-0.0,1299.0,"<div style=""display: flex; flex-direction: column; align-items: center; margin-top: -40px;""><img src=""images/pattern_4.png"" style=""width: 234px; height: 230px; margin-top: -50px;""><div style=""display: flex; justify-content: space-between; margin-top: 33px;""><img src=""images/choice_trial_11.png"" style=""width: 408px; height: 417px; margin-right: 200px;""><img src=""images/choice_trial_4.png"" style=""width: 408px; height: 417px;""></div></div>",f,delaylearn,learning,trial,0as1LruXGrgcYPIqHi2ZL33ZIk02,0as1LruXGrgcYPIqHi2ZL33ZIk02,5.0,images/choice_trial_11.png,images/choice_trial_4.png,images/pattern_4.png,f,f,7000.0,11.0,4.0,3.0,0.0,9.0,1.0,1.0,11.0,50.0,,,,,,62ce9f115a24ca323371d2dc,09:08:01,27/02/2024
html-keyboard-response,48,113572,0.0-22.0-1.0,,"<div style=""display: flex; flex-direction: column; align-items: center; margin-top: -40px;""><img src=""images/pattern_4.png"" style=""width: 234px; height: 230px; margin-top: -50px;""><div style=""display: flex; justify-content: space-between; margin-top: 33px;""><img src=""images/choice_trial_11.png"" style=""width: 408px; height: 417px; margin-right: 608px;""></div></div>",,delaylearn,learning,display_response,0as1LruXGrgcYPIqHi2ZL33ZIk02,0as1LruXGrgcYPIqHi2ZL33ZIk02,,,,,,,,,,,,,,,,,chosen stimuli: images/choice_trial_11.png,,,,,62ce9f115a24ca323371d2dc,09:08:01,27/02/2024
html-keyboard-response,49,120573,0.0-22.0-2.0,,,,delaylearn,learning,feedback_duration_window,0as1LruXGrgcYPIqHi2ZL33ZIk02,0as1LruXGrgcYPIqHi2ZL33ZIk02,,,,,,,,,,,,,,,,,,7000.0,,,,62ce9f115a24ca323371d2dc,09:08:01,27/02/2024
html-keyboard-response,50,122074,0.0-22.0-3.0,,<div style='margin:auto;width: auto; font-size: 150%'><span style='font-weight: bold; font-size: 100px; color: green;'>+10 points!</span><br><br></div>,,delaylearn,learning,feedback_image_window,0as1LruXGrgcYPIqHi2ZL33ZIk02,0as1LruXGrgcYPIqHi2ZL33ZIk02,,,,,,,,,,,,,,,,,,,,,,62ce9f115a24ca323371d2dc,09:08:01,27/02/2024
html-keyboard-response,51,124190,0.0-23.0,,"<div style=""font-size:100px;"">+</div>",,delaylearn,learning,ITI,0as1LruXGrgcYPIqHi2ZL33ZIk02,0as1LruXGrgcYPIqHi2ZL33ZIk02,,,,,,,,,,,,,,,,,,,2116.0,,,62ce9f115a24ca323371d2dc,09:08:01,27/02/2024
html-keyboard-response,52,125721,0.0-24.0-0.0,1529.0,"<div style=""display: flex; flex-direction: column; align-items: center; margin-top: -40px;""><img src=""images/pattern_5.png"" style=""width: 234px; height: 230px; margin-top: -50px;""><div style=""display: flex; justify-content: space-between; margin-top: 33px;""><img src=""images/choice_trial_13.png"" style=""width: 408px; height: 417px; margin-right: 200px;""><img src=""images/choice_trial_7.png"" style=""width: 408px; height: 417px;""></div></div>",f,delaylearn,learning,trial,0as1LruXGrgcYPIqHi2ZL33ZIk02,0as1LruXGrgcYPIqHi2ZL33ZIk02,5.0,images/choice_trial_13.png,images/choice_trial_7.png,images/pattern_5.png,j,j,750.0,13.0,7.0,4.0,1.0,10.0,0.0,0.0,13.0,50.0,,,,,,62ce9f115a24ca323371d2dc,09:08:01,27/02/2024
html-keyboard-response,53,126723,0.0-24.0-1.0,,"<div style=""display: flex; flex-direction: column; align-items: center; margin-top: -40px;""><img src=""images/pattern_5.png"" style=""width: 234px; height: 230px; margin-top: -50px;""><div style=""display: flex; justify-content: space-between; margin-top: 33px;""><img src=""images/choice_trial_13.png"" style=""width: 408px; height: 417px; margin-right: 608px;""></div></div>",,delaylearn,learning,display_response,0as1LruXGrgcYPIqHi2ZL33ZIk02,0as1LruXGrgcYPIqHi2ZL33ZIk02,,,,,,,,,,,,,,,,,chosen stimuli: images/choice_trial_13.png,,,,,62ce9f115a24ca323371d2dc,09:08:01,27/02/2024
html-keyboard-response,54,127474,0.0-24.0-2.0,,,,delaylearn,learning,feedback_duration_window,0as1LruXGrgcYPIqHi2ZL33ZIk02,0as1LruXGrgcYPIqHi2ZL33ZIk02,,,,,,,,,,,,,,,,,,750.0,,,,62ce9f115a24ca323371d2dc,09:08:01,27/02/2024
html-keyboard-response,55,128974,0.0-24.0-3.0,,<div style='margin:auto;width: auto; font-size: 150%'><span style='font-weight: bold; font-size: 100px; color: red;'>0 points!</span><br><br></div>,,delaylearn,learning,feedback_image_window,0as1LruXGrgcYPIqHi2ZL33ZIk02,0as1LruXGrgcYPIqHi2ZL33ZIk02,,,,,,,,,,,,,,,,,,,,,,62ce9f115a24ca323371d2dc,09:08:01,27/02/2024
html-keyboard-response,56,131227,0.0-25.0,,"<div style=""font-size:100px;"">+</div>",,delaylearn,learning,ITI,0as1LruXGrgcYPIqHi2ZL33ZIk02,0as1LruXGrgcYPIqHi2ZL33ZIk02,,,,,,,,,,,,,,,,,,,2251.0,,,62ce9f115a24ca323371d2dc,09:08:01,27/02/2024
html-keyboard-response,57,132448,0.0-26.0-0.0,1220.0,"<div style=""display: flex; flex-direction: column; align-items: center; margin-top: -40px;""><img src=""images/pattern_6.png"" style=""width: 234px; height: 230px; margin-top: -50px;""><div style=""display: flex; justify-content: space-between; margin-top: 33px;""><img src=""images/choice_trial_14.png"" style=""width: 408px; height: 417px; margin-right: 200px;""><img src=""images/choice_trial_9.png"" style=""width: 408px; height: 417px;""></div></div>",j,delaylearn,learning,trial,0as1LruXGrgcYPIqHi2ZL33ZIk02,0as1LruXGrgcYPIqHi2ZL33ZIk02,5.0,images/choice_trial_14.png,images/choice_trial_9.png,images/pattern_6.png,j,f,750.0,14.0,9.0,5.0,0.0,11.0,0.0,1.0,9.0,60.0,,,,,,62ce9f115a24ca323371d2dc,09:08:01,27/02/2024
html-keyboard-response,58,133449,0.0-26.0-1.0,,"<div style=""display: flex; flex-direction: column; align-items: center; margin-top: -40px;""><img src=""images/pattern_6.png"" style=""width: 234px; height: 230px; margin-top: -50px;""><div style=""display: flex; justify-content: space-between; margin-top: 33px;""><img src=""images/choice_trial_9.png"" style=""width: 408px; height: 417px; margin-left:608px;""></div></div>",,delaylearn,learning,display_response,0as1LruXGrgcYPIqHi2ZL33ZIk02,0as1LruXGrgcYPIqHi2ZL33ZIk02,,,,,,,,,,,,,,,,,chosen stimuli: images/choice_trial_9.png,,,,,62ce9f115a24ca323371d2dc,09:08:01,27/02/2024
html-keyboard-response,59,134202,0.0-26.0-2.0,,,,delaylearn,learning,feedback_duration_window,0as1LruXGrgcYPIqHi2ZL33ZIk02,0as1LruXGrgcYPIqHi2ZL33ZIk02,,,,,,,,,,,,,,,,,,750.0,,,,62ce9f115a24ca323371d2dc,09:08:01,27/02/2024
html-keyboard-response,60,135703,0.0-26.0-3.0,,<div style='margin:auto;width: auto; font-size: 150%'><span style='font-weight: bold; font-size: 100px; color: green;'>+10 points!</span><br><br></div>,,delaylearn,learning,feedback_image_window,0as1LruXGrgcYPIqHi2ZL33ZIk02,0as1LruXGrgcYPIqHi2ZL33ZIk02,,,,,,,,,,,,,,,,,,,,,,62ce9f115a24ca323371d2dc,09:08:01,27/02/2024
html-keyboard-response,61,136204,0.0-27.0-0.0,,,,,,mood_trial_fixation,0as1LruXGrgcYPIqHi2ZL33ZIk02,,,,,,,,,,,,,,,,,,,,,,,62ce9f115a24ca323371d2dc,09:08:01,27/02/2024
lmdlab-html-vas-response,62,140419,0.0-27.0-1.0,3212.0,How happy are you right now?,0.5401234567901234,delaylearn,learning,mood_trial,0as1LruXGrgcYPIqHi2ZL33ZIk02,0as1LruXGrgcYPIqHi2ZL33ZIk02,,,,,,,,,,,,,,,,,,,,"['Very unhappy', 'Very happy']",,62ce9f115a24ca323371d2dc,09:08:01,27/02/2024
html-keyboard-response,63,142265,0.0-28.0,,"<div style=""font-size:100px;"">+</div>",,delaylearn,learning,ITI,0as1LruXGrgcYPIqHi2ZL33ZIk02,0as1LruXGrgcYPIqHi2ZL33ZIk02,,,,,,,,,,,,,,,,,,,1843.0,,,62ce9f115a24ca323371d2dc,09:08:01,27/02/2024
html-keyboard-response,64,143448,0.0-29.0-0.0,1181.0,"<div style=""display: flex; flex-direction: column; align-items: center; margin-top: -40px;""><img src=""images/pattern_1.png"" style=""width: 234px; height: 230px; margin-top: -50px;""><div style=""display: flex; justify-content: space-between; margin-top: 33px;""><img src=""images/choice_trial_15.png"" style=""width: 408px; height: 417px; margin-right: 200px;""><img src=""images/choice_trial_6.png"" style=""width: 408px; height: 417px;""></div></div>",f,delaylearn,learning,trial,0as1LruXGrgcYPIqHi2ZL33ZIk02,0as1LruXGrgcYPIqHi2ZL33ZIk02,5.0,images/choice_trial_15.png,images/choice_trial_6.png,images/pattern_1.png,j,j,7000.0,15.0,6.0,1.0,1.0,12.0,0.0,0.0,15.0,60.0,,,,,,62ce9f115a24ca323371d2dc,09:08:01,27/02/2024
html-keyboard-response,65,144449,0.0-29.0-1.0,,"<div style=""display: flex; flex-direction: column; align-items: center; margin-top: -40px;""><img src=""images/pattern_1.png"" style=""width: 234px; height: 230px; margin-top: -50px;""><div style=""display: flex; justify-content: space-between; margin-top: 33px;""><img src=""images/choice_trial_15.png"" style=""width: 408px; height: 417px; margin-right: 608px;""></div></div>",,delaylearn,learning,display_response,0as1LruXGrgcYPIqHi2ZL33ZIk02,0as1LruXGrgcYPIqHi2ZL33ZIk02,,,,,,,,,,,,,,,,,chosen stimuli: images/choice_trial_15.png,,,,,62ce9f115a24ca323371d2dc,09:08:01,27/02/2024
html-keyboard-response,66,151450,0.0-29.0-2.0,,,,delaylearn,learning,feedback_duration_window,0as1LruXGrgcYPIqHi2ZL33ZIk02,0as1LruXGrgcYPIqHi2ZL33ZIk02,,,,,,,,,,,,,,,,,,7000.0,,,,62ce9f115a24ca323371d2dc,09:08:01,27/02/2024
html-keyboard-response,67,152951,0.0-29.0-3.0,,<div style='margin:auto;width: auto; font-size: 150%'><span style='font-weight: bold; font-size: 100px; color: red;'>0 points!</span><br><br></div>,,delaylearn,learning,feedback_image_window,0as1LruXGrgcYPIqHi2ZL33ZIk02,0as1LruXGrgcYPIqHi2ZL33ZIk02,,,,,,,,,,,,,,,,,,,,,,62ce9f115a24ca323371d2dc,09:08:01,27/02/2024
html-keyboard-response,68,155290,0.0-30.0,,"<div style=""font-size:100px;"">+</div>",,delaylearn,learning,ITI,0as1LruXGrgcYPIqHi2ZL33ZIk02,0as1LruXGrgcYPIqHi2ZL33ZIk02,,,,,,,,,,,,,,,,,,,2338.0,,,62ce9f115a24ca323371d2dc,09:08:01,27/02/2024
html-keyboard-response,69,156320,0.0-31.0-0.0,1028.0,"<div style=""display: flex; flex-direction: column; align-items: center; margin-top: -40px;""><img src=""images/pattern_3.png"" style=""width: 234px; height: 230px; margin-top: -50px;""><div style=""display: flex; justify-content: space-between; margin-top: 33px;""><img src=""images/choice_trial_2.png"" style=""width: 408px; height: 417px; margin-right: 200px;""><img src=""images/choice_trial_16.png"" style=""width: 408px; height: 417px;""></div></div>",j,delaylearn,learning,trial,0as1LruXGrgcYPIqHi2ZL33ZIk02,0as1LruXGrgcYPIqHi2ZL33ZIk02,5.0,images/choice_trial_2.png,images/choice_trial_16.png,images/pattern_3.png,f,j,7000.0,2.0,16.0,2.0,1.0,13.0,1.0,0.0,16.0,60.0,,,,,,62ce9f115a24ca323371d2dc,09:08:01,27/02/2024
html-keyboard-response,70,157321,0.0-31.0-1.0,,"<div style=""display: flex; flex-direction: column; align-items: center; margin-top: -40px;""><img src=""images/pattern_3.png"" style=""width: 234px; height: 230px; margin-top: -50px;""><div style=""display: flex; justify-content: space-between; margin-top: 33px;""><img src=""images/choice_trial_16.png"" style=""width: 408px; height: 417px; margin-left:608px;""></div></div>",,delaylearn,learning,display_response,0as1LruXGrgcYPIqHi2ZL33ZIk02,0as1LruXGrgcYPIqHi2ZL33ZIk02,,,,,,,,,,,,,,,,,chosen stimuli: images/choice_trial_16.png,,,,,62ce9f115a24ca323371d2dc,09:08:01,27/02/2024
html-keyboard-response,71,164323,0.0-31.0-2.0,,,,delaylearn,learning,feedback_duration_window,0as1LruXGrgcYPIqHi2ZL33ZIk02,0as1LruXGrgcYPIqHi2ZL33ZIk02,,,,,,,,,,,,,,,,,,7000.0,,,,62ce9f115a24ca323371d2dc,09:08:01,27/02/2024
html-keyboard-response,72,165824,0.0-31.0-3.0,,<div style='margin:auto;width: auto; font-size: 150%'><span style='font-weight: bold; font-size: 100px; color: red;'>0 points!</span><br><br></div>,,delaylearn,learning,feedback_image_window,0as1LruXGrgcYPIqHi2ZL33ZIk02,0as1LruXGrgcYPIqHi2ZL33ZIk02,,,,,,,,,,,,,,,,,,,,,,62ce9f115a24ca323371d2dc,09:08:01,27/02/2024
html-keyboard-response,73,167852,0.0-32.0,,"<div style=""font-size:100px;"">+</div>",,delaylearn,learning,ITI,0as1LruXGrgcYPIqHi2ZL33ZIk02,0as1LruXGrgcYPIqHi2ZL33ZIk02,,,,,,,,,,,,,,,,,,,2026.0,,,62ce9f115a24ca323371d2dc,09:08:01,27/02/2024
html-keyboard-response,74,168865,0.0-33.0-0.0,1011.0,"<div style=""display: flex; flex-direction: column; align-items: center; margin-top: -40px;""><img src=""images/pattern_5.png"" style=""width: 234px; height: 230px; margin-top: -50px;""><div style=""display: flex; justify-content: space-between; margin-top: 33px;""><img src=""images/choice_trial_7.png"" style=""width: 408px; height: 417px; margin-right: 200px;""><img src=""images/choice_trial_13.png"" style=""width: 408px; height: 417px;""></div></div>",f,delaylearn,learning,trial,0as1LruXGrgcYPIqHi2ZL33ZIk02,0as1LruXGrgcYPIqHi2ZL33ZIk02,5.0,images/choice_trial_7.png,images/choice_trial_13.png,images/pattern_5.png,f,f,750.0,7.0,13.0,4.0,0.0,14.0,1.0,1.0,7.0,70.0,,,,,,62ce9f115a24ca323371d2dc,09:08:01,27/02/2024
html-keyboard-response,75,169866,0.0-33.0-1.0,,"<div style=""display: flex; flex-direction: column; align-items: center; margin-top: -40px;""><img src=""images/pattern_5.png"" style=""width: 234px; height: 230px; margin-top: -50px;""><div style=""display: flex; justify-content: space-between; margin-top: 33px;""><img src=""images/choice_trial_7.png"" style=""width: 408px; height: 417px; margin-right: 608px;""></div></div>",,delaylearn,learning,display_response,0as1LruXGrgcYPIqHi2ZL33ZIk02,0as1LruXGrgcYPIqHi2ZL33ZIk02,,,,,,,,,,,,,,,,,chosen stimuli: images/choice_trial_7.png,,,,,62ce9f115a24ca323371d2dc,09:08:01,27/02/2024
html-keyboard-response,76,170618,0.0-33.0-2.0,,,,delaylearn,learning,feedback_duration_window,0as1LruXGrgcYPIqHi2ZL33ZIk02,0as1LruXGrgcYPIqHi2ZL33ZIk02,,,,,,,,,,,,,,,,,,750.0,,,,62ce9f115a24ca323371d2dc,09:08:01,27/02/2024
html-keyboard-response,77,172118,0.0-33.0-3.0,,<div style='margin:auto;width: auto; font-size: 150%'><span style='font-weight: bold; font-size: 100px; color: green;'>+10 points!</span><br><br></div>,,delaylearn,learning,feedback_image_window,0as1LruXGrgcYPIqHi2ZL33ZIk02,0as1LruXGrgcYPIqHi2ZL33ZIk02,,,,,,,,,,,,,,,,,,,,,,62ce9f115a24ca323371d2dc,09:08:01,27/02/2024
html-keyboard-response,78,172619,0.0-34.0-0.0,,,,,,mood_trial_fixation,0as1LruXGrgcYPIqHi2ZL33ZIk02,,,,,,,,,,,,,,,,,,,,,,,62ce9f115a24ca323371d2dc,09:08:01,27/02/2024
lmdlab-html-vas-response,79,176743,0.0-34.0-1.0,3119.0,How happy are you right now?,0.6018518518518519,delaylearn,learning,mood_trial,0as1LruXGrgcYPIqHi2ZL33ZIk02,0as1LruXGrgcYPIqHi2ZL33ZIk02,,,,,,,,,,,,,,,,,,,,"['Very unhappy', 'Very happy']",,62ce9f115a24ca323371d2dc,09:08:01,27/02/2024
html-keyboard-response,80,179101,0.0-35.0,,"<div style=""font-size:100px;"">+</div>",,delaylearn,learning,ITI,0as1LruXGrgcYPIqHi2ZL33ZIk02,0as1LruXGrgcYPIqHi2ZL33ZIk02,,,,,,,,,,,,,,,,,,,2356.0,,,62ce9f115a24ca323371d2dc,09:08:01,27/02/2024
html-keyboard-response,81,180231,0.0-36.0-0.0,1129.0,"<div style=""display: flex; flex-direction: column; align-items: center; margin-top: -40px;""><img src=""images/pattern_6.png"" style=""width: 234px; height: 230px; margin-top: -50px;""><div style=""display: flex; justify-content: space-between; margin-top: 33px;""><img src=""images/choice_trial_14.png"" style=""width: 408px; height: 417px; margin-right: 200px;""><img src=""images/choice_trial_9.png"" style=""width: 408px; height: 417px;""></div></div>",j,delaylearn,learning,trial,0as1LruXGrgcYPIqHi2ZL33ZIk02,0as1LruXGrgcYPIqHi2ZL33ZIk02,5.0,images/choice_trial_14.png,images/choice_trial_9.png,images/pattern_6.png,f,f,750.0,14.0,9.0,5.0,0.0,15.0,0.0,0.0,9.0,70.0,,,,,,62ce9f115a24ca323371d2dc,09:08:01,27/02/2024
html-keyboard-response,82,181233,0.0-36.0-1.0,,"<div style=""display: flex; flex-direction: column; align-items: center; margin-top: -40px;""><img src=""images/pattern_6.png"" style=""width: 234px; height: 230px; margin-top: -50px;""><div style=""display: flex; justify-content: space-between; margin-top: 33px;""><img src=""images/choice_trial_9.png"" style=""width: 408px; height: 417px; margin-left:608px;""></div></div>",,delaylearn,learning,display_response,0as1LruXGrgcYPIqHi2ZL33ZIk02,0as1LruXGrgcYPIqHi2ZL33ZIk02,,,,,,,,,,,,,,,,,chosen stimuli: images/choice_trial_9.png,,,,,62ce9f115a24ca323371d2dc,09:08:01,27/02/2024
html-keyboard-response,83,181984,0.0-36.0-2.0,,,,delaylearn,learning,feedback_duration_window,0as1LruXGrgcYPIqHi2ZL33ZIk02,0as1LruXGrgcYPIqHi2ZL33ZIk02,,,,,,,,,,,,,,,,,,750.0,,,,62ce9f115a24ca323371d2dc,09:08:01,27/02/2024
html-keyboard-response,84,183485,0.0-36.0-3.0,,<div style='margin:auto;width: auto; font-size: 150%'><span style='font-weight: bold; font-size: 100px; color: red;'>0 points!</span><br><br></div>,,delaylearn,learning,feedback_image_window,0as1LruXGrgcYPIqHi2ZL33ZIk02,0as1LruXGrgcYPIqHi2ZL33ZIk02,,,,,,,,,,,,,,,,,,,,,,62ce9f115a24ca323371d2dc,09:08:01,27/02/2024
html-keyboard-response,85,185403,0.0-37.0,,"<div style=""font-size:100px;"">+</div>",,delaylearn,learning,ITI,0as1LruXGrgcYPIqHi2ZL33ZIk02,0as1LruXGrgcYPIqHi2ZL33ZIk02,,,,,,,,,,,,,,,,,,,1917.0,,,62ce9f115a24ca323371d2dc,09:08:01,27/02/2024
html-keyboard-response,86,186695,0.0-38.0-0.0,1289.0,"<div style=""display: flex; flex-direction: column; align-items: center; margin-top: -40px;""><img src=""images/pattern_4.png"" style=""width: 234px; height: 230px; margin-top: -50px;""><div style=""display: flex; justify-content: space-between; margin-top: 33px;""><img src=""images/choice_trial_4.png"" style=""width: 408px; height: 417px; margin-right: 200px;""><img src=""images/choice_trial_11.png"" style=""width: 408px; height: 417px;""></div></div>",f,delaylearn,learning,trial,0as1LruXGrgcYPIqHi2ZL33ZIk02,0as1LruXGrgcYPIqHi2ZL33ZIk02,5.0,images/choice_trial_4.png,images/choice_trial_11.png,images/pattern_4.png,j,j,7000.0,4.0,11.0,3.0,1.0,16.0,0.0,0.0,4.0,70.0,,,,,,62ce9f115a24ca323371d2dc,09:08:01,27/02/2024
html-keyboard-response,87,187696,0.0-38.0-1.0,,"<div style=""display: flex; flex-direction: column; align-items: center; margin-top: -40px;""><img src=""images/pattern_4.png"" style=""width: 234px; height: 230px; margin-top: -50px;""><div style=""display: flex; justify-content: space-between; margin-top: 33px;""><img src=""images/choice_trial_4.png"" style=""width: 408px; height: 417px; margin-right: 608px;""></div></div>",,delaylearn,learning,display_response,0as1LruXGrgcYPIqHi2ZL33ZIk02,0as1LruXGrgcYPIqHi2ZL33ZIk02,,,,,,,,,,,,,,,,,chosen stimuli: images/choice_trial_4.png,,,,,62ce9f115a24ca323371d2dc,09:08:01,27/02/2024
html-keyboard-response,88,194697,0.0-38.0-2.0,,,,delaylearn,learning,feedback_duration_window,0as1LruXGrgcYPIqHi2ZL33ZIk02,0as1LruXGrgcYPIqHi2ZL33ZIk02,,,,,,,,,,,,,,,,,,7000.0,,,,62ce9f115a24ca323371d2dc,09:08:01,27/02/2024
html-keyboard-response,89,196199,0.0-38.0-3.0,,<div style='margin:auto;width: auto; font-size: 150%'><span style='font-weight: bold; font-size: 100px; color: red;'>0 points!</span><br><br></div>,,delaylearn,learning,feedback_image_window,0as1LruXGrgcYPIqHi2ZL33ZIk02,0as1LruXGrgcYPIqHi2ZL33ZIk02,,,,,,,,,,,,,,,,,,,,,,62ce9f115a24ca323371d2dc,09:08:01,27/02/2024
html-keyboard-response,90,198262,0.0-39.0,,"<div style=""font-size:100px;"">+</div>",,delaylearn,learning,ITI,0as1LruXGrgcYPIqHi2ZL33ZIk02,0as1LruXGrgcYPIqHi2ZL33ZIk02,,,,,,,,,,,,,,,,,,,2062.0,,,62ce9f115a24ca323371d2dc,09:08:01,27/02/2024
html-keyboard-response,91,199326,0.0-40.0-0.0,1063.0,"<div style=""display: flex; flex-direction: column; align-items: center; margin-top: -40px;""><img src=""images/pattern_7.png"" style=""width: 234px; height: 230px; margin-top: -50px;""><div style=""display: flex; justify-content: space-between; margin-top: 33px;""><img src=""images/choice_trial_8.png"" style=""width: 408px; height: 417px; margin-right: 200px;""><img src=""images/choice_trial_10.png"" style=""width: 408px; height: 417px;""></div></div>",j,delaylearn,learning,trial,0as1LruXGrgcYPIqHi2ZL33ZIk02,0as1LruXGrgcYPIqHi2ZL33ZIk02,5.0,images/choice_trial_8.png,images/choice_trial_10.png,images/pattern_7.png,j,f,750.0,8.0,10.0,6.0,0.0,17.0,0.0,1.0,10.0,80.0,,,,,,62ce9f115a24ca323371d2dc,09:08:01,27/02/2024
html-keyboard-response,92,200328,0.0-40.0-1.0,,"<div style=""display: flex; flex-direction: column; align-items: center; margin-top: -40px;""><img src=""images/pattern_7.png"" style=""width: 234px; height: 230px; margin-top: -50px;""><div style=""display: flex; justify-content: space-between; margin-top: 33px;""><img src=""images/choice_trial_10.png"" style=""width: 408px; height: 417px; margin-left:608px;""></div></div>",,delaylearn,learning,display_response,0as1LruXGrgcYPIqHi2ZL33ZIk02,0as1LruXGrgcYPIqHi2ZL33ZIk02,,,,,,,,,,,,,,,,,chosen stimuli: images/choice_trial_10.png,,,,,62ce9f115a24ca323371d2dc,09:08:01,27/02/2024
html-keyboard-response,93,201078,0.0-40.0-2.0,,,,delaylearn,learning,feedback_duration_window,0as1LruXGrgcYPIqHi2ZL33ZIk02,0as1LruXGrgcYPIqHi2ZL33ZIk02,,,,,,,,,,,,,,,,,,750.0,,,,62ce9f115a24ca323371d2dc,09:08:01,27/02/2024
html-keyboard-response,94,202578,0.0-40.0-3.0,,<div style='margin:auto;width: auto; font-size: 150%'><span style='font-weight: bold; font-size: 100px; color: green;'>+10 points!</span><br><br></div>,,delaylearn,learning,feedback_image_window,0as1LruXGrgcYPIqHi2ZL33ZIk02,0as1LruXGrgcYPIqHi2ZL33ZIk02,,,,,,,,,,,,,,,,,,,,,,62ce9f115a24ca323371d2dc,09:08:01,27/02/2024
html-keyboard-response,95,205002,0.0-41.0,,"<div style=""font-size:100px;"">+</div>",,delaylearn,learning,ITI,0as1LruXGrgcYPIqHi2ZL33ZIk02,0as1LruXGrgcYPIqHi2ZL33ZIk02,,,,,,,,,,,,,,,,,,,2422.0,,,62ce9f115a24ca323371d2dc,09:08:01,27/02/2024
html-keyboard-response,96,206135,0.0-42.0-0.0,1132.0,"<div style=""display: flex; flex-direction: column; align-items: center; margin-top: -40px;""><img src=""images/pattern_1.png"" style=""width: 234px; height: 230px; margin-top: -50px;""><div style=""display: flex; justify-content: space-between; margin-top: 33px;""><img src=""images/choice_trial_6.png"" style=""width: 408px; height: 417px; margin-right: 200px;""><img src=""images/choice_trial_15.png"" style=""width: 408px; height: 417px;""></div></div>",j,delaylearn,learning,trial,0as1LruXGrgcYPIqHi2ZL33ZIk02,0as1LruXGrgcYPIqHi2ZL33ZIk02,5.0,images/choice_trial_6.png,images/choice_trial_15.png,images/pattern_1.png,f,f,7000.0,6.0,15.0,1.0,0.0,18.0,0.0,0.0,15.0,80.0,,,,,,62ce9f115a24ca323371d2dc,09:08:01,27/02/2024
html-keyboard-response,97,207136,0.0-42.0-1.0,,"<div style=""display: flex; flex-direction: column; align-items: center; margin-top: -40px;""><img src=""images/pattern_1.png"" style=""width: 234px; height: 230px; margin-top: -50px;""><div style=""display: flex; justify-content: space-between; margin-top: 33px;""><img src=""images/choice_trial_15.png"" style=""width: 408px; height: 417px; margin-left:608px;""></div></div>",,delaylearn,learning,display_response,0as1LruXGrgcYPIqHi2ZL33ZIk02,0as1LruXGrgcYPIqHi2ZL33ZIk02,,,,,,,,,,,,,,,,,chosen stimuli: images/choice_trial_15.png,,,,,62ce9f115a24ca323371d2dc,09:08:01,27/02/2024
html-keyboard-response,98,214137,0.0-42.0-2.0,,,,delaylearn,learning,feedback_duration_window,0as1LruXGrgcYPIqHi2ZL33ZIk02,0as1LruXGrgcYPIqHi2ZL33ZIk02,,,,,,,,,,,,,,,,,,7000.0,,,,62ce9f115a24ca323371d2dc,09:08:01,27/02/2024
html-keyboard-response,99,215638,0.0-42.0-3.0,,<div style='margin:auto;width: auto; font-size: 150%'><span style='font-weight: bold; font-size: 100px; color: red;'>0 points!</span><br><br></div>,,delaylearn,learning,feedback_image_window,0as1LruXGrgcYPIqHi2ZL33ZIk02,0as1LruXGrgcYPIqHi2ZL33ZIk02,,,,,,,,,,,,,,,,,,,,,,62ce9f115a24ca323371d2dc,09:08:01,27/02/2024
html-keyboard-response,100,217217,0.0-43.0,,"<div style=""font-size:100px;"">+</div>",,delaylearn,learning,ITI,0as1LruXGrgcYPIqHi2ZL33ZIk02,0as1LruXGrgcYPIqHi2ZL33ZIk02,,,,,,,,,,,,,,,,,,,1579.0,,,62ce9f115a24ca323371d2dc,09:08:01,27/02/2024
html-keyboard-response,101,218319,0.0-44.0-0.0,1099.0,"<div style=""display: flex; flex-direction: column; align-items: center; margin-top: -40px;""><img src=""images/pattern_6.png"" style=""width: 234px; height: 230px; margin-top: -50px;""><div style=""display: flex; justify-content: space-between; margin-top: 33px;""><img src=""images/choice_trial_9.png"" style=""width: 408px; height: 417px; margin-right: 200px;""><img src=""images/choice_trial_14.png"" style=""width: 408px; height: 417px;""></div></div>",f,delaylearn,learning,trial,0as1LruXGrgcYPIqHi2ZL33ZIk02,0as1LruXGrgcYPIqHi2ZL33ZIk02,5.0,images/choice_trial_9.png,images/choice_trial_14.png,images/pattern_6.png,j,j,750.0,9.0,14.0,5.0,1.0,19.0,0.0,0.0,9.0,80.0,,,,,,62ce9f115a24ca323371d2dc,09:08:01,27/02/2024
html-keyboard-response,102,219320,0.0-44.0-1.0,,"<div style=""display: flex; flex-direction: column; align-items: center; margin-top: -40px;""><img src=""images/pattern_6.png"" style=""width: 234px; height: 230px; margin-top: -50px;""><div style=""display: flex; justify-content: space-between; margin-top: 33px;""><img src=""images/choice_trial_9.png"" style=""width: 408px; height: 417px; margin-right: 608px;""></div></div>",,delaylearn,learning,display_response,0as1LruXGrgcYPIqHi2ZL33ZIk02,0as1LruXGrgcYPIqHi2ZL33ZIk02,,,,,,,,,,,,,,,,,chosen stimuli: images/choice_trial_9.png,,,,,62ce9f115a24ca323371d2dc,09:08:01,27/02/2024
html-keyboard-response,103,220070,0.0-44.0-2.0,,,,delaylearn,learning,feedback_duration_window,0as1LruXGrgcYPIqHi2ZL33ZIk02,0as1LruXGrgcYPIqHi2ZL33ZIk02,,,,,,,,,,,,,,,,,,750.0,,,,62ce9f115a24ca323371d2dc,09:08:01,27/02/2024
html-keyboard-response,104,221571,0.0-44.0-3.0,,<div style='margin:auto;width: auto; font-size: 150%'><span style='font-weight: bold; font-size: 100px; color: red;'>0 points!</span><br><br></div>,,delaylearn,learning,feedback_image_window,0as1LruXGrgcYPIqHi2ZL33ZIk02,0as1LruXGrgcYPIqHi2ZL33ZIk02,,,,,,,,,,,,,,,,,,,,,,62ce9f115a24ca323371d2dc,09:08:01,27/02/2024
html-keyboard-response,105,223372,0.0-45.0,,"<div style=""font-size:100px;"">+</div>",,delaylearn,learning,ITI,0as1LruXGrgcYPIqHi2ZL33ZIk02,0as1LruXGrgcYPIqHi2ZL33ZIk02,,,,,,,,,,,,,,,,,,,1801.0,,,62ce9f115a24ca323371d2dc,09:08:01,27/02/2024
html-keyboard-response,106,224382,0.0-46.0-0.0,1008.0,"<div style=""display: flex; flex-direction: column; align-items: center; margin-top: -40px;""><img src=""images/pattern_4.png"" style=""width: 234px; height: 230px; margin-top: -50px;""><div style=""display: flex; justify-content: space-between; margin-top: 33px;""><img src=""images/choice_trial_11.png"" style=""width: 408px; height: 417px; margin-right: 200px;""><img src=""images/choice_trial_4.png"" style=""width: 408px; height: 417px;""></div></div>",f,delaylearn,learning,trial,0as1LruXGrgcYPIqHi2ZL33ZIk02,0as1LruXGrgcYPIqHi2ZL33ZIk02,5.0,images/choice_trial_11.png,images/choice_trial_4.png,images/pattern_4.png,f,f,7000.0,11.0,4.0,3.0,0.0,20.0,1.0,1.0,11.0,90.0,,,,,,62ce9f115a24ca323371d2dc,09:08:01,27/02/2024
html-keyboard-response,107,225383,0.0-46.0-1.0,,"<div style=""display: flex; flex-direction: column; align-items: center; margin-top: -40px;""><img src=""images/pattern_4.png"" style=""width: 234px; height: 230px; margin-top: -50px;""><div style=""display: flex; justify-content: space-between; margin-top: 33px;""><img src=""images/choice_trial_11.png"" style=""width: 408px; height: 417px; margin-right: 608px;""></div></div>",,delaylearn,learning,display_response,0as1LruXGrgcYPIqHi2ZL33ZIk02,0as1LruXGrgcYPIqHi2ZL33ZIk02,,,,,,,,,,,,,,,,,chosen stimuli: images/choice_trial_11.png,,,,,62ce9f115a24ca323371d2dc,09:08:01,27/02/2024
html-keyboard-response,108,232384,0.0-46.0-2.0,,,,delaylearn,learning,feedback_duration_window,0as1LruXGrgcYPIqHi2ZL33ZIk02,0as1LruXGrgcYPIqHi2ZL33ZIk02,,,,,,,,,,,,,,,,,,7000.0,,,,62ce9f115a24ca323371d2dc,09:08:01,27/02/2024
html-keyboard-response,109,233885,0.0-46.0-3.0,,<div style='margin:auto;width: auto; font-size: 150%'><span style='font-weight: bold; font-size: 100px; color: green;'>+10 points!</span><br><br></div>,,delaylearn,learning,feedback_image_window,0as1LruXGrgcYPIqHi2ZL33ZIk02,0as1LruXGrgcYPIqHi2ZL33ZIk02,,,,,,,,,,,,,,,,,,,,,,62ce9f115a24ca323371d2dc,09:08:01,27/02/2024
html-keyboard-response,110,234388,0.0-47.0-0.0,,,,,,mood_trial_fixation,0as1LruXGrgcYPIqHi2ZL33ZIk02,,,,,,,,,,,,,,,,,,,,,,,62ce9f115a24ca323371d2dc,09:08:01,27/02/2024
lmdlab-html-vas-response,111,238215,0.0-47.0-1.0,2823.0,How happy are you right now?,0.6018518518518519,delaylearn,learning,mood_trial,0as1LruXGrgcYPIqHi2ZL33ZIk02,0as1LruXGrgcYPIqHi2ZL33ZIk02,,,,,,,,,,,,,,,,,,,,"['Very unhappy', 'Very happy']",,62ce9f115a24ca323371d2dc,09:08:01,27/02/2024
html-keyboard-response,112,240541,0.0-48.0,,"<div style=""font-size:100px;"">+</div>",,delaylearn,learning,ITI,0as1LruXGrgcYPIqHi2ZL33ZIk02,0as1LruXGrgcYPIqHi2ZL33ZIk02,,,,,,,,,,,,,,,,,,,2324.0,,,62ce9f115a24ca323371d2dc,09:08:01,27/02/2024
html-keyboard-response,113,241542,0.0-49.0-0.0,999.0,"<div style=""display: flex; flex-direction: column; align-items: center; margin-top: -40px;""><img src=""images/pattern_7.png"" style=""width: 234px; height: 230px; margin-top: -50px;""><div style=""display: flex; justify-content: space-between; margin-top: 33px;""><img src=""images/choice_trial_10.png"" style=""width: 408px; height: 417px; margin-right: 200px;""><img src=""images/choice_trial_8.png"" style=""width: 408px; height: 417px;""></div></div>",f,delaylearn,learning,trial,0as1LruXGrgcYPIqHi2ZL33ZIk02,0as1LruXGrgcYPIqHi2ZL33ZIk02,5.0,images/choice_trial_10.png,images/choice_trial_8.png,images/pattern_7.png,j,j,750.0,10.0,8.0,6.0,1.0,21.0,0.0,0.0,10.0,90.0,,,,,,62ce9f115a24ca323371d2dc,09:08:01,27/02/2024
html-keyboard-response,114,242543,0.0-49.0-1.0,,"<div style=""display: flex; flex-direction: column; align-items: center; margin-top: -40px;""><img src=""images/pattern_7.png"" style=""width: 234px; height: 230px; margin-top: -50px;""><div style=""display: flex; justify-content: space-between; margin-top: 33px;""><img src=""images/choice_trial_10.png"" style=""width: 408px; height: 417px; margin-right: 608px;""></div></div>",,delaylearn,learning,display_response,0as1LruXGrgcYPIqHi2ZL33ZIk02,0as1LruXGrgcYPIqHi2ZL33ZIk02,,,,,,,,,,,,,,,,,chosen stimuli: images/choice_trial_10.png,,,,,62ce9f115a24ca323371d2dc,09:08:01,27/02/2024
html-keyboard-response,115,243295,0.0-49.0-2.0,,,,delaylearn,learning,feedback_duration_window,0as1LruXGrgcYPIqHi2ZL33ZIk02,0as1LruXGrgcYPIqHi2ZL33ZIk02,,,,,,,,,,,,,,,,,,750.0,,,,62ce9f115a24ca323371d2dc,09:08:01,27/02/2024
html-keyboard-response,116,244798,0.0-49.0-3.0,,<div style='margin:auto;width: auto; font-size: 150%'><span style='font-weight: bold; font-size: 100px; color: red;'>0 points!</span><br><br></div>,,delaylearn,learning,feedback_image_window,0as1LruXGrgcYPIqHi2ZL33ZIk02,0as1LruXGrgcYPIqHi2ZL33ZIk02,,,,,,,,,,,,,,,,,,,,,,62ce9f115a24ca323371d2dc,09:08:01,27/02/2024
html-keyboard-response,117,246555,0.0-50.0,,"<div style=""font-size:100px;"">+</div>",,delaylearn,learning,ITI,0as1LruXGrgcYPIqHi2ZL33ZIk02,0as1LruXGrgcYPIqHi2ZL33ZIk02,,,,,,,,,,,,,,,,,,,1757.0,,,62ce9f115a24ca323371d2dc,09:08:01,27/02/2024
html-keyboard-response,118,247621,0.0-51.0-0.0,1064.0,"<div style=""display: flex; flex-direction: column; align-items: center; margin-top: -40px;""><img src=""images/pattern_1.png"" style=""width: 234px; height: 230px; margin-top: -50px;""><div style=""display: flex; justify-content: space-between; margin-top: 33px;""><img src=""images/choice_trial_15.png"" style=""width: 408px; height: 417px; margin-right: 200px;""><img src=""images/choice_trial_6.png"" style=""width: 408px; height: 417px;""></div></div>",j,delaylearn,learning,trial,0as1LruXGrgcYPIqHi2ZL33ZIk02,0as1LruXGrgcYPIqHi2ZL33ZIk02,5.0,images/choice_trial_15.png,images/choice_trial_6.png,images/pattern_1.png,f,j,7000.0,15.0,6.0,1.0,1.0,22.0,1.0,0.0,6.0,90.0,,,,,,62ce9f115a24ca323371d2dc,09:08:01,27/02/2024
html-keyboard-response,119,248623,0.0-51.0-1.0,,"<div style=""display: flex; flex-direction: column; align-items: center; margin-top: -40px;""><img src=""images/pattern_1.png"" style=""width: 234px; height: 230px; margin-top: -50px;""><div style=""display: flex; justify-content: space-between; margin-top: 33px;""><img src=""images/choice_trial_6.png"" style=""width: 408px; height: 417px; margin-left:608px;""></div></div>",,delaylearn,learning,display_response,0as1LruXGrgcYPIqHi2ZL33ZIk02,0as1LruXGrgcYPIqHi2ZL33ZIk02,,,,,,,,,,,,,,,,,chosen stimuli: images/choice_trial_6.png,,,,,62ce9f115a24ca323371d2dc,09:08:01,27/02/2024
html-keyboard-response,120,255623,0.0-51.0-2.0,,,,delaylearn,learning,feedback_duration_window,0as1LruXGrgcYPIqHi2ZL33ZIk02,0as1LruXGrgcYPIqHi2ZL33ZIk02,,,,,,,,,,,,,,,,,,7000.0,,,,62ce9f115a24ca323371d2dc,09:08:01,27/02/2024
html-keyboard-response,121,257124,0.0-51.0-3.0,,<div style='margin:auto;width: auto; font-size: 150%'><span style='font-weight: bold; font-size: 100px; color: red;'>0 points!</span><br><br></div>,,delaylearn,learning,feedback_image_window,0as1LruXGrgcYPIqHi2ZL33ZIk02,0as1LruXGrgcYPIqHi2ZL33ZIk02,,,,,,,,,,,,,,,,,,,,,,62ce9f115a24ca323371d2dc,09:08:01,27/02/2024
html-keyboard-response,122,259310,0.0-52.0,,"<div style=""font-size:100px;"">+</div>",,delaylearn,learning,ITI,0as1LruXGrgcYPIqHi2ZL33ZIk02,0as1LruXGrgcYPIqHi2ZL33ZIk02,,,,,,,,,,,,,,,,,,,2184.0,,,62ce9f115a24ca323371d2dc,09:08:01,27/02/2024
html-keyboard-response,123,260477,0.0-53.0-0.0,1167.0,"<div style=""display: flex; flex-direction: column; align-items: center; margin-top: -40px;""><img src=""images/pattern_5.png"" style=""width: 234px; height: 230px; margin-top: -50px;""><div style=""display: flex; justify-content: space-between; margin-top: 33px;""><img src=""images/choice_trial_13.png"" style=""width: 408px; height: 417px; margin-right: 200px;""><img src=""images/choice_trial_7.png"" style=""width: 408px; height: 417px;""></div></div>",j,delaylearn,learning,trial,0as1LruXGrgcYPIqHi2ZL33ZIk02,0as1LruXGrgcYPIqHi2ZL33ZIk02,5.0,images/choice_trial_13.png,images/choice_trial_7.png,images/pattern_5.png,j,j,750.0,13.0,7.0,4.0,1.0,23.0,1.0,1.0,7.0,100.0,,,,,,62ce9f115a24ca323371d2dc,09:08:01,27/02/2024
html-keyboard-response,124,261479,0.0-53.0-1.0,,"<div style=""display: flex; flex-direction: column; align-items: center; margin-top: -40px;""><img src=""images/pattern_5.png"" style=""width: 234px; height: 230px; margin-top: -50px;""><div style=""display: flex; justify-content: space-between; margin-top: 33px;""><img src=""images/choice_trial_7.png"" style=""width: 408px; height: 417px; margin-left:608px;""></div></div>",,delaylearn,learning,display_response,0as1LruXGrgcYPIqHi2ZL33ZIk02,0as1LruXGrgcYPIqHi2ZL33ZIk02,,,,,,,,,,,,,,,,,chosen stimuli: images/choice_trial_7.png,,,,,62ce9f115a24ca323371d2dc,09:08:01,27/02/2024
html-keyboard-response,125,262230,0.0-53.0-2.0,,,,delaylearn,learning,feedback_duration_window,0as1LruXGrgcYPIqHi2ZL33ZIk02,0as1LruXGrgcYPIqHi2ZL33ZIk02,,,,,,,,,,,,,,,,,,750.0,,,,62ce9f115a24ca323371d2dc,09:08:01,27/02/2024
html-keyboard-response,126,263730,0.0-53.0-3.0,,<div style='margin:auto;width: auto; font-size: 150%'><span style='font-weight: bold; font-size: 100px; color: green;'>+10 points!</span><br><br></div>,,delaylearn,learning,feedback_image_window,0as1LruXGrgcYPIqHi2ZL33ZIk02,0as1LruXGrgcYPIqHi2ZL33ZIk02,,,,,,,,,,,,,,,,,,,,,,62ce9f115a24ca323371d2dc,09:08:01,27/02/2024
html-keyboard-response,127,265256,0.0-54.0,,"<div style=""font-size:100px;"">+</div>",,delaylearn,learning,ITI,0as1LruXGrgcYPIqHi2ZL33ZIk02,0as1LruXGrgcYPIqHi2ZL33ZIk02,,,,,,,,,,,,,,,,,,,1524.0,,,62ce9f115a24ca323371d2dc,09:08:01,27/02/2024
html-keyboard-response,128,266477,0.0-55.0-0.0,1219.0,"<div style=""display: flex; flex-direction: column; align-items: center; margin-top: -40px;""><img src=""images/pattern_3.png"" style=""width: 234px; height: 230px; margin-top: -50px;""><div style=""display: flex; justify-content: space-between; margin-top: 33px;""><img src=""images/choice_trial_2.png"" style=""width: 408px; height: 417px; margin-right: 200px;""><img src=""images/choice_trial_16.png"" style=""width: 408px; height: 417px;""></div></div>",f,delaylearn,learning,trial,0as1LruXGrgcYPIqHi2ZL33ZIk02,0as1LruXGrgcYPIqHi2ZL33ZIk02,5.0,images/choice_trial_2.png,images/choice_trial_16.png,images/pattern_3.png,j,j,7000.0,2.0,16.0,2.0,1.0,24.0,0.0,0.0,2.0,100.0,,,,,,62ce9f115a24ca323371d2dc,09:08:01,27/02/2024
html-keyboard-response,129,267478,0.0-55.0-1.0,,"<div style=""display: flex; flex-direction: column; align-items: center; margin-top: -40px;""><img src=""images/pattern_3.png"" style=""width: 234px; height: 230px; margin-top: -50px;""><div style=""display: flex; justify-content: space-between; margin-top: 33px;""><img src=""images/choice_trial_2.png"" style=""width: 408px; height: 417px; margin-right: 608px;""></div></div>",,delaylearn,learning,display_response,0as1LruXGrgcYPIqHi2ZL33ZIk02,0as1LruXGrgcYPIqHi2ZL33ZIk02,,,,,,,,,,,,,,,,,chosen stimuli: images/choice_trial_2.png,,,,,62ce9f115a24ca323371d2dc,09:08:01,27/02/2024
html-keyboard-response,130,274478,0.0-55.0-2.0,,,,delaylearn,learning,feedback_duration_window,0as1LruXGrgcYPIqHi2ZL33ZIk02,0as1LruXGrgcYPIqHi2ZL33ZIk02,,,,,,,,,,,,,,,,,,7000.0,,,,62ce9f115a24ca323371d2dc,09:08:01,27/02/2024
html-keyboard-response,131,275980,0.0-55.0-3.0,,<div style='margin:auto;width: auto; font-size: 150%'><span style='font-weight: bold; font-size: 100px; color: red;'>0 points!</span><br><br></div>,,delaylearn,learning,feedback_image_window,0as1LruXGrgcYPIqHi2ZL33ZIk02,0as1LruXGrgcYPIqHi2ZL33ZIk02,,,,,,,,,,,,,,,,,,,,,,62ce9f115a24ca323371d2dc,09:08:01,27/02/2024
lmdlab-html-vas-response,132,281880,0.0-56.0-0.0,4398.0,*How <b><u>confident</u></b> are you feeling about your answers at this moment?*,0.3950617283950617,rewlearn,rate_confidence,,0as1LruXGrgcYPIqHi2ZL33ZIk02,0as1LruXGrgcYPIqHi2ZL33ZIk02,,,,,,,,,,,,,,,,,,,,"['No confidence', 'Complete confidence']",,62ce9f115a24ca323371d2dc,09:08:01,27/02/2024
lmdlab-rest-trial-limit,133,294919,0.0-56.0-1.0,11537.0,"<div style=""font-size:40px;""><b>Please take a break!</b><br><br><br><br><p>Great work: you earned undefined points.<br><br><br><p>You have completed part(s) 1 of 6.<br><br><br><br>When you are ready to continue<br><br><br>please click the button.</p><br><br>",0,delaylearn,learning,break,0as1LruXGrgcYPIqHi2ZL33ZIk02,0as1LruXGrgcYPIqHi2ZL33ZIk02,,,,,,,,,,,,,,,,,,,,,0.0,62ce9f115a24ca323371d2dc,09:08:01,27/02/2024
html-keyboard-response,134,297921,0.0-56.0-2.0,,"<div style=""font-size:100px;"">+</div>",,delaylearn,learning,pre_fixation,0as1LruXGrgcYPIqHi2ZL33ZIk02,,,,,,,,,,,,,,,,,,,,,,,62ce9f115a24ca323371d2dc,09:08:01,27/02/2024
lmdlab-html-vas-response,135,301935,0.0-56.0-3.0-0.0,3011.0,How happy are you right now?,0.5509259259259259,delaylearn,learning,mood_baseline,0as1LruXGrgcYPIqHi2ZL33ZIk02,0as1LruXGrgcYPIqHi2ZL33ZIk02,,,,,,,,,,,,,,,,,,,,"['Very unhappy', 'Very happy']",,62ce9f115a24ca323371d2dc,09:08:01,27/02/2024
html-keyboard-response,136,303437,0.0-56.0-3.0-1.0,,,,,,mood_baseline_fixation,0as1LruXGrgcYPIqHi2ZL33ZIk02,,,,,,,,,,,,,,,,,,,,,,,62ce9f115a24ca323371d2dc,09:08:01,27/02/2024
html-keyboard-response,137,305640,0.0-57.0,,"<div style=""font-size:100px;"">+</div>",,delaylearn,learning,ITI,0as1LruXGrgcYPIqHi2ZL33ZIk02,0as1LruXGrgcYPIqHi2ZL33ZIk02,,,,,,,,,,,,,,,,,,,2203.0,,,62ce9f115a24ca323371d2dc,09:08:01,27/02/2024
html-keyboard-response,138,306637,0.0-58.0-0.0,994.0,"<div style=""display: flex; flex-direction: column; align-items: center; margin-top: -40px;""><img src=""images/pattern_7.png"" style=""width: 234px; height: 230px; margin-top: -50px;""><div style=""display: flex; justify-content: space-between; margin-top: 33px;""><img src=""images/choice_trial_10.png"" style=""width: 408px; height: 417px; margin-right: 200px;""><img src=""images/choice_trial_8.png"" style=""width: 408px; height: 417px;""></div></div>",j,delaylearn,learning,trial,0as1LruXGrgcYPIqHi2ZL33ZIk02,0as1LruXGrgcYPIqHi2ZL33ZIk02,5.0,images/choice_trial_10.png,images/choice_trial_8.png,images/pattern_7.png,j,j,750.0,10.0,8.0,6.0,1.0,25.0,1.0,1.0,8.0,110.0,,,,,,62ce9f115a24ca323371d2dc,09:08:01,27/02/2024
html-keyboard-response,139,307638,0.0-58.0-1.0,,"<div style=""display: flex; flex-direction: column; align-items: center; margin-top: -40px;""><img src=""images/pattern_7.png"" style=""width: 234px; height: 230px; margin-top: -50px;""><div style=""display: flex; justify-content: space-between; margin-top: 33px;""><img src=""images/choice_trial_8.png"" style=""width: 408px; height: 417px; margin-left:608px;""></div></div>",,delaylearn,learning,display_response,0as1LruXGrgcYPIqHi2ZL33ZIk02,0as1LruXGrgcYPIqHi2ZL33ZIk02,,,,,,,,,,,,,,,,,chosen stimuli: images/choice_trial_8.png,,,,,62ce9f115a24ca323371d2dc,09:08:01,27/02/2024
html-keyboard-response,140,308389,0.0-58.0-2.0,,,,delaylearn,learning,feedback_duration_window,0as1LruXGrgcYPIqHi2ZL33ZIk02,0as1LruXGrgcYPIqHi2ZL33ZIk02,,,,,,,,,,,,,,,,,,750.0,,,,62ce9f115a24ca323371d2dc,09:08:01,27/02/2024
html-keyboard-response,141,309890,0.0-58.0-3.0,,<div style='margin:auto;width: auto; font-size: 150%'><span style='font-weight: bold; font-size: 100px; color: green;'>+10 points!</span><br><br></div>,,delaylearn,learning,feedback_image_window,0as1LruXGrgcYPIqHi2ZL33ZIk02,0as1LruXGrgcYPIqHi2ZL33ZIk02,,,,,,,,,,,,,,,,,,,,,,62ce9f115a24ca323371d2dc,09:08:01,27/02/2024
html-keyboard-response,142,310390,0.0-59.0-0.0,,,,,,mood_trial_fixation,0as1LruXGrgcYPIqHi2ZL33ZIk02,,,,,,,,,,,,,,,,,,,,,,,62ce9f115a24ca323371d2dc,09:08:01,27/02/2024
lmdlab-html-vas-response,143,314639,0.0-59.0-1.0,3246.0,How happy are you right now?,0.5432098765432098,delaylearn,learning,mood_trial,0as1LruXGrgcYPIqHi2ZL33ZIk02,0as1LruXGrgcYPIqHi2ZL33ZIk02,,,,,,,,,,,,,,,,,,,,"['Very unhappy', 'Very happy']",,62ce9f115a24ca323371d2dc,09:08:01,27/02/2024
html-keyboard-response,144,316561,0.0-60.0,,"<div style=""font-size:100px;"">+</div>",,delaylearn,learning,ITI,0as1LruXGrgcYPIqHi2ZL33ZIk02,0as1LruXGrgcYPIqHi2ZL33ZIk02,,,,,,,,,,,,,,,,,,,1921.0,,,62ce9f115a24ca323371d2dc,09:08:01,27/02/2024
html-keyboard-response,145,317917,0.0-61.0-0.0,1355.0,"<div style=""display: flex; flex-direction: column; align-items: center; margin-top: -40px;""><img src=""images/pattern_1.png"" style=""width: 234px; height: 230px; margin-top: -50px;""><div style=""display: flex; justify-content: space-between; margin-top: 33px;""><img src=""images/choice_trial_6.png"" style=""width: 408px; height: 417px; margin-right: 200px;""><img src=""images/choice_trial_15.png"" style=""width: 408px; height: 417px;""></div></div>",j,delaylearn,learning,trial,0as1LruXGrgcYPIqHi2ZL33ZIk02,0as1LruXGrgcYPIqHi2ZL33ZIk02,5.0,images/choice_trial_6.png,images/choice_trial_15.png,images/pattern_1.png,f,f,7000.0,6.0,15.0,1.0,0.0,26.0,0.0,0.0,15.0,110.0,,,,,,62ce9f115a24ca323371d2dc,09:08:01,27/02/2024
html-keyboard-response,146,318918,0.0-61.0-1.0,,"<div style=""display: flex; flex-direction: column; align-items: center; margin-top: -40px;""><img src=""images/pattern_1.png"" style=""width: 234px; height: 230px; margin-top: -50px;""><div style=""display: flex; justify-content: space-between; margin-top: 33px;""><img src=""images/choice_trial_15.png"" style=""width: 408px; height: 417px; margin-left:608px;""></div></div>",,delaylearn,learning,display_response,0as1LruXGrgcYPIqHi2ZL33ZIk02,0as1LruXGrgcYPIqHi2ZL33ZIk02,,,,,,,,,,,,,,,,,chosen stimuli: images/choice_trial_15.png,,,,,62ce9f115a24ca323371d2dc,09:08:01,27/02/2024
html-keyboard-response,147,325919,0.0-61.0-2.0,,,,delaylearn,learning,feedback_duration_window,0as1LruXGrgcYPIqHi2ZL33ZIk02,0as1LruXGrgcYPIqHi2ZL33ZIk02,,,,,,,,,,,,,,,,,,7000.0,,,,62ce9f115a24ca323371d2dc,09:08:01,27/02/2024
html-keyboard-response,148,327420,0.0-61.0-3.0,,<div style='margin:auto;width: auto; font-size: 150%'><span style='font-weight: bold; font-size: 100px; color: red;'>0 points!</span><br><br></div>,,delaylearn,learning,feedback_image_window,0as1LruXGrgcYPIqHi2ZL33ZIk02,0as1LruXGrgcYPIqHi2ZL33ZIk02,,,,,,,,,,,,,,,,,,,,,,62ce9f115a24ca323371d2dc,09:08:01,27/02/2024
html-keyboard-response,149,329053,0.0-62.0,,"<div style=""font-size:100px;"">+</div>",,delaylearn,learning,ITI,0as1LruXGrgcYPIqHi2ZL33ZIk02,0as1LruXGrgcYPIqHi2ZL33ZIk02,,,,,,,,,,,,,,,,,,,1633.0,,,62ce9f115a24ca323371d2dc,09:08:01,27/02/2024
html-keyboard-response,150,330004,0.0-63.0-0.0,949.0,"<div style=""display: flex; flex-direction: column; align-items: center; margin-top: -40px;""><img src=""images/pattern_5.png"" style=""width: 234px; height: 230px; margin-top: -50px;""><div style=""display: flex; justify-content: space-between; margin-top: 33px;""><img src=""images/choice_trial_7.png"" style=""width: 408px; height: 417px; margin-right: 200px;""><img src=""images/choice_trial_13.png"" style=""width: 408px; height: 417px;""></div></div>",f,delaylearn,learning,trial,0as1LruXGrgcYPIqHi2ZL33ZIk02,0as1LruXGrgcYPIqHi2ZL33ZIk02,5.0,images/choice_trial_7.png,images/choice_trial_13.png,images/pattern_5.png,f,f,750.0,7.0,13.0,4.0,0.0,27.0,1.0,1.0,7.0,120.0,,,,,,62ce9f115a24ca323371d2dc,09:08:01,27/02/2024
html-keyboard-response,151,331005,0.0-63.0-1.0,,"<div style=""display: flex; flex-direction: column; align-items: center; margin-top: -40px;""><img src=""images/pattern_5.png"" style=""width: 234px; height: 230px; margin-top: -50px;""><div style=""display: flex; justify-content: space-between; margin-top: 33px;""><img src=""images/choice_trial_7.png"" style=""width: 408px; height: 417px; margin-right: 608px;""></div></div>",,delaylearn,learning,display_response,0as1LruXGrgcYPIqHi2ZL33ZIk02,0as1LruXGrgcYPIqHi2ZL33ZIk02,,,,,,,,,,,,,,,,,chosen stimuli: images/choice_trial_7.png,,,,,62ce9f115a24ca323371d2dc,09:08:01,27/02/2024
html-keyboard-response,152,331756,0.0-63.0-2.0,,,,delaylearn,learning,feedback_duration_window,0as1LruXGrgcYPIqHi2ZL33ZIk02,0as1LruXGrgcYPIqHi2ZL33ZIk02,,,,,,,,,,,,,,,,,,750.0,,,,62ce9f115a24ca323371d2dc,09:08:01,27/02/2024
html-keyboard-response,153,333258,0.0-63.0-3.0,,<div style='margin:auto;width: auto; font-size: 150%'><span style='font-weight: bold; font-size: 100px; color: green;'>+10 points!</span><br><br></div>,,delaylearn,learning,feedback_image_window,0as1LruXGrgcYPIqHi2ZL33ZIk02,0as1LruXGrgcYPIqHi2ZL33ZIk02,,,,,,,,,,,,,,,,,,,,,,62ce9f115a24ca323371d2dc,09:08:01,27/02/2024
html-keyboard-response,154,335513,0.0-64.0,,"<div style=""font-size:100px;"">+</div>",,delaylearn,learning,ITI,0as1LruXGrgcYPIqHi2ZL33ZIk02,0as1LruXGrgcYPIqHi2ZL33ZIk02,,,,,,,,,,,,,,,,,,,2255.0,,,62ce9f115a24ca323371d2dc,09:08:01,27/02/2024
html-keyboard-response,155,336309,0.0-65.0-0.0,793.0,"<div style=""display: flex; flex-direction: column; align-items: center; margin-top: -40px;""><img src=""images/pattern_6.png"" style=""width: 234px; height: 230px; margin-top: -50px;""><div style=""display: flex; justify-content: space-between; margin-top: 33px;""><img src=""images/choice_trial_9.png"" style=""width: 408px; height: 417px; margin-right: 200px;""><img src=""images/choice_trial_14.png"" style=""width: 408px; height: 417px;""></div></div>",j,delaylearn,learning,trial,0as1LruXGrgcYPIqHi2ZL33ZIk02,0as1LruXGrgcYPIqHi2ZL33ZIk02,5.0,images/choice_trial_9.png,images/choice_trial_14.png,images/pattern_6.png,j,j,750.0,9.0,14.0,5.0,1.0,28.0,1.0,1.0,14.0,130.0,,,,,,62ce9f115a24ca323371d2dc,09:08:01,27/02/2024
html-keyboard-response,156,337310,0.0-65.0-1.0,,"<div style=""display: flex; flex-direction: column; align-items: center; margin-top: -40px;""><img src=""images/pattern_6.png"" style=""width: 234px; height: 230px; margin-top: -50px;""><div style=""display: flex; justify-content: space-between; margin-top: 33px;""><img src=""images/choice_trial_14.png"" style=""width: 408px; height: 417px; margin-left:608px;""></div></div>",,delaylearn,learning,display_response,0as1LruXGrgcYPIqHi2ZL33ZIk02,0as1LruXGrgcYPIqHi2ZL33ZIk02,,,,,,,,,,,,,,,,,chosen stimuli: images/choice_trial_14.png,,,,,62ce9f115a24ca323371d2dc,09:08:01,27/02/2024
html-keyboard-response,157,338061,0.0-65.0-2.0,,,,delaylearn,learning,feedback_duration_window,0as1LruXGrgcYPIqHi2ZL33ZIk02,0as1LruXGrgcYPIqHi2ZL33ZIk02,,,,,,,,,,,,,,,,,,750.0,,,,62ce9f115a24ca323371d2dc,09:08:01,27/02/2024
html-keyboard-response,158,339563,0.0-65.0-3.0,,<div style='margin:auto;width: auto; font-size: 150%'><span style='font-weight: bold; font-size: 100px; color: green;'>+10 points!</span><br><br></div>,,delaylearn,learning,feedback_image_window,0as1LruXGrgcYPIqHi2ZL33ZIk02,0as1LruXGrgcYPIqHi2ZL33ZIk02,,,,,,,,,,,,,,,,,,,,,,62ce9f115a24ca323371d2dc,09:08:01,27/02/2024
html-keyboard-response,159,340065,0.0-66.0-0.0,,,,,,mood_trial_fixation,0as1LruXGrgcYPIqHi2ZL33ZIk02,,,,,,,,,,,,,,,,,,,,,,,62ce9f115a24ca323371d2dc,09:08:01,27/02/2024
lmdlab-html-vas-response,160,343924,0.0-66.0-1.0,2857.0,How happy are you right now?,0.6296296296296297,delaylearn,learning,mood_trial,0as1LruXGrgcYPIqHi2ZL33ZIk02,0as1LruXGrgcYPIqHi2ZL33ZIk02,,,,,,,,,,,,,,,,,,,,"['Very unhappy', 'Very happy']",,62ce9f115a24ca323371d2dc,09:08:01,27/02/2024
html-keyboard-response,161,345910,0.0-67.0,,"<div style=""font-size:100px;"">+</div>",,delaylearn,learning,ITI,0as1LruXGrgcYPIqHi2ZL33ZIk02,0as1LruXGrgcYPIqHi2ZL33ZIk02,,,,,,,,,,,,,,,,,,,1985.0,,,62ce9f115a24ca323371d2dc,09:08:01,27/02/2024
html-keyboard-response,162,346860,0.0-68.0-0.0,947.0,"<div style=""display: flex; flex-direction: column; align-items: center; margin-top: -40px;""><img src=""images/pattern_4.png"" style=""width: 234px; height: 230px; margin-top: -50px;""><div style=""display: flex; justify-content: space-between; margin-top: 33px;""><img src=""images/choice_trial_4.png"" style=""width: 408px; height: 417px; margin-right: 200px;""><img src=""images/choice_trial_11.png"" style=""width: 408px; height: 417px;""></div></div>",j,delaylearn,learning,trial,0as1LruXGrgcYPIqHi2ZL33ZIk02,0as1LruXGrgcYPIqHi2ZL33ZIk02,5.0,images/choice_trial_4.png,images/choice_trial_11.png,images/pattern_4.png,j,j,7000.0,4.0,11.0,3.0,1.0,29.0,1.0,1.0,11.0,140.0,,,,,,62ce9f115a24ca323371d2dc,09:08:01,27/02/2024
html-keyboard-response,163,347860,0.0-68.0-1.0,,"<div style=""display: flex; flex-direction: column; align-items: center; margin-top: -40px;""><img src=""images/pattern_4.png"" style=""width: 234px; height: 230px; margin-top: -50px;""><div style=""display: flex; justify-content: space-between; margin-top: 33px;""><img src=""images/choice_trial_11.png"" style=""width: 408px; height: 417px; margin-left:608px;""></div></div>",,delaylearn,learning,display_response,0as1LruXGrgcYPIqHi2ZL33ZIk02,0as1LruXGrgcYPIqHi2ZL33ZIk02,,,,,,,,,,,,,,,,,chosen stimuli: images/choice_trial_11.png,,,,,62ce9f115a24ca323371d2dc,09:08:01,27/02/2024
html-keyboard-response,164,354863,0.0-68.0-2.0,,,,delaylearn,learning,feedback_duration_window,0as1LruXGrgcYPIqHi2ZL33ZIk02,0as1LruXGrgcYPIqHi2ZL33ZIk02,,,,,,,,,,,,,,,,,,7000.0,,,,62ce9f115a24ca323371d2dc,09:08:01,27/02/2024
html-keyboard-response,165,356365,0.0-68.0-3.0,,<div style='margin:auto;width: auto; font-size: 150%'><span style='font-weight: bold; font-size: 100px; color: green;'>+10 points!</span><br><br></div>,,delaylearn,learning,feedback_image_window,0as1LruXGrgcYPIqHi2ZL33ZIk02,0as1LruXGrgcYPIqHi2ZL33ZIk02,,,,,,,,,,,,,,,,,,,,,,62ce9f115a24ca323371d2dc,09:08:01,27/02/2024
html-keyboard-response,166,358414,0.0-69.0,,"<div style=""font-size:100px;"">+</div>",,delaylearn,learning,ITI,0as1LruXGrgcYPIqHi2ZL33ZIk02,0as1LruXGrgcYPIqHi2ZL33ZIk02,,,,,,,,,,,,,,,,,,,2047.0,,,62ce9f115a24ca323371d2dc,09:08:01,27/02/2024
html-keyboard-response,167,359347,0.0-70.0-0.0,932.0,"<div style=""display: flex; flex-direction: column; align-items: center; margin-top: -40px;""><img src=""images/pattern_3.png"" style=""width: 234px; height: 230px; margin-top: -50px;""><div style=""display: flex; justify-content: space-between; margin-top: 33px;""><img src=""images/choice_trial_2.png"" style=""width: 408px; height: 417px; margin-right: 200px;""><img src=""images/choice_trial_16.png"" style=""width: 408px; height: 417px;""></div></div>",f,delaylearn,learning,trial,0as1LruXGrgcYPIqHi2ZL33ZIk02,0as1LruXGrgcYPIqHi2ZL33ZIk02,5.0,images/choice_trial_2.png,images/choice_trial_16.png,images/pattern_3.png,j,j,7000.0,2.0,16.0,2.0,1.0,30.0,0.0,0.0,2.0,140.0,,,,,,62ce9f115a24ca323371d2dc,09:08:01,27/02/2024
html-keyboard-response,168,360348,0.0-70.0-1.0,,"<div style=""display: flex; flex-direction: column; align-items: center; margin-top: -40px;""><img src=""images/pattern_3.png"" style=""width: 234px; height: 230px; margin-top: -50px;""><div style=""display: flex; justify-content: space-between; margin-top: 33px;""><img src=""images/choice_trial_2.png"" style=""width: 408px; height: 417px; margin-right: 608px;""></div></div>",,delaylearn,learning,display_response,0as1LruXGrgcYPIqHi2ZL33ZIk02,0as1LruXGrgcYPIqHi2ZL33ZIk02,,,,,,,,,,,,,,,,,chosen stimuli: images/choice_trial_2.png,,,,,62ce9f115a24ca323371d2dc,09:08:01,27/02/2024
html-keyboard-response,169,367350,0.0-70.0-2.0,,,,delaylearn,learning,feedback_duration_window,0as1LruXGrgcYPIqHi2ZL33ZIk02,0as1LruXGrgcYPIqHi2ZL33ZIk02,,,,,,,,,,,,,,,,,,7000.0,,,,62ce9f115a24ca323371d2dc,09:08:01,27/02/2024
html-keyboard-response,170,368850,0.0-70.0-3.0,,<div style='margin:auto;width: auto; font-size: 150%'><span style='font-weight: bold; font-size: 100px; color: red;'>0 points!</span><br><br></div>,,delaylearn,learning,feedback_image_window,0as1LruXGrgcYPIqHi2ZL33ZIk02,0as1LruXGrgcYPIqHi2ZL33ZIk02,,,,,,,,,,,,,,,,,,,,,,62ce9f115a24ca323371d2dc,09:08:01,27/02/2024
html-keyboard-response,171,370567,0.0-71.0,,"<div style=""font-size:100px;"">+</div>",,delaylearn,learning,ITI,0as1LruXGrgcYPIqHi2ZL33ZIk02,0as1LruXGrgcYPIqHi2ZL33ZIk02,,,,,,,,,,,,,,,,,,,1717.0,,,62ce9f115a24ca323371d2dc,09:08:01,27/02/2024
html-keyboard-response,172,371419,0.0-72.0-0.0,849.0,"<div style=""display: flex; flex-direction: column; align-items: center; margin-top: -40px;""><img src=""images/pattern_5.png"" style=""width: 234px; height: 230px; margin-top: -50px;""><div style=""display: flex; justify-content: space-between; margin-top: 33px;""><img src=""images/choice_trial_7.png"" style=""width: 408px; height: 417px; margin-right: 200px;""><img src=""images/choice_trial_13.png"" style=""width: 408px; height: 417px;""></div></div>",f,delaylearn,learning,trial,0as1LruXGrgcYPIqHi2ZL33ZIk02,0as1LruXGrgcYPIqHi2ZL33ZIk02,5.0,images/choice_trial_7.png,images/choice_trial_13.png,images/pattern_5.png,j,f,750.0,7.0,13.0,4.0,0.0,31.0,1.0,0.0,7.0,140.0,,,,,,62ce9f115a24ca323371d2dc,09:08:01,27/02/2024
html-keyboard-response,173,372420,0.0-72.0-1.0,,"<div style=""display: flex; flex-direction: column; align-items: center; margin-top: -40px;""><img src=""images/pattern_5.png"" style=""width: 234px; height: 230px; margin-top: -50px;""><div style=""display: flex; justify-content: space-between; margin-top: 33px;""><img src=""images/choice_trial_7.png"" style=""width: 408px; height: 417px; margin-right: 608px;""></div></div>",,delaylearn,learning,display_response,0as1LruXGrgcYPIqHi2ZL33ZIk02,0as1LruXGrgcYPIqHi2ZL33ZIk02,,,,,,,,,,,,,,,,,chosen stimuli: images/choice_trial_7.png,,,,,62ce9f115a24ca323371d2dc,09:08:01,27/02/2024
html-keyboard-response,174,373172,0.0-72.0-2.0,,,,delaylearn,learning,feedback_duration_window,0as1LruXGrgcYPIqHi2ZL33ZIk02,0as1LruXGrgcYPIqHi2ZL33ZIk02,,,,,,,,,,,,,,,,,,750.0,,,,62ce9f115a24ca323371d2dc,09:08:01,27/02/2024
html-keyboard-response,175,374673,0.0-72.0-3.0,,<div style='margin:auto;width: auto; font-size: 150%'><span style='font-weight: bold; font-size: 100px; color: red;'>0 points!</span><br><br></div>,,delaylearn,learning,feedback_image_window,0as1LruXGrgcYPIqHi2ZL33ZIk02,0as1LruXGrgcYPIqHi2ZL33ZIk02,,,,,,,,,,,,,,,,,,,,,,62ce9f115a24ca323371d2dc,09:08:01,27/02/2024
html-keyboard-response,176,377064,0.0-73.0,,"<div style=""font-size:100px;"">+</div>",,delaylearn,learning,ITI,0as1LruXGrgcYPIqHi2ZL33ZIk02,0as1LruXGrgcYPIqHi2ZL33ZIk02,,,,,,,,,,,,,,,,,,,2389.0,,,62ce9f115a24ca323371d2dc,09:08:01,27/02/2024
html-keyboard-response,177,378386,0.0-74.0-0.0,1321.0,"<div style=""display: flex; flex-direction: column; align-items: center; margin-top: -40px;""><img src=""images/pattern_1.png"" style=""width: 234px; height: 230px; margin-top: -50px;""><div style=""display: flex; justify-content: space-between; margin-top: 33px;""><img src=""images/choice_trial_6.png"" style=""width: 408px; height: 417px; margin-right: 200px;""><img src=""images/choice_trial_15.png"" style=""width: 408px; height: 417px;""></div></div>",j,delaylearn,learning,trial,0as1LruXGrgcYPIqHi2ZL33ZIk02,0as1LruXGrgcYPIqHi2ZL33ZIk02,5.0,images/choice_trial_6.png,images/choice_trial_15.png,images/pattern_1.png,f,f,7000.0,6.0,15.0,1.0,0.0,32.0,0.0,0.0,15.0,140.0,,,,,,62ce9f115a24ca323371d2dc,09:08:01,27/02/2024
html-keyboard-response,178,379389,0.0-74.0-1.0,,"<div style=""display: flex; flex-direction: column; align-items: center; margin-top: -40px;""><img src=""images/pattern_1.png"" style=""width: 234px; height: 230px; margin-top: -50px;""><div style=""display: flex; justify-content: space-between; margin-top: 33px;""><img src=""images/choice_trial_15.png"" style=""width: 408px; height: 417px; margin-left:608px;""></div></div>",,delaylearn,learning,display_response,0as1LruXGrgcYPIqHi2ZL33ZIk02,0as1LruXGrgcYPIqHi2ZL33ZIk02,,,,,,,,,,,,,,,,,chosen stimuli: images/choice_trial_15.png,,,,,62ce9f115a24ca323371d2dc,09:08:01,27/02/2024
html-keyboard-response,179,386391,0.0-74.0-2.0,,,,delaylearn,learning,feedback_duration_window,0as1LruXGrgcYPIqHi2ZL33ZIk02,0as1LruXGrgcYPIqHi2ZL33ZIk02,,,,,,,,,,,,,,,,,,7000.0,,,,62ce9f115a24ca323371d2dc,09:08:01,27/02/2024
html-keyboard-response,180,387892,0.0-74.0-3.0,,<div style='margin:auto;width: auto; font-size: 150%'><span style='font-weight: bold; font-size: 100px; color: red;'>0 points!</span><br><br></div>,,delaylearn,learning,feedback_image_window,0as1LruXGrgcYPIqHi2ZL33ZIk02,0as1LruXGrgcYPIqHi2ZL33ZIk02,,,,,,,,,,,,,,,,,,,,,,62ce9f115a24ca323371d2dc,09:08:01,27/02/2024
html-keyboard-response,181,388393,0.0-75.0-0.0,,,,,,mood_trial_fixation,0as1LruXGrgcYPIqHi2ZL33ZIk02,,,,,,,,,,,,,,,,,,,,,,,62ce9f115a24ca323371d2dc,09:08:01,27/02/2024
lmdlab-html-vas-response,182,392073,0.0-75.0-1.0,2676.0,How happy are you right now?,0.5941358024691358,delaylearn,learning,mood_trial,0as1LruXGrgcYPIqHi2ZL33ZIk02,0as1LruXGrgcYPIqHi2ZL33ZIk02,,,,,,,,,,,,,,,,,,,,"['Very unhappy', 'Very happy']",,62ce9f115a24ca323371d2dc,09:08:01,27/02/2024
html-keyboard-response,183,393612,0.0-76.0,,"<div style=""font-size:100px;"">+</div>",,delaylearn,learning,ITI,0as1LruXGrgcYPIqHi2ZL33ZIk02,0as1LruXGrgcYPIqHi2ZL33ZIk02,,,,,,,,,,,,,,,,,,,1538.0,,,62ce9f115a24ca323371d2dc,09:08:01,27/02/2024
html-keyboard-response,184,394602,0.0-77.0-0.0,988.0,"<div style=""display: flex; flex-direction: column; align-items: center; margin-top: -40px;""><img src=""images/pattern_6.png"" style=""width: 234px; height: 230px; margin-top: -50px;""><div style=""display: flex; justify-content: space-between; margin-top: 33px;""><img src=""images/choice_trial_14.png"" style=""width: 408px; height: 417px; margin-right: 200px;""><img src=""images/choice_trial_9.png"" style=""width: 408px; height: 417px;""></div></div>",f,delaylearn,learning,trial,0as1LruXGrgcYPIqHi2ZL33ZIk02,0as1LruXGrgcYPIqHi2ZL33ZIk02,5.0,images/choice_trial_14.png,images/choice_trial_9.png,images/pattern_6.png,j,f,750.0,14.0,9.0,5.0,0.0,33.0,1.0,0.0,14.0,140.0,,,,,,62ce9f115a24ca323371d2dc,09:08:01,27/02/2024
html-keyboard-response,185,395606,0.0-77.0-1.0,,"<div style=""display: flex; flex-direction: column; align-items: center; margin-top: -40px;""><img src=""images/pattern_6.png"" style=""width: 234px; height: 230px; margin-top: -50px;""><div style=""display: flex; justify-content: space-between; margin-top: 33px;""><img src=""images/choice_trial_14.png"" style=""width: 408px; height: 417px; margin-right: 608px;""></div></div>",,delaylearn,learning,display_response,0as1LruXGrgcYPIqHi2ZL33ZIk02,0as1LruXGrgcYPIqHi2ZL33ZIk02,,,,,,,,,,,,,,,,,chosen stimuli: images/choice_trial_14.png,,,,,62ce9f115a24ca323371d2dc,09:08:01,27/02/2024
html-keyboard-response,186,396357,0.0-77.0-2.0,,,,delaylearn,learning,feedback_duration_window,0as1LruXGrgcYPIqHi2ZL33ZIk02,0as1LruXGrgcYPIqHi2ZL33ZIk02,,,,,,,,,,,,,,,,,,750.0,,,,62ce9f115a24ca323371d2dc,09:08:01,27/02/2024
html-keyboard-response,187,397857,0.0-77.0-3.0,,<div style='margin:auto;width: auto; font-size: 150%'><span style='font-weight: bold; font-size: 100px; color: red;'>0 points!</span><br><br></div>,,delaylearn,learning,feedback_image_window,0as1LruXGrgcYPIqHi2ZL33ZIk02,0as1LruXGrgcYPIqHi2ZL33ZIk02,,,,,,,,,,,,,,,,,,,,,,62ce9f115a24ca323371d2dc,09:08:01,27/02/2024
html-keyboard-response,188,400321,0.0-78.0,,"<div style=""font-size:100px;"">+</div>",,delaylearn,learning,ITI,0as1LruXGrgcYPIqHi2ZL33ZIk02,0as1LruXGrgcYPIqHi2ZL33ZIk02,,,,,,,,,,,,,,,,,,,2462.0,,,62ce9f115a24ca323371d2dc,09:08:01,27/02/2024
html-keyboard-response,189,401306,0.0-79.0-0.0,983.0,"<div style=""display: flex; flex-direction: column; align-items: center; margin-top: -40px;""><img src=""images/pattern_3.png"" style=""width: 234px; height: 230px; margin-top: -50px;""><div style=""display: flex; justify-content: space-between; margin-top: 33px;""><img src=""images/choice_trial_2.png"" style=""width: 408px; height: 417px; margin-right: 200px;""><img src=""images/choice_trial_16.png"" style=""width: 408px; height: 417px;""></div></div>",f,delaylearn,learning,trial,0as1LruXGrgcYPIqHi2ZL33ZIk02,0as1LruXGrgcYPIqHi2ZL33ZIk02,5.0,images/choice_trial_2.png,images/choice_trial_16.png,images/pattern_3.png,j,j,7000.0,2.0,16.0,2.0,1.0,34.0,0.0,0.0,2.0,140.0,,,,,,62ce9f115a24ca323371d2dc,09:08:01,27/02/2024
html-keyboard-response,190,402307,0.0-79.0-1.0,,"<div style=""display: flex; flex-direction: column; align-items: center; margin-top: -40px;""><img src=""images/pattern_3.png"" style=""width: 234px; height: 230px; margin-top: -50px;""><div style=""display: flex; justify-content: space-between; margin-top: 33px;""><img src=""images/choice_trial_2.png"" style=""width: 408px; height: 417px; margin-right: 608px;""></div></div>",,delaylearn,learning,display_response,0as1LruXGrgcYPIqHi2ZL33ZIk02,0as1LruXGrgcYPIqHi2ZL33ZIk02,,,,,,,,,,,,,,,,,chosen stimuli: images/choice_trial_2.png,,,,,62ce9f115a24ca323371d2dc,09:08:01,27/02/2024
html-keyboard-response,191,409308,0.0-79.0-2.0,,,,delaylearn,learning,feedback_duration_window,0as1LruXGrgcYPIqHi2ZL33ZIk02,0as1LruXGrgcYPIqHi2ZL33ZIk02,,,,,,,,,,,,,,,,,,7000.0,,,,62ce9f115a24ca323371d2dc,09:08:01,27/02/2024
html-keyboard-response,192,410809,0.0-79.0-3.0,,<div style='margin:auto;width: auto; font-size: 150%'><span style='font-weight: bold; font-size: 100px; color: red;'>0 points!</span><br><br></div>,,delaylearn,learning,feedback_image_window,0as1LruXGrgcYPIqHi2ZL33ZIk02,0as1LruXGrgcYPIqHi2ZL33ZIk02,,,,,,,,,,,,,,,,,,,,,,62ce9f115a24ca323371d2dc,09:08:01,27/02/2024
html-keyboard-response,193,413300,0.0-80.0,,"<div style=""font-size:100px;"">+</div>",,delaylearn,learning,ITI,0as1LruXGrgcYPIqHi2ZL33ZIk02,0as1LruXGrgcYPIqHi2ZL33ZIk02,,,,,,,,,,,,,,,,,,,2490.0,,,62ce9f115a24ca323371d2dc,09:08:01,27/02/2024
html-keyboard-response,194,413962,0.0-81.0-0.0,661.0,"<div style=""display: flex; flex-direction: column; align-items: center; margin-top: -40px;""><img src=""images/pattern_4.png"" style=""width: 234px; height: 230px; margin-top: -50px;""><div style=""display: flex; justify-content: space-between; margin-top: 33px;""><img src=""images/choice_trial_4.png"" style=""width: 408px; height: 417px; margin-right: 200px;""><img src=""images/choice_trial_11.png"" style=""width: 408px; height: 417px;""></div></div>",j,delaylearn,learning,trial,0as1LruXGrgcYPIqHi2ZL33ZIk02,0as1LruXGrgcYPIqHi2ZL33ZIk02,5.0,images/choice_trial_4.png,images/choice_trial_11.png,images/pattern_4.png,f,j,7000.0,4.0,11.0,3.0,1.0,35.0,1.0,0.0,11.0,140.0,,,,,,62ce9f115a24ca323371d2dc,09:08:01,27/02/2024
html-keyboard-response,195,414963,0.0-81.0-1.0,,"<div style=""display: flex; flex-direction: column; align-items: center; margin-top: -40px;""><img src=""images/pattern_4.png"" style=""width: 234px; height: 230px; margin-top: -50px;""><div style=""display: flex; justify-content: space-between; margin-top: 33px;""><img src=""images/choice_trial_11.png"" style=""width: 408px; height: 417px; margin-left:608px;""></div></div>",,delaylearn,learning,display_response,0as1LruXGrgcYPIqHi2ZL33ZIk02,0as1LruXGrgcYPIqHi2ZL33ZIk02,,,,,,,,,,,,,,,,,chosen stimuli: images/choice_trial_11.png,,,,,62ce9f115a24ca323371d2dc,09:08:01,27/02/2024
html-keyboard-response,196,421964,0.0-81.0-2.0,,,,delaylearn,learning,feedback_duration_window,0as1LruXGrgcYPIqHi2ZL33ZIk02,0as1LruXGrgcYPIqHi2ZL33ZIk02,,,,,,,,,,,,,,,,,,7000.0,,,,62ce9f115a24ca323371d2dc,09:08:01,27/02/2024
html-keyboard-response,197,423465,0.0-81.0-3.0,,<div style='margin:auto;width: auto; font-size: 150%'><span style='font-weight: bold; font-size: 100px; color: red;'>0 points!</span><br><br></div>,,delaylearn,learning,feedback_image_window,0as1LruXGrgcYPIqHi2ZL33ZIk02,0as1LruXGrgcYPIqHi2ZL33ZIk02,,,,,,,,,,,,,,,,,,,,,,62ce9f115a24ca323371d2dc,09:08:01,27/02/2024
html-keyboard-response,198,425008,0.0-82.0,,"<div style=""font-size:100px;"">+</div>",,delaylearn,learning,ITI,0as1LruXGrgcYPIqHi2ZL33ZIk02,0as1LruXGrgcYPIqHi2ZL33ZIk02,,,,,,,,,,,,,,,,,,,1541.0,,,62ce9f115a24ca323371d2dc,09:08:01,27/02/2024
html-keyboard-response,199,426290,0.0-83.0-0.0,1280.0,"<div style=""display: flex; flex-direction: column; align-items: center; margin-top: -40px;""><img src=""images/pattern_7.png"" style=""width: 234px; height: 230px; margin-top: -50px;""><div style=""display: flex; justify-content: space-between; margin-top: 33px;""><img src=""images/choice_trial_8.png"" style=""width: 408px; height: 417px; margin-right: 200px;""><img src=""images/choice_trial_10.png"" style=""width: 408px; height: 417px;""></div></div>",j,delaylearn,learning,trial,0as1LruXGrgcYPIqHi2ZL33ZIk02,0as1LruXGrgcYPIqHi2ZL33ZIk02,5.0,images/choice_trial_8.png,images/choice_trial_10.png,images/pattern_7.png,f,f,750.0,8.0,10.0,6.0,0.0,36.0,0.0,0.0,10.0,140.0,,,,,,62ce9f115a24ca323371d2dc,09:08:01,27/02/2024
html-keyboard-response,200,427292,0.0-83.0-1.0,,"<div style=""display: flex; flex-direction: column; align-items: center; margin-top: -40px;""><img src=""images/pattern_7.png"" style=""width: 234px; height: 230px; margin-top: -50px;""><div style=""display: flex; justify-content: space-between; margin-top: 33px;""><img src=""images/choice_trial_10.png"" style=""width: 408px; height: 417px; margin-left:608px;""></div></div>",,delaylearn,learning,display_response,0as1LruXGrgcYPIqHi2ZL33ZIk02,0as1LruXGrgcYPIqHi2ZL33ZIk02,,,,,,,,,,,,,,,,,chosen stimuli: images/choice_trial_10.png,,,,,62ce9f115a24ca323371d2dc,09:08:01,27/02/2024
html-keyboard-response,201,428042,0.0-83.0-2.0,,,,delaylearn,learning,feedback_duration_window,0as1LruXGrgcYPIqHi2ZL33ZIk02,0as1LruXGrgcYPIqHi2ZL33ZIk02,,,,,,,,,,,,,,,,,,750.0,,,,62ce9f115a24ca323371d2dc,09:08:01,27/02/2024
html-keyboard-response,202,429544,0.0-83.0-3.0,,<div style='margin:auto;width: auto; font-size: 150%'><span style='font-weight: bold; font-size: 100px; color: red;'>0 points!</span><br><br></div>,,delaylearn,learning,feedback_image_window,0as1LruXGrgcYPIqHi2ZL33ZIk02,0as1LruXGrgcYPIqHi2ZL33ZIk02,,,,,,,,,,,,,,,,,,,,,,62ce9f115a24ca323371d2dc,09:08:01,27/02/2024
html-keyboard-response,203,431334,0.0-84.0,,"<div style=""font-size:100px;"">+</div>",,delaylearn,learning,ITI,0as1LruXGrgcYPIqHi2ZL33ZIk02,0as1LruXGrgcYPIqHi2ZL33ZIk02,,,,,,,,,,,,,,,,,,,1789.0,,,62ce9f115a24ca323371d2dc,09:08:01,27/02/2024
html-keyboard-response,204,432170,0.0-85.0-0.0,834.0,"<div style=""display: flex; flex-direction: column; align-items: center; margin-top: -40px;""><img src=""images/pattern_1.png"" style=""width: 234px; height: 230px; margin-top: -50px;""><div style=""display: flex; justify-content: space-between; margin-top: 33px;""><img src=""images/choice_trial_6.png"" style=""width: 408px; height: 417px; margin-right: 200px;""><img src=""images/choice_trial_15.png"" style=""width: 408px; height: 417px;""></div></div>",f,delaylearn,learning,trial,0as1LruXGrgcYPIqHi2ZL33ZIk02,0as1LruXGrgcYPIqHi2ZL33ZIk02,5.0,images/choice_trial_6.png,images/choice_trial_15.png,images/pattern_1.png,f,f,7000.0,6.0,15.0,1.0,0.0,37.0,1.0,1.0,6.0,150.0,,,,,,62ce9f115a24ca323371d2dc,09:08:01,27/02/2024
html-keyboard-response,205,433172,0.0-85.0-1.0,,"<div style=""display: flex; flex-direction: column; align-items: center; margin-top: -40px;""><img src=""images/pattern_1.png"" style=""width: 234px; height: 230px; margin-top: -50px;""><div style=""display: flex; justify-content: space-between; margin-top: 33px;""><img src=""images/choice_trial_6.png"" style=""width: 408px; height: 417px; margin-right: 608px;""></div></div>",,delaylearn,learning,display_response,0as1LruXGrgcYPIqHi2ZL33ZIk02,0as1LruXGrgcYPIqHi2ZL33ZIk02,,,,,,,,,,,,,,,,,chosen stimuli: images/choice_trial_6.png,,,,,62ce9f115a24ca323371d2dc,09:08:01,27/02/2024
html-keyboard-response,206,440173,0.0-85.0-2.0,,,,delaylearn,learning,feedback_duration_window,0as1LruXGrgcYPIqHi2ZL33ZIk02,0as1LruXGrgcYPIqHi2ZL33ZIk02,,,,,,,,,,,,,,,,,,7000.0,,,,62ce9f115a24ca323371d2dc,09:08:01,27/02/2024
html-keyboard-response,207,441674,0.0-85.0-3.0,,<div style='margin:auto;width: auto; font-size: 150%'><span style='font-weight: bold; font-size: 100px; color: green;'>+10 points!</span><br><br></div>,,delaylearn,learning,feedback_image_window,0as1LruXGrgcYPIqHi2ZL33ZIk02,0as1LruXGrgcYPIqHi2ZL33ZIk02,,,,,,,,,,,,,,,,,,,,,,62ce9f115a24ca323371d2dc,09:08:01,27/02/2024
html-keyboard-response,208,442177,0.0-86.0-0.0,,,,,,mood_trial_fixation,0as1LruXGrgcYPIqHi2ZL33ZIk02,,,,,,,,,,,,,,,,,,,,,,,62ce9f115a24ca323371d2dc,09:08:01,27/02/2024
lmdlab-html-vas-response,209,446308,0.0-86.0-1.0,3129.0,How happy are you right now?,0.4845679012345679,delaylearn,learning,mood_trial,0as1LruXGrgcYPIqHi2ZL33ZIk02,0as1LruXGrgcYPIqHi2ZL33ZIk02,,,,,,,,,,,,,,,,,,,,"['Very unhappy', 'Very happy']",,62ce9f115a24ca323371d2dc,09:08:01,27/02/2024
html-keyboard-response,210,448219,0.0-87.0,,"<div style=""font-size:100px;"">+</div>",,delaylearn,learning,ITI,0as1LruXGrgcYPIqHi2ZL33ZIk02,0as1LruXGrgcYPIqHi2ZL33ZIk02,,,,,,,,,,,,,,,,,,,1909.0,,,62ce9f115a24ca323371d2dc,09:08:01,27/02/2024
html-keyboard-response,211,449169,0.0-88.0-0.0,947.0,"<div style=""display: flex; flex-direction: column; align-items: center; margin-top: -40px;""><img src=""images/pattern_3.png"" style=""width: 234px; height: 230px; margin-top: -50px;""><div style=""display: flex; justify-content: space-between; margin-top: 33px;""><img src=""images/choice_trial_16.png"" style=""width: 408px; height: 417px; margin-right: 200px;""><img src=""images/choice_trial_2.png"" style=""width: 408px; height: 417px;""></div></div>",j,delaylearn,learning,trial,0as1LruXGrgcYPIqHi2ZL33ZIk02,0as1LruXGrgcYPIqHi2ZL33ZIk02,5.0,images/choice_trial_16.png,images/choice_trial_2.png,images/pattern_3.png,j,f,7000.0,16.0,2.0,2.0,0.0,38.0,0.0,1.0,2.0,160.0,,,,,,62ce9f115a24ca323371d2dc,09:08:01,27/02/2024
html-keyboard-response,212,450170,0.0-88.0-1.0,,"<div style=""display: flex; flex-direction: column; align-items: center; margin-top: -40px;""><img src=""images/pattern_3.png"" style=""width: 234px; height: 230px; margin-top: -50px;""><div style=""display: flex; justify-content: space-between; margin-top: 33px;""><img src=""images/choice_trial_2.png"" style=""width: 408px; height: 417px; margin-left:608px;""></div></div>",,delaylearn,learning,display_response,0as1LruXGrgcYPIqHi2ZL33ZIk02,0as1LruXGrgcYPIqHi2ZL33ZIk02,,,,,,,,,,,,,,,,,chosen stimuli: images/choice_trial_2.png,,,,,62ce9f115a24ca323371d2dc,09:08:01,27/02/2024
html-keyboard-response,213,457170,0.0-88.0-2.0,,,,delaylearn,learning,feedback_duration_window,0as1LruXGrgcYPIqHi2ZL33ZIk02,0as1LruXGrgcYPIqHi2ZL33ZIk02,,,,,,,,,,,,,,,,,,7000.0,,,,62ce9f115a24ca323371d2dc,09:08:01,27/02/2024
html-keyboard-response,214,458672,0.0-88.0-3.0,,<div style='margin:auto;width: auto; font-size: 150%'><span style='font-weight: bold; font-size: 100px; color: green;'>+10 points!</span><br><br></div>,,delaylearn,learning,feedback_image_window,0as1LruXGrgcYPIqHi2ZL33ZIk02,0as1LruXGrgcYPIqHi2ZL33ZIk02,,,,,,,,,,,,,,,,,,,,,,62ce9f115a24ca323371d2dc,09:08:01,27/02/2024
html-keyboard-response,215,461070,0.0-89.0,,"<div style=""font-size:100px;"">+</div>",,delaylearn,learning,ITI,0as1LruXGrgcYPIqHi2ZL33ZIk02,0as1LruXGrgcYPIqHi2ZL33ZIk02,,,,,,,,,,,,,,,,,,,2397.0,,,62ce9f115a24ca323371d2dc,09:08:01,27/02/2024
html-keyboard-response,216,461897,0.0-90.0-0.0,826.0,"<div style=""display: flex; flex-direction: column; align-items: center; margin-top: -40px;""><img src=""images/pattern_7.png"" style=""width: 234px; height: 230px; margin-top: -50px;""><div style=""display: flex; justify-content: space-between; margin-top: 33px;""><img src=""images/choice_trial_10.png"" style=""width: 408px; height: 417px; margin-right: 200px;""><img src=""images/choice_trial_8.png"" style=""width: 408px; height: 417px;""></div></div>",f,delaylearn,learning,trial,0as1LruXGrgcYPIqHi2ZL33ZIk02,0as1LruXGrgcYPIqHi2ZL33ZIk02,5.0,images/choice_trial_10.png,images/choice_trial_8.png,images/pattern_7.png,j,j,750.0,10.0,8.0,6.0,1.0,39.0,0.0,0.0,10.0,160.0,,,,,,62ce9f115a24ca323371d2dc,09:08:01,27/02/2024
html-keyboard-response,217,462898,0.0-90.0-1.0,,"<div style=""display: flex; flex-direction: column; align-items: center; margin-top: -40px;""><img src=""images/pattern_7.png"" style=""width: 234px; height: 230px; margin-top: -50px;""><div style=""display: flex; justify-content: space-between; margin-top: 33px;""><img src=""images/choice_trial_10.png"" style=""width: 408px; height: 417px; margin-right: 608px;""></div></div>",,delaylearn,learning,display_response,0as1LruXGrgcYPIqHi2ZL33ZIk02,0as1LruXGrgcYPIqHi2ZL33ZIk02,,,,,,,,,,,,,,,,,chosen stimuli: images/choice_trial_10.png,,,,,62ce9f115a24ca323371d2dc,09:08:01,27/02/2024
html-keyboard-response,218,463651,0.0-90.0-2.0,,,,delaylearn,learning,feedback_duration_window,0as1LruXGrgcYPIqHi2ZL33ZIk02,0as1LruXGrgcYPIqHi2ZL33ZIk02,,,,,,,,,,,,,,,,,,750.0,,,,62ce9f115a24ca323371d2dc,09:08:01,27/02/2024
html-keyboard-response,219,465151,0.0-90.0-3.0,,<div style='margin:auto;width: auto; font-size: 150%'><span style='font-weight: bold; font-size: 100px; color: red;'>0 points!</span><br><br></div>,,delaylearn,learning,feedback_image_window,0as1LruXGrgcYPIqHi2ZL33ZIk02,0as1LruXGrgcYPIqHi2ZL33ZIk02,,,,,,,,,,,,,,,,,,,,,,62ce9f115a24ca323371d2dc,09:08:01,27/02/2024
html-keyboard-response,220,467227,0.0-91.0,,"<div style=""font-size:100px;"">+</div>",,delaylearn,learning,ITI,0as1LruXGrgcYPIqHi2ZL33ZIk02,0as1LruXGrgcYPIqHi2ZL33ZIk02,,,,,,,,,,,,,,,,,,,2074.0,,,62ce9f115a24ca323371d2dc,09:08:01,27/02/2024
html-keyboard-response,221,468161,0.0-92.0-0.0,932.0,"<div style=""display: flex; flex-direction: column; align-items: center; margin-top: -40px;""><img src=""images/pattern_5.png"" style=""width: 234px; height: 230px; margin-top: -50px;""><div style=""display: flex; justify-content: space-between; margin-top: 33px;""><img src=""images/choice_trial_13.png"" style=""width: 408px; height: 417px; margin-right: 200px;""><img src=""images/choice_trial_7.png"" style=""width: 408px; height: 417px;""></div></div>",j,delaylearn,learning,trial,0as1LruXGrgcYPIqHi2ZL33ZIk02,0as1LruXGrgcYPIqHi2ZL33ZIk02,5.0,images/choice_trial_13.png,images/choice_trial_7.png,images/pattern_5.png,j,j,750.0,13.0,7.0,4.0,1.0,40.0,1.0,1.0,7.0,170.0,,,,,,62ce9f115a24ca323371d2dc,09:08:01,27/02/2024
html-keyboard-response,222,469162,0.0-92.0-1.0,,"<div style=""display: flex; flex-direction: column; align-items: center; margin-top: -40px;""><img src=""images/pattern_5.png"" style=""width: 234px; height: 230px; margin-top: -50px;""><div style=""display: flex; justify-content: space-between; margin-top: 33px;""><img src=""images/choice_trial_7.png"" style=""width: 408px; height: 417px; margin-left:608px;""></div></div>",,delaylearn,learning,display_response,0as1LruXGrgcYPIqHi2ZL33ZIk02,0as1LruXGrgcYPIqHi2ZL33ZIk02,,,,,,,,,,,,,,,,,chosen stimuli: images/choice_trial_7.png,,,,,62ce9f115a24ca323371d2dc,09:08:01,27/02/2024
html-keyboard-response,223,469914,0.0-92.0-2.0,,,,delaylearn,learning,feedback_duration_window,0as1LruXGrgcYPIqHi2ZL33ZIk02,0as1LruXGrgcYPIqHi2ZL33ZIk02,,,,,,,,,,,,,,,,,,750.0,,,,62ce9f115a24ca323371d2dc,09:08:01,27/02/2024
html-keyboard-response,224,471415,0.0-92.0-3.0,,<div style='margin:auto;width: auto; font-size: 150%'><span style='font-weight: bold; font-size: 100px; color: green;'>+10 points!</span><br><br></div>,,delaylearn,learning,feedback_image_window,0as1LruXGrgcYPIqHi2ZL33ZIk02,0as1LruXGrgcYPIqHi2ZL33ZIk02,,,,,,,,,,,,,,,,,,,,,,62ce9f115a24ca323371d2dc,09:08:01,27/02/2024
html-keyboard-response,225,471916,0.0-93.0-0.0,,,,,,mood_trial_fixation,0as1LruXGrgcYPIqHi2ZL33ZIk02,,,,,,,,,,,,,,,,,,,,,,,62ce9f115a24ca323371d2dc,09:08:01,27/02/2024
lmdlab-html-vas-response,226,475753,0.0-93.0-1.0,2834.0,How happy are you right now?,0.5787037037037037,delaylearn,learning,mood_trial,0as1LruXGrgcYPIqHi2ZL33ZIk02,0as1LruXGrgcYPIqHi2ZL33ZIk02,,,,,,,,,,,,,,,,,,,,"['Very unhappy', 'Very happy']",,62ce9f115a24ca323371d2dc,09:08:01,27/02/2024
html-keyboard-response,227,477305,0.0-94.0,,"<div style=""font-size:100px;"">+</div>",,delaylearn,learning,ITI,0as1LruXGrgcYPIqHi2ZL33ZIk02,0as1LruXGrgcYPIqHi2ZL33ZIk02,,,,,,,,,,,,,,,,,,,1550.0,,,62ce9f115a24ca323371d2dc,09:08:01,27/02/2024
html-keyboard-response,228,478233,0.0-95.0-0.0,926.0,"<div style=""display: flex; flex-direction: column; align-items: center; margin-top: -40px;""><img src=""images/pattern_4.png"" style=""width: 234px; height: 230px; margin-top: -50px;""><div style=""display: flex; justify-content: space-between; margin-top: 33px;""><img src=""images/choice_trial_11.png"" style=""width: 408px; height: 417px; margin-right: 200px;""><img src=""images/choice_trial_4.png"" style=""width: 408px; height: 417px;""></div></div>",f,delaylearn,learning,trial,0as1LruXGrgcYPIqHi2ZL33ZIk02,0as1LruXGrgcYPIqHi2ZL33ZIk02,5.0,images/choice_trial_11.png,images/choice_trial_4.png,images/pattern_4.png,f,f,7000.0,11.0,4.0,3.0,0.0,41.0,1.0,1.0,11.0,180.0,,,,,,62ce9f115a24ca323371d2dc,09:08:01,27/02/2024
html-keyboard-response,229,479235,0.0-95.0-1.0,,"<div style=""display: flex; flex-direction: column; align-items: center; margin-top: -40px;""><img src=""images/pattern_4.png"" style=""width: 234px; height: 230px; margin-top: -50px;""><div style=""display: flex; justify-content: space-between; margin-top: 33px;""><img src=""images/choice_trial_11.png"" style=""width: 408px; height: 417px; margin-right: 608px;""></div></div>",,delaylearn,learning,display_response,0as1LruXGrgcYPIqHi2ZL33ZIk02,0as1LruXGrgcYPIqHi2ZL33ZIk02,,,,,,,,,,,,,,,,,chosen stimuli: images/choice_trial_11.png,,,,,62ce9f115a24ca323371d2dc,09:08:01,27/02/2024
html-keyboard-response,230,486235,0.0-95.0-2.0,,,,delaylearn,learning,feedback_duration_window,0as1LruXGrgcYPIqHi2ZL33ZIk02,0as1LruXGrgcYPIqHi2ZL33ZIk02,,,,,,,,,,,,,,,,,,7000.0,,,,62ce9f115a24ca323371d2dc,09:08:01,27/02/2024
html-keyboard-response,231,487736,0.0-95.0-3.0,,<div style='margin:auto;width: auto; font-size: 150%'><span style='font-weight: bold; font-size: 100px; color: green;'>+10 points!</span><br><br></div>,,delaylearn,learning,feedback_image_window,0as1LruXGrgcYPIqHi2ZL33ZIk02,0as1LruXGrgcYPIqHi2ZL33ZIk02,,,,,,,,,,,,,,,,,,,,,,62ce9f115a24ca323371d2dc,09:08:01,27/02/2024
html-keyboard-response,232,490008,0.0-96.0,,"<div style=""font-size:100px;"">+</div>",,delaylearn,learning,ITI,0as1LruXGrgcYPIqHi2ZL33ZIk02,0as1LruXGrgcYPIqHi2ZL33ZIk02,,,,,,,,,,,,,,,,,,,2270.0,,,62ce9f115a24ca323371d2dc,09:08:01,27/02/2024
