trial_type,trial_index,time_elapsed,internal_node_id,rt,stimulus,response,exp_name,exp_stage,test_part,subjectID,databaseID,counterbal,choice_stimuli_1,choice_stimuli_2,pattern_stimuli,rewarded_answer,correct_answer,feedback_duration_times,stim_left,stim_right,pair,leftright_counter,trial,response_correct,response_rewarded,chosen_stim,counter,displayed_choice,feedback_durations,ITI_duration,labels,rest_warning,prolificID,start_time,date
pavlovia,0,627,0.0-0.0,,,,,,,mt4s3Nr1oPdSypfLWlfTwM60BY72,,,,,,,,,,,,,,,,,,,,,,,5c31167d1a964b0001ffcce5,16:37:09,27/03/2024
html-keyboard-response,1,3641,0.0-1.0,,"<div style=""font-size:100px;"">+</div>",,delaylearn,learning,pre_fixation,mt4s3Nr1oPdSypfLWlfTwM60BY72,,,,,,,,,,,,,,,,,,,,,,,5c31167d1a964b0001ffcce5,16:37:09,27/03/2024
html-keyboard-response,2,5151,0.0-2.0-0.0,1508.0,"<div style=""display: flex; flex-direction: column; align-items: center; margin-top: -40px;""><img src=""images/demo_images/pattern_1.png"" style=""width: 234px; height: 230px; margin-top: -50px;""><div style=""display: flex; justify-content: space-between; margin-top: 33px;""><img src=""images/demo_images/choice_trial_2.png"" style=""width: 408px; height: 417px; margin-right: 200px;""><img src=""images/demo_images/choice_trial_1.png"" style=""width: 408px; height: 417px;""></div></div>",j,delaylearn,learning,trial,mt4s3Nr1oPdSypfLWlfTwM60BY72,mt4s3Nr1oPdSypfLWlfTwM60BY72,4.0,images/demo_images/choice_trial_2.png,images/demo_images/choice_trial_1.png,images/demo_images/pattern_1.png,j,j,3000.0,2.0,1.0,20.0,1.0,1.0,1.0,1.0,1.0,10.0,,,,,,5c31167d1a964b0001ffcce5,16:37:09,27/03/2024
html-keyboard-response,3,6166,0.0-2.0-1.0,,"<div style=""display: flex; flex-direction: column; align-items: center; margin-top: -40px;""><img src=""images/demo_images/pattern_1.png"" style=""width: 234px; height: 230px; margin-top: -50px;""><div style=""display: flex; justify-content: space-between; margin-top: 33px;""><img src=""images/demo_images/choice_trial_1.png"" style=""width: 408px; height: 417px; margin-left:608px;""></div></div>",,delaylearn,learning,display_response,mt4s3Nr1oPdSypfLWlfTwM60BY72,mt4s3Nr1oPdSypfLWlfTwM60BY72,,,,,,,,,,,,,,,,,chosen stimuli: images/demo_images/choice_trial_1.png,,,,,5c31167d1a964b0001ffcce5,16:37:09,27/03/2024
html-keyboard-response,4,9175,0.0-2.0-2.0,,,,delaylearn,learning,feedback_duration_window,mt4s3Nr1oPdSypfLWlfTwM60BY72,mt4s3Nr1oPdSypfLWlfTwM60BY72,,,,,,,,,,,,,,,,,,3000.0,,,,5c31167d1a964b0001ffcce5,16:37:09,27/03/2024
html-keyboard-response,5,10678,0.0-2.0-3.0,,<div style='margin:auto;width: auto; font-size: 150%'><span style='font-weight: bold; font-size: 100px; color: green;'>+10 points!</span><br><br></div>,,delaylearn,learning,feedback_image_window,mt4s3Nr1oPdSypfLWlfTwM60BY72,mt4s3Nr1oPdSypfLWlfTwM60BY72,,,,,,,,,,,,,,,,,,,,,,5c31167d1a964b0001ffcce5,16:37:09,27/03/2024
html-keyboard-response,6,12739,0.0-3.0,,"<div style=""font-size:100px;"">+</div>",,delaylearn,learning,ITI,mt4s3Nr1oPdSypfLWlfTwM60BY72,mt4s3Nr1oPdSypfLWlfTwM60BY72,,,,,,,,,,,,,,,,,,,2057.0,,,5c31167d1a964b0001ffcce5,16:37:09,27/03/2024
html-keyboard-response,7,13632,0.0-4.0-0.0,890.0,"<div style=""display: flex; flex-direction: column; align-items: center; margin-top: -40px;""><img src=""images/demo_images/pattern_1.png"" style=""width: 234px; height: 230px; margin-top: -50px;""><div style=""display: flex; justify-content: space-between; margin-top: 33px;""><img src=""images/demo_images/choice_trial_2.png"" style=""width: 408px; height: 417px; margin-right: 200px;""><img src=""images/demo_images/choice_trial_1.png"" style=""width: 408px; height: 417px;""></div></div>",j,delaylearn,learning,trial,mt4s3Nr1oPdSypfLWlfTwM60BY72,mt4s3Nr1oPdSypfLWlfTwM60BY72,4.0,images/demo_images/choice_trial_2.png,images/demo_images/choice_trial_1.png,images/demo_images/pattern_1.png,j,j,3000.0,2.0,1.0,20.0,1.0,2.0,1.0,1.0,1.0,20.0,,,,,,5c31167d1a964b0001ffcce5,16:37:09,27/03/2024
html-keyboard-response,8,14648,0.0-4.0-1.0,,"<div style=""display: flex; flex-direction: column; align-items: center; margin-top: -40px;""><img src=""images/demo_images/pattern_1.png"" style=""width: 234px; height: 230px; margin-top: -50px;""><div style=""display: flex; justify-content: space-between; margin-top: 33px;""><img src=""images/demo_images/choice_trial_1.png"" style=""width: 408px; height: 417px; margin-left:608px;""></div></div>",,delaylearn,learning,display_response,mt4s3Nr1oPdSypfLWlfTwM60BY72,mt4s3Nr1oPdSypfLWlfTwM60BY72,,,,,,,,,,,,,,,,,chosen stimuli: images/demo_images/choice_trial_1.png,,,,,5c31167d1a964b0001ffcce5,16:37:09,27/03/2024
html-keyboard-response,9,17664,0.0-4.0-2.0,,,,delaylearn,learning,feedback_duration_window,mt4s3Nr1oPdSypfLWlfTwM60BY72,mt4s3Nr1oPdSypfLWlfTwM60BY72,,,,,,,,,,,,,,,,,,3000.0,,,,5c31167d1a964b0001ffcce5,16:37:09,27/03/2024
html-keyboard-response,10,19177,0.0-4.0-3.0,,<div style='margin:auto;width: auto; font-size: 150%'><span style='font-weight: bold; font-size: 100px; color: green;'>+10 points!</span><br><br></div>,,delaylearn,learning,feedback_image_window,mt4s3Nr1oPdSypfLWlfTwM60BY72,mt4s3Nr1oPdSypfLWlfTwM60BY72,,,,,,,,,,,,,,,,,,,,,,5c31167d1a964b0001ffcce5,16:37:09,27/03/2024
html-keyboard-response,11,21344,0.0-5.0,,"<div style=""font-size:100px;"">+</div>",,delaylearn,learning,ITI,mt4s3Nr1oPdSypfLWlfTwM60BY72,mt4s3Nr1oPdSypfLWlfTwM60BY72,,,,,,,,,,,,,,,,,,,2161.0,,,5c31167d1a964b0001ffcce5,16:37:09,27/03/2024
html-keyboard-response,12,22016,0.0-6.0-0.0,670.0,"<div style=""display: flex; flex-direction: column; align-items: center; margin-top: -40px;""><img src=""images/demo_images/pattern_1.png"" style=""width: 234px; height: 230px; margin-top: -50px;""><div style=""display: flex; justify-content: space-between; margin-top: 33px;""><img src=""images/demo_images/choice_trial_1.png"" style=""width: 408px; height: 417px; margin-right: 200px;""><img src=""images/demo_images/choice_trial_2.png"" style=""width: 408px; height: 417px;""></div></div>",f,delaylearn,learning,trial,mt4s3Nr1oPdSypfLWlfTwM60BY72,mt4s3Nr1oPdSypfLWlfTwM60BY72,4.0,images/demo_images/choice_trial_1.png,images/demo_images/choice_trial_2.png,images/demo_images/pattern_1.png,j,f,3000.0,1.0,2.0,20.0,0.0,3.0,1.0,0.0,1.0,20.0,,,,,,5c31167d1a964b0001ffcce5,16:37:09,27/03/2024
html-keyboard-response,13,23017,0.0-6.0-1.0,,"<div style=""display: flex; flex-direction: column; align-items: center; margin-top: -40px;""><img src=""images/demo_images/pattern_1.png"" style=""width: 234px; height: 230px; margin-top: -50px;""><div style=""display: flex; justify-content: space-between; margin-top: 33px;""><img src=""images/demo_images/choice_trial_1.png"" style=""width: 408px; height: 417px; margin-right: 608px;""></div></div>",,delaylearn,learning,display_response,mt4s3Nr1oPdSypfLWlfTwM60BY72,mt4s3Nr1oPdSypfLWlfTwM60BY72,,,,,,,,,,,,,,,,,chosen stimuli: images/demo_images/choice_trial_1.png,,,,,5c31167d1a964b0001ffcce5,16:37:09,27/03/2024
html-keyboard-response,14,26025,0.0-6.0-2.0,,,,delaylearn,learning,feedback_duration_window,mt4s3Nr1oPdSypfLWlfTwM60BY72,mt4s3Nr1oPdSypfLWlfTwM60BY72,,,,,,,,,,,,,,,,,,3000.0,,,,5c31167d1a964b0001ffcce5,16:37:09,27/03/2024
html-keyboard-response,15,27533,0.0-6.0-3.0,,<div style='margin:auto;width: auto; font-size: 150%'><span style='font-weight: bold; font-size: 100px; color: red;'>0 points!</span><br><br></div>,,delaylearn,learning,feedback_image_window,mt4s3Nr1oPdSypfLWlfTwM60BY72,mt4s3Nr1oPdSypfLWlfTwM60BY72,,,,,,,,,,,,,,,,,,,,,,5c31167d1a964b0001ffcce5,16:37:09,27/03/2024
html-keyboard-response,16,29191,0.0-7.0,,"<div style=""font-size:100px;"">+</div>",,delaylearn,learning,ITI,mt4s3Nr1oPdSypfLWlfTwM60BY72,mt4s3Nr1oPdSypfLWlfTwM60BY72,,,,,,,,,,,,,,,,,,,1648.0,,,5c31167d1a964b0001ffcce5,16:37:09,27/03/2024
html-keyboard-response,17,30544,0.0-8.0-0.0,1352.0,"<div style=""display: flex; flex-direction: column; align-items: center; margin-top: -40px;""><img src=""images/demo_images/pattern_1.png"" style=""width: 234px; height: 230px; margin-top: -50px;""><div style=""display: flex; justify-content: space-between; margin-top: 33px;""><img src=""images/demo_images/choice_trial_1.png"" style=""width: 408px; height: 417px; margin-right: 200px;""><img src=""images/demo_images/choice_trial_2.png"" style=""width: 408px; height: 417px;""></div></div>",j,delaylearn,learning,trial,mt4s3Nr1oPdSypfLWlfTwM60BY72,mt4s3Nr1oPdSypfLWlfTwM60BY72,4.0,images/demo_images/choice_trial_1.png,images/demo_images/choice_trial_2.png,images/demo_images/pattern_1.png,f,f,3000.0,1.0,2.0,20.0,0.0,4.0,0.0,0.0,2.0,20.0,,,,,,5c31167d1a964b0001ffcce5,16:37:09,27/03/2024
html-keyboard-response,18,31549,0.0-8.0-1.0,,"<div style=""display: flex; flex-direction: column; align-items: center; margin-top: -40px;""><img src=""images/demo_images/pattern_1.png"" style=""width: 234px; height: 230px; margin-top: -50px;""><div style=""display: flex; justify-content: space-between; margin-top: 33px;""><img src=""images/demo_images/choice_trial_2.png"" style=""width: 408px; height: 417px; margin-left:608px;""></div></div>",,delaylearn,learning,display_response,mt4s3Nr1oPdSypfLWlfTwM60BY72,mt4s3Nr1oPdSypfLWlfTwM60BY72,,,,,,,,,,,,,,,,,chosen stimuli: images/demo_images/choice_trial_2.png,,,,,5c31167d1a964b0001ffcce5,16:37:09,27/03/2024
html-keyboard-response,19,34563,0.0-8.0-2.0,,,,delaylearn,learning,feedback_duration_window,mt4s3Nr1oPdSypfLWlfTwM60BY72,mt4s3Nr1oPdSypfLWlfTwM60BY72,,,,,,,,,,,,,,,,,,3000.0,,,,5c31167d1a964b0001ffcce5,16:37:09,27/03/2024
html-keyboard-response,20,36072,0.0-8.0-3.0,,<div style='margin:auto;width: auto; font-size: 150%'><span style='font-weight: bold; font-size: 100px; color: red;'>0 points!</span><br><br></div>,,delaylearn,learning,feedback_image_window,mt4s3Nr1oPdSypfLWlfTwM60BY72,mt4s3Nr1oPdSypfLWlfTwM60BY72,,,,,,,,,,,,,,,,,,,,,,5c31167d1a964b0001ffcce5,16:37:09,27/03/2024
html-keyboard-response,21,36586,0.0-9.0-0.0,,,,,,mood_trial_fixation,mt4s3Nr1oPdSypfLWlfTwM60BY72,,,,,,,,,,,,,,,,,,,,,,,5c31167d1a964b0001ffcce5,16:37:09,27/03/2024
lmdlab-html-vas-response,22,43363,0.0-9.0-1.0,5769.0,How happy are you right now?,0.3761574074074074,delaylearn,learning,mood_trial,mt4s3Nr1oPdSypfLWlfTwM60BY72,mt4s3Nr1oPdSypfLWlfTwM60BY72,,,,,,,,,,,,,,,,,,,,"['Very unhappy', 'Very happy']",,5c31167d1a964b0001ffcce5,16:37:09,27/03/2024
html-keyboard-response,23,45848,0.0-10.0,,"<div style=""font-size:100px;"">+</div>",,delaylearn,learning,ITI,mt4s3Nr1oPdSypfLWlfTwM60BY72,mt4s3Nr1oPdSypfLWlfTwM60BY72,,,,,,,,,,,,,,,,,,,2463.0,,,5c31167d1a964b0001ffcce5,16:37:09,27/03/2024
html-keyboard-response,24,46623,0.0-11.0-0.0,773.0,"<div style=""display: flex; flex-direction: column; align-items: center; margin-top: -40px;""><img src=""images/demo_images/pattern_1.png"" style=""width: 234px; height: 230px; margin-top: -50px;""><div style=""display: flex; justify-content: space-between; margin-top: 33px;""><img src=""images/demo_images/choice_trial_2.png"" style=""width: 408px; height: 417px; margin-right: 200px;""><img src=""images/demo_images/choice_trial_1.png"" style=""width: 408px; height: 417px;""></div></div>",j,delaylearn,learning,trial,mt4s3Nr1oPdSypfLWlfTwM60BY72,mt4s3Nr1oPdSypfLWlfTwM60BY72,4.0,images/demo_images/choice_trial_2.png,images/demo_images/choice_trial_1.png,images/demo_images/pattern_1.png,j,j,3000.0,2.0,1.0,20.0,1.0,5.0,1.0,1.0,1.0,30.0,,,,,,5c31167d1a964b0001ffcce5,16:37:09,27/03/2024
html-keyboard-response,25,47631,0.0-11.0-1.0,,"<div style=""display: flex; flex-direction: column; align-items: center; margin-top: -40px;""><img src=""images/demo_images/pattern_1.png"" style=""width: 234px; height: 230px; margin-top: -50px;""><div style=""display: flex; justify-content: space-between; margin-top: 33px;""><img src=""images/demo_images/choice_trial_1.png"" style=""width: 408px; height: 417px; margin-left:608px;""></div></div>",,delaylearn,learning,display_response,mt4s3Nr1oPdSypfLWlfTwM60BY72,mt4s3Nr1oPdSypfLWlfTwM60BY72,,,,,,,,,,,,,,,,,chosen stimuli: images/demo_images/choice_trial_1.png,,,,,5c31167d1a964b0001ffcce5,16:37:09,27/03/2024
html-keyboard-response,26,50635,0.0-11.0-2.0,,,,delaylearn,learning,feedback_duration_window,mt4s3Nr1oPdSypfLWlfTwM60BY72,mt4s3Nr1oPdSypfLWlfTwM60BY72,,,,,,,,,,,,,,,,,,3000.0,,,,5c31167d1a964b0001ffcce5,16:37:09,27/03/2024
html-keyboard-response,27,52150,0.0-11.0-3.0,,<div style='margin:auto;width: auto; font-size: 150%'><span style='font-weight: bold; font-size: 100px; color: green;'>+10 points!</span><br><br></div>,,delaylearn,learning,feedback_image_window,mt4s3Nr1oPdSypfLWlfTwM60BY72,mt4s3Nr1oPdSypfLWlfTwM60BY72,,,,,,,,,,,,,,,,,,,,,,5c31167d1a964b0001ffcce5,16:37:09,27/03/2024
html-keyboard-response,28,54091,0.0-12.0,,"<div style=""font-size:100px;"">+</div>",,delaylearn,learning,ITI,mt4s3Nr1oPdSypfLWlfTwM60BY72,mt4s3Nr1oPdSypfLWlfTwM60BY72,,,,,,,,,,,,,,,,,,,1933.0,,,5c31167d1a964b0001ffcce5,16:37:09,27/03/2024
html-keyboard-response,29,54735,0.0-13.0-0.0,641.0,"<div style=""display: flex; flex-direction: column; align-items: center; margin-top: -40px;""><img src=""images/demo_images/pattern_1.png"" style=""width: 234px; height: 230px; margin-top: -50px;""><div style=""display: flex; justify-content: space-between; margin-top: 33px;""><img src=""images/demo_images/choice_trial_1.png"" style=""width: 408px; height: 417px; margin-right: 200px;""><img src=""images/demo_images/choice_trial_2.png"" style=""width: 408px; height: 417px;""></div></div>",f,delaylearn,learning,trial,mt4s3Nr1oPdSypfLWlfTwM60BY72,mt4s3Nr1oPdSypfLWlfTwM60BY72,4.0,images/demo_images/choice_trial_1.png,images/demo_images/choice_trial_2.png,images/demo_images/pattern_1.png,f,f,3000.0,1.0,2.0,20.0,0.0,6.0,1.0,1.0,1.0,40.0,,,,,,5c31167d1a964b0001ffcce5,16:37:09,27/03/2024
html-keyboard-response,30,55800,0.0-13.0-1.0,,"<div style=""display: flex; flex-direction: column; align-items: center; margin-top: -40px;""><img src=""images/demo_images/pattern_1.png"" style=""width: 234px; height: 230px; margin-top: -50px;""><div style=""display: flex; justify-content: space-between; margin-top: 33px;""><img src=""images/demo_images/choice_trial_1.png"" style=""width: 408px; height: 417px; margin-right: 608px;""></div></div>",,delaylearn,learning,display_response,mt4s3Nr1oPdSypfLWlfTwM60BY72,mt4s3Nr1oPdSypfLWlfTwM60BY72,,,,,,,,,,,,,,,,,chosen stimuli: images/demo_images/choice_trial_1.png,,,,,5c31167d1a964b0001ffcce5,16:37:09,27/03/2024
html-keyboard-response,31,58809,0.0-13.0-2.0,,,,delaylearn,learning,feedback_duration_window,mt4s3Nr1oPdSypfLWlfTwM60BY72,mt4s3Nr1oPdSypfLWlfTwM60BY72,,,,,,,,,,,,,,,,,,3000.0,,,,5c31167d1a964b0001ffcce5,16:37:09,27/03/2024
html-keyboard-response,32,60317,0.0-13.0-3.0,,<div style='margin:auto;width: auto; font-size: 150%'><span style='font-weight: bold; font-size: 100px; color: green;'>+10 points!</span><br><br></div>,,delaylearn,learning,feedback_image_window,mt4s3Nr1oPdSypfLWlfTwM60BY72,mt4s3Nr1oPdSypfLWlfTwM60BY72,,,,,,,,,,,,,,,,,,,,,,5c31167d1a964b0001ffcce5,16:37:09,27/03/2024
html-keyboard-response,33,61996,0.0-14.0,,"<div style=""font-size:100px;"">+</div>",,delaylearn,learning,ITI,mt4s3Nr1oPdSypfLWlfTwM60BY72,mt4s3Nr1oPdSypfLWlfTwM60BY72,,,,,,,,,,,,,,,,,,,1670.0,,,5c31167d1a964b0001ffcce5,16:37:09,27/03/2024
html-keyboard-response,34,62736,0.0-15.0-0.0,737.0,"<div style=""display: flex; flex-direction: column; align-items: center; margin-top: -40px;""><img src=""images/demo_images/pattern_1.png"" style=""width: 234px; height: 230px; margin-top: -50px;""><div style=""display: flex; justify-content: space-between; margin-top: 33px;""><img src=""images/demo_images/choice_trial_2.png"" style=""width: 408px; height: 417px; margin-right: 200px;""><img src=""images/demo_images/choice_trial_1.png"" style=""width: 408px; height: 417px;""></div></div>",j,delaylearn,learning,trial,mt4s3Nr1oPdSypfLWlfTwM60BY72,mt4s3Nr1oPdSypfLWlfTwM60BY72,4.0,images/demo_images/choice_trial_2.png,images/demo_images/choice_trial_1.png,images/demo_images/pattern_1.png,j,j,3000.0,2.0,1.0,20.0,1.0,7.0,1.0,1.0,1.0,50.0,,,,,,5c31167d1a964b0001ffcce5,16:37:09,27/03/2024
html-keyboard-response,35,63744,0.0-15.0-1.0,,"<div style=""display: flex; flex-direction: column; align-items: center; margin-top: -40px;""><img src=""images/demo_images/pattern_1.png"" style=""width: 234px; height: 230px; margin-top: -50px;""><div style=""display: flex; justify-content: space-between; margin-top: 33px;""><img src=""images/demo_images/choice_trial_1.png"" style=""width: 408px; height: 417px; margin-left:608px;""></div></div>",,delaylearn,learning,display_response,mt4s3Nr1oPdSypfLWlfTwM60BY72,mt4s3Nr1oPdSypfLWlfTwM60BY72,,,,,,,,,,,,,,,,,chosen stimuli: images/demo_images/choice_trial_1.png,,,,,5c31167d1a964b0001ffcce5,16:37:09,27/03/2024
html-keyboard-response,36,66746,0.0-15.0-2.0,,,,delaylearn,learning,feedback_duration_window,mt4s3Nr1oPdSypfLWlfTwM60BY72,mt4s3Nr1oPdSypfLWlfTwM60BY72,,,,,,,,,,,,,,,,,,3000.0,,,,5c31167d1a964b0001ffcce5,16:37:09,27/03/2024
html-keyboard-response,37,68247,0.0-15.0-3.0,,<div style='margin:auto;width: auto; font-size: 150%'><span style='font-weight: bold; font-size: 100px; color: green;'>+10 points!</span><br><br></div>,,delaylearn,learning,feedback_image_window,mt4s3Nr1oPdSypfLWlfTwM60BY72,mt4s3Nr1oPdSypfLWlfTwM60BY72,,,,,,,,,,,,,,,,,,,,,,5c31167d1a964b0001ffcce5,16:37:09,27/03/2024
html-keyboard-response,38,70688,0.0-16.0,,"<div style=""font-size:100px;"">+</div>",,delaylearn,learning,ITI,mt4s3Nr1oPdSypfLWlfTwM60BY72,mt4s3Nr1oPdSypfLWlfTwM60BY72,,,,,,,,,,,,,,,,,,,2437.0,,,5c31167d1a964b0001ffcce5,16:37:09,27/03/2024
html-keyboard-response,39,71328,0.0-17.0-0.0,637.0,"<div style=""display: flex; flex-direction: column; align-items: center; margin-top: -40px;""><img src=""images/demo_images/pattern_1.png"" style=""width: 234px; height: 230px; margin-top: -50px;""><div style=""display: flex; justify-content: space-between; margin-top: 33px;""><img src=""images/demo_images/choice_trial_1.png"" style=""width: 408px; height: 417px; margin-right: 200px;""><img src=""images/demo_images/choice_trial_2.png"" style=""width: 408px; height: 417px;""></div></div>",f,delaylearn,learning,trial,mt4s3Nr1oPdSypfLWlfTwM60BY72,mt4s3Nr1oPdSypfLWlfTwM60BY72,4.0,images/demo_images/choice_trial_1.png,images/demo_images/choice_trial_2.png,images/demo_images/pattern_1.png,f,f,3000.0,1.0,2.0,20.0,0.0,8.0,1.0,1.0,1.0,60.0,,,,,,5c31167d1a964b0001ffcce5,16:37:09,27/03/2024
html-keyboard-response,40,72329,0.0-17.0-1.0,,"<div style=""display: flex; flex-direction: column; align-items: center; margin-top: -40px;""><img src=""images/demo_images/pattern_1.png"" style=""width: 234px; height: 230px; margin-top: -50px;""><div style=""display: flex; justify-content: space-between; margin-top: 33px;""><img src=""images/demo_images/choice_trial_1.png"" style=""width: 408px; height: 417px; margin-right: 608px;""></div></div>",,delaylearn,learning,display_response,mt4s3Nr1oPdSypfLWlfTwM60BY72,mt4s3Nr1oPdSypfLWlfTwM60BY72,,,,,,,,,,,,,,,,,chosen stimuli: images/demo_images/choice_trial_1.png,,,,,5c31167d1a964b0001ffcce5,16:37:09,27/03/2024
html-keyboard-response,41,75343,0.0-17.0-2.0,,,,delaylearn,learning,feedback_duration_window,mt4s3Nr1oPdSypfLWlfTwM60BY72,mt4s3Nr1oPdSypfLWlfTwM60BY72,,,,,,,,,,,,,,,,,,3000.0,,,,5c31167d1a964b0001ffcce5,16:37:09,27/03/2024
html-keyboard-response,42,76863,0.0-17.0-3.0,,<div style='margin:auto;width: auto; font-size: 150%'><span style='font-weight: bold; font-size: 100px; color: green;'>+10 points!</span><br><br></div>,,delaylearn,learning,feedback_image_window,mt4s3Nr1oPdSypfLWlfTwM60BY72,mt4s3Nr1oPdSypfLWlfTwM60BY72,,,,,,,,,,,,,,,,,,,,,,5c31167d1a964b0001ffcce5,16:37:09,27/03/2024
html-button-response,43,79968,0.0-18.0,3105.0,"
  <div style=""display: flex; align-items: center; justify-content: center; height: 80vh;"">
  <div>
          <img src=""images/inst_demo_finish.png"" style=""width: 80vw; height:auto;"">
          <br><br>
      </div>
      <br><br>
  </div>",0,,,,mt4s3Nr1oPdSypfLWlfTwM60BY72,,,,,,,,,,,,,,,,,,,,,,,5c31167d1a964b0001ffcce5,16:37:09,27/03/2024
html-keyboard-response,44,85423,0.0-19.0,5454.0,"
  <div style=""display: flex; align-items: center; justify-content: center; height: 80vh;"">
  <div>
          <img src=""images/inst_6.png"" style=""width: 80vw; height:auto;"">
          <br><br>
      </div>
      <br><br>
  </div>",j,,,,mt4s3Nr1oPdSypfLWlfTwM60BY72,,,,,,,,,,,,,,,,,,,,,,,5c31167d1a964b0001ffcce5,16:37:09,27/03/2024
html-keyboard-response,45,88429,0.0-20.0,,"<div style=""font-size:100px;"">+</div>",,delaylearn,learning,pre_fixation,mt4s3Nr1oPdSypfLWlfTwM60BY72,,,,,,,,,,,,,,,,,,,,,,,5c31167d1a964b0001ffcce5,16:37:09,27/03/2024
html-keyboard-response,46,90267,0.0-21.0,,"<div style=""font-size:100px;"">+</div>",,delaylearn,learning,ITI,mt4s3Nr1oPdSypfLWlfTwM60BY72,mt4s3Nr1oPdSypfLWlfTwM60BY72,,,,,,,,,,,,,,,,,,,1831.0,,,5c31167d1a964b0001ffcce5,16:37:09,27/03/2024
html-keyboard-response,47,91152,0.0-22.0-0.0,882.0,"<div style=""display: flex; flex-direction: column; align-items: center; margin-top: -40px;""><img src=""images/pattern_3.png"" style=""width: 234px; height: 230px; margin-top: -50px;""><div style=""display: flex; justify-content: space-between; margin-top: 33px;""><img src=""images/choice_trial_16.png"" style=""width: 408px; height: 417px; margin-right: 200px;""><img src=""images/choice_trial_6.png"" style=""width: 408px; height: 417px;""></div></div>",j,delaylearn,learning,trial,mt4s3Nr1oPdSypfLWlfTwM60BY72,mt4s3Nr1oPdSypfLWlfTwM60BY72,4.0,images/choice_trial_16.png,images/choice_trial_6.png,images/pattern_3.png,f,f,7000.0,16.0,6.0,2.0,0.0,9.0,0.0,0.0,6.0,60.0,,,,,,5c31167d1a964b0001ffcce5,16:37:09,27/03/2024
html-keyboard-response,48,92166,0.0-22.0-1.0,,"<div style=""display: flex; flex-direction: column; align-items: center; margin-top: -40px;""><img src=""images/pattern_3.png"" style=""width: 234px; height: 230px; margin-top: -50px;""><div style=""display: flex; justify-content: space-between; margin-top: 33px;""><img src=""images/choice_trial_6.png"" style=""width: 408px; height: 417px; margin-left:608px;""></div></div>",,delaylearn,learning,display_response,mt4s3Nr1oPdSypfLWlfTwM60BY72,mt4s3Nr1oPdSypfLWlfTwM60BY72,,,,,,,,,,,,,,,,,chosen stimuli: images/choice_trial_6.png,,,,,5c31167d1a964b0001ffcce5,16:37:09,27/03/2024
html-keyboard-response,49,99170,0.0-22.0-2.0,,,,delaylearn,learning,feedback_duration_window,mt4s3Nr1oPdSypfLWlfTwM60BY72,mt4s3Nr1oPdSypfLWlfTwM60BY72,,,,,,,,,,,,,,,,,,7000.0,,,,5c31167d1a964b0001ffcce5,16:37:09,27/03/2024
html-keyboard-response,50,100685,0.0-22.0-3.0,,<div style='margin:auto;width: auto; font-size: 150%'><span style='font-weight: bold; font-size: 100px; color: red;'>0 points!</span><br><br></div>,,delaylearn,learning,feedback_image_window,mt4s3Nr1oPdSypfLWlfTwM60BY72,mt4s3Nr1oPdSypfLWlfTwM60BY72,,,,,,,,,,,,,,,,,,,,,,5c31167d1a964b0001ffcce5,16:37:09,27/03/2024
html-keyboard-response,51,102800,0.0-23.0,,"<div style=""font-size:100px;"">+</div>",,delaylearn,learning,ITI,mt4s3Nr1oPdSypfLWlfTwM60BY72,mt4s3Nr1oPdSypfLWlfTwM60BY72,,,,,,,,,,,,,,,,,,,2101.0,,,5c31167d1a964b0001ffcce5,16:37:09,27/03/2024
html-keyboard-response,52,103713,0.0-24.0-0.0,909.0,"<div style=""display: flex; flex-direction: column; align-items: center; margin-top: -40px;""><img src=""images/pattern_7.png"" style=""width: 234px; height: 230px; margin-top: -50px;""><div style=""display: flex; justify-content: space-between; margin-top: 33px;""><img src=""images/choice_trial_4.png"" style=""width: 408px; height: 417px; margin-right: 200px;""><img src=""images/choice_trial_13.png"" style=""width: 408px; height: 417px;""></div></div>",f,delaylearn,learning,trial,mt4s3Nr1oPdSypfLWlfTwM60BY72,mt4s3Nr1oPdSypfLWlfTwM60BY72,4.0,images/choice_trial_4.png,images/choice_trial_13.png,images/pattern_7.png,j,j,750.0,4.0,13.0,6.0,1.0,10.0,0.0,0.0,4.0,60.0,,,,,,5c31167d1a964b0001ffcce5,16:37:09,27/03/2024
html-keyboard-response,53,104716,0.0-24.0-1.0,,"<div style=""display: flex; flex-direction: column; align-items: center; margin-top: -40px;""><img src=""images/pattern_7.png"" style=""width: 234px; height: 230px; margin-top: -50px;""><div style=""display: flex; justify-content: space-between; margin-top: 33px;""><img src=""images/choice_trial_4.png"" style=""width: 408px; height: 417px; margin-right: 608px;""></div></div>",,delaylearn,learning,display_response,mt4s3Nr1oPdSypfLWlfTwM60BY72,mt4s3Nr1oPdSypfLWlfTwM60BY72,,,,,,,,,,,,,,,,,chosen stimuli: images/choice_trial_4.png,,,,,5c31167d1a964b0001ffcce5,16:37:09,27/03/2024
html-keyboard-response,54,105479,0.0-24.0-2.0,,,,delaylearn,learning,feedback_duration_window,mt4s3Nr1oPdSypfLWlfTwM60BY72,mt4s3Nr1oPdSypfLWlfTwM60BY72,,,,,,,,,,,,,,,,,,750.0,,,,5c31167d1a964b0001ffcce5,16:37:09,27/03/2024
html-keyboard-response,55,106990,0.0-24.0-3.0,,<div style='margin:auto;width: auto; font-size: 150%'><span style='font-weight: bold; font-size: 100px; color: red;'>0 points!</span><br><br></div>,,delaylearn,learning,feedback_image_window,mt4s3Nr1oPdSypfLWlfTwM60BY72,mt4s3Nr1oPdSypfLWlfTwM60BY72,,,,,,,,,,,,,,,,,,,,,,5c31167d1a964b0001ffcce5,16:37:09,27/03/2024
html-keyboard-response,56,109056,0.0-25.0,,"<div style=""font-size:100px;"">+</div>",,delaylearn,learning,ITI,mt4s3Nr1oPdSypfLWlfTwM60BY72,mt4s3Nr1oPdSypfLWlfTwM60BY72,,,,,,,,,,,,,,,,,,,2057.0,,,5c31167d1a964b0001ffcce5,16:37:09,27/03/2024
html-keyboard-response,57,109952,0.0-26.0-0.0,894.0,"<div style=""display: flex; flex-direction: column; align-items: center; margin-top: -40px;""><img src=""images/pattern_4.png"" style=""width: 234px; height: 230px; margin-top: -50px;""><div style=""display: flex; justify-content: space-between; margin-top: 33px;""><img src=""images/choice_trial_8.png"" style=""width: 408px; height: 417px; margin-right: 200px;""><img src=""images/choice_trial_7.png"" style=""width: 408px; height: 417px;""></div></div>",f,delaylearn,learning,trial,mt4s3Nr1oPdSypfLWlfTwM60BY72,mt4s3Nr1oPdSypfLWlfTwM60BY72,4.0,images/choice_trial_8.png,images/choice_trial_7.png,images/pattern_4.png,f,f,7000.0,8.0,7.0,3.0,0.0,11.0,1.0,1.0,8.0,70.0,,,,,,5c31167d1a964b0001ffcce5,16:37:09,27/03/2024
html-keyboard-response,58,110967,0.0-26.0-1.0,,"<div style=""display: flex; flex-direction: column; align-items: center; margin-top: -40px;""><img src=""images/pattern_4.png"" style=""width: 234px; height: 230px; margin-top: -50px;""><div style=""display: flex; justify-content: space-between; margin-top: 33px;""><img src=""images/choice_trial_8.png"" style=""width: 408px; height: 417px; margin-right: 608px;""></div></div>",,delaylearn,learning,display_response,mt4s3Nr1oPdSypfLWlfTwM60BY72,mt4s3Nr1oPdSypfLWlfTwM60BY72,,,,,,,,,,,,,,,,,chosen stimuli: images/choice_trial_8.png,,,,,5c31167d1a964b0001ffcce5,16:37:09,27/03/2024
html-keyboard-response,59,117971,0.0-26.0-2.0,,,,delaylearn,learning,feedback_duration_window,mt4s3Nr1oPdSypfLWlfTwM60BY72,mt4s3Nr1oPdSypfLWlfTwM60BY72,,,,,,,,,,,,,,,,,,7000.0,,,,5c31167d1a964b0001ffcce5,16:37:09,27/03/2024
html-keyboard-response,60,119477,0.0-26.0-3.0,,<div style='margin:auto;width: auto; font-size: 150%'><span style='font-weight: bold; font-size: 100px; color: green;'>+10 points!</span><br><br></div>,,delaylearn,learning,feedback_image_window,mt4s3Nr1oPdSypfLWlfTwM60BY72,mt4s3Nr1oPdSypfLWlfTwM60BY72,,,,,,,,,,,,,,,,,,,,,,5c31167d1a964b0001ffcce5,16:37:09,27/03/2024
html-keyboard-response,61,121866,0.0-27.0,,"<div style=""font-size:100px;"">+</div>",,delaylearn,learning,ITI,mt4s3Nr1oPdSypfLWlfTwM60BY72,mt4s3Nr1oPdSypfLWlfTwM60BY72,,,,,,,,,,,,,,,,,,,2385.0,,,5c31167d1a964b0001ffcce5,16:37:09,27/03/2024
html-keyboard-response,62,122719,0.0-28.0-0.0,851.0,"<div style=""display: flex; flex-direction: column; align-items: center; margin-top: -40px;""><img src=""images/pattern_5.png"" style=""width: 234px; height: 230px; margin-top: -50px;""><div style=""display: flex; justify-content: space-between; margin-top: 33px;""><img src=""images/choice_trial_15.png"" style=""width: 408px; height: 417px; margin-right: 200px;""><img src=""images/choice_trial_5.png"" style=""width: 408px; height: 417px;""></div></div>",j,delaylearn,learning,trial,mt4s3Nr1oPdSypfLWlfTwM60BY72,mt4s3Nr1oPdSypfLWlfTwM60BY72,4.0,images/choice_trial_15.png,images/choice_trial_5.png,images/pattern_5.png,j,j,750.0,15.0,5.0,4.0,1.0,12.0,1.0,1.0,5.0,80.0,,,,,,5c31167d1a964b0001ffcce5,16:37:09,27/03/2024
html-keyboard-response,63,123729,0.0-28.0-1.0,,"<div style=""display: flex; flex-direction: column; align-items: center; margin-top: -40px;""><img src=""images/pattern_5.png"" style=""width: 234px; height: 230px; margin-top: -50px;""><div style=""display: flex; justify-content: space-between; margin-top: 33px;""><img src=""images/choice_trial_5.png"" style=""width: 408px; height: 417px; margin-left:608px;""></div></div>",,delaylearn,learning,display_response,mt4s3Nr1oPdSypfLWlfTwM60BY72,mt4s3Nr1oPdSypfLWlfTwM60BY72,,,,,,,,,,,,,,,,,chosen stimuli: images/choice_trial_5.png,,,,,5c31167d1a964b0001ffcce5,16:37:09,27/03/2024
html-keyboard-response,64,124490,0.0-28.0-2.0,,,,delaylearn,learning,feedback_duration_window,mt4s3Nr1oPdSypfLWlfTwM60BY72,mt4s3Nr1oPdSypfLWlfTwM60BY72,,,,,,,,,,,,,,,,,,750.0,,,,5c31167d1a964b0001ffcce5,16:37:09,27/03/2024
html-keyboard-response,65,125997,0.0-28.0-3.0,,<div style='margin:auto;width: auto; font-size: 150%'><span style='font-weight: bold; font-size: 100px; color: green;'>+10 points!</span><br><br></div>,,delaylearn,learning,feedback_image_window,mt4s3Nr1oPdSypfLWlfTwM60BY72,mt4s3Nr1oPdSypfLWlfTwM60BY72,,,,,,,,,,,,,,,,,,,,,,5c31167d1a964b0001ffcce5,16:37:09,27/03/2024
html-keyboard-response,66,128479,0.0-29.0,,"<div style=""font-size:100px;"">+</div>",,delaylearn,learning,ITI,mt4s3Nr1oPdSypfLWlfTwM60BY72,mt4s3Nr1oPdSypfLWlfTwM60BY72,,,,,,,,,,,,,,,,,,,2439.0,,,5c31167d1a964b0001ffcce5,16:37:09,27/03/2024
html-keyboard-response,67,129568,0.0-30.0-0.0,1086.0,"<div style=""display: flex; flex-direction: column; align-items: center; margin-top: -40px;""><img src=""images/pattern_6.png"" style=""width: 234px; height: 230px; margin-top: -50px;""><div style=""display: flex; justify-content: space-between; margin-top: 33px;""><img src=""images/choice_trial_10.png"" style=""width: 408px; height: 417px; margin-right: 200px;""><img src=""images/choice_trial_3.png"" style=""width: 408px; height: 417px;""></div></div>",j,delaylearn,learning,trial,mt4s3Nr1oPdSypfLWlfTwM60BY72,mt4s3Nr1oPdSypfLWlfTwM60BY72,4.0,images/choice_trial_10.png,images/choice_trial_3.png,images/pattern_6.png,j,f,750.0,10.0,3.0,5.0,0.0,13.0,0.0,1.0,3.0,90.0,,,,,,5c31167d1a964b0001ffcce5,16:37:09,27/03/2024
html-keyboard-response,68,130575,0.0-30.0-1.0,,"<div style=""display: flex; flex-direction: column; align-items: center; margin-top: -40px;""><img src=""images/pattern_6.png"" style=""width: 234px; height: 230px; margin-top: -50px;""><div style=""display: flex; justify-content: space-between; margin-top: 33px;""><img src=""images/choice_trial_3.png"" style=""width: 408px; height: 417px; margin-left:608px;""></div></div>",,delaylearn,learning,display_response,mt4s3Nr1oPdSypfLWlfTwM60BY72,mt4s3Nr1oPdSypfLWlfTwM60BY72,,,,,,,,,,,,,,,,,chosen stimuli: images/choice_trial_3.png,,,,,5c31167d1a964b0001ffcce5,16:37:09,27/03/2024
html-keyboard-response,69,131335,0.0-30.0-2.0,,,,delaylearn,learning,feedback_duration_window,mt4s3Nr1oPdSypfLWlfTwM60BY72,mt4s3Nr1oPdSypfLWlfTwM60BY72,,,,,,,,,,,,,,,,,,750.0,,,,5c31167d1a964b0001ffcce5,16:37:09,27/03/2024
html-keyboard-response,70,132840,0.0-30.0-3.0,,<div style='margin:auto;width: auto; font-size: 150%'><span style='font-weight: bold; font-size: 100px; color: green;'>+10 points!</span><br><br></div>,,delaylearn,learning,feedback_image_window,mt4s3Nr1oPdSypfLWlfTwM60BY72,mt4s3Nr1oPdSypfLWlfTwM60BY72,,,,,,,,,,,,,,,,,,,,,,5c31167d1a964b0001ffcce5,16:37:09,27/03/2024
html-keyboard-response,71,133353,0.0-31.0-0.0,,,,,,mood_trial_fixation,mt4s3Nr1oPdSypfLWlfTwM60BY72,,,,,,,,,,,,,,,,,,,,,,,5c31167d1a964b0001ffcce5,16:37:09,27/03/2024
lmdlab-html-vas-response,72,137820,0.0-31.0-1.0,3449.0,How happy are you right now?,0.5879629629629629,delaylearn,learning,mood_trial,mt4s3Nr1oPdSypfLWlfTwM60BY72,mt4s3Nr1oPdSypfLWlfTwM60BY72,,,,,,,,,,,,,,,,,,,,"['Very unhappy', 'Very happy']",,5c31167d1a964b0001ffcce5,16:37:09,27/03/2024
html-keyboard-response,73,139758,0.0-32.0,,"<div style=""font-size:100px;"">+</div>",,delaylearn,learning,ITI,mt4s3Nr1oPdSypfLWlfTwM60BY72,mt4s3Nr1oPdSypfLWlfTwM60BY72,,,,,,,,,,,,,,,,,,,1921.0,,,5c31167d1a964b0001ffcce5,16:37:09,27/03/2024
html-keyboard-response,74,140767,0.0-33.0-0.0,1007.0,"<div style=""display: flex; flex-direction: column; align-items: center; margin-top: -40px;""><img src=""images/pattern_1.png"" style=""width: 234px; height: 230px; margin-top: -50px;""><div style=""display: flex; justify-content: space-between; margin-top: 33px;""><img src=""images/choice_trial_9.png"" style=""width: 408px; height: 417px; margin-right: 200px;""><img src=""images/choice_trial_1.png"" style=""width: 408px; height: 417px;""></div></div>",f,delaylearn,learning,trial,mt4s3Nr1oPdSypfLWlfTwM60BY72,mt4s3Nr1oPdSypfLWlfTwM60BY72,4.0,images/choice_trial_9.png,images/choice_trial_1.png,images/pattern_1.png,j,j,7000.0,9.0,1.0,1.0,1.0,14.0,0.0,0.0,9.0,90.0,,,,,,5c31167d1a964b0001ffcce5,16:37:09,27/03/2024
html-keyboard-response,75,141776,0.0-33.0-1.0,,"<div style=""display: flex; flex-direction: column; align-items: center; margin-top: -40px;""><img src=""images/pattern_1.png"" style=""width: 234px; height: 230px; margin-top: -50px;""><div style=""display: flex; justify-content: space-between; margin-top: 33px;""><img src=""images/choice_trial_9.png"" style=""width: 408px; height: 417px; margin-right: 608px;""></div></div>",,delaylearn,learning,display_response,mt4s3Nr1oPdSypfLWlfTwM60BY72,mt4s3Nr1oPdSypfLWlfTwM60BY72,,,,,,,,,,,,,,,,,chosen stimuli: images/choice_trial_9.png,,,,,5c31167d1a964b0001ffcce5,16:37:09,27/03/2024
html-keyboard-response,76,148790,0.0-33.0-2.0,,,,delaylearn,learning,feedback_duration_window,mt4s3Nr1oPdSypfLWlfTwM60BY72,mt4s3Nr1oPdSypfLWlfTwM60BY72,,,,,,,,,,,,,,,,,,7000.0,,,,5c31167d1a964b0001ffcce5,16:37:09,27/03/2024
html-keyboard-response,77,150295,0.0-33.0-3.0,,<div style='margin:auto;width: auto; font-size: 150%'><span style='font-weight: bold; font-size: 100px; color: red;'>0 points!</span><br><br></div>,,delaylearn,learning,feedback_image_window,mt4s3Nr1oPdSypfLWlfTwM60BY72,mt4s3Nr1oPdSypfLWlfTwM60BY72,,,,,,,,,,,,,,,,,,,,,,5c31167d1a964b0001ffcce5,16:37:09,27/03/2024
html-keyboard-response,78,152784,0.0-34.0,,"<div style=""font-size:100px;"">+</div>",,delaylearn,learning,ITI,mt4s3Nr1oPdSypfLWlfTwM60BY72,mt4s3Nr1oPdSypfLWlfTwM60BY72,,,,,,,,,,,,,,,,,,,2473.0,,,5c31167d1a964b0001ffcce5,16:37:09,27/03/2024
html-keyboard-response,79,153857,0.0-35.0-0.0,1069.0,"<div style=""display: flex; flex-direction: column; align-items: center; margin-top: -40px;""><img src=""images/pattern_3.png"" style=""width: 234px; height: 230px; margin-top: -50px;""><div style=""display: flex; justify-content: space-between; margin-top: 33px;""><img src=""images/choice_trial_6.png"" style=""width: 408px; height: 417px; margin-right: 200px;""><img src=""images/choice_trial_16.png"" style=""width: 408px; height: 417px;""></div></div>",j,delaylearn,learning,trial,mt4s3Nr1oPdSypfLWlfTwM60BY72,mt4s3Nr1oPdSypfLWlfTwM60BY72,4.0,images/choice_trial_6.png,images/choice_trial_16.png,images/pattern_3.png,f,j,7000.0,6.0,16.0,2.0,1.0,15.0,1.0,0.0,16.0,90.0,,,,,,5c31167d1a964b0001ffcce5,16:37:09,27/03/2024
html-keyboard-response,80,154863,0.0-35.0-1.0,,"<div style=""display: flex; flex-direction: column; align-items: center; margin-top: -40px;""><img src=""images/pattern_3.png"" style=""width: 234px; height: 230px; margin-top: -50px;""><div style=""display: flex; justify-content: space-between; margin-top: 33px;""><img src=""images/choice_trial_16.png"" style=""width: 408px; height: 417px; margin-left:608px;""></div></div>",,delaylearn,learning,display_response,mt4s3Nr1oPdSypfLWlfTwM60BY72,mt4s3Nr1oPdSypfLWlfTwM60BY72,,,,,,,,,,,,,,,,,chosen stimuli: images/choice_trial_16.png,,,,,5c31167d1a964b0001ffcce5,16:37:09,27/03/2024
html-keyboard-response,81,161878,0.0-35.0-2.0,,,,delaylearn,learning,feedback_duration_window,mt4s3Nr1oPdSypfLWlfTwM60BY72,mt4s3Nr1oPdSypfLWlfTwM60BY72,,,,,,,,,,,,,,,,,,7000.0,,,,5c31167d1a964b0001ffcce5,16:37:09,27/03/2024
html-keyboard-response,82,163382,0.0-35.0-3.0,,<div style='margin:auto;width: auto; font-size: 150%'><span style='font-weight: bold; font-size: 100px; color: red;'>0 points!</span><br><br></div>,,delaylearn,learning,feedback_image_window,mt4s3Nr1oPdSypfLWlfTwM60BY72,mt4s3Nr1oPdSypfLWlfTwM60BY72,,,,,,,,,,,,,,,,,,,,,,5c31167d1a964b0001ffcce5,16:37:09,27/03/2024
html-keyboard-response,83,165400,0.0-36.0,,"<div style=""font-size:100px;"">+</div>",,delaylearn,learning,ITI,mt4s3Nr1oPdSypfLWlfTwM60BY72,mt4s3Nr1oPdSypfLWlfTwM60BY72,,,,,,,,,,,,,,,,,,,2002.0,,,5c31167d1a964b0001ffcce5,16:37:09,27/03/2024
html-keyboard-response,84,166671,0.0-37.0-0.0,1270.0,"<div style=""display: flex; flex-direction: column; align-items: center; margin-top: -40px;""><img src=""images/pattern_5.png"" style=""width: 234px; height: 230px; margin-top: -50px;""><div style=""display: flex; justify-content: space-between; margin-top: 33px;""><img src=""images/choice_trial_5.png"" style=""width: 408px; height: 417px; margin-right: 200px;""><img src=""images/choice_trial_15.png"" style=""width: 408px; height: 417px;""></div></div>",f,delaylearn,learning,trial,mt4s3Nr1oPdSypfLWlfTwM60BY72,mt4s3Nr1oPdSypfLWlfTwM60BY72,4.0,images/choice_trial_5.png,images/choice_trial_15.png,images/pattern_5.png,f,f,750.0,5.0,15.0,4.0,0.0,16.0,1.0,1.0,5.0,100.0,,,,,,5c31167d1a964b0001ffcce5,16:37:09,27/03/2024
html-keyboard-response,85,167684,0.0-37.0-1.0,,"<div style=""display: flex; flex-direction: column; align-items: center; margin-top: -40px;""><img src=""images/pattern_5.png"" style=""width: 234px; height: 230px; margin-top: -50px;""><div style=""display: flex; justify-content: space-between; margin-top: 33px;""><img src=""images/choice_trial_5.png"" style=""width: 408px; height: 417px; margin-right: 608px;""></div></div>",,delaylearn,learning,display_response,mt4s3Nr1oPdSypfLWlfTwM60BY72,mt4s3Nr1oPdSypfLWlfTwM60BY72,,,,,,,,,,,,,,,,,chosen stimuli: images/choice_trial_5.png,,,,,5c31167d1a964b0001ffcce5,16:37:09,27/03/2024
html-keyboard-response,86,168442,0.0-37.0-2.0,,,,delaylearn,learning,feedback_duration_window,mt4s3Nr1oPdSypfLWlfTwM60BY72,mt4s3Nr1oPdSypfLWlfTwM60BY72,,,,,,,,,,,,,,,,,,750.0,,,,5c31167d1a964b0001ffcce5,16:37:09,27/03/2024
html-keyboard-response,87,169951,0.0-37.0-3.0,,<div style='margin:auto;width: auto; font-size: 150%'><span style='font-weight: bold; font-size: 100px; color: green;'>+10 points!</span><br><br></div>,,delaylearn,learning,feedback_image_window,mt4s3Nr1oPdSypfLWlfTwM60BY72,mt4s3Nr1oPdSypfLWlfTwM60BY72,,,,,,,,,,,,,,,,,,,,,,5c31167d1a964b0001ffcce5,16:37:09,27/03/2024
html-keyboard-response,88,170462,0.0-38.0-0.0,,,,,,mood_trial_fixation,mt4s3Nr1oPdSypfLWlfTwM60BY72,,,,,,,,,,,,,,,,,,,,,,,5c31167d1a964b0001ffcce5,16:37:09,27/03/2024
lmdlab-html-vas-response,89,175343,0.0-38.0-1.0,3869.0,How happy are you right now?,0.5405092592592593,delaylearn,learning,mood_trial,mt4s3Nr1oPdSypfLWlfTwM60BY72,mt4s3Nr1oPdSypfLWlfTwM60BY72,,,,,,,,,,,,,,,,,,,,"['Very unhappy', 'Very happy']",,5c31167d1a964b0001ffcce5,16:37:09,27/03/2024
html-keyboard-response,90,177355,0.0-39.0,,"<div style=""font-size:100px;"">+</div>",,delaylearn,learning,ITI,mt4s3Nr1oPdSypfLWlfTwM60BY72,mt4s3Nr1oPdSypfLWlfTwM60BY72,,,,,,,,,,,,,,,,,,,2006.0,,,5c31167d1a964b0001ffcce5,16:37:09,27/03/2024
html-keyboard-response,91,178641,0.0-40.0-0.0,1283.0,"<div style=""display: flex; flex-direction: column; align-items: center; margin-top: -40px;""><img src=""images/pattern_6.png"" style=""width: 234px; height: 230px; margin-top: -50px;""><div style=""display: flex; justify-content: space-between; margin-top: 33px;""><img src=""images/choice_trial_10.png"" style=""width: 408px; height: 417px; margin-right: 200px;""><img src=""images/choice_trial_3.png"" style=""width: 408px; height: 417px;""></div></div>",f,delaylearn,learning,trial,mt4s3Nr1oPdSypfLWlfTwM60BY72,mt4s3Nr1oPdSypfLWlfTwM60BY72,4.0,images/choice_trial_10.png,images/choice_trial_3.png,images/pattern_6.png,f,f,750.0,10.0,3.0,5.0,0.0,17.0,1.0,1.0,10.0,110.0,,,,,,5c31167d1a964b0001ffcce5,16:37:09,27/03/2024
html-keyboard-response,92,179653,0.0-40.0-1.0,,"<div style=""display: flex; flex-direction: column; align-items: center; margin-top: -40px;""><img src=""images/pattern_6.png"" style=""width: 234px; height: 230px; margin-top: -50px;""><div style=""display: flex; justify-content: space-between; margin-top: 33px;""><img src=""images/choice_trial_10.png"" style=""width: 408px; height: 417px; margin-right: 608px;""></div></div>",,delaylearn,learning,display_response,mt4s3Nr1oPdSypfLWlfTwM60BY72,mt4s3Nr1oPdSypfLWlfTwM60BY72,,,,,,,,,,,,,,,,,chosen stimuli: images/choice_trial_10.png,,,,,5c31167d1a964b0001ffcce5,16:37:09,27/03/2024
html-keyboard-response,93,180412,0.0-40.0-2.0,,,,delaylearn,learning,feedback_duration_window,mt4s3Nr1oPdSypfLWlfTwM60BY72,mt4s3Nr1oPdSypfLWlfTwM60BY72,,,,,,,,,,,,,,,,,,750.0,,,,5c31167d1a964b0001ffcce5,16:37:09,27/03/2024
html-keyboard-response,94,181916,0.0-40.0-3.0,,<div style='margin:auto;width: auto; font-size: 150%'><span style='font-weight: bold; font-size: 100px; color: green;'>+10 points!</span><br><br></div>,,delaylearn,learning,feedback_image_window,mt4s3Nr1oPdSypfLWlfTwM60BY72,mt4s3Nr1oPdSypfLWlfTwM60BY72,,,,,,,,,,,,,,,,,,,,,,5c31167d1a964b0001ffcce5,16:37:09,27/03/2024
html-keyboard-response,95,184056,0.0-41.0,,"<div style=""font-size:100px;"">+</div>",,delaylearn,learning,ITI,mt4s3Nr1oPdSypfLWlfTwM60BY72,mt4s3Nr1oPdSypfLWlfTwM60BY72,,,,,,,,,,,,,,,,,,,2124.0,,,5c31167d1a964b0001ffcce5,16:37:09,27/03/2024
html-keyboard-response,96,185104,0.0-42.0-0.0,1046.0,"<div style=""display: flex; flex-direction: column; align-items: center; margin-top: -40px;""><img src=""images/pattern_4.png"" style=""width: 234px; height: 230px; margin-top: -50px;""><div style=""display: flex; justify-content: space-between; margin-top: 33px;""><img src=""images/choice_trial_7.png"" style=""width: 408px; height: 417px; margin-right: 200px;""><img src=""images/choice_trial_8.png"" style=""width: 408px; height: 417px;""></div></div>",j,delaylearn,learning,trial,mt4s3Nr1oPdSypfLWlfTwM60BY72,mt4s3Nr1oPdSypfLWlfTwM60BY72,4.0,images/choice_trial_7.png,images/choice_trial_8.png,images/pattern_4.png,j,j,7000.0,7.0,8.0,3.0,1.0,18.0,1.0,1.0,8.0,120.0,,,,,,5c31167d1a964b0001ffcce5,16:37:09,27/03/2024
html-keyboard-response,97,186116,0.0-42.0-1.0,,"<div style=""display: flex; flex-direction: column; align-items: center; margin-top: -40px;""><img src=""images/pattern_4.png"" style=""width: 234px; height: 230px; margin-top: -50px;""><div style=""display: flex; justify-content: space-between; margin-top: 33px;""><img src=""images/choice_trial_8.png"" style=""width: 408px; height: 417px; margin-left:608px;""></div></div>",,delaylearn,learning,display_response,mt4s3Nr1oPdSypfLWlfTwM60BY72,mt4s3Nr1oPdSypfLWlfTwM60BY72,,,,,,,,,,,,,,,,,chosen stimuli: images/choice_trial_8.png,,,,,5c31167d1a964b0001ffcce5,16:37:09,27/03/2024
html-keyboard-response,98,193127,0.0-42.0-2.0,,,,delaylearn,learning,feedback_duration_window,mt4s3Nr1oPdSypfLWlfTwM60BY72,mt4s3Nr1oPdSypfLWlfTwM60BY72,,,,,,,,,,,,,,,,,,7000.0,,,,5c31167d1a964b0001ffcce5,16:37:09,27/03/2024
html-keyboard-response,99,194634,0.0-42.0-3.0,,<div style='margin:auto;width: auto; font-size: 150%'><span style='font-weight: bold; font-size: 100px; color: green;'>+10 points!</span><br><br></div>,,delaylearn,learning,feedback_image_window,mt4s3Nr1oPdSypfLWlfTwM60BY72,mt4s3Nr1oPdSypfLWlfTwM60BY72,,,,,,,,,,,,,,,,,,,,,,5c31167d1a964b0001ffcce5,16:37:09,27/03/2024
html-keyboard-response,100,197125,0.0-43.0,,"<div style=""font-size:100px;"">+</div>",,delaylearn,learning,ITI,mt4s3Nr1oPdSypfLWlfTwM60BY72,mt4s3Nr1oPdSypfLWlfTwM60BY72,,,,,,,,,,,,,,,,,,,2485.0,,,5c31167d1a964b0001ffcce5,16:37:09,27/03/2024
html-keyboard-response,101,198287,0.0-44.0-0.0,1160.0,"<div style=""display: flex; flex-direction: column; align-items: center; margin-top: -40px;""><img src=""images/pattern_7.png"" style=""width: 234px; height: 230px; margin-top: -50px;""><div style=""display: flex; justify-content: space-between; margin-top: 33px;""><img src=""images/choice_trial_13.png"" style=""width: 408px; height: 417px; margin-right: 200px;""><img src=""images/choice_trial_4.png"" style=""width: 408px; height: 417px;""></div></div>",f,delaylearn,learning,trial,mt4s3Nr1oPdSypfLWlfTwM60BY72,mt4s3Nr1oPdSypfLWlfTwM60BY72,4.0,images/choice_trial_13.png,images/choice_trial_4.png,images/pattern_7.png,j,f,750.0,13.0,4.0,6.0,0.0,19.0,1.0,0.0,13.0,120.0,,,,,,5c31167d1a964b0001ffcce5,16:37:09,27/03/2024
html-keyboard-response,102,199299,0.0-44.0-1.0,,"<div style=""display: flex; flex-direction: column; align-items: center; margin-top: -40px;""><img src=""images/pattern_7.png"" style=""width: 234px; height: 230px; margin-top: -50px;""><div style=""display: flex; justify-content: space-between; margin-top: 33px;""><img src=""images/choice_trial_13.png"" style=""width: 408px; height: 417px; margin-right: 608px;""></div></div>",,delaylearn,learning,display_response,mt4s3Nr1oPdSypfLWlfTwM60BY72,mt4s3Nr1oPdSypfLWlfTwM60BY72,,,,,,,,,,,,,,,,,chosen stimuli: images/choice_trial_13.png,,,,,5c31167d1a964b0001ffcce5,16:37:09,27/03/2024
html-keyboard-response,103,200062,0.0-44.0-2.0,,,,delaylearn,learning,feedback_duration_window,mt4s3Nr1oPdSypfLWlfTwM60BY72,mt4s3Nr1oPdSypfLWlfTwM60BY72,,,,,,,,,,,,,,,,,,750.0,,,,5c31167d1a964b0001ffcce5,16:37:09,27/03/2024
html-keyboard-response,104,201566,0.0-44.0-3.0,,<div style='margin:auto;width: auto; font-size: 150%'><span style='font-weight: bold; font-size: 100px; color: red;'>0 points!</span><br><br></div>,,delaylearn,learning,feedback_image_window,mt4s3Nr1oPdSypfLWlfTwM60BY72,mt4s3Nr1oPdSypfLWlfTwM60BY72,,,,,,,,,,,,,,,,,,,,,,5c31167d1a964b0001ffcce5,16:37:09,27/03/2024
html-keyboard-response,105,203365,0.0-45.0,,"<div style=""font-size:100px;"">+</div>",,delaylearn,learning,ITI,mt4s3Nr1oPdSypfLWlfTwM60BY72,mt4s3Nr1oPdSypfLWlfTwM60BY72,,,,,,,,,,,,,,,,,,,1796.0,,,5c31167d1a964b0001ffcce5,16:37:09,27/03/2024
html-keyboard-response,106,204432,0.0-46.0-0.0,1065.0,"<div style=""display: flex; flex-direction: column; align-items: center; margin-top: -40px;""><img src=""images/pattern_1.png"" style=""width: 234px; height: 230px; margin-top: -50px;""><div style=""display: flex; justify-content: space-between; margin-top: 33px;""><img src=""images/choice_trial_1.png"" style=""width: 408px; height: 417px; margin-right: 200px;""><img src=""images/choice_trial_9.png"" style=""width: 408px; height: 417px;""></div></div>",j,delaylearn,learning,trial,mt4s3Nr1oPdSypfLWlfTwM60BY72,mt4s3Nr1oPdSypfLWlfTwM60BY72,4.0,images/choice_trial_1.png,images/choice_trial_9.png,images/pattern_1.png,f,f,7000.0,1.0,9.0,1.0,0.0,20.0,0.0,0.0,9.0,120.0,,,,,,5c31167d1a964b0001ffcce5,16:37:09,27/03/2024
html-keyboard-response,107,205448,0.0-46.0-1.0,,"<div style=""display: flex; flex-direction: column; align-items: center; margin-top: -40px;""><img src=""images/pattern_1.png"" style=""width: 234px; height: 230px; margin-top: -50px;""><div style=""display: flex; justify-content: space-between; margin-top: 33px;""><img src=""images/choice_trial_9.png"" style=""width: 408px; height: 417px; margin-left:608px;""></div></div>",,delaylearn,learning,display_response,mt4s3Nr1oPdSypfLWlfTwM60BY72,mt4s3Nr1oPdSypfLWlfTwM60BY72,,,,,,,,,,,,,,,,,chosen stimuli: images/choice_trial_9.png,,,,,5c31167d1a964b0001ffcce5,16:37:09,27/03/2024
html-keyboard-response,108,212462,0.0-46.0-2.0,,,,delaylearn,learning,feedback_duration_window,mt4s3Nr1oPdSypfLWlfTwM60BY72,mt4s3Nr1oPdSypfLWlfTwM60BY72,,,,,,,,,,,,,,,,,,7000.0,,,,5c31167d1a964b0001ffcce5,16:37:09,27/03/2024
html-keyboard-response,109,213965,0.0-46.0-3.0,,<div style='margin:auto;width: auto; font-size: 150%'><span style='font-weight: bold; font-size: 100px; color: red;'>0 points!</span><br><br></div>,,delaylearn,learning,feedback_image_window,mt4s3Nr1oPdSypfLWlfTwM60BY72,mt4s3Nr1oPdSypfLWlfTwM60BY72,,,,,,,,,,,,,,,,,,,,,,5c31167d1a964b0001ffcce5,16:37:09,27/03/2024
html-keyboard-response,110,215798,0.0-47.0,,"<div style=""font-size:100px;"">+</div>",,delaylearn,learning,ITI,mt4s3Nr1oPdSypfLWlfTwM60BY72,mt4s3Nr1oPdSypfLWlfTwM60BY72,,,,,,,,,,,,,,,,,,,1821.0,,,5c31167d1a964b0001ffcce5,16:37:09,27/03/2024
html-keyboard-response,111,217184,0.0-48.0-0.0,1382.0,"<div style=""display: flex; flex-direction: column; align-items: center; margin-top: -40px;""><img src=""images/pattern_6.png"" style=""width: 234px; height: 230px; margin-top: -50px;""><div style=""display: flex; justify-content: space-between; margin-top: 33px;""><img src=""images/choice_trial_3.png"" style=""width: 408px; height: 417px; margin-right: 200px;""><img src=""images/choice_trial_10.png"" style=""width: 408px; height: 417px;""></div></div>",f,delaylearn,learning,trial,mt4s3Nr1oPdSypfLWlfTwM60BY72,mt4s3Nr1oPdSypfLWlfTwM60BY72,4.0,images/choice_trial_3.png,images/choice_trial_10.png,images/pattern_6.png,j,j,750.0,3.0,10.0,5.0,1.0,21.0,0.0,0.0,3.0,120.0,,,,,,5c31167d1a964b0001ffcce5,16:37:09,27/03/2024
html-keyboard-response,112,218191,0.0-48.0-1.0,,"<div style=""display: flex; flex-direction: column; align-items: center; margin-top: -40px;""><img src=""images/pattern_6.png"" style=""width: 234px; height: 230px; margin-top: -50px;""><div style=""display: flex; justify-content: space-between; margin-top: 33px;""><img src=""images/choice_trial_3.png"" style=""width: 408px; height: 417px; margin-right: 608px;""></div></div>",,delaylearn,learning,display_response,mt4s3Nr1oPdSypfLWlfTwM60BY72,mt4s3Nr1oPdSypfLWlfTwM60BY72,,,,,,,,,,,,,,,,,chosen stimuli: images/choice_trial_3.png,,,,,5c31167d1a964b0001ffcce5,16:37:09,27/03/2024
html-keyboard-response,113,218954,0.0-48.0-2.0,,,,delaylearn,learning,feedback_duration_window,mt4s3Nr1oPdSypfLWlfTwM60BY72,mt4s3Nr1oPdSypfLWlfTwM60BY72,,,,,,,,,,,,,,,,,,750.0,,,,5c31167d1a964b0001ffcce5,16:37:09,27/03/2024
html-keyboard-response,114,220460,0.0-48.0-3.0,,<div style='margin:auto;width: auto; font-size: 150%'><span style='font-weight: bold; font-size: 100px; color: red;'>0 points!</span><br><br></div>,,delaylearn,learning,feedback_image_window,mt4s3Nr1oPdSypfLWlfTwM60BY72,mt4s3Nr1oPdSypfLWlfTwM60BY72,,,,,,,,,,,,,,,,,,,,,,5c31167d1a964b0001ffcce5,16:37:09,27/03/2024
html-keyboard-response,115,222219,0.0-49.0,,"<div style=""font-size:100px;"">+</div>",,delaylearn,learning,ITI,mt4s3Nr1oPdSypfLWlfTwM60BY72,mt4s3Nr1oPdSypfLWlfTwM60BY72,,,,,,,,,,,,,,,,,,,1751.0,,,5c31167d1a964b0001ffcce5,16:37:09,27/03/2024
html-keyboard-response,116,223712,0.0-50.0-0.0,1490.0,"<div style=""display: flex; flex-direction: column; align-items: center; margin-top: -40px;""><img src=""images/pattern_4.png"" style=""width: 234px; height: 230px; margin-top: -50px;""><div style=""display: flex; justify-content: space-between; margin-top: 33px;""><img src=""images/choice_trial_8.png"" style=""width: 408px; height: 417px; margin-right: 200px;""><img src=""images/choice_trial_7.png"" style=""width: 408px; height: 417px;""></div></div>",f,delaylearn,learning,trial,mt4s3Nr1oPdSypfLWlfTwM60BY72,mt4s3Nr1oPdSypfLWlfTwM60BY72,4.0,images/choice_trial_8.png,images/choice_trial_7.png,images/pattern_4.png,f,f,7000.0,8.0,7.0,3.0,0.0,22.0,1.0,1.0,8.0,130.0,,,,,,5c31167d1a964b0001ffcce5,16:37:09,27/03/2024
html-keyboard-response,117,224720,0.0-50.0-1.0,,"<div style=""display: flex; flex-direction: column; align-items: center; margin-top: -40px;""><img src=""images/pattern_4.png"" style=""width: 234px; height: 230px; margin-top: -50px;""><div style=""display: flex; justify-content: space-between; margin-top: 33px;""><img src=""images/choice_trial_8.png"" style=""width: 408px; height: 417px; margin-right: 608px;""></div></div>",,delaylearn,learning,display_response,mt4s3Nr1oPdSypfLWlfTwM60BY72,mt4s3Nr1oPdSypfLWlfTwM60BY72,,,,,,,,,,,,,,,,,chosen stimuli: images/choice_trial_8.png,,,,,5c31167d1a964b0001ffcce5,16:37:09,27/03/2024
html-keyboard-response,118,231757,0.0-50.0-2.0,,,,delaylearn,learning,feedback_duration_window,mt4s3Nr1oPdSypfLWlfTwM60BY72,mt4s3Nr1oPdSypfLWlfTwM60BY72,,,,,,,,,,,,,,,,,,7000.0,,,,5c31167d1a964b0001ffcce5,16:37:09,27/03/2024
html-keyboard-response,119,233264,0.0-50.0-3.0,,<div style='margin:auto;width: auto; font-size: 150%'><span style='font-weight: bold; font-size: 100px; color: green;'>+10 points!</span><br><br></div>,,delaylearn,learning,feedback_image_window,mt4s3Nr1oPdSypfLWlfTwM60BY72,mt4s3Nr1oPdSypfLWlfTwM60BY72,,,,,,,,,,,,,,,,,,,,,,5c31167d1a964b0001ffcce5,16:37:09,27/03/2024
html-keyboard-response,120,233792,0.0-51.0-0.0,,,,,,mood_trial_fixation,mt4s3Nr1oPdSypfLWlfTwM60BY72,,,,,,,,,,,,,,,,,,,,,,,5c31167d1a964b0001ffcce5,16:37:09,27/03/2024
lmdlab-html-vas-response,121,238386,0.0-51.0-1.0,3581.0,How happy are you right now?,0.5497685185185185,delaylearn,learning,mood_trial,mt4s3Nr1oPdSypfLWlfTwM60BY72,mt4s3Nr1oPdSypfLWlfTwM60BY72,,,,,,,,,,,,,,,,,,,,"['Very unhappy', 'Very happy']",,5c31167d1a964b0001ffcce5,16:37:09,27/03/2024
html-keyboard-response,122,239943,0.0-52.0,,"<div style=""font-size:100px;"">+</div>",,delaylearn,learning,ITI,mt4s3Nr1oPdSypfLWlfTwM60BY72,mt4s3Nr1oPdSypfLWlfTwM60BY72,,,,,,,,,,,,,,,,,,,1530.0,,,5c31167d1a964b0001ffcce5,16:37:09,27/03/2024
html-keyboard-response,123,241199,0.0-53.0-0.0,1254.0,"<div style=""display: flex; flex-direction: column; align-items: center; margin-top: -40px;""><img src=""images/pattern_7.png"" style=""width: 234px; height: 230px; margin-top: -50px;""><div style=""display: flex; justify-content: space-between; margin-top: 33px;""><img src=""images/choice_trial_4.png"" style=""width: 408px; height: 417px; margin-right: 200px;""><img src=""images/choice_trial_13.png"" style=""width: 408px; height: 417px;""></div></div>",f,delaylearn,learning,trial,mt4s3Nr1oPdSypfLWlfTwM60BY72,mt4s3Nr1oPdSypfLWlfTwM60BY72,4.0,images/choice_trial_4.png,images/choice_trial_13.png,images/pattern_7.png,j,j,750.0,4.0,13.0,6.0,1.0,23.0,0.0,0.0,4.0,130.0,,,,,,5c31167d1a964b0001ffcce5,16:37:09,27/03/2024
html-keyboard-response,124,242208,0.0-53.0-1.0,,"<div style=""display: flex; flex-direction: column; align-items: center; margin-top: -40px;""><img src=""images/pattern_7.png"" style=""width: 234px; height: 230px; margin-top: -50px;""><div style=""display: flex; justify-content: space-between; margin-top: 33px;""><img src=""images/choice_trial_4.png"" style=""width: 408px; height: 417px; margin-right: 608px;""></div></div>",,delaylearn,learning,display_response,mt4s3Nr1oPdSypfLWlfTwM60BY72,mt4s3Nr1oPdSypfLWlfTwM60BY72,,,,,,,,,,,,,,,,,chosen stimuli: images/choice_trial_4.png,,,,,5c31167d1a964b0001ffcce5,16:37:09,27/03/2024
html-keyboard-response,125,242965,0.0-53.0-2.0,,,,delaylearn,learning,feedback_duration_window,mt4s3Nr1oPdSypfLWlfTwM60BY72,mt4s3Nr1oPdSypfLWlfTwM60BY72,,,,,,,,,,,,,,,,,,750.0,,,,5c31167d1a964b0001ffcce5,16:37:09,27/03/2024
html-keyboard-response,126,244475,0.0-53.0-3.0,,<div style='margin:auto;width: auto; font-size: 150%'><span style='font-weight: bold; font-size: 100px; color: red;'>0 points!</span><br><br></div>,,delaylearn,learning,feedback_image_window,mt4s3Nr1oPdSypfLWlfTwM60BY72,mt4s3Nr1oPdSypfLWlfTwM60BY72,,,,,,,,,,,,,,,,,,,,,,5c31167d1a964b0001ffcce5,16:37:09,27/03/2024
html-keyboard-response,127,245992,0.0-54.0,,"<div style=""font-size:100px;"">+</div>",,delaylearn,learning,ITI,mt4s3Nr1oPdSypfLWlfTwM60BY72,mt4s3Nr1oPdSypfLWlfTwM60BY72,,,,,,,,,,,,,,,,,,,1514.0,,,5c31167d1a964b0001ffcce5,16:37:09,27/03/2024
html-keyboard-response,128,247024,0.0-55.0-0.0,1030.0,"<div style=""display: flex; flex-direction: column; align-items: center; margin-top: -40px;""><img src=""images/pattern_1.png"" style=""width: 234px; height: 230px; margin-top: -50px;""><div style=""display: flex; justify-content: space-between; margin-top: 33px;""><img src=""images/choice_trial_9.png"" style=""width: 408px; height: 417px; margin-right: 200px;""><img src=""images/choice_trial_1.png"" style=""width: 408px; height: 417px;""></div></div>",j,delaylearn,learning,trial,mt4s3Nr1oPdSypfLWlfTwM60BY72,mt4s3Nr1oPdSypfLWlfTwM60BY72,4.0,images/choice_trial_9.png,images/choice_trial_1.png,images/pattern_1.png,f,j,7000.0,9.0,1.0,1.0,1.0,24.0,1.0,0.0,1.0,130.0,,,,,,5c31167d1a964b0001ffcce5,16:37:09,27/03/2024
html-keyboard-response,129,248039,0.0-55.0-1.0,,"<div style=""display: flex; flex-direction: column; align-items: center; margin-top: -40px;""><img src=""images/pattern_1.png"" style=""width: 234px; height: 230px; margin-top: -50px;""><div style=""display: flex; justify-content: space-between; margin-top: 33px;""><img src=""images/choice_trial_1.png"" style=""width: 408px; height: 417px; margin-left:608px;""></div></div>",,delaylearn,learning,display_response,mt4s3Nr1oPdSypfLWlfTwM60BY72,mt4s3Nr1oPdSypfLWlfTwM60BY72,,,,,,,,,,,,,,,,,chosen stimuli: images/choice_trial_1.png,,,,,5c31167d1a964b0001ffcce5,16:37:09,27/03/2024
html-keyboard-response,130,255055,0.0-55.0-2.0,,,,delaylearn,learning,feedback_duration_window,mt4s3Nr1oPdSypfLWlfTwM60BY72,mt4s3Nr1oPdSypfLWlfTwM60BY72,,,,,,,,,,,,,,,,,,7000.0,,,,5c31167d1a964b0001ffcce5,16:37:09,27/03/2024
html-keyboard-response,131,256570,0.0-55.0-3.0,,<div style='margin:auto;width: auto; font-size: 150%'><span style='font-weight: bold; font-size: 100px; color: red;'>0 points!</span><br><br></div>,,delaylearn,learning,feedback_image_window,mt4s3Nr1oPdSypfLWlfTwM60BY72,mt4s3Nr1oPdSypfLWlfTwM60BY72,,,,,,,,,,,,,,,,,,,,,,5c31167d1a964b0001ffcce5,16:37:09,27/03/2024
html-keyboard-response,132,258296,0.0-56.0,,"<div style=""font-size:100px;"">+</div>",,delaylearn,learning,ITI,mt4s3Nr1oPdSypfLWlfTwM60BY72,mt4s3Nr1oPdSypfLWlfTwM60BY72,,,,,,,,,,,,,,,,,,,1717.0,,,5c31167d1a964b0001ffcce5,16:37:09,27/03/2024
html-keyboard-response,133,259409,0.0-57.0-0.0,1110.0,"<div style=""display: flex; flex-direction: column; align-items: center; margin-top: -40px;""><img src=""images/pattern_5.png"" style=""width: 234px; height: 230px; margin-top: -50px;""><div style=""display: flex; justify-content: space-between; margin-top: 33px;""><img src=""images/choice_trial_15.png"" style=""width: 408px; height: 417px; margin-right: 200px;""><img src=""images/choice_trial_5.png"" style=""width: 408px; height: 417px;""></div></div>",j,delaylearn,learning,trial,mt4s3Nr1oPdSypfLWlfTwM60BY72,mt4s3Nr1oPdSypfLWlfTwM60BY72,4.0,images/choice_trial_15.png,images/choice_trial_5.png,images/pattern_5.png,j,j,750.0,15.0,5.0,4.0,1.0,25.0,1.0,1.0,5.0,140.0,,,,,,5c31167d1a964b0001ffcce5,16:37:09,27/03/2024
html-keyboard-response,134,260420,0.0-57.0-1.0,,"<div style=""display: flex; flex-direction: column; align-items: center; margin-top: -40px;""><img src=""images/pattern_5.png"" style=""width: 234px; height: 230px; margin-top: -50px;""><div style=""display: flex; justify-content: space-between; margin-top: 33px;""><img src=""images/choice_trial_5.png"" style=""width: 408px; height: 417px; margin-left:608px;""></div></div>",,delaylearn,learning,display_response,mt4s3Nr1oPdSypfLWlfTwM60BY72,mt4s3Nr1oPdSypfLWlfTwM60BY72,,,,,,,,,,,,,,,,,chosen stimuli: images/choice_trial_5.png,,,,,5c31167d1a964b0001ffcce5,16:37:09,27/03/2024
html-keyboard-response,135,261183,0.0-57.0-2.0,,,,delaylearn,learning,feedback_duration_window,mt4s3Nr1oPdSypfLWlfTwM60BY72,mt4s3Nr1oPdSypfLWlfTwM60BY72,,,,,,,,,,,,,,,,,,750.0,,,,5c31167d1a964b0001ffcce5,16:37:09,27/03/2024
html-keyboard-response,136,262690,0.0-57.0-3.0,,<div style='margin:auto;width: auto; font-size: 150%'><span style='font-weight: bold; font-size: 100px; color: green;'>+10 points!</span><br><br></div>,,delaylearn,learning,feedback_image_window,mt4s3Nr1oPdSypfLWlfTwM60BY72,mt4s3Nr1oPdSypfLWlfTwM60BY72,,,,,,,,,,,,,,,,,,,,,,5c31167d1a964b0001ffcce5,16:37:09,27/03/2024
html-keyboard-response,137,264412,0.0-58.0,,"<div style=""font-size:100px;"">+</div>",,delaylearn,learning,ITI,mt4s3Nr1oPdSypfLWlfTwM60BY72,mt4s3Nr1oPdSypfLWlfTwM60BY72,,,,,,,,,,,,,,,,,,,1647.0,,,5c31167d1a964b0001ffcce5,16:37:09,27/03/2024
html-keyboard-response,138,265744,0.0-59.0-0.0,1330.0,"<div style=""display: flex; flex-direction: column; align-items: center; margin-top: -40px;""><img src=""images/pattern_3.png"" style=""width: 234px; height: 230px; margin-top: -50px;""><div style=""display: flex; justify-content: space-between; margin-top: 33px;""><img src=""images/choice_trial_6.png"" style=""width: 408px; height: 417px; margin-right: 200px;""><img src=""images/choice_trial_16.png"" style=""width: 408px; height: 417px;""></div></div>",f,delaylearn,learning,trial,mt4s3Nr1oPdSypfLWlfTwM60BY72,mt4s3Nr1oPdSypfLWlfTwM60BY72,4.0,images/choice_trial_6.png,images/choice_trial_16.png,images/pattern_3.png,j,j,7000.0,6.0,16.0,2.0,1.0,26.0,0.0,0.0,6.0,140.0,,,,,,5c31167d1a964b0001ffcce5,16:37:09,27/03/2024
html-keyboard-response,139,266752,0.0-59.0-1.0,,"<div style=""display: flex; flex-direction: column; align-items: center; margin-top: -40px;""><img src=""images/pattern_3.png"" style=""width: 234px; height: 230px; margin-top: -50px;""><div style=""display: flex; justify-content: space-between; margin-top: 33px;""><img src=""images/choice_trial_6.png"" style=""width: 408px; height: 417px; margin-right: 608px;""></div></div>",,delaylearn,learning,display_response,mt4s3Nr1oPdSypfLWlfTwM60BY72,mt4s3Nr1oPdSypfLWlfTwM60BY72,,,,,,,,,,,,,,,,,chosen stimuli: images/choice_trial_6.png,,,,,5c31167d1a964b0001ffcce5,16:37:09,27/03/2024
html-keyboard-response,140,273756,0.0-59.0-2.0,,,,delaylearn,learning,feedback_duration_window,mt4s3Nr1oPdSypfLWlfTwM60BY72,mt4s3Nr1oPdSypfLWlfTwM60BY72,,,,,,,,,,,,,,,,,,7000.0,,,,5c31167d1a964b0001ffcce5,16:37:09,27/03/2024
html-keyboard-response,141,275268,0.0-59.0-3.0,,<div style='margin:auto;width: auto; font-size: 150%'><span style='font-weight: bold; font-size: 100px; color: red;'>0 points!</span><br><br></div>,,delaylearn,learning,feedback_image_window,mt4s3Nr1oPdSypfLWlfTwM60BY72,mt4s3Nr1oPdSypfLWlfTwM60BY72,,,,,,,,,,,,,,,,,,,,,,5c31167d1a964b0001ffcce5,16:37:09,27/03/2024
lmdlab-html-vas-response,142,284214,0.0-60.0-0.0,7441.0,*How <b><u>confident</u></b> are you feeling about your answers at this moment?*,0.37037037037037035,rewlearn,rate_confidence,,mt4s3Nr1oPdSypfLWlfTwM60BY72,mt4s3Nr1oPdSypfLWlfTwM60BY72,,,,,,,,,,,,,,,,,,,,"['No confidence', 'Complete confidence']",,5c31167d1a964b0001ffcce5,16:37:09,27/03/2024
lmdlab-rest-trial-limit,143,322711,0.0-60.0-1.0,36992.0,"<div style=""font-size:40px;""><b>Please take a break!</b><br><br><br><br><p>Great work: you earned 140 points.<br><br><br><p>You have completed part(s) 1 of 5.<br><br><br><br>When you are ready to continue<br><br><br>please click the button.</p><br><br>",0,delaylearn,learning,break,mt4s3Nr1oPdSypfLWlfTwM60BY72,mt4s3Nr1oPdSypfLWlfTwM60BY72,,,,,,,,,,,,,,,,,,,,,0.0,5c31167d1a964b0001ffcce5,16:37:09,27/03/2024
html-keyboard-response,144,325721,0.0-60.0-2.0,,"<div style=""font-size:100px;"">+</div>",,delaylearn,learning,pre_fixation,mt4s3Nr1oPdSypfLWlfTwM60BY72,,,,,,,,,,,,,,,,,,,,,,,5c31167d1a964b0001ffcce5,16:37:09,27/03/2024
lmdlab-html-vas-response,145,330025,0.0-60.0-3.0-0.0,3293.0,How happy are you right now?,0.5821759259259259,delaylearn,learning,mood_baseline,mt4s3Nr1oPdSypfLWlfTwM60BY72,mt4s3Nr1oPdSypfLWlfTwM60BY72,,,,,,,,,,,,,,,,,,,,"['Very unhappy', 'Very happy']",,5c31167d1a964b0001ffcce5,16:37:09,27/03/2024
html-keyboard-response,146,331536,0.0-60.0-3.0-1.0,,,,,,mood_baseline_fixation,mt4s3Nr1oPdSypfLWlfTwM60BY72,,,,,,,,,,,,,,,,,,,,,,,5c31167d1a964b0001ffcce5,16:37:09,27/03/2024
html-keyboard-response,147,333167,0.0-61.0,,"<div style=""font-size:100px;"">+</div>",,delaylearn,learning,ITI,mt4s3Nr1oPdSypfLWlfTwM60BY72,mt4s3Nr1oPdSypfLWlfTwM60BY72,,,,,,,,,,,,,,,,,,,1629.0,,,5c31167d1a964b0001ffcce5,16:37:09,27/03/2024
html-keyboard-response,148,334575,0.0-62.0-0.0,1406.0,"<div style=""display: flex; flex-direction: column; align-items: center; margin-top: -40px;""><img src=""images/pattern_7.png"" style=""width: 234px; height: 230px; margin-top: -50px;""><div style=""display: flex; justify-content: space-between; margin-top: 33px;""><img src=""images/choice_trial_4.png"" style=""width: 408px; height: 417px; margin-right: 200px;""><img src=""images/choice_trial_13.png"" style=""width: 408px; height: 417px;""></div></div>",f,delaylearn,learning,trial,mt4s3Nr1oPdSypfLWlfTwM60BY72,mt4s3Nr1oPdSypfLWlfTwM60BY72,4.0,images/choice_trial_4.png,images/choice_trial_13.png,images/pattern_7.png,j,j,750.0,4.0,13.0,6.0,1.0,27.0,0.0,0.0,4.0,140.0,,,,,,5c31167d1a964b0001ffcce5,16:37:09,27/03/2024
html-keyboard-response,149,335588,0.0-62.0-1.0,,"<div style=""display: flex; flex-direction: column; align-items: center; margin-top: -40px;""><img src=""images/pattern_7.png"" style=""width: 234px; height: 230px; margin-top: -50px;""><div style=""display: flex; justify-content: space-between; margin-top: 33px;""><img src=""images/choice_trial_4.png"" style=""width: 408px; height: 417px; margin-right: 608px;""></div></div>",,delaylearn,learning,display_response,mt4s3Nr1oPdSypfLWlfTwM60BY72,mt4s3Nr1oPdSypfLWlfTwM60BY72,,,,,,,,,,,,,,,,,chosen stimuli: images/choice_trial_4.png,,,,,5c31167d1a964b0001ffcce5,16:37:09,27/03/2024
html-keyboard-response,150,336349,0.0-62.0-2.0,,,,delaylearn,learning,feedback_duration_window,mt4s3Nr1oPdSypfLWlfTwM60BY72,mt4s3Nr1oPdSypfLWlfTwM60BY72,,,,,,,,,,,,,,,,,,750.0,,,,5c31167d1a964b0001ffcce5,16:37:09,27/03/2024
html-keyboard-response,151,337849,0.0-62.0-3.0,,<div style='margin:auto;width: auto; font-size: 150%'><span style='font-weight: bold; font-size: 100px; color: red;'>0 points!</span><br><br></div>,,delaylearn,learning,feedback_image_window,mt4s3Nr1oPdSypfLWlfTwM60BY72,mt4s3Nr1oPdSypfLWlfTwM60BY72,,,,,,,,,,,,,,,,,,,,,,5c31167d1a964b0001ffcce5,16:37:09,27/03/2024
html-keyboard-response,152,338406,0.0-63.0-0.0,,,,,,mood_trial_fixation,mt4s3Nr1oPdSypfLWlfTwM60BY72,,,,,,,,,,,,,,,,,,,,,,,5c31167d1a964b0001ffcce5,16:37:09,27/03/2024
lmdlab-html-vas-response,153,341917,0.0-63.0-1.0,2505.0,How happy are you right now?,0.4386574074074074,delaylearn,learning,mood_trial,mt4s3Nr1oPdSypfLWlfTwM60BY72,mt4s3Nr1oPdSypfLWlfTwM60BY72,,,,,,,,,,,,,,,,,,,,"['Very unhappy', 'Very happy']",,5c31167d1a964b0001ffcce5,16:37:09,27/03/2024
html-keyboard-response,154,343769,0.0-64.0,,"<div style=""font-size:100px;"">+</div>",,delaylearn,learning,ITI,mt4s3Nr1oPdSypfLWlfTwM60BY72,mt4s3Nr1oPdSypfLWlfTwM60BY72,,,,,,,,,,,,,,,,,,,1842.0,,,5c31167d1a964b0001ffcce5,16:37:09,27/03/2024
html-keyboard-response,155,344895,0.0-65.0-0.0,1124.0,"<div style=""display: flex; flex-direction: column; align-items: center; margin-top: -40px;""><img src=""images/pattern_1.png"" style=""width: 234px; height: 230px; margin-top: -50px;""><div style=""display: flex; justify-content: space-between; margin-top: 33px;""><img src=""images/choice_trial_1.png"" style=""width: 408px; height: 417px; margin-right: 200px;""><img src=""images/choice_trial_9.png"" style=""width: 408px; height: 417px;""></div></div>",j,delaylearn,learning,trial,mt4s3Nr1oPdSypfLWlfTwM60BY72,mt4s3Nr1oPdSypfLWlfTwM60BY72,4.0,images/choice_trial_1.png,images/choice_trial_9.png,images/pattern_1.png,f,f,7000.0,1.0,9.0,1.0,0.0,28.0,0.0,0.0,9.0,140.0,,,,,,5c31167d1a964b0001ffcce5,16:37:09,27/03/2024
html-keyboard-response,156,345907,0.0-65.0-1.0,,"<div style=""display: flex; flex-direction: column; align-items: center; margin-top: -40px;""><img src=""images/pattern_1.png"" style=""width: 234px; height: 230px; margin-top: -50px;""><div style=""display: flex; justify-content: space-between; margin-top: 33px;""><img src=""images/choice_trial_9.png"" style=""width: 408px; height: 417px; margin-left:608px;""></div></div>",,delaylearn,learning,display_response,mt4s3Nr1oPdSypfLWlfTwM60BY72,mt4s3Nr1oPdSypfLWlfTwM60BY72,,,,,,,,,,,,,,,,,chosen stimuli: images/choice_trial_9.png,,,,,5c31167d1a964b0001ffcce5,16:37:09,27/03/2024
html-keyboard-response,157,352915,0.0-65.0-2.0,,,,delaylearn,learning,feedback_duration_window,mt4s3Nr1oPdSypfLWlfTwM60BY72,mt4s3Nr1oPdSypfLWlfTwM60BY72,,,,,,,,,,,,,,,,,,7000.0,,,,5c31167d1a964b0001ffcce5,16:37:09,27/03/2024
html-keyboard-response,158,354441,0.0-65.0-3.0,,<div style='margin:auto;width: auto; font-size: 150%'><span style='font-weight: bold; font-size: 100px; color: red;'>0 points!</span><br><br></div>,,delaylearn,learning,feedback_image_window,mt4s3Nr1oPdSypfLWlfTwM60BY72,mt4s3Nr1oPdSypfLWlfTwM60BY72,,,,,,,,,,,,,,,,,,,,,,5c31167d1a964b0001ffcce5,16:37:09,27/03/2024
html-keyboard-response,159,356801,0.0-66.0,,"<div style=""font-size:100px;"">+</div>",,delaylearn,learning,ITI,mt4s3Nr1oPdSypfLWlfTwM60BY72,mt4s3Nr1oPdSypfLWlfTwM60BY72,,,,,,,,,,,,,,,,,,,2343.0,,,5c31167d1a964b0001ffcce5,16:37:09,27/03/2024
html-keyboard-response,160,358161,0.0-67.0-0.0,1358.0,"<div style=""display: flex; flex-direction: column; align-items: center; margin-top: -40px;""><img src=""images/pattern_5.png"" style=""width: 234px; height: 230px; margin-top: -50px;""><div style=""display: flex; justify-content: space-between; margin-top: 33px;""><img src=""images/choice_trial_5.png"" style=""width: 408px; height: 417px; margin-right: 200px;""><img src=""images/choice_trial_15.png"" style=""width: 408px; height: 417px;""></div></div>",j,delaylearn,learning,trial,mt4s3Nr1oPdSypfLWlfTwM60BY72,mt4s3Nr1oPdSypfLWlfTwM60BY72,4.0,images/choice_trial_5.png,images/choice_trial_15.png,images/pattern_5.png,f,f,750.0,5.0,15.0,4.0,0.0,29.0,0.0,0.0,15.0,140.0,,,,,,5c31167d1a964b0001ffcce5,16:37:09,27/03/2024
html-keyboard-response,161,359171,0.0-67.0-1.0,,"<div style=""display: flex; flex-direction: column; align-items: center; margin-top: -40px;""><img src=""images/pattern_5.png"" style=""width: 234px; height: 230px; margin-top: -50px;""><div style=""display: flex; justify-content: space-between; margin-top: 33px;""><img src=""images/choice_trial_15.png"" style=""width: 408px; height: 417px; margin-left:608px;""></div></div>",,delaylearn,learning,display_response,mt4s3Nr1oPdSypfLWlfTwM60BY72,mt4s3Nr1oPdSypfLWlfTwM60BY72,,,,,,,,,,,,,,,,,chosen stimuli: images/choice_trial_15.png,,,,,5c31167d1a964b0001ffcce5,16:37:09,27/03/2024
html-keyboard-response,162,359930,0.0-67.0-2.0,,,,delaylearn,learning,feedback_duration_window,mt4s3Nr1oPdSypfLWlfTwM60BY72,mt4s3Nr1oPdSypfLWlfTwM60BY72,,,,,,,,,,,,,,,,,,750.0,,,,5c31167d1a964b0001ffcce5,16:37:09,27/03/2024
html-keyboard-response,163,361437,0.0-67.0-3.0,,<div style='margin:auto;width: auto; font-size: 150%'><span style='font-weight: bold; font-size: 100px; color: red;'>0 points!</span><br><br></div>,,delaylearn,learning,feedback_image_window,mt4s3Nr1oPdSypfLWlfTwM60BY72,mt4s3Nr1oPdSypfLWlfTwM60BY72,,,,,,,,,,,,,,,,,,,,,,5c31167d1a964b0001ffcce5,16:37:09,27/03/2024
html-keyboard-response,164,363764,0.0-68.0,,"<div style=""font-size:100px;"">+</div>",,delaylearn,learning,ITI,mt4s3Nr1oPdSypfLWlfTwM60BY72,mt4s3Nr1oPdSypfLWlfTwM60BY72,,,,,,,,,,,,,,,,,,,2322.0,,,5c31167d1a964b0001ffcce5,16:37:09,27/03/2024
html-keyboard-response,165,364864,0.0-69.0-0.0,1098.0,"<div style=""display: flex; flex-direction: column; align-items: center; margin-top: -40px;""><img src=""images/pattern_6.png"" style=""width: 234px; height: 230px; margin-top: -50px;""><div style=""display: flex; justify-content: space-between; margin-top: 33px;""><img src=""images/choice_trial_3.png"" style=""width: 408px; height: 417px; margin-right: 200px;""><img src=""images/choice_trial_10.png"" style=""width: 408px; height: 417px;""></div></div>",j,delaylearn,learning,trial,mt4s3Nr1oPdSypfLWlfTwM60BY72,mt4s3Nr1oPdSypfLWlfTwM60BY72,4.0,images/choice_trial_3.png,images/choice_trial_10.png,images/pattern_6.png,j,j,750.0,3.0,10.0,5.0,1.0,30.0,1.0,1.0,10.0,150.0,,,,,,5c31167d1a964b0001ffcce5,16:37:09,27/03/2024
html-keyboard-response,166,365879,0.0-69.0-1.0,,"<div style=""display: flex; flex-direction: column; align-items: center; margin-top: -40px;""><img src=""images/pattern_6.png"" style=""width: 234px; height: 230px; margin-top: -50px;""><div style=""display: flex; justify-content: space-between; margin-top: 33px;""><img src=""images/choice_trial_10.png"" style=""width: 408px; height: 417px; margin-left:608px;""></div></div>",,delaylearn,learning,display_response,mt4s3Nr1oPdSypfLWlfTwM60BY72,mt4s3Nr1oPdSypfLWlfTwM60BY72,,,,,,,,,,,,,,,,,chosen stimuli: images/choice_trial_10.png,,,,,5c31167d1a964b0001ffcce5,16:37:09,27/03/2024
html-keyboard-response,167,366641,0.0-69.0-2.0,,,,delaylearn,learning,feedback_duration_window,mt4s3Nr1oPdSypfLWlfTwM60BY72,mt4s3Nr1oPdSypfLWlfTwM60BY72,,,,,,,,,,,,,,,,,,750.0,,,,5c31167d1a964b0001ffcce5,16:37:09,27/03/2024
html-keyboard-response,168,368146,0.0-69.0-3.0,,<div style='margin:auto;width: auto; font-size: 150%'><span style='font-weight: bold; font-size: 100px; color: green;'>+10 points!</span><br><br></div>,,delaylearn,learning,feedback_image_window,mt4s3Nr1oPdSypfLWlfTwM60BY72,mt4s3Nr1oPdSypfLWlfTwM60BY72,,,,,,,,,,,,,,,,,,,,,,5c31167d1a964b0001ffcce5,16:37:09,27/03/2024
html-keyboard-response,169,368655,0.0-70.0-0.0,,,,,,mood_trial_fixation,mt4s3Nr1oPdSypfLWlfTwM60BY72,,,,,,,,,,,,,,,,,,,,,,,5c31167d1a964b0001ffcce5,16:37:09,27/03/2024
lmdlab-html-vas-response,170,372354,0.0-70.0-1.0,2688.0,How happy are you right now?,0.4375,delaylearn,learning,mood_trial,mt4s3Nr1oPdSypfLWlfTwM60BY72,mt4s3Nr1oPdSypfLWlfTwM60BY72,,,,,,,,,,,,,,,,,,,,"['Very unhappy', 'Very happy']",,5c31167d1a964b0001ffcce5,16:37:09,27/03/2024
html-keyboard-response,171,373888,0.0-71.0,,"<div style=""font-size:100px;"">+</div>",,delaylearn,learning,ITI,mt4s3Nr1oPdSypfLWlfTwM60BY72,mt4s3Nr1oPdSypfLWlfTwM60BY72,,,,,,,,,,,,,,,,,,,1519.0,,,5c31167d1a964b0001ffcce5,16:37:09,27/03/2024
html-keyboard-response,172,374959,0.0-72.0-0.0,1069.0,"<div style=""display: flex; flex-direction: column; align-items: center; margin-top: -40px;""><img src=""images/pattern_4.png"" style=""width: 234px; height: 230px; margin-top: -50px;""><div style=""display: flex; justify-content: space-between; margin-top: 33px;""><img src=""images/choice_trial_7.png"" style=""width: 408px; height: 417px; margin-right: 200px;""><img src=""images/choice_trial_8.png"" style=""width: 408px; height: 417px;""></div></div>",j,delaylearn,learning,trial,mt4s3Nr1oPdSypfLWlfTwM60BY72,mt4s3Nr1oPdSypfLWlfTwM60BY72,4.0,images/choice_trial_7.png,images/choice_trial_8.png,images/pattern_4.png,j,j,7000.0,7.0,8.0,3.0,1.0,31.0,1.0,1.0,8.0,160.0,,,,,,5c31167d1a964b0001ffcce5,16:37:09,27/03/2024
html-keyboard-response,173,375975,0.0-72.0-1.0,,"<div style=""display: flex; flex-direction: column; align-items: center; margin-top: -40px;""><img src=""images/pattern_4.png"" style=""width: 234px; height: 230px; margin-top: -50px;""><div style=""display: flex; justify-content: space-between; margin-top: 33px;""><img src=""images/choice_trial_8.png"" style=""width: 408px; height: 417px; margin-left:608px;""></div></div>",,delaylearn,learning,display_response,mt4s3Nr1oPdSypfLWlfTwM60BY72,mt4s3Nr1oPdSypfLWlfTwM60BY72,,,,,,,,,,,,,,,,,chosen stimuli: images/choice_trial_8.png,,,,,5c31167d1a964b0001ffcce5,16:37:09,27/03/2024
html-keyboard-response,174,382985,0.0-72.0-2.0,,,,delaylearn,learning,feedback_duration_window,mt4s3Nr1oPdSypfLWlfTwM60BY72,mt4s3Nr1oPdSypfLWlfTwM60BY72,,,,,,,,,,,,,,,,,,7000.0,,,,5c31167d1a964b0001ffcce5,16:37:09,27/03/2024
html-keyboard-response,175,384496,0.0-72.0-3.0,,<div style='margin:auto;width: auto; font-size: 150%'><span style='font-weight: bold; font-size: 100px; color: green;'>+10 points!</span><br><br></div>,,delaylearn,learning,feedback_image_window,mt4s3Nr1oPdSypfLWlfTwM60BY72,mt4s3Nr1oPdSypfLWlfTwM60BY72,,,,,,,,,,,,,,,,,,,,,,5c31167d1a964b0001ffcce5,16:37:09,27/03/2024
html-keyboard-response,176,386861,0.0-73.0,,"<div style=""font-size:100px;"">+</div>",,delaylearn,learning,ITI,mt4s3Nr1oPdSypfLWlfTwM60BY72,mt4s3Nr1oPdSypfLWlfTwM60BY72,,,,,,,,,,,,,,,,,,,2352.0,,,5c31167d1a964b0001ffcce5,16:37:09,27/03/2024
html-keyboard-response,177,388032,0.0-74.0-0.0,1169.0,"<div style=""display: flex; flex-direction: column; align-items: center; margin-top: -40px;""><img src=""images/pattern_3.png"" style=""width: 234px; height: 230px; margin-top: -50px;""><div style=""display: flex; justify-content: space-between; margin-top: 33px;""><img src=""images/choice_trial_6.png"" style=""width: 408px; height: 417px; margin-right: 200px;""><img src=""images/choice_trial_16.png"" style=""width: 408px; height: 417px;""></div></div>",j,delaylearn,learning,trial,mt4s3Nr1oPdSypfLWlfTwM60BY72,mt4s3Nr1oPdSypfLWlfTwM60BY72,4.0,images/choice_trial_6.png,images/choice_trial_16.png,images/pattern_3.png,j,j,7000.0,6.0,16.0,2.0,1.0,32.0,1.0,1.0,16.0,170.0,,,,,,5c31167d1a964b0001ffcce5,16:37:09,27/03/2024
html-keyboard-response,178,389037,0.0-74.0-1.0,,"<div style=""display: flex; flex-direction: column; align-items: center; margin-top: -40px;""><img src=""images/pattern_3.png"" style=""width: 234px; height: 230px; margin-top: -50px;""><div style=""display: flex; justify-content: space-between; margin-top: 33px;""><img src=""images/choice_trial_16.png"" style=""width: 408px; height: 417px; margin-left:608px;""></div></div>",,delaylearn,learning,display_response,mt4s3Nr1oPdSypfLWlfTwM60BY72,mt4s3Nr1oPdSypfLWlfTwM60BY72,,,,,,,,,,,,,,,,,chosen stimuli: images/choice_trial_16.png,,,,,5c31167d1a964b0001ffcce5,16:37:09,27/03/2024
html-keyboard-response,179,396063,0.0-74.0-2.0,,,,delaylearn,learning,feedback_duration_window,mt4s3Nr1oPdSypfLWlfTwM60BY72,mt4s3Nr1oPdSypfLWlfTwM60BY72,,,,,,,,,,,,,,,,,,7000.0,,,,5c31167d1a964b0001ffcce5,16:37:09,27/03/2024
html-keyboard-response,180,397567,0.0-74.0-3.0,,<div style='margin:auto;width: auto; font-size: 150%'><span style='font-weight: bold; font-size: 100px; color: green;'>+10 points!</span><br><br></div>,,delaylearn,learning,feedback_image_window,mt4s3Nr1oPdSypfLWlfTwM60BY72,mt4s3Nr1oPdSypfLWlfTwM60BY72,,,,,,,,,,,,,,,,,,,,,,5c31167d1a964b0001ffcce5,16:37:09,27/03/2024
html-keyboard-response,181,399265,0.0-75.0,,"<div style=""font-size:100px;"">+</div>",,delaylearn,learning,ITI,mt4s3Nr1oPdSypfLWlfTwM60BY72,mt4s3Nr1oPdSypfLWlfTwM60BY72,,,,,,,,,,,,,,,,,,,1690.0,,,5c31167d1a964b0001ffcce5,16:37:09,27/03/2024
html-keyboard-response,182,400448,0.0-76.0-0.0,1182.0,"<div style=""display: flex; flex-direction: column; align-items: center; margin-top: -40px;""><img src=""images/pattern_5.png"" style=""width: 234px; height: 230px; margin-top: -50px;""><div style=""display: flex; justify-content: space-between; margin-top: 33px;""><img src=""images/choice_trial_5.png"" style=""width: 408px; height: 417px; margin-right: 200px;""><img src=""images/choice_trial_15.png"" style=""width: 408px; height: 417px;""></div></div>",j,delaylearn,learning,trial,mt4s3Nr1oPdSypfLWlfTwM60BY72,mt4s3Nr1oPdSypfLWlfTwM60BY72,4.0,images/choice_trial_5.png,images/choice_trial_15.png,images/pattern_5.png,j,f,750.0,5.0,15.0,4.0,0.0,33.0,0.0,1.0,15.0,180.0,,,,,,5c31167d1a964b0001ffcce5,16:37:09,27/03/2024
html-keyboard-response,183,401450,0.0-76.0-1.0,,"<div style=""display: flex; flex-direction: column; align-items: center; margin-top: -40px;""><img src=""images/pattern_5.png"" style=""width: 234px; height: 230px; margin-top: -50px;""><div style=""display: flex; justify-content: space-between; margin-top: 33px;""><img src=""images/choice_trial_15.png"" style=""width: 408px; height: 417px; margin-left:608px;""></div></div>",,delaylearn,learning,display_response,mt4s3Nr1oPdSypfLWlfTwM60BY72,mt4s3Nr1oPdSypfLWlfTwM60BY72,,,,,,,,,,,,,,,,,chosen stimuli: images/choice_trial_15.png,,,,,5c31167d1a964b0001ffcce5,16:37:09,27/03/2024
html-keyboard-response,184,402203,0.0-76.0-2.0,,,,delaylearn,learning,feedback_duration_window,mt4s3Nr1oPdSypfLWlfTwM60BY72,mt4s3Nr1oPdSypfLWlfTwM60BY72,,,,,,,,,,,,,,,,,,750.0,,,,5c31167d1a964b0001ffcce5,16:37:09,27/03/2024
html-keyboard-response,185,403714,0.0-76.0-3.0,,<div style='margin:auto;width: auto; font-size: 150%'><span style='font-weight: bold; font-size: 100px; color: green;'>+10 points!</span><br><br></div>,,delaylearn,learning,feedback_image_window,mt4s3Nr1oPdSypfLWlfTwM60BY72,mt4s3Nr1oPdSypfLWlfTwM60BY72,,,,,,,,,,,,,,,,,,,,,,5c31167d1a964b0001ffcce5,16:37:09,27/03/2024
html-keyboard-response,186,406125,0.0-77.0,,"<div style=""font-size:100px;"">+</div>",,delaylearn,learning,ITI,mt4s3Nr1oPdSypfLWlfTwM60BY72,mt4s3Nr1oPdSypfLWlfTwM60BY72,,,,,,,,,,,,,,,,,,,2405.0,,,5c31167d1a964b0001ffcce5,16:37:09,27/03/2024
html-keyboard-response,187,407167,0.0-78.0-0.0,1040.0,"<div style=""display: flex; flex-direction: column; align-items: center; margin-top: -40px;""><img src=""images/pattern_1.png"" style=""width: 234px; height: 230px; margin-top: -50px;""><div style=""display: flex; justify-content: space-between; margin-top: 33px;""><img src=""images/choice_trial_1.png"" style=""width: 408px; height: 417px; margin-right: 200px;""><img src=""images/choice_trial_9.png"" style=""width: 408px; height: 417px;""></div></div>",f,delaylearn,learning,trial,mt4s3Nr1oPdSypfLWlfTwM60BY72,mt4s3Nr1oPdSypfLWlfTwM60BY72,4.0,images/choice_trial_1.png,images/choice_trial_9.png,images/pattern_1.png,f,f,7000.0,1.0,9.0,1.0,0.0,34.0,1.0,1.0,1.0,190.0,,,,,,5c31167d1a964b0001ffcce5,16:37:09,27/03/2024
html-keyboard-response,188,408170,0.0-78.0-1.0,,"<div style=""display: flex; flex-direction: column; align-items: center; margin-top: -40px;""><img src=""images/pattern_1.png"" style=""width: 234px; height: 230px; margin-top: -50px;""><div style=""display: flex; justify-content: space-between; margin-top: 33px;""><img src=""images/choice_trial_1.png"" style=""width: 408px; height: 417px; margin-right: 608px;""></div></div>",,delaylearn,learning,display_response,mt4s3Nr1oPdSypfLWlfTwM60BY72,mt4s3Nr1oPdSypfLWlfTwM60BY72,,,,,,,,,,,,,,,,,chosen stimuli: images/choice_trial_1.png,,,,,5c31167d1a964b0001ffcce5,16:37:09,27/03/2024
html-keyboard-response,189,415182,0.0-78.0-2.0,,,,delaylearn,learning,feedback_duration_window,mt4s3Nr1oPdSypfLWlfTwM60BY72,mt4s3Nr1oPdSypfLWlfTwM60BY72,,,,,,,,,,,,,,,,,,7000.0,,,,5c31167d1a964b0001ffcce5,16:37:09,27/03/2024
html-keyboard-response,190,416685,0.0-78.0-3.0,,<div style='margin:auto;width: auto; font-size: 150%'><span style='font-weight: bold; font-size: 100px; color: green;'>+10 points!</span><br><br></div>,,delaylearn,learning,feedback_image_window,mt4s3Nr1oPdSypfLWlfTwM60BY72,mt4s3Nr1oPdSypfLWlfTwM60BY72,,,,,,,,,,,,,,,,,,,,,,5c31167d1a964b0001ffcce5,16:37:09,27/03/2024
html-keyboard-response,191,417197,0.0-79.0-0.0,,,,,,mood_trial_fixation,mt4s3Nr1oPdSypfLWlfTwM60BY72,,,,,,,,,,,,,,,,,,,,,,,5c31167d1a964b0001ffcce5,16:37:09,27/03/2024
lmdlab-html-vas-response,192,422105,0.0-79.0-1.0,3900.0,How happy are you right now?,0.5729166666666666,delaylearn,learning,mood_trial,mt4s3Nr1oPdSypfLWlfTwM60BY72,mt4s3Nr1oPdSypfLWlfTwM60BY72,,,,,,,,,,,,,,,,,,,,"['Very unhappy', 'Very happy']",,5c31167d1a964b0001ffcce5,16:37:09,27/03/2024
html-keyboard-response,193,424371,0.0-80.0,,"<div style=""font-size:100px;"">+</div>",,delaylearn,learning,ITI,mt4s3Nr1oPdSypfLWlfTwM60BY72,mt4s3Nr1oPdSypfLWlfTwM60BY72,,,,,,,,,,,,,,,,,,,2260.0,,,5c31167d1a964b0001ffcce5,16:37:09,27/03/2024
html-keyboard-response,194,426225,0.0-81.0-0.0,1850.0,"<div style=""display: flex; flex-direction: column; align-items: center; margin-top: -40px;""><img src=""images/pattern_6.png"" style=""width: 234px; height: 230px; margin-top: -50px;""><div style=""display: flex; justify-content: space-between; margin-top: 33px;""><img src=""images/choice_trial_10.png"" style=""width: 408px; height: 417px; margin-right: 200px;""><img src=""images/choice_trial_3.png"" style=""width: 408px; height: 417px;""></div></div>",f,delaylearn,learning,trial,mt4s3Nr1oPdSypfLWlfTwM60BY72,mt4s3Nr1oPdSypfLWlfTwM60BY72,4.0,images/choice_trial_10.png,images/choice_trial_3.png,images/pattern_6.png,j,f,750.0,10.0,3.0,5.0,0.0,35.0,1.0,0.0,10.0,190.0,,,,,,5c31167d1a964b0001ffcce5,16:37:09,27/03/2024
html-keyboard-response,195,427229,0.0-81.0-1.0,,"<div style=""display: flex; flex-direction: column; align-items: center; margin-top: -40px;""><img src=""images/pattern_6.png"" style=""width: 234px; height: 230px; margin-top: -50px;""><div style=""display: flex; justify-content: space-between; margin-top: 33px;""><img src=""images/choice_trial_10.png"" style=""width: 408px; height: 417px; margin-right: 608px;""></div></div>",,delaylearn,learning,display_response,mt4s3Nr1oPdSypfLWlfTwM60BY72,mt4s3Nr1oPdSypfLWlfTwM60BY72,,,,,,,,,,,,,,,,,chosen stimuli: images/choice_trial_10.png,,,,,5c31167d1a964b0001ffcce5,16:37:09,27/03/2024
html-keyboard-response,196,427992,0.0-81.0-2.0,,,,delaylearn,learning,feedback_duration_window,mt4s3Nr1oPdSypfLWlfTwM60BY72,mt4s3Nr1oPdSypfLWlfTwM60BY72,,,,,,,,,,,,,,,,,,750.0,,,,5c31167d1a964b0001ffcce5,16:37:09,27/03/2024
html-keyboard-response,197,429503,0.0-81.0-3.0,,<div style='margin:auto;width: auto; font-size: 150%'><span style='font-weight: bold; font-size: 100px; color: red;'>0 points!</span><br><br></div>,,delaylearn,learning,feedback_image_window,mt4s3Nr1oPdSypfLWlfTwM60BY72,mt4s3Nr1oPdSypfLWlfTwM60BY72,,,,,,,,,,,,,,,,,,,,,,5c31167d1a964b0001ffcce5,16:37:09,27/03/2024
html-keyboard-response,198,431460,0.0-82.0,,"<div style=""font-size:100px;"">+</div>",,delaylearn,learning,ITI,mt4s3Nr1oPdSypfLWlfTwM60BY72,mt4s3Nr1oPdSypfLWlfTwM60BY72,,,,,,,,,,,,,,,,,,,1898.0,,,5c31167d1a964b0001ffcce5,16:37:09,27/03/2024
html-keyboard-response,199,432352,0.0-83.0-0.0,888.0,"<div style=""display: flex; flex-direction: column; align-items: center; margin-top: -40px;""><img src=""images/pattern_3.png"" style=""width: 234px; height: 230px; margin-top: -50px;""><div style=""display: flex; justify-content: space-between; margin-top: 33px;""><img src=""images/choice_trial_6.png"" style=""width: 408px; height: 417px; margin-right: 200px;""><img src=""images/choice_trial_16.png"" style=""width: 408px; height: 417px;""></div></div>",j,delaylearn,learning,trial,mt4s3Nr1oPdSypfLWlfTwM60BY72,mt4s3Nr1oPdSypfLWlfTwM60BY72,4.0,images/choice_trial_6.png,images/choice_trial_16.png,images/pattern_3.png,j,j,7000.0,6.0,16.0,2.0,1.0,36.0,1.0,1.0,16.0,200.0,,,,,,5c31167d1a964b0001ffcce5,16:37:09,27/03/2024
html-keyboard-response,200,433367,0.0-83.0-1.0,,"<div style=""display: flex; flex-direction: column; align-items: center; margin-top: -40px;""><img src=""images/pattern_3.png"" style=""width: 234px; height: 230px; margin-top: -50px;""><div style=""display: flex; justify-content: space-between; margin-top: 33px;""><img src=""images/choice_trial_16.png"" style=""width: 408px; height: 417px; margin-left:608px;""></div></div>",,delaylearn,learning,display_response,mt4s3Nr1oPdSypfLWlfTwM60BY72,mt4s3Nr1oPdSypfLWlfTwM60BY72,,,,,,,,,,,,,,,,,chosen stimuli: images/choice_trial_16.png,,,,,5c31167d1a964b0001ffcce5,16:37:09,27/03/2024
html-keyboard-response,201,440372,0.0-83.0-2.0,,,,delaylearn,learning,feedback_duration_window,mt4s3Nr1oPdSypfLWlfTwM60BY72,mt4s3Nr1oPdSypfLWlfTwM60BY72,,,,,,,,,,,,,,,,,,7000.0,,,,5c31167d1a964b0001ffcce5,16:37:09,27/03/2024
html-keyboard-response,202,441878,0.0-83.0-3.0,,<div style='margin:auto;width: auto; font-size: 150%'><span style='font-weight: bold; font-size: 100px; color: green;'>+10 points!</span><br><br></div>,,delaylearn,learning,feedback_image_window,mt4s3Nr1oPdSypfLWlfTwM60BY72,mt4s3Nr1oPdSypfLWlfTwM60BY72,,,,,,,,,,,,,,,,,,,,,,5c31167d1a964b0001ffcce5,16:37:09,27/03/2024
html-keyboard-response,203,443456,0.0-84.0,,"<div style=""font-size:100px;"">+</div>",,delaylearn,learning,ITI,mt4s3Nr1oPdSypfLWlfTwM60BY72,mt4s3Nr1oPdSypfLWlfTwM60BY72,,,,,,,,,,,,,,,,,,,1563.0,,,5c31167d1a964b0001ffcce5,16:37:09,27/03/2024
html-keyboard-response,204,444447,0.0-85.0-0.0,988.0,"<div style=""display: flex; flex-direction: column; align-items: center; margin-top: -40px;""><img src=""images/pattern_4.png"" style=""width: 234px; height: 230px; margin-top: -50px;""><div style=""display: flex; justify-content: space-between; margin-top: 33px;""><img src=""images/choice_trial_7.png"" style=""width: 408px; height: 417px; margin-right: 200px;""><img src=""images/choice_trial_8.png"" style=""width: 408px; height: 417px;""></div></div>",j,delaylearn,learning,trial,mt4s3Nr1oPdSypfLWlfTwM60BY72,mt4s3Nr1oPdSypfLWlfTwM60BY72,4.0,images/choice_trial_7.png,images/choice_trial_8.png,images/pattern_4.png,f,j,7000.0,7.0,8.0,3.0,1.0,37.0,1.0,0.0,8.0,200.0,,,,,,5c31167d1a964b0001ffcce5,16:37:09,27/03/2024
html-keyboard-response,205,445457,0.0-85.0-1.0,,"<div style=""display: flex; flex-direction: column; align-items: center; margin-top: -40px;""><img src=""images/pattern_4.png"" style=""width: 234px; height: 230px; margin-top: -50px;""><div style=""display: flex; justify-content: space-between; margin-top: 33px;""><img src=""images/choice_trial_8.png"" style=""width: 408px; height: 417px; margin-left:608px;""></div></div>",,delaylearn,learning,display_response,mt4s3Nr1oPdSypfLWlfTwM60BY72,mt4s3Nr1oPdSypfLWlfTwM60BY72,,,,,,,,,,,,,,,,,chosen stimuli: images/choice_trial_8.png,,,,,5c31167d1a964b0001ffcce5,16:37:09,27/03/2024
html-keyboard-response,206,452458,0.0-85.0-2.0,,,,delaylearn,learning,feedback_duration_window,mt4s3Nr1oPdSypfLWlfTwM60BY72,mt4s3Nr1oPdSypfLWlfTwM60BY72,,,,,,,,,,,,,,,,,,7000.0,,,,5c31167d1a964b0001ffcce5,16:37:09,27/03/2024
html-keyboard-response,207,453965,0.0-85.0-3.0,,<div style='margin:auto;width: auto; font-size: 150%'><span style='font-weight: bold; font-size: 100px; color: red;'>0 points!</span><br><br></div>,,delaylearn,learning,feedback_image_window,mt4s3Nr1oPdSypfLWlfTwM60BY72,mt4s3Nr1oPdSypfLWlfTwM60BY72,,,,,,,,,,,,,,,,,,,,,,5c31167d1a964b0001ffcce5,16:37:09,27/03/2024
html-keyboard-response,208,455519,0.0-86.0,,"<div style=""font-size:100px;"">+</div>",,delaylearn,learning,ITI,mt4s3Nr1oPdSypfLWlfTwM60BY72,mt4s3Nr1oPdSypfLWlfTwM60BY72,,,,,,,,,,,,,,,,,,,1545.0,,,5c31167d1a964b0001ffcce5,16:37:09,27/03/2024
html-keyboard-response,209,456784,0.0-87.0-0.0,1262.0,"<div style=""display: flex; flex-direction: column; align-items: center; margin-top: -40px;""><img src=""images/pattern_7.png"" style=""width: 234px; height: 230px; margin-top: -50px;""><div style=""display: flex; justify-content: space-between; margin-top: 33px;""><img src=""images/choice_trial_13.png"" style=""width: 408px; height: 417px; margin-right: 200px;""><img src=""images/choice_trial_4.png"" style=""width: 408px; height: 417px;""></div></div>",j,delaylearn,learning,trial,mt4s3Nr1oPdSypfLWlfTwM60BY72,mt4s3Nr1oPdSypfLWlfTwM60BY72,4.0,images/choice_trial_13.png,images/choice_trial_4.png,images/pattern_7.png,f,f,750.0,13.0,4.0,6.0,0.0,38.0,0.0,0.0,4.0,200.0,,,,,,5c31167d1a964b0001ffcce5,16:37:09,27/03/2024
html-keyboard-response,210,457790,0.0-87.0-1.0,,"<div style=""display: flex; flex-direction: column; align-items: center; margin-top: -40px;""><img src=""images/pattern_7.png"" style=""width: 234px; height: 230px; margin-top: -50px;""><div style=""display: flex; justify-content: space-between; margin-top: 33px;""><img src=""images/choice_trial_4.png"" style=""width: 408px; height: 417px; margin-left:608px;""></div></div>",,delaylearn,learning,display_response,mt4s3Nr1oPdSypfLWlfTwM60BY72,mt4s3Nr1oPdSypfLWlfTwM60BY72,,,,,,,,,,,,,,,,,chosen stimuli: images/choice_trial_4.png,,,,,5c31167d1a964b0001ffcce5,16:37:09,27/03/2024
html-keyboard-response,211,458553,0.0-87.0-2.0,,,,delaylearn,learning,feedback_duration_window,mt4s3Nr1oPdSypfLWlfTwM60BY72,mt4s3Nr1oPdSypfLWlfTwM60BY72,,,,,,,,,,,,,,,,,,750.0,,,,5c31167d1a964b0001ffcce5,16:37:09,27/03/2024
html-keyboard-response,212,460058,0.0-87.0-3.0,,<div style='margin:auto;width: auto; font-size: 150%'><span style='font-weight: bold; font-size: 100px; color: red;'>0 points!</span><br><br></div>,,delaylearn,learning,feedback_image_window,mt4s3Nr1oPdSypfLWlfTwM60BY72,mt4s3Nr1oPdSypfLWlfTwM60BY72,,,,,,,,,,,,,,,,,,,,,,5c31167d1a964b0001ffcce5,16:37:09,27/03/2024
html-keyboard-response,213,462109,0.0-88.0,,"<div style=""font-size:100px;"">+</div>",,delaylearn,learning,ITI,mt4s3Nr1oPdSypfLWlfTwM60BY72,mt4s3Nr1oPdSypfLWlfTwM60BY72,,,,,,,,,,,,,,,,,,,2038.0,,,5c31167d1a964b0001ffcce5,16:37:09,27/03/2024
html-keyboard-response,214,463744,0.0-89.0-0.0,1633.0,"<div style=""display: flex; flex-direction: column; align-items: center; margin-top: -40px;""><img src=""images/pattern_1.png"" style=""width: 234px; height: 230px; margin-top: -50px;""><div style=""display: flex; justify-content: space-between; margin-top: 33px;""><img src=""images/choice_trial_1.png"" style=""width: 408px; height: 417px; margin-right: 200px;""><img src=""images/choice_trial_9.png"" style=""width: 408px; height: 417px;""></div></div>",j,delaylearn,learning,trial,mt4s3Nr1oPdSypfLWlfTwM60BY72,mt4s3Nr1oPdSypfLWlfTwM60BY72,4.0,images/choice_trial_1.png,images/choice_trial_9.png,images/pattern_1.png,f,f,7000.0,1.0,9.0,1.0,0.0,39.0,0.0,0.0,9.0,200.0,,,,,,5c31167d1a964b0001ffcce5,16:37:09,27/03/2024
html-keyboard-response,215,464752,0.0-89.0-1.0,,"<div style=""display: flex; flex-direction: column; align-items: center; margin-top: -40px;""><img src=""images/pattern_1.png"" style=""width: 234px; height: 230px; margin-top: -50px;""><div style=""display: flex; justify-content: space-between; margin-top: 33px;""><img src=""images/choice_trial_9.png"" style=""width: 408px; height: 417px; margin-left:608px;""></div></div>",,delaylearn,learning,display_response,mt4s3Nr1oPdSypfLWlfTwM60BY72,mt4s3Nr1oPdSypfLWlfTwM60BY72,,,,,,,,,,,,,,,,,chosen stimuli: images/choice_trial_9.png,,,,,5c31167d1a964b0001ffcce5,16:37:09,27/03/2024
html-keyboard-response,216,471764,0.0-89.0-2.0,,,,delaylearn,learning,feedback_duration_window,mt4s3Nr1oPdSypfLWlfTwM60BY72,mt4s3Nr1oPdSypfLWlfTwM60BY72,,,,,,,,,,,,,,,,,,7000.0,,,,5c31167d1a964b0001ffcce5,16:37:09,27/03/2024
html-keyboard-response,217,473269,0.0-89.0-3.0,,<div style='margin:auto;width: auto; font-size: 150%'><span style='font-weight: bold; font-size: 100px; color: red;'>0 points!</span><br><br></div>,,delaylearn,learning,feedback_image_window,mt4s3Nr1oPdSypfLWlfTwM60BY72,mt4s3Nr1oPdSypfLWlfTwM60BY72,,,,,,,,,,,,,,,,,,,,,,5c31167d1a964b0001ffcce5,16:37:09,27/03/2024
html-keyboard-response,218,473780,0.0-90.0-0.0,,,,,,mood_trial_fixation,mt4s3Nr1oPdSypfLWlfTwM60BY72,,,,,,,,,,,,,,,,,,,,,,,5c31167d1a964b0001ffcce5,16:37:09,27/03/2024
lmdlab-html-vas-response,219,476921,0.0-90.0-1.0,2132.0,How happy are you right now?,0.3587962962962963,delaylearn,learning,mood_trial,mt4s3Nr1oPdSypfLWlfTwM60BY72,mt4s3Nr1oPdSypfLWlfTwM60BY72,,,,,,,,,,,,,,,,,,,,"['Very unhappy', 'Very happy']",,5c31167d1a964b0001ffcce5,16:37:09,27/03/2024
html-keyboard-response,220,478755,0.0-91.0,,"<div style=""font-size:100px;"">+</div>",,delaylearn,learning,ITI,mt4s3Nr1oPdSypfLWlfTwM60BY72,mt4s3Nr1oPdSypfLWlfTwM60BY72,,,,,,,,,,,,,,,,,,,1824.0,,,5c31167d1a964b0001ffcce5,16:37:09,27/03/2024
html-keyboard-response,221,479791,0.0-92.0-0.0,1034.0,"<div style=""display: flex; flex-direction: column; align-items: center; margin-top: -40px;""><img src=""images/pattern_3.png"" style=""width: 234px; height: 230px; margin-top: -50px;""><div style=""display: flex; justify-content: space-between; margin-top: 33px;""><img src=""images/choice_trial_16.png"" style=""width: 408px; height: 417px; margin-right: 200px;""><img src=""images/choice_trial_6.png"" style=""width: 408px; height: 417px;""></div></div>",f,delaylearn,learning,trial,mt4s3Nr1oPdSypfLWlfTwM60BY72,mt4s3Nr1oPdSypfLWlfTwM60BY72,4.0,images/choice_trial_16.png,images/choice_trial_6.png,images/pattern_3.png,j,f,7000.0,16.0,6.0,2.0,0.0,40.0,1.0,0.0,16.0,200.0,,,,,,5c31167d1a964b0001ffcce5,16:37:09,27/03/2024
html-keyboard-response,222,480812,0.0-92.0-1.0,,"<div style=""display: flex; flex-direction: column; align-items: center; margin-top: -40px;""><img src=""images/pattern_3.png"" style=""width: 234px; height: 230px; margin-top: -50px;""><div style=""display: flex; justify-content: space-between; margin-top: 33px;""><img src=""images/choice_trial_16.png"" style=""width: 408px; height: 417px; margin-right: 608px;""></div></div>",,delaylearn,learning,display_response,mt4s3Nr1oPdSypfLWlfTwM60BY72,mt4s3Nr1oPdSypfLWlfTwM60BY72,,,,,,,,,,,,,,,,,chosen stimuli: images/choice_trial_16.png,,,,,5c31167d1a964b0001ffcce5,16:37:09,27/03/2024
html-keyboard-response,223,487819,0.0-92.0-2.0,,,,delaylearn,learning,feedback_duration_window,mt4s3Nr1oPdSypfLWlfTwM60BY72,mt4s3Nr1oPdSypfLWlfTwM60BY72,,,,,,,,,,,,,,,,,,7000.0,,,,5c31167d1a964b0001ffcce5,16:37:09,27/03/2024
html-keyboard-response,224,489334,0.0-92.0-3.0,,<div style='margin:auto;width: auto; font-size: 150%'><span style='font-weight: bold; font-size: 100px; color: red;'>0 points!</span><br><br></div>,,delaylearn,learning,feedback_image_window,mt4s3Nr1oPdSypfLWlfTwM60BY72,mt4s3Nr1oPdSypfLWlfTwM60BY72,,,,,,,,,,,,,,,,,,,,,,5c31167d1a964b0001ffcce5,16:37:09,27/03/2024
html-keyboard-response,225,491304,0.0-93.0,,"<div style=""font-size:100px;"">+</div>",,delaylearn,learning,ITI,mt4s3Nr1oPdSypfLWlfTwM60BY72,mt4s3Nr1oPdSypfLWlfTwM60BY72,,,,,,,,,,,,,,,,,,,1966.0,,,5c31167d1a964b0001ffcce5,16:37:09,27/03/2024
html-keyboard-response,226,492769,0.0-94.0-0.0,1462.0,"<div style=""display: flex; flex-direction: column; align-items: center; margin-top: -40px;""><img src=""images/pattern_7.png"" style=""width: 234px; height: 230px; margin-top: -50px;""><div style=""display: flex; justify-content: space-between; margin-top: 33px;""><img src=""images/choice_trial_4.png"" style=""width: 408px; height: 417px; margin-right: 200px;""><img src=""images/choice_trial_13.png"" style=""width: 408px; height: 417px;""></div></div>",f,delaylearn,learning,trial,mt4s3Nr1oPdSypfLWlfTwM60BY72,mt4s3Nr1oPdSypfLWlfTwM60BY72,4.0,images/choice_trial_4.png,images/choice_trial_13.png,images/pattern_7.png,j,j,750.0,4.0,13.0,6.0,1.0,41.0,0.0,0.0,4.0,200.0,,,,,,5c31167d1a964b0001ffcce5,16:37:09,27/03/2024
html-keyboard-response,227,493780,0.0-94.0-1.0,,"<div style=""display: flex; flex-direction: column; align-items: center; margin-top: -40px;""><img src=""images/pattern_7.png"" style=""width: 234px; height: 230px; margin-top: -50px;""><div style=""display: flex; justify-content: space-between; margin-top: 33px;""><img src=""images/choice_trial_4.png"" style=""width: 408px; height: 417px; margin-right: 608px;""></div></div>",,delaylearn,learning,display_response,mt4s3Nr1oPdSypfLWlfTwM60BY72,mt4s3Nr1oPdSypfLWlfTwM60BY72,,,,,,,,,,,,,,,,,chosen stimuli: images/choice_trial_4.png,,,,,5c31167d1a964b0001ffcce5,16:37:09,27/03/2024
html-keyboard-response,228,494545,0.0-94.0-2.0,,,,delaylearn,learning,feedback_duration_window,mt4s3Nr1oPdSypfLWlfTwM60BY72,mt4s3Nr1oPdSypfLWlfTwM60BY72,,,,,,,,,,,,,,,,,,750.0,,,,5c31167d1a964b0001ffcce5,16:37:09,27/03/2024
html-keyboard-response,229,496053,0.0-94.0-3.0,,<div style='margin:auto;width: auto; font-size: 150%'><span style='font-weight: bold; font-size: 100px; color: red;'>0 points!</span><br><br></div>,,delaylearn,learning,feedback_image_window,mt4s3Nr1oPdSypfLWlfTwM60BY72,mt4s3Nr1oPdSypfLWlfTwM60BY72,,,,,,,,,,,,,,,,,,,,,,5c31167d1a964b0001ffcce5,16:37:09,27/03/2024
html-keyboard-response,230,498208,0.0-95.0,,"<div style=""font-size:100px;"">+</div>",,delaylearn,learning,ITI,mt4s3Nr1oPdSypfLWlfTwM60BY72,mt4s3Nr1oPdSypfLWlfTwM60BY72,,,,,,,,,,,,,,,,,,,2152.0,,,5c31167d1a964b0001ffcce5,16:37:09,27/03/2024
