trial_type,trial_index,time_elapsed,internal_node_id,rt,stimulus,response,exp_name,exp_stage,test_part,subjectID,databaseID,counterbal,choice_stimuli_1,choice_stimuli_2,pattern_stimuli,rewarded_answer,correct_answer,feedback_duration_times,stim_left,stim_right,pair,leftright_counter,trial,response_correct,response_rewarded,chosen_stim,counter,displayed_choice,feedback_durations,ITI_duration,labels,rest_warning,prolificID,start_time,date
pavlovia,0,3441,0.0-0.0,,,,,,,ZvOQMXn6aIcVcvIN4OGPw5ZSXQm2,,,,,,,,,,,,,,,,,,,,,,,63e60f40643623a5029f1e2b,11:24:51,27/02/2024
html-keyboard-response,1,6466,0.0-1.0,,"<div style=""font-size:100px;"">+</div>",,delaylearn,learning,pre_fixation,ZvOQMXn6aIcVcvIN4OGPw5ZSXQm2,,,,,,,,,,,,,,,,,,,,,,,63e60f40643623a5029f1e2b,11:24:51,27/02/2024
html-keyboard-response,2,9496,0.0-2.0-0.0,,"<div style=""display: flex; flex-direction: column; align-items: center; margin-top: -40px;""><img src=""images/demo_images/pattern_1.png"" style=""width: 234px; height: 230px; margin-top: -50px;""><div style=""display: flex; justify-content: space-between; margin-top: 33px;""><img src=""images/demo_images/choice_trial_2.png"" style=""width: 408px; height: 417px; margin-right: 200px;""><img src=""images/demo_images/choice_trial_1.png"" style=""width: 408px; height: 417px;""></div></div>",,delaylearn,learning,trial,ZvOQMXn6aIcVcvIN4OGPw5ZSXQm2,ZvOQMXn6aIcVcvIN4OGPw5ZSXQm2,4.0,images/demo_images/choice_trial_2.png,images/demo_images/choice_trial_1.png,images/demo_images/pattern_1.png,j,j,3000.0,2.0,1.0,20.0,1.0,1.0,0.0,0.0,0.0,0.0,,,,,,63e60f40643623a5029f1e2b,11:24:51,27/02/2024
html-keyboard-response,3,10521,0.0-2.0-1.0,,<div style='font-weight: bold; font-size: 75px; color: red;'>Missed Trial <br><br><br><br> Please respond faster</div>,,delaylearn,learning,display_response,ZvOQMXn6aIcVcvIN4OGPw5ZSXQm2,ZvOQMXn6aIcVcvIN4OGPw5ZSXQm2,,,,,,,,,,,,,,,,,Missed trial,,,,,63e60f40643623a5029f1e2b,11:24:51,27/02/2024
html-keyboard-response,4,10522,0.0-2.0-2.0,,,,delaylearn,learning,feedback_duration_window,ZvOQMXn6aIcVcvIN4OGPw5ZSXQm2,ZvOQMXn6aIcVcvIN4OGPw5ZSXQm2,,,,,,,,,,,,,,,,,,0.0,,,,63e60f40643623a5029f1e2b,11:24:51,27/02/2024
html-keyboard-response,5,10540,0.0-2.0-3.0,,,,delaylearn,learning,feedback_image_window,ZvOQMXn6aIcVcvIN4OGPw5ZSXQm2,ZvOQMXn6aIcVcvIN4OGPw5ZSXQm2,,,,,,,,,,,,,,,,,,,,,,63e60f40643623a5029f1e2b,11:24:51,27/02/2024
html-keyboard-response,6,12277,0.0-3.0,,"<div style=""font-size:100px;"">+</div>",,delaylearn,learning,ITI,ZvOQMXn6aIcVcvIN4OGPw5ZSXQm2,ZvOQMXn6aIcVcvIN4OGPw5ZSXQm2,,,,,,,,,,,,,,,,,,,1720.0,,,63e60f40643623a5029f1e2b,11:24:51,27/02/2024
html-keyboard-response,7,12874,0.0-4.0-0.0,582.2000000001863,"<div style=""display: flex; flex-direction: column; align-items: center; margin-top: -40px;""><img src=""images/demo_images/pattern_1.png"" style=""width: 234px; height: 230px; margin-top: -50px;""><div style=""display: flex; justify-content: space-between; margin-top: 33px;""><img src=""images/demo_images/choice_trial_2.png"" style=""width: 408px; height: 417px; margin-right: 200px;""><img src=""images/demo_images/choice_trial_1.png"" style=""width: 408px; height: 417px;""></div></div>",j,delaylearn,learning,trial,ZvOQMXn6aIcVcvIN4OGPw5ZSXQm2,ZvOQMXn6aIcVcvIN4OGPw5ZSXQm2,4.0,images/demo_images/choice_trial_2.png,images/demo_images/choice_trial_1.png,images/demo_images/pattern_1.png,j,j,3000.0,2.0,1.0,20.0,1.0,2.0,1.0,1.0,1.0,10.0,,,,,,63e60f40643623a5029f1e2b,11:24:51,27/02/2024
html-keyboard-response,8,13890,0.0-4.0-1.0,,"<div style=""display: flex; flex-direction: column; align-items: center; margin-top: -40px;""><img src=""images/demo_images/pattern_1.png"" style=""width: 234px; height: 230px; margin-top: -50px;""><div style=""display: flex; justify-content: space-between; margin-top: 33px;""><img src=""images/demo_images/choice_trial_1.png"" style=""width: 408px; height: 417px; margin-left:608px;""></div></div>",,delaylearn,learning,display_response,ZvOQMXn6aIcVcvIN4OGPw5ZSXQm2,ZvOQMXn6aIcVcvIN4OGPw5ZSXQm2,,,,,,,,,,,,,,,,,chosen stimuli: images/demo_images/choice_trial_1.png,,,,,63e60f40643623a5029f1e2b,11:24:51,27/02/2024
html-keyboard-response,9,16911,0.0-4.0-2.0,,,,delaylearn,learning,feedback_duration_window,ZvOQMXn6aIcVcvIN4OGPw5ZSXQm2,ZvOQMXn6aIcVcvIN4OGPw5ZSXQm2,,,,,,,,,,,,,,,,,,3000.0,,,,63e60f40643623a5029f1e2b,11:24:51,27/02/2024
html-keyboard-response,10,18459,0.0-4.0-3.0,,<div style='margin:auto;width: auto; font-size: 150%'><span style='font-weight: bold; font-size: 100px; color: green;'>+10 points!</span><br><br></div>,,delaylearn,learning,feedback_image_window,ZvOQMXn6aIcVcvIN4OGPw5ZSXQm2,ZvOQMXn6aIcVcvIN4OGPw5ZSXQm2,,,,,,,,,,,,,,,,,,,,,,63e60f40643623a5029f1e2b,11:24:51,27/02/2024
html-keyboard-response,11,20689,0.0-5.0,,"<div style=""font-size:100px;"">+</div>",,delaylearn,learning,ITI,ZvOQMXn6aIcVcvIN4OGPw5ZSXQm2,ZvOQMXn6aIcVcvIN4OGPw5ZSXQm2,,,,,,,,,,,,,,,,,,,2195.0,,,63e60f40643623a5029f1e2b,11:24:51,27/02/2024
html-keyboard-response,12,21179,0.0-6.0-0.0,471.70000000018626,"<div style=""display: flex; flex-direction: column; align-items: center; margin-top: -40px;""><img src=""images/demo_images/pattern_1.png"" style=""width: 234px; height: 230px; margin-top: -50px;""><div style=""display: flex; justify-content: space-between; margin-top: 33px;""><img src=""images/demo_images/choice_trial_1.png"" style=""width: 408px; height: 417px; margin-right: 200px;""><img src=""images/demo_images/choice_trial_2.png"" style=""width: 408px; height: 417px;""></div></div>",j,delaylearn,learning,trial,ZvOQMXn6aIcVcvIN4OGPw5ZSXQm2,ZvOQMXn6aIcVcvIN4OGPw5ZSXQm2,4.0,images/demo_images/choice_trial_1.png,images/demo_images/choice_trial_2.png,images/demo_images/pattern_1.png,j,f,3000.0,1.0,2.0,20.0,0.0,3.0,0.0,1.0,2.0,20.0,,,,,,63e60f40643623a5029f1e2b,11:24:51,27/02/2024
html-keyboard-response,13,22188,0.0-6.0-1.0,,"<div style=""display: flex; flex-direction: column; align-items: center; margin-top: -40px;""><img src=""images/demo_images/pattern_1.png"" style=""width: 234px; height: 230px; margin-top: -50px;""><div style=""display: flex; justify-content: space-between; margin-top: 33px;""><img src=""images/demo_images/choice_trial_2.png"" style=""width: 408px; height: 417px; margin-left:608px;""></div></div>",,delaylearn,learning,display_response,ZvOQMXn6aIcVcvIN4OGPw5ZSXQm2,ZvOQMXn6aIcVcvIN4OGPw5ZSXQm2,,,,,,,,,,,,,,,,,chosen stimuli: images/demo_images/choice_trial_2.png,,,,,63e60f40643623a5029f1e2b,11:24:51,27/02/2024
html-keyboard-response,14,25211,0.0-6.0-2.0,,,,delaylearn,learning,feedback_duration_window,ZvOQMXn6aIcVcvIN4OGPw5ZSXQm2,ZvOQMXn6aIcVcvIN4OGPw5ZSXQm2,,,,,,,,,,,,,,,,,,3000.0,,,,63e60f40643623a5029f1e2b,11:24:51,27/02/2024
html-keyboard-response,15,26732,0.0-6.0-3.0,,<div style='margin:auto;width: auto; font-size: 150%'><span style='font-weight: bold; font-size: 100px; color: green;'>+10 points!</span><br><br></div>,,delaylearn,learning,feedback_image_window,ZvOQMXn6aIcVcvIN4OGPw5ZSXQm2,ZvOQMXn6aIcVcvIN4OGPw5ZSXQm2,,,,,,,,,,,,,,,,,,,,,,63e60f40643623a5029f1e2b,11:24:51,27/02/2024
html-keyboard-response,16,28359,0.0-7.0,,"<div style=""font-size:100px;"">+</div>",,delaylearn,learning,ITI,ZvOQMXn6aIcVcvIN4OGPw5ZSXQm2,ZvOQMXn6aIcVcvIN4OGPw5ZSXQm2,,,,,,,,,,,,,,,,,,,1594.0,,,63e60f40643623a5029f1e2b,11:24:51,27/02/2024
html-keyboard-response,17,29016,0.0-8.0-0.0,653.7000000001863,"<div style=""display: flex; flex-direction: column; align-items: center; margin-top: -40px;""><img src=""images/demo_images/pattern_1.png"" style=""width: 234px; height: 230px; margin-top: -50px;""><div style=""display: flex; justify-content: space-between; margin-top: 33px;""><img src=""images/demo_images/choice_trial_1.png"" style=""width: 408px; height: 417px; margin-right: 200px;""><img src=""images/demo_images/choice_trial_2.png"" style=""width: 408px; height: 417px;""></div></div>",j,delaylearn,learning,trial,ZvOQMXn6aIcVcvIN4OGPw5ZSXQm2,ZvOQMXn6aIcVcvIN4OGPw5ZSXQm2,4.0,images/demo_images/choice_trial_1.png,images/demo_images/choice_trial_2.png,images/demo_images/pattern_1.png,f,f,3000.0,1.0,2.0,20.0,0.0,4.0,0.0,0.0,2.0,20.0,,,,,,63e60f40643623a5029f1e2b,11:24:51,27/02/2024
html-keyboard-response,18,30032,0.0-8.0-1.0,,"<div style=""display: flex; flex-direction: column; align-items: center; margin-top: -40px;""><img src=""images/demo_images/pattern_1.png"" style=""width: 234px; height: 230px; margin-top: -50px;""><div style=""display: flex; justify-content: space-between; margin-top: 33px;""><img src=""images/demo_images/choice_trial_2.png"" style=""width: 408px; height: 417px; margin-left:608px;""></div></div>",,delaylearn,learning,display_response,ZvOQMXn6aIcVcvIN4OGPw5ZSXQm2,ZvOQMXn6aIcVcvIN4OGPw5ZSXQm2,,,,,,,,,,,,,,,,,chosen stimuli: images/demo_images/choice_trial_2.png,,,,,63e60f40643623a5029f1e2b,11:24:51,27/02/2024
html-keyboard-response,19,33087,0.0-8.0-2.0,,,,delaylearn,learning,feedback_duration_window,ZvOQMXn6aIcVcvIN4OGPw5ZSXQm2,ZvOQMXn6aIcVcvIN4OGPw5ZSXQm2,,,,,,,,,,,,,,,,,,3000.0,,,,63e60f40643623a5029f1e2b,11:24:51,27/02/2024
html-keyboard-response,20,34606,0.0-8.0-3.0,,<div style='margin:auto;width: auto; font-size: 150%'><span style='font-weight: bold; font-size: 100px; color: red;'>0 points!</span><br><br></div>,,delaylearn,learning,feedback_image_window,ZvOQMXn6aIcVcvIN4OGPw5ZSXQm2,ZvOQMXn6aIcVcvIN4OGPw5ZSXQm2,,,,,,,,,,,,,,,,,,,,,,63e60f40643623a5029f1e2b,11:24:51,27/02/2024
html-keyboard-response,21,35266,0.0-9.0-0.0,,,,,,mood_trial_fixation,ZvOQMXn6aIcVcvIN4OGPw5ZSXQm2,,,,,,,,,,,,,,,,,,,,,,,63e60f40643623a5029f1e2b,11:24:51,27/02/2024
lmdlab-html-vas-response,22,40763,0.0-9.0-1.0,4418.0,How happy are you right now?,0.18100437421586246,delaylearn,learning,mood_trial,ZvOQMXn6aIcVcvIN4OGPw5ZSXQm2,ZvOQMXn6aIcVcvIN4OGPw5ZSXQm2,,,,,,,,,,,,,,,,,,,,"['Very unhappy', 'Very happy']",,63e60f40643623a5029f1e2b,11:24:51,27/02/2024
html-keyboard-response,23,42586,0.0-10.0,,"<div style=""font-size:100px;"">+</div>",,delaylearn,learning,ITI,ZvOQMXn6aIcVcvIN4OGPw5ZSXQm2,ZvOQMXn6aIcVcvIN4OGPw5ZSXQm2,,,,,,,,,,,,,,,,,,,1816.0,,,63e60f40643623a5029f1e2b,11:24:51,27/02/2024
html-keyboard-response,24,43335,0.0-11.0-0.0,740.3000000007451,"<div style=""display: flex; flex-direction: column; align-items: center; margin-top: -40px;""><img src=""images/demo_images/pattern_1.png"" style=""width: 234px; height: 230px; margin-top: -50px;""><div style=""display: flex; justify-content: space-between; margin-top: 33px;""><img src=""images/demo_images/choice_trial_2.png"" style=""width: 408px; height: 417px; margin-right: 200px;""><img src=""images/demo_images/choice_trial_1.png"" style=""width: 408px; height: 417px;""></div></div>",j,delaylearn,learning,trial,ZvOQMXn6aIcVcvIN4OGPw5ZSXQm2,ZvOQMXn6aIcVcvIN4OGPw5ZSXQm2,4.0,images/demo_images/choice_trial_2.png,images/demo_images/choice_trial_1.png,images/demo_images/pattern_1.png,j,j,3000.0,2.0,1.0,20.0,1.0,5.0,1.0,1.0,1.0,30.0,,,,,,63e60f40643623a5029f1e2b,11:24:51,27/02/2024
html-keyboard-response,25,44351,0.0-11.0-1.0,,"<div style=""display: flex; flex-direction: column; align-items: center; margin-top: -40px;""><img src=""images/demo_images/pattern_1.png"" style=""width: 234px; height: 230px; margin-top: -50px;""><div style=""display: flex; justify-content: space-between; margin-top: 33px;""><img src=""images/demo_images/choice_trial_1.png"" style=""width: 408px; height: 417px; margin-left:608px;""></div></div>",,delaylearn,learning,display_response,ZvOQMXn6aIcVcvIN4OGPw5ZSXQm2,ZvOQMXn6aIcVcvIN4OGPw5ZSXQm2,,,,,,,,,,,,,,,,,chosen stimuli: images/demo_images/choice_trial_1.png,,,,,63e60f40643623a5029f1e2b,11:24:51,27/02/2024
html-keyboard-response,26,47364,0.0-11.0-2.0,,,,delaylearn,learning,feedback_duration_window,ZvOQMXn6aIcVcvIN4OGPw5ZSXQm2,ZvOQMXn6aIcVcvIN4OGPw5ZSXQm2,,,,,,,,,,,,,,,,,,3000.0,,,,63e60f40643623a5029f1e2b,11:24:51,27/02/2024
html-keyboard-response,27,48880,0.0-11.0-3.0,,<div style='margin:auto;width: auto; font-size: 150%'><span style='font-weight: bold; font-size: 100px; color: green;'>+10 points!</span><br><br></div>,,delaylearn,learning,feedback_image_window,ZvOQMXn6aIcVcvIN4OGPw5ZSXQm2,ZvOQMXn6aIcVcvIN4OGPw5ZSXQm2,,,,,,,,,,,,,,,,,,,,,,63e60f40643623a5029f1e2b,11:24:51,27/02/2024
html-keyboard-response,28,51027,0.0-12.0,,"<div style=""font-size:100px;"">+</div>",,delaylearn,learning,ITI,ZvOQMXn6aIcVcvIN4OGPw5ZSXQm2,ZvOQMXn6aIcVcvIN4OGPw5ZSXQm2,,,,,,,,,,,,,,,,,,,2137.0,,,63e60f40643623a5029f1e2b,11:24:51,27/02/2024
html-keyboard-response,29,52103,0.0-13.0-0.0,1062.7999999998137,"<div style=""display: flex; flex-direction: column; align-items: center; margin-top: -40px;""><img src=""images/demo_images/pattern_1.png"" style=""width: 234px; height: 230px; margin-top: -50px;""><div style=""display: flex; justify-content: space-between; margin-top: 33px;""><img src=""images/demo_images/choice_trial_1.png"" style=""width: 408px; height: 417px; margin-right: 200px;""><img src=""images/demo_images/choice_trial_2.png"" style=""width: 408px; height: 417px;""></div></div>",j,delaylearn,learning,trial,ZvOQMXn6aIcVcvIN4OGPw5ZSXQm2,ZvOQMXn6aIcVcvIN4OGPw5ZSXQm2,4.0,images/demo_images/choice_trial_1.png,images/demo_images/choice_trial_2.png,images/demo_images/pattern_1.png,f,f,3000.0,1.0,2.0,20.0,0.0,6.0,0.0,0.0,2.0,30.0,,,,,,63e60f40643623a5029f1e2b,11:24:51,27/02/2024
html-keyboard-response,30,53123,0.0-13.0-1.0,,"<div style=""display: flex; flex-direction: column; align-items: center; margin-top: -40px;""><img src=""images/demo_images/pattern_1.png"" style=""width: 234px; height: 230px; margin-top: -50px;""><div style=""display: flex; justify-content: space-between; margin-top: 33px;""><img src=""images/demo_images/choice_trial_2.png"" style=""width: 408px; height: 417px; margin-left:608px;""></div></div>",,delaylearn,learning,display_response,ZvOQMXn6aIcVcvIN4OGPw5ZSXQm2,ZvOQMXn6aIcVcvIN4OGPw5ZSXQm2,,,,,,,,,,,,,,,,,chosen stimuli: images/demo_images/choice_trial_2.png,,,,,63e60f40643623a5029f1e2b,11:24:51,27/02/2024
html-keyboard-response,31,56134,0.0-13.0-2.0,,,,delaylearn,learning,feedback_duration_window,ZvOQMXn6aIcVcvIN4OGPw5ZSXQm2,ZvOQMXn6aIcVcvIN4OGPw5ZSXQm2,,,,,,,,,,,,,,,,,,3000.0,,,,63e60f40643623a5029f1e2b,11:24:51,27/02/2024
html-keyboard-response,32,57637,0.0-13.0-3.0,,<div style='margin:auto;width: auto; font-size: 150%'><span style='font-weight: bold; font-size: 100px; color: red;'>0 points!</span><br><br></div>,,delaylearn,learning,feedback_image_window,ZvOQMXn6aIcVcvIN4OGPw5ZSXQm2,ZvOQMXn6aIcVcvIN4OGPw5ZSXQm2,,,,,,,,,,,,,,,,,,,,,,63e60f40643623a5029f1e2b,11:24:51,27/02/2024
html-button-response,33,64057,0.0-14.0,6418.0999999996275,"
  <div style=""display: flex; align-items: center; justify-content: center; height: 80vh;"">
  <div>
          <img src=""images/inst_demo_finish.png"" style=""width: 80vw; height:auto;"">
          <br><br>
      </div>
      <br><br>
  </div>",0,,,,ZvOQMXn6aIcVcvIN4OGPw5ZSXQm2,,,,,,,,,,,,,,,,,,,,,,,63e60f40643623a5029f1e2b,11:24:51,27/02/2024
html-keyboard-response,34,80943,0.0-15.0,16883.700000000186,"
  <div style=""display: flex; align-items: center; justify-content: center; height: 80vh;"">
  <div>
          <img src=""images/inst_6.png"" style=""width: 80vw; height:auto;"">
          <br><br>
      </div>
      <br><br>
  </div>",j,,,,ZvOQMXn6aIcVcvIN4OGPw5ZSXQm2,,,,,,,,,,,,,,,,,,,,,,,63e60f40643623a5029f1e2b,11:24:51,27/02/2024
html-keyboard-response,35,83947,0.0-16.0,,"<div style=""font-size:100px;"">+</div>",,delaylearn,learning,pre_fixation,ZvOQMXn6aIcVcvIN4OGPw5ZSXQm2,,,,,,,,,,,,,,,,,,,,,,,63e60f40643623a5029f1e2b,11:24:51,27/02/2024
html-keyboard-response,36,85894,0.0-17.0,,"<div style=""font-size:100px;"">+</div>",,delaylearn,learning,ITI,ZvOQMXn6aIcVcvIN4OGPw5ZSXQm2,ZvOQMXn6aIcVcvIN4OGPw5ZSXQm2,,,,,,,,,,,,,,,,,,,1935.0,,,63e60f40643623a5029f1e2b,11:24:51,27/02/2024
html-keyboard-response,37,88956,0.0-18.0-0.0,,"<div style=""display: flex; flex-direction: column; align-items: center; margin-top: -40px;""><img src=""images/pattern_3.png"" style=""width: 234px; height: 230px; margin-top: -50px;""><div style=""display: flex; justify-content: space-between; margin-top: 33px;""><img src=""images/choice_trial_16.png"" style=""width: 408px; height: 417px; margin-right: 200px;""><img src=""images/choice_trial_6.png"" style=""width: 408px; height: 417px;""></div></div>",,delaylearn,learning,trial,ZvOQMXn6aIcVcvIN4OGPw5ZSXQm2,ZvOQMXn6aIcVcvIN4OGPw5ZSXQm2,4.0,images/choice_trial_16.png,images/choice_trial_6.png,images/pattern_3.png,f,f,7000.0,16.0,6.0,2.0,0.0,7.0,0.0,0.0,0.0,30.0,,,,,,63e60f40643623a5029f1e2b,11:24:51,27/02/2024
html-keyboard-response,38,90006,0.0-18.0-1.0,,<div style='font-weight: bold; font-size: 75px; color: red;'>Missed Trial <br><br><br><br> Please respond faster</div>,,delaylearn,learning,display_response,ZvOQMXn6aIcVcvIN4OGPw5ZSXQm2,ZvOQMXn6aIcVcvIN4OGPw5ZSXQm2,,,,,,,,,,,,,,,,,Missed trial,,,,,63e60f40643623a5029f1e2b,11:24:51,27/02/2024
html-keyboard-response,39,90017,0.0-18.0-2.0,,,,delaylearn,learning,feedback_duration_window,ZvOQMXn6aIcVcvIN4OGPw5ZSXQm2,ZvOQMXn6aIcVcvIN4OGPw5ZSXQm2,,,,,,,,,,,,,,,,,,0.0,,,,63e60f40643623a5029f1e2b,11:24:51,27/02/2024
html-keyboard-response,40,90028,0.0-18.0-3.0,,,,delaylearn,learning,feedback_image_window,ZvOQMXn6aIcVcvIN4OGPw5ZSXQm2,ZvOQMXn6aIcVcvIN4OGPw5ZSXQm2,,,,,,,,,,,,,,,,,,,,,,63e60f40643623a5029f1e2b,11:24:51,27/02/2024
html-keyboard-response,41,91667,0.0-19.0,,"<div style=""font-size:100px;"">+</div>",,delaylearn,learning,ITI,ZvOQMXn6aIcVcvIN4OGPw5ZSXQm2,ZvOQMXn6aIcVcvIN4OGPw5ZSXQm2,,,,,,,,,,,,,,,,,,,1582.0,,,63e60f40643623a5029f1e2b,11:24:51,27/02/2024
html-keyboard-response,42,94681,0.0-20.0-0.0,,"<div style=""display: flex; flex-direction: column; align-items: center; margin-top: -40px;""><img src=""images/pattern_7.png"" style=""width: 234px; height: 230px; margin-top: -50px;""><div style=""display: flex; justify-content: space-between; margin-top: 33px;""><img src=""images/choice_trial_4.png"" style=""width: 408px; height: 417px; margin-right: 200px;""><img src=""images/choice_trial_13.png"" style=""width: 408px; height: 417px;""></div></div>",,delaylearn,learning,trial,ZvOQMXn6aIcVcvIN4OGPw5ZSXQm2,ZvOQMXn6aIcVcvIN4OGPw5ZSXQm2,4.0,images/choice_trial_4.png,images/choice_trial_13.png,images/pattern_7.png,j,j,750.0,4.0,13.0,6.0,1.0,8.0,0.0,0.0,0.0,30.0,,,,,,63e60f40643623a5029f1e2b,11:24:51,27/02/2024
html-keyboard-response,43,95701,0.0-20.0-1.0,,<div style='font-weight: bold; font-size: 75px; color: red;'>Missed Trial <br><br><br><br> Please respond faster</div>,,delaylearn,learning,display_response,ZvOQMXn6aIcVcvIN4OGPw5ZSXQm2,ZvOQMXn6aIcVcvIN4OGPw5ZSXQm2,,,,,,,,,,,,,,,,,Missed trial,,,,,63e60f40643623a5029f1e2b,11:24:51,27/02/2024
html-keyboard-response,44,95744,0.0-20.0-2.0,,,,delaylearn,learning,feedback_duration_window,ZvOQMXn6aIcVcvIN4OGPw5ZSXQm2,ZvOQMXn6aIcVcvIN4OGPw5ZSXQm2,,,,,,,,,,,,,,,,,,0.0,,,,63e60f40643623a5029f1e2b,11:24:51,27/02/2024
html-keyboard-response,45,95765,0.0-20.0-3.0,,,,delaylearn,learning,feedback_image_window,ZvOQMXn6aIcVcvIN4OGPw5ZSXQm2,ZvOQMXn6aIcVcvIN4OGPw5ZSXQm2,,,,,,,,,,,,,,,,,,,,,,63e60f40643623a5029f1e2b,11:24:51,27/02/2024
html-keyboard-response,46,97872,0.0-21.0,,"<div style=""font-size:100px;"">+</div>",,delaylearn,learning,ITI,ZvOQMXn6aIcVcvIN4OGPw5ZSXQm2,ZvOQMXn6aIcVcvIN4OGPw5ZSXQm2,,,,,,,,,,,,,,,,,,,2090.0,,,63e60f40643623a5029f1e2b,11:24:51,27/02/2024
html-keyboard-response,47,99080,0.0-22.0-0.0,1206.4000000003725,"<div style=""display: flex; flex-direction: column; align-items: center; margin-top: -40px;""><img src=""images/pattern_4.png"" style=""width: 234px; height: 230px; margin-top: -50px;""><div style=""display: flex; justify-content: space-between; margin-top: 33px;""><img src=""images/choice_trial_8.png"" style=""width: 408px; height: 417px; margin-right: 200px;""><img src=""images/choice_trial_7.png"" style=""width: 408px; height: 417px;""></div></div>",f,delaylearn,learning,trial,ZvOQMXn6aIcVcvIN4OGPw5ZSXQm2,ZvOQMXn6aIcVcvIN4OGPw5ZSXQm2,4.0,images/choice_trial_8.png,images/choice_trial_7.png,images/pattern_4.png,f,f,7000.0,8.0,7.0,3.0,0.0,9.0,1.0,1.0,8.0,40.0,,,,,,63e60f40643623a5029f1e2b,11:24:51,27/02/2024
html-keyboard-response,48,100093,0.0-22.0-1.0,,"<div style=""display: flex; flex-direction: column; align-items: center; margin-top: -40px;""><img src=""images/pattern_4.png"" style=""width: 234px; height: 230px; margin-top: -50px;""><div style=""display: flex; justify-content: space-between; margin-top: 33px;""><img src=""images/choice_trial_8.png"" style=""width: 408px; height: 417px; margin-right: 608px;""></div></div>",,delaylearn,learning,display_response,ZvOQMXn6aIcVcvIN4OGPw5ZSXQm2,ZvOQMXn6aIcVcvIN4OGPw5ZSXQm2,,,,,,,,,,,,,,,,,chosen stimuli: images/choice_trial_8.png,,,,,63e60f40643623a5029f1e2b,11:24:51,27/02/2024
html-keyboard-response,49,107107,0.0-22.0-2.0,,,,delaylearn,learning,feedback_duration_window,ZvOQMXn6aIcVcvIN4OGPw5ZSXQm2,ZvOQMXn6aIcVcvIN4OGPw5ZSXQm2,,,,,,,,,,,,,,,,,,7000.0,,,,63e60f40643623a5029f1e2b,11:24:51,27/02/2024
html-keyboard-response,50,108622,0.0-22.0-3.0,,<div style='margin:auto;width: auto; font-size: 150%'><span style='font-weight: bold; font-size: 100px; color: green;'>+10 points!</span><br><br></div>,,delaylearn,learning,feedback_image_window,ZvOQMXn6aIcVcvIN4OGPw5ZSXQm2,ZvOQMXn6aIcVcvIN4OGPw5ZSXQm2,,,,,,,,,,,,,,,,,,,,,,63e60f40643623a5029f1e2b,11:24:51,27/02/2024
html-keyboard-response,51,110254,0.0-23.0,,"<div style=""font-size:100px;"">+</div>",,delaylearn,learning,ITI,ZvOQMXn6aIcVcvIN4OGPw5ZSXQm2,ZvOQMXn6aIcVcvIN4OGPw5ZSXQm2,,,,,,,,,,,,,,,,,,,1630.0,,,63e60f40643623a5029f1e2b,11:24:51,27/02/2024
html-keyboard-response,52,112182,0.0-24.0-0.0,1903.2999999998137,"<div style=""display: flex; flex-direction: column; align-items: center; margin-top: -40px;""><img src=""images/pattern_5.png"" style=""width: 234px; height: 230px; margin-top: -50px;""><div style=""display: flex; justify-content: space-between; margin-top: 33px;""><img src=""images/choice_trial_15.png"" style=""width: 408px; height: 417px; margin-right: 200px;""><img src=""images/choice_trial_5.png"" style=""width: 408px; height: 417px;""></div></div>",f,delaylearn,learning,trial,ZvOQMXn6aIcVcvIN4OGPw5ZSXQm2,ZvOQMXn6aIcVcvIN4OGPw5ZSXQm2,4.0,images/choice_trial_15.png,images/choice_trial_5.png,images/pattern_5.png,j,j,750.0,15.0,5.0,4.0,1.0,10.0,0.0,0.0,15.0,40.0,,,,,,63e60f40643623a5029f1e2b,11:24:51,27/02/2024
html-keyboard-response,53,113197,0.0-24.0-1.0,,"<div style=""display: flex; flex-direction: column; align-items: center; margin-top: -40px;""><img src=""images/pattern_5.png"" style=""width: 234px; height: 230px; margin-top: -50px;""><div style=""display: flex; justify-content: space-between; margin-top: 33px;""><img src=""images/choice_trial_15.png"" style=""width: 408px; height: 417px; margin-right: 608px;""></div></div>",,delaylearn,learning,display_response,ZvOQMXn6aIcVcvIN4OGPw5ZSXQm2,ZvOQMXn6aIcVcvIN4OGPw5ZSXQm2,,,,,,,,,,,,,,,,,chosen stimuli: images/choice_trial_15.png,,,,,63e60f40643623a5029f1e2b,11:24:51,27/02/2024
html-keyboard-response,54,113962,0.0-24.0-2.0,,,,delaylearn,learning,feedback_duration_window,ZvOQMXn6aIcVcvIN4OGPw5ZSXQm2,ZvOQMXn6aIcVcvIN4OGPw5ZSXQm2,,,,,,,,,,,,,,,,,,750.0,,,,63e60f40643623a5029f1e2b,11:24:51,27/02/2024
html-keyboard-response,55,115482,0.0-24.0-3.0,,<div style='margin:auto;width: auto; font-size: 150%'><span style='font-weight: bold; font-size: 100px; color: red;'>0 points!</span><br><br></div>,,delaylearn,learning,feedback_image_window,ZvOQMXn6aIcVcvIN4OGPw5ZSXQm2,ZvOQMXn6aIcVcvIN4OGPw5ZSXQm2,,,,,,,,,,,,,,,,,,,,,,63e60f40643623a5029f1e2b,11:24:51,27/02/2024
html-keyboard-response,56,117446,0.0-25.0,,"<div style=""font-size:100px;"">+</div>",,delaylearn,learning,ITI,ZvOQMXn6aIcVcvIN4OGPw5ZSXQm2,ZvOQMXn6aIcVcvIN4OGPw5ZSXQm2,,,,,,,,,,,,,,,,,,,1928.0,,,63e60f40643623a5029f1e2b,11:24:51,27/02/2024
html-keyboard-response,57,119458,0.0-26.0-0.0,1985.2000000001863,"<div style=""display: flex; flex-direction: column; align-items: center; margin-top: -40px;""><img src=""images/pattern_6.png"" style=""width: 234px; height: 230px; margin-top: -50px;""><div style=""display: flex; justify-content: space-between; margin-top: 33px;""><img src=""images/choice_trial_10.png"" style=""width: 408px; height: 417px; margin-right: 200px;""><img src=""images/choice_trial_3.png"" style=""width: 408px; height: 417px;""></div></div>",j,delaylearn,learning,trial,ZvOQMXn6aIcVcvIN4OGPw5ZSXQm2,ZvOQMXn6aIcVcvIN4OGPw5ZSXQm2,4.0,images/choice_trial_10.png,images/choice_trial_3.png,images/pattern_6.png,j,f,750.0,10.0,3.0,5.0,0.0,11.0,0.0,1.0,3.0,50.0,,,,,,63e60f40643623a5029f1e2b,11:24:51,27/02/2024
html-keyboard-response,58,120486,0.0-26.0-1.0,,"<div style=""display: flex; flex-direction: column; align-items: center; margin-top: -40px;""><img src=""images/pattern_6.png"" style=""width: 234px; height: 230px; margin-top: -50px;""><div style=""display: flex; justify-content: space-between; margin-top: 33px;""><img src=""images/choice_trial_3.png"" style=""width: 408px; height: 417px; margin-left:608px;""></div></div>",,delaylearn,learning,display_response,ZvOQMXn6aIcVcvIN4OGPw5ZSXQm2,ZvOQMXn6aIcVcvIN4OGPw5ZSXQm2,,,,,,,,,,,,,,,,,chosen stimuli: images/choice_trial_3.png,,,,,63e60f40643623a5029f1e2b,11:24:51,27/02/2024
html-keyboard-response,59,121256,0.0-26.0-2.0,,,,delaylearn,learning,feedback_duration_window,ZvOQMXn6aIcVcvIN4OGPw5ZSXQm2,ZvOQMXn6aIcVcvIN4OGPw5ZSXQm2,,,,,,,,,,,,,,,,,,750.0,,,,63e60f40643623a5029f1e2b,11:24:51,27/02/2024
html-keyboard-response,60,122825,0.0-26.0-3.0,,<div style='margin:auto;width: auto; font-size: 150%'><span style='font-weight: bold; font-size: 100px; color: green;'>+10 points!</span><br><br></div>,,delaylearn,learning,feedback_image_window,ZvOQMXn6aIcVcvIN4OGPw5ZSXQm2,ZvOQMXn6aIcVcvIN4OGPw5ZSXQm2,,,,,,,,,,,,,,,,,,,,,,63e60f40643623a5029f1e2b,11:24:51,27/02/2024
html-keyboard-response,61,123374,0.0-27.0-0.0,,,,,,mood_trial_fixation,ZvOQMXn6aIcVcvIN4OGPw5ZSXQm2,,,,,,,,,,,,,,,,,,,,,,,63e60f40643623a5029f1e2b,11:24:51,27/02/2024
lmdlab-html-vas-response,62,128323,0.0-27.0-1.0,3914.0,How happy are you right now?,0.7257129293682818,delaylearn,learning,mood_trial,ZvOQMXn6aIcVcvIN4OGPw5ZSXQm2,ZvOQMXn6aIcVcvIN4OGPw5ZSXQm2,,,,,,,,,,,,,,,,,,,,"['Very unhappy', 'Very happy']",,63e60f40643623a5029f1e2b,11:24:51,27/02/2024
html-keyboard-response,63,130034,0.0-28.0,,"<div style=""font-size:100px;"">+</div>",,delaylearn,learning,ITI,ZvOQMXn6aIcVcvIN4OGPw5ZSXQm2,ZvOQMXn6aIcVcvIN4OGPw5ZSXQm2,,,,,,,,,,,,,,,,,,,1692.0,,,63e60f40643623a5029f1e2b,11:24:51,27/02/2024
html-keyboard-response,64,131314,0.0-29.0-0.0,1246.0,"<div style=""display: flex; flex-direction: column; align-items: center; margin-top: -40px;""><img src=""images/pattern_1.png"" style=""width: 234px; height: 230px; margin-top: -50px;""><div style=""display: flex; justify-content: space-between; margin-top: 33px;""><img src=""images/choice_trial_9.png"" style=""width: 408px; height: 417px; margin-right: 200px;""><img src=""images/choice_trial_1.png"" style=""width: 408px; height: 417px;""></div></div>",f,delaylearn,learning,trial,ZvOQMXn6aIcVcvIN4OGPw5ZSXQm2,ZvOQMXn6aIcVcvIN4OGPw5ZSXQm2,4.0,images/choice_trial_9.png,images/choice_trial_1.png,images/pattern_1.png,j,j,7000.0,9.0,1.0,1.0,1.0,12.0,0.0,0.0,9.0,50.0,,,,,,63e60f40643623a5029f1e2b,11:24:51,27/02/2024
html-keyboard-response,65,132330,0.0-29.0-1.0,,"<div style=""display: flex; flex-direction: column; align-items: center; margin-top: -40px;""><img src=""images/pattern_1.png"" style=""width: 234px; height: 230px; margin-top: -50px;""><div style=""display: flex; justify-content: space-between; margin-top: 33px;""><img src=""images/choice_trial_9.png"" style=""width: 408px; height: 417px; margin-right: 608px;""></div></div>",,delaylearn,learning,display_response,ZvOQMXn6aIcVcvIN4OGPw5ZSXQm2,ZvOQMXn6aIcVcvIN4OGPw5ZSXQm2,,,,,,,,,,,,,,,,,chosen stimuli: images/choice_trial_9.png,,,,,63e60f40643623a5029f1e2b,11:24:51,27/02/2024
html-keyboard-response,66,139342,0.0-29.0-2.0,,,,delaylearn,learning,feedback_duration_window,ZvOQMXn6aIcVcvIN4OGPw5ZSXQm2,ZvOQMXn6aIcVcvIN4OGPw5ZSXQm2,,,,,,,,,,,,,,,,,,7000.0,,,,63e60f40643623a5029f1e2b,11:24:51,27/02/2024
html-keyboard-response,67,140872,0.0-29.0-3.0,,<div style='margin:auto;width: auto; font-size: 150%'><span style='font-weight: bold; font-size: 100px; color: red;'>0 points!</span><br><br></div>,,delaylearn,learning,feedback_image_window,ZvOQMXn6aIcVcvIN4OGPw5ZSXQm2,ZvOQMXn6aIcVcvIN4OGPw5ZSXQm2,,,,,,,,,,,,,,,,,,,,,,63e60f40643623a5029f1e2b,11:24:51,27/02/2024
html-keyboard-response,68,142868,0.0-30.0,,"<div style=""font-size:100px;"">+</div>",,delaylearn,learning,ITI,ZvOQMXn6aIcVcvIN4OGPw5ZSXQm2,ZvOQMXn6aIcVcvIN4OGPw5ZSXQm2,,,,,,,,,,,,,,,,,,,1983.0,,,63e60f40643623a5029f1e2b,11:24:51,27/02/2024
html-keyboard-response,69,145883,0.0-31.0-0.0,,"<div style=""display: flex; flex-direction: column; align-items: center; margin-top: -40px;""><img src=""images/pattern_3.png"" style=""width: 234px; height: 230px; margin-top: -50px;""><div style=""display: flex; justify-content: space-between; margin-top: 33px;""><img src=""images/choice_trial_6.png"" style=""width: 408px; height: 417px; margin-right: 200px;""><img src=""images/choice_trial_16.png"" style=""width: 408px; height: 417px;""></div></div>",,delaylearn,learning,trial,ZvOQMXn6aIcVcvIN4OGPw5ZSXQm2,ZvOQMXn6aIcVcvIN4OGPw5ZSXQm2,4.0,images/choice_trial_6.png,images/choice_trial_16.png,images/pattern_3.png,f,j,7000.0,6.0,16.0,2.0,1.0,13.0,0.0,0.0,0.0,50.0,,,,,,63e60f40643623a5029f1e2b,11:24:51,27/02/2024
html-keyboard-response,70,146896,0.0-31.0-1.0,,<div style='font-weight: bold; font-size: 75px; color: red;'>Missed Trial <br><br><br><br> Please respond faster</div>,,delaylearn,learning,display_response,ZvOQMXn6aIcVcvIN4OGPw5ZSXQm2,ZvOQMXn6aIcVcvIN4OGPw5ZSXQm2,,,,,,,,,,,,,,,,,Missed trial,,,,,63e60f40643623a5029f1e2b,11:24:51,27/02/2024
html-keyboard-response,71,146946,0.0-31.0-2.0,,,,delaylearn,learning,feedback_duration_window,ZvOQMXn6aIcVcvIN4OGPw5ZSXQm2,ZvOQMXn6aIcVcvIN4OGPw5ZSXQm2,,,,,,,,,,,,,,,,,,0.0,,,,63e60f40643623a5029f1e2b,11:24:51,27/02/2024
html-keyboard-response,72,146982,0.0-31.0-3.0,,,,delaylearn,learning,feedback_image_window,ZvOQMXn6aIcVcvIN4OGPw5ZSXQm2,ZvOQMXn6aIcVcvIN4OGPw5ZSXQm2,,,,,,,,,,,,,,,,,,,,,,63e60f40643623a5029f1e2b,11:24:51,27/02/2024
html-keyboard-response,73,149315,0.0-32.0,,"<div style=""font-size:100px;"">+</div>",,delaylearn,learning,ITI,ZvOQMXn6aIcVcvIN4OGPw5ZSXQm2,ZvOQMXn6aIcVcvIN4OGPw5ZSXQm2,,,,,,,,,,,,,,,,,,,2315.0,,,63e60f40643623a5029f1e2b,11:24:51,27/02/2024
html-keyboard-response,74,150211,0.0-33.0-0.0,852.4000000003725,"<div style=""display: flex; flex-direction: column; align-items: center; margin-top: -40px;""><img src=""images/pattern_5.png"" style=""width: 234px; height: 230px; margin-top: -50px;""><div style=""display: flex; justify-content: space-between; margin-top: 33px;""><img src=""images/choice_trial_5.png"" style=""width: 408px; height: 417px; margin-right: 200px;""><img src=""images/choice_trial_15.png"" style=""width: 408px; height: 417px;""></div></div>",f,delaylearn,learning,trial,ZvOQMXn6aIcVcvIN4OGPw5ZSXQm2,ZvOQMXn6aIcVcvIN4OGPw5ZSXQm2,4.0,images/choice_trial_5.png,images/choice_trial_15.png,images/pattern_5.png,f,f,750.0,5.0,15.0,4.0,0.0,14.0,1.0,1.0,5.0,60.0,,,,,,63e60f40643623a5029f1e2b,11:24:51,27/02/2024
html-keyboard-response,75,151229,0.0-33.0-1.0,,"<div style=""display: flex; flex-direction: column; align-items: center; margin-top: -40px;""><img src=""images/pattern_5.png"" style=""width: 234px; height: 230px; margin-top: -50px;""><div style=""display: flex; justify-content: space-between; margin-top: 33px;""><img src=""images/choice_trial_5.png"" style=""width: 408px; height: 417px; margin-right: 608px;""></div></div>",,delaylearn,learning,display_response,ZvOQMXn6aIcVcvIN4OGPw5ZSXQm2,ZvOQMXn6aIcVcvIN4OGPw5ZSXQm2,,,,,,,,,,,,,,,,,chosen stimuli: images/choice_trial_5.png,,,,,63e60f40643623a5029f1e2b,11:24:51,27/02/2024
html-keyboard-response,76,151995,0.0-33.0-2.0,,,,delaylearn,learning,feedback_duration_window,ZvOQMXn6aIcVcvIN4OGPw5ZSXQm2,ZvOQMXn6aIcVcvIN4OGPw5ZSXQm2,,,,,,,,,,,,,,,,,,750.0,,,,63e60f40643623a5029f1e2b,11:24:51,27/02/2024
html-keyboard-response,77,153511,0.0-33.0-3.0,,<div style='margin:auto;width: auto; font-size: 150%'><span style='font-weight: bold; font-size: 100px; color: green;'>+10 points!</span><br><br></div>,,delaylearn,learning,feedback_image_window,ZvOQMXn6aIcVcvIN4OGPw5ZSXQm2,ZvOQMXn6aIcVcvIN4OGPw5ZSXQm2,,,,,,,,,,,,,,,,,,,,,,63e60f40643623a5029f1e2b,11:24:51,27/02/2024
html-keyboard-response,78,154027,0.0-34.0-0.0,,,,,,mood_trial_fixation,ZvOQMXn6aIcVcvIN4OGPw5ZSXQm2,,,,,,,,,,,,,,,,,,,,,,,63e60f40643623a5029f1e2b,11:24:51,27/02/2024
lmdlab-html-vas-response,79,160425,0.0-34.0-1.0,5375.0,How happy are you right now?,0.7257129293682818,delaylearn,learning,mood_trial,ZvOQMXn6aIcVcvIN4OGPw5ZSXQm2,ZvOQMXn6aIcVcvIN4OGPw5ZSXQm2,,,,,,,,,,,,,,,,,,,,"['Very unhappy', 'Very happy']",,63e60f40643623a5029f1e2b,11:24:51,27/02/2024
html-keyboard-response,80,162463,0.0-35.0,,"<div style=""font-size:100px;"">+</div>",,delaylearn,learning,ITI,ZvOQMXn6aIcVcvIN4OGPw5ZSXQm2,ZvOQMXn6aIcVcvIN4OGPw5ZSXQm2,,,,,,,,,,,,,,,,,,,2027.0,,,63e60f40643623a5029f1e2b,11:24:51,27/02/2024
html-keyboard-response,81,163732,0.0-36.0-0.0,1266.3999999994412,"<div style=""display: flex; flex-direction: column; align-items: center; margin-top: -40px;""><img src=""images/pattern_6.png"" style=""width: 234px; height: 230px; margin-top: -50px;""><div style=""display: flex; justify-content: space-between; margin-top: 33px;""><img src=""images/choice_trial_10.png"" style=""width: 408px; height: 417px; margin-right: 200px;""><img src=""images/choice_trial_3.png"" style=""width: 408px; height: 417px;""></div></div>",j,delaylearn,learning,trial,ZvOQMXn6aIcVcvIN4OGPw5ZSXQm2,ZvOQMXn6aIcVcvIN4OGPw5ZSXQm2,4.0,images/choice_trial_10.png,images/choice_trial_3.png,images/pattern_6.png,f,f,750.0,10.0,3.0,5.0,0.0,15.0,0.0,0.0,3.0,60.0,,,,,,63e60f40643623a5029f1e2b,11:24:51,27/02/2024
html-keyboard-response,82,164750,0.0-36.0-1.0,,"<div style=""display: flex; flex-direction: column; align-items: center; margin-top: -40px;""><img src=""images/pattern_6.png"" style=""width: 234px; height: 230px; margin-top: -50px;""><div style=""display: flex; justify-content: space-between; margin-top: 33px;""><img src=""images/choice_trial_3.png"" style=""width: 408px; height: 417px; margin-left:608px;""></div></div>",,delaylearn,learning,display_response,ZvOQMXn6aIcVcvIN4OGPw5ZSXQm2,ZvOQMXn6aIcVcvIN4OGPw5ZSXQm2,,,,,,,,,,,,,,,,,chosen stimuli: images/choice_trial_3.png,,,,,63e60f40643623a5029f1e2b,11:24:51,27/02/2024
html-keyboard-response,83,165516,0.0-36.0-2.0,,,,delaylearn,learning,feedback_duration_window,ZvOQMXn6aIcVcvIN4OGPw5ZSXQm2,ZvOQMXn6aIcVcvIN4OGPw5ZSXQm2,,,,,,,,,,,,,,,,,,750.0,,,,63e60f40643623a5029f1e2b,11:24:51,27/02/2024
html-keyboard-response,84,167073,0.0-36.0-3.0,,<div style='margin:auto;width: auto; font-size: 150%'><span style='font-weight: bold; font-size: 100px; color: red;'>0 points!</span><br><br></div>,,delaylearn,learning,feedback_image_window,ZvOQMXn6aIcVcvIN4OGPw5ZSXQm2,ZvOQMXn6aIcVcvIN4OGPw5ZSXQm2,,,,,,,,,,,,,,,,,,,,,,63e60f40643623a5029f1e2b,11:24:51,27/02/2024
html-keyboard-response,85,169359,0.0-37.0,,"<div style=""font-size:100px;"">+</div>",,delaylearn,learning,ITI,ZvOQMXn6aIcVcvIN4OGPw5ZSXQm2,ZvOQMXn6aIcVcvIN4OGPw5ZSXQm2,,,,,,,,,,,,,,,,,,,2269.0,,,63e60f40643623a5029f1e2b,11:24:51,27/02/2024
html-keyboard-response,86,172385,0.0-38.0-0.0,,"<div style=""display: flex; flex-direction: column; align-items: center; margin-top: -40px;""><img src=""images/pattern_4.png"" style=""width: 234px; height: 230px; margin-top: -50px;""><div style=""display: flex; justify-content: space-between; margin-top: 33px;""><img src=""images/choice_trial_7.png"" style=""width: 408px; height: 417px; margin-right: 200px;""><img src=""images/choice_trial_8.png"" style=""width: 408px; height: 417px;""></div></div>",,delaylearn,learning,trial,ZvOQMXn6aIcVcvIN4OGPw5ZSXQm2,ZvOQMXn6aIcVcvIN4OGPw5ZSXQm2,4.0,images/choice_trial_7.png,images/choice_trial_8.png,images/pattern_4.png,j,j,7000.0,7.0,8.0,3.0,1.0,16.0,0.0,0.0,0.0,60.0,,,,,,63e60f40643623a5029f1e2b,11:24:51,27/02/2024
html-keyboard-response,87,173404,0.0-38.0-1.0,,<div style='font-weight: bold; font-size: 75px; color: red;'>Missed Trial <br><br><br><br> Please respond faster</div>,,delaylearn,learning,display_response,ZvOQMXn6aIcVcvIN4OGPw5ZSXQm2,ZvOQMXn6aIcVcvIN4OGPw5ZSXQm2,,,,,,,,,,,,,,,,,Missed trial,,,,,63e60f40643623a5029f1e2b,11:24:51,27/02/2024
html-keyboard-response,88,173416,0.0-38.0-2.0,,,,delaylearn,learning,feedback_duration_window,ZvOQMXn6aIcVcvIN4OGPw5ZSXQm2,ZvOQMXn6aIcVcvIN4OGPw5ZSXQm2,,,,,,,,,,,,,,,,,,0.0,,,,63e60f40643623a5029f1e2b,11:24:51,27/02/2024
html-keyboard-response,89,173423,0.0-38.0-3.0,,,,delaylearn,learning,feedback_image_window,ZvOQMXn6aIcVcvIN4OGPw5ZSXQm2,ZvOQMXn6aIcVcvIN4OGPw5ZSXQm2,,,,,,,,,,,,,,,,,,,,,,63e60f40643623a5029f1e2b,11:24:51,27/02/2024
html-keyboard-response,90,175750,0.0-39.0,,"<div style=""font-size:100px;"">+</div>",,delaylearn,learning,ITI,ZvOQMXn6aIcVcvIN4OGPw5ZSXQm2,ZvOQMXn6aIcVcvIN4OGPw5ZSXQm2,,,,,,,,,,,,,,,,,,,2309.0,,,63e60f40643623a5029f1e2b,11:24:51,27/02/2024
html-keyboard-response,91,178768,0.0-40.0-0.0,,"<div style=""display: flex; flex-direction: column; align-items: center; margin-top: -40px;""><img src=""images/pattern_7.png"" style=""width: 234px; height: 230px; margin-top: -50px;""><div style=""display: flex; justify-content: space-between; margin-top: 33px;""><img src=""images/choice_trial_13.png"" style=""width: 408px; height: 417px; margin-right: 200px;""><img src=""images/choice_trial_4.png"" style=""width: 408px; height: 417px;""></div></div>",,delaylearn,learning,trial,ZvOQMXn6aIcVcvIN4OGPw5ZSXQm2,ZvOQMXn6aIcVcvIN4OGPw5ZSXQm2,4.0,images/choice_trial_13.png,images/choice_trial_4.png,images/pattern_7.png,j,f,750.0,13.0,4.0,6.0,0.0,17.0,0.0,0.0,0.0,60.0,,,,,,63e60f40643623a5029f1e2b,11:24:51,27/02/2024
html-keyboard-response,92,179800,0.0-40.0-1.0,,<div style='font-weight: bold; font-size: 75px; color: red;'>Missed Trial <br><br><br><br> Please respond faster</div>,,delaylearn,learning,display_response,ZvOQMXn6aIcVcvIN4OGPw5ZSXQm2,ZvOQMXn6aIcVcvIN4OGPw5ZSXQm2,,,,,,,,,,,,,,,,,Missed trial,,,,,63e60f40643623a5029f1e2b,11:24:51,27/02/2024
html-keyboard-response,93,179809,0.0-40.0-2.0,,,,delaylearn,learning,feedback_duration_window,ZvOQMXn6aIcVcvIN4OGPw5ZSXQm2,ZvOQMXn6aIcVcvIN4OGPw5ZSXQm2,,,,,,,,,,,,,,,,,,0.0,,,,63e60f40643623a5029f1e2b,11:24:51,27/02/2024
html-keyboard-response,94,179819,0.0-40.0-3.0,,,,delaylearn,learning,feedback_image_window,ZvOQMXn6aIcVcvIN4OGPw5ZSXQm2,ZvOQMXn6aIcVcvIN4OGPw5ZSXQm2,,,,,,,,,,,,,,,,,,,,,,63e60f40643623a5029f1e2b,11:24:51,27/02/2024
html-keyboard-response,95,181843,0.0-41.0,,"<div style=""font-size:100px;"">+</div>",,delaylearn,learning,ITI,ZvOQMXn6aIcVcvIN4OGPw5ZSXQm2,ZvOQMXn6aIcVcvIN4OGPw5ZSXQm2,,,,,,,,,,,,,,,,,,,1955.0,,,63e60f40643623a5029f1e2b,11:24:51,27/02/2024
html-keyboard-response,96,182466,0.0-42.0-0.0,620.0,"<div style=""display: flex; flex-direction: column; align-items: center; margin-top: -40px;""><img src=""images/pattern_1.png"" style=""width: 234px; height: 230px; margin-top: -50px;""><div style=""display: flex; justify-content: space-between; margin-top: 33px;""><img src=""images/choice_trial_1.png"" style=""width: 408px; height: 417px; margin-right: 200px;""><img src=""images/choice_trial_9.png"" style=""width: 408px; height: 417px;""></div></div>",f,delaylearn,learning,trial,ZvOQMXn6aIcVcvIN4OGPw5ZSXQm2,ZvOQMXn6aIcVcvIN4OGPw5ZSXQm2,4.0,images/choice_trial_1.png,images/choice_trial_9.png,images/pattern_1.png,f,f,7000.0,1.0,9.0,1.0,0.0,18.0,1.0,1.0,1.0,70.0,,,,,,63e60f40643623a5029f1e2b,11:24:51,27/02/2024
html-keyboard-response,97,183481,0.0-42.0-1.0,,"<div style=""display: flex; flex-direction: column; align-items: center; margin-top: -40px;""><img src=""images/pattern_1.png"" style=""width: 234px; height: 230px; margin-top: -50px;""><div style=""display: flex; justify-content: space-between; margin-top: 33px;""><img src=""images/choice_trial_1.png"" style=""width: 408px; height: 417px; margin-right: 608px;""></div></div>",,delaylearn,learning,display_response,ZvOQMXn6aIcVcvIN4OGPw5ZSXQm2,ZvOQMXn6aIcVcvIN4OGPw5ZSXQm2,,,,,,,,,,,,,,,,,chosen stimuli: images/choice_trial_1.png,,,,,63e60f40643623a5029f1e2b,11:24:51,27/02/2024
html-keyboard-response,98,190500,0.0-42.0-2.0,,,,delaylearn,learning,feedback_duration_window,ZvOQMXn6aIcVcvIN4OGPw5ZSXQm2,ZvOQMXn6aIcVcvIN4OGPw5ZSXQm2,,,,,,,,,,,,,,,,,,7000.0,,,,63e60f40643623a5029f1e2b,11:24:51,27/02/2024
html-keyboard-response,99,192039,0.0-42.0-3.0,,<div style='margin:auto;width: auto; font-size: 150%'><span style='font-weight: bold; font-size: 100px; color: green;'>+10 points!</span><br><br></div>,,delaylearn,learning,feedback_image_window,ZvOQMXn6aIcVcvIN4OGPw5ZSXQm2,ZvOQMXn6aIcVcvIN4OGPw5ZSXQm2,,,,,,,,,,,,,,,,,,,,,,63e60f40643623a5029f1e2b,11:24:51,27/02/2024
html-keyboard-response,100,193817,0.0-43.0,,"<div style=""font-size:100px;"">+</div>",,delaylearn,learning,ITI,ZvOQMXn6aIcVcvIN4OGPw5ZSXQm2,ZvOQMXn6aIcVcvIN4OGPw5ZSXQm2,,,,,,,,,,,,,,,,,,,1747.0,,,63e60f40643623a5029f1e2b,11:24:51,27/02/2024
html-keyboard-response,101,194595,0.0-44.0-0.0,773.1000000005588,"<div style=""display: flex; flex-direction: column; align-items: center; margin-top: -40px;""><img src=""images/pattern_6.png"" style=""width: 234px; height: 230px; margin-top: -50px;""><div style=""display: flex; justify-content: space-between; margin-top: 33px;""><img src=""images/choice_trial_3.png"" style=""width: 408px; height: 417px; margin-right: 200px;""><img src=""images/choice_trial_10.png"" style=""width: 408px; height: 417px;""></div></div>",f,delaylearn,learning,trial,ZvOQMXn6aIcVcvIN4OGPw5ZSXQm2,ZvOQMXn6aIcVcvIN4OGPw5ZSXQm2,4.0,images/choice_trial_3.png,images/choice_trial_10.png,images/pattern_6.png,j,j,750.0,3.0,10.0,5.0,1.0,19.0,0.0,0.0,3.0,70.0,,,,,,63e60f40643623a5029f1e2b,11:24:51,27/02/2024
html-keyboard-response,102,195676,0.0-44.0-1.0,,"<div style=""display: flex; flex-direction: column; align-items: center; margin-top: -40px;""><img src=""images/pattern_6.png"" style=""width: 234px; height: 230px; margin-top: -50px;""><div style=""display: flex; justify-content: space-between; margin-top: 33px;""><img src=""images/choice_trial_3.png"" style=""width: 408px; height: 417px; margin-right: 608px;""></div></div>",,delaylearn,learning,display_response,ZvOQMXn6aIcVcvIN4OGPw5ZSXQm2,ZvOQMXn6aIcVcvIN4OGPw5ZSXQm2,,,,,,,,,,,,,,,,,chosen stimuli: images/choice_trial_3.png,,,,,63e60f40643623a5029f1e2b,11:24:51,27/02/2024
html-keyboard-response,103,196442,0.0-44.0-2.0,,,,delaylearn,learning,feedback_duration_window,ZvOQMXn6aIcVcvIN4OGPw5ZSXQm2,ZvOQMXn6aIcVcvIN4OGPw5ZSXQm2,,,,,,,,,,,,,,,,,,750.0,,,,63e60f40643623a5029f1e2b,11:24:51,27/02/2024
html-keyboard-response,104,198015,0.0-44.0-3.0,,<div style='margin:auto;width: auto; font-size: 150%'><span style='font-weight: bold; font-size: 100px; color: red;'>0 points!</span><br><br></div>,,delaylearn,learning,feedback_image_window,ZvOQMXn6aIcVcvIN4OGPw5ZSXQm2,ZvOQMXn6aIcVcvIN4OGPw5ZSXQm2,,,,,,,,,,,,,,,,,,,,,,63e60f40643623a5029f1e2b,11:24:51,27/02/2024
html-keyboard-response,105,200215,0.0-45.0,,"<div style=""font-size:100px;"">+</div>",,delaylearn,learning,ITI,ZvOQMXn6aIcVcvIN4OGPw5ZSXQm2,ZvOQMXn6aIcVcvIN4OGPw5ZSXQm2,,,,,,,,,,,,,,,,,,,2185.0,,,63e60f40643623a5029f1e2b,11:24:51,27/02/2024
html-keyboard-response,106,201155,0.0-46.0-0.0,931.2999999998137,"<div style=""display: flex; flex-direction: column; align-items: center; margin-top: -40px;""><img src=""images/pattern_4.png"" style=""width: 234px; height: 230px; margin-top: -50px;""><div style=""display: flex; justify-content: space-between; margin-top: 33px;""><img src=""images/choice_trial_8.png"" style=""width: 408px; height: 417px; margin-right: 200px;""><img src=""images/choice_trial_7.png"" style=""width: 408px; height: 417px;""></div></div>",j,delaylearn,learning,trial,ZvOQMXn6aIcVcvIN4OGPw5ZSXQm2,ZvOQMXn6aIcVcvIN4OGPw5ZSXQm2,4.0,images/choice_trial_8.png,images/choice_trial_7.png,images/pattern_4.png,f,f,7000.0,8.0,7.0,3.0,0.0,20.0,0.0,0.0,7.0,70.0,,,,,,63e60f40643623a5029f1e2b,11:24:51,27/02/2024
html-keyboard-response,107,202229,0.0-46.0-1.0,,"<div style=""display: flex; flex-direction: column; align-items: center; margin-top: -40px;""><img src=""images/pattern_4.png"" style=""width: 234px; height: 230px; margin-top: -50px;""><div style=""display: flex; justify-content: space-between; margin-top: 33px;""><img src=""images/choice_trial_7.png"" style=""width: 408px; height: 417px; margin-left:608px;""></div></div>",,delaylearn,learning,display_response,ZvOQMXn6aIcVcvIN4OGPw5ZSXQm2,ZvOQMXn6aIcVcvIN4OGPw5ZSXQm2,,,,,,,,,,,,,,,,,chosen stimuli: images/choice_trial_7.png,,,,,63e60f40643623a5029f1e2b,11:24:51,27/02/2024
html-keyboard-response,108,209248,0.0-46.0-2.0,,,,delaylearn,learning,feedback_duration_window,ZvOQMXn6aIcVcvIN4OGPw5ZSXQm2,ZvOQMXn6aIcVcvIN4OGPw5ZSXQm2,,,,,,,,,,,,,,,,,,7000.0,,,,63e60f40643623a5029f1e2b,11:24:51,27/02/2024
html-keyboard-response,109,210780,0.0-46.0-3.0,,<div style='margin:auto;width: auto; font-size: 150%'><span style='font-weight: bold; font-size: 100px; color: red;'>0 points!</span><br><br></div>,,delaylearn,learning,feedback_image_window,ZvOQMXn6aIcVcvIN4OGPw5ZSXQm2,ZvOQMXn6aIcVcvIN4OGPw5ZSXQm2,,,,,,,,,,,,,,,,,,,,,,63e60f40643623a5029f1e2b,11:24:51,27/02/2024
html-keyboard-response,110,211311,0.0-47.0-0.0,,,,,,mood_trial_fixation,ZvOQMXn6aIcVcvIN4OGPw5ZSXQm2,,,,,,,,,,,,,,,,,,,,,,,63e60f40643623a5029f1e2b,11:24:51,27/02/2024
lmdlab-html-vas-response,111,217540,0.0-47.0-1.0,5192.0,How happy are you right now?,0.09202807636228001,delaylearn,learning,mood_trial,ZvOQMXn6aIcVcvIN4OGPw5ZSXQm2,ZvOQMXn6aIcVcvIN4OGPw5ZSXQm2,,,,,,,,,,,,,,,,,,,,"['Very unhappy', 'Very happy']",,63e60f40643623a5029f1e2b,11:24:51,27/02/2024
html-keyboard-response,112,219336,0.0-48.0,,"<div style=""font-size:100px;"">+</div>",,delaylearn,learning,ITI,ZvOQMXn6aIcVcvIN4OGPw5ZSXQm2,ZvOQMXn6aIcVcvIN4OGPw5ZSXQm2,,,,,,,,,,,,,,,,,,,1761.0,,,63e60f40643623a5029f1e2b,11:24:51,27/02/2024
html-keyboard-response,113,222352,0.0-49.0-0.0,,"<div style=""display: flex; flex-direction: column; align-items: center; margin-top: -40px;""><img src=""images/pattern_7.png"" style=""width: 234px; height: 230px; margin-top: -50px;""><div style=""display: flex; justify-content: space-between; margin-top: 33px;""><img src=""images/choice_trial_4.png"" style=""width: 408px; height: 417px; margin-right: 200px;""><img src=""images/choice_trial_13.png"" style=""width: 408px; height: 417px;""></div></div>",,delaylearn,learning,trial,ZvOQMXn6aIcVcvIN4OGPw5ZSXQm2,ZvOQMXn6aIcVcvIN4OGPw5ZSXQm2,4.0,images/choice_trial_4.png,images/choice_trial_13.png,images/pattern_7.png,j,j,750.0,4.0,13.0,6.0,1.0,21.0,0.0,0.0,0.0,70.0,,,,,,63e60f40643623a5029f1e2b,11:24:51,27/02/2024
html-keyboard-response,114,223397,0.0-49.0-1.0,,<div style='font-weight: bold; font-size: 75px; color: red;'>Missed Trial <br><br><br><br> Please respond faster</div>,,delaylearn,learning,display_response,ZvOQMXn6aIcVcvIN4OGPw5ZSXQm2,ZvOQMXn6aIcVcvIN4OGPw5ZSXQm2,,,,,,,,,,,,,,,,,Missed trial,,,,,63e60f40643623a5029f1e2b,11:24:51,27/02/2024
html-keyboard-response,115,223429,0.0-49.0-2.0,,,,delaylearn,learning,feedback_duration_window,ZvOQMXn6aIcVcvIN4OGPw5ZSXQm2,ZvOQMXn6aIcVcvIN4OGPw5ZSXQm2,,,,,,,,,,,,,,,,,,0.0,,,,63e60f40643623a5029f1e2b,11:24:51,27/02/2024
html-keyboard-response,116,223447,0.0-49.0-3.0,,,,delaylearn,learning,feedback_image_window,ZvOQMXn6aIcVcvIN4OGPw5ZSXQm2,ZvOQMXn6aIcVcvIN4OGPw5ZSXQm2,,,,,,,,,,,,,,,,,,,,,,63e60f40643623a5029f1e2b,11:24:51,27/02/2024
html-keyboard-response,117,225564,0.0-50.0,,"<div style=""font-size:100px;"">+</div>",,delaylearn,learning,ITI,ZvOQMXn6aIcVcvIN4OGPw5ZSXQm2,ZvOQMXn6aIcVcvIN4OGPw5ZSXQm2,,,,,,,,,,,,,,,,,,,2102.0,,,63e60f40643623a5029f1e2b,11:24:51,27/02/2024
html-keyboard-response,118,227903,0.0-51.0-0.0,2327.4000000003725,"<div style=""display: flex; flex-direction: column; align-items: center; margin-top: -40px;""><img src=""images/pattern_1.png"" style=""width: 234px; height: 230px; margin-top: -50px;""><div style=""display: flex; justify-content: space-between; margin-top: 33px;""><img src=""images/choice_trial_9.png"" style=""width: 408px; height: 417px; margin-right: 200px;""><img src=""images/choice_trial_1.png"" style=""width: 408px; height: 417px;""></div></div>",f,delaylearn,learning,trial,ZvOQMXn6aIcVcvIN4OGPw5ZSXQm2,ZvOQMXn6aIcVcvIN4OGPw5ZSXQm2,4.0,images/choice_trial_9.png,images/choice_trial_1.png,images/pattern_1.png,f,j,7000.0,9.0,1.0,1.0,1.0,22.0,0.0,1.0,9.0,80.0,,,,,,63e60f40643623a5029f1e2b,11:24:51,27/02/2024
html-keyboard-response,119,228928,0.0-51.0-1.0,,"<div style=""display: flex; flex-direction: column; align-items: center; margin-top: -40px;""><img src=""images/pattern_1.png"" style=""width: 234px; height: 230px; margin-top: -50px;""><div style=""display: flex; justify-content: space-between; margin-top: 33px;""><img src=""images/choice_trial_9.png"" style=""width: 408px; height: 417px; margin-right: 608px;""></div></div>",,delaylearn,learning,display_response,ZvOQMXn6aIcVcvIN4OGPw5ZSXQm2,ZvOQMXn6aIcVcvIN4OGPw5ZSXQm2,,,,,,,,,,,,,,,,,chosen stimuli: images/choice_trial_9.png,,,,,63e60f40643623a5029f1e2b,11:24:51,27/02/2024
html-keyboard-response,120,235968,0.0-51.0-2.0,,,,delaylearn,learning,feedback_duration_window,ZvOQMXn6aIcVcvIN4OGPw5ZSXQm2,ZvOQMXn6aIcVcvIN4OGPw5ZSXQm2,,,,,,,,,,,,,,,,,,7000.0,,,,63e60f40643623a5029f1e2b,11:24:51,27/02/2024
html-keyboard-response,121,237485,0.0-51.0-3.0,,<div style='margin:auto;width: auto; font-size: 150%'><span style='font-weight: bold; font-size: 100px; color: green;'>+10 points!</span><br><br></div>,,delaylearn,learning,feedback_image_window,ZvOQMXn6aIcVcvIN4OGPw5ZSXQm2,ZvOQMXn6aIcVcvIN4OGPw5ZSXQm2,,,,,,,,,,,,,,,,,,,,,,63e60f40643623a5029f1e2b,11:24:51,27/02/2024
html-keyboard-response,122,239635,0.0-52.0,,"<div style=""font-size:100px;"">+</div>",,delaylearn,learning,ITI,ZvOQMXn6aIcVcvIN4OGPw5ZSXQm2,ZvOQMXn6aIcVcvIN4OGPw5ZSXQm2,,,,,,,,,,,,,,,,,,,2128.0,,,63e60f40643623a5029f1e2b,11:24:51,27/02/2024
html-keyboard-response,123,242662,0.0-53.0-0.0,,"<div style=""display: flex; flex-direction: column; align-items: center; margin-top: -40px;""><img src=""images/pattern_5.png"" style=""width: 234px; height: 230px; margin-top: -50px;""><div style=""display: flex; justify-content: space-between; margin-top: 33px;""><img src=""images/choice_trial_15.png"" style=""width: 408px; height: 417px; margin-right: 200px;""><img src=""images/choice_trial_5.png"" style=""width: 408px; height: 417px;""></div></div>",,delaylearn,learning,trial,ZvOQMXn6aIcVcvIN4OGPw5ZSXQm2,ZvOQMXn6aIcVcvIN4OGPw5ZSXQm2,4.0,images/choice_trial_15.png,images/choice_trial_5.png,images/pattern_5.png,j,j,750.0,15.0,5.0,4.0,1.0,23.0,0.0,0.0,0.0,80.0,,,,,,63e60f40643623a5029f1e2b,11:24:51,27/02/2024
html-keyboard-response,124,243679,0.0-53.0-1.0,,<div style='font-weight: bold; font-size: 75px; color: red;'>Missed Trial <br><br><br><br> Please respond faster</div>,,delaylearn,learning,display_response,ZvOQMXn6aIcVcvIN4OGPw5ZSXQm2,ZvOQMXn6aIcVcvIN4OGPw5ZSXQm2,,,,,,,,,,,,,,,,,Missed trial,,,,,63e60f40643623a5029f1e2b,11:24:51,27/02/2024
html-keyboard-response,125,243691,0.0-53.0-2.0,,,,delaylearn,learning,feedback_duration_window,ZvOQMXn6aIcVcvIN4OGPw5ZSXQm2,ZvOQMXn6aIcVcvIN4OGPw5ZSXQm2,,,,,,,,,,,,,,,,,,0.0,,,,63e60f40643623a5029f1e2b,11:24:51,27/02/2024
html-keyboard-response,126,243698,0.0-53.0-3.0,,,,delaylearn,learning,feedback_image_window,ZvOQMXn6aIcVcvIN4OGPw5ZSXQm2,ZvOQMXn6aIcVcvIN4OGPw5ZSXQm2,,,,,,,,,,,,,,,,,,,,,,63e60f40643623a5029f1e2b,11:24:51,27/02/2024
html-keyboard-response,127,245929,0.0-54.0,,"<div style=""font-size:100px;"">+</div>",,delaylearn,learning,ITI,ZvOQMXn6aIcVcvIN4OGPw5ZSXQm2,ZvOQMXn6aIcVcvIN4OGPw5ZSXQm2,,,,,,,,,,,,,,,,,,,2208.0,,,63e60f40643623a5029f1e2b,11:24:51,27/02/2024
html-keyboard-response,128,248957,0.0-55.0-0.0,,"<div style=""display: flex; flex-direction: column; align-items: center; margin-top: -40px;""><img src=""images/pattern_3.png"" style=""width: 234px; height: 230px; margin-top: -50px;""><div style=""display: flex; justify-content: space-between; margin-top: 33px;""><img src=""images/choice_trial_6.png"" style=""width: 408px; height: 417px; margin-right: 200px;""><img src=""images/choice_trial_16.png"" style=""width: 408px; height: 417px;""></div></div>",,delaylearn,learning,trial,ZvOQMXn6aIcVcvIN4OGPw5ZSXQm2,ZvOQMXn6aIcVcvIN4OGPw5ZSXQm2,4.0,images/choice_trial_6.png,images/choice_trial_16.png,images/pattern_3.png,j,j,7000.0,6.0,16.0,2.0,1.0,24.0,0.0,0.0,0.0,80.0,,,,,,63e60f40643623a5029f1e2b,11:24:51,27/02/2024
html-keyboard-response,129,249974,0.0-55.0-1.0,,<div style='font-weight: bold; font-size: 75px; color: red;'>Missed Trial <br><br><br><br> Please respond faster</div>,,delaylearn,learning,display_response,ZvOQMXn6aIcVcvIN4OGPw5ZSXQm2,ZvOQMXn6aIcVcvIN4OGPw5ZSXQm2,,,,,,,,,,,,,,,,,Missed trial,,,,,63e60f40643623a5029f1e2b,11:24:51,27/02/2024
html-keyboard-response,130,249990,0.0-55.0-2.0,,,,delaylearn,learning,feedback_duration_window,ZvOQMXn6aIcVcvIN4OGPw5ZSXQm2,ZvOQMXn6aIcVcvIN4OGPw5ZSXQm2,,,,,,,,,,,,,,,,,,0.0,,,,63e60f40643623a5029f1e2b,11:24:51,27/02/2024
html-keyboard-response,131,250005,0.0-55.0-3.0,,,,delaylearn,learning,feedback_image_window,ZvOQMXn6aIcVcvIN4OGPw5ZSXQm2,ZvOQMXn6aIcVcvIN4OGPw5ZSXQm2,,,,,,,,,,,,,,,,,,,,,,63e60f40643623a5029f1e2b,11:24:51,27/02/2024
lmdlab-html-vas-response,132,259361,0.0-56.0-0.0,7725.0,*How <b><u>confident</u></b> are you feeling about your answers at this moment?*,0.9188566003187413,rewlearn,rate_confidence,,ZvOQMXn6aIcVcvIN4OGPw5ZSXQm2,ZvOQMXn6aIcVcvIN4OGPw5ZSXQm2,,,,,,,,,,,,,,,,,,,,"['No confidence', 'Complete confidence']",,63e60f40643623a5029f1e2b,11:24:51,27/02/2024
lmdlab-rest-trial-limit,133,269456,0.0-56.0-1.0,8573.899999999441,"<div style=""font-size:40px;""><b>Please take a break!</b><br><br><br><br><p>Great work: you earned undefined points.<br><br><br><p>You have completed part(s) 1 of 6.<br><br><br><br>When you are ready to continue<br><br><br>please click the button.</p><br><br>",0,delaylearn,learning,break,ZvOQMXn6aIcVcvIN4OGPw5ZSXQm2,ZvOQMXn6aIcVcvIN4OGPw5ZSXQm2,,,,,,,,,,,,,,,,,,,,,0.0,63e60f40643623a5029f1e2b,11:24:51,27/02/2024
html-keyboard-response,134,272475,0.0-56.0-2.0,,"<div style=""font-size:100px;"">+</div>",,delaylearn,learning,pre_fixation,ZvOQMXn6aIcVcvIN4OGPw5ZSXQm2,,,,,,,,,,,,,,,,,,,,,,,63e60f40643623a5029f1e2b,11:24:51,27/02/2024
lmdlab-html-vas-response,135,277238,0.0-56.0-3.0-0.0,3718.0,How happy are you right now?,0.8450713777084534,delaylearn,learning,mood_baseline,ZvOQMXn6aIcVcvIN4OGPw5ZSXQm2,ZvOQMXn6aIcVcvIN4OGPw5ZSXQm2,,,,,,,,,,,,,,,,,,,,"['Very unhappy', 'Very happy']",,63e60f40643623a5029f1e2b,11:24:51,27/02/2024
html-keyboard-response,136,278749,0.0-56.0-3.0-1.0,,,,,,mood_baseline_fixation,ZvOQMXn6aIcVcvIN4OGPw5ZSXQm2,,,,,,,,,,,,,,,,,,,,,,,63e60f40643623a5029f1e2b,11:24:51,27/02/2024
html-keyboard-response,137,280417,0.0-57.0,,"<div style=""font-size:100px;"">+</div>",,delaylearn,learning,ITI,ZvOQMXn6aIcVcvIN4OGPw5ZSXQm2,ZvOQMXn6aIcVcvIN4OGPw5ZSXQm2,,,,,,,,,,,,,,,,,,,1659.0,,,63e60f40643623a5029f1e2b,11:24:51,27/02/2024
html-keyboard-response,138,283463,0.0-58.0-0.0,,"<div style=""display: flex; flex-direction: column; align-items: center; margin-top: -40px;""><img src=""images/pattern_7.png"" style=""width: 234px; height: 230px; margin-top: -50px;""><div style=""display: flex; justify-content: space-between; margin-top: 33px;""><img src=""images/choice_trial_4.png"" style=""width: 408px; height: 417px; margin-right: 200px;""><img src=""images/choice_trial_13.png"" style=""width: 408px; height: 417px;""></div></div>",,delaylearn,learning,trial,ZvOQMXn6aIcVcvIN4OGPw5ZSXQm2,ZvOQMXn6aIcVcvIN4OGPw5ZSXQm2,4.0,images/choice_trial_4.png,images/choice_trial_13.png,images/pattern_7.png,j,j,750.0,4.0,13.0,6.0,1.0,25.0,0.0,0.0,0.0,80.0,,,,,,63e60f40643623a5029f1e2b,11:24:51,27/02/2024
html-keyboard-response,139,284530,0.0-58.0-1.0,,<div style='font-weight: bold; font-size: 75px; color: red;'>Missed Trial <br><br><br><br> Please respond faster</div>,,delaylearn,learning,display_response,ZvOQMXn6aIcVcvIN4OGPw5ZSXQm2,ZvOQMXn6aIcVcvIN4OGPw5ZSXQm2,,,,,,,,,,,,,,,,,Missed trial,,,,,63e60f40643623a5029f1e2b,11:24:51,27/02/2024
html-keyboard-response,140,284564,0.0-58.0-2.0,,,,delaylearn,learning,feedback_duration_window,ZvOQMXn6aIcVcvIN4OGPw5ZSXQm2,ZvOQMXn6aIcVcvIN4OGPw5ZSXQm2,,,,,,,,,,,,,,,,,,0.0,,,,63e60f40643623a5029f1e2b,11:24:51,27/02/2024
html-keyboard-response,141,284591,0.0-58.0-3.0,,,,delaylearn,learning,feedback_image_window,ZvOQMXn6aIcVcvIN4OGPw5ZSXQm2,ZvOQMXn6aIcVcvIN4OGPw5ZSXQm2,,,,,,,,,,,,,,,,,,,,,,63e60f40643623a5029f1e2b,11:24:51,27/02/2024
html-keyboard-response,142,285097,0.0-59.0-0.0,,,,,,mood_trial_fixation,ZvOQMXn6aIcVcvIN4OGPw5ZSXQm2,,,,,,,,,,,,,,,,,,,,,,,63e60f40643623a5029f1e2b,11:24:51,27/02/2024
lmdlab-html-vas-response,143,289392,0.0-59.0-1.0,3280.0,How happy are you right now?,0.8277101488589739,delaylearn,learning,mood_trial,ZvOQMXn6aIcVcvIN4OGPw5ZSXQm2,ZvOQMXn6aIcVcvIN4OGPw5ZSXQm2,,,,,,,,,,,,,,,,,,,,"['Very unhappy', 'Very happy']",,63e60f40643623a5029f1e2b,11:24:51,27/02/2024
html-keyboard-response,144,291556,0.0-60.0,,"<div style=""font-size:100px;"">+</div>",,delaylearn,learning,ITI,ZvOQMXn6aIcVcvIN4OGPw5ZSXQm2,ZvOQMXn6aIcVcvIN4OGPw5ZSXQm2,,,,,,,,,,,,,,,,,,,2073.0,,,63e60f40643623a5029f1e2b,11:24:51,27/02/2024
html-keyboard-response,145,291750,0.0-61.0-0.0,121.29999999981374,"<div style=""display: flex; flex-direction: column; align-items: center; margin-top: -40px;""><img src=""images/pattern_1.png"" style=""width: 234px; height: 230px; margin-top: -50px;""><div style=""display: flex; justify-content: space-between; margin-top: 33px;""><img src=""images/choice_trial_1.png"" style=""width: 408px; height: 417px; margin-right: 200px;""><img src=""images/choice_trial_9.png"" style=""width: 408px; height: 417px;""></div></div>",f,delaylearn,learning,trial,ZvOQMXn6aIcVcvIN4OGPw5ZSXQm2,ZvOQMXn6aIcVcvIN4OGPw5ZSXQm2,4.0,images/choice_trial_1.png,images/choice_trial_9.png,images/pattern_1.png,f,f,7000.0,1.0,9.0,1.0,0.0,26.0,1.0,1.0,1.0,90.0,,,,,,63e60f40643623a5029f1e2b,11:24:51,27/02/2024
html-keyboard-response,146,292786,0.0-61.0-1.0,,"<div style=""display: flex; flex-direction: column; align-items: center; margin-top: -40px;""><img src=""images/pattern_1.png"" style=""width: 234px; height: 230px; margin-top: -50px;""><div style=""display: flex; justify-content: space-between; margin-top: 33px;""><img src=""images/choice_trial_1.png"" style=""width: 408px; height: 417px; margin-right: 608px;""></div></div>",,delaylearn,learning,display_response,ZvOQMXn6aIcVcvIN4OGPw5ZSXQm2,ZvOQMXn6aIcVcvIN4OGPw5ZSXQm2,,,,,,,,,,,,,,,,,chosen stimuli: images/choice_trial_1.png,,,,,63e60f40643623a5029f1e2b,11:24:51,27/02/2024
html-keyboard-response,147,299810,0.0-61.0-2.0,,,,delaylearn,learning,feedback_duration_window,ZvOQMXn6aIcVcvIN4OGPw5ZSXQm2,ZvOQMXn6aIcVcvIN4OGPw5ZSXQm2,,,,,,,,,,,,,,,,,,7000.0,,,,63e60f40643623a5029f1e2b,11:24:51,27/02/2024
html-keyboard-response,148,301329,0.0-61.0-3.0,,<div style='margin:auto;width: auto; font-size: 150%'><span style='font-weight: bold; font-size: 100px; color: green;'>+10 points!</span><br><br></div>,,delaylearn,learning,feedback_image_window,ZvOQMXn6aIcVcvIN4OGPw5ZSXQm2,ZvOQMXn6aIcVcvIN4OGPw5ZSXQm2,,,,,,,,,,,,,,,,,,,,,,63e60f40643623a5029f1e2b,11:24:51,27/02/2024
html-keyboard-response,149,303563,0.0-62.0,,"<div style=""font-size:100px;"">+</div>",,delaylearn,learning,ITI,ZvOQMXn6aIcVcvIN4OGPw5ZSXQm2,ZvOQMXn6aIcVcvIN4OGPw5ZSXQm2,,,,,,,,,,,,,,,,,,,2198.0,,,63e60f40643623a5029f1e2b,11:24:51,27/02/2024
html-keyboard-response,150,306593,0.0-63.0-0.0,,"<div style=""display: flex; flex-direction: column; align-items: center; margin-top: -40px;""><img src=""images/pattern_5.png"" style=""width: 234px; height: 230px; margin-top: -50px;""><div style=""display: flex; justify-content: space-between; margin-top: 33px;""><img src=""images/choice_trial_5.png"" style=""width: 408px; height: 417px; margin-right: 200px;""><img src=""images/choice_trial_15.png"" style=""width: 408px; height: 417px;""></div></div>",,delaylearn,learning,trial,ZvOQMXn6aIcVcvIN4OGPw5ZSXQm2,ZvOQMXn6aIcVcvIN4OGPw5ZSXQm2,4.0,images/choice_trial_5.png,images/choice_trial_15.png,images/pattern_5.png,f,f,750.0,5.0,15.0,4.0,0.0,27.0,0.0,0.0,0.0,90.0,,,,,,63e60f40643623a5029f1e2b,11:24:51,27/02/2024
html-keyboard-response,151,307606,0.0-63.0-1.0,,<div style='font-weight: bold; font-size: 75px; color: red;'>Missed Trial <br><br><br><br> Please respond faster</div>,,delaylearn,learning,display_response,ZvOQMXn6aIcVcvIN4OGPw5ZSXQm2,ZvOQMXn6aIcVcvIN4OGPw5ZSXQm2,,,,,,,,,,,,,,,,,Missed trial,,,,,63e60f40643623a5029f1e2b,11:24:51,27/02/2024
html-keyboard-response,152,307622,0.0-63.0-2.0,,,,delaylearn,learning,feedback_duration_window,ZvOQMXn6aIcVcvIN4OGPw5ZSXQm2,ZvOQMXn6aIcVcvIN4OGPw5ZSXQm2,,,,,,,,,,,,,,,,,,0.0,,,,63e60f40643623a5029f1e2b,11:24:51,27/02/2024
html-keyboard-response,153,307642,0.0-63.0-3.0,,,,delaylearn,learning,feedback_image_window,ZvOQMXn6aIcVcvIN4OGPw5ZSXQm2,ZvOQMXn6aIcVcvIN4OGPw5ZSXQm2,,,,,,,,,,,,,,,,,,,,,,63e60f40643623a5029f1e2b,11:24:51,27/02/2024
html-keyboard-response,154,309653,0.0-64.0,,"<div style=""font-size:100px;"">+</div>",,delaylearn,learning,ITI,ZvOQMXn6aIcVcvIN4OGPw5ZSXQm2,ZvOQMXn6aIcVcvIN4OGPw5ZSXQm2,,,,,,,,,,,,,,,,,,,2002.0,,,63e60f40643623a5029f1e2b,11:24:51,27/02/2024
html-keyboard-response,155,310955,0.0-65.0-0.0,1299.0999999996275,"<div style=""display: flex; flex-direction: column; align-items: center; margin-top: -40px;""><img src=""images/pattern_6.png"" style=""width: 234px; height: 230px; margin-top: -50px;""><div style=""display: flex; justify-content: space-between; margin-top: 33px;""><img src=""images/choice_trial_3.png"" style=""width: 408px; height: 417px; margin-right: 200px;""><img src=""images/choice_trial_10.png"" style=""width: 408px; height: 417px;""></div></div>",j,delaylearn,learning,trial,ZvOQMXn6aIcVcvIN4OGPw5ZSXQm2,ZvOQMXn6aIcVcvIN4OGPw5ZSXQm2,4.0,images/choice_trial_3.png,images/choice_trial_10.png,images/pattern_6.png,j,j,750.0,3.0,10.0,5.0,1.0,28.0,1.0,1.0,10.0,100.0,,,,,,63e60f40643623a5029f1e2b,11:24:51,27/02/2024
html-keyboard-response,156,311970,0.0-65.0-1.0,,"<div style=""display: flex; flex-direction: column; align-items: center; margin-top: -40px;""><img src=""images/pattern_6.png"" style=""width: 234px; height: 230px; margin-top: -50px;""><div style=""display: flex; justify-content: space-between; margin-top: 33px;""><img src=""images/choice_trial_10.png"" style=""width: 408px; height: 417px; margin-left:608px;""></div></div>",,delaylearn,learning,display_response,ZvOQMXn6aIcVcvIN4OGPw5ZSXQm2,ZvOQMXn6aIcVcvIN4OGPw5ZSXQm2,,,,,,,,,,,,,,,,,chosen stimuli: images/choice_trial_10.png,,,,,63e60f40643623a5029f1e2b,11:24:51,27/02/2024
html-keyboard-response,157,312734,0.0-65.0-2.0,,,,delaylearn,learning,feedback_duration_window,ZvOQMXn6aIcVcvIN4OGPw5ZSXQm2,ZvOQMXn6aIcVcvIN4OGPw5ZSXQm2,,,,,,,,,,,,,,,,,,750.0,,,,63e60f40643623a5029f1e2b,11:24:51,27/02/2024
html-keyboard-response,158,314250,0.0-65.0-3.0,,<div style='margin:auto;width: auto; font-size: 150%'><span style='font-weight: bold; font-size: 100px; color: green;'>+10 points!</span><br><br></div>,,delaylearn,learning,feedback_image_window,ZvOQMXn6aIcVcvIN4OGPw5ZSXQm2,ZvOQMXn6aIcVcvIN4OGPw5ZSXQm2,,,,,,,,,,,,,,,,,,,,,,63e60f40643623a5029f1e2b,11:24:51,27/02/2024
html-keyboard-response,159,314766,0.0-66.0-0.0,,,,,,mood_trial_fixation,ZvOQMXn6aIcVcvIN4OGPw5ZSXQm2,,,,,,,,,,,,,,,,,,,,,,,63e60f40643623a5029f1e2b,11:24:51,27/02/2024
lmdlab-html-vas-response,160,319275,0.0-66.0-1.0,3479.0,How happy are you right now?,0.8472415313146384,delaylearn,learning,mood_trial,ZvOQMXn6aIcVcvIN4OGPw5ZSXQm2,ZvOQMXn6aIcVcvIN4OGPw5ZSXQm2,,,,,,,,,,,,,,,,,,,,"['Very unhappy', 'Very happy']",,63e60f40643623a5029f1e2b,11:24:51,27/02/2024
html-keyboard-response,161,321503,0.0-67.0,,"<div style=""font-size:100px;"">+</div>",,delaylearn,learning,ITI,ZvOQMXn6aIcVcvIN4OGPw5ZSXQm2,ZvOQMXn6aIcVcvIN4OGPw5ZSXQm2,,,,,,,,,,,,,,,,,,,2197.0,,,63e60f40643623a5029f1e2b,11:24:51,27/02/2024
html-keyboard-response,162,322172,0.0-68.0-0.0,664.8999999994412,"<div style=""display: flex; flex-direction: column; align-items: center; margin-top: -40px;""><img src=""images/pattern_4.png"" style=""width: 234px; height: 230px; margin-top: -50px;""><div style=""display: flex; justify-content: space-between; margin-top: 33px;""><img src=""images/choice_trial_7.png"" style=""width: 408px; height: 417px; margin-right: 200px;""><img src=""images/choice_trial_8.png"" style=""width: 408px; height: 417px;""></div></div>",j,delaylearn,learning,trial,ZvOQMXn6aIcVcvIN4OGPw5ZSXQm2,ZvOQMXn6aIcVcvIN4OGPw5ZSXQm2,4.0,images/choice_trial_7.png,images/choice_trial_8.png,images/pattern_4.png,j,j,7000.0,7.0,8.0,3.0,1.0,29.0,1.0,1.0,8.0,110.0,,,,,,63e60f40643623a5029f1e2b,11:24:51,27/02/2024
html-keyboard-response,163,323200,0.0-68.0-1.0,,"<div style=""display: flex; flex-direction: column; align-items: center; margin-top: -40px;""><img src=""images/pattern_4.png"" style=""width: 234px; height: 230px; margin-top: -50px;""><div style=""display: flex; justify-content: space-between; margin-top: 33px;""><img src=""images/choice_trial_8.png"" style=""width: 408px; height: 417px; margin-left:608px;""></div></div>",,delaylearn,learning,display_response,ZvOQMXn6aIcVcvIN4OGPw5ZSXQm2,ZvOQMXn6aIcVcvIN4OGPw5ZSXQm2,,,,,,,,,,,,,,,,,chosen stimuli: images/choice_trial_8.png,,,,,63e60f40643623a5029f1e2b,11:24:51,27/02/2024
html-keyboard-response,164,330202,0.0-68.0-2.0,,,,delaylearn,learning,feedback_duration_window,ZvOQMXn6aIcVcvIN4OGPw5ZSXQm2,ZvOQMXn6aIcVcvIN4OGPw5ZSXQm2,,,,,,,,,,,,,,,,,,7000.0,,,,63e60f40643623a5029f1e2b,11:24:51,27/02/2024
html-keyboard-response,165,331733,0.0-68.0-3.0,,<div style='margin:auto;width: auto; font-size: 150%'><span style='font-weight: bold; font-size: 100px; color: green;'>+10 points!</span><br><br></div>,,delaylearn,learning,feedback_image_window,ZvOQMXn6aIcVcvIN4OGPw5ZSXQm2,ZvOQMXn6aIcVcvIN4OGPw5ZSXQm2,,,,,,,,,,,,,,,,,,,,,,63e60f40643623a5029f1e2b,11:24:51,27/02/2024
html-keyboard-response,166,333731,0.0-69.0,,"<div style=""font-size:100px;"">+</div>",,delaylearn,learning,ITI,ZvOQMXn6aIcVcvIN4OGPw5ZSXQm2,ZvOQMXn6aIcVcvIN4OGPw5ZSXQm2,,,,,,,,,,,,,,,,,,,1975.0,,,63e60f40643623a5029f1e2b,11:24:51,27/02/2024
html-keyboard-response,167,336761,0.0-70.0-0.0,,"<div style=""display: flex; flex-direction: column; align-items: center; margin-top: -40px;""><img src=""images/pattern_3.png"" style=""width: 234px; height: 230px; margin-top: -50px;""><div style=""display: flex; justify-content: space-between; margin-top: 33px;""><img src=""images/choice_trial_6.png"" style=""width: 408px; height: 417px; margin-right: 200px;""><img src=""images/choice_trial_16.png"" style=""width: 408px; height: 417px;""></div></div>",,delaylearn,learning,trial,ZvOQMXn6aIcVcvIN4OGPw5ZSXQm2,ZvOQMXn6aIcVcvIN4OGPw5ZSXQm2,4.0,images/choice_trial_6.png,images/choice_trial_16.png,images/pattern_3.png,j,j,7000.0,6.0,16.0,2.0,1.0,30.0,0.0,0.0,0.0,110.0,,,,,,63e60f40643623a5029f1e2b,11:24:51,27/02/2024
html-keyboard-response,168,337779,0.0-70.0-1.0,,<div style='font-weight: bold; font-size: 75px; color: red;'>Missed Trial <br><br><br><br> Please respond faster</div>,,delaylearn,learning,display_response,ZvOQMXn6aIcVcvIN4OGPw5ZSXQm2,ZvOQMXn6aIcVcvIN4OGPw5ZSXQm2,,,,,,,,,,,,,,,,,Missed trial,,,,,63e60f40643623a5029f1e2b,11:24:51,27/02/2024
html-keyboard-response,169,337795,0.0-70.0-2.0,,,,delaylearn,learning,feedback_duration_window,ZvOQMXn6aIcVcvIN4OGPw5ZSXQm2,ZvOQMXn6aIcVcvIN4OGPw5ZSXQm2,,,,,,,,,,,,,,,,,,0.0,,,,63e60f40643623a5029f1e2b,11:24:51,27/02/2024
html-keyboard-response,170,337823,0.0-70.0-3.0,,,,delaylearn,learning,feedback_image_window,ZvOQMXn6aIcVcvIN4OGPw5ZSXQm2,ZvOQMXn6aIcVcvIN4OGPw5ZSXQm2,,,,,,,,,,,,,,,,,,,,,,63e60f40643623a5029f1e2b,11:24:51,27/02/2024
html-keyboard-response,171,340202,0.0-71.0,,"<div style=""font-size:100px;"">+</div>",,delaylearn,learning,ITI,ZvOQMXn6aIcVcvIN4OGPw5ZSXQm2,ZvOQMXn6aIcVcvIN4OGPw5ZSXQm2,,,,,,,,,,,,,,,,,,,2355.0,,,63e60f40643623a5029f1e2b,11:24:51,27/02/2024
html-keyboard-response,172,340741,0.0-72.0-0.0,532.1999999992549,"<div style=""display: flex; flex-direction: column; align-items: center; margin-top: -40px;""><img src=""images/pattern_5.png"" style=""width: 234px; height: 230px; margin-top: -50px;""><div style=""display: flex; justify-content: space-between; margin-top: 33px;""><img src=""images/choice_trial_5.png"" style=""width: 408px; height: 417px; margin-right: 200px;""><img src=""images/choice_trial_15.png"" style=""width: 408px; height: 417px;""></div></div>",j,delaylearn,learning,trial,ZvOQMXn6aIcVcvIN4OGPw5ZSXQm2,ZvOQMXn6aIcVcvIN4OGPw5ZSXQm2,4.0,images/choice_trial_5.png,images/choice_trial_15.png,images/pattern_5.png,j,f,750.0,5.0,15.0,4.0,0.0,31.0,0.0,1.0,15.0,120.0,,,,,,63e60f40643623a5029f1e2b,11:24:51,27/02/2024
html-keyboard-response,173,341756,0.0-72.0-1.0,,"<div style=""display: flex; flex-direction: column; align-items: center; margin-top: -40px;""><img src=""images/pattern_5.png"" style=""width: 234px; height: 230px; margin-top: -50px;""><div style=""display: flex; justify-content: space-between; margin-top: 33px;""><img src=""images/choice_trial_15.png"" style=""width: 408px; height: 417px; margin-left:608px;""></div></div>",,delaylearn,learning,display_response,ZvOQMXn6aIcVcvIN4OGPw5ZSXQm2,ZvOQMXn6aIcVcvIN4OGPw5ZSXQm2,,,,,,,,,,,,,,,,,chosen stimuli: images/choice_trial_15.png,,,,,63e60f40643623a5029f1e2b,11:24:51,27/02/2024
html-keyboard-response,174,342524,0.0-72.0-2.0,,,,delaylearn,learning,feedback_duration_window,ZvOQMXn6aIcVcvIN4OGPw5ZSXQm2,ZvOQMXn6aIcVcvIN4OGPw5ZSXQm2,,,,,,,,,,,,,,,,,,750.0,,,,63e60f40643623a5029f1e2b,11:24:51,27/02/2024
html-keyboard-response,175,344052,0.0-72.0-3.0,,<div style='margin:auto;width: auto; font-size: 150%'><span style='font-weight: bold; font-size: 100px; color: green;'>+10 points!</span><br><br></div>,,delaylearn,learning,feedback_image_window,ZvOQMXn6aIcVcvIN4OGPw5ZSXQm2,ZvOQMXn6aIcVcvIN4OGPw5ZSXQm2,,,,,,,,,,,,,,,,,,,,,,63e60f40643623a5029f1e2b,11:24:51,27/02/2024
html-keyboard-response,176,345917,0.0-73.0,,"<div style=""font-size:100px;"">+</div>",,delaylearn,learning,ITI,ZvOQMXn6aIcVcvIN4OGPw5ZSXQm2,ZvOQMXn6aIcVcvIN4OGPw5ZSXQm2,,,,,,,,,,,,,,,,,,,1849.0,,,63e60f40643623a5029f1e2b,11:24:51,27/02/2024
html-keyboard-response,177,347733,0.0-74.0-0.0,1801.199999999255,"<div style=""display: flex; flex-direction: column; align-items: center; margin-top: -40px;""><img src=""images/pattern_1.png"" style=""width: 234px; height: 230px; margin-top: -50px;""><div style=""display: flex; justify-content: space-between; margin-top: 33px;""><img src=""images/choice_trial_1.png"" style=""width: 408px; height: 417px; margin-right: 200px;""><img src=""images/choice_trial_9.png"" style=""width: 408px; height: 417px;""></div></div>",f,delaylearn,learning,trial,ZvOQMXn6aIcVcvIN4OGPw5ZSXQm2,ZvOQMXn6aIcVcvIN4OGPw5ZSXQm2,4.0,images/choice_trial_1.png,images/choice_trial_9.png,images/pattern_1.png,f,f,7000.0,1.0,9.0,1.0,0.0,32.0,1.0,1.0,1.0,130.0,,,,,,63e60f40643623a5029f1e2b,11:24:51,27/02/2024
html-keyboard-response,178,348749,0.0-74.0-1.0,,"<div style=""display: flex; flex-direction: column; align-items: center; margin-top: -40px;""><img src=""images/pattern_1.png"" style=""width: 234px; height: 230px; margin-top: -50px;""><div style=""display: flex; justify-content: space-between; margin-top: 33px;""><img src=""images/choice_trial_1.png"" style=""width: 408px; height: 417px; margin-right: 608px;""></div></div>",,delaylearn,learning,display_response,ZvOQMXn6aIcVcvIN4OGPw5ZSXQm2,ZvOQMXn6aIcVcvIN4OGPw5ZSXQm2,,,,,,,,,,,,,,,,,chosen stimuli: images/choice_trial_1.png,,,,,63e60f40643623a5029f1e2b,11:24:51,27/02/2024
html-keyboard-response,179,355761,0.0-74.0-2.0,,,,delaylearn,learning,feedback_duration_window,ZvOQMXn6aIcVcvIN4OGPw5ZSXQm2,ZvOQMXn6aIcVcvIN4OGPw5ZSXQm2,,,,,,,,,,,,,,,,,,7000.0,,,,63e60f40643623a5029f1e2b,11:24:51,27/02/2024
html-keyboard-response,180,357274,0.0-74.0-3.0,,<div style='margin:auto;width: auto; font-size: 150%'><span style='font-weight: bold; font-size: 100px; color: green;'>+10 points!</span><br><br></div>,,delaylearn,learning,feedback_image_window,ZvOQMXn6aIcVcvIN4OGPw5ZSXQm2,ZvOQMXn6aIcVcvIN4OGPw5ZSXQm2,,,,,,,,,,,,,,,,,,,,,,63e60f40643623a5029f1e2b,11:24:51,27/02/2024
html-keyboard-response,181,357787,0.0-75.0-0.0,,,,,,mood_trial_fixation,ZvOQMXn6aIcVcvIN4OGPw5ZSXQm2,,,,,,,,,,,,,,,,,,,,,,,63e60f40643623a5029f1e2b,11:24:51,27/02/2024
lmdlab-html-vas-response,182,363899,0.0-75.0-1.0,5095.0,How happy are you right now?,0.9448984435929606,delaylearn,learning,mood_trial,ZvOQMXn6aIcVcvIN4OGPw5ZSXQm2,ZvOQMXn6aIcVcvIN4OGPw5ZSXQm2,,,,,,,,,,,,,,,,,,,,"['Very unhappy', 'Very happy']",,63e60f40643623a5029f1e2b,11:24:51,27/02/2024
html-keyboard-response,183,365918,0.0-76.0,,"<div style=""font-size:100px;"">+</div>",,delaylearn,learning,ITI,ZvOQMXn6aIcVcvIN4OGPw5ZSXQm2,ZvOQMXn6aIcVcvIN4OGPw5ZSXQm2,,,,,,,,,,,,,,,,,,,2010.0,,,63e60f40643623a5029f1e2b,11:24:51,27/02/2024
html-keyboard-response,184,367264,0.0-77.0-0.0,1332.0,"<div style=""display: flex; flex-direction: column; align-items: center; margin-top: -40px;""><img src=""images/pattern_6.png"" style=""width: 234px; height: 230px; margin-top: -50px;""><div style=""display: flex; justify-content: space-between; margin-top: 33px;""><img src=""images/choice_trial_10.png"" style=""width: 408px; height: 417px; margin-right: 200px;""><img src=""images/choice_trial_3.png"" style=""width: 408px; height: 417px;""></div></div>",f,delaylearn,learning,trial,ZvOQMXn6aIcVcvIN4OGPw5ZSXQm2,ZvOQMXn6aIcVcvIN4OGPw5ZSXQm2,4.0,images/choice_trial_10.png,images/choice_trial_3.png,images/pattern_6.png,j,f,750.0,10.0,3.0,5.0,0.0,33.0,1.0,0.0,10.0,130.0,,,,,,63e60f40643623a5029f1e2b,11:24:51,27/02/2024
html-keyboard-response,185,368294,0.0-77.0-1.0,,"<div style=""display: flex; flex-direction: column; align-items: center; margin-top: -40px;""><img src=""images/pattern_6.png"" style=""width: 234px; height: 230px; margin-top: -50px;""><div style=""display: flex; justify-content: space-between; margin-top: 33px;""><img src=""images/choice_trial_10.png"" style=""width: 408px; height: 417px; margin-right: 608px;""></div></div>",,delaylearn,learning,display_response,ZvOQMXn6aIcVcvIN4OGPw5ZSXQm2,ZvOQMXn6aIcVcvIN4OGPw5ZSXQm2,,,,,,,,,,,,,,,,,chosen stimuli: images/choice_trial_10.png,,,,,63e60f40643623a5029f1e2b,11:24:51,27/02/2024
html-keyboard-response,186,369061,0.0-77.0-2.0,,,,delaylearn,learning,feedback_duration_window,ZvOQMXn6aIcVcvIN4OGPw5ZSXQm2,ZvOQMXn6aIcVcvIN4OGPw5ZSXQm2,,,,,,,,,,,,,,,,,,750.0,,,,63e60f40643623a5029f1e2b,11:24:51,27/02/2024
html-keyboard-response,187,370577,0.0-77.0-3.0,,<div style='margin:auto;width: auto; font-size: 150%'><span style='font-weight: bold; font-size: 100px; color: red;'>0 points!</span><br><br></div>,,delaylearn,learning,feedback_image_window,ZvOQMXn6aIcVcvIN4OGPw5ZSXQm2,ZvOQMXn6aIcVcvIN4OGPw5ZSXQm2,,,,,,,,,,,,,,,,,,,,,,63e60f40643623a5029f1e2b,11:24:51,27/02/2024
html-keyboard-response,188,372377,0.0-78.0,,"<div style=""font-size:100px;"">+</div>",,delaylearn,learning,ITI,ZvOQMXn6aIcVcvIN4OGPw5ZSXQm2,ZvOQMXn6aIcVcvIN4OGPw5ZSXQm2,,,,,,,,,,,,,,,,,,,1764.0,,,63e60f40643623a5029f1e2b,11:24:51,27/02/2024
html-keyboard-response,189,373510,0.0-79.0-0.0,1120.0999999996275,"<div style=""display: flex; flex-direction: column; align-items: center; margin-top: -40px;""><img src=""images/pattern_3.png"" style=""width: 234px; height: 230px; margin-top: -50px;""><div style=""display: flex; justify-content: space-between; margin-top: 33px;""><img src=""images/choice_trial_6.png"" style=""width: 408px; height: 417px; margin-right: 200px;""><img src=""images/choice_trial_16.png"" style=""width: 408px; height: 417px;""></div></div>",f,delaylearn,learning,trial,ZvOQMXn6aIcVcvIN4OGPw5ZSXQm2,ZvOQMXn6aIcVcvIN4OGPw5ZSXQm2,4.0,images/choice_trial_6.png,images/choice_trial_16.png,images/pattern_3.png,j,j,7000.0,6.0,16.0,2.0,1.0,34.0,0.0,0.0,6.0,130.0,,,,,,63e60f40643623a5029f1e2b,11:24:51,27/02/2024
html-keyboard-response,190,374557,0.0-79.0-1.0,,"<div style=""display: flex; flex-direction: column; align-items: center; margin-top: -40px;""><img src=""images/pattern_3.png"" style=""width: 234px; height: 230px; margin-top: -50px;""><div style=""display: flex; justify-content: space-between; margin-top: 33px;""><img src=""images/choice_trial_6.png"" style=""width: 408px; height: 417px; margin-right: 608px;""></div></div>",,delaylearn,learning,display_response,ZvOQMXn6aIcVcvIN4OGPw5ZSXQm2,ZvOQMXn6aIcVcvIN4OGPw5ZSXQm2,,,,,,,,,,,,,,,,,chosen stimuli: images/choice_trial_6.png,,,,,63e60f40643623a5029f1e2b,11:24:51,27/02/2024
html-keyboard-response,191,381584,0.0-79.0-2.0,,,,delaylearn,learning,feedback_duration_window,ZvOQMXn6aIcVcvIN4OGPw5ZSXQm2,ZvOQMXn6aIcVcvIN4OGPw5ZSXQm2,,,,,,,,,,,,,,,,,,7000.0,,,,63e60f40643623a5029f1e2b,11:24:51,27/02/2024
html-keyboard-response,192,383104,0.0-79.0-3.0,,<div style='margin:auto;width: auto; font-size: 150%'><span style='font-weight: bold; font-size: 100px; color: red;'>0 points!</span><br><br></div>,,delaylearn,learning,feedback_image_window,ZvOQMXn6aIcVcvIN4OGPw5ZSXQm2,ZvOQMXn6aIcVcvIN4OGPw5ZSXQm2,,,,,,,,,,,,,,,,,,,,,,63e60f40643623a5029f1e2b,11:24:51,27/02/2024
html-keyboard-response,193,384960,0.0-80.0,,"<div style=""font-size:100px;"">+</div>",,delaylearn,learning,ITI,ZvOQMXn6aIcVcvIN4OGPw5ZSXQm2,ZvOQMXn6aIcVcvIN4OGPw5ZSXQm2,,,,,,,,,,,,,,,,,,,1815.0,,,63e60f40643623a5029f1e2b,11:24:51,27/02/2024
html-keyboard-response,194,387982,0.0-81.0-0.0,,"<div style=""display: flex; flex-direction: column; align-items: center; margin-top: -40px;""><img src=""images/pattern_4.png"" style=""width: 234px; height: 230px; margin-top: -50px;""><div style=""display: flex; justify-content: space-between; margin-top: 33px;""><img src=""images/choice_trial_7.png"" style=""width: 408px; height: 417px; margin-right: 200px;""><img src=""images/choice_trial_8.png"" style=""width: 408px; height: 417px;""></div></div>",,delaylearn,learning,trial,ZvOQMXn6aIcVcvIN4OGPw5ZSXQm2,ZvOQMXn6aIcVcvIN4OGPw5ZSXQm2,4.0,images/choice_trial_7.png,images/choice_trial_8.png,images/pattern_4.png,f,j,7000.0,7.0,8.0,3.0,1.0,35.0,0.0,0.0,0.0,130.0,,,,,,63e60f40643623a5029f1e2b,11:24:51,27/02/2024
html-keyboard-response,195,388995,0.0-81.0-1.0,,<div style='font-weight: bold; font-size: 75px; color: red;'>Missed Trial <br><br><br><br> Please respond faster</div>,,delaylearn,learning,display_response,ZvOQMXn6aIcVcvIN4OGPw5ZSXQm2,ZvOQMXn6aIcVcvIN4OGPw5ZSXQm2,,,,,,,,,,,,,,,,,Missed trial,,,,,63e60f40643623a5029f1e2b,11:24:51,27/02/2024
html-keyboard-response,196,389014,0.0-81.0-2.0,,,,delaylearn,learning,feedback_duration_window,ZvOQMXn6aIcVcvIN4OGPw5ZSXQm2,ZvOQMXn6aIcVcvIN4OGPw5ZSXQm2,,,,,,,,,,,,,,,,,,0.0,,,,63e60f40643623a5029f1e2b,11:24:51,27/02/2024
html-keyboard-response,197,389030,0.0-81.0-3.0,,,,delaylearn,learning,feedback_image_window,ZvOQMXn6aIcVcvIN4OGPw5ZSXQm2,ZvOQMXn6aIcVcvIN4OGPw5ZSXQm2,,,,,,,,,,,,,,,,,,,,,,63e60f40643623a5029f1e2b,11:24:51,27/02/2024
html-keyboard-response,198,390878,0.0-82.0,,"<div style=""font-size:100px;"">+</div>",,delaylearn,learning,ITI,ZvOQMXn6aIcVcvIN4OGPw5ZSXQm2,ZvOQMXn6aIcVcvIN4OGPw5ZSXQm2,,,,,,,,,,,,,,,,,,,1834.0,,,63e60f40643623a5029f1e2b,11:24:51,27/02/2024
html-keyboard-response,199,391427,0.0-83.0-0.0,530.6000000005588,"<div style=""display: flex; flex-direction: column; align-items: center; margin-top: -40px;""><img src=""images/pattern_7.png"" style=""width: 234px; height: 230px; margin-top: -50px;""><div style=""display: flex; justify-content: space-between; margin-top: 33px;""><img src=""images/choice_trial_13.png"" style=""width: 408px; height: 417px; margin-right: 200px;""><img src=""images/choice_trial_4.png"" style=""width: 408px; height: 417px;""></div></div>",j,delaylearn,learning,trial,ZvOQMXn6aIcVcvIN4OGPw5ZSXQm2,ZvOQMXn6aIcVcvIN4OGPw5ZSXQm2,4.0,images/choice_trial_13.png,images/choice_trial_4.png,images/pattern_7.png,f,f,750.0,13.0,4.0,6.0,0.0,36.0,0.0,0.0,4.0,130.0,,,,,,63e60f40643623a5029f1e2b,11:24:51,27/02/2024
html-keyboard-response,200,392443,0.0-83.0-1.0,,"<div style=""display: flex; flex-direction: column; align-items: center; margin-top: -40px;""><img src=""images/pattern_7.png"" style=""width: 234px; height: 230px; margin-top: -50px;""><div style=""display: flex; justify-content: space-between; margin-top: 33px;""><img src=""images/choice_trial_4.png"" style=""width: 408px; height: 417px; margin-left:608px;""></div></div>",,delaylearn,learning,display_response,ZvOQMXn6aIcVcvIN4OGPw5ZSXQm2,ZvOQMXn6aIcVcvIN4OGPw5ZSXQm2,,,,,,,,,,,,,,,,,chosen stimuli: images/choice_trial_4.png,,,,,63e60f40643623a5029f1e2b,11:24:51,27/02/2024
html-keyboard-response,201,393208,0.0-83.0-2.0,,,,delaylearn,learning,feedback_duration_window,ZvOQMXn6aIcVcvIN4OGPw5ZSXQm2,ZvOQMXn6aIcVcvIN4OGPw5ZSXQm2,,,,,,,,,,,,,,,,,,750.0,,,,63e60f40643623a5029f1e2b,11:24:51,27/02/2024
html-keyboard-response,202,394724,0.0-83.0-3.0,,<div style='margin:auto;width: auto; font-size: 150%'><span style='font-weight: bold; font-size: 100px; color: red;'>0 points!</span><br><br></div>,,delaylearn,learning,feedback_image_window,ZvOQMXn6aIcVcvIN4OGPw5ZSXQm2,ZvOQMXn6aIcVcvIN4OGPw5ZSXQm2,,,,,,,,,,,,,,,,,,,,,,63e60f40643623a5029f1e2b,11:24:51,27/02/2024
html-keyboard-response,203,396524,0.0-84.0,,"<div style=""font-size:100px;"">+</div>",,delaylearn,learning,ITI,ZvOQMXn6aIcVcvIN4OGPw5ZSXQm2,ZvOQMXn6aIcVcvIN4OGPw5ZSXQm2,,,,,,,,,,,,,,,,,,,1791.0,,,63e60f40643623a5029f1e2b,11:24:51,27/02/2024
html-keyboard-response,204,397288,0.0-85.0-0.0,748.3999999994412,"<div style=""display: flex; flex-direction: column; align-items: center; margin-top: -40px;""><img src=""images/pattern_1.png"" style=""width: 234px; height: 230px; margin-top: -50px;""><div style=""display: flex; justify-content: space-between; margin-top: 33px;""><img src=""images/choice_trial_1.png"" style=""width: 408px; height: 417px; margin-right: 200px;""><img src=""images/choice_trial_9.png"" style=""width: 408px; height: 417px;""></div></div>",j,delaylearn,learning,trial,ZvOQMXn6aIcVcvIN4OGPw5ZSXQm2,ZvOQMXn6aIcVcvIN4OGPw5ZSXQm2,4.0,images/choice_trial_1.png,images/choice_trial_9.png,images/pattern_1.png,f,f,7000.0,1.0,9.0,1.0,0.0,37.0,0.0,0.0,9.0,130.0,,,,,,63e60f40643623a5029f1e2b,11:24:51,27/02/2024
html-keyboard-response,205,398305,0.0-85.0-1.0,,"<div style=""display: flex; flex-direction: column; align-items: center; margin-top: -40px;""><img src=""images/pattern_1.png"" style=""width: 234px; height: 230px; margin-top: -50px;""><div style=""display: flex; justify-content: space-between; margin-top: 33px;""><img src=""images/choice_trial_9.png"" style=""width: 408px; height: 417px; margin-left:608px;""></div></div>",,delaylearn,learning,display_response,ZvOQMXn6aIcVcvIN4OGPw5ZSXQm2,ZvOQMXn6aIcVcvIN4OGPw5ZSXQm2,,,,,,,,,,,,,,,,,chosen stimuli: images/choice_trial_9.png,,,,,63e60f40643623a5029f1e2b,11:24:51,27/02/2024
html-keyboard-response,206,405329,0.0-85.0-2.0,,,,delaylearn,learning,feedback_duration_window,ZvOQMXn6aIcVcvIN4OGPw5ZSXQm2,ZvOQMXn6aIcVcvIN4OGPw5ZSXQm2,,,,,,,,,,,,,,,,,,7000.0,,,,63e60f40643623a5029f1e2b,11:24:51,27/02/2024
html-keyboard-response,207,406846,0.0-85.0-3.0,,<div style='margin:auto;width: auto; font-size: 150%'><span style='font-weight: bold; font-size: 100px; color: red;'>0 points!</span><br><br></div>,,delaylearn,learning,feedback_image_window,ZvOQMXn6aIcVcvIN4OGPw5ZSXQm2,ZvOQMXn6aIcVcvIN4OGPw5ZSXQm2,,,,,,,,,,,,,,,,,,,,,,63e60f40643623a5029f1e2b,11:24:51,27/02/2024
html-keyboard-response,208,407360,0.0-86.0-0.0,,,,,,mood_trial_fixation,ZvOQMXn6aIcVcvIN4OGPw5ZSXQm2,,,,,,,,,,,,,,,,,,,,,,,63e60f40643623a5029f1e2b,11:24:51,27/02/2024
lmdlab-html-vas-response,209,413119,0.0-86.0-1.0,4721.0,How happy are you right now?,0.4587840358075345,delaylearn,learning,mood_trial,ZvOQMXn6aIcVcvIN4OGPw5ZSXQm2,ZvOQMXn6aIcVcvIN4OGPw5ZSXQm2,,,,,,,,,,,,,,,,,,,,"['Very unhappy', 'Very happy']",,63e60f40643623a5029f1e2b,11:24:51,27/02/2024
html-keyboard-response,210,415629,0.0-87.0,,"<div style=""font-size:100px;"">+</div>",,delaylearn,learning,ITI,ZvOQMXn6aIcVcvIN4OGPw5ZSXQm2,ZvOQMXn6aIcVcvIN4OGPw5ZSXQm2,,,,,,,,,,,,,,,,,,,2483.0,,,63e60f40643623a5029f1e2b,11:24:51,27/02/2024
html-keyboard-response,211,416282,0.0-88.0-0.0,647.6000000005588,"<div style=""display: flex; flex-direction: column; align-items: center; margin-top: -40px;""><img src=""images/pattern_3.png"" style=""width: 234px; height: 230px; margin-top: -50px;""><div style=""display: flex; justify-content: space-between; margin-top: 33px;""><img src=""images/choice_trial_16.png"" style=""width: 408px; height: 417px; margin-right: 200px;""><img src=""images/choice_trial_6.png"" style=""width: 408px; height: 417px;""></div></div>",f,delaylearn,learning,trial,ZvOQMXn6aIcVcvIN4OGPw5ZSXQm2,ZvOQMXn6aIcVcvIN4OGPw5ZSXQm2,4.0,images/choice_trial_16.png,images/choice_trial_6.png,images/pattern_3.png,j,f,7000.0,16.0,6.0,2.0,0.0,38.0,1.0,0.0,16.0,130.0,,,,,,63e60f40643623a5029f1e2b,11:24:51,27/02/2024
html-keyboard-response,212,417361,0.0-88.0-1.0,,"<div style=""display: flex; flex-direction: column; align-items: center; margin-top: -40px;""><img src=""images/pattern_3.png"" style=""width: 234px; height: 230px; margin-top: -50px;""><div style=""display: flex; justify-content: space-between; margin-top: 33px;""><img src=""images/choice_trial_16.png"" style=""width: 408px; height: 417px; margin-right: 608px;""></div></div>",,delaylearn,learning,display_response,ZvOQMXn6aIcVcvIN4OGPw5ZSXQm2,ZvOQMXn6aIcVcvIN4OGPw5ZSXQm2,,,,,,,,,,,,,,,,,chosen stimuli: images/choice_trial_16.png,,,,,63e60f40643623a5029f1e2b,11:24:51,27/02/2024
html-keyboard-response,213,424379,0.0-88.0-2.0,,,,delaylearn,learning,feedback_duration_window,ZvOQMXn6aIcVcvIN4OGPw5ZSXQm2,ZvOQMXn6aIcVcvIN4OGPw5ZSXQm2,,,,,,,,,,,,,,,,,,7000.0,,,,63e60f40643623a5029f1e2b,11:24:51,27/02/2024
html-keyboard-response,214,425892,0.0-88.0-3.0,,<div style='margin:auto;width: auto; font-size: 150%'><span style='font-weight: bold; font-size: 100px; color: red;'>0 points!</span><br><br></div>,,delaylearn,learning,feedback_image_window,ZvOQMXn6aIcVcvIN4OGPw5ZSXQm2,ZvOQMXn6aIcVcvIN4OGPw5ZSXQm2,,,,,,,,,,,,,,,,,,,,,,63e60f40643623a5029f1e2b,11:24:51,27/02/2024
html-keyboard-response,215,427560,0.0-89.0,,"<div style=""font-size:100px;"">+</div>",,delaylearn,learning,ITI,ZvOQMXn6aIcVcvIN4OGPw5ZSXQm2,ZvOQMXn6aIcVcvIN4OGPw5ZSXQm2,,,,,,,,,,,,,,,,,,,1666.0,,,63e60f40643623a5029f1e2b,11:24:51,27/02/2024
html-keyboard-response,216,428509,0.0-90.0-0.0,915.3999999994412,"<div style=""display: flex; flex-direction: column; align-items: center; margin-top: -40px;""><img src=""images/pattern_7.png"" style=""width: 234px; height: 230px; margin-top: -50px;""><div style=""display: flex; justify-content: space-between; margin-top: 33px;""><img src=""images/choice_trial_4.png"" style=""width: 408px; height: 417px; margin-right: 200px;""><img src=""images/choice_trial_13.png"" style=""width: 408px; height: 417px;""></div></div>",j,delaylearn,learning,trial,ZvOQMXn6aIcVcvIN4OGPw5ZSXQm2,ZvOQMXn6aIcVcvIN4OGPw5ZSXQm2,4.0,images/choice_trial_4.png,images/choice_trial_13.png,images/pattern_7.png,j,j,750.0,4.0,13.0,6.0,1.0,39.0,1.0,1.0,13.0,140.0,,,,,,63e60f40643623a5029f1e2b,11:24:51,27/02/2024
html-keyboard-response,217,429524,0.0-90.0-1.0,,"<div style=""display: flex; flex-direction: column; align-items: center; margin-top: -40px;""><img src=""images/pattern_7.png"" style=""width: 234px; height: 230px; margin-top: -50px;""><div style=""display: flex; justify-content: space-between; margin-top: 33px;""><img src=""images/choice_trial_13.png"" style=""width: 408px; height: 417px; margin-left:608px;""></div></div>",,delaylearn,learning,display_response,ZvOQMXn6aIcVcvIN4OGPw5ZSXQm2,ZvOQMXn6aIcVcvIN4OGPw5ZSXQm2,,,,,,,,,,,,,,,,,chosen stimuli: images/choice_trial_13.png,,,,,63e60f40643623a5029f1e2b,11:24:51,27/02/2024
html-keyboard-response,218,430303,0.0-90.0-2.0,,,,delaylearn,learning,feedback_duration_window,ZvOQMXn6aIcVcvIN4OGPw5ZSXQm2,ZvOQMXn6aIcVcvIN4OGPw5ZSXQm2,,,,,,,,,,,,,,,,,,750.0,,,,63e60f40643623a5029f1e2b,11:24:51,27/02/2024
html-keyboard-response,219,431821,0.0-90.0-3.0,,<div style='margin:auto;width: auto; font-size: 150%'><span style='font-weight: bold; font-size: 100px; color: green;'>+10 points!</span><br><br></div>,,delaylearn,learning,feedback_image_window,ZvOQMXn6aIcVcvIN4OGPw5ZSXQm2,ZvOQMXn6aIcVcvIN4OGPw5ZSXQm2,,,,,,,,,,,,,,,,,,,,,,63e60f40643623a5029f1e2b,11:24:51,27/02/2024
html-keyboard-response,220,434220,0.0-91.0,,"<div style=""font-size:100px;"">+</div>",,delaylearn,learning,ITI,ZvOQMXn6aIcVcvIN4OGPw5ZSXQm2,ZvOQMXn6aIcVcvIN4OGPw5ZSXQm2,,,,,,,,,,,,,,,,,,,2384.0,,,63e60f40643623a5029f1e2b,11:24:51,27/02/2024
html-keyboard-response,221,437250,0.0-92.0-0.0,,"<div style=""display: flex; flex-direction: column; align-items: center; margin-top: -40px;""><img src=""images/pattern_5.png"" style=""width: 234px; height: 230px; margin-top: -50px;""><div style=""display: flex; justify-content: space-between; margin-top: 33px;""><img src=""images/choice_trial_15.png"" style=""width: 408px; height: 417px; margin-right: 200px;""><img src=""images/choice_trial_5.png"" style=""width: 408px; height: 417px;""></div></div>",,delaylearn,learning,trial,ZvOQMXn6aIcVcvIN4OGPw5ZSXQm2,ZvOQMXn6aIcVcvIN4OGPw5ZSXQm2,4.0,images/choice_trial_15.png,images/choice_trial_5.png,images/pattern_5.png,j,j,750.0,15.0,5.0,4.0,1.0,40.0,0.0,0.0,0.0,140.0,,,,,,63e60f40643623a5029f1e2b,11:24:51,27/02/2024
html-keyboard-response,222,438257,0.0-92.0-1.0,,<div style='font-weight: bold; font-size: 75px; color: red;'>Missed Trial <br><br><br><br> Please respond faster</div>,,delaylearn,learning,display_response,ZvOQMXn6aIcVcvIN4OGPw5ZSXQm2,ZvOQMXn6aIcVcvIN4OGPw5ZSXQm2,,,,,,,,,,,,,,,,,Missed trial,,,,,63e60f40643623a5029f1e2b,11:24:51,27/02/2024
html-keyboard-response,223,438264,0.0-92.0-2.0,,,,delaylearn,learning,feedback_duration_window,ZvOQMXn6aIcVcvIN4OGPw5ZSXQm2,ZvOQMXn6aIcVcvIN4OGPw5ZSXQm2,,,,,,,,,,,,,,,,,,0.0,,,,63e60f40643623a5029f1e2b,11:24:51,27/02/2024
html-keyboard-response,224,438272,0.0-92.0-3.0,,,,delaylearn,learning,feedback_image_window,ZvOQMXn6aIcVcvIN4OGPw5ZSXQm2,ZvOQMXn6aIcVcvIN4OGPw5ZSXQm2,,,,,,,,,,,,,,,,,,,,,,63e60f40643623a5029f1e2b,11:24:51,27/02/2024
html-keyboard-response,225,438780,0.0-93.0-0.0,,,,,,mood_trial_fixation,ZvOQMXn6aIcVcvIN4OGPw5ZSXQm2,,,,,,,,,,,,,,,,,,,,,,,63e60f40643623a5029f1e2b,11:24:51,27/02/2024
lmdlab-html-vas-response,226,443583,0.0-93.0-1.0,3778.0,How happy are you right now?,0.32423451222406835,delaylearn,learning,mood_trial,ZvOQMXn6aIcVcvIN4OGPw5ZSXQm2,ZvOQMXn6aIcVcvIN4OGPw5ZSXQm2,,,,,,,,,,,,,,,,,,,,"['Very unhappy', 'Very happy']",,63e60f40643623a5029f1e2b,11:24:51,27/02/2024
html-keyboard-response,227,445692,0.0-94.0,,"<div style=""font-size:100px;"">+</div>",,delaylearn,learning,ITI,ZvOQMXn6aIcVcvIN4OGPw5ZSXQm2,ZvOQMXn6aIcVcvIN4OGPw5ZSXQm2,,,,,,,,,,,,,,,,,,,2080.0,,,63e60f40643623a5029f1e2b,11:24:51,27/02/2024
html-keyboard-response,228,448722,0.0-95.0-0.0,,"<div style=""display: flex; flex-direction: column; align-items: center; margin-top: -40px;""><img src=""images/pattern_4.png"" style=""width: 234px; height: 230px; margin-top: -50px;""><div style=""display: flex; justify-content: space-between; margin-top: 33px;""><img src=""images/choice_trial_8.png"" style=""width: 408px; height: 417px; margin-right: 200px;""><img src=""images/choice_trial_7.png"" style=""width: 408px; height: 417px;""></div></div>",,delaylearn,learning,trial,ZvOQMXn6aIcVcvIN4OGPw5ZSXQm2,ZvOQMXn6aIcVcvIN4OGPw5ZSXQm2,4.0,images/choice_trial_8.png,images/choice_trial_7.png,images/pattern_4.png,f,f,7000.0,8.0,7.0,3.0,0.0,41.0,0.0,0.0,0.0,140.0,,,,,,63e60f40643623a5029f1e2b,11:24:51,27/02/2024
html-keyboard-response,229,449796,0.0-95.0-1.0,,<div style='font-weight: bold; font-size: 75px; color: red;'>Missed Trial <br><br><br><br> Please respond faster</div>,,delaylearn,learning,display_response,ZvOQMXn6aIcVcvIN4OGPw5ZSXQm2,ZvOQMXn6aIcVcvIN4OGPw5ZSXQm2,,,,,,,,,,,,,,,,,Missed trial,,,,,63e60f40643623a5029f1e2b,11:24:51,27/02/2024
html-keyboard-response,230,449803,0.0-95.0-2.0,,,,delaylearn,learning,feedback_duration_window,ZvOQMXn6aIcVcvIN4OGPw5ZSXQm2,ZvOQMXn6aIcVcvIN4OGPw5ZSXQm2,,,,,,,,,,,,,,,,,,0.0,,,,63e60f40643623a5029f1e2b,11:24:51,27/02/2024
html-keyboard-response,231,449812,0.0-95.0-3.0,,,,delaylearn,learning,feedback_image_window,ZvOQMXn6aIcVcvIN4OGPw5ZSXQm2,ZvOQMXn6aIcVcvIN4OGPw5ZSXQm2,,,,,,,,,,,,,,,,,,,,,,63e60f40643623a5029f1e2b,11:24:51,27/02/2024
html-keyboard-response,232,451885,0.0-96.0,,"<div style=""font-size:100px;"">+</div>",,delaylearn,learning,ITI,ZvOQMXn6aIcVcvIN4OGPw5ZSXQm2,ZvOQMXn6aIcVcvIN4OGPw5ZSXQm2,,,,,,,,,,,,,,,,,,,2006.0,,,63e60f40643623a5029f1e2b,11:24:51,27/02/2024
html-keyboard-response,233,453297,0.0-97.0-0.0,1399.5,"<div style=""display: flex; flex-direction: column; align-items: center; margin-top: -40px;""><img src=""images/pattern_6.png"" style=""width: 234px; height: 230px; margin-top: -50px;""><div style=""display: flex; justify-content: space-between; margin-top: 33px;""><img src=""images/choice_trial_3.png"" style=""width: 408px; height: 417px; margin-right: 200px;""><img src=""images/choice_trial_10.png"" style=""width: 408px; height: 417px;""></div></div>",j,delaylearn,learning,trial,ZvOQMXn6aIcVcvIN4OGPw5ZSXQm2,ZvOQMXn6aIcVcvIN4OGPw5ZSXQm2,4.0,images/choice_trial_3.png,images/choice_trial_10.png,images/pattern_6.png,j,j,750.0,3.0,10.0,5.0,1.0,42.0,1.0,1.0,10.0,150.0,,,,,,63e60f40643623a5029f1e2b,11:24:51,27/02/2024
html-keyboard-response,234,454318,0.0-97.0-1.0,,"<div style=""display: flex; flex-direction: column; align-items: center; margin-top: -40px;""><img src=""images/pattern_6.png"" style=""width: 234px; height: 230px; margin-top: -50px;""><div style=""display: flex; justify-content: space-between; margin-top: 33px;""><img src=""images/choice_trial_10.png"" style=""width: 408px; height: 417px; margin-left:608px;""></div></div>",,delaylearn,learning,display_response,ZvOQMXn6aIcVcvIN4OGPw5ZSXQm2,ZvOQMXn6aIcVcvIN4OGPw5ZSXQm2,,,,,,,,,,,,,,,,,chosen stimuli: images/choice_trial_10.png,,,,,63e60f40643623a5029f1e2b,11:24:51,27/02/2024
html-keyboard-response,235,455147,0.0-97.0-2.0,,,,delaylearn,learning,feedback_duration_window,ZvOQMXn6aIcVcvIN4OGPw5ZSXQm2,ZvOQMXn6aIcVcvIN4OGPw5ZSXQm2,,,,,,,,,,,,,,,,,,750.0,,,,63e60f40643623a5029f1e2b,11:24:51,27/02/2024
html-keyboard-response,236,456653,0.0-97.0-3.0,,<div style='margin:auto;width: auto; font-size: 150%'><span style='font-weight: bold; font-size: 100px; color: green;'>+10 points!</span><br><br></div>,,delaylearn,learning,feedback_image_window,ZvOQMXn6aIcVcvIN4OGPw5ZSXQm2,ZvOQMXn6aIcVcvIN4OGPw5ZSXQm2,,,,,,,,,,,,,,,,,,,,,,63e60f40643623a5029f1e2b,11:24:51,27/02/2024
html-keyboard-response,237,458391,0.0-98.0,,"<div style=""font-size:100px;"">+</div>",,delaylearn,learning,ITI,ZvOQMXn6aIcVcvIN4OGPw5ZSXQm2,ZvOQMXn6aIcVcvIN4OGPw5ZSXQm2,,,,,,,,,,,,,,,,,,,1722.0,,,63e60f40643623a5029f1e2b,11:24:51,27/02/2024
html-keyboard-response,238,460058,0.0-99.0-0.0,1664.7000000001863,"<div style=""display: flex; flex-direction: column; align-items: center; margin-top: -40px;""><img src=""images/pattern_1.png"" style=""width: 234px; height: 230px; margin-top: -50px;""><div style=""display: flex; justify-content: space-between; margin-top: 33px;""><img src=""images/choice_trial_9.png"" style=""width: 408px; height: 417px; margin-right: 200px;""><img src=""images/choice_trial_1.png"" style=""width: 408px; height: 417px;""></div></div>",f,delaylearn,learning,trial,ZvOQMXn6aIcVcvIN4OGPw5ZSXQm2,ZvOQMXn6aIcVcvIN4OGPw5ZSXQm2,4.0,images/choice_trial_9.png,images/choice_trial_1.png,images/pattern_1.png,j,j,7000.0,9.0,1.0,1.0,1.0,43.0,0.0,0.0,9.0,150.0,,,,,,63e60f40643623a5029f1e2b,11:24:51,27/02/2024
html-keyboard-response,239,461070,0.0-99.0-1.0,,"<div style=""display: flex; flex-direction: column; align-items: center; margin-top: -40px;""><img src=""images/pattern_1.png"" style=""width: 234px; height: 230px; margin-top: -50px;""><div style=""display: flex; justify-content: space-between; margin-top: 33px;""><img src=""images/choice_trial_9.png"" style=""width: 408px; height: 417px; margin-right: 608px;""></div></div>",,delaylearn,learning,display_response,ZvOQMXn6aIcVcvIN4OGPw5ZSXQm2,ZvOQMXn6aIcVcvIN4OGPw5ZSXQm2,,,,,,,,,,,,,,,,,chosen stimuli: images/choice_trial_9.png,,,,,63e60f40643623a5029f1e2b,11:24:51,27/02/2024
html-keyboard-response,240,468086,0.0-99.0-2.0,,,,delaylearn,learning,feedback_duration_window,ZvOQMXn6aIcVcvIN4OGPw5ZSXQm2,ZvOQMXn6aIcVcvIN4OGPw5ZSXQm2,,,,,,,,,,,,,,,,,,7000.0,,,,63e60f40643623a5029f1e2b,11:24:51,27/02/2024
html-keyboard-response,241,469613,0.0-99.0-3.0,,<div style='margin:auto;width: auto; font-size: 150%'><span style='font-weight: bold; font-size: 100px; color: red;'>0 points!</span><br><br></div>,,delaylearn,learning,feedback_image_window,ZvOQMXn6aIcVcvIN4OGPw5ZSXQm2,ZvOQMXn6aIcVcvIN4OGPw5ZSXQm2,,,,,,,,,,,,,,,,,,,,,,63e60f40643623a5029f1e2b,11:24:51,27/02/2024
html-keyboard-response,242,471449,0.0-100.0,,"<div style=""font-size:100px;"">+</div>",,delaylearn,learning,ITI,ZvOQMXn6aIcVcvIN4OGPw5ZSXQm2,ZvOQMXn6aIcVcvIN4OGPw5ZSXQm2,,,,,,,,,,,,,,,,,,,1828.0,,,63e60f40643623a5029f1e2b,11:24:51,27/02/2024
html-keyboard-response,243,472027,0.0-101.0-0.0,563.0,"<div style=""display: flex; flex-direction: column; align-items: center; margin-top: -40px;""><img src=""images/pattern_7.png"" style=""width: 234px; height: 230px; margin-top: -50px;""><div style=""display: flex; justify-content: space-between; margin-top: 33px;""><img src=""images/choice_trial_4.png"" style=""width: 408px; height: 417px; margin-right: 200px;""><img src=""images/choice_trial_13.png"" style=""width: 408px; height: 417px;""></div></div>",j,delaylearn,learning,trial,ZvOQMXn6aIcVcvIN4OGPw5ZSXQm2,ZvOQMXn6aIcVcvIN4OGPw5ZSXQm2,4.0,images/choice_trial_4.png,images/choice_trial_13.png,images/pattern_7.png,f,j,750.0,4.0,13.0,6.0,1.0,44.0,1.0,0.0,13.0,150.0,,,,,,63e60f40643623a5029f1e2b,11:24:51,27/02/2024
html-keyboard-response,244,473043,0.0-101.0-1.0,,"<div style=""display: flex; flex-direction: column; align-items: center; margin-top: -40px;""><img src=""images/pattern_7.png"" style=""width: 234px; height: 230px; margin-top: -50px;""><div style=""display: flex; justify-content: space-between; margin-top: 33px;""><img src=""images/choice_trial_13.png"" style=""width: 408px; height: 417px; margin-left:608px;""></div></div>",,delaylearn,learning,display_response,ZvOQMXn6aIcVcvIN4OGPw5ZSXQm2,ZvOQMXn6aIcVcvIN4OGPw5ZSXQm2,,,,,,,,,,,,,,,,,chosen stimuli: images/choice_trial_13.png,,,,,63e60f40643623a5029f1e2b,11:24:51,27/02/2024
html-keyboard-response,245,473811,0.0-101.0-2.0,,,,delaylearn,learning,feedback_duration_window,ZvOQMXn6aIcVcvIN4OGPw5ZSXQm2,ZvOQMXn6aIcVcvIN4OGPw5ZSXQm2,,,,,,,,,,,,,,,,,,750.0,,,,63e60f40643623a5029f1e2b,11:24:51,27/02/2024
html-keyboard-response,246,475327,0.0-101.0-3.0,,<div style='margin:auto;width: auto; font-size: 150%'><span style='font-weight: bold; font-size: 100px; color: red;'>0 points!</span><br><br></div>,,delaylearn,learning,feedback_image_window,ZvOQMXn6aIcVcvIN4OGPw5ZSXQm2,ZvOQMXn6aIcVcvIN4OGPw5ZSXQm2,,,,,,,,,,,,,,,,,,,,,,63e60f40643623a5029f1e2b,11:24:51,27/02/2024
html-keyboard-response,247,475845,0.0-102.0-0.0,,,,,,mood_trial_fixation,ZvOQMXn6aIcVcvIN4OGPw5ZSXQm2,,,,,,,,,,,,,,,,,,,,,,,63e60f40643623a5029f1e2b,11:24:51,27/02/2024
