trial_type,trial_index,time_elapsed,internal_node_id,rt,stimulus,response,exp_name,exp_stage,test_part,subjectID,databaseID,counterbal,choice_stimuli_1,choice_stimuli_2,pattern_stimuli,rewarded_answer,correct_answer,feedback_duration_times,stim_left,stim_right,pair,leftright_counter,trial,response_correct,response_rewarded,chosen_stim,counter,displayed_choice,feedback_durations,ITI_duration,labels,rest_warning,prolificID,start_time,date
pavlovia,0,545,0.0-0.0,,,,,,,L5BiWRTWwlN5aqUcwJ2fULyUCly2,,,,,,,,,,,,,,,,,,,,,,,5aeabf2c15a9c300011acbc3,09:07:04,27/02/2024
html-keyboard-response,1,3555,0.0-1.0,,"<div style=""font-size:100px;"">+</div>",,delaylearn,learning,pre_fixation,L5BiWRTWwlN5aqUcwJ2fULyUCly2,,,,,,,,,,,,,,,,,,,,,,,5aeabf2c15a9c300011acbc3,09:07:04,27/02/2024
html-keyboard-response,2,5293,0.0-2.0-0.0,1735.300000011921,"<div style=""display: flex; flex-direction: column; align-items: center; margin-top: -40px;""><img src=""images/demo_images/pattern_1.png"" style=""width: 234px; height: 230px; margin-top: -50px;""><div style=""display: flex; justify-content: space-between; margin-top: 33px;""><img src=""images/demo_images/choice_trial_2.png"" style=""width: 408px; height: 417px; margin-right: 200px;""><img src=""images/demo_images/choice_trial_1.png"" style=""width: 408px; height: 417px;""></div></div>",f,delaylearn,learning,trial,L5BiWRTWwlN5aqUcwJ2fULyUCly2,L5BiWRTWwlN5aqUcwJ2fULyUCly2,2.0,images/demo_images/choice_trial_2.png,images/demo_images/choice_trial_1.png,images/demo_images/pattern_1.png,j,j,3000.0,2.0,1.0,20.0,1.0,1.0,0.0,0.0,2.0,0.0,,,,,,5aeabf2c15a9c300011acbc3,09:07:04,27/02/2024
html-keyboard-response,3,6304,0.0-2.0-1.0,,"<div style=""display: flex; flex-direction: column; align-items: center; margin-top: -40px;""><img src=""images/demo_images/pattern_1.png"" style=""width: 234px; height: 230px; margin-top: -50px;""><div style=""display: flex; justify-content: space-between; margin-top: 33px;""><img src=""images/demo_images/choice_trial_2.png"" style=""width: 408px; height: 417px; margin-right: 608px;""></div></div>",,delaylearn,learning,display_response,L5BiWRTWwlN5aqUcwJ2fULyUCly2,L5BiWRTWwlN5aqUcwJ2fULyUCly2,,,,,,,,,,,,,,,,,chosen stimuli: images/demo_images/choice_trial_2.png,,,,,5aeabf2c15a9c300011acbc3,09:07:04,27/02/2024
html-keyboard-response,4,9309,0.0-2.0-2.0,,,,delaylearn,learning,feedback_duration_window,L5BiWRTWwlN5aqUcwJ2fULyUCly2,L5BiWRTWwlN5aqUcwJ2fULyUCly2,,,,,,,,,,,,,,,,,,3000.0,,,,5aeabf2c15a9c300011acbc3,09:07:04,27/02/2024
html-keyboard-response,5,10816,0.0-2.0-3.0,,<div style='margin:auto;width: auto; font-size: 150%'><span style='font-weight: bold; font-size: 100px; color: red;'>0 points!</span><br><br></div>,,delaylearn,learning,feedback_image_window,L5BiWRTWwlN5aqUcwJ2fULyUCly2,L5BiWRTWwlN5aqUcwJ2fULyUCly2,,,,,,,,,,,,,,,,,,,,,,5aeabf2c15a9c300011acbc3,09:07:04,27/02/2024
html-keyboard-response,6,12913,0.0-3.0,,"<div style=""font-size:100px;"">+</div>",,delaylearn,learning,ITI,L5BiWRTWwlN5aqUcwJ2fULyUCly2,L5BiWRTWwlN5aqUcwJ2fULyUCly2,,,,,,,,,,,,,,,,,,,2088.0,,,5aeabf2c15a9c300011acbc3,09:07:04,27/02/2024
html-keyboard-response,7,14550,0.0-4.0-0.0,1634.300000011921,"<div style=""display: flex; flex-direction: column; align-items: center; margin-top: -40px;""><img src=""images/demo_images/pattern_1.png"" style=""width: 234px; height: 230px; margin-top: -50px;""><div style=""display: flex; justify-content: space-between; margin-top: 33px;""><img src=""images/demo_images/choice_trial_2.png"" style=""width: 408px; height: 417px; margin-right: 200px;""><img src=""images/demo_images/choice_trial_1.png"" style=""width: 408px; height: 417px;""></div></div>",j,delaylearn,learning,trial,L5BiWRTWwlN5aqUcwJ2fULyUCly2,L5BiWRTWwlN5aqUcwJ2fULyUCly2,2.0,images/demo_images/choice_trial_2.png,images/demo_images/choice_trial_1.png,images/demo_images/pattern_1.png,j,j,3000.0,2.0,1.0,20.0,1.0,2.0,1.0,1.0,1.0,10.0,,,,,,5aeabf2c15a9c300011acbc3,09:07:04,27/02/2024
html-keyboard-response,8,15553,0.0-4.0-1.0,,"<div style=""display: flex; flex-direction: column; align-items: center; margin-top: -40px;""><img src=""images/demo_images/pattern_1.png"" style=""width: 234px; height: 230px; margin-top: -50px;""><div style=""display: flex; justify-content: space-between; margin-top: 33px;""><img src=""images/demo_images/choice_trial_1.png"" style=""width: 408px; height: 417px; margin-left:608px;""></div></div>",,delaylearn,learning,display_response,L5BiWRTWwlN5aqUcwJ2fULyUCly2,L5BiWRTWwlN5aqUcwJ2fULyUCly2,,,,,,,,,,,,,,,,,chosen stimuli: images/demo_images/choice_trial_1.png,,,,,5aeabf2c15a9c300011acbc3,09:07:04,27/02/2024
html-keyboard-response,9,18560,0.0-4.0-2.0,,,,delaylearn,learning,feedback_duration_window,L5BiWRTWwlN5aqUcwJ2fULyUCly2,L5BiWRTWwlN5aqUcwJ2fULyUCly2,,,,,,,,,,,,,,,,,,3000.0,,,,5aeabf2c15a9c300011acbc3,09:07:04,27/02/2024
html-keyboard-response,10,20065,0.0-4.0-3.0,,<div style='margin:auto;width: auto; font-size: 150%'><span style='font-weight: bold; font-size: 100px; color: green;'>+10 points!</span><br><br></div>,,delaylearn,learning,feedback_image_window,L5BiWRTWwlN5aqUcwJ2fULyUCly2,L5BiWRTWwlN5aqUcwJ2fULyUCly2,,,,,,,,,,,,,,,,,,,,,,5aeabf2c15a9c300011acbc3,09:07:04,27/02/2024
html-keyboard-response,11,21763,0.0-5.0,,"<div style=""font-size:100px;"">+</div>",,delaylearn,learning,ITI,L5BiWRTWwlN5aqUcwJ2fULyUCly2,L5BiWRTWwlN5aqUcwJ2fULyUCly2,,,,,,,,,,,,,,,,,,,1685.0,,,5aeabf2c15a9c300011acbc3,09:07:04,27/02/2024
html-keyboard-response,12,24204,0.0-6.0-0.0,2438.600000023842,"<div style=""display: flex; flex-direction: column; align-items: center; margin-top: -40px;""><img src=""images/demo_images/pattern_1.png"" style=""width: 234px; height: 230px; margin-top: -50px;""><div style=""display: flex; justify-content: space-between; margin-top: 33px;""><img src=""images/demo_images/choice_trial_1.png"" style=""width: 408px; height: 417px; margin-right: 200px;""><img src=""images/demo_images/choice_trial_2.png"" style=""width: 408px; height: 417px;""></div></div>",f,delaylearn,learning,trial,L5BiWRTWwlN5aqUcwJ2fULyUCly2,L5BiWRTWwlN5aqUcwJ2fULyUCly2,2.0,images/demo_images/choice_trial_1.png,images/demo_images/choice_trial_2.png,images/demo_images/pattern_1.png,j,f,3000.0,1.0,2.0,20.0,0.0,3.0,1.0,0.0,1.0,10.0,,,,,,5aeabf2c15a9c300011acbc3,09:07:04,27/02/2024
html-keyboard-response,13,25211,0.0-6.0-1.0,,"<div style=""display: flex; flex-direction: column; align-items: center; margin-top: -40px;""><img src=""images/demo_images/pattern_1.png"" style=""width: 234px; height: 230px; margin-top: -50px;""><div style=""display: flex; justify-content: space-between; margin-top: 33px;""><img src=""images/demo_images/choice_trial_1.png"" style=""width: 408px; height: 417px; margin-right: 608px;""></div></div>",,delaylearn,learning,display_response,L5BiWRTWwlN5aqUcwJ2fULyUCly2,L5BiWRTWwlN5aqUcwJ2fULyUCly2,,,,,,,,,,,,,,,,,chosen stimuli: images/demo_images/choice_trial_1.png,,,,,5aeabf2c15a9c300011acbc3,09:07:04,27/02/2024
html-keyboard-response,14,28212,0.0-6.0-2.0,,,,delaylearn,learning,feedback_duration_window,L5BiWRTWwlN5aqUcwJ2fULyUCly2,L5BiWRTWwlN5aqUcwJ2fULyUCly2,,,,,,,,,,,,,,,,,,3000.0,,,,5aeabf2c15a9c300011acbc3,09:07:04,27/02/2024
html-keyboard-response,15,29720,0.0-6.0-3.0,,<div style='margin:auto;width: auto; font-size: 150%'><span style='font-weight: bold; font-size: 100px; color: red;'>0 points!</span><br><br></div>,,delaylearn,learning,feedback_image_window,L5BiWRTWwlN5aqUcwJ2fULyUCly2,L5BiWRTWwlN5aqUcwJ2fULyUCly2,,,,,,,,,,,,,,,,,,,,,,5aeabf2c15a9c300011acbc3,09:07:04,27/02/2024
html-keyboard-response,16,31700,0.0-7.0,,"<div style=""font-size:100px;"">+</div>",,delaylearn,learning,ITI,L5BiWRTWwlN5aqUcwJ2fULyUCly2,L5BiWRTWwlN5aqUcwJ2fULyUCly2,,,,,,,,,,,,,,,,,,,1967.0,,,5aeabf2c15a9c300011acbc3,09:07:04,27/02/2024
html-keyboard-response,17,33944,0.0-8.0-0.0,2241.400000035763,"<div style=""display: flex; flex-direction: column; align-items: center; margin-top: -40px;""><img src=""images/demo_images/pattern_1.png"" style=""width: 234px; height: 230px; margin-top: -50px;""><div style=""display: flex; justify-content: space-between; margin-top: 33px;""><img src=""images/demo_images/choice_trial_1.png"" style=""width: 408px; height: 417px; margin-right: 200px;""><img src=""images/demo_images/choice_trial_2.png"" style=""width: 408px; height: 417px;""></div></div>",j,delaylearn,learning,trial,L5BiWRTWwlN5aqUcwJ2fULyUCly2,L5BiWRTWwlN5aqUcwJ2fULyUCly2,2.0,images/demo_images/choice_trial_1.png,images/demo_images/choice_trial_2.png,images/demo_images/pattern_1.png,f,f,3000.0,1.0,2.0,20.0,0.0,4.0,0.0,0.0,2.0,10.0,,,,,,5aeabf2c15a9c300011acbc3,09:07:04,27/02/2024
html-keyboard-response,18,34955,0.0-8.0-1.0,,"<div style=""display: flex; flex-direction: column; align-items: center; margin-top: -40px;""><img src=""images/demo_images/pattern_1.png"" style=""width: 234px; height: 230px; margin-top: -50px;""><div style=""display: flex; justify-content: space-between; margin-top: 33px;""><img src=""images/demo_images/choice_trial_2.png"" style=""width: 408px; height: 417px; margin-left:608px;""></div></div>",,delaylearn,learning,display_response,L5BiWRTWwlN5aqUcwJ2fULyUCly2,L5BiWRTWwlN5aqUcwJ2fULyUCly2,,,,,,,,,,,,,,,,,chosen stimuli: images/demo_images/choice_trial_2.png,,,,,5aeabf2c15a9c300011acbc3,09:07:04,27/02/2024
html-keyboard-response,19,37960,0.0-8.0-2.0,,,,delaylearn,learning,feedback_duration_window,L5BiWRTWwlN5aqUcwJ2fULyUCly2,L5BiWRTWwlN5aqUcwJ2fULyUCly2,,,,,,,,,,,,,,,,,,3000.0,,,,5aeabf2c15a9c300011acbc3,09:07:04,27/02/2024
html-keyboard-response,20,39476,0.0-8.0-3.0,,<div style='margin:auto;width: auto; font-size: 150%'><span style='font-weight: bold; font-size: 100px; color: red;'>0 points!</span><br><br></div>,,delaylearn,learning,feedback_image_window,L5BiWRTWwlN5aqUcwJ2fULyUCly2,L5BiWRTWwlN5aqUcwJ2fULyUCly2,,,,,,,,,,,,,,,,,,,,,,5aeabf2c15a9c300011acbc3,09:07:04,27/02/2024
html-keyboard-response,21,39977,0.0-9.0-0.0,,,,,,mood_trial_fixation,L5BiWRTWwlN5aqUcwJ2fULyUCly2,,,,,,,,,,,,,,,,,,,,,,,5aeabf2c15a9c300011acbc3,09:07:04,27/02/2024
lmdlab-html-vas-response,22,50363,0.0-9.0-1.0,9363.0,How happy are you right now?,0.5783333333333334,delaylearn,learning,mood_trial,L5BiWRTWwlN5aqUcwJ2fULyUCly2,L5BiWRTWwlN5aqUcwJ2fULyUCly2,,,,,,,,,,,,,,,,,,,,"['Very unhappy', 'Very happy']",,5aeabf2c15a9c300011acbc3,09:07:04,27/02/2024
html-keyboard-response,23,52071,0.0-10.0,,"<div style=""font-size:100px;"">+</div>",,delaylearn,learning,ITI,L5BiWRTWwlN5aqUcwJ2fULyUCly2,L5BiWRTWwlN5aqUcwJ2fULyUCly2,,,,,,,,,,,,,,,,,,,1703.0,,,5aeabf2c15a9c300011acbc3,09:07:04,27/02/2024
html-keyboard-response,24,54412,0.0-11.0-0.0,2338.900000035763,"<div style=""display: flex; flex-direction: column; align-items: center; margin-top: -40px;""><img src=""images/demo_images/pattern_1.png"" style=""width: 234px; height: 230px; margin-top: -50px;""><div style=""display: flex; justify-content: space-between; margin-top: 33px;""><img src=""images/demo_images/choice_trial_2.png"" style=""width: 408px; height: 417px; margin-right: 200px;""><img src=""images/demo_images/choice_trial_1.png"" style=""width: 408px; height: 417px;""></div></div>",f,delaylearn,learning,trial,L5BiWRTWwlN5aqUcwJ2fULyUCly2,L5BiWRTWwlN5aqUcwJ2fULyUCly2,2.0,images/demo_images/choice_trial_2.png,images/demo_images/choice_trial_1.png,images/demo_images/pattern_1.png,j,j,3000.0,2.0,1.0,20.0,1.0,5.0,0.0,0.0,2.0,10.0,,,,,,5aeabf2c15a9c300011acbc3,09:07:04,27/02/2024
html-keyboard-response,25,55418,0.0-11.0-1.0,,"<div style=""display: flex; flex-direction: column; align-items: center; margin-top: -40px;""><img src=""images/demo_images/pattern_1.png"" style=""width: 234px; height: 230px; margin-top: -50px;""><div style=""display: flex; justify-content: space-between; margin-top: 33px;""><img src=""images/demo_images/choice_trial_2.png"" style=""width: 408px; height: 417px; margin-right: 608px;""></div></div>",,delaylearn,learning,display_response,L5BiWRTWwlN5aqUcwJ2fULyUCly2,L5BiWRTWwlN5aqUcwJ2fULyUCly2,,,,,,,,,,,,,,,,,chosen stimuli: images/demo_images/choice_trial_2.png,,,,,5aeabf2c15a9c300011acbc3,09:07:04,27/02/2024
html-keyboard-response,26,58422,0.0-11.0-2.0,,,,delaylearn,learning,feedback_duration_window,L5BiWRTWwlN5aqUcwJ2fULyUCly2,L5BiWRTWwlN5aqUcwJ2fULyUCly2,,,,,,,,,,,,,,,,,,3000.0,,,,5aeabf2c15a9c300011acbc3,09:07:04,27/02/2024
html-keyboard-response,27,59940,0.0-11.0-3.0,,<div style='margin:auto;width: auto; font-size: 150%'><span style='font-weight: bold; font-size: 100px; color: red;'>0 points!</span><br><br></div>,,delaylearn,learning,feedback_image_window,L5BiWRTWwlN5aqUcwJ2fULyUCly2,L5BiWRTWwlN5aqUcwJ2fULyUCly2,,,,,,,,,,,,,,,,,,,,,,5aeabf2c15a9c300011acbc3,09:07:04,27/02/2024
html-keyboard-response,28,61760,0.0-12.0,,"<div style=""font-size:100px;"">+</div>",,delaylearn,learning,ITI,L5BiWRTWwlN5aqUcwJ2fULyUCly2,L5BiWRTWwlN5aqUcwJ2fULyUCly2,,,,,,,,,,,,,,,,,,,1815.0,,,5aeabf2c15a9c300011acbc3,09:07:04,27/02/2024
html-keyboard-response,29,64770,0.0-13.0-0.0,,"<div style=""display: flex; flex-direction: column; align-items: center; margin-top: -40px;""><img src=""images/demo_images/pattern_1.png"" style=""width: 234px; height: 230px; margin-top: -50px;""><div style=""display: flex; justify-content: space-between; margin-top: 33px;""><img src=""images/demo_images/choice_trial_1.png"" style=""width: 408px; height: 417px; margin-right: 200px;""><img src=""images/demo_images/choice_trial_2.png"" style=""width: 408px; height: 417px;""></div></div>",,delaylearn,learning,trial,L5BiWRTWwlN5aqUcwJ2fULyUCly2,L5BiWRTWwlN5aqUcwJ2fULyUCly2,2.0,images/demo_images/choice_trial_1.png,images/demo_images/choice_trial_2.png,images/demo_images/pattern_1.png,f,f,3000.0,1.0,2.0,20.0,0.0,6.0,0.0,0.0,0.0,10.0,,,,,,5aeabf2c15a9c300011acbc3,09:07:04,27/02/2024
html-keyboard-response,30,65785,0.0-13.0-1.0,,<div style='font-weight: bold; font-size: 75px; color: red;'>Missed Trial <br><br><br><br> Please respond faster</div>,,delaylearn,learning,display_response,L5BiWRTWwlN5aqUcwJ2fULyUCly2,L5BiWRTWwlN5aqUcwJ2fULyUCly2,,,,,,,,,,,,,,,,,Missed trial,,,,,5aeabf2c15a9c300011acbc3,09:07:04,27/02/2024
html-keyboard-response,31,65791,0.0-13.0-2.0,,,,delaylearn,learning,feedback_duration_window,L5BiWRTWwlN5aqUcwJ2fULyUCly2,L5BiWRTWwlN5aqUcwJ2fULyUCly2,,,,,,,,,,,,,,,,,,0.0,,,,5aeabf2c15a9c300011acbc3,09:07:04,27/02/2024
html-keyboard-response,32,65797,0.0-13.0-3.0,,,,delaylearn,learning,feedback_image_window,L5BiWRTWwlN5aqUcwJ2fULyUCly2,L5BiWRTWwlN5aqUcwJ2fULyUCly2,,,,,,,,,,,,,,,,,,,,,,5aeabf2c15a9c300011acbc3,09:07:04,27/02/2024
html-button-response,33,68692,0.0-14.0,2894.099999964237,"
  <div style=""display: flex; align-items: center; justify-content: center; height: 80vh;"">
  <div>
          <img src=""images/inst_demo_finish.png"" style=""width: 80vw; height:auto;"">
          <br><br>
      </div>
      <br><br>
  </div>",0,,,,L5BiWRTWwlN5aqUcwJ2fULyUCly2,,,,,,,,,,,,,,,,,,,,,,,5aeabf2c15a9c300011acbc3,09:07:04,27/02/2024
html-keyboard-response,34,75963,0.0-15.0,7269.699999988079,"
  <div style=""display: flex; align-items: center; justify-content: center; height: 80vh;"">
  <div>
          <img src=""images/inst_6.png"" style=""width: 80vw; height:auto;"">
          <br><br>
      </div>
      <br><br>
  </div>",f,,,,L5BiWRTWwlN5aqUcwJ2fULyUCly2,,,,,,,,,,,,,,,,,,,,,,,5aeabf2c15a9c300011acbc3,09:07:04,27/02/2024
html-keyboard-response,35,78973,0.0-16.0,,"<div style=""font-size:100px;"">+</div>",,delaylearn,learning,pre_fixation,L5BiWRTWwlN5aqUcwJ2fULyUCly2,,,,,,,,,,,,,,,,,,,,,,,5aeabf2c15a9c300011acbc3,09:07:04,27/02/2024
html-keyboard-response,36,80992,0.0-17.0,,"<div style=""font-size:100px;"">+</div>",,delaylearn,learning,ITI,L5BiWRTWwlN5aqUcwJ2fULyUCly2,L5BiWRTWwlN5aqUcwJ2fULyUCly2,,,,,,,,,,,,,,,,,,,2006.0,,,5aeabf2c15a9c300011acbc3,09:07:04,27/02/2024
html-keyboard-response,37,82387,0.0-18.0-0.0,1393.0,"<div style=""display: flex; flex-direction: column; align-items: center; margin-top: -40px;""><img src=""images/pattern_3.png"" style=""width: 234px; height: 230px; margin-top: -50px;""><div style=""display: flex; justify-content: space-between; margin-top: 33px;""><img src=""images/choice_trial_12.png"" style=""width: 408px; height: 417px; margin-right: 200px;""><img src=""images/choice_trial_14.png"" style=""width: 408px; height: 417px;""></div></div>",f,delaylearn,learning,trial,L5BiWRTWwlN5aqUcwJ2fULyUCly2,L5BiWRTWwlN5aqUcwJ2fULyUCly2,2.0,images/choice_trial_12.png,images/choice_trial_14.png,images/pattern_3.png,f,f,7000.0,12.0,14.0,2.0,0.0,7.0,1.0,1.0,12.0,20.0,,,,,,5aeabf2c15a9c300011acbc3,09:07:04,27/02/2024
html-keyboard-response,38,83397,0.0-18.0-1.0,,"<div style=""display: flex; flex-direction: column; align-items: center; margin-top: -40px;""><img src=""images/pattern_3.png"" style=""width: 234px; height: 230px; margin-top: -50px;""><div style=""display: flex; justify-content: space-between; margin-top: 33px;""><img src=""images/choice_trial_12.png"" style=""width: 408px; height: 417px; margin-right: 608px;""></div></div>",,delaylearn,learning,display_response,L5BiWRTWwlN5aqUcwJ2fULyUCly2,L5BiWRTWwlN5aqUcwJ2fULyUCly2,,,,,,,,,,,,,,,,,chosen stimuli: images/choice_trial_12.png,,,,,5aeabf2c15a9c300011acbc3,09:07:04,27/02/2024
html-keyboard-response,39,90402,0.0-18.0-2.0,,,,delaylearn,learning,feedback_duration_window,L5BiWRTWwlN5aqUcwJ2fULyUCly2,L5BiWRTWwlN5aqUcwJ2fULyUCly2,,,,,,,,,,,,,,,,,,7000.0,,,,5aeabf2c15a9c300011acbc3,09:07:04,27/02/2024
html-keyboard-response,40,91906,0.0-18.0-3.0,,<div style='margin:auto;width: auto; font-size: 150%'><span style='font-weight: bold; font-size: 100px; color: green;'>+10 points!</span><br><br></div>,,delaylearn,learning,feedback_image_window,L5BiWRTWwlN5aqUcwJ2fULyUCly2,L5BiWRTWwlN5aqUcwJ2fULyUCly2,,,,,,,,,,,,,,,,,,,,,,5aeabf2c15a9c300011acbc3,09:07:04,27/02/2024
html-keyboard-response,41,93490,0.0-19.0,,"<div style=""font-size:100px;"">+</div>",,delaylearn,learning,ITI,L5BiWRTWwlN5aqUcwJ2fULyUCly2,L5BiWRTWwlN5aqUcwJ2fULyUCly2,,,,,,,,,,,,,,,,,,,1574.0,,,5aeabf2c15a9c300011acbc3,09:07:04,27/02/2024
html-keyboard-response,42,96010,0.0-20.0-0.0,2517.699999988079,"<div style=""display: flex; flex-direction: column; align-items: center; margin-top: -40px;""><img src=""images/pattern_7.png"" style=""width: 234px; height: 230px; margin-top: -50px;""><div style=""display: flex; justify-content: space-between; margin-top: 33px;""><img src=""images/choice_trial_15.png"" style=""width: 408px; height: 417px; margin-right: 200px;""><img src=""images/choice_trial_8.png"" style=""width: 408px; height: 417px;""></div></div>",j,delaylearn,learning,trial,L5BiWRTWwlN5aqUcwJ2fULyUCly2,L5BiWRTWwlN5aqUcwJ2fULyUCly2,2.0,images/choice_trial_15.png,images/choice_trial_8.png,images/pattern_7.png,j,j,750.0,15.0,8.0,6.0,1.0,8.0,1.0,1.0,8.0,30.0,,,,,,5aeabf2c15a9c300011acbc3,09:07:04,27/02/2024
html-keyboard-response,43,97021,0.0-20.0-1.0,,"<div style=""display: flex; flex-direction: column; align-items: center; margin-top: -40px;""><img src=""images/pattern_7.png"" style=""width: 234px; height: 230px; margin-top: -50px;""><div style=""display: flex; justify-content: space-between; margin-top: 33px;""><img src=""images/choice_trial_8.png"" style=""width: 408px; height: 417px; margin-left:608px;""></div></div>",,delaylearn,learning,display_response,L5BiWRTWwlN5aqUcwJ2fULyUCly2,L5BiWRTWwlN5aqUcwJ2fULyUCly2,,,,,,,,,,,,,,,,,chosen stimuli: images/choice_trial_8.png,,,,,5aeabf2c15a9c300011acbc3,09:07:04,27/02/2024
html-keyboard-response,44,97778,0.0-20.0-2.0,,,,delaylearn,learning,feedback_duration_window,L5BiWRTWwlN5aqUcwJ2fULyUCly2,L5BiWRTWwlN5aqUcwJ2fULyUCly2,,,,,,,,,,,,,,,,,,750.0,,,,5aeabf2c15a9c300011acbc3,09:07:04,27/02/2024
html-keyboard-response,45,99281,0.0-20.0-3.0,,<div style='margin:auto;width: auto; font-size: 150%'><span style='font-weight: bold; font-size: 100px; color: green;'>+10 points!</span><br><br></div>,,delaylearn,learning,feedback_image_window,L5BiWRTWwlN5aqUcwJ2fULyUCly2,L5BiWRTWwlN5aqUcwJ2fULyUCly2,,,,,,,,,,,,,,,,,,,,,,5aeabf2c15a9c300011acbc3,09:07:04,27/02/2024
html-keyboard-response,46,101719,0.0-21.0,,"<div style=""font-size:100px;"">+</div>",,delaylearn,learning,ITI,L5BiWRTWwlN5aqUcwJ2fULyUCly2,L5BiWRTWwlN5aqUcwJ2fULyUCly2,,,,,,,,,,,,,,,,,,,2432.0,,,5aeabf2c15a9c300011acbc3,09:07:04,27/02/2024
html-keyboard-response,47,103977,0.0-22.0-0.0,2256.300000011921,"<div style=""display: flex; flex-direction: column; align-items: center; margin-top: -40px;""><img src=""images/pattern_4.png"" style=""width: 234px; height: 230px; margin-top: -50px;""><div style=""display: flex; justify-content: space-between; margin-top: 33px;""><img src=""images/choice_trial_4.png"" style=""width: 408px; height: 417px; margin-right: 200px;""><img src=""images/choice_trial_16.png"" style=""width: 408px; height: 417px;""></div></div>",f,delaylearn,learning,trial,L5BiWRTWwlN5aqUcwJ2fULyUCly2,L5BiWRTWwlN5aqUcwJ2fULyUCly2,2.0,images/choice_trial_4.png,images/choice_trial_16.png,images/pattern_4.png,f,f,7000.0,4.0,16.0,3.0,0.0,9.0,1.0,1.0,4.0,40.0,,,,,,5aeabf2c15a9c300011acbc3,09:07:04,27/02/2024
html-keyboard-response,48,104980,0.0-22.0-1.0,,"<div style=""display: flex; flex-direction: column; align-items: center; margin-top: -40px;""><img src=""images/pattern_4.png"" style=""width: 234px; height: 230px; margin-top: -50px;""><div style=""display: flex; justify-content: space-between; margin-top: 33px;""><img src=""images/choice_trial_4.png"" style=""width: 408px; height: 417px; margin-right: 608px;""></div></div>",,delaylearn,learning,display_response,L5BiWRTWwlN5aqUcwJ2fULyUCly2,L5BiWRTWwlN5aqUcwJ2fULyUCly2,,,,,,,,,,,,,,,,,chosen stimuli: images/choice_trial_4.png,,,,,5aeabf2c15a9c300011acbc3,09:07:04,27/02/2024
html-keyboard-response,49,111987,0.0-22.0-2.0,,,,delaylearn,learning,feedback_duration_window,L5BiWRTWwlN5aqUcwJ2fULyUCly2,L5BiWRTWwlN5aqUcwJ2fULyUCly2,,,,,,,,,,,,,,,,,,7000.0,,,,5aeabf2c15a9c300011acbc3,09:07:04,27/02/2024
html-keyboard-response,50,113494,0.0-22.0-3.0,,<div style='margin:auto;width: auto; font-size: 150%'><span style='font-weight: bold; font-size: 100px; color: green;'>+10 points!</span><br><br></div>,,delaylearn,learning,feedback_image_window,L5BiWRTWwlN5aqUcwJ2fULyUCly2,L5BiWRTWwlN5aqUcwJ2fULyUCly2,,,,,,,,,,,,,,,,,,,,,,5aeabf2c15a9c300011acbc3,09:07:04,27/02/2024
html-keyboard-response,51,115580,0.0-23.0,,"<div style=""font-size:100px;"">+</div>",,delaylearn,learning,ITI,L5BiWRTWwlN5aqUcwJ2fULyUCly2,L5BiWRTWwlN5aqUcwJ2fULyUCly2,,,,,,,,,,,,,,,,,,,2071.0,,,5aeabf2c15a9c300011acbc3,09:07:04,27/02/2024
html-keyboard-response,52,118085,0.0-24.0-0.0,2503.2000000476837,"<div style=""display: flex; flex-direction: column; align-items: center; margin-top: -40px;""><img src=""images/pattern_5.png"" style=""width: 234px; height: 230px; margin-top: -50px;""><div style=""display: flex; justify-content: space-between; margin-top: 33px;""><img src=""images/choice_trial_9.png"" style=""width: 408px; height: 417px; margin-right: 200px;""><img src=""images/choice_trial_2.png"" style=""width: 408px; height: 417px;""></div></div>",j,delaylearn,learning,trial,L5BiWRTWwlN5aqUcwJ2fULyUCly2,L5BiWRTWwlN5aqUcwJ2fULyUCly2,2.0,images/choice_trial_9.png,images/choice_trial_2.png,images/pattern_5.png,j,j,750.0,9.0,2.0,4.0,1.0,10.0,1.0,1.0,2.0,50.0,,,,,,5aeabf2c15a9c300011acbc3,09:07:04,27/02/2024
html-keyboard-response,53,119095,0.0-24.0-1.0,,"<div style=""display: flex; flex-direction: column; align-items: center; margin-top: -40px;""><img src=""images/pattern_5.png"" style=""width: 234px; height: 230px; margin-top: -50px;""><div style=""display: flex; justify-content: space-between; margin-top: 33px;""><img src=""images/choice_trial_2.png"" style=""width: 408px; height: 417px; margin-left:608px;""></div></div>",,delaylearn,learning,display_response,L5BiWRTWwlN5aqUcwJ2fULyUCly2,L5BiWRTWwlN5aqUcwJ2fULyUCly2,,,,,,,,,,,,,,,,,chosen stimuli: images/choice_trial_2.png,,,,,5aeabf2c15a9c300011acbc3,09:07:04,27/02/2024
html-keyboard-response,54,119849,0.0-24.0-2.0,,,,delaylearn,learning,feedback_duration_window,L5BiWRTWwlN5aqUcwJ2fULyUCly2,L5BiWRTWwlN5aqUcwJ2fULyUCly2,,,,,,,,,,,,,,,,,,750.0,,,,5aeabf2c15a9c300011acbc3,09:07:04,27/02/2024
html-keyboard-response,55,121366,0.0-24.0-3.0,,<div style='margin:auto;width: auto; font-size: 150%'><span style='font-weight: bold; font-size: 100px; color: green;'>+10 points!</span><br><br></div>,,delaylearn,learning,feedback_image_window,L5BiWRTWwlN5aqUcwJ2fULyUCly2,L5BiWRTWwlN5aqUcwJ2fULyUCly2,,,,,,,,,,,,,,,,,,,,,,5aeabf2c15a9c300011acbc3,09:07:04,27/02/2024
html-keyboard-response,56,123102,0.0-25.0,,"<div style=""font-size:100px;"">+</div>",,delaylearn,learning,ITI,L5BiWRTWwlN5aqUcwJ2fULyUCly2,L5BiWRTWwlN5aqUcwJ2fULyUCly2,,,,,,,,,,,,,,,,,,,1729.0,,,5aeabf2c15a9c300011acbc3,09:07:04,27/02/2024
html-keyboard-response,57,126045,0.0-26.0-0.0,2940.5,"<div style=""display: flex; flex-direction: column; align-items: center; margin-top: -40px;""><img src=""images/pattern_6.png"" style=""width: 234px; height: 230px; margin-top: -50px;""><div style=""display: flex; justify-content: space-between; margin-top: 33px;""><img src=""images/choice_trial_11.png"" style=""width: 408px; height: 417px; margin-right: 200px;""><img src=""images/choice_trial_5.png"" style=""width: 408px; height: 417px;""></div></div>",j,delaylearn,learning,trial,L5BiWRTWwlN5aqUcwJ2fULyUCly2,L5BiWRTWwlN5aqUcwJ2fULyUCly2,2.0,images/choice_trial_11.png,images/choice_trial_5.png,images/pattern_6.png,j,f,750.0,11.0,5.0,5.0,0.0,11.0,0.0,1.0,5.0,60.0,,,,,,5aeabf2c15a9c300011acbc3,09:07:04,27/02/2024
html-keyboard-response,58,127048,0.0-26.0-1.0,,"<div style=""display: flex; flex-direction: column; align-items: center; margin-top: -40px;""><img src=""images/pattern_6.png"" style=""width: 234px; height: 230px; margin-top: -50px;""><div style=""display: flex; justify-content: space-between; margin-top: 33px;""><img src=""images/choice_trial_5.png"" style=""width: 408px; height: 417px; margin-left:608px;""></div></div>",,delaylearn,learning,display_response,L5BiWRTWwlN5aqUcwJ2fULyUCly2,L5BiWRTWwlN5aqUcwJ2fULyUCly2,,,,,,,,,,,,,,,,,chosen stimuli: images/choice_trial_5.png,,,,,5aeabf2c15a9c300011acbc3,09:07:04,27/02/2024
html-keyboard-response,59,127814,0.0-26.0-2.0,,,,delaylearn,learning,feedback_duration_window,L5BiWRTWwlN5aqUcwJ2fULyUCly2,L5BiWRTWwlN5aqUcwJ2fULyUCly2,,,,,,,,,,,,,,,,,,750.0,,,,5aeabf2c15a9c300011acbc3,09:07:04,27/02/2024
html-keyboard-response,60,129330,0.0-26.0-3.0,,<div style='margin:auto;width: auto; font-size: 150%'><span style='font-weight: bold; font-size: 100px; color: green;'>+10 points!</span><br><br></div>,,delaylearn,learning,feedback_image_window,L5BiWRTWwlN5aqUcwJ2fULyUCly2,L5BiWRTWwlN5aqUcwJ2fULyUCly2,,,,,,,,,,,,,,,,,,,,,,5aeabf2c15a9c300011acbc3,09:07:04,27/02/2024
html-keyboard-response,61,129844,0.0-27.0-0.0,,,,,,mood_trial_fixation,L5BiWRTWwlN5aqUcwJ2fULyUCly2,,,,,,,,,,,,,,,,,,,,,,,5aeabf2c15a9c300011acbc3,09:07:04,27/02/2024
lmdlab-html-vas-response,62,133428,0.0-27.0-1.0,2579.0,How happy are you right now?,0.8833333333333333,delaylearn,learning,mood_trial,L5BiWRTWwlN5aqUcwJ2fULyUCly2,L5BiWRTWwlN5aqUcwJ2fULyUCly2,,,,,,,,,,,,,,,,,,,,"['Very unhappy', 'Very happy']",,5aeabf2c15a9c300011acbc3,09:07:04,27/02/2024
html-keyboard-response,63,135870,0.0-28.0,,"<div style=""font-size:100px;"">+</div>",,delaylearn,learning,ITI,L5BiWRTWwlN5aqUcwJ2fULyUCly2,L5BiWRTWwlN5aqUcwJ2fULyUCly2,,,,,,,,,,,,,,,,,,,2436.0,,,5aeabf2c15a9c300011acbc3,09:07:04,27/02/2024
html-keyboard-response,64,137891,0.0-29.0-0.0,2019.0999999642372,"<div style=""display: flex; flex-direction: column; align-items: center; margin-top: -40px;""><img src=""images/pattern_1.png"" style=""width: 234px; height: 230px; margin-top: -50px;""><div style=""display: flex; justify-content: space-between; margin-top: 33px;""><img src=""images/choice_trial_10.png"" style=""width: 408px; height: 417px; margin-right: 200px;""><img src=""images/choice_trial_3.png"" style=""width: 408px; height: 417px;""></div></div>",f,delaylearn,learning,trial,L5BiWRTWwlN5aqUcwJ2fULyUCly2,L5BiWRTWwlN5aqUcwJ2fULyUCly2,2.0,images/choice_trial_10.png,images/choice_trial_3.png,images/pattern_1.png,j,j,7000.0,10.0,3.0,1.0,1.0,12.0,0.0,0.0,10.0,60.0,,,,,,5aeabf2c15a9c300011acbc3,09:07:04,27/02/2024
html-keyboard-response,65,138896,0.0-29.0-1.0,,"<div style=""display: flex; flex-direction: column; align-items: center; margin-top: -40px;""><img src=""images/pattern_1.png"" style=""width: 234px; height: 230px; margin-top: -50px;""><div style=""display: flex; justify-content: space-between; margin-top: 33px;""><img src=""images/choice_trial_10.png"" style=""width: 408px; height: 417px; margin-right: 608px;""></div></div>",,delaylearn,learning,display_response,L5BiWRTWwlN5aqUcwJ2fULyUCly2,L5BiWRTWwlN5aqUcwJ2fULyUCly2,,,,,,,,,,,,,,,,,chosen stimuli: images/choice_trial_10.png,,,,,5aeabf2c15a9c300011acbc3,09:07:04,27/02/2024
html-keyboard-response,66,145908,0.0-29.0-2.0,,,,delaylearn,learning,feedback_duration_window,L5BiWRTWwlN5aqUcwJ2fULyUCly2,L5BiWRTWwlN5aqUcwJ2fULyUCly2,,,,,,,,,,,,,,,,,,7000.0,,,,5aeabf2c15a9c300011acbc3,09:07:04,27/02/2024
html-keyboard-response,67,147420,0.0-29.0-3.0,,<div style='margin:auto;width: auto; font-size: 150%'><span style='font-weight: bold; font-size: 100px; color: red;'>0 points!</span><br><br></div>,,delaylearn,learning,feedback_image_window,L5BiWRTWwlN5aqUcwJ2fULyUCly2,L5BiWRTWwlN5aqUcwJ2fULyUCly2,,,,,,,,,,,,,,,,,,,,,,5aeabf2c15a9c300011acbc3,09:07:04,27/02/2024
html-keyboard-response,68,149110,0.0-30.0,,"<div style=""font-size:100px;"">+</div>",,delaylearn,learning,ITI,L5BiWRTWwlN5aqUcwJ2fULyUCly2,L5BiWRTWwlN5aqUcwJ2fULyUCly2,,,,,,,,,,,,,,,,,,,1688.0,,,5aeabf2c15a9c300011acbc3,09:07:04,27/02/2024
html-keyboard-response,69,152117,0.0-31.0-0.0,,"<div style=""display: flex; flex-direction: column; align-items: center; margin-top: -40px;""><img src=""images/pattern_3.png"" style=""width: 234px; height: 230px; margin-top: -50px;""><div style=""display: flex; justify-content: space-between; margin-top: 33px;""><img src=""images/choice_trial_14.png"" style=""width: 408px; height: 417px; margin-right: 200px;""><img src=""images/choice_trial_12.png"" style=""width: 408px; height: 417px;""></div></div>",,delaylearn,learning,trial,L5BiWRTWwlN5aqUcwJ2fULyUCly2,L5BiWRTWwlN5aqUcwJ2fULyUCly2,2.0,images/choice_trial_14.png,images/choice_trial_12.png,images/pattern_3.png,f,j,7000.0,14.0,12.0,2.0,1.0,13.0,0.0,0.0,0.0,60.0,,,,,,5aeabf2c15a9c300011acbc3,09:07:04,27/02/2024
html-keyboard-response,70,153132,0.0-31.0-1.0,,<div style='font-weight: bold; font-size: 75px; color: red;'>Missed Trial <br><br><br><br> Please respond faster</div>,,delaylearn,learning,display_response,L5BiWRTWwlN5aqUcwJ2fULyUCly2,L5BiWRTWwlN5aqUcwJ2fULyUCly2,,,,,,,,,,,,,,,,,Missed trial,,,,,5aeabf2c15a9c300011acbc3,09:07:04,27/02/2024
html-keyboard-response,71,153138,0.0-31.0-2.0,,,,delaylearn,learning,feedback_duration_window,L5BiWRTWwlN5aqUcwJ2fULyUCly2,L5BiWRTWwlN5aqUcwJ2fULyUCly2,,,,,,,,,,,,,,,,,,0.0,,,,5aeabf2c15a9c300011acbc3,09:07:04,27/02/2024
html-keyboard-response,72,153144,0.0-31.0-3.0,,,,delaylearn,learning,feedback_image_window,L5BiWRTWwlN5aqUcwJ2fULyUCly2,L5BiWRTWwlN5aqUcwJ2fULyUCly2,,,,,,,,,,,,,,,,,,,,,,5aeabf2c15a9c300011acbc3,09:07:04,27/02/2024
html-keyboard-response,73,155122,0.0-32.0,,"<div style=""font-size:100px;"">+</div>",,delaylearn,learning,ITI,L5BiWRTWwlN5aqUcwJ2fULyUCly2,L5BiWRTWwlN5aqUcwJ2fULyUCly2,,,,,,,,,,,,,,,,,,,1976.0,,,5aeabf2c15a9c300011acbc3,09:07:04,27/02/2024
html-keyboard-response,74,157615,0.0-33.0-0.0,2490.899999976158,"<div style=""display: flex; flex-direction: column; align-items: center; margin-top: -40px;""><img src=""images/pattern_5.png"" style=""width: 234px; height: 230px; margin-top: -50px;""><div style=""display: flex; justify-content: space-between; margin-top: 33px;""><img src=""images/choice_trial_2.png"" style=""width: 408px; height: 417px; margin-right: 200px;""><img src=""images/choice_trial_9.png"" style=""width: 408px; height: 417px;""></div></div>",j,delaylearn,learning,trial,L5BiWRTWwlN5aqUcwJ2fULyUCly2,L5BiWRTWwlN5aqUcwJ2fULyUCly2,2.0,images/choice_trial_2.png,images/choice_trial_9.png,images/pattern_5.png,f,f,750.0,2.0,9.0,4.0,0.0,14.0,0.0,0.0,9.0,60.0,,,,,,5aeabf2c15a9c300011acbc3,09:07:04,27/02/2024
html-keyboard-response,75,158622,0.0-33.0-1.0,,"<div style=""display: flex; flex-direction: column; align-items: center; margin-top: -40px;""><img src=""images/pattern_5.png"" style=""width: 234px; height: 230px; margin-top: -50px;""><div style=""display: flex; justify-content: space-between; margin-top: 33px;""><img src=""images/choice_trial_9.png"" style=""width: 408px; height: 417px; margin-left:608px;""></div></div>",,delaylearn,learning,display_response,L5BiWRTWwlN5aqUcwJ2fULyUCly2,L5BiWRTWwlN5aqUcwJ2fULyUCly2,,,,,,,,,,,,,,,,,chosen stimuli: images/choice_trial_9.png,,,,,5aeabf2c15a9c300011acbc3,09:07:04,27/02/2024
html-keyboard-response,76,159379,0.0-33.0-2.0,,,,delaylearn,learning,feedback_duration_window,L5BiWRTWwlN5aqUcwJ2fULyUCly2,L5BiWRTWwlN5aqUcwJ2fULyUCly2,,,,,,,,,,,,,,,,,,750.0,,,,5aeabf2c15a9c300011acbc3,09:07:04,27/02/2024
html-keyboard-response,77,160884,0.0-33.0-3.0,,<div style='margin:auto;width: auto; font-size: 150%'><span style='font-weight: bold; font-size: 100px; color: red;'>0 points!</span><br><br></div>,,delaylearn,learning,feedback_image_window,L5BiWRTWwlN5aqUcwJ2fULyUCly2,L5BiWRTWwlN5aqUcwJ2fULyUCly2,,,,,,,,,,,,,,,,,,,,,,5aeabf2c15a9c300011acbc3,09:07:04,27/02/2024
html-keyboard-response,78,161395,0.0-34.0-0.0,,,,,,mood_trial_fixation,L5BiWRTWwlN5aqUcwJ2fULyUCly2,,,,,,,,,,,,,,,,,,,,,,,5aeabf2c15a9c300011acbc3,09:07:04,27/02/2024
lmdlab-html-vas-response,79,164437,0.0-34.0-1.0,2028.0,How happy are you right now?,0.6616666666666666,delaylearn,learning,mood_trial,L5BiWRTWwlN5aqUcwJ2fULyUCly2,L5BiWRTWwlN5aqUcwJ2fULyUCly2,,,,,,,,,,,,,,,,,,,,"['Very unhappy', 'Very happy']",,5aeabf2c15a9c300011acbc3,09:07:04,27/02/2024
html-keyboard-response,80,166230,0.0-35.0,,"<div style=""font-size:100px;"">+</div>",,delaylearn,learning,ITI,L5BiWRTWwlN5aqUcwJ2fULyUCly2,L5BiWRTWwlN5aqUcwJ2fULyUCly2,,,,,,,,,,,,,,,,,,,1782.0,,,5aeabf2c15a9c300011acbc3,09:07:04,27/02/2024
html-keyboard-response,81,167626,0.0-36.0-0.0,1394.3999999761581,"<div style=""display: flex; flex-direction: column; align-items: center; margin-top: -40px;""><img src=""images/pattern_6.png"" style=""width: 234px; height: 230px; margin-top: -50px;""><div style=""display: flex; justify-content: space-between; margin-top: 33px;""><img src=""images/choice_trial_11.png"" style=""width: 408px; height: 417px; margin-right: 200px;""><img src=""images/choice_trial_5.png"" style=""width: 408px; height: 417px;""></div></div>",j,delaylearn,learning,trial,L5BiWRTWwlN5aqUcwJ2fULyUCly2,L5BiWRTWwlN5aqUcwJ2fULyUCly2,2.0,images/choice_trial_11.png,images/choice_trial_5.png,images/pattern_6.png,f,f,750.0,11.0,5.0,5.0,0.0,15.0,0.0,0.0,5.0,60.0,,,,,,5aeabf2c15a9c300011acbc3,09:07:04,27/02/2024
html-keyboard-response,82,168634,0.0-36.0-1.0,,"<div style=""display: flex; flex-direction: column; align-items: center; margin-top: -40px;""><img src=""images/pattern_6.png"" style=""width: 234px; height: 230px; margin-top: -50px;""><div style=""display: flex; justify-content: space-between; margin-top: 33px;""><img src=""images/choice_trial_5.png"" style=""width: 408px; height: 417px; margin-left:608px;""></div></div>",,delaylearn,learning,display_response,L5BiWRTWwlN5aqUcwJ2fULyUCly2,L5BiWRTWwlN5aqUcwJ2fULyUCly2,,,,,,,,,,,,,,,,,chosen stimuli: images/choice_trial_5.png,,,,,5aeabf2c15a9c300011acbc3,09:07:04,27/02/2024
html-keyboard-response,83,169398,0.0-36.0-2.0,,,,delaylearn,learning,feedback_duration_window,L5BiWRTWwlN5aqUcwJ2fULyUCly2,L5BiWRTWwlN5aqUcwJ2fULyUCly2,,,,,,,,,,,,,,,,,,750.0,,,,5aeabf2c15a9c300011acbc3,09:07:04,27/02/2024
html-keyboard-response,84,170911,0.0-36.0-3.0,,<div style='margin:auto;width: auto; font-size: 150%'><span style='font-weight: bold; font-size: 100px; color: red;'>0 points!</span><br><br></div>,,delaylearn,learning,feedback_image_window,L5BiWRTWwlN5aqUcwJ2fULyUCly2,L5BiWRTWwlN5aqUcwJ2fULyUCly2,,,,,,,,,,,,,,,,,,,,,,5aeabf2c15a9c300011acbc3,09:07:04,27/02/2024
html-keyboard-response,85,172802,0.0-37.0,,"<div style=""font-size:100px;"">+</div>",,delaylearn,learning,ITI,L5BiWRTWwlN5aqUcwJ2fULyUCly2,L5BiWRTWwlN5aqUcwJ2fULyUCly2,,,,,,,,,,,,,,,,,,,1880.0,,,5aeabf2c15a9c300011acbc3,09:07:04,27/02/2024
html-keyboard-response,86,174524,0.0-38.0-0.0,1719.699999988079,"<div style=""display: flex; flex-direction: column; align-items: center; margin-top: -40px;""><img src=""images/pattern_4.png"" style=""width: 234px; height: 230px; margin-top: -50px;""><div style=""display: flex; justify-content: space-between; margin-top: 33px;""><img src=""images/choice_trial_16.png"" style=""width: 408px; height: 417px; margin-right: 200px;""><img src=""images/choice_trial_4.png"" style=""width: 408px; height: 417px;""></div></div>",f,delaylearn,learning,trial,L5BiWRTWwlN5aqUcwJ2fULyUCly2,L5BiWRTWwlN5aqUcwJ2fULyUCly2,2.0,images/choice_trial_16.png,images/choice_trial_4.png,images/pattern_4.png,j,j,7000.0,16.0,4.0,3.0,1.0,16.0,0.0,0.0,16.0,60.0,,,,,,5aeabf2c15a9c300011acbc3,09:07:04,27/02/2024
html-keyboard-response,87,175538,0.0-38.0-1.0,,"<div style=""display: flex; flex-direction: column; align-items: center; margin-top: -40px;""><img src=""images/pattern_4.png"" style=""width: 234px; height: 230px; margin-top: -50px;""><div style=""display: flex; justify-content: space-between; margin-top: 33px;""><img src=""images/choice_trial_16.png"" style=""width: 408px; height: 417px; margin-right: 608px;""></div></div>",,delaylearn,learning,display_response,L5BiWRTWwlN5aqUcwJ2fULyUCly2,L5BiWRTWwlN5aqUcwJ2fULyUCly2,,,,,,,,,,,,,,,,,chosen stimuli: images/choice_trial_16.png,,,,,5aeabf2c15a9c300011acbc3,09:07:04,27/02/2024
html-keyboard-response,88,182551,0.0-38.0-2.0,,,,delaylearn,learning,feedback_duration_window,L5BiWRTWwlN5aqUcwJ2fULyUCly2,L5BiWRTWwlN5aqUcwJ2fULyUCly2,,,,,,,,,,,,,,,,,,7000.0,,,,5aeabf2c15a9c300011acbc3,09:07:04,27/02/2024
html-keyboard-response,89,184063,0.0-38.0-3.0,,<div style='margin:auto;width: auto; font-size: 150%'><span style='font-weight: bold; font-size: 100px; color: red;'>0 points!</span><br><br></div>,,delaylearn,learning,feedback_image_window,L5BiWRTWwlN5aqUcwJ2fULyUCly2,L5BiWRTWwlN5aqUcwJ2fULyUCly2,,,,,,,,,,,,,,,,,,,,,,5aeabf2c15a9c300011acbc3,09:07:04,27/02/2024
html-keyboard-response,90,186387,0.0-39.0,,"<div style=""font-size:100px;"">+</div>",,delaylearn,learning,ITI,L5BiWRTWwlN5aqUcwJ2fULyUCly2,L5BiWRTWwlN5aqUcwJ2fULyUCly2,,,,,,,,,,,,,,,,,,,2310.0,,,5aeabf2c15a9c300011acbc3,09:07:04,27/02/2024
html-keyboard-response,91,188277,0.0-40.0-0.0,1887.199999988079,"<div style=""display: flex; flex-direction: column; align-items: center; margin-top: -40px;""><img src=""images/pattern_7.png"" style=""width: 234px; height: 230px; margin-top: -50px;""><div style=""display: flex; justify-content: space-between; margin-top: 33px;""><img src=""images/choice_trial_8.png"" style=""width: 408px; height: 417px; margin-right: 200px;""><img src=""images/choice_trial_15.png"" style=""width: 408px; height: 417px;""></div></div>",f,delaylearn,learning,trial,L5BiWRTWwlN5aqUcwJ2fULyUCly2,L5BiWRTWwlN5aqUcwJ2fULyUCly2,2.0,images/choice_trial_8.png,images/choice_trial_15.png,images/pattern_7.png,j,f,750.0,8.0,15.0,6.0,0.0,17.0,1.0,0.0,8.0,60.0,,,,,,5aeabf2c15a9c300011acbc3,09:07:04,27/02/2024
html-keyboard-response,92,189290,0.0-40.0-1.0,,"<div style=""display: flex; flex-direction: column; align-items: center; margin-top: -40px;""><img src=""images/pattern_7.png"" style=""width: 234px; height: 230px; margin-top: -50px;""><div style=""display: flex; justify-content: space-between; margin-top: 33px;""><img src=""images/choice_trial_8.png"" style=""width: 408px; height: 417px; margin-right: 608px;""></div></div>",,delaylearn,learning,display_response,L5BiWRTWwlN5aqUcwJ2fULyUCly2,L5BiWRTWwlN5aqUcwJ2fULyUCly2,,,,,,,,,,,,,,,,,chosen stimuli: images/choice_trial_8.png,,,,,5aeabf2c15a9c300011acbc3,09:07:04,27/02/2024
html-keyboard-response,93,190044,0.0-40.0-2.0,,,,delaylearn,learning,feedback_duration_window,L5BiWRTWwlN5aqUcwJ2fULyUCly2,L5BiWRTWwlN5aqUcwJ2fULyUCly2,,,,,,,,,,,,,,,,,,750.0,,,,5aeabf2c15a9c300011acbc3,09:07:04,27/02/2024
html-keyboard-response,94,191552,0.0-40.0-3.0,,<div style='margin:auto;width: auto; font-size: 150%'><span style='font-weight: bold; font-size: 100px; color: red;'>0 points!</span><br><br></div>,,delaylearn,learning,feedback_image_window,L5BiWRTWwlN5aqUcwJ2fULyUCly2,L5BiWRTWwlN5aqUcwJ2fULyUCly2,,,,,,,,,,,,,,,,,,,,,,5aeabf2c15a9c300011acbc3,09:07:04,27/02/2024
html-keyboard-response,95,193790,0.0-41.0,,"<div style=""font-size:100px;"">+</div>",,delaylearn,learning,ITI,L5BiWRTWwlN5aqUcwJ2fULyUCly2,L5BiWRTWwlN5aqUcwJ2fULyUCly2,,,,,,,,,,,,,,,,,,,2221.0,,,5aeabf2c15a9c300011acbc3,09:07:04,27/02/2024
html-keyboard-response,96,195547,0.0-42.0-0.0,1755.4000000357628,"<div style=""display: flex; flex-direction: column; align-items: center; margin-top: -40px;""><img src=""images/pattern_1.png"" style=""width: 234px; height: 230px; margin-top: -50px;""><div style=""display: flex; justify-content: space-between; margin-top: 33px;""><img src=""images/choice_trial_3.png"" style=""width: 408px; height: 417px; margin-right: 200px;""><img src=""images/choice_trial_10.png"" style=""width: 408px; height: 417px;""></div></div>",j,delaylearn,learning,trial,L5BiWRTWwlN5aqUcwJ2fULyUCly2,L5BiWRTWwlN5aqUcwJ2fULyUCly2,2.0,images/choice_trial_3.png,images/choice_trial_10.png,images/pattern_1.png,f,f,7000.0,3.0,10.0,1.0,0.0,18.0,0.0,0.0,10.0,60.0,,,,,,5aeabf2c15a9c300011acbc3,09:07:04,27/02/2024
html-keyboard-response,97,196554,0.0-42.0-1.0,,"<div style=""display: flex; flex-direction: column; align-items: center; margin-top: -40px;""><img src=""images/pattern_1.png"" style=""width: 234px; height: 230px; margin-top: -50px;""><div style=""display: flex; justify-content: space-between; margin-top: 33px;""><img src=""images/choice_trial_10.png"" style=""width: 408px; height: 417px; margin-left:608px;""></div></div>",,delaylearn,learning,display_response,L5BiWRTWwlN5aqUcwJ2fULyUCly2,L5BiWRTWwlN5aqUcwJ2fULyUCly2,,,,,,,,,,,,,,,,,chosen stimuli: images/choice_trial_10.png,,,,,5aeabf2c15a9c300011acbc3,09:07:04,27/02/2024
html-keyboard-response,98,203569,0.0-42.0-2.0,,,,delaylearn,learning,feedback_duration_window,L5BiWRTWwlN5aqUcwJ2fULyUCly2,L5BiWRTWwlN5aqUcwJ2fULyUCly2,,,,,,,,,,,,,,,,,,7000.0,,,,5aeabf2c15a9c300011acbc3,09:07:04,27/02/2024
html-keyboard-response,99,205084,0.0-42.0-3.0,,<div style='margin:auto;width: auto; font-size: 150%'><span style='font-weight: bold; font-size: 100px; color: red;'>0 points!</span><br><br></div>,,delaylearn,learning,feedback_image_window,L5BiWRTWwlN5aqUcwJ2fULyUCly2,L5BiWRTWwlN5aqUcwJ2fULyUCly2,,,,,,,,,,,,,,,,,,,,,,5aeabf2c15a9c300011acbc3,09:07:04,27/02/2024
html-keyboard-response,100,207163,0.0-43.0,,"<div style=""font-size:100px;"">+</div>",,delaylearn,learning,ITI,L5BiWRTWwlN5aqUcwJ2fULyUCly2,L5BiWRTWwlN5aqUcwJ2fULyUCly2,,,,,,,,,,,,,,,,,,,2070.0,,,5aeabf2c15a9c300011acbc3,09:07:04,27/02/2024
html-keyboard-response,101,208746,0.0-44.0-0.0,1579.9000000357628,"<div style=""display: flex; flex-direction: column; align-items: center; margin-top: -40px;""><img src=""images/pattern_6.png"" style=""width: 234px; height: 230px; margin-top: -50px;""><div style=""display: flex; justify-content: space-between; margin-top: 33px;""><img src=""images/choice_trial_5.png"" style=""width: 408px; height: 417px; margin-right: 200px;""><img src=""images/choice_trial_11.png"" style=""width: 408px; height: 417px;""></div></div>",j,delaylearn,learning,trial,L5BiWRTWwlN5aqUcwJ2fULyUCly2,L5BiWRTWwlN5aqUcwJ2fULyUCly2,2.0,images/choice_trial_5.png,images/choice_trial_11.png,images/pattern_6.png,j,j,750.0,5.0,11.0,5.0,1.0,19.0,1.0,1.0,11.0,70.0,,,,,,5aeabf2c15a9c300011acbc3,09:07:04,27/02/2024
html-keyboard-response,102,209755,0.0-44.0-1.0,,"<div style=""display: flex; flex-direction: column; align-items: center; margin-top: -40px;""><img src=""images/pattern_6.png"" style=""width: 234px; height: 230px; margin-top: -50px;""><div style=""display: flex; justify-content: space-between; margin-top: 33px;""><img src=""images/choice_trial_11.png"" style=""width: 408px; height: 417px; margin-left:608px;""></div></div>",,delaylearn,learning,display_response,L5BiWRTWwlN5aqUcwJ2fULyUCly2,L5BiWRTWwlN5aqUcwJ2fULyUCly2,,,,,,,,,,,,,,,,,chosen stimuli: images/choice_trial_11.png,,,,,5aeabf2c15a9c300011acbc3,09:07:04,27/02/2024
html-keyboard-response,103,210507,0.0-44.0-2.0,,,,delaylearn,learning,feedback_duration_window,L5BiWRTWwlN5aqUcwJ2fULyUCly2,L5BiWRTWwlN5aqUcwJ2fULyUCly2,,,,,,,,,,,,,,,,,,750.0,,,,5aeabf2c15a9c300011acbc3,09:07:04,27/02/2024
html-keyboard-response,104,212018,0.0-44.0-3.0,,<div style='margin:auto;width: auto; font-size: 150%'><span style='font-weight: bold; font-size: 100px; color: green;'>+10 points!</span><br><br></div>,,delaylearn,learning,feedback_image_window,L5BiWRTWwlN5aqUcwJ2fULyUCly2,L5BiWRTWwlN5aqUcwJ2fULyUCly2,,,,,,,,,,,,,,,,,,,,,,5aeabf2c15a9c300011acbc3,09:07:04,27/02/2024
html-keyboard-response,105,213995,0.0-45.0,,"<div style=""font-size:100px;"">+</div>",,delaylearn,learning,ITI,L5BiWRTWwlN5aqUcwJ2fULyUCly2,L5BiWRTWwlN5aqUcwJ2fULyUCly2,,,,,,,,,,,,,,,,,,,1974.0,,,5aeabf2c15a9c300011acbc3,09:07:04,27/02/2024
html-keyboard-response,106,216005,0.0-46.0-0.0,2007.699999988079,"<div style=""display: flex; flex-direction: column; align-items: center; margin-top: -40px;""><img src=""images/pattern_4.png"" style=""width: 234px; height: 230px; margin-top: -50px;""><div style=""display: flex; justify-content: space-between; margin-top: 33px;""><img src=""images/choice_trial_4.png"" style=""width: 408px; height: 417px; margin-right: 200px;""><img src=""images/choice_trial_16.png"" style=""width: 408px; height: 417px;""></div></div>",j,delaylearn,learning,trial,L5BiWRTWwlN5aqUcwJ2fULyUCly2,L5BiWRTWwlN5aqUcwJ2fULyUCly2,2.0,images/choice_trial_4.png,images/choice_trial_16.png,images/pattern_4.png,f,f,7000.0,4.0,16.0,3.0,0.0,20.0,0.0,0.0,16.0,70.0,,,,,,5aeabf2c15a9c300011acbc3,09:07:04,27/02/2024
html-keyboard-response,107,217016,0.0-46.0-1.0,,"<div style=""display: flex; flex-direction: column; align-items: center; margin-top: -40px;""><img src=""images/pattern_4.png"" style=""width: 234px; height: 230px; margin-top: -50px;""><div style=""display: flex; justify-content: space-between; margin-top: 33px;""><img src=""images/choice_trial_16.png"" style=""width: 408px; height: 417px; margin-left:608px;""></div></div>",,delaylearn,learning,display_response,L5BiWRTWwlN5aqUcwJ2fULyUCly2,L5BiWRTWwlN5aqUcwJ2fULyUCly2,,,,,,,,,,,,,,,,,chosen stimuli: images/choice_trial_16.png,,,,,5aeabf2c15a9c300011acbc3,09:07:04,27/02/2024
html-keyboard-response,108,224020,0.0-46.0-2.0,,,,delaylearn,learning,feedback_duration_window,L5BiWRTWwlN5aqUcwJ2fULyUCly2,L5BiWRTWwlN5aqUcwJ2fULyUCly2,,,,,,,,,,,,,,,,,,7000.0,,,,5aeabf2c15a9c300011acbc3,09:07:04,27/02/2024
html-keyboard-response,109,225526,0.0-46.0-3.0,,<div style='margin:auto;width: auto; font-size: 150%'><span style='font-weight: bold; font-size: 100px; color: red;'>0 points!</span><br><br></div>,,delaylearn,learning,feedback_image_window,L5BiWRTWwlN5aqUcwJ2fULyUCly2,L5BiWRTWwlN5aqUcwJ2fULyUCly2,,,,,,,,,,,,,,,,,,,,,,5aeabf2c15a9c300011acbc3,09:07:04,27/02/2024
html-keyboard-response,110,226028,0.0-47.0-0.0,,,,,,mood_trial_fixation,L5BiWRTWwlN5aqUcwJ2fULyUCly2,,,,,,,,,,,,,,,,,,,,,,,5aeabf2c15a9c300011acbc3,09:07:04,27/02/2024
lmdlab-html-vas-response,111,229491,0.0-47.0-1.0,2456.0,How happy are you right now?,0.6333333333333333,delaylearn,learning,mood_trial,L5BiWRTWwlN5aqUcwJ2fULyUCly2,L5BiWRTWwlN5aqUcwJ2fULyUCly2,,,,,,,,,,,,,,,,,,,,"['Very unhappy', 'Very happy']",,5aeabf2c15a9c300011acbc3,09:07:04,27/02/2024
html-keyboard-response,112,231609,0.0-48.0,,"<div style=""font-size:100px;"">+</div>",,delaylearn,learning,ITI,L5BiWRTWwlN5aqUcwJ2fULyUCly2,L5BiWRTWwlN5aqUcwJ2fULyUCly2,,,,,,,,,,,,,,,,,,,2104.0,,,5aeabf2c15a9c300011acbc3,09:07:04,27/02/2024
html-keyboard-response,113,233383,0.0-49.0-0.0,1772.0,"<div style=""display: flex; flex-direction: column; align-items: center; margin-top: -40px;""><img src=""images/pattern_7.png"" style=""width: 234px; height: 230px; margin-top: -50px;""><div style=""display: flex; justify-content: space-between; margin-top: 33px;""><img src=""images/choice_trial_15.png"" style=""width: 408px; height: 417px; margin-right: 200px;""><img src=""images/choice_trial_8.png"" style=""width: 408px; height: 417px;""></div></div>",j,delaylearn,learning,trial,L5BiWRTWwlN5aqUcwJ2fULyUCly2,L5BiWRTWwlN5aqUcwJ2fULyUCly2,2.0,images/choice_trial_15.png,images/choice_trial_8.png,images/pattern_7.png,j,j,750.0,15.0,8.0,6.0,1.0,21.0,1.0,1.0,8.0,80.0,,,,,,5aeabf2c15a9c300011acbc3,09:07:04,27/02/2024
html-keyboard-response,114,234399,0.0-49.0-1.0,,"<div style=""display: flex; flex-direction: column; align-items: center; margin-top: -40px;""><img src=""images/pattern_7.png"" style=""width: 234px; height: 230px; margin-top: -50px;""><div style=""display: flex; justify-content: space-between; margin-top: 33px;""><img src=""images/choice_trial_8.png"" style=""width: 408px; height: 417px; margin-left:608px;""></div></div>",,delaylearn,learning,display_response,L5BiWRTWwlN5aqUcwJ2fULyUCly2,L5BiWRTWwlN5aqUcwJ2fULyUCly2,,,,,,,,,,,,,,,,,chosen stimuli: images/choice_trial_8.png,,,,,5aeabf2c15a9c300011acbc3,09:07:04,27/02/2024
html-keyboard-response,115,235162,0.0-49.0-2.0,,,,delaylearn,learning,feedback_duration_window,L5BiWRTWwlN5aqUcwJ2fULyUCly2,L5BiWRTWwlN5aqUcwJ2fULyUCly2,,,,,,,,,,,,,,,,,,750.0,,,,5aeabf2c15a9c300011acbc3,09:07:04,27/02/2024
html-keyboard-response,116,236674,0.0-49.0-3.0,,<div style='margin:auto;width: auto; font-size: 150%'><span style='font-weight: bold; font-size: 100px; color: green;'>+10 points!</span><br><br></div>,,delaylearn,learning,feedback_image_window,L5BiWRTWwlN5aqUcwJ2fULyUCly2,L5BiWRTWwlN5aqUcwJ2fULyUCly2,,,,,,,,,,,,,,,,,,,,,,5aeabf2c15a9c300011acbc3,09:07:04,27/02/2024
html-keyboard-response,117,238998,0.0-50.0,,"<div style=""font-size:100px;"">+</div>",,delaylearn,learning,ITI,L5BiWRTWwlN5aqUcwJ2fULyUCly2,L5BiWRTWwlN5aqUcwJ2fULyUCly2,,,,,,,,,,,,,,,,,,,2321.0,,,5aeabf2c15a9c300011acbc3,09:07:04,27/02/2024
html-keyboard-response,118,241055,0.0-51.0-0.0,2054.899999976158,"<div style=""display: flex; flex-direction: column; align-items: center; margin-top: -40px;""><img src=""images/pattern_1.png"" style=""width: 234px; height: 230px; margin-top: -50px;""><div style=""display: flex; justify-content: space-between; margin-top: 33px;""><img src=""images/choice_trial_10.png"" style=""width: 408px; height: 417px; margin-right: 200px;""><img src=""images/choice_trial_3.png"" style=""width: 408px; height: 417px;""></div></div>",j,delaylearn,learning,trial,L5BiWRTWwlN5aqUcwJ2fULyUCly2,L5BiWRTWwlN5aqUcwJ2fULyUCly2,2.0,images/choice_trial_10.png,images/choice_trial_3.png,images/pattern_1.png,f,j,7000.0,10.0,3.0,1.0,1.0,22.0,1.0,0.0,3.0,80.0,,,,,,5aeabf2c15a9c300011acbc3,09:07:04,27/02/2024
html-keyboard-response,119,242071,0.0-51.0-1.0,,"<div style=""display: flex; flex-direction: column; align-items: center; margin-top: -40px;""><img src=""images/pattern_1.png"" style=""width: 234px; height: 230px; margin-top: -50px;""><div style=""display: flex; justify-content: space-between; margin-top: 33px;""><img src=""images/choice_trial_3.png"" style=""width: 408px; height: 417px; margin-left:608px;""></div></div>",,delaylearn,learning,display_response,L5BiWRTWwlN5aqUcwJ2fULyUCly2,L5BiWRTWwlN5aqUcwJ2fULyUCly2,,,,,,,,,,,,,,,,,chosen stimuli: images/choice_trial_3.png,,,,,5aeabf2c15a9c300011acbc3,09:07:04,27/02/2024
html-keyboard-response,120,249083,0.0-51.0-2.0,,,,delaylearn,learning,feedback_duration_window,L5BiWRTWwlN5aqUcwJ2fULyUCly2,L5BiWRTWwlN5aqUcwJ2fULyUCly2,,,,,,,,,,,,,,,,,,7000.0,,,,5aeabf2c15a9c300011acbc3,09:07:04,27/02/2024
html-keyboard-response,121,250597,0.0-51.0-3.0,,<div style='margin:auto;width: auto; font-size: 150%'><span style='font-weight: bold; font-size: 100px; color: red;'>0 points!</span><br><br></div>,,delaylearn,learning,feedback_image_window,L5BiWRTWwlN5aqUcwJ2fULyUCly2,L5BiWRTWwlN5aqUcwJ2fULyUCly2,,,,,,,,,,,,,,,,,,,,,,5aeabf2c15a9c300011acbc3,09:07:04,27/02/2024
html-keyboard-response,122,252610,0.0-52.0,,"<div style=""font-size:100px;"">+</div>",,delaylearn,learning,ITI,L5BiWRTWwlN5aqUcwJ2fULyUCly2,L5BiWRTWwlN5aqUcwJ2fULyUCly2,,,,,,,,,,,,,,,,,,,2010.0,,,5aeabf2c15a9c300011acbc3,09:07:04,27/02/2024
html-keyboard-response,123,254348,0.0-53.0-0.0,1734.9000000357628,"<div style=""display: flex; flex-direction: column; align-items: center; margin-top: -40px;""><img src=""images/pattern_5.png"" style=""width: 234px; height: 230px; margin-top: -50px;""><div style=""display: flex; justify-content: space-between; margin-top: 33px;""><img src=""images/choice_trial_9.png"" style=""width: 408px; height: 417px; margin-right: 200px;""><img src=""images/choice_trial_2.png"" style=""width: 408px; height: 417px;""></div></div>",f,delaylearn,learning,trial,L5BiWRTWwlN5aqUcwJ2fULyUCly2,L5BiWRTWwlN5aqUcwJ2fULyUCly2,2.0,images/choice_trial_9.png,images/choice_trial_2.png,images/pattern_5.png,j,j,750.0,9.0,2.0,4.0,1.0,23.0,0.0,0.0,9.0,80.0,,,,,,5aeabf2c15a9c300011acbc3,09:07:04,27/02/2024
html-keyboard-response,124,255352,0.0-53.0-1.0,,"<div style=""display: flex; flex-direction: column; align-items: center; margin-top: -40px;""><img src=""images/pattern_5.png"" style=""width: 234px; height: 230px; margin-top: -50px;""><div style=""display: flex; justify-content: space-between; margin-top: 33px;""><img src=""images/choice_trial_9.png"" style=""width: 408px; height: 417px; margin-right: 608px;""></div></div>",,delaylearn,learning,display_response,L5BiWRTWwlN5aqUcwJ2fULyUCly2,L5BiWRTWwlN5aqUcwJ2fULyUCly2,,,,,,,,,,,,,,,,,chosen stimuli: images/choice_trial_9.png,,,,,5aeabf2c15a9c300011acbc3,09:07:04,27/02/2024
html-keyboard-response,125,256105,0.0-53.0-2.0,,,,delaylearn,learning,feedback_duration_window,L5BiWRTWwlN5aqUcwJ2fULyUCly2,L5BiWRTWwlN5aqUcwJ2fULyUCly2,,,,,,,,,,,,,,,,,,750.0,,,,5aeabf2c15a9c300011acbc3,09:07:04,27/02/2024
html-keyboard-response,126,257619,0.0-53.0-3.0,,<div style='margin:auto;width: auto; font-size: 150%'><span style='font-weight: bold; font-size: 100px; color: red;'>0 points!</span><br><br></div>,,delaylearn,learning,feedback_image_window,L5BiWRTWwlN5aqUcwJ2fULyUCly2,L5BiWRTWwlN5aqUcwJ2fULyUCly2,,,,,,,,,,,,,,,,,,,,,,5aeabf2c15a9c300011acbc3,09:07:04,27/02/2024
html-keyboard-response,127,259923,0.0-54.0,,"<div style=""font-size:100px;"">+</div>",,delaylearn,learning,ITI,L5BiWRTWwlN5aqUcwJ2fULyUCly2,L5BiWRTWwlN5aqUcwJ2fULyUCly2,,,,,,,,,,,,,,,,,,,2303.0,,,5aeabf2c15a9c300011acbc3,09:07:04,27/02/2024
html-keyboard-response,128,262295,0.0-55.0-0.0,2369.800000011921,"<div style=""display: flex; flex-direction: column; align-items: center; margin-top: -40px;""><img src=""images/pattern_3.png"" style=""width: 234px; height: 230px; margin-top: -50px;""><div style=""display: flex; justify-content: space-between; margin-top: 33px;""><img src=""images/choice_trial_14.png"" style=""width: 408px; height: 417px; margin-right: 200px;""><img src=""images/choice_trial_12.png"" style=""width: 408px; height: 417px;""></div></div>",f,delaylearn,learning,trial,L5BiWRTWwlN5aqUcwJ2fULyUCly2,L5BiWRTWwlN5aqUcwJ2fULyUCly2,2.0,images/choice_trial_14.png,images/choice_trial_12.png,images/pattern_3.png,j,j,7000.0,14.0,12.0,2.0,1.0,24.0,0.0,0.0,14.0,80.0,,,,,,5aeabf2c15a9c300011acbc3,09:07:04,27/02/2024
html-keyboard-response,129,263311,0.0-55.0-1.0,,"<div style=""display: flex; flex-direction: column; align-items: center; margin-top: -40px;""><img src=""images/pattern_3.png"" style=""width: 234px; height: 230px; margin-top: -50px;""><div style=""display: flex; justify-content: space-between; margin-top: 33px;""><img src=""images/choice_trial_14.png"" style=""width: 408px; height: 417px; margin-right: 608px;""></div></div>",,delaylearn,learning,display_response,L5BiWRTWwlN5aqUcwJ2fULyUCly2,L5BiWRTWwlN5aqUcwJ2fULyUCly2,,,,,,,,,,,,,,,,,chosen stimuli: images/choice_trial_14.png,,,,,5aeabf2c15a9c300011acbc3,09:07:04,27/02/2024
html-keyboard-response,130,270319,0.0-55.0-2.0,,,,delaylearn,learning,feedback_duration_window,L5BiWRTWwlN5aqUcwJ2fULyUCly2,L5BiWRTWwlN5aqUcwJ2fULyUCly2,,,,,,,,,,,,,,,,,,7000.0,,,,5aeabf2c15a9c300011acbc3,09:07:04,27/02/2024
html-keyboard-response,131,271830,0.0-55.0-3.0,,<div style='margin:auto;width: auto; font-size: 150%'><span style='font-weight: bold; font-size: 100px; color: red;'>0 points!</span><br><br></div>,,delaylearn,learning,feedback_image_window,L5BiWRTWwlN5aqUcwJ2fULyUCly2,L5BiWRTWwlN5aqUcwJ2fULyUCly2,,,,,,,,,,,,,,,,,,,,,,5aeabf2c15a9c300011acbc3,09:07:04,27/02/2024
lmdlab-html-vas-response,132,278761,0.0-56.0-0.0,5407.0,*How <b><u>confident</u></b> are you feeling about your answers at this moment?*,0.305,rewlearn,rate_confidence,,L5BiWRTWwlN5aqUcwJ2fULyUCly2,L5BiWRTWwlN5aqUcwJ2fULyUCly2,,,,,,,,,,,,,,,,,,,,"['No confidence', 'Complete confidence']",,5aeabf2c15a9c300011acbc3,09:07:04,27/02/2024
lmdlab-rest-trial-limit,133,290395,0.0-56.0-1.0,10123.600000023842,"<div style=""font-size:40px;""><b>Please take a break!</b><br><br><br><br><p>Great work: you earned undefined points.<br><br><br><p>You have completed part(s) 1 of 6.<br><br><br><br>When you are ready to continue<br><br><br>please click the button.</p><br><br>",0,delaylearn,learning,break,L5BiWRTWwlN5aqUcwJ2fULyUCly2,L5BiWRTWwlN5aqUcwJ2fULyUCly2,,,,,,,,,,,,,,,,,,,,,0.0,5aeabf2c15a9c300011acbc3,09:07:04,27/02/2024
html-keyboard-response,134,293403,0.0-56.0-2.0,,"<div style=""font-size:100px;"">+</div>",,delaylearn,learning,pre_fixation,L5BiWRTWwlN5aqUcwJ2fULyUCly2,,,,,,,,,,,,,,,,,,,,,,,5aeabf2c15a9c300011acbc3,09:07:04,27/02/2024
lmdlab-html-vas-response,135,297107,0.0-56.0-3.0-0.0,2690.0,How happy are you right now?,0.625,delaylearn,learning,mood_baseline,L5BiWRTWwlN5aqUcwJ2fULyUCly2,L5BiWRTWwlN5aqUcwJ2fULyUCly2,,,,,,,,,,,,,,,,,,,,"['Very unhappy', 'Very happy']",,5aeabf2c15a9c300011acbc3,09:07:04,27/02/2024
html-keyboard-response,136,298616,0.0-56.0-3.0-1.0,,,,,,mood_baseline_fixation,L5BiWRTWwlN5aqUcwJ2fULyUCly2,,,,,,,,,,,,,,,,,,,,,,,5aeabf2c15a9c300011acbc3,09:07:04,27/02/2024
html-keyboard-response,137,300185,0.0-57.0,,"<div style=""font-size:100px;"">+</div>",,delaylearn,learning,ITI,L5BiWRTWwlN5aqUcwJ2fULyUCly2,L5BiWRTWwlN5aqUcwJ2fULyUCly2,,,,,,,,,,,,,,,,,,,1557.0,,,5aeabf2c15a9c300011acbc3,09:07:04,27/02/2024
html-keyboard-response,138,302557,0.0-58.0-0.0,2370.100000023842,"<div style=""display: flex; flex-direction: column; align-items: center; margin-top: -40px;""><img src=""images/pattern_7.png"" style=""width: 234px; height: 230px; margin-top: -50px;""><div style=""display: flex; justify-content: space-between; margin-top: 33px;""><img src=""images/choice_trial_15.png"" style=""width: 408px; height: 417px; margin-right: 200px;""><img src=""images/choice_trial_8.png"" style=""width: 408px; height: 417px;""></div></div>",j,delaylearn,learning,trial,L5BiWRTWwlN5aqUcwJ2fULyUCly2,L5BiWRTWwlN5aqUcwJ2fULyUCly2,2.0,images/choice_trial_15.png,images/choice_trial_8.png,images/pattern_7.png,j,j,750.0,15.0,8.0,6.0,1.0,25.0,1.0,1.0,8.0,90.0,,,,,,5aeabf2c15a9c300011acbc3,09:07:04,27/02/2024
html-keyboard-response,139,303570,0.0-58.0-1.0,,"<div style=""display: flex; flex-direction: column; align-items: center; margin-top: -40px;""><img src=""images/pattern_7.png"" style=""width: 234px; height: 230px; margin-top: -50px;""><div style=""display: flex; justify-content: space-between; margin-top: 33px;""><img src=""images/choice_trial_8.png"" style=""width: 408px; height: 417px; margin-left:608px;""></div></div>",,delaylearn,learning,display_response,L5BiWRTWwlN5aqUcwJ2fULyUCly2,L5BiWRTWwlN5aqUcwJ2fULyUCly2,,,,,,,,,,,,,,,,,chosen stimuli: images/choice_trial_8.png,,,,,5aeabf2c15a9c300011acbc3,09:07:04,27/02/2024
html-keyboard-response,140,304322,0.0-58.0-2.0,,,,delaylearn,learning,feedback_duration_window,L5BiWRTWwlN5aqUcwJ2fULyUCly2,L5BiWRTWwlN5aqUcwJ2fULyUCly2,,,,,,,,,,,,,,,,,,750.0,,,,5aeabf2c15a9c300011acbc3,09:07:04,27/02/2024
html-keyboard-response,141,305836,0.0-58.0-3.0,,<div style='margin:auto;width: auto; font-size: 150%'><span style='font-weight: bold; font-size: 100px; color: green;'>+10 points!</span><br><br></div>,,delaylearn,learning,feedback_image_window,L5BiWRTWwlN5aqUcwJ2fULyUCly2,L5BiWRTWwlN5aqUcwJ2fULyUCly2,,,,,,,,,,,,,,,,,,,,,,5aeabf2c15a9c300011acbc3,09:07:04,27/02/2024
html-keyboard-response,142,306342,0.0-59.0-0.0,,,,,,mood_trial_fixation,L5BiWRTWwlN5aqUcwJ2fULyUCly2,,,,,,,,,,,,,,,,,,,,,,,5aeabf2c15a9c300011acbc3,09:07:04,27/02/2024
lmdlab-html-vas-response,143,310026,0.0-59.0-1.0,2679.0,How happy are you right now?,0.6466666666666666,delaylearn,learning,mood_trial,L5BiWRTWwlN5aqUcwJ2fULyUCly2,L5BiWRTWwlN5aqUcwJ2fULyUCly2,,,,,,,,,,,,,,,,,,,,"['Very unhappy', 'Very happy']",,5aeabf2c15a9c300011acbc3,09:07:04,27/02/2024
html-keyboard-response,144,312187,0.0-60.0,,"<div style=""font-size:100px;"">+</div>",,delaylearn,learning,ITI,L5BiWRTWwlN5aqUcwJ2fULyUCly2,L5BiWRTWwlN5aqUcwJ2fULyUCly2,,,,,,,,,,,,,,,,,,,2146.0,,,5aeabf2c15a9c300011acbc3,09:07:04,27/02/2024
html-keyboard-response,145,314463,0.0-61.0-0.0,2273.399999976158,"<div style=""display: flex; flex-direction: column; align-items: center; margin-top: -40px;""><img src=""images/pattern_1.png"" style=""width: 234px; height: 230px; margin-top: -50px;""><div style=""display: flex; justify-content: space-between; margin-top: 33px;""><img src=""images/choice_trial_3.png"" style=""width: 408px; height: 417px; margin-right: 200px;""><img src=""images/choice_trial_10.png"" style=""width: 408px; height: 417px;""></div></div>",j,delaylearn,learning,trial,L5BiWRTWwlN5aqUcwJ2fULyUCly2,L5BiWRTWwlN5aqUcwJ2fULyUCly2,2.0,images/choice_trial_3.png,images/choice_trial_10.png,images/pattern_1.png,f,f,7000.0,3.0,10.0,1.0,0.0,26.0,0.0,0.0,10.0,90.0,,,,,,5aeabf2c15a9c300011acbc3,09:07:04,27/02/2024
html-keyboard-response,146,315476,0.0-61.0-1.0,,"<div style=""display: flex; flex-direction: column; align-items: center; margin-top: -40px;""><img src=""images/pattern_1.png"" style=""width: 234px; height: 230px; margin-top: -50px;""><div style=""display: flex; justify-content: space-between; margin-top: 33px;""><img src=""images/choice_trial_10.png"" style=""width: 408px; height: 417px; margin-left:608px;""></div></div>",,delaylearn,learning,display_response,L5BiWRTWwlN5aqUcwJ2fULyUCly2,L5BiWRTWwlN5aqUcwJ2fULyUCly2,,,,,,,,,,,,,,,,,chosen stimuli: images/choice_trial_10.png,,,,,5aeabf2c15a9c300011acbc3,09:07:04,27/02/2024
html-keyboard-response,147,322486,0.0-61.0-2.0,,,,delaylearn,learning,feedback_duration_window,L5BiWRTWwlN5aqUcwJ2fULyUCly2,L5BiWRTWwlN5aqUcwJ2fULyUCly2,,,,,,,,,,,,,,,,,,7000.0,,,,5aeabf2c15a9c300011acbc3,09:07:04,27/02/2024
html-keyboard-response,148,323988,0.0-61.0-3.0,,<div style='margin:auto;width: auto; font-size: 150%'><span style='font-weight: bold; font-size: 100px; color: red;'>0 points!</span><br><br></div>,,delaylearn,learning,feedback_image_window,L5BiWRTWwlN5aqUcwJ2fULyUCly2,L5BiWRTWwlN5aqUcwJ2fULyUCly2,,,,,,,,,,,,,,,,,,,,,,5aeabf2c15a9c300011acbc3,09:07:04,27/02/2024
html-keyboard-response,149,326031,0.0-62.0,,"<div style=""font-size:100px;"">+</div>",,delaylearn,learning,ITI,L5BiWRTWwlN5aqUcwJ2fULyUCly2,L5BiWRTWwlN5aqUcwJ2fULyUCly2,,,,,,,,,,,,,,,,,,,2028.0,,,5aeabf2c15a9c300011acbc3,09:07:04,27/02/2024
html-keyboard-response,150,328515,0.0-63.0-0.0,2482.400000035763,"<div style=""display: flex; flex-direction: column; align-items: center; margin-top: -40px;""><img src=""images/pattern_5.png"" style=""width: 234px; height: 230px; margin-top: -50px;""><div style=""display: flex; justify-content: space-between; margin-top: 33px;""><img src=""images/choice_trial_2.png"" style=""width: 408px; height: 417px; margin-right: 200px;""><img src=""images/choice_trial_9.png"" style=""width: 408px; height: 417px;""></div></div>",j,delaylearn,learning,trial,L5BiWRTWwlN5aqUcwJ2fULyUCly2,L5BiWRTWwlN5aqUcwJ2fULyUCly2,2.0,images/choice_trial_2.png,images/choice_trial_9.png,images/pattern_5.png,f,f,750.0,2.0,9.0,4.0,0.0,27.0,0.0,0.0,9.0,90.0,,,,,,5aeabf2c15a9c300011acbc3,09:07:04,27/02/2024
html-keyboard-response,151,329525,0.0-63.0-1.0,,"<div style=""display: flex; flex-direction: column; align-items: center; margin-top: -40px;""><img src=""images/pattern_5.png"" style=""width: 234px; height: 230px; margin-top: -50px;""><div style=""display: flex; justify-content: space-between; margin-top: 33px;""><img src=""images/choice_trial_9.png"" style=""width: 408px; height: 417px; margin-left:608px;""></div></div>",,delaylearn,learning,display_response,L5BiWRTWwlN5aqUcwJ2fULyUCly2,L5BiWRTWwlN5aqUcwJ2fULyUCly2,,,,,,,,,,,,,,,,,chosen stimuli: images/choice_trial_9.png,,,,,5aeabf2c15a9c300011acbc3,09:07:04,27/02/2024
html-keyboard-response,152,330280,0.0-63.0-2.0,,,,delaylearn,learning,feedback_duration_window,L5BiWRTWwlN5aqUcwJ2fULyUCly2,L5BiWRTWwlN5aqUcwJ2fULyUCly2,,,,,,,,,,,,,,,,,,750.0,,,,5aeabf2c15a9c300011acbc3,09:07:04,27/02/2024
html-keyboard-response,153,331783,0.0-63.0-3.0,,<div style='margin:auto;width: auto; font-size: 150%'><span style='font-weight: bold; font-size: 100px; color: red;'>0 points!</span><br><br></div>,,delaylearn,learning,feedback_image_window,L5BiWRTWwlN5aqUcwJ2fULyUCly2,L5BiWRTWwlN5aqUcwJ2fULyUCly2,,,,,,,,,,,,,,,,,,,,,,5aeabf2c15a9c300011acbc3,09:07:04,27/02/2024
html-keyboard-response,154,333375,0.0-64.0,,"<div style=""font-size:100px;"">+</div>",,delaylearn,learning,ITI,L5BiWRTWwlN5aqUcwJ2fULyUCly2,L5BiWRTWwlN5aqUcwJ2fULyUCly2,,,,,,,,,,,,,,,,,,,1582.0,,,5aeabf2c15a9c300011acbc3,09:07:04,27/02/2024
html-keyboard-response,155,336162,0.0-65.0-0.0,2784.0,"<div style=""display: flex; flex-direction: column; align-items: center; margin-top: -40px;""><img src=""images/pattern_6.png"" style=""width: 234px; height: 230px; margin-top: -50px;""><div style=""display: flex; justify-content: space-between; margin-top: 33px;""><img src=""images/choice_trial_5.png"" style=""width: 408px; height: 417px; margin-right: 200px;""><img src=""images/choice_trial_11.png"" style=""width: 408px; height: 417px;""></div></div>",f,delaylearn,learning,trial,L5BiWRTWwlN5aqUcwJ2fULyUCly2,L5BiWRTWwlN5aqUcwJ2fULyUCly2,2.0,images/choice_trial_5.png,images/choice_trial_11.png,images/pattern_6.png,j,j,750.0,5.0,11.0,5.0,1.0,28.0,0.0,0.0,5.0,90.0,,,,,,5aeabf2c15a9c300011acbc3,09:07:04,27/02/2024
html-keyboard-response,156,337177,0.0-65.0-1.0,,"<div style=""display: flex; flex-direction: column; align-items: center; margin-top: -40px;""><img src=""images/pattern_6.png"" style=""width: 234px; height: 230px; margin-top: -50px;""><div style=""display: flex; justify-content: space-between; margin-top: 33px;""><img src=""images/choice_trial_5.png"" style=""width: 408px; height: 417px; margin-right: 608px;""></div></div>",,delaylearn,learning,display_response,L5BiWRTWwlN5aqUcwJ2fULyUCly2,L5BiWRTWwlN5aqUcwJ2fULyUCly2,,,,,,,,,,,,,,,,,chosen stimuli: images/choice_trial_5.png,,,,,5aeabf2c15a9c300011acbc3,09:07:04,27/02/2024
html-keyboard-response,157,337939,0.0-65.0-2.0,,,,delaylearn,learning,feedback_duration_window,L5BiWRTWwlN5aqUcwJ2fULyUCly2,L5BiWRTWwlN5aqUcwJ2fULyUCly2,,,,,,,,,,,,,,,,,,750.0,,,,5aeabf2c15a9c300011acbc3,09:07:04,27/02/2024
html-keyboard-response,158,339449,0.0-65.0-3.0,,<div style='margin:auto;width: auto; font-size: 150%'><span style='font-weight: bold; font-size: 100px; color: red;'>0 points!</span><br><br></div>,,delaylearn,learning,feedback_image_window,L5BiWRTWwlN5aqUcwJ2fULyUCly2,L5BiWRTWwlN5aqUcwJ2fULyUCly2,,,,,,,,,,,,,,,,,,,,,,5aeabf2c15a9c300011acbc3,09:07:04,27/02/2024
html-keyboard-response,159,339951,0.0-66.0-0.0,,,,,,mood_trial_fixation,L5BiWRTWwlN5aqUcwJ2fULyUCly2,,,,,,,,,,,,,,,,,,,,,,,5aeabf2c15a9c300011acbc3,09:07:04,27/02/2024
lmdlab-html-vas-response,160,342686,0.0-66.0-1.0,1732.0,How happy are you right now?,0.505,delaylearn,learning,mood_trial,L5BiWRTWwlN5aqUcwJ2fULyUCly2,L5BiWRTWwlN5aqUcwJ2fULyUCly2,,,,,,,,,,,,,,,,,,,,"['Very unhappy', 'Very happy']",,5aeabf2c15a9c300011acbc3,09:07:04,27/02/2024
html-keyboard-response,161,344295,0.0-67.0,,"<div style=""font-size:100px;"">+</div>",,delaylearn,learning,ITI,L5BiWRTWwlN5aqUcwJ2fULyUCly2,L5BiWRTWwlN5aqUcwJ2fULyUCly2,,,,,,,,,,,,,,,,,,,1593.0,,,5aeabf2c15a9c300011acbc3,09:07:04,27/02/2024
html-keyboard-response,162,346366,0.0-68.0-0.0,2068.100000023842,"<div style=""display: flex; flex-direction: column; align-items: center; margin-top: -40px;""><img src=""images/pattern_4.png"" style=""width: 234px; height: 230px; margin-top: -50px;""><div style=""display: flex; justify-content: space-between; margin-top: 33px;""><img src=""images/choice_trial_16.png"" style=""width: 408px; height: 417px; margin-right: 200px;""><img src=""images/choice_trial_4.png"" style=""width: 408px; height: 417px;""></div></div>",j,delaylearn,learning,trial,L5BiWRTWwlN5aqUcwJ2fULyUCly2,L5BiWRTWwlN5aqUcwJ2fULyUCly2,2.0,images/choice_trial_16.png,images/choice_trial_4.png,images/pattern_4.png,j,j,7000.0,16.0,4.0,3.0,1.0,29.0,1.0,1.0,4.0,100.0,,,,,,5aeabf2c15a9c300011acbc3,09:07:04,27/02/2024
html-keyboard-response,163,347379,0.0-68.0-1.0,,"<div style=""display: flex; flex-direction: column; align-items: center; margin-top: -40px;""><img src=""images/pattern_4.png"" style=""width: 234px; height: 230px; margin-top: -50px;""><div style=""display: flex; justify-content: space-between; margin-top: 33px;""><img src=""images/choice_trial_4.png"" style=""width: 408px; height: 417px; margin-left:608px;""></div></div>",,delaylearn,learning,display_response,L5BiWRTWwlN5aqUcwJ2fULyUCly2,L5BiWRTWwlN5aqUcwJ2fULyUCly2,,,,,,,,,,,,,,,,,chosen stimuli: images/choice_trial_4.png,,,,,5aeabf2c15a9c300011acbc3,09:07:04,27/02/2024
html-keyboard-response,164,354380,0.0-68.0-2.0,,,,delaylearn,learning,feedback_duration_window,L5BiWRTWwlN5aqUcwJ2fULyUCly2,L5BiWRTWwlN5aqUcwJ2fULyUCly2,,,,,,,,,,,,,,,,,,7000.0,,,,5aeabf2c15a9c300011acbc3,09:07:04,27/02/2024
html-keyboard-response,165,355892,0.0-68.0-3.0,,<div style='margin:auto;width: auto; font-size: 150%'><span style='font-weight: bold; font-size: 100px; color: green;'>+10 points!</span><br><br></div>,,delaylearn,learning,feedback_image_window,L5BiWRTWwlN5aqUcwJ2fULyUCly2,L5BiWRTWwlN5aqUcwJ2fULyUCly2,,,,,,,,,,,,,,,,,,,,,,5aeabf2c15a9c300011acbc3,09:07:04,27/02/2024
html-keyboard-response,166,357517,0.0-69.0,,"<div style=""font-size:100px;"">+</div>",,delaylearn,learning,ITI,L5BiWRTWwlN5aqUcwJ2fULyUCly2,L5BiWRTWwlN5aqUcwJ2fULyUCly2,,,,,,,,,,,,,,,,,,,1612.0,,,5aeabf2c15a9c300011acbc3,09:07:04,27/02/2024
html-keyboard-response,167,359863,0.0-70.0-0.0,2343.400000035763,"<div style=""display: flex; flex-direction: column; align-items: center; margin-top: -40px;""><img src=""images/pattern_3.png"" style=""width: 234px; height: 230px; margin-top: -50px;""><div style=""display: flex; justify-content: space-between; margin-top: 33px;""><img src=""images/choice_trial_14.png"" style=""width: 408px; height: 417px; margin-right: 200px;""><img src=""images/choice_trial_12.png"" style=""width: 408px; height: 417px;""></div></div>",j,delaylearn,learning,trial,L5BiWRTWwlN5aqUcwJ2fULyUCly2,L5BiWRTWwlN5aqUcwJ2fULyUCly2,2.0,images/choice_trial_14.png,images/choice_trial_12.png,images/pattern_3.png,j,j,7000.0,14.0,12.0,2.0,1.0,30.0,1.0,1.0,12.0,110.0,,,,,,5aeabf2c15a9c300011acbc3,09:07:04,27/02/2024
html-keyboard-response,168,360870,0.0-70.0-1.0,,"<div style=""display: flex; flex-direction: column; align-items: center; margin-top: -40px;""><img src=""images/pattern_3.png"" style=""width: 234px; height: 230px; margin-top: -50px;""><div style=""display: flex; justify-content: space-between; margin-top: 33px;""><img src=""images/choice_trial_12.png"" style=""width: 408px; height: 417px; margin-left:608px;""></div></div>",,delaylearn,learning,display_response,L5BiWRTWwlN5aqUcwJ2fULyUCly2,L5BiWRTWwlN5aqUcwJ2fULyUCly2,,,,,,,,,,,,,,,,,chosen stimuli: images/choice_trial_12.png,,,,,5aeabf2c15a9c300011acbc3,09:07:04,27/02/2024
html-keyboard-response,169,367873,0.0-70.0-2.0,,,,delaylearn,learning,feedback_duration_window,L5BiWRTWwlN5aqUcwJ2fULyUCly2,L5BiWRTWwlN5aqUcwJ2fULyUCly2,,,,,,,,,,,,,,,,,,7000.0,,,,5aeabf2c15a9c300011acbc3,09:07:04,27/02/2024
html-keyboard-response,170,369390,0.0-70.0-3.0,,<div style='margin:auto;width: auto; font-size: 150%'><span style='font-weight: bold; font-size: 100px; color: green;'>+10 points!</span><br><br></div>,,delaylearn,learning,feedback_image_window,L5BiWRTWwlN5aqUcwJ2fULyUCly2,L5BiWRTWwlN5aqUcwJ2fULyUCly2,,,,,,,,,,,,,,,,,,,,,,5aeabf2c15a9c300011acbc3,09:07:04,27/02/2024
html-keyboard-response,171,371439,0.0-71.0,,"<div style=""font-size:100px;"">+</div>",,delaylearn,learning,ITI,L5BiWRTWwlN5aqUcwJ2fULyUCly2,L5BiWRTWwlN5aqUcwJ2fULyUCly2,,,,,,,,,,,,,,,,,,,2047.0,,,5aeabf2c15a9c300011acbc3,09:07:04,27/02/2024
html-keyboard-response,172,373042,0.0-72.0-0.0,1601.199999988079,"<div style=""display: flex; flex-direction: column; align-items: center; margin-top: -40px;""><img src=""images/pattern_5.png"" style=""width: 234px; height: 230px; margin-top: -50px;""><div style=""display: flex; justify-content: space-between; margin-top: 33px;""><img src=""images/choice_trial_2.png"" style=""width: 408px; height: 417px; margin-right: 200px;""><img src=""images/choice_trial_9.png"" style=""width: 408px; height: 417px;""></div></div>",f,delaylearn,learning,trial,L5BiWRTWwlN5aqUcwJ2fULyUCly2,L5BiWRTWwlN5aqUcwJ2fULyUCly2,2.0,images/choice_trial_2.png,images/choice_trial_9.png,images/pattern_5.png,j,f,750.0,2.0,9.0,4.0,0.0,31.0,1.0,0.0,2.0,110.0,,,,,,5aeabf2c15a9c300011acbc3,09:07:04,27/02/2024
html-keyboard-response,173,374047,0.0-72.0-1.0,,"<div style=""display: flex; flex-direction: column; align-items: center; margin-top: -40px;""><img src=""images/pattern_5.png"" style=""width: 234px; height: 230px; margin-top: -50px;""><div style=""display: flex; justify-content: space-between; margin-top: 33px;""><img src=""images/choice_trial_2.png"" style=""width: 408px; height: 417px; margin-right: 608px;""></div></div>",,delaylearn,learning,display_response,L5BiWRTWwlN5aqUcwJ2fULyUCly2,L5BiWRTWwlN5aqUcwJ2fULyUCly2,,,,,,,,,,,,,,,,,chosen stimuli: images/choice_trial_2.png,,,,,5aeabf2c15a9c300011acbc3,09:07:04,27/02/2024
html-keyboard-response,174,374805,0.0-72.0-2.0,,,,delaylearn,learning,feedback_duration_window,L5BiWRTWwlN5aqUcwJ2fULyUCly2,L5BiWRTWwlN5aqUcwJ2fULyUCly2,,,,,,,,,,,,,,,,,,750.0,,,,5aeabf2c15a9c300011acbc3,09:07:04,27/02/2024
html-keyboard-response,175,376310,0.0-72.0-3.0,,<div style='margin:auto;width: auto; font-size: 150%'><span style='font-weight: bold; font-size: 100px; color: red;'>0 points!</span><br><br></div>,,delaylearn,learning,feedback_image_window,L5BiWRTWwlN5aqUcwJ2fULyUCly2,L5BiWRTWwlN5aqUcwJ2fULyUCly2,,,,,,,,,,,,,,,,,,,,,,5aeabf2c15a9c300011acbc3,09:07:04,27/02/2024
html-keyboard-response,176,378045,0.0-73.0,,"<div style=""font-size:100px;"">+</div>",,delaylearn,learning,ITI,L5BiWRTWwlN5aqUcwJ2fULyUCly2,L5BiWRTWwlN5aqUcwJ2fULyUCly2,,,,,,,,,,,,,,,,,,,1720.0,,,5aeabf2c15a9c300011acbc3,09:07:04,27/02/2024
html-keyboard-response,177,380759,0.0-74.0-0.0,2711.600000023842,"<div style=""display: flex; flex-direction: column; align-items: center; margin-top: -40px;""><img src=""images/pattern_1.png"" style=""width: 234px; height: 230px; margin-top: -50px;""><div style=""display: flex; justify-content: space-between; margin-top: 33px;""><img src=""images/choice_trial_3.png"" style=""width: 408px; height: 417px; margin-right: 200px;""><img src=""images/choice_trial_10.png"" style=""width: 408px; height: 417px;""></div></div>",f,delaylearn,learning,trial,L5BiWRTWwlN5aqUcwJ2fULyUCly2,L5BiWRTWwlN5aqUcwJ2fULyUCly2,2.0,images/choice_trial_3.png,images/choice_trial_10.png,images/pattern_1.png,f,f,7000.0,3.0,10.0,1.0,0.0,32.0,1.0,1.0,3.0,120.0,,,,,,5aeabf2c15a9c300011acbc3,09:07:04,27/02/2024
html-keyboard-response,178,381776,0.0-74.0-1.0,,"<div style=""display: flex; flex-direction: column; align-items: center; margin-top: -40px;""><img src=""images/pattern_1.png"" style=""width: 234px; height: 230px; margin-top: -50px;""><div style=""display: flex; justify-content: space-between; margin-top: 33px;""><img src=""images/choice_trial_3.png"" style=""width: 408px; height: 417px; margin-right: 608px;""></div></div>",,delaylearn,learning,display_response,L5BiWRTWwlN5aqUcwJ2fULyUCly2,L5BiWRTWwlN5aqUcwJ2fULyUCly2,,,,,,,,,,,,,,,,,chosen stimuli: images/choice_trial_3.png,,,,,5aeabf2c15a9c300011acbc3,09:07:04,27/02/2024
html-keyboard-response,179,388792,0.0-74.0-2.0,,,,delaylearn,learning,feedback_duration_window,L5BiWRTWwlN5aqUcwJ2fULyUCly2,L5BiWRTWwlN5aqUcwJ2fULyUCly2,,,,,,,,,,,,,,,,,,7000.0,,,,5aeabf2c15a9c300011acbc3,09:07:04,27/02/2024
html-keyboard-response,180,390301,0.0-74.0-3.0,,<div style='margin:auto;width: auto; font-size: 150%'><span style='font-weight: bold; font-size: 100px; color: green;'>+10 points!</span><br><br></div>,,delaylearn,learning,feedback_image_window,L5BiWRTWwlN5aqUcwJ2fULyUCly2,L5BiWRTWwlN5aqUcwJ2fULyUCly2,,,,,,,,,,,,,,,,,,,,,,5aeabf2c15a9c300011acbc3,09:07:04,27/02/2024
html-keyboard-response,181,390804,0.0-75.0-0.0,,,,,,mood_trial_fixation,L5BiWRTWwlN5aqUcwJ2fULyUCly2,,,,,,,,,,,,,,,,,,,,,,,5aeabf2c15a9c300011acbc3,09:07:04,27/02/2024
lmdlab-html-vas-response,182,394805,0.0-75.0-1.0,2993.0,How happy are you right now?,0.6016666666666667,delaylearn,learning,mood_trial,L5BiWRTWwlN5aqUcwJ2fULyUCly2,L5BiWRTWwlN5aqUcwJ2fULyUCly2,,,,,,,,,,,,,,,,,,,,"['Very unhappy', 'Very happy']",,5aeabf2c15a9c300011acbc3,09:07:04,27/02/2024
html-keyboard-response,183,397251,0.0-76.0,,"<div style=""font-size:100px;"">+</div>",,delaylearn,learning,ITI,L5BiWRTWwlN5aqUcwJ2fULyUCly2,L5BiWRTWwlN5aqUcwJ2fULyUCly2,,,,,,,,,,,,,,,,,,,2439.0,,,5aeabf2c15a9c300011acbc3,09:07:04,27/02/2024
html-keyboard-response,184,399237,0.0-77.0-0.0,1983.8999999761581,"<div style=""display: flex; flex-direction: column; align-items: center; margin-top: -40px;""><img src=""images/pattern_6.png"" style=""width: 234px; height: 230px; margin-top: -50px;""><div style=""display: flex; justify-content: space-between; margin-top: 33px;""><img src=""images/choice_trial_11.png"" style=""width: 408px; height: 417px; margin-right: 200px;""><img src=""images/choice_trial_5.png"" style=""width: 408px; height: 417px;""></div></div>",f,delaylearn,learning,trial,L5BiWRTWwlN5aqUcwJ2fULyUCly2,L5BiWRTWwlN5aqUcwJ2fULyUCly2,2.0,images/choice_trial_11.png,images/choice_trial_5.png,images/pattern_6.png,j,f,750.0,11.0,5.0,5.0,0.0,33.0,1.0,0.0,11.0,120.0,,,,,,5aeabf2c15a9c300011acbc3,09:07:04,27/02/2024
html-keyboard-response,185,400253,0.0-77.0-1.0,,"<div style=""display: flex; flex-direction: column; align-items: center; margin-top: -40px;""><img src=""images/pattern_6.png"" style=""width: 234px; height: 230px; margin-top: -50px;""><div style=""display: flex; justify-content: space-between; margin-top: 33px;""><img src=""images/choice_trial_11.png"" style=""width: 408px; height: 417px; margin-right: 608px;""></div></div>",,delaylearn,learning,display_response,L5BiWRTWwlN5aqUcwJ2fULyUCly2,L5BiWRTWwlN5aqUcwJ2fULyUCly2,,,,,,,,,,,,,,,,,chosen stimuli: images/choice_trial_11.png,,,,,5aeabf2c15a9c300011acbc3,09:07:04,27/02/2024
html-keyboard-response,186,401010,0.0-77.0-2.0,,,,delaylearn,learning,feedback_duration_window,L5BiWRTWwlN5aqUcwJ2fULyUCly2,L5BiWRTWwlN5aqUcwJ2fULyUCly2,,,,,,,,,,,,,,,,,,750.0,,,,5aeabf2c15a9c300011acbc3,09:07:04,27/02/2024
html-keyboard-response,187,402516,0.0-77.0-3.0,,<div style='margin:auto;width: auto; font-size: 150%'><span style='font-weight: bold; font-size: 100px; color: red;'>0 points!</span><br><br></div>,,delaylearn,learning,feedback_image_window,L5BiWRTWwlN5aqUcwJ2fULyUCly2,L5BiWRTWwlN5aqUcwJ2fULyUCly2,,,,,,,,,,,,,,,,,,,,,,5aeabf2c15a9c300011acbc3,09:07:04,27/02/2024
html-keyboard-response,188,404316,0.0-78.0,,"<div style=""font-size:100px;"">+</div>",,delaylearn,learning,ITI,L5BiWRTWwlN5aqUcwJ2fULyUCly2,L5BiWRTWwlN5aqUcwJ2fULyUCly2,,,,,,,,,,,,,,,,,,,1795.0,,,5aeabf2c15a9c300011acbc3,09:07:04,27/02/2024
html-keyboard-response,189,406195,0.0-79.0-0.0,1876.8999999761581,"<div style=""display: flex; flex-direction: column; align-items: center; margin-top: -40px;""><img src=""images/pattern_3.png"" style=""width: 234px; height: 230px; margin-top: -50px;""><div style=""display: flex; justify-content: space-between; margin-top: 33px;""><img src=""images/choice_trial_14.png"" style=""width: 408px; height: 417px; margin-right: 200px;""><img src=""images/choice_trial_12.png"" style=""width: 408px; height: 417px;""></div></div>",j,delaylearn,learning,trial,L5BiWRTWwlN5aqUcwJ2fULyUCly2,L5BiWRTWwlN5aqUcwJ2fULyUCly2,2.0,images/choice_trial_14.png,images/choice_trial_12.png,images/pattern_3.png,j,j,7000.0,14.0,12.0,2.0,1.0,34.0,1.0,1.0,12.0,130.0,,,,,,5aeabf2c15a9c300011acbc3,09:07:04,27/02/2024
html-keyboard-response,190,407207,0.0-79.0-1.0,,"<div style=""display: flex; flex-direction: column; align-items: center; margin-top: -40px;""><img src=""images/pattern_3.png"" style=""width: 234px; height: 230px; margin-top: -50px;""><div style=""display: flex; justify-content: space-between; margin-top: 33px;""><img src=""images/choice_trial_12.png"" style=""width: 408px; height: 417px; margin-left:608px;""></div></div>",,delaylearn,learning,display_response,L5BiWRTWwlN5aqUcwJ2fULyUCly2,L5BiWRTWwlN5aqUcwJ2fULyUCly2,,,,,,,,,,,,,,,,,chosen stimuli: images/choice_trial_12.png,,,,,5aeabf2c15a9c300011acbc3,09:07:04,27/02/2024
html-keyboard-response,191,414215,0.0-79.0-2.0,,,,delaylearn,learning,feedback_duration_window,L5BiWRTWwlN5aqUcwJ2fULyUCly2,L5BiWRTWwlN5aqUcwJ2fULyUCly2,,,,,,,,,,,,,,,,,,7000.0,,,,5aeabf2c15a9c300011acbc3,09:07:04,27/02/2024
html-keyboard-response,192,415726,0.0-79.0-3.0,,<div style='margin:auto;width: auto; font-size: 150%'><span style='font-weight: bold; font-size: 100px; color: green;'>+10 points!</span><br><br></div>,,delaylearn,learning,feedback_image_window,L5BiWRTWwlN5aqUcwJ2fULyUCly2,L5BiWRTWwlN5aqUcwJ2fULyUCly2,,,,,,,,,,,,,,,,,,,,,,5aeabf2c15a9c300011acbc3,09:07:04,27/02/2024
html-keyboard-response,193,417262,0.0-80.0,,"<div style=""font-size:100px;"">+</div>",,delaylearn,learning,ITI,L5BiWRTWwlN5aqUcwJ2fULyUCly2,L5BiWRTWwlN5aqUcwJ2fULyUCly2,,,,,,,,,,,,,,,,,,,1523.0,,,5aeabf2c15a9c300011acbc3,09:07:04,27/02/2024
html-keyboard-response,194,419553,0.0-81.0-0.0,2289.100000023842,"<div style=""display: flex; flex-direction: column; align-items: center; margin-top: -40px;""><img src=""images/pattern_4.png"" style=""width: 234px; height: 230px; margin-top: -50px;""><div style=""display: flex; justify-content: space-between; margin-top: 33px;""><img src=""images/choice_trial_16.png"" style=""width: 408px; height: 417px; margin-right: 200px;""><img src=""images/choice_trial_4.png"" style=""width: 408px; height: 417px;""></div></div>",f,delaylearn,learning,trial,L5BiWRTWwlN5aqUcwJ2fULyUCly2,L5BiWRTWwlN5aqUcwJ2fULyUCly2,2.0,images/choice_trial_16.png,images/choice_trial_4.png,images/pattern_4.png,f,j,7000.0,16.0,4.0,3.0,1.0,35.0,0.0,1.0,16.0,140.0,,,,,,5aeabf2c15a9c300011acbc3,09:07:04,27/02/2024
html-keyboard-response,195,420559,0.0-81.0-1.0,,"<div style=""display: flex; flex-direction: column; align-items: center; margin-top: -40px;""><img src=""images/pattern_4.png"" style=""width: 234px; height: 230px; margin-top: -50px;""><div style=""display: flex; justify-content: space-between; margin-top: 33px;""><img src=""images/choice_trial_16.png"" style=""width: 408px; height: 417px; margin-right: 608px;""></div></div>",,delaylearn,learning,display_response,L5BiWRTWwlN5aqUcwJ2fULyUCly2,L5BiWRTWwlN5aqUcwJ2fULyUCly2,,,,,,,,,,,,,,,,,chosen stimuli: images/choice_trial_16.png,,,,,5aeabf2c15a9c300011acbc3,09:07:04,27/02/2024
html-keyboard-response,196,427568,0.0-81.0-2.0,,,,delaylearn,learning,feedback_duration_window,L5BiWRTWwlN5aqUcwJ2fULyUCly2,L5BiWRTWwlN5aqUcwJ2fULyUCly2,,,,,,,,,,,,,,,,,,7000.0,,,,5aeabf2c15a9c300011acbc3,09:07:04,27/02/2024
html-keyboard-response,197,429084,0.0-81.0-3.0,,<div style='margin:auto;width: auto; font-size: 150%'><span style='font-weight: bold; font-size: 100px; color: green;'>+10 points!</span><br><br></div>,,delaylearn,learning,feedback_image_window,L5BiWRTWwlN5aqUcwJ2fULyUCly2,L5BiWRTWwlN5aqUcwJ2fULyUCly2,,,,,,,,,,,,,,,,,,,,,,5aeabf2c15a9c300011acbc3,09:07:04,27/02/2024
html-keyboard-response,198,431226,0.0-82.0,,"<div style=""font-size:100px;"">+</div>",,delaylearn,learning,ITI,L5BiWRTWwlN5aqUcwJ2fULyUCly2,L5BiWRTWwlN5aqUcwJ2fULyUCly2,,,,,,,,,,,,,,,,,,,2138.0,,,5aeabf2c15a9c300011acbc3,09:07:04,27/02/2024
html-keyboard-response,199,433562,0.0-83.0-0.0,2333.699999988079,"<div style=""display: flex; flex-direction: column; align-items: center; margin-top: -40px;""><img src=""images/pattern_7.png"" style=""width: 234px; height: 230px; margin-top: -50px;""><div style=""display: flex; justify-content: space-between; margin-top: 33px;""><img src=""images/choice_trial_8.png"" style=""width: 408px; height: 417px; margin-right: 200px;""><img src=""images/choice_trial_15.png"" style=""width: 408px; height: 417px;""></div></div>",f,delaylearn,learning,trial,L5BiWRTWwlN5aqUcwJ2fULyUCly2,L5BiWRTWwlN5aqUcwJ2fULyUCly2,2.0,images/choice_trial_8.png,images/choice_trial_15.png,images/pattern_7.png,f,f,750.0,8.0,15.0,6.0,0.0,36.0,1.0,1.0,8.0,150.0,,,,,,5aeabf2c15a9c300011acbc3,09:07:04,27/02/2024
html-keyboard-response,200,434565,0.0-83.0-1.0,,"<div style=""display: flex; flex-direction: column; align-items: center; margin-top: -40px;""><img src=""images/pattern_7.png"" style=""width: 234px; height: 230px; margin-top: -50px;""><div style=""display: flex; justify-content: space-between; margin-top: 33px;""><img src=""images/choice_trial_8.png"" style=""width: 408px; height: 417px; margin-right: 608px;""></div></div>",,delaylearn,learning,display_response,L5BiWRTWwlN5aqUcwJ2fULyUCly2,L5BiWRTWwlN5aqUcwJ2fULyUCly2,,,,,,,,,,,,,,,,,chosen stimuli: images/choice_trial_8.png,,,,,5aeabf2c15a9c300011acbc3,09:07:04,27/02/2024
html-keyboard-response,201,435331,0.0-83.0-2.0,,,,delaylearn,learning,feedback_duration_window,L5BiWRTWwlN5aqUcwJ2fULyUCly2,L5BiWRTWwlN5aqUcwJ2fULyUCly2,,,,,,,,,,,,,,,,,,750.0,,,,5aeabf2c15a9c300011acbc3,09:07:04,27/02/2024
html-keyboard-response,202,436838,0.0-83.0-3.0,,<div style='margin:auto;width: auto; font-size: 150%'><span style='font-weight: bold; font-size: 100px; color: green;'>+10 points!</span><br><br></div>,,delaylearn,learning,feedback_image_window,L5BiWRTWwlN5aqUcwJ2fULyUCly2,L5BiWRTWwlN5aqUcwJ2fULyUCly2,,,,,,,,,,,,,,,,,,,,,,5aeabf2c15a9c300011acbc3,09:07:04,27/02/2024
html-keyboard-response,203,438814,0.0-84.0,,"<div style=""font-size:100px;"">+</div>",,delaylearn,learning,ITI,L5BiWRTWwlN5aqUcwJ2fULyUCly2,L5BiWRTWwlN5aqUcwJ2fULyUCly2,,,,,,,,,,,,,,,,,,,1963.0,,,5aeabf2c15a9c300011acbc3,09:07:04,27/02/2024
html-keyboard-response,204,440741,0.0-85.0-0.0,1923.4000000357628,"<div style=""display: flex; flex-direction: column; align-items: center; margin-top: -40px;""><img src=""images/pattern_1.png"" style=""width: 234px; height: 230px; margin-top: -50px;""><div style=""display: flex; justify-content: space-between; margin-top: 33px;""><img src=""images/choice_trial_3.png"" style=""width: 408px; height: 417px; margin-right: 200px;""><img src=""images/choice_trial_10.png"" style=""width: 408px; height: 417px;""></div></div>",f,delaylearn,learning,trial,L5BiWRTWwlN5aqUcwJ2fULyUCly2,L5BiWRTWwlN5aqUcwJ2fULyUCly2,2.0,images/choice_trial_3.png,images/choice_trial_10.png,images/pattern_1.png,f,f,7000.0,3.0,10.0,1.0,0.0,37.0,1.0,1.0,3.0,160.0,,,,,,5aeabf2c15a9c300011acbc3,09:07:04,27/02/2024
html-keyboard-response,205,441743,0.0-85.0-1.0,,"<div style=""display: flex; flex-direction: column; align-items: center; margin-top: -40px;""><img src=""images/pattern_1.png"" style=""width: 234px; height: 230px; margin-top: -50px;""><div style=""display: flex; justify-content: space-between; margin-top: 33px;""><img src=""images/choice_trial_3.png"" style=""width: 408px; height: 417px; margin-right: 608px;""></div></div>",,delaylearn,learning,display_response,L5BiWRTWwlN5aqUcwJ2fULyUCly2,L5BiWRTWwlN5aqUcwJ2fULyUCly2,,,,,,,,,,,,,,,,,chosen stimuli: images/choice_trial_3.png,,,,,5aeabf2c15a9c300011acbc3,09:07:04,27/02/2024
html-keyboard-response,206,448758,0.0-85.0-2.0,,,,delaylearn,learning,feedback_duration_window,L5BiWRTWwlN5aqUcwJ2fULyUCly2,L5BiWRTWwlN5aqUcwJ2fULyUCly2,,,,,,,,,,,,,,,,,,7000.0,,,,5aeabf2c15a9c300011acbc3,09:07:04,27/02/2024
html-keyboard-response,207,450262,0.0-85.0-3.0,,<div style='margin:auto;width: auto; font-size: 150%'><span style='font-weight: bold; font-size: 100px; color: green;'>+10 points!</span><br><br></div>,,delaylearn,learning,feedback_image_window,L5BiWRTWwlN5aqUcwJ2fULyUCly2,L5BiWRTWwlN5aqUcwJ2fULyUCly2,,,,,,,,,,,,,,,,,,,,,,5aeabf2c15a9c300011acbc3,09:07:04,27/02/2024
html-keyboard-response,208,450775,0.0-86.0-0.0,,,,,,mood_trial_fixation,L5BiWRTWwlN5aqUcwJ2fULyUCly2,,,,,,,,,,,,,,,,,,,,,,,5aeabf2c15a9c300011acbc3,09:07:04,27/02/2024
lmdlab-html-vas-response,209,453866,0.0-86.0-1.0,2074.0,How happy are you right now?,0.65,delaylearn,learning,mood_trial,L5BiWRTWwlN5aqUcwJ2fULyUCly2,L5BiWRTWwlN5aqUcwJ2fULyUCly2,,,,,,,,,,,,,,,,,,,,"['Very unhappy', 'Very happy']",,5aeabf2c15a9c300011acbc3,09:07:04,27/02/2024
html-keyboard-response,210,456058,0.0-87.0,,"<div style=""font-size:100px;"">+</div>",,delaylearn,learning,ITI,L5BiWRTWwlN5aqUcwJ2fULyUCly2,L5BiWRTWwlN5aqUcwJ2fULyUCly2,,,,,,,,,,,,,,,,,,,2179.0,,,5aeabf2c15a9c300011acbc3,09:07:04,27/02/2024
html-keyboard-response,211,457959,0.0-88.0-0.0,1898.0,"<div style=""display: flex; flex-direction: column; align-items: center; margin-top: -40px;""><img src=""images/pattern_3.png"" style=""width: 234px; height: 230px; margin-top: -50px;""><div style=""display: flex; justify-content: space-between; margin-top: 33px;""><img src=""images/choice_trial_12.png"" style=""width: 408px; height: 417px; margin-right: 200px;""><img src=""images/choice_trial_14.png"" style=""width: 408px; height: 417px;""></div></div>",f,delaylearn,learning,trial,L5BiWRTWwlN5aqUcwJ2fULyUCly2,L5BiWRTWwlN5aqUcwJ2fULyUCly2,2.0,images/choice_trial_12.png,images/choice_trial_14.png,images/pattern_3.png,j,f,7000.0,12.0,14.0,2.0,0.0,38.0,1.0,0.0,12.0,160.0,,,,,,5aeabf2c15a9c300011acbc3,09:07:04,27/02/2024
html-keyboard-response,212,458975,0.0-88.0-1.0,,"<div style=""display: flex; flex-direction: column; align-items: center; margin-top: -40px;""><img src=""images/pattern_3.png"" style=""width: 234px; height: 230px; margin-top: -50px;""><div style=""display: flex; justify-content: space-between; margin-top: 33px;""><img src=""images/choice_trial_12.png"" style=""width: 408px; height: 417px; margin-right: 608px;""></div></div>",,delaylearn,learning,display_response,L5BiWRTWwlN5aqUcwJ2fULyUCly2,L5BiWRTWwlN5aqUcwJ2fULyUCly2,,,,,,,,,,,,,,,,,chosen stimuli: images/choice_trial_12.png,,,,,5aeabf2c15a9c300011acbc3,09:07:04,27/02/2024
html-keyboard-response,213,465991,0.0-88.0-2.0,,,,delaylearn,learning,feedback_duration_window,L5BiWRTWwlN5aqUcwJ2fULyUCly2,L5BiWRTWwlN5aqUcwJ2fULyUCly2,,,,,,,,,,,,,,,,,,7000.0,,,,5aeabf2c15a9c300011acbc3,09:07:04,27/02/2024
html-keyboard-response,214,467501,0.0-88.0-3.0,,<div style='margin:auto;width: auto; font-size: 150%'><span style='font-weight: bold; font-size: 100px; color: red;'>0 points!</span><br><br></div>,,delaylearn,learning,feedback_image_window,L5BiWRTWwlN5aqUcwJ2fULyUCly2,L5BiWRTWwlN5aqUcwJ2fULyUCly2,,,,,,,,,,,,,,,,,,,,,,5aeabf2c15a9c300011acbc3,09:07:04,27/02/2024
html-keyboard-response,215,469690,0.0-89.0,,"<div style=""font-size:100px;"">+</div>",,delaylearn,learning,ITI,L5BiWRTWwlN5aqUcwJ2fULyUCly2,L5BiWRTWwlN5aqUcwJ2fULyUCly2,,,,,,,,,,,,,,,,,,,2175.0,,,5aeabf2c15a9c300011acbc3,09:07:04,27/02/2024
html-keyboard-response,216,471939,0.0-90.0-0.0,2247.0,"<div style=""display: flex; flex-direction: column; align-items: center; margin-top: -40px;""><img src=""images/pattern_7.png"" style=""width: 234px; height: 230px; margin-top: -50px;""><div style=""display: flex; justify-content: space-between; margin-top: 33px;""><img src=""images/choice_trial_15.png"" style=""width: 408px; height: 417px; margin-right: 200px;""><img src=""images/choice_trial_8.png"" style=""width: 408px; height: 417px;""></div></div>",j,delaylearn,learning,trial,L5BiWRTWwlN5aqUcwJ2fULyUCly2,L5BiWRTWwlN5aqUcwJ2fULyUCly2,2.0,images/choice_trial_15.png,images/choice_trial_8.png,images/pattern_7.png,j,j,750.0,15.0,8.0,6.0,1.0,39.0,1.0,1.0,8.0,170.0,,,,,,5aeabf2c15a9c300011acbc3,09:07:04,27/02/2024
html-keyboard-response,217,472945,0.0-90.0-1.0,,"<div style=""display: flex; flex-direction: column; align-items: center; margin-top: -40px;""><img src=""images/pattern_7.png"" style=""width: 234px; height: 230px; margin-top: -50px;""><div style=""display: flex; justify-content: space-between; margin-top: 33px;""><img src=""images/choice_trial_8.png"" style=""width: 408px; height: 417px; margin-left:608px;""></div></div>",,delaylearn,learning,display_response,L5BiWRTWwlN5aqUcwJ2fULyUCly2,L5BiWRTWwlN5aqUcwJ2fULyUCly2,,,,,,,,,,,,,,,,,chosen stimuli: images/choice_trial_8.png,,,,,5aeabf2c15a9c300011acbc3,09:07:04,27/02/2024
html-keyboard-response,218,473712,0.0-90.0-2.0,,,,delaylearn,learning,feedback_duration_window,L5BiWRTWwlN5aqUcwJ2fULyUCly2,L5BiWRTWwlN5aqUcwJ2fULyUCly2,,,,,,,,,,,,,,,,,,750.0,,,,5aeabf2c15a9c300011acbc3,09:07:04,27/02/2024
html-keyboard-response,219,475226,0.0-90.0-3.0,,<div style='margin:auto;width: auto; font-size: 150%'><span style='font-weight: bold; font-size: 100px; color: green;'>+10 points!</span><br><br></div>,,delaylearn,learning,feedback_image_window,L5BiWRTWwlN5aqUcwJ2fULyUCly2,L5BiWRTWwlN5aqUcwJ2fULyUCly2,,,,,,,,,,,,,,,,,,,,,,5aeabf2c15a9c300011acbc3,09:07:04,27/02/2024
html-keyboard-response,220,477072,0.0-91.0,,"<div style=""font-size:100px;"">+</div>",,delaylearn,learning,ITI,L5BiWRTWwlN5aqUcwJ2fULyUCly2,L5BiWRTWwlN5aqUcwJ2fULyUCly2,,,,,,,,,,,,,,,,,,,1843.0,,,5aeabf2c15a9c300011acbc3,09:07:04,27/02/2024
html-keyboard-response,221,478423,0.0-92.0-0.0,1348.800000011921,"<div style=""display: flex; flex-direction: column; align-items: center; margin-top: -40px;""><img src=""images/pattern_5.png"" style=""width: 234px; height: 230px; margin-top: -50px;""><div style=""display: flex; justify-content: space-between; margin-top: 33px;""><img src=""images/choice_trial_9.png"" style=""width: 408px; height: 417px; margin-right: 200px;""><img src=""images/choice_trial_2.png"" style=""width: 408px; height: 417px;""></div></div>",j,delaylearn,learning,trial,L5BiWRTWwlN5aqUcwJ2fULyUCly2,L5BiWRTWwlN5aqUcwJ2fULyUCly2,2.0,images/choice_trial_9.png,images/choice_trial_2.png,images/pattern_5.png,j,j,750.0,9.0,2.0,4.0,1.0,40.0,1.0,1.0,2.0,180.0,,,,,,5aeabf2c15a9c300011acbc3,09:07:04,27/02/2024
html-keyboard-response,222,479437,0.0-92.0-1.0,,"<div style=""display: flex; flex-direction: column; align-items: center; margin-top: -40px;""><img src=""images/pattern_5.png"" style=""width: 234px; height: 230px; margin-top: -50px;""><div style=""display: flex; justify-content: space-between; margin-top: 33px;""><img src=""images/choice_trial_2.png"" style=""width: 408px; height: 417px; margin-left:608px;""></div></div>",,delaylearn,learning,display_response,L5BiWRTWwlN5aqUcwJ2fULyUCly2,L5BiWRTWwlN5aqUcwJ2fULyUCly2,,,,,,,,,,,,,,,,,chosen stimuli: images/choice_trial_2.png,,,,,5aeabf2c15a9c300011acbc3,09:07:04,27/02/2024
html-keyboard-response,223,480201,0.0-92.0-2.0,,,,delaylearn,learning,feedback_duration_window,L5BiWRTWwlN5aqUcwJ2fULyUCly2,L5BiWRTWwlN5aqUcwJ2fULyUCly2,,,,,,,,,,,,,,,,,,750.0,,,,5aeabf2c15a9c300011acbc3,09:07:04,27/02/2024
html-keyboard-response,224,481719,0.0-92.0-3.0,,<div style='margin:auto;width: auto; font-size: 150%'><span style='font-weight: bold; font-size: 100px; color: green;'>+10 points!</span><br><br></div>,,delaylearn,learning,feedback_image_window,L5BiWRTWwlN5aqUcwJ2fULyUCly2,L5BiWRTWwlN5aqUcwJ2fULyUCly2,,,,,,,,,,,,,,,,,,,,,,5aeabf2c15a9c300011acbc3,09:07:04,27/02/2024
html-keyboard-response,225,482233,0.0-93.0-0.0,,,,,,mood_trial_fixation,L5BiWRTWwlN5aqUcwJ2fULyUCly2,,,,,,,,,,,,,,,,,,,,,,,5aeabf2c15a9c300011acbc3,09:07:04,27/02/2024
lmdlab-html-vas-response,226,486897,0.0-93.0-1.0,3653.0,How happy are you right now?,0.6883333333333334,delaylearn,learning,mood_trial,L5BiWRTWwlN5aqUcwJ2fULyUCly2,L5BiWRTWwlN5aqUcwJ2fULyUCly2,,,,,,,,,,,,,,,,,,,,"['Very unhappy', 'Very happy']",,5aeabf2c15a9c300011acbc3,09:07:04,27/02/2024
html-keyboard-response,227,488697,0.0-94.0,,"<div style=""font-size:100px;"">+</div>",,delaylearn,learning,ITI,L5BiWRTWwlN5aqUcwJ2fULyUCly2,L5BiWRTWwlN5aqUcwJ2fULyUCly2,,,,,,,,,,,,,,,,,,,1788.0,,,5aeabf2c15a9c300011acbc3,09:07:04,27/02/2024
html-keyboard-response,228,490116,0.0-95.0-0.0,1416.199999988079,"<div style=""display: flex; flex-direction: column; align-items: center; margin-top: -40px;""><img src=""images/pattern_4.png"" style=""width: 234px; height: 230px; margin-top: -50px;""><div style=""display: flex; justify-content: space-between; margin-top: 33px;""><img src=""images/choice_trial_4.png"" style=""width: 408px; height: 417px; margin-right: 200px;""><img src=""images/choice_trial_16.png"" style=""width: 408px; height: 417px;""></div></div>",j,delaylearn,learning,trial,L5BiWRTWwlN5aqUcwJ2fULyUCly2,L5BiWRTWwlN5aqUcwJ2fULyUCly2,2.0,images/choice_trial_4.png,images/choice_trial_16.png,images/pattern_4.png,f,f,7000.0,4.0,16.0,3.0,0.0,41.0,0.0,0.0,16.0,180.0,,,,,,5aeabf2c15a9c300011acbc3,09:07:04,27/02/2024
html-keyboard-response,229,491123,0.0-95.0-1.0,,"<div style=""display: flex; flex-direction: column; align-items: center; margin-top: -40px;""><img src=""images/pattern_4.png"" style=""width: 234px; height: 230px; margin-top: -50px;""><div style=""display: flex; justify-content: space-between; margin-top: 33px;""><img src=""images/choice_trial_16.png"" style=""width: 408px; height: 417px; margin-left:608px;""></div></div>",,delaylearn,learning,display_response,L5BiWRTWwlN5aqUcwJ2fULyUCly2,L5BiWRTWwlN5aqUcwJ2fULyUCly2,,,,,,,,,,,,,,,,,chosen stimuli: images/choice_trial_16.png,,,,,5aeabf2c15a9c300011acbc3,09:07:04,27/02/2024
html-keyboard-response,230,498125,0.0-95.0-2.0,,,,delaylearn,learning,feedback_duration_window,L5BiWRTWwlN5aqUcwJ2fULyUCly2,L5BiWRTWwlN5aqUcwJ2fULyUCly2,,,,,,,,,,,,,,,,,,7000.0,,,,5aeabf2c15a9c300011acbc3,09:07:04,27/02/2024
html-keyboard-response,231,499635,0.0-95.0-3.0,,<div style='margin:auto;width: auto; font-size: 150%'><span style='font-weight: bold; font-size: 100px; color: red;'>0 points!</span><br><br></div>,,delaylearn,learning,feedback_image_window,L5BiWRTWwlN5aqUcwJ2fULyUCly2,L5BiWRTWwlN5aqUcwJ2fULyUCly2,,,,,,,,,,,,,,,,,,,,,,5aeabf2c15a9c300011acbc3,09:07:04,27/02/2024
html-keyboard-response,232,501684,0.0-96.0,,"<div style=""font-size:100px;"">+</div>",,delaylearn,learning,ITI,L5BiWRTWwlN5aqUcwJ2fULyUCly2,L5BiWRTWwlN5aqUcwJ2fULyUCly2,,,,,,,,,,,,,,,,,,,2043.0,,,5aeabf2c15a9c300011acbc3,09:07:04,27/02/2024
html-keyboard-response,233,503930,0.0-97.0-0.0,2242.899999976158,"<div style=""display: flex; flex-direction: column; align-items: center; margin-top: -40px;""><img src=""images/pattern_6.png"" style=""width: 234px; height: 230px; margin-top: -50px;""><div style=""display: flex; justify-content: space-between; margin-top: 33px;""><img src=""images/choice_trial_5.png"" style=""width: 408px; height: 417px; margin-right: 200px;""><img src=""images/choice_trial_11.png"" style=""width: 408px; height: 417px;""></div></div>",f,delaylearn,learning,trial,L5BiWRTWwlN5aqUcwJ2fULyUCly2,L5BiWRTWwlN5aqUcwJ2fULyUCly2,2.0,images/choice_trial_5.png,images/choice_trial_11.png,images/pattern_6.png,j,j,750.0,5.0,11.0,5.0,1.0,42.0,0.0,0.0,5.0,180.0,,,,,,5aeabf2c15a9c300011acbc3,09:07:04,27/02/2024
