trial_type,trial_index,time_elapsed,internal_node_id,rt,stimulus,response,exp_name,exp_stage,test_part,subjectID,databaseID,counterbal,choice_stimuli_1,choice_stimuli_2,pattern_stimuli,rewarded_answer,correct_answer,feedback_duration_times,stim_left,stim_right,pair,leftright_counter,trial,response_correct,response_rewarded,chosen_stim,counter,displayed_choice,feedback_durations,ITI_duration,labels,rest_warning,prolificID,start_time,date
pavlovia,0,498,0.0-0.0,,,,,,,b3w8Y3DxHEPjg1k6C7434QFwnct1,,,,,,,,,,,,,,,,,,,,,,,61bb376b40db417c1a138a52,16:48:54,27/03/2024
html-keyboard-response,1,3507,0.0-1.0,,"<div style=""font-size:100px;"">+</div>",,delaylearn,learning,pre_fixation,b3w8Y3DxHEPjg1k6C7434QFwnct1,,,,,,,,,,,,,,,,,,,,,,,61bb376b40db417c1a138a52,16:48:54,27/03/2024
html-keyboard-response,2,5143,0.0-2.0-0.0,1633.3999999910593,"<div style=""display: flex; flex-direction: column; align-items: center; margin-top: -40px;""><img src=""images/demo_images/pattern_1.png"" style=""width: 234px; height: 230px; margin-top: -50px;""><div style=""display: flex; justify-content: space-between; margin-top: 33px;""><img src=""images/demo_images/choice_trial_2.png"" style=""width: 408px; height: 417px; margin-right: 200px;""><img src=""images/demo_images/choice_trial_1.png"" style=""width: 408px; height: 417px;""></div></div>",f,delaylearn,learning,trial,b3w8Y3DxHEPjg1k6C7434QFwnct1,b3w8Y3DxHEPjg1k6C7434QFwnct1,1.0,images/demo_images/choice_trial_2.png,images/demo_images/choice_trial_1.png,images/demo_images/pattern_1.png,j,j,3000.0,2.0,1.0,20.0,1.0,1.0,0.0,0.0,2.0,0.0,,,,,,61bb376b40db417c1a138a52,16:48:54,27/03/2024
html-keyboard-response,3,6157,0.0-2.0-1.0,,"<div style=""display: flex; flex-direction: column; align-items: center; margin-top: -40px;""><img src=""images/demo_images/pattern_1.png"" style=""width: 234px; height: 230px; margin-top: -50px;""><div style=""display: flex; justify-content: space-between; margin-top: 33px;""><img src=""images/demo_images/choice_trial_2.png"" style=""width: 408px; height: 417px; margin-right: 608px;""></div></div>",,delaylearn,learning,display_response,b3w8Y3DxHEPjg1k6C7434QFwnct1,b3w8Y3DxHEPjg1k6C7434QFwnct1,,,,,,,,,,,,,,,,,chosen stimuli: images/demo_images/choice_trial_2.png,,,,,61bb376b40db417c1a138a52,16:48:54,27/03/2024
html-keyboard-response,4,9164,0.0-2.0-2.0,,,,delaylearn,learning,feedback_duration_window,b3w8Y3DxHEPjg1k6C7434QFwnct1,b3w8Y3DxHEPjg1k6C7434QFwnct1,,,,,,,,,,,,,,,,,,3000.0,,,,61bb376b40db417c1a138a52,16:48:54,27/03/2024
html-keyboard-response,5,10680,0.0-2.0-3.0,,<div style='margin:auto;width: auto; font-size: 150%'><span style='font-weight: bold; font-size: 100px; color: red;'>0 points!</span><br><br></div>,,delaylearn,learning,feedback_image_window,b3w8Y3DxHEPjg1k6C7434QFwnct1,b3w8Y3DxHEPjg1k6C7434QFwnct1,,,,,,,,,,,,,,,,,,,,,,61bb376b40db417c1a138a52,16:48:54,27/03/2024
html-keyboard-response,6,12600,0.0-3.0,,"<div style=""font-size:100px;"">+</div>",,delaylearn,learning,ITI,b3w8Y3DxHEPjg1k6C7434QFwnct1,b3w8Y3DxHEPjg1k6C7434QFwnct1,,,,,,,,,,,,,,,,,,,1905.0,,,61bb376b40db417c1a138a52,16:48:54,27/03/2024
html-keyboard-response,7,13903,0.0-4.0-0.0,1300.199999988079,"<div style=""display: flex; flex-direction: column; align-items: center; margin-top: -40px;""><img src=""images/demo_images/pattern_1.png"" style=""width: 234px; height: 230px; margin-top: -50px;""><div style=""display: flex; justify-content: space-between; margin-top: 33px;""><img src=""images/demo_images/choice_trial_2.png"" style=""width: 408px; height: 417px; margin-right: 200px;""><img src=""images/demo_images/choice_trial_1.png"" style=""width: 408px; height: 417px;""></div></div>",f,delaylearn,learning,trial,b3w8Y3DxHEPjg1k6C7434QFwnct1,b3w8Y3DxHEPjg1k6C7434QFwnct1,1.0,images/demo_images/choice_trial_2.png,images/demo_images/choice_trial_1.png,images/demo_images/pattern_1.png,j,j,3000.0,2.0,1.0,20.0,1.0,2.0,0.0,0.0,2.0,0.0,,,,,,61bb376b40db417c1a138a52,16:48:54,27/03/2024
html-keyboard-response,8,14918,0.0-4.0-1.0,,"<div style=""display: flex; flex-direction: column; align-items: center; margin-top: -40px;""><img src=""images/demo_images/pattern_1.png"" style=""width: 234px; height: 230px; margin-top: -50px;""><div style=""display: flex; justify-content: space-between; margin-top: 33px;""><img src=""images/demo_images/choice_trial_2.png"" style=""width: 408px; height: 417px; margin-right: 608px;""></div></div>",,delaylearn,learning,display_response,b3w8Y3DxHEPjg1k6C7434QFwnct1,b3w8Y3DxHEPjg1k6C7434QFwnct1,,,,,,,,,,,,,,,,,chosen stimuli: images/demo_images/choice_trial_2.png,,,,,61bb376b40db417c1a138a52,16:48:54,27/03/2024
html-keyboard-response,9,17932,0.0-4.0-2.0,,,,delaylearn,learning,feedback_duration_window,b3w8Y3DxHEPjg1k6C7434QFwnct1,b3w8Y3DxHEPjg1k6C7434QFwnct1,,,,,,,,,,,,,,,,,,3000.0,,,,61bb376b40db417c1a138a52,16:48:54,27/03/2024
html-keyboard-response,10,19445,0.0-4.0-3.0,,<div style='margin:auto;width: auto; font-size: 150%'><span style='font-weight: bold; font-size: 100px; color: red;'>0 points!</span><br><br></div>,,delaylearn,learning,feedback_image_window,b3w8Y3DxHEPjg1k6C7434QFwnct1,b3w8Y3DxHEPjg1k6C7434QFwnct1,,,,,,,,,,,,,,,,,,,,,,61bb376b40db417c1a138a52,16:48:54,27/03/2024
html-keyboard-response,11,21605,0.0-5.0,,"<div style=""font-size:100px;"">+</div>",,delaylearn,learning,ITI,b3w8Y3DxHEPjg1k6C7434QFwnct1,b3w8Y3DxHEPjg1k6C7434QFwnct1,,,,,,,,,,,,,,,,,,,2146.0,,,61bb376b40db417c1a138a52,16:48:54,27/03/2024
html-keyboard-response,12,24455,0.0-6.0-0.0,2848.5999999940395,"<div style=""display: flex; flex-direction: column; align-items: center; margin-top: -40px;""><img src=""images/demo_images/pattern_1.png"" style=""width: 234px; height: 230px; margin-top: -50px;""><div style=""display: flex; justify-content: space-between; margin-top: 33px;""><img src=""images/demo_images/choice_trial_1.png"" style=""width: 408px; height: 417px; margin-right: 200px;""><img src=""images/demo_images/choice_trial_2.png"" style=""width: 408px; height: 417px;""></div></div>",f,delaylearn,learning,trial,b3w8Y3DxHEPjg1k6C7434QFwnct1,b3w8Y3DxHEPjg1k6C7434QFwnct1,1.0,images/demo_images/choice_trial_1.png,images/demo_images/choice_trial_2.png,images/demo_images/pattern_1.png,j,f,3000.0,1.0,2.0,20.0,0.0,3.0,1.0,0.0,1.0,0.0,,,,,,61bb376b40db417c1a138a52,16:48:54,27/03/2024
html-keyboard-response,13,25461,0.0-6.0-1.0,,"<div style=""display: flex; flex-direction: column; align-items: center; margin-top: -40px;""><img src=""images/demo_images/pattern_1.png"" style=""width: 234px; height: 230px; margin-top: -50px;""><div style=""display: flex; justify-content: space-between; margin-top: 33px;""><img src=""images/demo_images/choice_trial_1.png"" style=""width: 408px; height: 417px; margin-right: 608px;""></div></div>",,delaylearn,learning,display_response,b3w8Y3DxHEPjg1k6C7434QFwnct1,b3w8Y3DxHEPjg1k6C7434QFwnct1,,,,,,,,,,,,,,,,,chosen stimuli: images/demo_images/choice_trial_1.png,,,,,61bb376b40db417c1a138a52,16:48:54,27/03/2024
html-keyboard-response,14,28476,0.0-6.0-2.0,,,,delaylearn,learning,feedback_duration_window,b3w8Y3DxHEPjg1k6C7434QFwnct1,b3w8Y3DxHEPjg1k6C7434QFwnct1,,,,,,,,,,,,,,,,,,3000.0,,,,61bb376b40db417c1a138a52,16:48:54,27/03/2024
html-keyboard-response,15,29993,0.0-6.0-3.0,,<div style='margin:auto;width: auto; font-size: 150%'><span style='font-weight: bold; font-size: 100px; color: red;'>0 points!</span><br><br></div>,,delaylearn,learning,feedback_image_window,b3w8Y3DxHEPjg1k6C7434QFwnct1,b3w8Y3DxHEPjg1k6C7434QFwnct1,,,,,,,,,,,,,,,,,,,,,,61bb376b40db417c1a138a52,16:48:54,27/03/2024
html-keyboard-response,16,31581,0.0-7.0,,"<div style=""font-size:100px;"">+</div>",,delaylearn,learning,ITI,b3w8Y3DxHEPjg1k6C7434QFwnct1,b3w8Y3DxHEPjg1k6C7434QFwnct1,,,,,,,,,,,,,,,,,,,1577.0,,,61bb376b40db417c1a138a52,16:48:54,27/03/2024
html-keyboard-response,17,34584,0.0-8.0-0.0,,"<div style=""display: flex; flex-direction: column; align-items: center; margin-top: -40px;""><img src=""images/demo_images/pattern_1.png"" style=""width: 234px; height: 230px; margin-top: -50px;""><div style=""display: flex; justify-content: space-between; margin-top: 33px;""><img src=""images/demo_images/choice_trial_1.png"" style=""width: 408px; height: 417px; margin-right: 200px;""><img src=""images/demo_images/choice_trial_2.png"" style=""width: 408px; height: 417px;""></div></div>",,delaylearn,learning,trial,b3w8Y3DxHEPjg1k6C7434QFwnct1,b3w8Y3DxHEPjg1k6C7434QFwnct1,1.0,images/demo_images/choice_trial_1.png,images/demo_images/choice_trial_2.png,images/demo_images/pattern_1.png,f,f,3000.0,1.0,2.0,20.0,0.0,4.0,0.0,0.0,0.0,0.0,,,,,,61bb376b40db417c1a138a52,16:48:54,27/03/2024
html-keyboard-response,18,35600,0.0-8.0-1.0,,<div style='font-weight: bold; font-size: 75px; color: red;'>Missed Trial <br><br><br><br> Please respond faster</div>,,delaylearn,learning,display_response,b3w8Y3DxHEPjg1k6C7434QFwnct1,b3w8Y3DxHEPjg1k6C7434QFwnct1,,,,,,,,,,,,,,,,,Missed trial,,,,,61bb376b40db417c1a138a52,16:48:54,27/03/2024
html-keyboard-response,19,35606,0.0-8.0-2.0,,,,delaylearn,learning,feedback_duration_window,b3w8Y3DxHEPjg1k6C7434QFwnct1,b3w8Y3DxHEPjg1k6C7434QFwnct1,,,,,,,,,,,,,,,,,,0.0,,,,61bb376b40db417c1a138a52,16:48:54,27/03/2024
html-keyboard-response,20,35612,0.0-8.0-3.0,,,,delaylearn,learning,feedback_image_window,b3w8Y3DxHEPjg1k6C7434QFwnct1,b3w8Y3DxHEPjg1k6C7434QFwnct1,,,,,,,,,,,,,,,,,,,,,,61bb376b40db417c1a138a52,16:48:54,27/03/2024
html-keyboard-response,21,36116,0.0-9.0-0.0,,,,,,mood_trial_fixation,b3w8Y3DxHEPjg1k6C7434QFwnct1,,,,,,,,,,,,,,,,,,,,,,,61bb376b40db417c1a138a52,16:48:54,27/03/2024
lmdlab-html-vas-response,22,40358,0.0-9.0-1.0,3220.0,How happy are you right now?,0.13977145569834865,delaylearn,learning,mood_trial,b3w8Y3DxHEPjg1k6C7434QFwnct1,b3w8Y3DxHEPjg1k6C7434QFwnct1,,,,,,,,,,,,,,,,,,,,"['Very unhappy', 'Very happy']",,61bb376b40db417c1a138a52,16:48:54,27/03/2024
html-keyboard-response,23,42102,0.0-10.0,,"<div style=""font-size:100px;"">+</div>",,delaylearn,learning,ITI,b3w8Y3DxHEPjg1k6C7434QFwnct1,b3w8Y3DxHEPjg1k6C7434QFwnct1,,,,,,,,,,,,,,,,,,,1740.0,,,61bb376b40db417c1a138a52,16:48:54,27/03/2024
html-keyboard-response,24,42734,0.0-11.0-0.0,630.0,"<div style=""display: flex; flex-direction: column; align-items: center; margin-top: -40px;""><img src=""images/demo_images/pattern_1.png"" style=""width: 234px; height: 230px; margin-top: -50px;""><div style=""display: flex; justify-content: space-between; margin-top: 33px;""><img src=""images/demo_images/choice_trial_2.png"" style=""width: 408px; height: 417px; margin-right: 200px;""><img src=""images/demo_images/choice_trial_1.png"" style=""width: 408px; height: 417px;""></div></div>",f,delaylearn,learning,trial,b3w8Y3DxHEPjg1k6C7434QFwnct1,b3w8Y3DxHEPjg1k6C7434QFwnct1,1.0,images/demo_images/choice_trial_2.png,images/demo_images/choice_trial_1.png,images/demo_images/pattern_1.png,j,j,3000.0,2.0,1.0,20.0,1.0,5.0,0.0,0.0,2.0,0.0,,,,,,61bb376b40db417c1a138a52,16:48:54,27/03/2024
html-keyboard-response,25,43740,0.0-11.0-1.0,,"<div style=""display: flex; flex-direction: column; align-items: center; margin-top: -40px;""><img src=""images/demo_images/pattern_1.png"" style=""width: 234px; height: 230px; margin-top: -50px;""><div style=""display: flex; justify-content: space-between; margin-top: 33px;""><img src=""images/demo_images/choice_trial_2.png"" style=""width: 408px; height: 417px; margin-right: 608px;""></div></div>",,delaylearn,learning,display_response,b3w8Y3DxHEPjg1k6C7434QFwnct1,b3w8Y3DxHEPjg1k6C7434QFwnct1,,,,,,,,,,,,,,,,,chosen stimuli: images/demo_images/choice_trial_2.png,,,,,61bb376b40db417c1a138a52,16:48:54,27/03/2024
html-keyboard-response,26,46741,0.0-11.0-2.0,,,,delaylearn,learning,feedback_duration_window,b3w8Y3DxHEPjg1k6C7434QFwnct1,b3w8Y3DxHEPjg1k6C7434QFwnct1,,,,,,,,,,,,,,,,,,3000.0,,,,61bb376b40db417c1a138a52,16:48:54,27/03/2024
html-keyboard-response,27,48257,0.0-11.0-3.0,,<div style='margin:auto;width: auto; font-size: 150%'><span style='font-weight: bold; font-size: 100px; color: red;'>0 points!</span><br><br></div>,,delaylearn,learning,feedback_image_window,b3w8Y3DxHEPjg1k6C7434QFwnct1,b3w8Y3DxHEPjg1k6C7434QFwnct1,,,,,,,,,,,,,,,,,,,,,,61bb376b40db417c1a138a52,16:48:54,27/03/2024
html-keyboard-response,28,50039,0.0-12.0,,"<div style=""font-size:100px;"">+</div>",,delaylearn,learning,ITI,b3w8Y3DxHEPjg1k6C7434QFwnct1,b3w8Y3DxHEPjg1k6C7434QFwnct1,,,,,,,,,,,,,,,,,,,1771.0,,,61bb376b40db417c1a138a52,16:48:54,27/03/2024
html-keyboard-response,29,50559,0.0-13.0-0.0,517.7999999970198,"<div style=""display: flex; flex-direction: column; align-items: center; margin-top: -40px;""><img src=""images/demo_images/pattern_1.png"" style=""width: 234px; height: 230px; margin-top: -50px;""><div style=""display: flex; justify-content: space-between; margin-top: 33px;""><img src=""images/demo_images/choice_trial_1.png"" style=""width: 408px; height: 417px; margin-right: 200px;""><img src=""images/demo_images/choice_trial_2.png"" style=""width: 408px; height: 417px;""></div></div>",j,delaylearn,learning,trial,b3w8Y3DxHEPjg1k6C7434QFwnct1,b3w8Y3DxHEPjg1k6C7434QFwnct1,1.0,images/demo_images/choice_trial_1.png,images/demo_images/choice_trial_2.png,images/demo_images/pattern_1.png,f,f,3000.0,1.0,2.0,20.0,0.0,6.0,0.0,0.0,2.0,0.0,,,,,,61bb376b40db417c1a138a52,16:48:54,27/03/2024
html-keyboard-response,30,51569,0.0-13.0-1.0,,"<div style=""display: flex; flex-direction: column; align-items: center; margin-top: -40px;""><img src=""images/demo_images/pattern_1.png"" style=""width: 234px; height: 230px; margin-top: -50px;""><div style=""display: flex; justify-content: space-between; margin-top: 33px;""><img src=""images/demo_images/choice_trial_2.png"" style=""width: 408px; height: 417px; margin-left:608px;""></div></div>",,delaylearn,learning,display_response,b3w8Y3DxHEPjg1k6C7434QFwnct1,b3w8Y3DxHEPjg1k6C7434QFwnct1,,,,,,,,,,,,,,,,,chosen stimuli: images/demo_images/choice_trial_2.png,,,,,61bb376b40db417c1a138a52,16:48:54,27/03/2024
html-keyboard-response,31,54578,0.0-13.0-2.0,,,,delaylearn,learning,feedback_duration_window,b3w8Y3DxHEPjg1k6C7434QFwnct1,b3w8Y3DxHEPjg1k6C7434QFwnct1,,,,,,,,,,,,,,,,,,3000.0,,,,61bb376b40db417c1a138a52,16:48:54,27/03/2024
html-keyboard-response,32,56085,0.0-13.0-3.0,,<div style='margin:auto;width: auto; font-size: 150%'><span style='font-weight: bold; font-size: 100px; color: red;'>0 points!</span><br><br></div>,,delaylearn,learning,feedback_image_window,b3w8Y3DxHEPjg1k6C7434QFwnct1,b3w8Y3DxHEPjg1k6C7434QFwnct1,,,,,,,,,,,,,,,,,,,,,,61bb376b40db417c1a138a52,16:48:54,27/03/2024
html-keyboard-response,33,58246,0.0-14.0,,"<div style=""font-size:100px;"">+</div>",,delaylearn,learning,ITI,b3w8Y3DxHEPjg1k6C7434QFwnct1,b3w8Y3DxHEPjg1k6C7434QFwnct1,,,,,,,,,,,,,,,,,,,2156.0,,,61bb376b40db417c1a138a52,16:48:54,27/03/2024
html-keyboard-response,34,58854,0.0-15.0-0.0,605.6000000089407,"<div style=""display: flex; flex-direction: column; align-items: center; margin-top: -40px;""><img src=""images/demo_images/pattern_1.png"" style=""width: 234px; height: 230px; margin-top: -50px;""><div style=""display: flex; justify-content: space-between; margin-top: 33px;""><img src=""images/demo_images/choice_trial_2.png"" style=""width: 408px; height: 417px; margin-right: 200px;""><img src=""images/demo_images/choice_trial_1.png"" style=""width: 408px; height: 417px;""></div></div>",f,delaylearn,learning,trial,b3w8Y3DxHEPjg1k6C7434QFwnct1,b3w8Y3DxHEPjg1k6C7434QFwnct1,1.0,images/demo_images/choice_trial_2.png,images/demo_images/choice_trial_1.png,images/demo_images/pattern_1.png,j,j,3000.0,2.0,1.0,20.0,1.0,7.0,0.0,0.0,2.0,0.0,,,,,,61bb376b40db417c1a138a52,16:48:54,27/03/2024
html-keyboard-response,35,59867,0.0-15.0-1.0,,"<div style=""display: flex; flex-direction: column; align-items: center; margin-top: -40px;""><img src=""images/demo_images/pattern_1.png"" style=""width: 234px; height: 230px; margin-top: -50px;""><div style=""display: flex; justify-content: space-between; margin-top: 33px;""><img src=""images/demo_images/choice_trial_2.png"" style=""width: 408px; height: 417px; margin-right: 608px;""></div></div>",,delaylearn,learning,display_response,b3w8Y3DxHEPjg1k6C7434QFwnct1,b3w8Y3DxHEPjg1k6C7434QFwnct1,,,,,,,,,,,,,,,,,chosen stimuli: images/demo_images/choice_trial_2.png,,,,,61bb376b40db417c1a138a52,16:48:54,27/03/2024
html-keyboard-response,36,62878,0.0-15.0-2.0,,,,delaylearn,learning,feedback_duration_window,b3w8Y3DxHEPjg1k6C7434QFwnct1,b3w8Y3DxHEPjg1k6C7434QFwnct1,,,,,,,,,,,,,,,,,,3000.0,,,,61bb376b40db417c1a138a52,16:48:54,27/03/2024
html-keyboard-response,37,64384,0.0-15.0-3.0,,<div style='margin:auto;width: auto; font-size: 150%'><span style='font-weight: bold; font-size: 100px; color: red;'>0 points!</span><br><br></div>,,delaylearn,learning,feedback_image_window,b3w8Y3DxHEPjg1k6C7434QFwnct1,b3w8Y3DxHEPjg1k6C7434QFwnct1,,,,,,,,,,,,,,,,,,,,,,61bb376b40db417c1a138a52,16:48:54,27/03/2024
html-keyboard-response,38,66114,0.0-16.0,,"<div style=""font-size:100px;"">+</div>",,delaylearn,learning,ITI,b3w8Y3DxHEPjg1k6C7434QFwnct1,b3w8Y3DxHEPjg1k6C7434QFwnct1,,,,,,,,,,,,,,,,,,,1724.0,,,61bb376b40db417c1a138a52,16:48:54,27/03/2024
html-keyboard-response,39,67799,0.0-17.0-0.0,1683.0,"<div style=""display: flex; flex-direction: column; align-items: center; margin-top: -40px;""><img src=""images/demo_images/pattern_1.png"" style=""width: 234px; height: 230px; margin-top: -50px;""><div style=""display: flex; justify-content: space-between; margin-top: 33px;""><img src=""images/demo_images/choice_trial_1.png"" style=""width: 408px; height: 417px; margin-right: 200px;""><img src=""images/demo_images/choice_trial_2.png"" style=""width: 408px; height: 417px;""></div></div>",f,delaylearn,learning,trial,b3w8Y3DxHEPjg1k6C7434QFwnct1,b3w8Y3DxHEPjg1k6C7434QFwnct1,1.0,images/demo_images/choice_trial_1.png,images/demo_images/choice_trial_2.png,images/demo_images/pattern_1.png,f,f,3000.0,1.0,2.0,20.0,0.0,8.0,1.0,1.0,1.0,10.0,,,,,,61bb376b40db417c1a138a52,16:48:54,27/03/2024
html-keyboard-response,40,68802,0.0-17.0-1.0,,"<div style=""display: flex; flex-direction: column; align-items: center; margin-top: -40px;""><img src=""images/demo_images/pattern_1.png"" style=""width: 234px; height: 230px; margin-top: -50px;""><div style=""display: flex; justify-content: space-between; margin-top: 33px;""><img src=""images/demo_images/choice_trial_1.png"" style=""width: 408px; height: 417px; margin-right: 608px;""></div></div>",,delaylearn,learning,display_response,b3w8Y3DxHEPjg1k6C7434QFwnct1,b3w8Y3DxHEPjg1k6C7434QFwnct1,,,,,,,,,,,,,,,,,chosen stimuli: images/demo_images/choice_trial_1.png,,,,,61bb376b40db417c1a138a52,16:48:54,27/03/2024
html-keyboard-response,41,71806,0.0-17.0-2.0,,,,delaylearn,learning,feedback_duration_window,b3w8Y3DxHEPjg1k6C7434QFwnct1,b3w8Y3DxHEPjg1k6C7434QFwnct1,,,,,,,,,,,,,,,,,,3000.0,,,,61bb376b40db417c1a138a52,16:48:54,27/03/2024
html-keyboard-response,42,73312,0.0-17.0-3.0,,<div style='margin:auto;width: auto; font-size: 150%'><span style='font-weight: bold; font-size: 100px; color: green;'>+10 points!</span><br><br></div>,,delaylearn,learning,feedback_image_window,b3w8Y3DxHEPjg1k6C7434QFwnct1,b3w8Y3DxHEPjg1k6C7434QFwnct1,,,,,,,,,,,,,,,,,,,,,,61bb376b40db417c1a138a52,16:48:54,27/03/2024
html-button-response,43,75777,0.0-18.0,2463.0,"
  <div style=""display: flex; align-items: center; justify-content: center; height: 80vh;"">
  <div>
          <img src=""images/inst_demo_finish.png"" style=""width: 80vw; height:auto;"">
          <br><br>
      </div>
      <br><br>
  </div>",0,,,,b3w8Y3DxHEPjg1k6C7434QFwnct1,,,,,,,,,,,,,,,,,,,,,,,61bb376b40db417c1a138a52,16:48:54,27/03/2024
html-keyboard-response,44,77871,0.0-19.0,2093.0,"
  <div style=""display: flex; align-items: center; justify-content: center; height: 80vh;"">
  <div>
          <img src=""images/inst_6.png"" style=""width: 80vw; height:auto;"">
          <br><br>
      </div>
      <br><br>
  </div>",f,,,,b3w8Y3DxHEPjg1k6C7434QFwnct1,,,,,,,,,,,,,,,,,,,,,,,61bb376b40db417c1a138a52,16:48:54,27/03/2024
html-keyboard-response,45,80877,0.0-20.0,,"<div style=""font-size:100px;"">+</div>",,delaylearn,learning,pre_fixation,b3w8Y3DxHEPjg1k6C7434QFwnct1,,,,,,,,,,,,,,,,,,,,,,,61bb376b40db417c1a138a52,16:48:54,27/03/2024
html-keyboard-response,46,82940,0.0-21.0,,"<div style=""font-size:100px;"">+</div>",,delaylearn,learning,ITI,b3w8Y3DxHEPjg1k6C7434QFwnct1,b3w8Y3DxHEPjg1k6C7434QFwnct1,,,,,,,,,,,,,,,,,,,2054.0,,,61bb376b40db417c1a138a52,16:48:54,27/03/2024
html-keyboard-response,47,84390,0.0-22.0-0.0,1448.2000000029802,"<div style=""display: flex; flex-direction: column; align-items: center; margin-top: -40px;""><img src=""images/pattern_3.png"" style=""width: 234px; height: 230px; margin-top: -50px;""><div style=""display: flex; justify-content: space-between; margin-top: 33px;""><img src=""images/choice_trial_5.png"" style=""width: 408px; height: 417px; margin-right: 200px;""><img src=""images/choice_trial_6.png"" style=""width: 408px; height: 417px;""></div></div>",f,delaylearn,learning,trial,b3w8Y3DxHEPjg1k6C7434QFwnct1,b3w8Y3DxHEPjg1k6C7434QFwnct1,1.0,images/choice_trial_5.png,images/choice_trial_6.png,images/pattern_3.png,f,f,7000.0,5.0,6.0,2.0,0.0,9.0,1.0,1.0,5.0,20.0,,,,,,61bb376b40db417c1a138a52,16:48:54,27/03/2024
html-keyboard-response,48,85397,0.0-22.0-1.0,,"<div style=""display: flex; flex-direction: column; align-items: center; margin-top: -40px;""><img src=""images/pattern_3.png"" style=""width: 234px; height: 230px; margin-top: -50px;""><div style=""display: flex; justify-content: space-between; margin-top: 33px;""><img src=""images/choice_trial_5.png"" style=""width: 408px; height: 417px; margin-right: 608px;""></div></div>",,delaylearn,learning,display_response,b3w8Y3DxHEPjg1k6C7434QFwnct1,b3w8Y3DxHEPjg1k6C7434QFwnct1,,,,,,,,,,,,,,,,,chosen stimuli: images/choice_trial_5.png,,,,,61bb376b40db417c1a138a52,16:48:54,27/03/2024
html-keyboard-response,49,92409,0.0-22.0-2.0,,,,delaylearn,learning,feedback_duration_window,b3w8Y3DxHEPjg1k6C7434QFwnct1,b3w8Y3DxHEPjg1k6C7434QFwnct1,,,,,,,,,,,,,,,,,,7000.0,,,,61bb376b40db417c1a138a52,16:48:54,27/03/2024
html-keyboard-response,50,93914,0.0-22.0-3.0,,<div style='margin:auto;width: auto; font-size: 150%'><span style='font-weight: bold; font-size: 100px; color: green;'>+10 points!</span><br><br></div>,,delaylearn,learning,feedback_image_window,b3w8Y3DxHEPjg1k6C7434QFwnct1,b3w8Y3DxHEPjg1k6C7434QFwnct1,,,,,,,,,,,,,,,,,,,,,,61bb376b40db417c1a138a52,16:48:54,27/03/2024
html-keyboard-response,51,95919,0.0-23.0,,"<div style=""font-size:100px;"">+</div>",,delaylearn,learning,ITI,b3w8Y3DxHEPjg1k6C7434QFwnct1,b3w8Y3DxHEPjg1k6C7434QFwnct1,,,,,,,,,,,,,,,,,,,1998.0,,,61bb376b40db417c1a138a52,16:48:54,27/03/2024
html-keyboard-response,52,97254,0.0-24.0-0.0,1332.800000011921,"<div style=""display: flex; flex-direction: column; align-items: center; margin-top: -40px;""><img src=""images/pattern_7.png"" style=""width: 234px; height: 230px; margin-top: -50px;""><div style=""display: flex; justify-content: space-between; margin-top: 33px;""><img src=""images/choice_trial_14.png"" style=""width: 408px; height: 417px; margin-right: 200px;""><img src=""images/choice_trial_13.png"" style=""width: 408px; height: 417px;""></div></div>",j,delaylearn,learning,trial,b3w8Y3DxHEPjg1k6C7434QFwnct1,b3w8Y3DxHEPjg1k6C7434QFwnct1,1.0,images/choice_trial_14.png,images/choice_trial_13.png,images/pattern_7.png,j,j,750.0,14.0,13.0,6.0,1.0,10.0,1.0,1.0,13.0,30.0,,,,,,61bb376b40db417c1a138a52,16:48:54,27/03/2024
html-keyboard-response,53,98263,0.0-24.0-1.0,,"<div style=""display: flex; flex-direction: column; align-items: center; margin-top: -40px;""><img src=""images/pattern_7.png"" style=""width: 234px; height: 230px; margin-top: -50px;""><div style=""display: flex; justify-content: space-between; margin-top: 33px;""><img src=""images/choice_trial_13.png"" style=""width: 408px; height: 417px; margin-left:608px;""></div></div>",,delaylearn,learning,display_response,b3w8Y3DxHEPjg1k6C7434QFwnct1,b3w8Y3DxHEPjg1k6C7434QFwnct1,,,,,,,,,,,,,,,,,chosen stimuli: images/choice_trial_13.png,,,,,61bb376b40db417c1a138a52,16:48:54,27/03/2024
html-keyboard-response,54,99023,0.0-24.0-2.0,,,,delaylearn,learning,feedback_duration_window,b3w8Y3DxHEPjg1k6C7434QFwnct1,b3w8Y3DxHEPjg1k6C7434QFwnct1,,,,,,,,,,,,,,,,,,750.0,,,,61bb376b40db417c1a138a52,16:48:54,27/03/2024
html-keyboard-response,55,100539,0.0-24.0-3.0,,<div style='margin:auto;width: auto; font-size: 150%'><span style='font-weight: bold; font-size: 100px; color: green;'>+10 points!</span><br><br></div>,,delaylearn,learning,feedback_image_window,b3w8Y3DxHEPjg1k6C7434QFwnct1,b3w8Y3DxHEPjg1k6C7434QFwnct1,,,,,,,,,,,,,,,,,,,,,,61bb376b40db417c1a138a52,16:48:54,27/03/2024
html-keyboard-response,56,102823,0.0-25.0,,"<div style=""font-size:100px;"">+</div>",,delaylearn,learning,ITI,b3w8Y3DxHEPjg1k6C7434QFwnct1,b3w8Y3DxHEPjg1k6C7434QFwnct1,,,,,,,,,,,,,,,,,,,2282.0,,,61bb376b40db417c1a138a52,16:48:54,27/03/2024
html-keyboard-response,57,104109,0.0-26.0-0.0,1283.800000011921,"<div style=""display: flex; flex-direction: column; align-items: center; margin-top: -40px;""><img src=""images/pattern_4.png"" style=""width: 234px; height: 230px; margin-top: -50px;""><div style=""display: flex; justify-content: space-between; margin-top: 33px;""><img src=""images/choice_trial_7.png"" style=""width: 408px; height: 417px; margin-right: 200px;""><img src=""images/choice_trial_8.png"" style=""width: 408px; height: 417px;""></div></div>",j,delaylearn,learning,trial,b3w8Y3DxHEPjg1k6C7434QFwnct1,b3w8Y3DxHEPjg1k6C7434QFwnct1,1.0,images/choice_trial_7.png,images/choice_trial_8.png,images/pattern_4.png,f,f,7000.0,7.0,8.0,3.0,0.0,11.0,0.0,0.0,8.0,30.0,,,,,,61bb376b40db417c1a138a52,16:48:54,27/03/2024
html-keyboard-response,58,105125,0.0-26.0-1.0,,"<div style=""display: flex; flex-direction: column; align-items: center; margin-top: -40px;""><img src=""images/pattern_4.png"" style=""width: 234px; height: 230px; margin-top: -50px;""><div style=""display: flex; justify-content: space-between; margin-top: 33px;""><img src=""images/choice_trial_8.png"" style=""width: 408px; height: 417px; margin-left:608px;""></div></div>",,delaylearn,learning,display_response,b3w8Y3DxHEPjg1k6C7434QFwnct1,b3w8Y3DxHEPjg1k6C7434QFwnct1,,,,,,,,,,,,,,,,,chosen stimuli: images/choice_trial_8.png,,,,,61bb376b40db417c1a138a52,16:48:54,27/03/2024
html-keyboard-response,59,112126,0.0-26.0-2.0,,,,delaylearn,learning,feedback_duration_window,b3w8Y3DxHEPjg1k6C7434QFwnct1,b3w8Y3DxHEPjg1k6C7434QFwnct1,,,,,,,,,,,,,,,,,,7000.0,,,,61bb376b40db417c1a138a52,16:48:54,27/03/2024
html-keyboard-response,60,113633,0.0-26.0-3.0,,<div style='margin:auto;width: auto; font-size: 150%'><span style='font-weight: bold; font-size: 100px; color: red;'>0 points!</span><br><br></div>,,delaylearn,learning,feedback_image_window,b3w8Y3DxHEPjg1k6C7434QFwnct1,b3w8Y3DxHEPjg1k6C7434QFwnct1,,,,,,,,,,,,,,,,,,,,,,61bb376b40db417c1a138a52,16:48:54,27/03/2024
html-keyboard-response,61,115694,0.0-27.0,,"<div style=""font-size:100px;"">+</div>",,delaylearn,learning,ITI,b3w8Y3DxHEPjg1k6C7434QFwnct1,b3w8Y3DxHEPjg1k6C7434QFwnct1,,,,,,,,,,,,,,,,,,,2055.0,,,61bb376b40db417c1a138a52,16:48:54,27/03/2024
html-keyboard-response,62,116622,0.0-28.0-0.0,925.2999999970198,"<div style=""display: flex; flex-direction: column; align-items: center; margin-top: -40px;""><img src=""images/pattern_5.png"" style=""width: 234px; height: 230px; margin-top: -50px;""><div style=""display: flex; justify-content: space-between; margin-top: 33px;""><img src=""images/choice_trial_10.png"" style=""width: 408px; height: 417px; margin-right: 200px;""><img src=""images/choice_trial_9.png"" style=""width: 408px; height: 417px;""></div></div>",j,delaylearn,learning,trial,b3w8Y3DxHEPjg1k6C7434QFwnct1,b3w8Y3DxHEPjg1k6C7434QFwnct1,1.0,images/choice_trial_10.png,images/choice_trial_9.png,images/pattern_5.png,j,j,750.0,10.0,9.0,4.0,1.0,12.0,1.0,1.0,9.0,40.0,,,,,,61bb376b40db417c1a138a52,16:48:54,27/03/2024
html-keyboard-response,63,117633,0.0-28.0-1.0,,"<div style=""display: flex; flex-direction: column; align-items: center; margin-top: -40px;""><img src=""images/pattern_5.png"" style=""width: 234px; height: 230px; margin-top: -50px;""><div style=""display: flex; justify-content: space-between; margin-top: 33px;""><img src=""images/choice_trial_9.png"" style=""width: 408px; height: 417px; margin-left:608px;""></div></div>",,delaylearn,learning,display_response,b3w8Y3DxHEPjg1k6C7434QFwnct1,b3w8Y3DxHEPjg1k6C7434QFwnct1,,,,,,,,,,,,,,,,,chosen stimuli: images/choice_trial_9.png,,,,,61bb376b40db417c1a138a52,16:48:54,27/03/2024
html-keyboard-response,64,118397,0.0-28.0-2.0,,,,delaylearn,learning,feedback_duration_window,b3w8Y3DxHEPjg1k6C7434QFwnct1,b3w8Y3DxHEPjg1k6C7434QFwnct1,,,,,,,,,,,,,,,,,,750.0,,,,61bb376b40db417c1a138a52,16:48:54,27/03/2024
html-keyboard-response,65,119912,0.0-28.0-3.0,,<div style='margin:auto;width: auto; font-size: 150%'><span style='font-weight: bold; font-size: 100px; color: green;'>+10 points!</span><br><br></div>,,delaylearn,learning,feedback_image_window,b3w8Y3DxHEPjg1k6C7434QFwnct1,b3w8Y3DxHEPjg1k6C7434QFwnct1,,,,,,,,,,,,,,,,,,,,,,61bb376b40db417c1a138a52,16:48:54,27/03/2024
html-keyboard-response,66,122034,0.0-29.0,,"<div style=""font-size:100px;"">+</div>",,delaylearn,learning,ITI,b3w8Y3DxHEPjg1k6C7434QFwnct1,b3w8Y3DxHEPjg1k6C7434QFwnct1,,,,,,,,,,,,,,,,,,,2120.0,,,61bb376b40db417c1a138a52,16:48:54,27/03/2024
html-keyboard-response,67,123477,0.0-30.0-0.0,1441.0,"<div style=""display: flex; flex-direction: column; align-items: center; margin-top: -40px;""><img src=""images/pattern_6.png"" style=""width: 234px; height: 230px; margin-top: -50px;""><div style=""display: flex; justify-content: space-between; margin-top: 33px;""><img src=""images/choice_trial_11.png"" style=""width: 408px; height: 417px; margin-right: 200px;""><img src=""images/choice_trial_12.png"" style=""width: 408px; height: 417px;""></div></div>",f,delaylearn,learning,trial,b3w8Y3DxHEPjg1k6C7434QFwnct1,b3w8Y3DxHEPjg1k6C7434QFwnct1,1.0,images/choice_trial_11.png,images/choice_trial_12.png,images/pattern_6.png,j,f,750.0,11.0,12.0,5.0,0.0,13.0,1.0,0.0,11.0,40.0,,,,,,61bb376b40db417c1a138a52,16:48:54,27/03/2024
html-keyboard-response,68,124492,0.0-30.0-1.0,,"<div style=""display: flex; flex-direction: column; align-items: center; margin-top: -40px;""><img src=""images/pattern_6.png"" style=""width: 234px; height: 230px; margin-top: -50px;""><div style=""display: flex; justify-content: space-between; margin-top: 33px;""><img src=""images/choice_trial_11.png"" style=""width: 408px; height: 417px; margin-right: 608px;""></div></div>",,delaylearn,learning,display_response,b3w8Y3DxHEPjg1k6C7434QFwnct1,b3w8Y3DxHEPjg1k6C7434QFwnct1,,,,,,,,,,,,,,,,,chosen stimuli: images/choice_trial_11.png,,,,,61bb376b40db417c1a138a52,16:48:54,27/03/2024
html-keyboard-response,69,125257,0.0-30.0-2.0,,,,delaylearn,learning,feedback_duration_window,b3w8Y3DxHEPjg1k6C7434QFwnct1,b3w8Y3DxHEPjg1k6C7434QFwnct1,,,,,,,,,,,,,,,,,,750.0,,,,61bb376b40db417c1a138a52,16:48:54,27/03/2024
html-keyboard-response,70,126758,0.0-30.0-3.0,,<div style='margin:auto;width: auto; font-size: 150%'><span style='font-weight: bold; font-size: 100px; color: red;'>0 points!</span><br><br></div>,,delaylearn,learning,feedback_image_window,b3w8Y3DxHEPjg1k6C7434QFwnct1,b3w8Y3DxHEPjg1k6C7434QFwnct1,,,,,,,,,,,,,,,,,,,,,,61bb376b40db417c1a138a52,16:48:54,27/03/2024
html-keyboard-response,71,127272,0.0-31.0-0.0,,,,,,mood_trial_fixation,b3w8Y3DxHEPjg1k6C7434QFwnct1,,,,,,,,,,,,,,,,,,,,,,,61bb376b40db417c1a138a52,16:48:54,27/03/2024
lmdlab-html-vas-response,72,131030,0.0-31.0-1.0,2739.0,How happy are you right now?,0.1484520701230884,delaylearn,learning,mood_trial,b3w8Y3DxHEPjg1k6C7434QFwnct1,b3w8Y3DxHEPjg1k6C7434QFwnct1,,,,,,,,,,,,,,,,,,,,"['Very unhappy', 'Very happy']",,61bb376b40db417c1a138a52,16:48:54,27/03/2024
html-keyboard-response,73,132879,0.0-32.0,,"<div style=""font-size:100px;"">+</div>",,delaylearn,learning,ITI,b3w8Y3DxHEPjg1k6C7434QFwnct1,b3w8Y3DxHEPjg1k6C7434QFwnct1,,,,,,,,,,,,,,,,,,,1835.0,,,61bb376b40db417c1a138a52,16:48:54,27/03/2024
html-keyboard-response,74,134165,0.0-33.0-0.0,1283.800000011921,"<div style=""display: flex; flex-direction: column; align-items: center; margin-top: -40px;""><img src=""images/pattern_1.png"" style=""width: 234px; height: 230px; margin-top: -50px;""><div style=""display: flex; justify-content: space-between; margin-top: 33px;""><img src=""images/choice_trial_2.png"" style=""width: 408px; height: 417px; margin-right: 200px;""><img src=""images/choice_trial_1.png"" style=""width: 408px; height: 417px;""></div></div>",f,delaylearn,learning,trial,b3w8Y3DxHEPjg1k6C7434QFwnct1,b3w8Y3DxHEPjg1k6C7434QFwnct1,1.0,images/choice_trial_2.png,images/choice_trial_1.png,images/pattern_1.png,j,j,7000.0,2.0,1.0,1.0,1.0,14.0,0.0,0.0,2.0,40.0,,,,,,61bb376b40db417c1a138a52,16:48:54,27/03/2024
html-keyboard-response,75,135179,0.0-33.0-1.0,,"<div style=""display: flex; flex-direction: column; align-items: center; margin-top: -40px;""><img src=""images/pattern_1.png"" style=""width: 234px; height: 230px; margin-top: -50px;""><div style=""display: flex; justify-content: space-between; margin-top: 33px;""><img src=""images/choice_trial_2.png"" style=""width: 408px; height: 417px; margin-right: 608px;""></div></div>",,delaylearn,learning,display_response,b3w8Y3DxHEPjg1k6C7434QFwnct1,b3w8Y3DxHEPjg1k6C7434QFwnct1,,,,,,,,,,,,,,,,,chosen stimuli: images/choice_trial_2.png,,,,,61bb376b40db417c1a138a52,16:48:54,27/03/2024
html-keyboard-response,76,142186,0.0-33.0-2.0,,,,delaylearn,learning,feedback_duration_window,b3w8Y3DxHEPjg1k6C7434QFwnct1,b3w8Y3DxHEPjg1k6C7434QFwnct1,,,,,,,,,,,,,,,,,,7000.0,,,,61bb376b40db417c1a138a52,16:48:54,27/03/2024
html-keyboard-response,77,143699,0.0-33.0-3.0,,<div style='margin:auto;width: auto; font-size: 150%'><span style='font-weight: bold; font-size: 100px; color: red;'>0 points!</span><br><br></div>,,delaylearn,learning,feedback_image_window,b3w8Y3DxHEPjg1k6C7434QFwnct1,b3w8Y3DxHEPjg1k6C7434QFwnct1,,,,,,,,,,,,,,,,,,,,,,61bb376b40db417c1a138a52,16:48:54,27/03/2024
html-keyboard-response,78,145565,0.0-34.0,,"<div style=""font-size:100px;"">+</div>",,delaylearn,learning,ITI,b3w8Y3DxHEPjg1k6C7434QFwnct1,b3w8Y3DxHEPjg1k6C7434QFwnct1,,,,,,,,,,,,,,,,,,,1854.0,,,61bb376b40db417c1a138a52,16:48:54,27/03/2024
html-keyboard-response,79,146317,0.0-35.0-0.0,750.5,"<div style=""display: flex; flex-direction: column; align-items: center; margin-top: -40px;""><img src=""images/pattern_3.png"" style=""width: 234px; height: 230px; margin-top: -50px;""><div style=""display: flex; justify-content: space-between; margin-top: 33px;""><img src=""images/choice_trial_6.png"" style=""width: 408px; height: 417px; margin-right: 200px;""><img src=""images/choice_trial_5.png"" style=""width: 408px; height: 417px;""></div></div>",j,delaylearn,learning,trial,b3w8Y3DxHEPjg1k6C7434QFwnct1,b3w8Y3DxHEPjg1k6C7434QFwnct1,1.0,images/choice_trial_6.png,images/choice_trial_5.png,images/pattern_3.png,f,j,7000.0,6.0,5.0,2.0,1.0,15.0,1.0,0.0,5.0,40.0,,,,,,61bb376b40db417c1a138a52,16:48:54,27/03/2024
html-keyboard-response,80,147335,0.0-35.0-1.0,,"<div style=""display: flex; flex-direction: column; align-items: center; margin-top: -40px;""><img src=""images/pattern_3.png"" style=""width: 234px; height: 230px; margin-top: -50px;""><div style=""display: flex; justify-content: space-between; margin-top: 33px;""><img src=""images/choice_trial_5.png"" style=""width: 408px; height: 417px; margin-left:608px;""></div></div>",,delaylearn,learning,display_response,b3w8Y3DxHEPjg1k6C7434QFwnct1,b3w8Y3DxHEPjg1k6C7434QFwnct1,,,,,,,,,,,,,,,,,chosen stimuli: images/choice_trial_5.png,,,,,61bb376b40db417c1a138a52,16:48:54,27/03/2024
html-keyboard-response,81,154350,0.0-35.0-2.0,,,,delaylearn,learning,feedback_duration_window,b3w8Y3DxHEPjg1k6C7434QFwnct1,b3w8Y3DxHEPjg1k6C7434QFwnct1,,,,,,,,,,,,,,,,,,7000.0,,,,61bb376b40db417c1a138a52,16:48:54,27/03/2024
html-keyboard-response,82,155863,0.0-35.0-3.0,,<div style='margin:auto;width: auto; font-size: 150%'><span style='font-weight: bold; font-size: 100px; color: red;'>0 points!</span><br><br></div>,,delaylearn,learning,feedback_image_window,b3w8Y3DxHEPjg1k6C7434QFwnct1,b3w8Y3DxHEPjg1k6C7434QFwnct1,,,,,,,,,,,,,,,,,,,,,,61bb376b40db417c1a138a52,16:48:54,27/03/2024
html-keyboard-response,83,158071,0.0-36.0,,"<div style=""font-size:100px;"">+</div>",,delaylearn,learning,ITI,b3w8Y3DxHEPjg1k6C7434QFwnct1,b3w8Y3DxHEPjg1k6C7434QFwnct1,,,,,,,,,,,,,,,,,,,2206.0,,,61bb376b40db417c1a138a52,16:48:54,27/03/2024
html-keyboard-response,84,158973,0.0-37.0-0.0,899.9000000059605,"<div style=""display: flex; flex-direction: column; align-items: center; margin-top: -40px;""><img src=""images/pattern_5.png"" style=""width: 234px; height: 230px; margin-top: -50px;""><div style=""display: flex; justify-content: space-between; margin-top: 33px;""><img src=""images/choice_trial_9.png"" style=""width: 408px; height: 417px; margin-right: 200px;""><img src=""images/choice_trial_10.png"" style=""width: 408px; height: 417px;""></div></div>",f,delaylearn,learning,trial,b3w8Y3DxHEPjg1k6C7434QFwnct1,b3w8Y3DxHEPjg1k6C7434QFwnct1,1.0,images/choice_trial_9.png,images/choice_trial_10.png,images/pattern_5.png,f,f,750.0,9.0,10.0,4.0,0.0,16.0,1.0,1.0,9.0,50.0,,,,,,61bb376b40db417c1a138a52,16:48:54,27/03/2024
html-keyboard-response,85,159989,0.0-37.0-1.0,,"<div style=""display: flex; flex-direction: column; align-items: center; margin-top: -40px;""><img src=""images/pattern_5.png"" style=""width: 234px; height: 230px; margin-top: -50px;""><div style=""display: flex; justify-content: space-between; margin-top: 33px;""><img src=""images/choice_trial_9.png"" style=""width: 408px; height: 417px; margin-right: 608px;""></div></div>",,delaylearn,learning,display_response,b3w8Y3DxHEPjg1k6C7434QFwnct1,b3w8Y3DxHEPjg1k6C7434QFwnct1,,,,,,,,,,,,,,,,,chosen stimuli: images/choice_trial_9.png,,,,,61bb376b40db417c1a138a52,16:48:54,27/03/2024
html-keyboard-response,86,160748,0.0-37.0-2.0,,,,delaylearn,learning,feedback_duration_window,b3w8Y3DxHEPjg1k6C7434QFwnct1,b3w8Y3DxHEPjg1k6C7434QFwnct1,,,,,,,,,,,,,,,,,,750.0,,,,61bb376b40db417c1a138a52,16:48:54,27/03/2024
html-keyboard-response,87,162258,0.0-37.0-3.0,,<div style='margin:auto;width: auto; font-size: 150%'><span style='font-weight: bold; font-size: 100px; color: green;'>+10 points!</span><br><br></div>,,delaylearn,learning,feedback_image_window,b3w8Y3DxHEPjg1k6C7434QFwnct1,b3w8Y3DxHEPjg1k6C7434QFwnct1,,,,,,,,,,,,,,,,,,,,,,61bb376b40db417c1a138a52,16:48:54,27/03/2024
html-keyboard-response,88,162773,0.0-38.0-0.0,,,,,,mood_trial_fixation,b3w8Y3DxHEPjg1k6C7434QFwnct1,,,,,,,,,,,,,,,,,,,,,,,61bb376b40db417c1a138a52,16:48:54,27/03/2024
lmdlab-html-vas-response,89,166540,0.0-38.0-1.0,2753.0,How happy are you right now?,0.14411176291071853,delaylearn,learning,mood_trial,b3w8Y3DxHEPjg1k6C7434QFwnct1,b3w8Y3DxHEPjg1k6C7434QFwnct1,,,,,,,,,,,,,,,,,,,,"['Very unhappy', 'Very happy']",,61bb376b40db417c1a138a52,16:48:54,27/03/2024
html-keyboard-response,90,168101,0.0-39.0,,"<div style=""font-size:100px;"">+</div>",,delaylearn,learning,ITI,b3w8Y3DxHEPjg1k6C7434QFwnct1,b3w8Y3DxHEPjg1k6C7434QFwnct1,,,,,,,,,,,,,,,,,,,1554.0,,,61bb376b40db417c1a138a52,16:48:54,27/03/2024
html-keyboard-response,91,169637,0.0-40.0-0.0,1533.9000000059605,"<div style=""display: flex; flex-direction: column; align-items: center; margin-top: -40px;""><img src=""images/pattern_6.png"" style=""width: 234px; height: 230px; margin-top: -50px;""><div style=""display: flex; justify-content: space-between; margin-top: 33px;""><img src=""images/choice_trial_11.png"" style=""width: 408px; height: 417px; margin-right: 200px;""><img src=""images/choice_trial_12.png"" style=""width: 408px; height: 417px;""></div></div>",j,delaylearn,learning,trial,b3w8Y3DxHEPjg1k6C7434QFwnct1,b3w8Y3DxHEPjg1k6C7434QFwnct1,1.0,images/choice_trial_11.png,images/choice_trial_12.png,images/pattern_6.png,f,f,750.0,11.0,12.0,5.0,0.0,17.0,0.0,0.0,12.0,50.0,,,,,,61bb376b40db417c1a138a52,16:48:54,27/03/2024
html-keyboard-response,92,170641,0.0-40.0-1.0,,"<div style=""display: flex; flex-direction: column; align-items: center; margin-top: -40px;""><img src=""images/pattern_6.png"" style=""width: 234px; height: 230px; margin-top: -50px;""><div style=""display: flex; justify-content: space-between; margin-top: 33px;""><img src=""images/choice_trial_12.png"" style=""width: 408px; height: 417px; margin-left:608px;""></div></div>",,delaylearn,learning,display_response,b3w8Y3DxHEPjg1k6C7434QFwnct1,b3w8Y3DxHEPjg1k6C7434QFwnct1,,,,,,,,,,,,,,,,,chosen stimuli: images/choice_trial_12.png,,,,,61bb376b40db417c1a138a52,16:48:54,27/03/2024
html-keyboard-response,93,171398,0.0-40.0-2.0,,,,delaylearn,learning,feedback_duration_window,b3w8Y3DxHEPjg1k6C7434QFwnct1,b3w8Y3DxHEPjg1k6C7434QFwnct1,,,,,,,,,,,,,,,,,,750.0,,,,61bb376b40db417c1a138a52,16:48:54,27/03/2024
html-keyboard-response,94,172903,0.0-40.0-3.0,,<div style='margin:auto;width: auto; font-size: 150%'><span style='font-weight: bold; font-size: 100px; color: red;'>0 points!</span><br><br></div>,,delaylearn,learning,feedback_image_window,b3w8Y3DxHEPjg1k6C7434QFwnct1,b3w8Y3DxHEPjg1k6C7434QFwnct1,,,,,,,,,,,,,,,,,,,,,,61bb376b40db417c1a138a52,16:48:54,27/03/2024
html-keyboard-response,95,175303,0.0-41.0,,"<div style=""font-size:100px;"">+</div>",,delaylearn,learning,ITI,b3w8Y3DxHEPjg1k6C7434QFwnct1,b3w8Y3DxHEPjg1k6C7434QFwnct1,,,,,,,,,,,,,,,,,,,2399.0,,,61bb376b40db417c1a138a52,16:48:54,27/03/2024
html-keyboard-response,96,176645,0.0-42.0-0.0,1339.2999999970198,"<div style=""display: flex; flex-direction: column; align-items: center; margin-top: -40px;""><img src=""images/pattern_4.png"" style=""width: 234px; height: 230px; margin-top: -50px;""><div style=""display: flex; justify-content: space-between; margin-top: 33px;""><img src=""images/choice_trial_8.png"" style=""width: 408px; height: 417px; margin-right: 200px;""><img src=""images/choice_trial_7.png"" style=""width: 408px; height: 417px;""></div></div>",j,delaylearn,learning,trial,b3w8Y3DxHEPjg1k6C7434QFwnct1,b3w8Y3DxHEPjg1k6C7434QFwnct1,1.0,images/choice_trial_8.png,images/choice_trial_7.png,images/pattern_4.png,j,j,7000.0,8.0,7.0,3.0,1.0,18.0,1.0,1.0,7.0,60.0,,,,,,61bb376b40db417c1a138a52,16:48:54,27/03/2024
html-keyboard-response,97,177658,0.0-42.0-1.0,,"<div style=""display: flex; flex-direction: column; align-items: center; margin-top: -40px;""><img src=""images/pattern_4.png"" style=""width: 234px; height: 230px; margin-top: -50px;""><div style=""display: flex; justify-content: space-between; margin-top: 33px;""><img src=""images/choice_trial_7.png"" style=""width: 408px; height: 417px; margin-left:608px;""></div></div>",,delaylearn,learning,display_response,b3w8Y3DxHEPjg1k6C7434QFwnct1,b3w8Y3DxHEPjg1k6C7434QFwnct1,,,,,,,,,,,,,,,,,chosen stimuli: images/choice_trial_7.png,,,,,61bb376b40db417c1a138a52,16:48:54,27/03/2024
html-keyboard-response,98,184662,0.0-42.0-2.0,,,,delaylearn,learning,feedback_duration_window,b3w8Y3DxHEPjg1k6C7434QFwnct1,b3w8Y3DxHEPjg1k6C7434QFwnct1,,,,,,,,,,,,,,,,,,7000.0,,,,61bb376b40db417c1a138a52,16:48:54,27/03/2024
html-keyboard-response,99,186179,0.0-42.0-3.0,,<div style='margin:auto;width: auto; font-size: 150%'><span style='font-weight: bold; font-size: 100px; color: green;'>+10 points!</span><br><br></div>,,delaylearn,learning,feedback_image_window,b3w8Y3DxHEPjg1k6C7434QFwnct1,b3w8Y3DxHEPjg1k6C7434QFwnct1,,,,,,,,,,,,,,,,,,,,,,61bb376b40db417c1a138a52,16:48:54,27/03/2024
html-keyboard-response,100,188038,0.0-43.0,,"<div style=""font-size:100px;"">+</div>",,delaylearn,learning,ITI,b3w8Y3DxHEPjg1k6C7434QFwnct1,b3w8Y3DxHEPjg1k6C7434QFwnct1,,,,,,,,,,,,,,,,,,,1846.0,,,61bb376b40db417c1a138a52,16:48:54,27/03/2024
html-keyboard-response,101,189469,0.0-44.0-0.0,1429.0,"<div style=""display: flex; flex-direction: column; align-items: center; margin-top: -40px;""><img src=""images/pattern_7.png"" style=""width: 234px; height: 230px; margin-top: -50px;""><div style=""display: flex; justify-content: space-between; margin-top: 33px;""><img src=""images/choice_trial_13.png"" style=""width: 408px; height: 417px; margin-right: 200px;""><img src=""images/choice_trial_14.png"" style=""width: 408px; height: 417px;""></div></div>",j,delaylearn,learning,trial,b3w8Y3DxHEPjg1k6C7434QFwnct1,b3w8Y3DxHEPjg1k6C7434QFwnct1,1.0,images/choice_trial_13.png,images/choice_trial_14.png,images/pattern_7.png,j,f,750.0,13.0,14.0,6.0,0.0,19.0,0.0,1.0,14.0,70.0,,,,,,61bb376b40db417c1a138a52,16:48:54,27/03/2024
html-keyboard-response,102,190478,0.0-44.0-1.0,,"<div style=""display: flex; flex-direction: column; align-items: center; margin-top: -40px;""><img src=""images/pattern_7.png"" style=""width: 234px; height: 230px; margin-top: -50px;""><div style=""display: flex; justify-content: space-between; margin-top: 33px;""><img src=""images/choice_trial_14.png"" style=""width: 408px; height: 417px; margin-left:608px;""></div></div>",,delaylearn,learning,display_response,b3w8Y3DxHEPjg1k6C7434QFwnct1,b3w8Y3DxHEPjg1k6C7434QFwnct1,,,,,,,,,,,,,,,,,chosen stimuli: images/choice_trial_14.png,,,,,61bb376b40db417c1a138a52,16:48:54,27/03/2024
html-keyboard-response,103,191241,0.0-44.0-2.0,,,,delaylearn,learning,feedback_duration_window,b3w8Y3DxHEPjg1k6C7434QFwnct1,b3w8Y3DxHEPjg1k6C7434QFwnct1,,,,,,,,,,,,,,,,,,750.0,,,,61bb376b40db417c1a138a52,16:48:54,27/03/2024
html-keyboard-response,104,192756,0.0-44.0-3.0,,<div style='margin:auto;width: auto; font-size: 150%'><span style='font-weight: bold; font-size: 100px; color: green;'>+10 points!</span><br><br></div>,,delaylearn,learning,feedback_image_window,b3w8Y3DxHEPjg1k6C7434QFwnct1,b3w8Y3DxHEPjg1k6C7434QFwnct1,,,,,,,,,,,,,,,,,,,,,,61bb376b40db417c1a138a52,16:48:54,27/03/2024
html-keyboard-response,105,194947,0.0-45.0,,"<div style=""font-size:100px;"">+</div>",,delaylearn,learning,ITI,b3w8Y3DxHEPjg1k6C7434QFwnct1,b3w8Y3DxHEPjg1k6C7434QFwnct1,,,,,,,,,,,,,,,,,,,2188.0,,,61bb376b40db417c1a138a52,16:48:54,27/03/2024
html-keyboard-response,106,196812,0.0-46.0-0.0,1863.300000011921,"<div style=""display: flex; flex-direction: column; align-items: center; margin-top: -40px;""><img src=""images/pattern_1.png"" style=""width: 234px; height: 230px; margin-top: -50px;""><div style=""display: flex; justify-content: space-between; margin-top: 33px;""><img src=""images/choice_trial_1.png"" style=""width: 408px; height: 417px; margin-right: 200px;""><img src=""images/choice_trial_2.png"" style=""width: 408px; height: 417px;""></div></div>",j,delaylearn,learning,trial,b3w8Y3DxHEPjg1k6C7434QFwnct1,b3w8Y3DxHEPjg1k6C7434QFwnct1,1.0,images/choice_trial_1.png,images/choice_trial_2.png,images/pattern_1.png,f,f,7000.0,1.0,2.0,1.0,0.0,20.0,0.0,0.0,2.0,70.0,,,,,,61bb376b40db417c1a138a52,16:48:54,27/03/2024
html-keyboard-response,107,197820,0.0-46.0-1.0,,"<div style=""display: flex; flex-direction: column; align-items: center; margin-top: -40px;""><img src=""images/pattern_1.png"" style=""width: 234px; height: 230px; margin-top: -50px;""><div style=""display: flex; justify-content: space-between; margin-top: 33px;""><img src=""images/choice_trial_2.png"" style=""width: 408px; height: 417px; margin-left:608px;""></div></div>",,delaylearn,learning,display_response,b3w8Y3DxHEPjg1k6C7434QFwnct1,b3w8Y3DxHEPjg1k6C7434QFwnct1,,,,,,,,,,,,,,,,,chosen stimuli: images/choice_trial_2.png,,,,,61bb376b40db417c1a138a52,16:48:54,27/03/2024
html-keyboard-response,108,204824,0.0-46.0-2.0,,,,delaylearn,learning,feedback_duration_window,b3w8Y3DxHEPjg1k6C7434QFwnct1,b3w8Y3DxHEPjg1k6C7434QFwnct1,,,,,,,,,,,,,,,,,,7000.0,,,,61bb376b40db417c1a138a52,16:48:54,27/03/2024
html-keyboard-response,109,206335,0.0-46.0-3.0,,<div style='margin:auto;width: auto; font-size: 150%'><span style='font-weight: bold; font-size: 100px; color: red;'>0 points!</span><br><br></div>,,delaylearn,learning,feedback_image_window,b3w8Y3DxHEPjg1k6C7434QFwnct1,b3w8Y3DxHEPjg1k6C7434QFwnct1,,,,,,,,,,,,,,,,,,,,,,61bb376b40db417c1a138a52,16:48:54,27/03/2024
html-keyboard-response,110,208506,0.0-47.0,,"<div style=""font-size:100px;"">+</div>",,delaylearn,learning,ITI,b3w8Y3DxHEPjg1k6C7434QFwnct1,b3w8Y3DxHEPjg1k6C7434QFwnct1,,,,,,,,,,,,,,,,,,,2162.0,,,61bb376b40db417c1a138a52,16:48:54,27/03/2024
html-keyboard-response,111,209765,0.0-48.0-0.0,1256.2999999970198,"<div style=""display: flex; flex-direction: column; align-items: center; margin-top: -40px;""><img src=""images/pattern_6.png"" style=""width: 234px; height: 230px; margin-top: -50px;""><div style=""display: flex; justify-content: space-between; margin-top: 33px;""><img src=""images/choice_trial_12.png"" style=""width: 408px; height: 417px; margin-right: 200px;""><img src=""images/choice_trial_11.png"" style=""width: 408px; height: 417px;""></div></div>",f,delaylearn,learning,trial,b3w8Y3DxHEPjg1k6C7434QFwnct1,b3w8Y3DxHEPjg1k6C7434QFwnct1,1.0,images/choice_trial_12.png,images/choice_trial_11.png,images/pattern_6.png,j,j,750.0,12.0,11.0,5.0,1.0,21.0,0.0,0.0,12.0,70.0,,,,,,61bb376b40db417c1a138a52,16:48:54,27/03/2024
html-keyboard-response,112,210775,0.0-48.0-1.0,,"<div style=""display: flex; flex-direction: column; align-items: center; margin-top: -40px;""><img src=""images/pattern_6.png"" style=""width: 234px; height: 230px; margin-top: -50px;""><div style=""display: flex; justify-content: space-between; margin-top: 33px;""><img src=""images/choice_trial_12.png"" style=""width: 408px; height: 417px; margin-right: 608px;""></div></div>",,delaylearn,learning,display_response,b3w8Y3DxHEPjg1k6C7434QFwnct1,b3w8Y3DxHEPjg1k6C7434QFwnct1,,,,,,,,,,,,,,,,,chosen stimuli: images/choice_trial_12.png,,,,,61bb376b40db417c1a138a52,16:48:54,27/03/2024
html-keyboard-response,113,211539,0.0-48.0-2.0,,,,delaylearn,learning,feedback_duration_window,b3w8Y3DxHEPjg1k6C7434QFwnct1,b3w8Y3DxHEPjg1k6C7434QFwnct1,,,,,,,,,,,,,,,,,,750.0,,,,61bb376b40db417c1a138a52,16:48:54,27/03/2024
html-keyboard-response,114,213051,0.0-48.0-3.0,,<div style='margin:auto;width: auto; font-size: 150%'><span style='font-weight: bold; font-size: 100px; color: red;'>0 points!</span><br><br></div>,,delaylearn,learning,feedback_image_window,b3w8Y3DxHEPjg1k6C7434QFwnct1,b3w8Y3DxHEPjg1k6C7434QFwnct1,,,,,,,,,,,,,,,,,,,,,,61bb376b40db417c1a138a52,16:48:54,27/03/2024
html-keyboard-response,115,214618,0.0-49.0,,"<div style=""font-size:100px;"">+</div>",,delaylearn,learning,ITI,b3w8Y3DxHEPjg1k6C7434QFwnct1,b3w8Y3DxHEPjg1k6C7434QFwnct1,,,,,,,,,,,,,,,,,,,1560.0,,,61bb376b40db417c1a138a52,16:48:54,27/03/2024
html-keyboard-response,116,215452,0.0-50.0-0.0,831.7999999970198,"<div style=""display: flex; flex-direction: column; align-items: center; margin-top: -40px;""><img src=""images/pattern_4.png"" style=""width: 234px; height: 230px; margin-top: -50px;""><div style=""display: flex; justify-content: space-between; margin-top: 33px;""><img src=""images/choice_trial_7.png"" style=""width: 408px; height: 417px; margin-right: 200px;""><img src=""images/choice_trial_8.png"" style=""width: 408px; height: 417px;""></div></div>",f,delaylearn,learning,trial,b3w8Y3DxHEPjg1k6C7434QFwnct1,b3w8Y3DxHEPjg1k6C7434QFwnct1,1.0,images/choice_trial_7.png,images/choice_trial_8.png,images/pattern_4.png,f,f,7000.0,7.0,8.0,3.0,0.0,22.0,1.0,1.0,7.0,80.0,,,,,,61bb376b40db417c1a138a52,16:48:54,27/03/2024
html-keyboard-response,117,216469,0.0-50.0-1.0,,"<div style=""display: flex; flex-direction: column; align-items: center; margin-top: -40px;""><img src=""images/pattern_4.png"" style=""width: 234px; height: 230px; margin-top: -50px;""><div style=""display: flex; justify-content: space-between; margin-top: 33px;""><img src=""images/choice_trial_7.png"" style=""width: 408px; height: 417px; margin-right: 608px;""></div></div>",,delaylearn,learning,display_response,b3w8Y3DxHEPjg1k6C7434QFwnct1,b3w8Y3DxHEPjg1k6C7434QFwnct1,,,,,,,,,,,,,,,,,chosen stimuli: images/choice_trial_7.png,,,,,61bb376b40db417c1a138a52,16:48:54,27/03/2024
html-keyboard-response,118,223484,0.0-50.0-2.0,,,,delaylearn,learning,feedback_duration_window,b3w8Y3DxHEPjg1k6C7434QFwnct1,b3w8Y3DxHEPjg1k6C7434QFwnct1,,,,,,,,,,,,,,,,,,7000.0,,,,61bb376b40db417c1a138a52,16:48:54,27/03/2024
html-keyboard-response,119,224991,0.0-50.0-3.0,,<div style='margin:auto;width: auto; font-size: 150%'><span style='font-weight: bold; font-size: 100px; color: green;'>+10 points!</span><br><br></div>,,delaylearn,learning,feedback_image_window,b3w8Y3DxHEPjg1k6C7434QFwnct1,b3w8Y3DxHEPjg1k6C7434QFwnct1,,,,,,,,,,,,,,,,,,,,,,61bb376b40db417c1a138a52,16:48:54,27/03/2024
html-keyboard-response,120,225507,0.0-51.0-0.0,,,,,,mood_trial_fixation,b3w8Y3DxHEPjg1k6C7434QFwnct1,,,,,,,,,,,,,,,,,,,,,,,61bb376b40db417c1a138a52,16:48:54,27/03/2024
lmdlab-html-vas-response,121,228493,0.0-51.0-1.0,1974.0,How happy are you right now?,0.26781051846326,delaylearn,learning,mood_trial,b3w8Y3DxHEPjg1k6C7434QFwnct1,b3w8Y3DxHEPjg1k6C7434QFwnct1,,,,,,,,,,,,,,,,,,,,"['Very unhappy', 'Very happy']",,61bb376b40db417c1a138a52,16:48:54,27/03/2024
html-keyboard-response,122,230662,0.0-52.0,,"<div style=""font-size:100px;"">+</div>",,delaylearn,learning,ITI,b3w8Y3DxHEPjg1k6C7434QFwnct1,b3w8Y3DxHEPjg1k6C7434QFwnct1,,,,,,,,,,,,,,,,,,,2164.0,,,61bb376b40db417c1a138a52,16:48:54,27/03/2024
html-keyboard-response,123,231980,0.0-53.0-0.0,1315.2999999970198,"<div style=""display: flex; flex-direction: column; align-items: center; margin-top: -40px;""><img src=""images/pattern_7.png"" style=""width: 234px; height: 230px; margin-top: -50px;""><div style=""display: flex; justify-content: space-between; margin-top: 33px;""><img src=""images/choice_trial_14.png"" style=""width: 408px; height: 417px; margin-right: 200px;""><img src=""images/choice_trial_13.png"" style=""width: 408px; height: 417px;""></div></div>",f,delaylearn,learning,trial,b3w8Y3DxHEPjg1k6C7434QFwnct1,b3w8Y3DxHEPjg1k6C7434QFwnct1,1.0,images/choice_trial_14.png,images/choice_trial_13.png,images/pattern_7.png,j,j,750.0,14.0,13.0,6.0,1.0,23.0,0.0,0.0,14.0,80.0,,,,,,61bb376b40db417c1a138a52,16:48:54,27/03/2024
html-keyboard-response,124,232992,0.0-53.0-1.0,,"<div style=""display: flex; flex-direction: column; align-items: center; margin-top: -40px;""><img src=""images/pattern_7.png"" style=""width: 234px; height: 230px; margin-top: -50px;""><div style=""display: flex; justify-content: space-between; margin-top: 33px;""><img src=""images/choice_trial_14.png"" style=""width: 408px; height: 417px; margin-right: 608px;""></div></div>",,delaylearn,learning,display_response,b3w8Y3DxHEPjg1k6C7434QFwnct1,b3w8Y3DxHEPjg1k6C7434QFwnct1,,,,,,,,,,,,,,,,,chosen stimuli: images/choice_trial_14.png,,,,,61bb376b40db417c1a138a52,16:48:54,27/03/2024
html-keyboard-response,125,233747,0.0-53.0-2.0,,,,delaylearn,learning,feedback_duration_window,b3w8Y3DxHEPjg1k6C7434QFwnct1,b3w8Y3DxHEPjg1k6C7434QFwnct1,,,,,,,,,,,,,,,,,,750.0,,,,61bb376b40db417c1a138a52,16:48:54,27/03/2024
html-keyboard-response,126,235262,0.0-53.0-3.0,,<div style='margin:auto;width: auto; font-size: 150%'><span style='font-weight: bold; font-size: 100px; color: red;'>0 points!</span><br><br></div>,,delaylearn,learning,feedback_image_window,b3w8Y3DxHEPjg1k6C7434QFwnct1,b3w8Y3DxHEPjg1k6C7434QFwnct1,,,,,,,,,,,,,,,,,,,,,,61bb376b40db417c1a138a52,16:48:54,27/03/2024
html-keyboard-response,127,237288,0.0-54.0,,"<div style=""font-size:100px;"">+</div>",,delaylearn,learning,ITI,b3w8Y3DxHEPjg1k6C7434QFwnct1,b3w8Y3DxHEPjg1k6C7434QFwnct1,,,,,,,,,,,,,,,,,,,2023.0,,,61bb376b40db417c1a138a52,16:48:54,27/03/2024
html-keyboard-response,128,237772,0.0-55.0-0.0,481.69999998807907,"<div style=""display: flex; flex-direction: column; align-items: center; margin-top: -40px;""><img src=""images/pattern_1.png"" style=""width: 234px; height: 230px; margin-top: -50px;""><div style=""display: flex; justify-content: space-between; margin-top: 33px;""><img src=""images/choice_trial_2.png"" style=""width: 408px; height: 417px; margin-right: 200px;""><img src=""images/choice_trial_1.png"" style=""width: 408px; height: 417px;""></div></div>",f,delaylearn,learning,trial,b3w8Y3DxHEPjg1k6C7434QFwnct1,b3w8Y3DxHEPjg1k6C7434QFwnct1,1.0,images/choice_trial_2.png,images/choice_trial_1.png,images/pattern_1.png,f,j,7000.0,2.0,1.0,1.0,1.0,24.0,0.0,1.0,2.0,90.0,,,,,,61bb376b40db417c1a138a52,16:48:54,27/03/2024
html-keyboard-response,129,238788,0.0-55.0-1.0,,"<div style=""display: flex; flex-direction: column; align-items: center; margin-top: -40px;""><img src=""images/pattern_1.png"" style=""width: 234px; height: 230px; margin-top: -50px;""><div style=""display: flex; justify-content: space-between; margin-top: 33px;""><img src=""images/choice_trial_2.png"" style=""width: 408px; height: 417px; margin-right: 608px;""></div></div>",,delaylearn,learning,display_response,b3w8Y3DxHEPjg1k6C7434QFwnct1,b3w8Y3DxHEPjg1k6C7434QFwnct1,,,,,,,,,,,,,,,,,chosen stimuli: images/choice_trial_2.png,,,,,61bb376b40db417c1a138a52,16:48:54,27/03/2024
html-keyboard-response,130,245796,0.0-55.0-2.0,,,,delaylearn,learning,feedback_duration_window,b3w8Y3DxHEPjg1k6C7434QFwnct1,b3w8Y3DxHEPjg1k6C7434QFwnct1,,,,,,,,,,,,,,,,,,7000.0,,,,61bb376b40db417c1a138a52,16:48:54,27/03/2024
html-keyboard-response,131,247304,0.0-55.0-3.0,,<div style='margin:auto;width: auto; font-size: 150%'><span style='font-weight: bold; font-size: 100px; color: green;'>+10 points!</span><br><br></div>,,delaylearn,learning,feedback_image_window,b3w8Y3DxHEPjg1k6C7434QFwnct1,b3w8Y3DxHEPjg1k6C7434QFwnct1,,,,,,,,,,,,,,,,,,,,,,61bb376b40db417c1a138a52,16:48:54,27/03/2024
html-keyboard-response,132,249696,0.0-56.0,,"<div style=""font-size:100px;"">+</div>",,delaylearn,learning,ITI,b3w8Y3DxHEPjg1k6C7434QFwnct1,b3w8Y3DxHEPjg1k6C7434QFwnct1,,,,,,,,,,,,,,,,,,,2383.0,,,61bb376b40db417c1a138a52,16:48:54,27/03/2024
html-keyboard-response,133,251189,0.0-57.0-0.0,1490.1000000089407,"<div style=""display: flex; flex-direction: column; align-items: center; margin-top: -40px;""><img src=""images/pattern_5.png"" style=""width: 234px; height: 230px; margin-top: -50px;""><div style=""display: flex; justify-content: space-between; margin-top: 33px;""><img src=""images/choice_trial_10.png"" style=""width: 408px; height: 417px; margin-right: 200px;""><img src=""images/choice_trial_9.png"" style=""width: 408px; height: 417px;""></div></div>",j,delaylearn,learning,trial,b3w8Y3DxHEPjg1k6C7434QFwnct1,b3w8Y3DxHEPjg1k6C7434QFwnct1,1.0,images/choice_trial_10.png,images/choice_trial_9.png,images/pattern_5.png,j,j,750.0,10.0,9.0,4.0,1.0,25.0,1.0,1.0,9.0,100.0,,,,,,61bb376b40db417c1a138a52,16:48:54,27/03/2024
html-keyboard-response,134,252192,0.0-57.0-1.0,,"<div style=""display: flex; flex-direction: column; align-items: center; margin-top: -40px;""><img src=""images/pattern_5.png"" style=""width: 234px; height: 230px; margin-top: -50px;""><div style=""display: flex; justify-content: space-between; margin-top: 33px;""><img src=""images/choice_trial_9.png"" style=""width: 408px; height: 417px; margin-left:608px;""></div></div>",,delaylearn,learning,display_response,b3w8Y3DxHEPjg1k6C7434QFwnct1,b3w8Y3DxHEPjg1k6C7434QFwnct1,,,,,,,,,,,,,,,,,chosen stimuli: images/choice_trial_9.png,,,,,61bb376b40db417c1a138a52,16:48:54,27/03/2024
html-keyboard-response,135,252952,0.0-57.0-2.0,,,,delaylearn,learning,feedback_duration_window,b3w8Y3DxHEPjg1k6C7434QFwnct1,b3w8Y3DxHEPjg1k6C7434QFwnct1,,,,,,,,,,,,,,,,,,750.0,,,,61bb376b40db417c1a138a52,16:48:54,27/03/2024
html-keyboard-response,136,254460,0.0-57.0-3.0,,<div style='margin:auto;width: auto; font-size: 150%'><span style='font-weight: bold; font-size: 100px; color: green;'>+10 points!</span><br><br></div>,,delaylearn,learning,feedback_image_window,b3w8Y3DxHEPjg1k6C7434QFwnct1,b3w8Y3DxHEPjg1k6C7434QFwnct1,,,,,,,,,,,,,,,,,,,,,,61bb376b40db417c1a138a52,16:48:54,27/03/2024
html-keyboard-response,137,256734,0.0-58.0,,"<div style=""font-size:100px;"">+</div>",,delaylearn,learning,ITI,b3w8Y3DxHEPjg1k6C7434QFwnct1,b3w8Y3DxHEPjg1k6C7434QFwnct1,,,,,,,,,,,,,,,,,,,2266.0,,,61bb376b40db417c1a138a52,16:48:54,27/03/2024
html-keyboard-response,138,257724,0.0-59.0-0.0,986.8000000119209,"<div style=""display: flex; flex-direction: column; align-items: center; margin-top: -40px;""><img src=""images/pattern_3.png"" style=""width: 234px; height: 230px; margin-top: -50px;""><div style=""display: flex; justify-content: space-between; margin-top: 33px;""><img src=""images/choice_trial_6.png"" style=""width: 408px; height: 417px; margin-right: 200px;""><img src=""images/choice_trial_5.png"" style=""width: 408px; height: 417px;""></div></div>",j,delaylearn,learning,trial,b3w8Y3DxHEPjg1k6C7434QFwnct1,b3w8Y3DxHEPjg1k6C7434QFwnct1,1.0,images/choice_trial_6.png,images/choice_trial_5.png,images/pattern_3.png,j,j,7000.0,6.0,5.0,2.0,1.0,26.0,1.0,1.0,5.0,110.0,,,,,,61bb376b40db417c1a138a52,16:48:54,27/03/2024
html-keyboard-response,139,258727,0.0-59.0-1.0,,"<div style=""display: flex; flex-direction: column; align-items: center; margin-top: -40px;""><img src=""images/pattern_3.png"" style=""width: 234px; height: 230px; margin-top: -50px;""><div style=""display: flex; justify-content: space-between; margin-top: 33px;""><img src=""images/choice_trial_5.png"" style=""width: 408px; height: 417px; margin-left:608px;""></div></div>",,delaylearn,learning,display_response,b3w8Y3DxHEPjg1k6C7434QFwnct1,b3w8Y3DxHEPjg1k6C7434QFwnct1,,,,,,,,,,,,,,,,,chosen stimuli: images/choice_trial_5.png,,,,,61bb376b40db417c1a138a52,16:48:54,27/03/2024
html-keyboard-response,140,265734,0.0-59.0-2.0,,,,delaylearn,learning,feedback_duration_window,b3w8Y3DxHEPjg1k6C7434QFwnct1,b3w8Y3DxHEPjg1k6C7434QFwnct1,,,,,,,,,,,,,,,,,,7000.0,,,,61bb376b40db417c1a138a52,16:48:54,27/03/2024
html-keyboard-response,141,267242,0.0-59.0-3.0,,<div style='margin:auto;width: auto; font-size: 150%'><span style='font-weight: bold; font-size: 100px; color: green;'>+10 points!</span><br><br></div>,,delaylearn,learning,feedback_image_window,b3w8Y3DxHEPjg1k6C7434QFwnct1,b3w8Y3DxHEPjg1k6C7434QFwnct1,,,,,,,,,,,,,,,,,,,,,,61bb376b40db417c1a138a52,16:48:54,27/03/2024
lmdlab-html-vas-response,142,271961,0.0-60.0-0.0,3196.0,*How <b><u>confident</u></b> are you feeling about your answers at this moment?*,0.4631243430199044,rewlearn,rate_confidence,,b3w8Y3DxHEPjg1k6C7434QFwnct1,b3w8Y3DxHEPjg1k6C7434QFwnct1,,,,,,,,,,,,,,,,,,,,"['No confidence', 'Complete confidence']",,61bb376b40db417c1a138a52,16:48:54,27/03/2024
lmdlab-rest-trial-limit,143,285961,0.0-60.0-1.0,12483.60000000894,"<div style=""font-size:40px;""><b>Please take a break!</b><br><br><br><br><p>Great work: you earned 110 points.<br><br><br><p>You have completed part(s) 1 of 5.<br><br><br><br>When you are ready to continue<br><br><br>please click the button.</p><br><br>",0,delaylearn,learning,break,b3w8Y3DxHEPjg1k6C7434QFwnct1,b3w8Y3DxHEPjg1k6C7434QFwnct1,,,,,,,,,,,,,,,,,,,,,0.0,61bb376b40db417c1a138a52,16:48:54,27/03/2024
html-keyboard-response,144,288976,0.0-60.0-2.0,,"<div style=""font-size:100px;"">+</div>",,delaylearn,learning,pre_fixation,b3w8Y3DxHEPjg1k6C7434QFwnct1,,,,,,,,,,,,,,,,,,,,,,,61bb376b40db417c1a138a52,16:48:54,27/03/2024
lmdlab-html-vas-response,145,292376,0.0-60.0-3.0-0.0,2380.0,How happy are you right now?,0.26564036485707504,delaylearn,learning,mood_baseline,b3w8Y3DxHEPjg1k6C7434QFwnct1,b3w8Y3DxHEPjg1k6C7434QFwnct1,,,,,,,,,,,,,,,,,,,,"['Very unhappy', 'Very happy']",,61bb376b40db417c1a138a52,16:48:54,27/03/2024
html-keyboard-response,146,293883,0.0-60.0-3.0-1.0,,,,,,mood_baseline_fixation,b3w8Y3DxHEPjg1k6C7434QFwnct1,,,,,,,,,,,,,,,,,,,,,,,61bb376b40db417c1a138a52,16:48:54,27/03/2024
html-keyboard-response,147,295538,0.0-61.0,,"<div style=""font-size:100px;"">+</div>",,delaylearn,learning,ITI,b3w8Y3DxHEPjg1k6C7434QFwnct1,b3w8Y3DxHEPjg1k6C7434QFwnct1,,,,,,,,,,,,,,,,,,,1653.0,,,61bb376b40db417c1a138a52,16:48:54,27/03/2024
html-keyboard-response,148,296788,0.0-62.0-0.0,1247.0999999940395,"<div style=""display: flex; flex-direction: column; align-items: center; margin-top: -40px;""><img src=""images/pattern_7.png"" style=""width: 234px; height: 230px; margin-top: -50px;""><div style=""display: flex; justify-content: space-between; margin-top: 33px;""><img src=""images/choice_trial_14.png"" style=""width: 408px; height: 417px; margin-right: 200px;""><img src=""images/choice_trial_13.png"" style=""width: 408px; height: 417px;""></div></div>",j,delaylearn,learning,trial,b3w8Y3DxHEPjg1k6C7434QFwnct1,b3w8Y3DxHEPjg1k6C7434QFwnct1,1.0,images/choice_trial_14.png,images/choice_trial_13.png,images/pattern_7.png,j,j,750.0,14.0,13.0,6.0,1.0,27.0,1.0,1.0,13.0,120.0,,,,,,61bb376b40db417c1a138a52,16:48:54,27/03/2024
html-keyboard-response,149,297791,0.0-62.0-1.0,,"<div style=""display: flex; flex-direction: column; align-items: center; margin-top: -40px;""><img src=""images/pattern_7.png"" style=""width: 234px; height: 230px; margin-top: -50px;""><div style=""display: flex; justify-content: space-between; margin-top: 33px;""><img src=""images/choice_trial_13.png"" style=""width: 408px; height: 417px; margin-left:608px;""></div></div>",,delaylearn,learning,display_response,b3w8Y3DxHEPjg1k6C7434QFwnct1,b3w8Y3DxHEPjg1k6C7434QFwnct1,,,,,,,,,,,,,,,,,chosen stimuli: images/choice_trial_13.png,,,,,61bb376b40db417c1a138a52,16:48:54,27/03/2024
html-keyboard-response,150,298544,0.0-62.0-2.0,,,,delaylearn,learning,feedback_duration_window,b3w8Y3DxHEPjg1k6C7434QFwnct1,b3w8Y3DxHEPjg1k6C7434QFwnct1,,,,,,,,,,,,,,,,,,750.0,,,,61bb376b40db417c1a138a52,16:48:54,27/03/2024
html-keyboard-response,151,300055,0.0-62.0-3.0,,<div style='margin:auto;width: auto; font-size: 150%'><span style='font-weight: bold; font-size: 100px; color: green;'>+10 points!</span><br><br></div>,,delaylearn,learning,feedback_image_window,b3w8Y3DxHEPjg1k6C7434QFwnct1,b3w8Y3DxHEPjg1k6C7434QFwnct1,,,,,,,,,,,,,,,,,,,,,,61bb376b40db417c1a138a52,16:48:54,27/03/2024
html-keyboard-response,152,300569,0.0-63.0-0.0,,,,,,mood_trial_fixation,b3w8Y3DxHEPjg1k6C7434QFwnct1,,,,,,,,,,,,,,,,,,,,,,,61bb376b40db417c1a138a52,16:48:54,27/03/2024
lmdlab-html-vas-response,153,303700,0.0-63.0-1.0,2125.0,How happy are you right now?,0.24176867518904072,delaylearn,learning,mood_trial,b3w8Y3DxHEPjg1k6C7434QFwnct1,b3w8Y3DxHEPjg1k6C7434QFwnct1,,,,,,,,,,,,,,,,,,,,"['Very unhappy', 'Very happy']",,61bb376b40db417c1a138a52,16:48:54,27/03/2024
html-keyboard-response,154,305233,0.0-64.0,,"<div style=""font-size:100px;"">+</div>",,delaylearn,learning,ITI,b3w8Y3DxHEPjg1k6C7434QFwnct1,b3w8Y3DxHEPjg1k6C7434QFwnct1,,,,,,,,,,,,,,,,,,,1523.0,,,61bb376b40db417c1a138a52,16:48:54,27/03/2024
html-keyboard-response,155,306643,0.0-65.0-0.0,1407.7000000029802,"<div style=""display: flex; flex-direction: column; align-items: center; margin-top: -40px;""><img src=""images/pattern_1.png"" style=""width: 234px; height: 230px; margin-top: -50px;""><div style=""display: flex; justify-content: space-between; margin-top: 33px;""><img src=""images/choice_trial_1.png"" style=""width: 408px; height: 417px; margin-right: 200px;""><img src=""images/choice_trial_2.png"" style=""width: 408px; height: 417px;""></div></div>",j,delaylearn,learning,trial,b3w8Y3DxHEPjg1k6C7434QFwnct1,b3w8Y3DxHEPjg1k6C7434QFwnct1,1.0,images/choice_trial_1.png,images/choice_trial_2.png,images/pattern_1.png,f,f,7000.0,1.0,2.0,1.0,0.0,28.0,0.0,0.0,2.0,120.0,,,,,,61bb376b40db417c1a138a52,16:48:54,27/03/2024
html-keyboard-response,156,307648,0.0-65.0-1.0,,"<div style=""display: flex; flex-direction: column; align-items: center; margin-top: -40px;""><img src=""images/pattern_1.png"" style=""width: 234px; height: 230px; margin-top: -50px;""><div style=""display: flex; justify-content: space-between; margin-top: 33px;""><img src=""images/choice_trial_2.png"" style=""width: 408px; height: 417px; margin-left:608px;""></div></div>",,delaylearn,learning,display_response,b3w8Y3DxHEPjg1k6C7434QFwnct1,b3w8Y3DxHEPjg1k6C7434QFwnct1,,,,,,,,,,,,,,,,,chosen stimuli: images/choice_trial_2.png,,,,,61bb376b40db417c1a138a52,16:48:54,27/03/2024
html-keyboard-response,157,314663,0.0-65.0-2.0,,,,delaylearn,learning,feedback_duration_window,b3w8Y3DxHEPjg1k6C7434QFwnct1,b3w8Y3DxHEPjg1k6C7434QFwnct1,,,,,,,,,,,,,,,,,,7000.0,,,,61bb376b40db417c1a138a52,16:48:54,27/03/2024
html-keyboard-response,158,316178,0.0-65.0-3.0,,<div style='margin:auto;width: auto; font-size: 150%'><span style='font-weight: bold; font-size: 100px; color: red;'>0 points!</span><br><br></div>,,delaylearn,learning,feedback_image_window,b3w8Y3DxHEPjg1k6C7434QFwnct1,b3w8Y3DxHEPjg1k6C7434QFwnct1,,,,,,,,,,,,,,,,,,,,,,61bb376b40db417c1a138a52,16:48:54,27/03/2024
html-keyboard-response,159,318633,0.0-66.0,,"<div style=""font-size:100px;"">+</div>",,delaylearn,learning,ITI,b3w8Y3DxHEPjg1k6C7434QFwnct1,b3w8Y3DxHEPjg1k6C7434QFwnct1,,,,,,,,,,,,,,,,,,,2443.0,,,61bb376b40db417c1a138a52,16:48:54,27/03/2024
html-keyboard-response,160,319539,0.0-67.0-0.0,903.9000000059605,"<div style=""display: flex; flex-direction: column; align-items: center; margin-top: -40px;""><img src=""images/pattern_5.png"" style=""width: 234px; height: 230px; margin-top: -50px;""><div style=""display: flex; justify-content: space-between; margin-top: 33px;""><img src=""images/choice_trial_9.png"" style=""width: 408px; height: 417px; margin-right: 200px;""><img src=""images/choice_trial_10.png"" style=""width: 408px; height: 417px;""></div></div>",f,delaylearn,learning,trial,b3w8Y3DxHEPjg1k6C7434QFwnct1,b3w8Y3DxHEPjg1k6C7434QFwnct1,1.0,images/choice_trial_9.png,images/choice_trial_10.png,images/pattern_5.png,f,f,750.0,9.0,10.0,4.0,0.0,29.0,1.0,1.0,9.0,130.0,,,,,,61bb376b40db417c1a138a52,16:48:54,27/03/2024
html-keyboard-response,161,320555,0.0-67.0-1.0,,"<div style=""display: flex; flex-direction: column; align-items: center; margin-top: -40px;""><img src=""images/pattern_5.png"" style=""width: 234px; height: 230px; margin-top: -50px;""><div style=""display: flex; justify-content: space-between; margin-top: 33px;""><img src=""images/choice_trial_9.png"" style=""width: 408px; height: 417px; margin-right: 608px;""></div></div>",,delaylearn,learning,display_response,b3w8Y3DxHEPjg1k6C7434QFwnct1,b3w8Y3DxHEPjg1k6C7434QFwnct1,,,,,,,,,,,,,,,,,chosen stimuli: images/choice_trial_9.png,,,,,61bb376b40db417c1a138a52,16:48:54,27/03/2024
html-keyboard-response,162,321320,0.0-67.0-2.0,,,,delaylearn,learning,feedback_duration_window,b3w8Y3DxHEPjg1k6C7434QFwnct1,b3w8Y3DxHEPjg1k6C7434QFwnct1,,,,,,,,,,,,,,,,,,750.0,,,,61bb376b40db417c1a138a52,16:48:54,27/03/2024
html-keyboard-response,163,322836,0.0-67.0-3.0,,<div style='margin:auto;width: auto; font-size: 150%'><span style='font-weight: bold; font-size: 100px; color: green;'>+10 points!</span><br><br></div>,,delaylearn,learning,feedback_image_window,b3w8Y3DxHEPjg1k6C7434QFwnct1,b3w8Y3DxHEPjg1k6C7434QFwnct1,,,,,,,,,,,,,,,,,,,,,,61bb376b40db417c1a138a52,16:48:54,27/03/2024
html-keyboard-response,164,325162,0.0-68.0,,"<div style=""font-size:100px;"">+</div>",,delaylearn,learning,ITI,b3w8Y3DxHEPjg1k6C7434QFwnct1,b3w8Y3DxHEPjg1k6C7434QFwnct1,,,,,,,,,,,,,,,,,,,2310.0,,,61bb376b40db417c1a138a52,16:48:54,27/03/2024
html-keyboard-response,165,325939,0.0-69.0-0.0,774.0,"<div style=""display: flex; flex-direction: column; align-items: center; margin-top: -40px;""><img src=""images/pattern_6.png"" style=""width: 234px; height: 230px; margin-top: -50px;""><div style=""display: flex; justify-content: space-between; margin-top: 33px;""><img src=""images/choice_trial_12.png"" style=""width: 408px; height: 417px; margin-right: 200px;""><img src=""images/choice_trial_11.png"" style=""width: 408px; height: 417px;""></div></div>",j,delaylearn,learning,trial,b3w8Y3DxHEPjg1k6C7434QFwnct1,b3w8Y3DxHEPjg1k6C7434QFwnct1,1.0,images/choice_trial_12.png,images/choice_trial_11.png,images/pattern_6.png,j,j,750.0,12.0,11.0,5.0,1.0,30.0,1.0,1.0,11.0,140.0,,,,,,61bb376b40db417c1a138a52,16:48:54,27/03/2024
html-keyboard-response,166,326956,0.0-69.0-1.0,,"<div style=""display: flex; flex-direction: column; align-items: center; margin-top: -40px;""><img src=""images/pattern_6.png"" style=""width: 234px; height: 230px; margin-top: -50px;""><div style=""display: flex; justify-content: space-between; margin-top: 33px;""><img src=""images/choice_trial_11.png"" style=""width: 408px; height: 417px; margin-left:608px;""></div></div>",,delaylearn,learning,display_response,b3w8Y3DxHEPjg1k6C7434QFwnct1,b3w8Y3DxHEPjg1k6C7434QFwnct1,,,,,,,,,,,,,,,,,chosen stimuli: images/choice_trial_11.png,,,,,61bb376b40db417c1a138a52,16:48:54,27/03/2024
html-keyboard-response,167,327718,0.0-69.0-2.0,,,,delaylearn,learning,feedback_duration_window,b3w8Y3DxHEPjg1k6C7434QFwnct1,b3w8Y3DxHEPjg1k6C7434QFwnct1,,,,,,,,,,,,,,,,,,750.0,,,,61bb376b40db417c1a138a52,16:48:54,27/03/2024
html-keyboard-response,168,329234,0.0-69.0-3.0,,<div style='margin:auto;width: auto; font-size: 150%'><span style='font-weight: bold; font-size: 100px; color: green;'>+10 points!</span><br><br></div>,,delaylearn,learning,feedback_image_window,b3w8Y3DxHEPjg1k6C7434QFwnct1,b3w8Y3DxHEPjg1k6C7434QFwnct1,,,,,,,,,,,,,,,,,,,,,,61bb376b40db417c1a138a52,16:48:54,27/03/2024
html-keyboard-response,169,329745,0.0-70.0-0.0,,,,,,mood_trial_fixation,b3w8Y3DxHEPjg1k6C7434QFwnct1,,,,,,,,,,,,,,,,,,,,,,,61bb376b40db417c1a138a52,16:48:54,27/03/2024
lmdlab-html-vas-response,170,334452,0.0-70.0-1.0,3692.0,How happy are you right now?,0.15062222372927334,delaylearn,learning,mood_trial,b3w8Y3DxHEPjg1k6C7434QFwnct1,b3w8Y3DxHEPjg1k6C7434QFwnct1,,,,,,,,,,,,,,,,,,,,"['Very unhappy', 'Very happy']",,61bb376b40db417c1a138a52,16:48:54,27/03/2024
html-keyboard-response,171,335960,0.0-71.0,,"<div style=""font-size:100px;"">+</div>",,delaylearn,learning,ITI,b3w8Y3DxHEPjg1k6C7434QFwnct1,b3w8Y3DxHEPjg1k6C7434QFwnct1,,,,,,,,,,,,,,,,,,,1504.0,,,61bb376b40db417c1a138a52,16:48:54,27/03/2024
html-keyboard-response,172,337147,0.0-72.0-0.0,1183.9000000059605,"<div style=""display: flex; flex-direction: column; align-items: center; margin-top: -40px;""><img src=""images/pattern_4.png"" style=""width: 234px; height: 230px; margin-top: -50px;""><div style=""display: flex; justify-content: space-between; margin-top: 33px;""><img src=""images/choice_trial_8.png"" style=""width: 408px; height: 417px; margin-right: 200px;""><img src=""images/choice_trial_7.png"" style=""width: 408px; height: 417px;""></div></div>",j,delaylearn,learning,trial,b3w8Y3DxHEPjg1k6C7434QFwnct1,b3w8Y3DxHEPjg1k6C7434QFwnct1,1.0,images/choice_trial_8.png,images/choice_trial_7.png,images/pattern_4.png,j,j,7000.0,8.0,7.0,3.0,1.0,31.0,1.0,1.0,7.0,150.0,,,,,,61bb376b40db417c1a138a52,16:48:54,27/03/2024
html-keyboard-response,173,338164,0.0-72.0-1.0,,"<div style=""display: flex; flex-direction: column; align-items: center; margin-top: -40px;""><img src=""images/pattern_4.png"" style=""width: 234px; height: 230px; margin-top: -50px;""><div style=""display: flex; justify-content: space-between; margin-top: 33px;""><img src=""images/choice_trial_7.png"" style=""width: 408px; height: 417px; margin-left:608px;""></div></div>",,delaylearn,learning,display_response,b3w8Y3DxHEPjg1k6C7434QFwnct1,b3w8Y3DxHEPjg1k6C7434QFwnct1,,,,,,,,,,,,,,,,,chosen stimuli: images/choice_trial_7.png,,,,,61bb376b40db417c1a138a52,16:48:54,27/03/2024
html-keyboard-response,174,345179,0.0-72.0-2.0,,,,delaylearn,learning,feedback_duration_window,b3w8Y3DxHEPjg1k6C7434QFwnct1,b3w8Y3DxHEPjg1k6C7434QFwnct1,,,,,,,,,,,,,,,,,,7000.0,,,,61bb376b40db417c1a138a52,16:48:54,27/03/2024
html-keyboard-response,175,346694,0.0-72.0-3.0,,<div style='margin:auto;width: auto; font-size: 150%'><span style='font-weight: bold; font-size: 100px; color: green;'>+10 points!</span><br><br></div>,,delaylearn,learning,feedback_image_window,b3w8Y3DxHEPjg1k6C7434QFwnct1,b3w8Y3DxHEPjg1k6C7434QFwnct1,,,,,,,,,,,,,,,,,,,,,,61bb376b40db417c1a138a52,16:48:54,27/03/2024
html-keyboard-response,176,349022,0.0-73.0,,"<div style=""font-size:100px;"">+</div>",,delaylearn,learning,ITI,b3w8Y3DxHEPjg1k6C7434QFwnct1,b3w8Y3DxHEPjg1k6C7434QFwnct1,,,,,,,,,,,,,,,,,,,2314.0,,,61bb376b40db417c1a138a52,16:48:54,27/03/2024
html-keyboard-response,177,349955,0.0-74.0-0.0,930.2000000029802,"<div style=""display: flex; flex-direction: column; align-items: center; margin-top: -40px;""><img src=""images/pattern_3.png"" style=""width: 234px; height: 230px; margin-top: -50px;""><div style=""display: flex; justify-content: space-between; margin-top: 33px;""><img src=""images/choice_trial_6.png"" style=""width: 408px; height: 417px; margin-right: 200px;""><img src=""images/choice_trial_5.png"" style=""width: 408px; height: 417px;""></div></div>",f,delaylearn,learning,trial,b3w8Y3DxHEPjg1k6C7434QFwnct1,b3w8Y3DxHEPjg1k6C7434QFwnct1,1.0,images/choice_trial_6.png,images/choice_trial_5.png,images/pattern_3.png,j,j,7000.0,6.0,5.0,2.0,1.0,32.0,0.0,0.0,6.0,150.0,,,,,,61bb376b40db417c1a138a52,16:48:54,27/03/2024
html-keyboard-response,178,350960,0.0-74.0-1.0,,"<div style=""display: flex; flex-direction: column; align-items: center; margin-top: -40px;""><img src=""images/pattern_3.png"" style=""width: 234px; height: 230px; margin-top: -50px;""><div style=""display: flex; justify-content: space-between; margin-top: 33px;""><img src=""images/choice_trial_6.png"" style=""width: 408px; height: 417px; margin-right: 608px;""></div></div>",,delaylearn,learning,display_response,b3w8Y3DxHEPjg1k6C7434QFwnct1,b3w8Y3DxHEPjg1k6C7434QFwnct1,,,,,,,,,,,,,,,,,chosen stimuli: images/choice_trial_6.png,,,,,61bb376b40db417c1a138a52,16:48:54,27/03/2024
html-keyboard-response,179,357975,0.0-74.0-2.0,,,,delaylearn,learning,feedback_duration_window,b3w8Y3DxHEPjg1k6C7434QFwnct1,b3w8Y3DxHEPjg1k6C7434QFwnct1,,,,,,,,,,,,,,,,,,7000.0,,,,61bb376b40db417c1a138a52,16:48:54,27/03/2024
html-keyboard-response,180,359483,0.0-74.0-3.0,,<div style='margin:auto;width: auto; font-size: 150%'><span style='font-weight: bold; font-size: 100px; color: red;'>0 points!</span><br><br></div>,,delaylearn,learning,feedback_image_window,b3w8Y3DxHEPjg1k6C7434QFwnct1,b3w8Y3DxHEPjg1k6C7434QFwnct1,,,,,,,,,,,,,,,,,,,,,,61bb376b40db417c1a138a52,16:48:54,27/03/2024
html-keyboard-response,181,361086,0.0-75.0,,"<div style=""font-size:100px;"">+</div>",,delaylearn,learning,ITI,b3w8Y3DxHEPjg1k6C7434QFwnct1,b3w8Y3DxHEPjg1k6C7434QFwnct1,,,,,,,,,,,,,,,,,,,1593.0,,,61bb376b40db417c1a138a52,16:48:54,27/03/2024
html-keyboard-response,182,362267,0.0-76.0-0.0,1178.7999999970198,"<div style=""display: flex; flex-direction: column; align-items: center; margin-top: -40px;""><img src=""images/pattern_5.png"" style=""width: 234px; height: 230px; margin-top: -50px;""><div style=""display: flex; justify-content: space-between; margin-top: 33px;""><img src=""images/choice_trial_9.png"" style=""width: 408px; height: 417px; margin-right: 200px;""><img src=""images/choice_trial_10.png"" style=""width: 408px; height: 417px;""></div></div>",f,delaylearn,learning,trial,b3w8Y3DxHEPjg1k6C7434QFwnct1,b3w8Y3DxHEPjg1k6C7434QFwnct1,1.0,images/choice_trial_9.png,images/choice_trial_10.png,images/pattern_5.png,j,f,750.0,9.0,10.0,4.0,0.0,33.0,1.0,0.0,9.0,150.0,,,,,,61bb376b40db417c1a138a52,16:48:54,27/03/2024
html-keyboard-response,183,363272,0.0-76.0-1.0,,"<div style=""display: flex; flex-direction: column; align-items: center; margin-top: -40px;""><img src=""images/pattern_5.png"" style=""width: 234px; height: 230px; margin-top: -50px;""><div style=""display: flex; justify-content: space-between; margin-top: 33px;""><img src=""images/choice_trial_9.png"" style=""width: 408px; height: 417px; margin-right: 608px;""></div></div>",,delaylearn,learning,display_response,b3w8Y3DxHEPjg1k6C7434QFwnct1,b3w8Y3DxHEPjg1k6C7434QFwnct1,,,,,,,,,,,,,,,,,chosen stimuli: images/choice_trial_9.png,,,,,61bb376b40db417c1a138a52,16:48:54,27/03/2024
html-keyboard-response,184,364037,0.0-76.0-2.0,,,,delaylearn,learning,feedback_duration_window,b3w8Y3DxHEPjg1k6C7434QFwnct1,b3w8Y3DxHEPjg1k6C7434QFwnct1,,,,,,,,,,,,,,,,,,750.0,,,,61bb376b40db417c1a138a52,16:48:54,27/03/2024
html-keyboard-response,185,365539,0.0-76.0-3.0,,<div style='margin:auto;width: auto; font-size: 150%'><span style='font-weight: bold; font-size: 100px; color: red;'>0 points!</span><br><br></div>,,delaylearn,learning,feedback_image_window,b3w8Y3DxHEPjg1k6C7434QFwnct1,b3w8Y3DxHEPjg1k6C7434QFwnct1,,,,,,,,,,,,,,,,,,,,,,61bb376b40db417c1a138a52,16:48:54,27/03/2024
html-keyboard-response,186,367611,0.0-77.0,,"<div style=""font-size:100px;"">+</div>",,delaylearn,learning,ITI,b3w8Y3DxHEPjg1k6C7434QFwnct1,b3w8Y3DxHEPjg1k6C7434QFwnct1,,,,,,,,,,,,,,,,,,,2065.0,,,61bb376b40db417c1a138a52,16:48:54,27/03/2024
html-keyboard-response,187,368594,0.0-78.0-0.0,981.0,"<div style=""display: flex; flex-direction: column; align-items: center; margin-top: -40px;""><img src=""images/pattern_1.png"" style=""width: 234px; height: 230px; margin-top: -50px;""><div style=""display: flex; justify-content: space-between; margin-top: 33px;""><img src=""images/choice_trial_1.png"" style=""width: 408px; height: 417px; margin-right: 200px;""><img src=""images/choice_trial_2.png"" style=""width: 408px; height: 417px;""></div></div>",j,delaylearn,learning,trial,b3w8Y3DxHEPjg1k6C7434QFwnct1,b3w8Y3DxHEPjg1k6C7434QFwnct1,1.0,images/choice_trial_1.png,images/choice_trial_2.png,images/pattern_1.png,f,f,7000.0,1.0,2.0,1.0,0.0,34.0,0.0,0.0,2.0,150.0,,,,,,61bb376b40db417c1a138a52,16:48:54,27/03/2024
html-keyboard-response,188,369600,0.0-78.0-1.0,,"<div style=""display: flex; flex-direction: column; align-items: center; margin-top: -40px;""><img src=""images/pattern_1.png"" style=""width: 234px; height: 230px; margin-top: -50px;""><div style=""display: flex; justify-content: space-between; margin-top: 33px;""><img src=""images/choice_trial_2.png"" style=""width: 408px; height: 417px; margin-left:608px;""></div></div>",,delaylearn,learning,display_response,b3w8Y3DxHEPjg1k6C7434QFwnct1,b3w8Y3DxHEPjg1k6C7434QFwnct1,,,,,,,,,,,,,,,,,chosen stimuli: images/choice_trial_2.png,,,,,61bb376b40db417c1a138a52,16:48:54,27/03/2024
html-keyboard-response,189,376611,0.0-78.0-2.0,,,,delaylearn,learning,feedback_duration_window,b3w8Y3DxHEPjg1k6C7434QFwnct1,b3w8Y3DxHEPjg1k6C7434QFwnct1,,,,,,,,,,,,,,,,,,7000.0,,,,61bb376b40db417c1a138a52,16:48:54,27/03/2024
html-keyboard-response,190,378118,0.0-78.0-3.0,,<div style='margin:auto;width: auto; font-size: 150%'><span style='font-weight: bold; font-size: 100px; color: red;'>0 points!</span><br><br></div>,,delaylearn,learning,feedback_image_window,b3w8Y3DxHEPjg1k6C7434QFwnct1,b3w8Y3DxHEPjg1k6C7434QFwnct1,,,,,,,,,,,,,,,,,,,,,,61bb376b40db417c1a138a52,16:48:54,27/03/2024
html-keyboard-response,191,378634,0.0-79.0-0.0,,,,,,mood_trial_fixation,b3w8Y3DxHEPjg1k6C7434QFwnct1,,,,,,,,,,,,,,,,,,,,,,,61bb376b40db417c1a138a52,16:48:54,27/03/2024
lmdlab-html-vas-response,192,383483,0.0-79.0-1.0,3833.0,How happy are you right now?,0.044284697026211385,delaylearn,learning,mood_trial,b3w8Y3DxHEPjg1k6C7434QFwnct1,b3w8Y3DxHEPjg1k6C7434QFwnct1,,,,,,,,,,,,,,,,,,,,"['Very unhappy', 'Very happy']",,61bb376b40db417c1a138a52,16:48:54,27/03/2024
html-keyboard-response,193,385191,0.0-80.0,,"<div style=""font-size:100px;"">+</div>",,delaylearn,learning,ITI,b3w8Y3DxHEPjg1k6C7434QFwnct1,b3w8Y3DxHEPjg1k6C7434QFwnct1,,,,,,,,,,,,,,,,,,,1706.0,,,61bb376b40db417c1a138a52,16:48:54,27/03/2024
html-keyboard-response,194,386698,0.0-81.0-0.0,1504.7000000029802,"<div style=""display: flex; flex-direction: column; align-items: center; margin-top: -40px;""><img src=""images/pattern_6.png"" style=""width: 234px; height: 230px; margin-top: -50px;""><div style=""display: flex; justify-content: space-between; margin-top: 33px;""><img src=""images/choice_trial_11.png"" style=""width: 408px; height: 417px; margin-right: 200px;""><img src=""images/choice_trial_12.png"" style=""width: 408px; height: 417px;""></div></div>",j,delaylearn,learning,trial,b3w8Y3DxHEPjg1k6C7434QFwnct1,b3w8Y3DxHEPjg1k6C7434QFwnct1,1.0,images/choice_trial_11.png,images/choice_trial_12.png,images/pattern_6.png,j,f,750.0,11.0,12.0,5.0,0.0,35.0,0.0,1.0,12.0,160.0,,,,,,61bb376b40db417c1a138a52,16:48:54,27/03/2024
html-keyboard-response,195,387711,0.0-81.0-1.0,,"<div style=""display: flex; flex-direction: column; align-items: center; margin-top: -40px;""><img src=""images/pattern_6.png"" style=""width: 234px; height: 230px; margin-top: -50px;""><div style=""display: flex; justify-content: space-between; margin-top: 33px;""><img src=""images/choice_trial_12.png"" style=""width: 408px; height: 417px; margin-left:608px;""></div></div>",,delaylearn,learning,display_response,b3w8Y3DxHEPjg1k6C7434QFwnct1,b3w8Y3DxHEPjg1k6C7434QFwnct1,,,,,,,,,,,,,,,,,chosen stimuli: images/choice_trial_12.png,,,,,61bb376b40db417c1a138a52,16:48:54,27/03/2024
html-keyboard-response,196,388476,0.0-81.0-2.0,,,,delaylearn,learning,feedback_duration_window,b3w8Y3DxHEPjg1k6C7434QFwnct1,b3w8Y3DxHEPjg1k6C7434QFwnct1,,,,,,,,,,,,,,,,,,750.0,,,,61bb376b40db417c1a138a52,16:48:54,27/03/2024
html-keyboard-response,197,389992,0.0-81.0-3.0,,<div style='margin:auto;width: auto; font-size: 150%'><span style='font-weight: bold; font-size: 100px; color: green;'>+10 points!</span><br><br></div>,,delaylearn,learning,feedback_image_window,b3w8Y3DxHEPjg1k6C7434QFwnct1,b3w8Y3DxHEPjg1k6C7434QFwnct1,,,,,,,,,,,,,,,,,,,,,,61bb376b40db417c1a138a52,16:48:54,27/03/2024
html-keyboard-response,198,391866,0.0-82.0,,"<div style=""font-size:100px;"">+</div>",,delaylearn,learning,ITI,b3w8Y3DxHEPjg1k6C7434QFwnct1,b3w8Y3DxHEPjg1k6C7434QFwnct1,,,,,,,,,,,,,,,,,,,1863.0,,,61bb376b40db417c1a138a52,16:48:54,27/03/2024
html-keyboard-response,199,392706,0.0-83.0-0.0,837.2000000029802,"<div style=""display: flex; flex-direction: column; align-items: center; margin-top: -40px;""><img src=""images/pattern_3.png"" style=""width: 234px; height: 230px; margin-top: -50px;""><div style=""display: flex; justify-content: space-between; margin-top: 33px;""><img src=""images/choice_trial_6.png"" style=""width: 408px; height: 417px; margin-right: 200px;""><img src=""images/choice_trial_5.png"" style=""width: 408px; height: 417px;""></div></div>",j,delaylearn,learning,trial,b3w8Y3DxHEPjg1k6C7434QFwnct1,b3w8Y3DxHEPjg1k6C7434QFwnct1,1.0,images/choice_trial_6.png,images/choice_trial_5.png,images/pattern_3.png,j,j,7000.0,6.0,5.0,2.0,1.0,36.0,1.0,1.0,5.0,170.0,,,,,,61bb376b40db417c1a138a52,16:48:54,27/03/2024
html-keyboard-response,200,393720,0.0-83.0-1.0,,"<div style=""display: flex; flex-direction: column; align-items: center; margin-top: -40px;""><img src=""images/pattern_3.png"" style=""width: 234px; height: 230px; margin-top: -50px;""><div style=""display: flex; justify-content: space-between; margin-top: 33px;""><img src=""images/choice_trial_5.png"" style=""width: 408px; height: 417px; margin-left:608px;""></div></div>",,delaylearn,learning,display_response,b3w8Y3DxHEPjg1k6C7434QFwnct1,b3w8Y3DxHEPjg1k6C7434QFwnct1,,,,,,,,,,,,,,,,,chosen stimuli: images/choice_trial_5.png,,,,,61bb376b40db417c1a138a52,16:48:54,27/03/2024
html-keyboard-response,201,400726,0.0-83.0-2.0,,,,delaylearn,learning,feedback_duration_window,b3w8Y3DxHEPjg1k6C7434QFwnct1,b3w8Y3DxHEPjg1k6C7434QFwnct1,,,,,,,,,,,,,,,,,,7000.0,,,,61bb376b40db417c1a138a52,16:48:54,27/03/2024
html-keyboard-response,202,402234,0.0-83.0-3.0,,<div style='margin:auto;width: auto; font-size: 150%'><span style='font-weight: bold; font-size: 100px; color: green;'>+10 points!</span><br><br></div>,,delaylearn,learning,feedback_image_window,b3w8Y3DxHEPjg1k6C7434QFwnct1,b3w8Y3DxHEPjg1k6C7434QFwnct1,,,,,,,,,,,,,,,,,,,,,,61bb376b40db417c1a138a52,16:48:54,27/03/2024
html-keyboard-response,203,404543,0.0-84.0,,"<div style=""font-size:100px;"">+</div>",,delaylearn,learning,ITI,b3w8Y3DxHEPjg1k6C7434QFwnct1,b3w8Y3DxHEPjg1k6C7434QFwnct1,,,,,,,,,,,,,,,,,,,2297.0,,,61bb376b40db417c1a138a52,16:48:54,27/03/2024
html-keyboard-response,204,406419,0.0-85.0-0.0,1872.3999999910593,"<div style=""display: flex; flex-direction: column; align-items: center; margin-top: -40px;""><img src=""images/pattern_4.png"" style=""width: 234px; height: 230px; margin-top: -50px;""><div style=""display: flex; justify-content: space-between; margin-top: 33px;""><img src=""images/choice_trial_8.png"" style=""width: 408px; height: 417px; margin-right: 200px;""><img src=""images/choice_trial_7.png"" style=""width: 408px; height: 417px;""></div></div>",j,delaylearn,learning,trial,b3w8Y3DxHEPjg1k6C7434QFwnct1,b3w8Y3DxHEPjg1k6C7434QFwnct1,1.0,images/choice_trial_8.png,images/choice_trial_7.png,images/pattern_4.png,f,j,7000.0,8.0,7.0,3.0,1.0,37.0,1.0,0.0,7.0,170.0,,,,,,61bb376b40db417c1a138a52,16:48:54,27/03/2024
html-keyboard-response,205,407428,0.0-85.0-1.0,,"<div style=""display: flex; flex-direction: column; align-items: center; margin-top: -40px;""><img src=""images/pattern_4.png"" style=""width: 234px; height: 230px; margin-top: -50px;""><div style=""display: flex; justify-content: space-between; margin-top: 33px;""><img src=""images/choice_trial_7.png"" style=""width: 408px; height: 417px; margin-left:608px;""></div></div>",,delaylearn,learning,display_response,b3w8Y3DxHEPjg1k6C7434QFwnct1,b3w8Y3DxHEPjg1k6C7434QFwnct1,,,,,,,,,,,,,,,,,chosen stimuli: images/choice_trial_7.png,,,,,61bb376b40db417c1a138a52,16:48:54,27/03/2024
html-keyboard-response,206,414430,0.0-85.0-2.0,,,,delaylearn,learning,feedback_duration_window,b3w8Y3DxHEPjg1k6C7434QFwnct1,b3w8Y3DxHEPjg1k6C7434QFwnct1,,,,,,,,,,,,,,,,,,7000.0,,,,61bb376b40db417c1a138a52,16:48:54,27/03/2024
html-keyboard-response,207,415932,0.0-85.0-3.0,,<div style='margin:auto;width: auto; font-size: 150%'><span style='font-weight: bold; font-size: 100px; color: red;'>0 points!</span><br><br></div>,,delaylearn,learning,feedback_image_window,b3w8Y3DxHEPjg1k6C7434QFwnct1,b3w8Y3DxHEPjg1k6C7434QFwnct1,,,,,,,,,,,,,,,,,,,,,,61bb376b40db417c1a138a52,16:48:54,27/03/2024
html-keyboard-response,208,417662,0.0-86.0,,"<div style=""font-size:100px;"">+</div>",,delaylearn,learning,ITI,b3w8Y3DxHEPjg1k6C7434QFwnct1,b3w8Y3DxHEPjg1k6C7434QFwnct1,,,,,,,,,,,,,,,,,,,1724.0,,,61bb376b40db417c1a138a52,16:48:54,27/03/2024
html-keyboard-response,209,418642,0.0-87.0-0.0,976.7999999970198,"<div style=""display: flex; flex-direction: column; align-items: center; margin-top: -40px;""><img src=""images/pattern_7.png"" style=""width: 234px; height: 230px; margin-top: -50px;""><div style=""display: flex; justify-content: space-between; margin-top: 33px;""><img src=""images/choice_trial_13.png"" style=""width: 408px; height: 417px; margin-right: 200px;""><img src=""images/choice_trial_14.png"" style=""width: 408px; height: 417px;""></div></div>",f,delaylearn,learning,trial,b3w8Y3DxHEPjg1k6C7434QFwnct1,b3w8Y3DxHEPjg1k6C7434QFwnct1,1.0,images/choice_trial_13.png,images/choice_trial_14.png,images/pattern_7.png,f,f,750.0,13.0,14.0,6.0,0.0,38.0,1.0,1.0,13.0,180.0,,,,,,61bb376b40db417c1a138a52,16:48:54,27/03/2024
html-keyboard-response,210,419648,0.0-87.0-1.0,,"<div style=""display: flex; flex-direction: column; align-items: center; margin-top: -40px;""><img src=""images/pattern_7.png"" style=""width: 234px; height: 230px; margin-top: -50px;""><div style=""display: flex; justify-content: space-between; margin-top: 33px;""><img src=""images/choice_trial_13.png"" style=""width: 408px; height: 417px; margin-right: 608px;""></div></div>",,delaylearn,learning,display_response,b3w8Y3DxHEPjg1k6C7434QFwnct1,b3w8Y3DxHEPjg1k6C7434QFwnct1,,,,,,,,,,,,,,,,,chosen stimuli: images/choice_trial_13.png,,,,,61bb376b40db417c1a138a52,16:48:54,27/03/2024
html-keyboard-response,211,420411,0.0-87.0-2.0,,,,delaylearn,learning,feedback_duration_window,b3w8Y3DxHEPjg1k6C7434QFwnct1,b3w8Y3DxHEPjg1k6C7434QFwnct1,,,,,,,,,,,,,,,,,,750.0,,,,61bb376b40db417c1a138a52,16:48:54,27/03/2024
html-keyboard-response,212,421915,0.0-87.0-3.0,,<div style='margin:auto;width: auto; font-size: 150%'><span style='font-weight: bold; font-size: 100px; color: green;'>+10 points!</span><br><br></div>,,delaylearn,learning,feedback_image_window,b3w8Y3DxHEPjg1k6C7434QFwnct1,b3w8Y3DxHEPjg1k6C7434QFwnct1,,,,,,,,,,,,,,,,,,,,,,61bb376b40db417c1a138a52,16:48:54,27/03/2024
html-keyboard-response,213,423951,0.0-88.0,,"<div style=""font-size:100px;"">+</div>",,delaylearn,learning,ITI,b3w8Y3DxHEPjg1k6C7434QFwnct1,b3w8Y3DxHEPjg1k6C7434QFwnct1,,,,,,,,,,,,,,,,,,,2021.0,,,61bb376b40db417c1a138a52,16:48:54,27/03/2024
html-keyboard-response,214,424889,0.0-89.0-0.0,935.0999999940395,"<div style=""display: flex; flex-direction: column; align-items: center; margin-top: -40px;""><img src=""images/pattern_1.png"" style=""width: 234px; height: 230px; margin-top: -50px;""><div style=""display: flex; justify-content: space-between; margin-top: 33px;""><img src=""images/choice_trial_1.png"" style=""width: 408px; height: 417px; margin-right: 200px;""><img src=""images/choice_trial_2.png"" style=""width: 408px; height: 417px;""></div></div>",j,delaylearn,learning,trial,b3w8Y3DxHEPjg1k6C7434QFwnct1,b3w8Y3DxHEPjg1k6C7434QFwnct1,1.0,images/choice_trial_1.png,images/choice_trial_2.png,images/pattern_1.png,f,f,7000.0,1.0,2.0,1.0,0.0,39.0,0.0,0.0,2.0,180.0,,,,,,61bb376b40db417c1a138a52,16:48:54,27/03/2024
html-keyboard-response,215,425898,0.0-89.0-1.0,,"<div style=""display: flex; flex-direction: column; align-items: center; margin-top: -40px;""><img src=""images/pattern_1.png"" style=""width: 234px; height: 230px; margin-top: -50px;""><div style=""display: flex; justify-content: space-between; margin-top: 33px;""><img src=""images/choice_trial_2.png"" style=""width: 408px; height: 417px; margin-left:608px;""></div></div>",,delaylearn,learning,display_response,b3w8Y3DxHEPjg1k6C7434QFwnct1,b3w8Y3DxHEPjg1k6C7434QFwnct1,,,,,,,,,,,,,,,,,chosen stimuli: images/choice_trial_2.png,,,,,61bb376b40db417c1a138a52,16:48:54,27/03/2024
html-keyboard-response,216,432902,0.0-89.0-2.0,,,,delaylearn,learning,feedback_duration_window,b3w8Y3DxHEPjg1k6C7434QFwnct1,b3w8Y3DxHEPjg1k6C7434QFwnct1,,,,,,,,,,,,,,,,,,7000.0,,,,61bb376b40db417c1a138a52,16:48:54,27/03/2024
html-keyboard-response,217,434418,0.0-89.0-3.0,,<div style='margin:auto;width: auto; font-size: 150%'><span style='font-weight: bold; font-size: 100px; color: red;'>0 points!</span><br><br></div>,,delaylearn,learning,feedback_image_window,b3w8Y3DxHEPjg1k6C7434QFwnct1,b3w8Y3DxHEPjg1k6C7434QFwnct1,,,,,,,,,,,,,,,,,,,,,,61bb376b40db417c1a138a52,16:48:54,27/03/2024
html-keyboard-response,218,434930,0.0-90.0-0.0,,,,,,mood_trial_fixation,b3w8Y3DxHEPjg1k6C7434QFwnct1,,,,,,,,,,,,,,,,,,,,,,,61bb376b40db417c1a138a52,16:48:54,27/03/2024
lmdlab-html-vas-response,219,439530,0.0-90.0-1.0,3589.0,How happy are you right now?,0.1875148350344173,delaylearn,learning,mood_trial,b3w8Y3DxHEPjg1k6C7434QFwnct1,b3w8Y3DxHEPjg1k6C7434QFwnct1,,,,,,,,,,,,,,,,,,,,"['Very unhappy', 'Very happy']",,61bb376b40db417c1a138a52,16:48:54,27/03/2024
html-keyboard-response,220,441363,0.0-91.0,,"<div style=""font-size:100px;"">+</div>",,delaylearn,learning,ITI,b3w8Y3DxHEPjg1k6C7434QFwnct1,b3w8Y3DxHEPjg1k6C7434QFwnct1,,,,,,,,,,,,,,,,,,,1818.0,,,61bb376b40db417c1a138a52,16:48:54,27/03/2024
html-keyboard-response,221,442281,0.0-92.0-0.0,915.5999999940395,"<div style=""display: flex; flex-direction: column; align-items: center; margin-top: -40px;""><img src=""images/pattern_3.png"" style=""width: 234px; height: 230px; margin-top: -50px;""><div style=""display: flex; justify-content: space-between; margin-top: 33px;""><img src=""images/choice_trial_5.png"" style=""width: 408px; height: 417px; margin-right: 200px;""><img src=""images/choice_trial_6.png"" style=""width: 408px; height: 417px;""></div></div>",f,delaylearn,learning,trial,b3w8Y3DxHEPjg1k6C7434QFwnct1,b3w8Y3DxHEPjg1k6C7434QFwnct1,1.0,images/choice_trial_5.png,images/choice_trial_6.png,images/pattern_3.png,j,f,7000.0,5.0,6.0,2.0,0.0,40.0,1.0,0.0,5.0,180.0,,,,,,61bb376b40db417c1a138a52,16:48:54,27/03/2024
html-keyboard-response,222,443288,0.0-92.0-1.0,,"<div style=""display: flex; flex-direction: column; align-items: center; margin-top: -40px;""><img src=""images/pattern_3.png"" style=""width: 234px; height: 230px; margin-top: -50px;""><div style=""display: flex; justify-content: space-between; margin-top: 33px;""><img src=""images/choice_trial_5.png"" style=""width: 408px; height: 417px; margin-right: 608px;""></div></div>",,delaylearn,learning,display_response,b3w8Y3DxHEPjg1k6C7434QFwnct1,b3w8Y3DxHEPjg1k6C7434QFwnct1,,,,,,,,,,,,,,,,,chosen stimuli: images/choice_trial_5.png,,,,,61bb376b40db417c1a138a52,16:48:54,27/03/2024
html-keyboard-response,223,450296,0.0-92.0-2.0,,,,delaylearn,learning,feedback_duration_window,b3w8Y3DxHEPjg1k6C7434QFwnct1,b3w8Y3DxHEPjg1k6C7434QFwnct1,,,,,,,,,,,,,,,,,,7000.0,,,,61bb376b40db417c1a138a52,16:48:54,27/03/2024
html-keyboard-response,224,451806,0.0-92.0-3.0,,<div style='margin:auto;width: auto; font-size: 150%'><span style='font-weight: bold; font-size: 100px; color: red;'>0 points!</span><br><br></div>,,delaylearn,learning,feedback_image_window,b3w8Y3DxHEPjg1k6C7434QFwnct1,b3w8Y3DxHEPjg1k6C7434QFwnct1,,,,,,,,,,,,,,,,,,,,,,61bb376b40db417c1a138a52,16:48:54,27/03/2024
html-keyboard-response,225,453877,0.0-93.0,,"<div style=""font-size:100px;"">+</div>",,delaylearn,learning,ITI,b3w8Y3DxHEPjg1k6C7434QFwnct1,b3w8Y3DxHEPjg1k6C7434QFwnct1,,,,,,,,,,,,,,,,,,,2061.0,,,61bb376b40db417c1a138a52,16:48:54,27/03/2024
html-keyboard-response,226,454842,0.0-94.0-0.0,962.2000000029802,"<div style=""display: flex; flex-direction: column; align-items: center; margin-top: -40px;""><img src=""images/pattern_7.png"" style=""width: 234px; height: 230px; margin-top: -50px;""><div style=""display: flex; justify-content: space-between; margin-top: 33px;""><img src=""images/choice_trial_14.png"" style=""width: 408px; height: 417px; margin-right: 200px;""><img src=""images/choice_trial_13.png"" style=""width: 408px; height: 417px;""></div></div>",j,delaylearn,learning,trial,b3w8Y3DxHEPjg1k6C7434QFwnct1,b3w8Y3DxHEPjg1k6C7434QFwnct1,1.0,images/choice_trial_14.png,images/choice_trial_13.png,images/pattern_7.png,j,j,750.0,14.0,13.0,6.0,1.0,41.0,1.0,1.0,13.0,190.0,,,,,,61bb376b40db417c1a138a52,16:48:54,27/03/2024
html-keyboard-response,227,455851,0.0-94.0-1.0,,"<div style=""display: flex; flex-direction: column; align-items: center; margin-top: -40px;""><img src=""images/pattern_7.png"" style=""width: 234px; height: 230px; margin-top: -50px;""><div style=""display: flex; justify-content: space-between; margin-top: 33px;""><img src=""images/choice_trial_13.png"" style=""width: 408px; height: 417px; margin-left:608px;""></div></div>",,delaylearn,learning,display_response,b3w8Y3DxHEPjg1k6C7434QFwnct1,b3w8Y3DxHEPjg1k6C7434QFwnct1,,,,,,,,,,,,,,,,,chosen stimuli: images/choice_trial_13.png,,,,,61bb376b40db417c1a138a52,16:48:54,27/03/2024
html-keyboard-response,228,456618,0.0-94.0-2.0,,,,delaylearn,learning,feedback_duration_window,b3w8Y3DxHEPjg1k6C7434QFwnct1,b3w8Y3DxHEPjg1k6C7434QFwnct1,,,,,,,,,,,,,,,,,,750.0,,,,61bb376b40db417c1a138a52,16:48:54,27/03/2024
html-keyboard-response,229,458132,0.0-94.0-3.0,,<div style='margin:auto;width: auto; font-size: 150%'><span style='font-weight: bold; font-size: 100px; color: green;'>+10 points!</span><br><br></div>,,delaylearn,learning,feedback_image_window,b3w8Y3DxHEPjg1k6C7434QFwnct1,b3w8Y3DxHEPjg1k6C7434QFwnct1,,,,,,,,,,,,,,,,,,,,,,61bb376b40db417c1a138a52,16:48:54,27/03/2024
html-keyboard-response,230,460104,0.0-95.0,,"<div style=""font-size:100px;"">+</div>",,delaylearn,learning,ITI,b3w8Y3DxHEPjg1k6C7434QFwnct1,b3w8Y3DxHEPjg1k6C7434QFwnct1,,,,,,,,,,,,,,,,,,,1969.0,,,61bb376b40db417c1a138a52,16:48:54,27/03/2024
