trial_type,trial_index,time_elapsed,internal_node_id,rt,stimulus,response,exp_name,exp_stage,test_part,subjectID,databaseID,counterbal,choice_stimuli_1,choice_stimuli_2,pattern_stimuli,rewarded_answer,correct_answer,feedback_duration_times,stim_left,stim_right,pair,leftright_counter,trial,response_correct,response_rewarded,chosen_stim,counter,displayed_choice,feedback_durations,ITI_duration,labels,rest_warning,prolificID,start_time,date
pavlovia,0,475,0.0-0.0,,,,,,,ln2J0IC3HSdApZoRvrszqvreSo12,,,,,,,,,,,,,,,,,,,,,,,5ba91985c4da2d00015d4a11,09:05:27,27/02/2024
html-keyboard-response,1,3492,0.0-1.0,,"<div style=""font-size:100px;"">+</div>",,delaylearn,learning,pre_fixation,ln2J0IC3HSdApZoRvrszqvreSo12,,,,,,,,,,,,,,,,,,,,,,,5ba91985c4da2d00015d4a11,09:05:27,27/02/2024
html-keyboard-response,2,4821,0.0-2.0-0.0,1325.9000000059605,"<div style=""display: flex; flex-direction: column; align-items: center; margin-top: -40px;""><img src=""images/demo_images/pattern_1.png"" style=""width: 234px; height: 230px; margin-top: -50px;""><div style=""display: flex; justify-content: space-between; margin-top: 33px;""><img src=""images/demo_images/choice_trial_2.png"" style=""width: 408px; height: 417px; margin-right: 200px;""><img src=""images/demo_images/choice_trial_1.png"" style=""width: 408px; height: 417px;""></div></div>",f,delaylearn,learning,trial,ln2J0IC3HSdApZoRvrszqvreSo12,ln2J0IC3HSdApZoRvrszqvreSo12,5.0,images/demo_images/choice_trial_2.png,images/demo_images/choice_trial_1.png,images/demo_images/pattern_1.png,j,j,3000.0,2.0,1.0,20.0,1.0,1.0,0.0,0.0,2.0,0.0,,,,,,5ba91985c4da2d00015d4a11,09:05:27,27/02/2024
html-keyboard-response,3,5834,0.0-2.0-1.0,,"<div style=""display: flex; flex-direction: column; align-items: center; margin-top: -40px;""><img src=""images/demo_images/pattern_1.png"" style=""width: 234px; height: 230px; margin-top: -50px;""><div style=""display: flex; justify-content: space-between; margin-top: 33px;""><img src=""images/demo_images/choice_trial_2.png"" style=""width: 408px; height: 417px; margin-right: 608px;""></div></div>",,delaylearn,learning,display_response,ln2J0IC3HSdApZoRvrszqvreSo12,ln2J0IC3HSdApZoRvrszqvreSo12,,,,,,,,,,,,,,,,,chosen stimuli: images/demo_images/choice_trial_2.png,,,,,5ba91985c4da2d00015d4a11,09:05:27,27/02/2024
html-keyboard-response,4,8841,0.0-2.0-2.0,,,,delaylearn,learning,feedback_duration_window,ln2J0IC3HSdApZoRvrszqvreSo12,ln2J0IC3HSdApZoRvrszqvreSo12,,,,,,,,,,,,,,,,,,3000.0,,,,5ba91985c4da2d00015d4a11,09:05:27,27/02/2024
html-keyboard-response,5,10350,0.0-2.0-3.0,,<div style='margin:auto;width: auto; font-size: 150%'><span style='font-weight: bold; font-size: 100px; color: red;'>0 points!</span><br><br></div>,,delaylearn,learning,feedback_image_window,ln2J0IC3HSdApZoRvrszqvreSo12,ln2J0IC3HSdApZoRvrszqvreSo12,,,,,,,,,,,,,,,,,,,,,,5ba91985c4da2d00015d4a11,09:05:27,27/02/2024
html-keyboard-response,6,12407,0.0-3.0,,"<div style=""font-size:100px;"">+</div>",,delaylearn,learning,ITI,ln2J0IC3HSdApZoRvrszqvreSo12,ln2J0IC3HSdApZoRvrszqvreSo12,,,,,,,,,,,,,,,,,,,2053.0,,,5ba91985c4da2d00015d4a11,09:05:27,27/02/2024
html-keyboard-response,7,13446,0.0-4.0-0.0,1036.5999999940395,"<div style=""display: flex; flex-direction: column; align-items: center; margin-top: -40px;""><img src=""images/demo_images/pattern_1.png"" style=""width: 234px; height: 230px; margin-top: -50px;""><div style=""display: flex; justify-content: space-between; margin-top: 33px;""><img src=""images/demo_images/choice_trial_2.png"" style=""width: 408px; height: 417px; margin-right: 200px;""><img src=""images/demo_images/choice_trial_1.png"" style=""width: 408px; height: 417px;""></div></div>",j,delaylearn,learning,trial,ln2J0IC3HSdApZoRvrszqvreSo12,ln2J0IC3HSdApZoRvrszqvreSo12,5.0,images/demo_images/choice_trial_2.png,images/demo_images/choice_trial_1.png,images/demo_images/pattern_1.png,j,j,3000.0,2.0,1.0,20.0,1.0,2.0,1.0,1.0,1.0,10.0,,,,,,5ba91985c4da2d00015d4a11,09:05:27,27/02/2024
html-keyboard-response,8,14463,0.0-4.0-1.0,,"<div style=""display: flex; flex-direction: column; align-items: center; margin-top: -40px;""><img src=""images/demo_images/pattern_1.png"" style=""width: 234px; height: 230px; margin-top: -50px;""><div style=""display: flex; justify-content: space-between; margin-top: 33px;""><img src=""images/demo_images/choice_trial_1.png"" style=""width: 408px; height: 417px; margin-left:608px;""></div></div>",,delaylearn,learning,display_response,ln2J0IC3HSdApZoRvrszqvreSo12,ln2J0IC3HSdApZoRvrszqvreSo12,,,,,,,,,,,,,,,,,chosen stimuli: images/demo_images/choice_trial_1.png,,,,,5ba91985c4da2d00015d4a11,09:05:27,27/02/2024
html-keyboard-response,9,17474,0.0-4.0-2.0,,,,delaylearn,learning,feedback_duration_window,ln2J0IC3HSdApZoRvrszqvreSo12,ln2J0IC3HSdApZoRvrszqvreSo12,,,,,,,,,,,,,,,,,,3000.0,,,,5ba91985c4da2d00015d4a11,09:05:27,27/02/2024
html-keyboard-response,10,18984,0.0-4.0-3.0,,<div style='margin:auto;width: auto; font-size: 150%'><span style='font-weight: bold; font-size: 100px; color: green;'>+10 points!</span><br><br></div>,,delaylearn,learning,feedback_image_window,ln2J0IC3HSdApZoRvrszqvreSo12,ln2J0IC3HSdApZoRvrszqvreSo12,,,,,,,,,,,,,,,,,,,,,,5ba91985c4da2d00015d4a11,09:05:27,27/02/2024
html-keyboard-response,11,20648,0.0-5.0,,"<div style=""font-size:100px;"">+</div>",,delaylearn,learning,ITI,ln2J0IC3HSdApZoRvrszqvreSo12,ln2J0IC3HSdApZoRvrszqvreSo12,,,,,,,,,,,,,,,,,,,1659.0,,,5ba91985c4da2d00015d4a11,09:05:27,27/02/2024
html-keyboard-response,12,21864,0.0-6.0-0.0,1213.0999999940395,"<div style=""display: flex; flex-direction: column; align-items: center; margin-top: -40px;""><img src=""images/demo_images/pattern_1.png"" style=""width: 234px; height: 230px; margin-top: -50px;""><div style=""display: flex; justify-content: space-between; margin-top: 33px;""><img src=""images/demo_images/choice_trial_1.png"" style=""width: 408px; height: 417px; margin-right: 200px;""><img src=""images/demo_images/choice_trial_2.png"" style=""width: 408px; height: 417px;""></div></div>",f,delaylearn,learning,trial,ln2J0IC3HSdApZoRvrszqvreSo12,ln2J0IC3HSdApZoRvrszqvreSo12,5.0,images/demo_images/choice_trial_1.png,images/demo_images/choice_trial_2.png,images/demo_images/pattern_1.png,j,f,3000.0,1.0,2.0,20.0,0.0,3.0,1.0,0.0,1.0,10.0,,,,,,5ba91985c4da2d00015d4a11,09:05:27,27/02/2024
html-keyboard-response,13,22873,0.0-6.0-1.0,,"<div style=""display: flex; flex-direction: column; align-items: center; margin-top: -40px;""><img src=""images/demo_images/pattern_1.png"" style=""width: 234px; height: 230px; margin-top: -50px;""><div style=""display: flex; justify-content: space-between; margin-top: 33px;""><img src=""images/demo_images/choice_trial_1.png"" style=""width: 408px; height: 417px; margin-right: 608px;""></div></div>",,delaylearn,learning,display_response,ln2J0IC3HSdApZoRvrszqvreSo12,ln2J0IC3HSdApZoRvrszqvreSo12,,,,,,,,,,,,,,,,,chosen stimuli: images/demo_images/choice_trial_1.png,,,,,5ba91985c4da2d00015d4a11,09:05:27,27/02/2024
html-keyboard-response,14,25891,0.0-6.0-2.0,,,,delaylearn,learning,feedback_duration_window,ln2J0IC3HSdApZoRvrszqvreSo12,ln2J0IC3HSdApZoRvrszqvreSo12,,,,,,,,,,,,,,,,,,3000.0,,,,5ba91985c4da2d00015d4a11,09:05:27,27/02/2024
html-keyboard-response,15,27398,0.0-6.0-3.0,,<div style='margin:auto;width: auto; font-size: 150%'><span style='font-weight: bold; font-size: 100px; color: red;'>0 points!</span><br><br></div>,,delaylearn,learning,feedback_image_window,ln2J0IC3HSdApZoRvrszqvreSo12,ln2J0IC3HSdApZoRvrszqvreSo12,,,,,,,,,,,,,,,,,,,,,,5ba91985c4da2d00015d4a11,09:05:27,27/02/2024
html-keyboard-response,16,29248,0.0-7.0,,"<div style=""font-size:100px;"">+</div>",,delaylearn,learning,ITI,ln2J0IC3HSdApZoRvrszqvreSo12,ln2J0IC3HSdApZoRvrszqvreSo12,,,,,,,,,,,,,,,,,,,1845.0,,,5ba91985c4da2d00015d4a11,09:05:27,27/02/2024
html-keyboard-response,17,31248,0.0-8.0-0.0,1997.5999999940395,"<div style=""display: flex; flex-direction: column; align-items: center; margin-top: -40px;""><img src=""images/demo_images/pattern_1.png"" style=""width: 234px; height: 230px; margin-top: -50px;""><div style=""display: flex; justify-content: space-between; margin-top: 33px;""><img src=""images/demo_images/choice_trial_1.png"" style=""width: 408px; height: 417px; margin-right: 200px;""><img src=""images/demo_images/choice_trial_2.png"" style=""width: 408px; height: 417px;""></div></div>",f,delaylearn,learning,trial,ln2J0IC3HSdApZoRvrszqvreSo12,ln2J0IC3HSdApZoRvrszqvreSo12,5.0,images/demo_images/choice_trial_1.png,images/demo_images/choice_trial_2.png,images/demo_images/pattern_1.png,f,f,3000.0,1.0,2.0,20.0,0.0,4.0,1.0,1.0,1.0,20.0,,,,,,5ba91985c4da2d00015d4a11,09:05:27,27/02/2024
html-keyboard-response,18,32255,0.0-8.0-1.0,,"<div style=""display: flex; flex-direction: column; align-items: center; margin-top: -40px;""><img src=""images/demo_images/pattern_1.png"" style=""width: 234px; height: 230px; margin-top: -50px;""><div style=""display: flex; justify-content: space-between; margin-top: 33px;""><img src=""images/demo_images/choice_trial_1.png"" style=""width: 408px; height: 417px; margin-right: 608px;""></div></div>",,delaylearn,learning,display_response,ln2J0IC3HSdApZoRvrszqvreSo12,ln2J0IC3HSdApZoRvrszqvreSo12,,,,,,,,,,,,,,,,,chosen stimuli: images/demo_images/choice_trial_1.png,,,,,5ba91985c4da2d00015d4a11,09:05:27,27/02/2024
html-keyboard-response,19,35260,0.0-8.0-2.0,,,,delaylearn,learning,feedback_duration_window,ln2J0IC3HSdApZoRvrszqvreSo12,ln2J0IC3HSdApZoRvrszqvreSo12,,,,,,,,,,,,,,,,,,3000.0,,,,5ba91985c4da2d00015d4a11,09:05:27,27/02/2024
html-keyboard-response,20,36769,0.0-8.0-3.0,,<div style='margin:auto;width: auto; font-size: 150%'><span style='font-weight: bold; font-size: 100px; color: green;'>+10 points!</span><br><br></div>,,delaylearn,learning,feedback_image_window,ln2J0IC3HSdApZoRvrszqvreSo12,ln2J0IC3HSdApZoRvrszqvreSo12,,,,,,,,,,,,,,,,,,,,,,5ba91985c4da2d00015d4a11,09:05:27,27/02/2024
html-keyboard-response,21,37281,0.0-9.0-0.0,,,,,,mood_trial_fixation,ln2J0IC3HSdApZoRvrszqvreSo12,,,,,,,,,,,,,,,,,,,,,,,5ba91985c4da2d00015d4a11,09:05:27,27/02/2024
lmdlab-html-vas-response,22,41969,0.0-9.0-1.0,3667.0,How happy are you right now?,0.65,delaylearn,learning,mood_trial,ln2J0IC3HSdApZoRvrszqvreSo12,ln2J0IC3HSdApZoRvrszqvreSo12,,,,,,,,,,,,,,,,,,,,"['Very unhappy', 'Very happy']",,5ba91985c4da2d00015d4a11,09:05:27,27/02/2024
html-keyboard-response,23,44205,0.0-10.0,,"<div style=""font-size:100px;"">+</div>",,delaylearn,learning,ITI,ln2J0IC3HSdApZoRvrszqvreSo12,ln2J0IC3HSdApZoRvrszqvreSo12,,,,,,,,,,,,,,,,,,,2232.0,,,5ba91985c4da2d00015d4a11,09:05:27,27/02/2024
html-keyboard-response,24,45924,0.0-11.0-0.0,1715.7000000178814,"<div style=""display: flex; flex-direction: column; align-items: center; margin-top: -40px;""><img src=""images/demo_images/pattern_1.png"" style=""width: 234px; height: 230px; margin-top: -50px;""><div style=""display: flex; justify-content: space-between; margin-top: 33px;""><img src=""images/demo_images/choice_trial_2.png"" style=""width: 408px; height: 417px; margin-right: 200px;""><img src=""images/demo_images/choice_trial_1.png"" style=""width: 408px; height: 417px;""></div></div>",j,delaylearn,learning,trial,ln2J0IC3HSdApZoRvrszqvreSo12,ln2J0IC3HSdApZoRvrszqvreSo12,5.0,images/demo_images/choice_trial_2.png,images/demo_images/choice_trial_1.png,images/demo_images/pattern_1.png,j,j,3000.0,2.0,1.0,20.0,1.0,5.0,1.0,1.0,1.0,30.0,,,,,,5ba91985c4da2d00015d4a11,09:05:27,27/02/2024
html-keyboard-response,25,46942,0.0-11.0-1.0,,"<div style=""display: flex; flex-direction: column; align-items: center; margin-top: -40px;""><img src=""images/demo_images/pattern_1.png"" style=""width: 234px; height: 230px; margin-top: -50px;""><div style=""display: flex; justify-content: space-between; margin-top: 33px;""><img src=""images/demo_images/choice_trial_1.png"" style=""width: 408px; height: 417px; margin-left:608px;""></div></div>",,delaylearn,learning,display_response,ln2J0IC3HSdApZoRvrszqvreSo12,ln2J0IC3HSdApZoRvrszqvreSo12,,,,,,,,,,,,,,,,,chosen stimuli: images/demo_images/choice_trial_1.png,,,,,5ba91985c4da2d00015d4a11,09:05:27,27/02/2024
html-keyboard-response,26,49947,0.0-11.0-2.0,,,,delaylearn,learning,feedback_duration_window,ln2J0IC3HSdApZoRvrszqvreSo12,ln2J0IC3HSdApZoRvrszqvreSo12,,,,,,,,,,,,,,,,,,3000.0,,,,5ba91985c4da2d00015d4a11,09:05:27,27/02/2024
html-keyboard-response,27,51454,0.0-11.0-3.0,,<div style='margin:auto;width: auto; font-size: 150%'><span style='font-weight: bold; font-size: 100px; color: green;'>+10 points!</span><br><br></div>,,delaylearn,learning,feedback_image_window,ln2J0IC3HSdApZoRvrszqvreSo12,ln2J0IC3HSdApZoRvrszqvreSo12,,,,,,,,,,,,,,,,,,,,,,5ba91985c4da2d00015d4a11,09:05:27,27/02/2024
html-keyboard-response,28,53024,0.0-12.0,,"<div style=""font-size:100px;"">+</div>",,delaylearn,learning,ITI,ln2J0IC3HSdApZoRvrszqvreSo12,ln2J0IC3HSdApZoRvrszqvreSo12,,,,,,,,,,,,,,,,,,,1560.0,,,5ba91985c4da2d00015d4a11,09:05:27,27/02/2024
html-keyboard-response,29,55192,0.0-13.0-0.0,2165.2000000178814,"<div style=""display: flex; flex-direction: column; align-items: center; margin-top: -40px;""><img src=""images/demo_images/pattern_1.png"" style=""width: 234px; height: 230px; margin-top: -50px;""><div style=""display: flex; justify-content: space-between; margin-top: 33px;""><img src=""images/demo_images/choice_trial_1.png"" style=""width: 408px; height: 417px; margin-right: 200px;""><img src=""images/demo_images/choice_trial_2.png"" style=""width: 408px; height: 417px;""></div></div>",j,delaylearn,learning,trial,ln2J0IC3HSdApZoRvrszqvreSo12,ln2J0IC3HSdApZoRvrszqvreSo12,5.0,images/demo_images/choice_trial_1.png,images/demo_images/choice_trial_2.png,images/demo_images/pattern_1.png,f,f,3000.0,1.0,2.0,20.0,0.0,6.0,0.0,0.0,2.0,30.0,,,,,,5ba91985c4da2d00015d4a11,09:05:27,27/02/2024
html-keyboard-response,30,56196,0.0-13.0-1.0,,"<div style=""display: flex; flex-direction: column; align-items: center; margin-top: -40px;""><img src=""images/demo_images/pattern_1.png"" style=""width: 234px; height: 230px; margin-top: -50px;""><div style=""display: flex; justify-content: space-between; margin-top: 33px;""><img src=""images/demo_images/choice_trial_2.png"" style=""width: 408px; height: 417px; margin-left:608px;""></div></div>",,delaylearn,learning,display_response,ln2J0IC3HSdApZoRvrszqvreSo12,ln2J0IC3HSdApZoRvrszqvreSo12,,,,,,,,,,,,,,,,,chosen stimuli: images/demo_images/choice_trial_2.png,,,,,5ba91985c4da2d00015d4a11,09:05:27,27/02/2024
html-keyboard-response,31,59212,0.0-13.0-2.0,,,,delaylearn,learning,feedback_duration_window,ln2J0IC3HSdApZoRvrszqvreSo12,ln2J0IC3HSdApZoRvrszqvreSo12,,,,,,,,,,,,,,,,,,3000.0,,,,5ba91985c4da2d00015d4a11,09:05:27,27/02/2024
html-keyboard-response,32,60715,0.0-13.0-3.0,,<div style='margin:auto;width: auto; font-size: 150%'><span style='font-weight: bold; font-size: 100px; color: red;'>0 points!</span><br><br></div>,,delaylearn,learning,feedback_image_window,ln2J0IC3HSdApZoRvrszqvreSo12,ln2J0IC3HSdApZoRvrszqvreSo12,,,,,,,,,,,,,,,,,,,,,,5ba91985c4da2d00015d4a11,09:05:27,27/02/2024
html-button-response,33,82824,0.0-14.0,22106.80000001192,"
  <div style=""display: flex; align-items: center; justify-content: center; height: 80vh;"">
  <div>
          <img src=""images/inst_demo_finish.png"" style=""width: 80vw; height:auto;"">
          <br><br>
      </div>
      <br><br>
  </div>",0,,,,ln2J0IC3HSdApZoRvrszqvreSo12,,,,,,,,,,,,,,,,,,,,,,,5ba91985c4da2d00015d4a11,09:05:27,27/02/2024
html-keyboard-response,34,86321,0.0-15.0,3495.0999999940395,"
  <div style=""display: flex; align-items: center; justify-content: center; height: 80vh;"">
  <div>
          <img src=""images/inst_6.png"" style=""width: 80vw; height:auto;"">
          <br><br>
      </div>
      <br><br>
  </div>",f,,,,ln2J0IC3HSdApZoRvrszqvreSo12,,,,,,,,,,,,,,,,,,,,,,,5ba91985c4da2d00015d4a11,09:05:27,27/02/2024
html-keyboard-response,35,89324,0.0-16.0,,"<div style=""font-size:100px;"">+</div>",,delaylearn,learning,pre_fixation,ln2J0IC3HSdApZoRvrszqvreSo12,,,,,,,,,,,,,,,,,,,,,,,5ba91985c4da2d00015d4a11,09:05:27,27/02/2024
html-keyboard-response,36,91767,0.0-17.0,,"<div style=""font-size:100px;"">+</div>",,delaylearn,learning,ITI,ln2J0IC3HSdApZoRvrszqvreSo12,ln2J0IC3HSdApZoRvrszqvreSo12,,,,,,,,,,,,,,,,,,,2429.0,,,5ba91985c4da2d00015d4a11,09:05:27,27/02/2024
html-keyboard-response,37,93282,0.0-18.0-0.0,1511.699999988079,"<div style=""display: flex; flex-direction: column; align-items: center; margin-top: -40px;""><img src=""images/pattern_3.png"" style=""width: 234px; height: 230px; margin-top: -50px;""><div style=""display: flex; justify-content: space-between; margin-top: 33px;""><img src=""images/choice_trial_16.png"" style=""width: 408px; height: 417px; margin-right: 200px;""><img src=""images/choice_trial_2.png"" style=""width: 408px; height: 417px;""></div></div>",j,delaylearn,learning,trial,ln2J0IC3HSdApZoRvrszqvreSo12,ln2J0IC3HSdApZoRvrszqvreSo12,5.0,images/choice_trial_16.png,images/choice_trial_2.png,images/pattern_3.png,f,f,7000.0,16.0,2.0,2.0,0.0,7.0,0.0,0.0,2.0,30.0,,,,,,5ba91985c4da2d00015d4a11,09:05:27,27/02/2024
html-keyboard-response,38,94290,0.0-18.0-1.0,,"<div style=""display: flex; flex-direction: column; align-items: center; margin-top: -40px;""><img src=""images/pattern_3.png"" style=""width: 234px; height: 230px; margin-top: -50px;""><div style=""display: flex; justify-content: space-between; margin-top: 33px;""><img src=""images/choice_trial_2.png"" style=""width: 408px; height: 417px; margin-left:608px;""></div></div>",,delaylearn,learning,display_response,ln2J0IC3HSdApZoRvrszqvreSo12,ln2J0IC3HSdApZoRvrszqvreSo12,,,,,,,,,,,,,,,,,chosen stimuli: images/choice_trial_2.png,,,,,5ba91985c4da2d00015d4a11,09:05:27,27/02/2024
html-keyboard-response,39,101294,0.0-18.0-2.0,,,,delaylearn,learning,feedback_duration_window,ln2J0IC3HSdApZoRvrszqvreSo12,ln2J0IC3HSdApZoRvrszqvreSo12,,,,,,,,,,,,,,,,,,7000.0,,,,5ba91985c4da2d00015d4a11,09:05:27,27/02/2024
html-keyboard-response,40,102804,0.0-18.0-3.0,,<div style='margin:auto;width: auto; font-size: 150%'><span style='font-weight: bold; font-size: 100px; color: red;'>0 points!</span><br><br></div>,,delaylearn,learning,feedback_image_window,ln2J0IC3HSdApZoRvrszqvreSo12,ln2J0IC3HSdApZoRvrszqvreSo12,,,,,,,,,,,,,,,,,,,,,,5ba91985c4da2d00015d4a11,09:05:27,27/02/2024
html-keyboard-response,41,105095,0.0-19.0,,"<div style=""font-size:100px;"">+</div>",,delaylearn,learning,ITI,ln2J0IC3HSdApZoRvrszqvreSo12,ln2J0IC3HSdApZoRvrszqvreSo12,,,,,,,,,,,,,,,,,,,2287.0,,,5ba91985c4da2d00015d4a11,09:05:27,27/02/2024
html-keyboard-response,42,107014,0.0-20.0-0.0,1915.2000000178814,"<div style=""display: flex; flex-direction: column; align-items: center; margin-top: -40px;""><img src=""images/pattern_7.png"" style=""width: 234px; height: 230px; margin-top: -50px;""><div style=""display: flex; justify-content: space-between; margin-top: 33px;""><img src=""images/choice_trial_10.png"" style=""width: 408px; height: 417px; margin-right: 200px;""><img src=""images/choice_trial_8.png"" style=""width: 408px; height: 417px;""></div></div>",j,delaylearn,learning,trial,ln2J0IC3HSdApZoRvrszqvreSo12,ln2J0IC3HSdApZoRvrszqvreSo12,5.0,images/choice_trial_10.png,images/choice_trial_8.png,images/pattern_7.png,j,j,750.0,10.0,8.0,6.0,1.0,8.0,1.0,1.0,8.0,40.0,,,,,,5ba91985c4da2d00015d4a11,09:05:27,27/02/2024
html-keyboard-response,43,108020,0.0-20.0-1.0,,"<div style=""display: flex; flex-direction: column; align-items: center; margin-top: -40px;""><img src=""images/pattern_7.png"" style=""width: 234px; height: 230px; margin-top: -50px;""><div style=""display: flex; justify-content: space-between; margin-top: 33px;""><img src=""images/choice_trial_8.png"" style=""width: 408px; height: 417px; margin-left:608px;""></div></div>",,delaylearn,learning,display_response,ln2J0IC3HSdApZoRvrszqvreSo12,ln2J0IC3HSdApZoRvrszqvreSo12,,,,,,,,,,,,,,,,,chosen stimuli: images/choice_trial_8.png,,,,,5ba91985c4da2d00015d4a11,09:05:27,27/02/2024
html-keyboard-response,44,108783,0.0-20.0-2.0,,,,delaylearn,learning,feedback_duration_window,ln2J0IC3HSdApZoRvrszqvreSo12,ln2J0IC3HSdApZoRvrszqvreSo12,,,,,,,,,,,,,,,,,,750.0,,,,5ba91985c4da2d00015d4a11,09:05:27,27/02/2024
html-keyboard-response,45,110294,0.0-20.0-3.0,,<div style='margin:auto;width: auto; font-size: 150%'><span style='font-weight: bold; font-size: 100px; color: green;'>+10 points!</span><br><br></div>,,delaylearn,learning,feedback_image_window,ln2J0IC3HSdApZoRvrszqvreSo12,ln2J0IC3HSdApZoRvrszqvreSo12,,,,,,,,,,,,,,,,,,,,,,5ba91985c4da2d00015d4a11,09:05:27,27/02/2024
html-keyboard-response,46,112138,0.0-21.0,,"<div style=""font-size:100px;"">+</div>",,delaylearn,learning,ITI,ln2J0IC3HSdApZoRvrszqvreSo12,ln2J0IC3HSdApZoRvrszqvreSo12,,,,,,,,,,,,,,,,,,,1842.0,,,5ba91985c4da2d00015d4a11,09:05:27,27/02/2024
html-keyboard-response,47,114427,0.0-22.0-0.0,2286.5,"<div style=""display: flex; flex-direction: column; align-items: center; margin-top: -40px;""><img src=""images/pattern_4.png"" style=""width: 234px; height: 230px; margin-top: -50px;""><div style=""display: flex; justify-content: space-between; margin-top: 33px;""><img src=""images/choice_trial_11.png"" style=""width: 408px; height: 417px; margin-right: 200px;""><img src=""images/choice_trial_4.png"" style=""width: 408px; height: 417px;""></div></div>",j,delaylearn,learning,trial,ln2J0IC3HSdApZoRvrszqvreSo12,ln2J0IC3HSdApZoRvrszqvreSo12,5.0,images/choice_trial_11.png,images/choice_trial_4.png,images/pattern_4.png,f,f,7000.0,11.0,4.0,3.0,0.0,9.0,0.0,0.0,4.0,40.0,,,,,,5ba91985c4da2d00015d4a11,09:05:27,27/02/2024
html-keyboard-response,48,115437,0.0-22.0-1.0,,"<div style=""display: flex; flex-direction: column; align-items: center; margin-top: -40px;""><img src=""images/pattern_4.png"" style=""width: 234px; height: 230px; margin-top: -50px;""><div style=""display: flex; justify-content: space-between; margin-top: 33px;""><img src=""images/choice_trial_4.png"" style=""width: 408px; height: 417px; margin-left:608px;""></div></div>",,delaylearn,learning,display_response,ln2J0IC3HSdApZoRvrszqvreSo12,ln2J0IC3HSdApZoRvrszqvreSo12,,,,,,,,,,,,,,,,,chosen stimuli: images/choice_trial_4.png,,,,,5ba91985c4da2d00015d4a11,09:05:27,27/02/2024
html-keyboard-response,49,122455,0.0-22.0-2.0,,,,delaylearn,learning,feedback_duration_window,ln2J0IC3HSdApZoRvrszqvreSo12,ln2J0IC3HSdApZoRvrszqvreSo12,,,,,,,,,,,,,,,,,,7000.0,,,,5ba91985c4da2d00015d4a11,09:05:27,27/02/2024
html-keyboard-response,50,123961,0.0-22.0-3.0,,<div style='margin:auto;width: auto; font-size: 150%'><span style='font-weight: bold; font-size: 100px; color: red;'>0 points!</span><br><br></div>,,delaylearn,learning,feedback_image_window,ln2J0IC3HSdApZoRvrszqvreSo12,ln2J0IC3HSdApZoRvrszqvreSo12,,,,,,,,,,,,,,,,,,,,,,5ba91985c4da2d00015d4a11,09:05:27,27/02/2024
html-keyboard-response,51,126452,0.0-23.0,,"<div style=""font-size:100px;"">+</div>",,delaylearn,learning,ITI,ln2J0IC3HSdApZoRvrszqvreSo12,ln2J0IC3HSdApZoRvrszqvreSo12,,,,,,,,,,,,,,,,,,,2482.0,,,5ba91985c4da2d00015d4a11,09:05:27,27/02/2024
html-keyboard-response,52,128258,0.0-24.0-0.0,1802.0,"<div style=""display: flex; flex-direction: column; align-items: center; margin-top: -40px;""><img src=""images/pattern_5.png"" style=""width: 234px; height: 230px; margin-top: -50px;""><div style=""display: flex; justify-content: space-between; margin-top: 33px;""><img src=""images/choice_trial_13.png"" style=""width: 408px; height: 417px; margin-right: 200px;""><img src=""images/choice_trial_7.png"" style=""width: 408px; height: 417px;""></div></div>",f,delaylearn,learning,trial,ln2J0IC3HSdApZoRvrszqvreSo12,ln2J0IC3HSdApZoRvrszqvreSo12,5.0,images/choice_trial_13.png,images/choice_trial_7.png,images/pattern_5.png,j,j,750.0,13.0,7.0,4.0,1.0,10.0,0.0,0.0,13.0,40.0,,,,,,5ba91985c4da2d00015d4a11,09:05:27,27/02/2024
html-keyboard-response,53,129270,0.0-24.0-1.0,,"<div style=""display: flex; flex-direction: column; align-items: center; margin-top: -40px;""><img src=""images/pattern_5.png"" style=""width: 234px; height: 230px; margin-top: -50px;""><div style=""display: flex; justify-content: space-between; margin-top: 33px;""><img src=""images/choice_trial_13.png"" style=""width: 408px; height: 417px; margin-right: 608px;""></div></div>",,delaylearn,learning,display_response,ln2J0IC3HSdApZoRvrszqvreSo12,ln2J0IC3HSdApZoRvrszqvreSo12,,,,,,,,,,,,,,,,,chosen stimuli: images/choice_trial_13.png,,,,,5ba91985c4da2d00015d4a11,09:05:27,27/02/2024
html-keyboard-response,54,130027,0.0-24.0-2.0,,,,delaylearn,learning,feedback_duration_window,ln2J0IC3HSdApZoRvrszqvreSo12,ln2J0IC3HSdApZoRvrszqvreSo12,,,,,,,,,,,,,,,,,,750.0,,,,5ba91985c4da2d00015d4a11,09:05:27,27/02/2024
html-keyboard-response,55,131538,0.0-24.0-3.0,,<div style='margin:auto;width: auto; font-size: 150%'><span style='font-weight: bold; font-size: 100px; color: red;'>0 points!</span><br><br></div>,,delaylearn,learning,feedback_image_window,ln2J0IC3HSdApZoRvrszqvreSo12,ln2J0IC3HSdApZoRvrszqvreSo12,,,,,,,,,,,,,,,,,,,,,,5ba91985c4da2d00015d4a11,09:05:27,27/02/2024
html-keyboard-response,56,133701,0.0-25.0,,"<div style=""font-size:100px;"">+</div>",,delaylearn,learning,ITI,ln2J0IC3HSdApZoRvrszqvreSo12,ln2J0IC3HSdApZoRvrszqvreSo12,,,,,,,,,,,,,,,,,,,2154.0,,,5ba91985c4da2d00015d4a11,09:05:27,27/02/2024
html-keyboard-response,57,135048,0.0-26.0-0.0,1345.3999999761581,"<div style=""display: flex; flex-direction: column; align-items: center; margin-top: -40px;""><img src=""images/pattern_6.png"" style=""width: 234px; height: 230px; margin-top: -50px;""><div style=""display: flex; justify-content: space-between; margin-top: 33px;""><img src=""images/choice_trial_14.png"" style=""width: 408px; height: 417px; margin-right: 200px;""><img src=""images/choice_trial_9.png"" style=""width: 408px; height: 417px;""></div></div>",f,delaylearn,learning,trial,ln2J0IC3HSdApZoRvrszqvreSo12,ln2J0IC3HSdApZoRvrszqvreSo12,5.0,images/choice_trial_14.png,images/choice_trial_9.png,images/pattern_6.png,j,f,750.0,14.0,9.0,5.0,0.0,11.0,1.0,0.0,14.0,40.0,,,,,,5ba91985c4da2d00015d4a11,09:05:27,27/02/2024
html-keyboard-response,58,136055,0.0-26.0-1.0,,"<div style=""display: flex; flex-direction: column; align-items: center; margin-top: -40px;""><img src=""images/pattern_6.png"" style=""width: 234px; height: 230px; margin-top: -50px;""><div style=""display: flex; justify-content: space-between; margin-top: 33px;""><img src=""images/choice_trial_14.png"" style=""width: 408px; height: 417px; margin-right: 608px;""></div></div>",,delaylearn,learning,display_response,ln2J0IC3HSdApZoRvrszqvreSo12,ln2J0IC3HSdApZoRvrszqvreSo12,,,,,,,,,,,,,,,,,chosen stimuli: images/choice_trial_14.png,,,,,5ba91985c4da2d00015d4a11,09:05:27,27/02/2024
html-keyboard-response,59,136816,0.0-26.0-2.0,,,,delaylearn,learning,feedback_duration_window,ln2J0IC3HSdApZoRvrszqvreSo12,ln2J0IC3HSdApZoRvrszqvreSo12,,,,,,,,,,,,,,,,,,750.0,,,,5ba91985c4da2d00015d4a11,09:05:27,27/02/2024
html-keyboard-response,60,138325,0.0-26.0-3.0,,<div style='margin:auto;width: auto; font-size: 150%'><span style='font-weight: bold; font-size: 100px; color: red;'>0 points!</span><br><br></div>,,delaylearn,learning,feedback_image_window,ln2J0IC3HSdApZoRvrszqvreSo12,ln2J0IC3HSdApZoRvrszqvreSo12,,,,,,,,,,,,,,,,,,,,,,5ba91985c4da2d00015d4a11,09:05:27,27/02/2024
html-keyboard-response,61,138839,0.0-27.0-0.0,,,,,,mood_trial_fixation,ln2J0IC3HSdApZoRvrszqvreSo12,,,,,,,,,,,,,,,,,,,,,,,5ba91985c4da2d00015d4a11,09:05:27,27/02/2024
lmdlab-html-vas-response,62,142993,0.0-27.0-1.0,3141.0,How happy are you right now?,0.4708333333333333,delaylearn,learning,mood_trial,ln2J0IC3HSdApZoRvrszqvreSo12,ln2J0IC3HSdApZoRvrszqvreSo12,,,,,,,,,,,,,,,,,,,,"['Very unhappy', 'Very happy']",,5ba91985c4da2d00015d4a11,09:05:27,27/02/2024
html-keyboard-response,63,144691,0.0-28.0,,"<div style=""font-size:100px;"">+</div>",,delaylearn,learning,ITI,ln2J0IC3HSdApZoRvrszqvreSo12,ln2J0IC3HSdApZoRvrszqvreSo12,,,,,,,,,,,,,,,,,,,1687.0,,,5ba91985c4da2d00015d4a11,09:05:27,27/02/2024
html-keyboard-response,64,146207,0.0-29.0-0.0,1511.800000011921,"<div style=""display: flex; flex-direction: column; align-items: center; margin-top: -40px;""><img src=""images/pattern_1.png"" style=""width: 234px; height: 230px; margin-top: -50px;""><div style=""display: flex; justify-content: space-between; margin-top: 33px;""><img src=""images/choice_trial_15.png"" style=""width: 408px; height: 417px; margin-right: 200px;""><img src=""images/choice_trial_6.png"" style=""width: 408px; height: 417px;""></div></div>",j,delaylearn,learning,trial,ln2J0IC3HSdApZoRvrszqvreSo12,ln2J0IC3HSdApZoRvrszqvreSo12,5.0,images/choice_trial_15.png,images/choice_trial_6.png,images/pattern_1.png,j,j,7000.0,15.0,6.0,1.0,1.0,12.0,1.0,1.0,6.0,50.0,,,,,,5ba91985c4da2d00015d4a11,09:05:27,27/02/2024
html-keyboard-response,65,147220,0.0-29.0-1.0,,"<div style=""display: flex; flex-direction: column; align-items: center; margin-top: -40px;""><img src=""images/pattern_1.png"" style=""width: 234px; height: 230px; margin-top: -50px;""><div style=""display: flex; justify-content: space-between; margin-top: 33px;""><img src=""images/choice_trial_6.png"" style=""width: 408px; height: 417px; margin-left:608px;""></div></div>",,delaylearn,learning,display_response,ln2J0IC3HSdApZoRvrszqvreSo12,ln2J0IC3HSdApZoRvrszqvreSo12,,,,,,,,,,,,,,,,,chosen stimuli: images/choice_trial_6.png,,,,,5ba91985c4da2d00015d4a11,09:05:27,27/02/2024
html-keyboard-response,66,154223,0.0-29.0-2.0,,,,delaylearn,learning,feedback_duration_window,ln2J0IC3HSdApZoRvrszqvreSo12,ln2J0IC3HSdApZoRvrszqvreSo12,,,,,,,,,,,,,,,,,,7000.0,,,,5ba91985c4da2d00015d4a11,09:05:27,27/02/2024
html-keyboard-response,67,155737,0.0-29.0-3.0,,<div style='margin:auto;width: auto; font-size: 150%'><span style='font-weight: bold; font-size: 100px; color: green;'>+10 points!</span><br><br></div>,,delaylearn,learning,feedback_image_window,ln2J0IC3HSdApZoRvrszqvreSo12,ln2J0IC3HSdApZoRvrszqvreSo12,,,,,,,,,,,,,,,,,,,,,,5ba91985c4da2d00015d4a11,09:05:27,27/02/2024
html-keyboard-response,68,157890,0.0-30.0,,"<div style=""font-size:100px;"">+</div>",,delaylearn,learning,ITI,ln2J0IC3HSdApZoRvrszqvreSo12,ln2J0IC3HSdApZoRvrszqvreSo12,,,,,,,,,,,,,,,,,,,2135.0,,,5ba91985c4da2d00015d4a11,09:05:27,27/02/2024
html-keyboard-response,69,159769,0.0-31.0-0.0,1876.4000000059605,"<div style=""display: flex; flex-direction: column; align-items: center; margin-top: -40px;""><img src=""images/pattern_3.png"" style=""width: 234px; height: 230px; margin-top: -50px;""><div style=""display: flex; justify-content: space-between; margin-top: 33px;""><img src=""images/choice_trial_2.png"" style=""width: 408px; height: 417px; margin-right: 200px;""><img src=""images/choice_trial_16.png"" style=""width: 408px; height: 417px;""></div></div>",j,delaylearn,learning,trial,ln2J0IC3HSdApZoRvrszqvreSo12,ln2J0IC3HSdApZoRvrszqvreSo12,5.0,images/choice_trial_2.png,images/choice_trial_16.png,images/pattern_3.png,f,j,7000.0,2.0,16.0,2.0,1.0,13.0,1.0,0.0,16.0,50.0,,,,,,5ba91985c4da2d00015d4a11,09:05:27,27/02/2024
html-keyboard-response,70,160786,0.0-31.0-1.0,,"<div style=""display: flex; flex-direction: column; align-items: center; margin-top: -40px;""><img src=""images/pattern_3.png"" style=""width: 234px; height: 230px; margin-top: -50px;""><div style=""display: flex; justify-content: space-between; margin-top: 33px;""><img src=""images/choice_trial_16.png"" style=""width: 408px; height: 417px; margin-left:608px;""></div></div>",,delaylearn,learning,display_response,ln2J0IC3HSdApZoRvrszqvreSo12,ln2J0IC3HSdApZoRvrszqvreSo12,,,,,,,,,,,,,,,,,chosen stimuli: images/choice_trial_16.png,,,,,5ba91985c4da2d00015d4a11,09:05:27,27/02/2024
html-keyboard-response,71,167794,0.0-31.0-2.0,,,,delaylearn,learning,feedback_duration_window,ln2J0IC3HSdApZoRvrszqvreSo12,ln2J0IC3HSdApZoRvrszqvreSo12,,,,,,,,,,,,,,,,,,7000.0,,,,5ba91985c4da2d00015d4a11,09:05:27,27/02/2024
html-keyboard-response,72,169302,0.0-31.0-3.0,,<div style='margin:auto;width: auto; font-size: 150%'><span style='font-weight: bold; font-size: 100px; color: red;'>0 points!</span><br><br></div>,,delaylearn,learning,feedback_image_window,ln2J0IC3HSdApZoRvrszqvreSo12,ln2J0IC3HSdApZoRvrszqvreSo12,,,,,,,,,,,,,,,,,,,,,,5ba91985c4da2d00015d4a11,09:05:27,27/02/2024
html-keyboard-response,73,171743,0.0-32.0,,"<div style=""font-size:100px;"">+</div>",,delaylearn,learning,ITI,ln2J0IC3HSdApZoRvrszqvreSo12,ln2J0IC3HSdApZoRvrszqvreSo12,,,,,,,,,,,,,,,,,,,2434.0,,,5ba91985c4da2d00015d4a11,09:05:27,27/02/2024
html-keyboard-response,74,173497,0.0-33.0-0.0,1750.699999988079,"<div style=""display: flex; flex-direction: column; align-items: center; margin-top: -40px;""><img src=""images/pattern_5.png"" style=""width: 234px; height: 230px; margin-top: -50px;""><div style=""display: flex; justify-content: space-between; margin-top: 33px;""><img src=""images/choice_trial_7.png"" style=""width: 408px; height: 417px; margin-right: 200px;""><img src=""images/choice_trial_13.png"" style=""width: 408px; height: 417px;""></div></div>",f,delaylearn,learning,trial,ln2J0IC3HSdApZoRvrszqvreSo12,ln2J0IC3HSdApZoRvrszqvreSo12,5.0,images/choice_trial_7.png,images/choice_trial_13.png,images/pattern_5.png,f,f,750.0,7.0,13.0,4.0,0.0,14.0,1.0,1.0,7.0,60.0,,,,,,5ba91985c4da2d00015d4a11,09:05:27,27/02/2024
html-keyboard-response,75,174513,0.0-33.0-1.0,,"<div style=""display: flex; flex-direction: column; align-items: center; margin-top: -40px;""><img src=""images/pattern_5.png"" style=""width: 234px; height: 230px; margin-top: -50px;""><div style=""display: flex; justify-content: space-between; margin-top: 33px;""><img src=""images/choice_trial_7.png"" style=""width: 408px; height: 417px; margin-right: 608px;""></div></div>",,delaylearn,learning,display_response,ln2J0IC3HSdApZoRvrszqvreSo12,ln2J0IC3HSdApZoRvrszqvreSo12,,,,,,,,,,,,,,,,,chosen stimuli: images/choice_trial_7.png,,,,,5ba91985c4da2d00015d4a11,09:05:27,27/02/2024
html-keyboard-response,76,175274,0.0-33.0-2.0,,,,delaylearn,learning,feedback_duration_window,ln2J0IC3HSdApZoRvrszqvreSo12,ln2J0IC3HSdApZoRvrszqvreSo12,,,,,,,,,,,,,,,,,,750.0,,,,5ba91985c4da2d00015d4a11,09:05:27,27/02/2024
html-keyboard-response,77,176786,0.0-33.0-3.0,,<div style='margin:auto;width: auto; font-size: 150%'><span style='font-weight: bold; font-size: 100px; color: green;'>+10 points!</span><br><br></div>,,delaylearn,learning,feedback_image_window,ln2J0IC3HSdApZoRvrszqvreSo12,ln2J0IC3HSdApZoRvrszqvreSo12,,,,,,,,,,,,,,,,,,,,,,5ba91985c4da2d00015d4a11,09:05:27,27/02/2024
html-keyboard-response,78,177298,0.0-34.0-0.0,,,,,,mood_trial_fixation,ln2J0IC3HSdApZoRvrszqvreSo12,,,,,,,,,,,,,,,,,,,,,,,5ba91985c4da2d00015d4a11,09:05:27,27/02/2024
lmdlab-html-vas-response,79,181037,0.0-34.0-1.0,2721.0,How happy are you right now?,0.47708333333333336,delaylearn,learning,mood_trial,ln2J0IC3HSdApZoRvrszqvreSo12,ln2J0IC3HSdApZoRvrszqvreSo12,,,,,,,,,,,,,,,,,,,,"['Very unhappy', 'Very happy']",,5ba91985c4da2d00015d4a11,09:05:27,27/02/2024
html-keyboard-response,80,182608,0.0-35.0,,"<div style=""font-size:100px;"">+</div>",,delaylearn,learning,ITI,ln2J0IC3HSdApZoRvrszqvreSo12,ln2J0IC3HSdApZoRvrszqvreSo12,,,,,,,,,,,,,,,,,,,1561.0,,,5ba91985c4da2d00015d4a11,09:05:27,27/02/2024
html-keyboard-response,81,184395,0.0-36.0-0.0,1785.0999999940395,"<div style=""display: flex; flex-direction: column; align-items: center; margin-top: -40px;""><img src=""images/pattern_6.png"" style=""width: 234px; height: 230px; margin-top: -50px;""><div style=""display: flex; justify-content: space-between; margin-top: 33px;""><img src=""images/choice_trial_14.png"" style=""width: 408px; height: 417px; margin-right: 200px;""><img src=""images/choice_trial_9.png"" style=""width: 408px; height: 417px;""></div></div>",f,delaylearn,learning,trial,ln2J0IC3HSdApZoRvrszqvreSo12,ln2J0IC3HSdApZoRvrszqvreSo12,5.0,images/choice_trial_14.png,images/choice_trial_9.png,images/pattern_6.png,f,f,750.0,14.0,9.0,5.0,0.0,15.0,1.0,1.0,14.0,70.0,,,,,,5ba91985c4da2d00015d4a11,09:05:27,27/02/2024
html-keyboard-response,82,185408,0.0-36.0-1.0,,"<div style=""display: flex; flex-direction: column; align-items: center; margin-top: -40px;""><img src=""images/pattern_6.png"" style=""width: 234px; height: 230px; margin-top: -50px;""><div style=""display: flex; justify-content: space-between; margin-top: 33px;""><img src=""images/choice_trial_14.png"" style=""width: 408px; height: 417px; margin-right: 608px;""></div></div>",,delaylearn,learning,display_response,ln2J0IC3HSdApZoRvrszqvreSo12,ln2J0IC3HSdApZoRvrszqvreSo12,,,,,,,,,,,,,,,,,chosen stimuli: images/choice_trial_14.png,,,,,5ba91985c4da2d00015d4a11,09:05:27,27/02/2024
html-keyboard-response,83,186169,0.0-36.0-2.0,,,,delaylearn,learning,feedback_duration_window,ln2J0IC3HSdApZoRvrszqvreSo12,ln2J0IC3HSdApZoRvrszqvreSo12,,,,,,,,,,,,,,,,,,750.0,,,,5ba91985c4da2d00015d4a11,09:05:27,27/02/2024
html-keyboard-response,84,187676,0.0-36.0-3.0,,<div style='margin:auto;width: auto; font-size: 150%'><span style='font-weight: bold; font-size: 100px; color: green;'>+10 points!</span><br><br></div>,,delaylearn,learning,feedback_image_window,ln2J0IC3HSdApZoRvrszqvreSo12,ln2J0IC3HSdApZoRvrszqvreSo12,,,,,,,,,,,,,,,,,,,,,,5ba91985c4da2d00015d4a11,09:05:27,27/02/2024
html-keyboard-response,85,189261,0.0-37.0,,"<div style=""font-size:100px;"">+</div>",,delaylearn,learning,ITI,ln2J0IC3HSdApZoRvrszqvreSo12,ln2J0IC3HSdApZoRvrszqvreSo12,,,,,,,,,,,,,,,,,,,1568.0,,,5ba91985c4da2d00015d4a11,09:05:27,27/02/2024
html-keyboard-response,86,191009,0.0-38.0-0.0,1745.9000000059605,"<div style=""display: flex; flex-direction: column; align-items: center; margin-top: -40px;""><img src=""images/pattern_4.png"" style=""width: 234px; height: 230px; margin-top: -50px;""><div style=""display: flex; justify-content: space-between; margin-top: 33px;""><img src=""images/choice_trial_4.png"" style=""width: 408px; height: 417px; margin-right: 200px;""><img src=""images/choice_trial_11.png"" style=""width: 408px; height: 417px;""></div></div>",f,delaylearn,learning,trial,ln2J0IC3HSdApZoRvrszqvreSo12,ln2J0IC3HSdApZoRvrszqvreSo12,5.0,images/choice_trial_4.png,images/choice_trial_11.png,images/pattern_4.png,j,j,7000.0,4.0,11.0,3.0,1.0,16.0,0.0,0.0,4.0,70.0,,,,,,5ba91985c4da2d00015d4a11,09:05:27,27/02/2024
html-keyboard-response,87,192016,0.0-38.0-1.0,,"<div style=""display: flex; flex-direction: column; align-items: center; margin-top: -40px;""><img src=""images/pattern_4.png"" style=""width: 234px; height: 230px; margin-top: -50px;""><div style=""display: flex; justify-content: space-between; margin-top: 33px;""><img src=""images/choice_trial_4.png"" style=""width: 408px; height: 417px; margin-right: 608px;""></div></div>",,delaylearn,learning,display_response,ln2J0IC3HSdApZoRvrszqvreSo12,ln2J0IC3HSdApZoRvrszqvreSo12,,,,,,,,,,,,,,,,,chosen stimuli: images/choice_trial_4.png,,,,,5ba91985c4da2d00015d4a11,09:05:27,27/02/2024
html-keyboard-response,88,199035,0.0-38.0-2.0,,,,delaylearn,learning,feedback_duration_window,ln2J0IC3HSdApZoRvrszqvreSo12,ln2J0IC3HSdApZoRvrszqvreSo12,,,,,,,,,,,,,,,,,,7000.0,,,,5ba91985c4da2d00015d4a11,09:05:27,27/02/2024
html-keyboard-response,89,200540,0.0-38.0-3.0,,<div style='margin:auto;width: auto; font-size: 150%'><span style='font-weight: bold; font-size: 100px; color: red;'>0 points!</span><br><br></div>,,delaylearn,learning,feedback_image_window,ln2J0IC3HSdApZoRvrszqvreSo12,ln2J0IC3HSdApZoRvrszqvreSo12,,,,,,,,,,,,,,,,,,,,,,5ba91985c4da2d00015d4a11,09:05:27,27/02/2024
html-keyboard-response,90,202420,0.0-39.0,,"<div style=""font-size:100px;"">+</div>",,delaylearn,learning,ITI,ln2J0IC3HSdApZoRvrszqvreSo12,ln2J0IC3HSdApZoRvrszqvreSo12,,,,,,,,,,,,,,,,,,,1869.0,,,5ba91985c4da2d00015d4a11,09:05:27,27/02/2024
html-keyboard-response,91,204082,0.0-40.0-0.0,1660.4000000059605,"<div style=""display: flex; flex-direction: column; align-items: center; margin-top: -40px;""><img src=""images/pattern_7.png"" style=""width: 234px; height: 230px; margin-top: -50px;""><div style=""display: flex; justify-content: space-between; margin-top: 33px;""><img src=""images/choice_trial_8.png"" style=""width: 408px; height: 417px; margin-right: 200px;""><img src=""images/choice_trial_10.png"" style=""width: 408px; height: 417px;""></div></div>",j,delaylearn,learning,trial,ln2J0IC3HSdApZoRvrszqvreSo12,ln2J0IC3HSdApZoRvrszqvreSo12,5.0,images/choice_trial_8.png,images/choice_trial_10.png,images/pattern_7.png,j,f,750.0,8.0,10.0,6.0,0.0,17.0,0.0,1.0,10.0,80.0,,,,,,5ba91985c4da2d00015d4a11,09:05:27,27/02/2024
html-keyboard-response,92,205088,0.0-40.0-1.0,,"<div style=""display: flex; flex-direction: column; align-items: center; margin-top: -40px;""><img src=""images/pattern_7.png"" style=""width: 234px; height: 230px; margin-top: -50px;""><div style=""display: flex; justify-content: space-between; margin-top: 33px;""><img src=""images/choice_trial_10.png"" style=""width: 408px; height: 417px; margin-left:608px;""></div></div>",,delaylearn,learning,display_response,ln2J0IC3HSdApZoRvrszqvreSo12,ln2J0IC3HSdApZoRvrszqvreSo12,,,,,,,,,,,,,,,,,chosen stimuli: images/choice_trial_10.png,,,,,5ba91985c4da2d00015d4a11,09:05:27,27/02/2024
html-keyboard-response,93,205852,0.0-40.0-2.0,,,,delaylearn,learning,feedback_duration_window,ln2J0IC3HSdApZoRvrszqvreSo12,ln2J0IC3HSdApZoRvrszqvreSo12,,,,,,,,,,,,,,,,,,750.0,,,,5ba91985c4da2d00015d4a11,09:05:27,27/02/2024
html-keyboard-response,94,207357,0.0-40.0-3.0,,<div style='margin:auto;width: auto; font-size: 150%'><span style='font-weight: bold; font-size: 100px; color: green;'>+10 points!</span><br><br></div>,,delaylearn,learning,feedback_image_window,ln2J0IC3HSdApZoRvrszqvreSo12,ln2J0IC3HSdApZoRvrszqvreSo12,,,,,,,,,,,,,,,,,,,,,,5ba91985c4da2d00015d4a11,09:05:27,27/02/2024
html-keyboard-response,95,208945,0.0-41.0,,"<div style=""font-size:100px;"">+</div>",,delaylearn,learning,ITI,ln2J0IC3HSdApZoRvrszqvreSo12,ln2J0IC3HSdApZoRvrszqvreSo12,,,,,,,,,,,,,,,,,,,1580.0,,,5ba91985c4da2d00015d4a11,09:05:27,27/02/2024
html-keyboard-response,96,210227,0.0-42.0-0.0,1278.699999988079,"<div style=""display: flex; flex-direction: column; align-items: center; margin-top: -40px;""><img src=""images/pattern_1.png"" style=""width: 234px; height: 230px; margin-top: -50px;""><div style=""display: flex; justify-content: space-between; margin-top: 33px;""><img src=""images/choice_trial_6.png"" style=""width: 408px; height: 417px; margin-right: 200px;""><img src=""images/choice_trial_15.png"" style=""width: 408px; height: 417px;""></div></div>",j,delaylearn,learning,trial,ln2J0IC3HSdApZoRvrszqvreSo12,ln2J0IC3HSdApZoRvrszqvreSo12,5.0,images/choice_trial_6.png,images/choice_trial_15.png,images/pattern_1.png,f,f,7000.0,6.0,15.0,1.0,0.0,18.0,0.0,0.0,15.0,80.0,,,,,,5ba91985c4da2d00015d4a11,09:05:27,27/02/2024
html-keyboard-response,97,211235,0.0-42.0-1.0,,"<div style=""display: flex; flex-direction: column; align-items: center; margin-top: -40px;""><img src=""images/pattern_1.png"" style=""width: 234px; height: 230px; margin-top: -50px;""><div style=""display: flex; justify-content: space-between; margin-top: 33px;""><img src=""images/choice_trial_15.png"" style=""width: 408px; height: 417px; margin-left:608px;""></div></div>",,delaylearn,learning,display_response,ln2J0IC3HSdApZoRvrszqvreSo12,ln2J0IC3HSdApZoRvrszqvreSo12,,,,,,,,,,,,,,,,,chosen stimuli: images/choice_trial_15.png,,,,,5ba91985c4da2d00015d4a11,09:05:27,27/02/2024
html-keyboard-response,98,218238,0.0-42.0-2.0,,,,delaylearn,learning,feedback_duration_window,ln2J0IC3HSdApZoRvrszqvreSo12,ln2J0IC3HSdApZoRvrszqvreSo12,,,,,,,,,,,,,,,,,,7000.0,,,,5ba91985c4da2d00015d4a11,09:05:27,27/02/2024
html-keyboard-response,99,219745,0.0-42.0-3.0,,<div style='margin:auto;width: auto; font-size: 150%'><span style='font-weight: bold; font-size: 100px; color: red;'>0 points!</span><br><br></div>,,delaylearn,learning,feedback_image_window,ln2J0IC3HSdApZoRvrszqvreSo12,ln2J0IC3HSdApZoRvrszqvreSo12,,,,,,,,,,,,,,,,,,,,,,5ba91985c4da2d00015d4a11,09:05:27,27/02/2024
html-keyboard-response,100,222085,0.0-43.0,,"<div style=""font-size:100px;"">+</div>",,delaylearn,learning,ITI,ln2J0IC3HSdApZoRvrszqvreSo12,ln2J0IC3HSdApZoRvrszqvreSo12,,,,,,,,,,,,,,,,,,,2329.0,,,5ba91985c4da2d00015d4a11,09:05:27,27/02/2024
html-keyboard-response,101,223714,0.0-44.0-0.0,1626.5999999940395,"<div style=""display: flex; flex-direction: column; align-items: center; margin-top: -40px;""><img src=""images/pattern_6.png"" style=""width: 234px; height: 230px; margin-top: -50px;""><div style=""display: flex; justify-content: space-between; margin-top: 33px;""><img src=""images/choice_trial_9.png"" style=""width: 408px; height: 417px; margin-right: 200px;""><img src=""images/choice_trial_14.png"" style=""width: 408px; height: 417px;""></div></div>",f,delaylearn,learning,trial,ln2J0IC3HSdApZoRvrszqvreSo12,ln2J0IC3HSdApZoRvrszqvreSo12,5.0,images/choice_trial_9.png,images/choice_trial_14.png,images/pattern_6.png,j,j,750.0,9.0,14.0,5.0,1.0,19.0,0.0,0.0,9.0,80.0,,,,,,5ba91985c4da2d00015d4a11,09:05:27,27/02/2024
html-keyboard-response,102,224717,0.0-44.0-1.0,,"<div style=""display: flex; flex-direction: column; align-items: center; margin-top: -40px;""><img src=""images/pattern_6.png"" style=""width: 234px; height: 230px; margin-top: -50px;""><div style=""display: flex; justify-content: space-between; margin-top: 33px;""><img src=""images/choice_trial_9.png"" style=""width: 408px; height: 417px; margin-right: 608px;""></div></div>",,delaylearn,learning,display_response,ln2J0IC3HSdApZoRvrszqvreSo12,ln2J0IC3HSdApZoRvrszqvreSo12,,,,,,,,,,,,,,,,,chosen stimuli: images/choice_trial_9.png,,,,,5ba91985c4da2d00015d4a11,09:05:27,27/02/2024
html-keyboard-response,103,225476,0.0-44.0-2.0,,,,delaylearn,learning,feedback_duration_window,ln2J0IC3HSdApZoRvrszqvreSo12,ln2J0IC3HSdApZoRvrszqvreSo12,,,,,,,,,,,,,,,,,,750.0,,,,5ba91985c4da2d00015d4a11,09:05:27,27/02/2024
html-keyboard-response,104,226982,0.0-44.0-3.0,,<div style='margin:auto;width: auto; font-size: 150%'><span style='font-weight: bold; font-size: 100px; color: red;'>0 points!</span><br><br></div>,,delaylearn,learning,feedback_image_window,ln2J0IC3HSdApZoRvrszqvreSo12,ln2J0IC3HSdApZoRvrszqvreSo12,,,,,,,,,,,,,,,,,,,,,,5ba91985c4da2d00015d4a11,09:05:27,27/02/2024
html-keyboard-response,105,228942,0.0-45.0,,"<div style=""font-size:100px;"">+</div>",,delaylearn,learning,ITI,ln2J0IC3HSdApZoRvrszqvreSo12,ln2J0IC3HSdApZoRvrszqvreSo12,,,,,,,,,,,,,,,,,,,1954.0,,,5ba91985c4da2d00015d4a11,09:05:27,27/02/2024
html-keyboard-response,106,231138,0.0-46.0-0.0,2193.0999999940395,"<div style=""display: flex; flex-direction: column; align-items: center; margin-top: -40px;""><img src=""images/pattern_4.png"" style=""width: 234px; height: 230px; margin-top: -50px;""><div style=""display: flex; justify-content: space-between; margin-top: 33px;""><img src=""images/choice_trial_11.png"" style=""width: 408px; height: 417px; margin-right: 200px;""><img src=""images/choice_trial_4.png"" style=""width: 408px; height: 417px;""></div></div>",j,delaylearn,learning,trial,ln2J0IC3HSdApZoRvrszqvreSo12,ln2J0IC3HSdApZoRvrszqvreSo12,5.0,images/choice_trial_11.png,images/choice_trial_4.png,images/pattern_4.png,f,f,7000.0,11.0,4.0,3.0,0.0,20.0,0.0,0.0,4.0,80.0,,,,,,5ba91985c4da2d00015d4a11,09:05:27,27/02/2024
html-keyboard-response,107,232152,0.0-46.0-1.0,,"<div style=""display: flex; flex-direction: column; align-items: center; margin-top: -40px;""><img src=""images/pattern_4.png"" style=""width: 234px; height: 230px; margin-top: -50px;""><div style=""display: flex; justify-content: space-between; margin-top: 33px;""><img src=""images/choice_trial_4.png"" style=""width: 408px; height: 417px; margin-left:608px;""></div></div>",,delaylearn,learning,display_response,ln2J0IC3HSdApZoRvrszqvreSo12,ln2J0IC3HSdApZoRvrszqvreSo12,,,,,,,,,,,,,,,,,chosen stimuli: images/choice_trial_4.png,,,,,5ba91985c4da2d00015d4a11,09:05:27,27/02/2024
html-keyboard-response,108,239160,0.0-46.0-2.0,,,,delaylearn,learning,feedback_duration_window,ln2J0IC3HSdApZoRvrszqvreSo12,ln2J0IC3HSdApZoRvrszqvreSo12,,,,,,,,,,,,,,,,,,7000.0,,,,5ba91985c4da2d00015d4a11,09:05:27,27/02/2024
html-keyboard-response,109,240671,0.0-46.0-3.0,,<div style='margin:auto;width: auto; font-size: 150%'><span style='font-weight: bold; font-size: 100px; color: red;'>0 points!</span><br><br></div>,,delaylearn,learning,feedback_image_window,ln2J0IC3HSdApZoRvrszqvreSo12,ln2J0IC3HSdApZoRvrszqvreSo12,,,,,,,,,,,,,,,,,,,,,,5ba91985c4da2d00015d4a11,09:05:27,27/02/2024
html-keyboard-response,110,241187,0.0-47.0-0.0,,,,,,mood_trial_fixation,ln2J0IC3HSdApZoRvrszqvreSo12,,,,,,,,,,,,,,,,,,,,,,,5ba91985c4da2d00015d4a11,09:05:27,27/02/2024
lmdlab-html-vas-response,111,247020,0.0-47.0-1.0,4818.0,How happy are you right now?,0.5020833333333333,delaylearn,learning,mood_trial,ln2J0IC3HSdApZoRvrszqvreSo12,ln2J0IC3HSdApZoRvrszqvreSo12,,,,,,,,,,,,,,,,,,,,"['Very unhappy', 'Very happy']",,5ba91985c4da2d00015d4a11,09:05:27,27/02/2024
html-keyboard-response,112,248875,0.0-48.0,,"<div style=""font-size:100px;"">+</div>",,delaylearn,learning,ITI,ln2J0IC3HSdApZoRvrszqvreSo12,ln2J0IC3HSdApZoRvrszqvreSo12,,,,,,,,,,,,,,,,,,,1853.0,,,5ba91985c4da2d00015d4a11,09:05:27,27/02/2024
html-keyboard-response,113,250944,0.0-49.0-0.0,2066.4000000059605,"<div style=""display: flex; flex-direction: column; align-items: center; margin-top: -40px;""><img src=""images/pattern_7.png"" style=""width: 234px; height: 230px; margin-top: -50px;""><div style=""display: flex; justify-content: space-between; margin-top: 33px;""><img src=""images/choice_trial_10.png"" style=""width: 408px; height: 417px; margin-right: 200px;""><img src=""images/choice_trial_8.png"" style=""width: 408px; height: 417px;""></div></div>",f,delaylearn,learning,trial,ln2J0IC3HSdApZoRvrszqvreSo12,ln2J0IC3HSdApZoRvrszqvreSo12,5.0,images/choice_trial_10.png,images/choice_trial_8.png,images/pattern_7.png,j,j,750.0,10.0,8.0,6.0,1.0,21.0,0.0,0.0,10.0,80.0,,,,,,5ba91985c4da2d00015d4a11,09:05:27,27/02/2024
html-keyboard-response,114,251957,0.0-49.0-1.0,,"<div style=""display: flex; flex-direction: column; align-items: center; margin-top: -40px;""><img src=""images/pattern_7.png"" style=""width: 234px; height: 230px; margin-top: -50px;""><div style=""display: flex; justify-content: space-between; margin-top: 33px;""><img src=""images/choice_trial_10.png"" style=""width: 408px; height: 417px; margin-right: 608px;""></div></div>",,delaylearn,learning,display_response,ln2J0IC3HSdApZoRvrszqvreSo12,ln2J0IC3HSdApZoRvrszqvreSo12,,,,,,,,,,,,,,,,,chosen stimuli: images/choice_trial_10.png,,,,,5ba91985c4da2d00015d4a11,09:05:27,27/02/2024
html-keyboard-response,115,252724,0.0-49.0-2.0,,,,delaylearn,learning,feedback_duration_window,ln2J0IC3HSdApZoRvrszqvreSo12,ln2J0IC3HSdApZoRvrszqvreSo12,,,,,,,,,,,,,,,,,,750.0,,,,5ba91985c4da2d00015d4a11,09:05:27,27/02/2024
html-keyboard-response,116,254231,0.0-49.0-3.0,,<div style='margin:auto;width: auto; font-size: 150%'><span style='font-weight: bold; font-size: 100px; color: red;'>0 points!</span><br><br></div>,,delaylearn,learning,feedback_image_window,ln2J0IC3HSdApZoRvrszqvreSo12,ln2J0IC3HSdApZoRvrszqvreSo12,,,,,,,,,,,,,,,,,,,,,,5ba91985c4da2d00015d4a11,09:05:27,27/02/2024
html-keyboard-response,117,256625,0.0-50.0,,"<div style=""font-size:100px;"">+</div>",,delaylearn,learning,ITI,ln2J0IC3HSdApZoRvrszqvreSo12,ln2J0IC3HSdApZoRvrszqvreSo12,,,,,,,,,,,,,,,,,,,2383.0,,,5ba91985c4da2d00015d4a11,09:05:27,27/02/2024
html-keyboard-response,118,258474,0.0-51.0-0.0,1846.9000000059605,"<div style=""display: flex; flex-direction: column; align-items: center; margin-top: -40px;""><img src=""images/pattern_1.png"" style=""width: 234px; height: 230px; margin-top: -50px;""><div style=""display: flex; justify-content: space-between; margin-top: 33px;""><img src=""images/choice_trial_15.png"" style=""width: 408px; height: 417px; margin-right: 200px;""><img src=""images/choice_trial_6.png"" style=""width: 408px; height: 417px;""></div></div>",f,delaylearn,learning,trial,ln2J0IC3HSdApZoRvrszqvreSo12,ln2J0IC3HSdApZoRvrszqvreSo12,5.0,images/choice_trial_15.png,images/choice_trial_6.png,images/pattern_1.png,f,j,7000.0,15.0,6.0,1.0,1.0,22.0,0.0,1.0,15.0,90.0,,,,,,5ba91985c4da2d00015d4a11,09:05:27,27/02/2024
html-keyboard-response,119,259478,0.0-51.0-1.0,,"<div style=""display: flex; flex-direction: column; align-items: center; margin-top: -40px;""><img src=""images/pattern_1.png"" style=""width: 234px; height: 230px; margin-top: -50px;""><div style=""display: flex; justify-content: space-between; margin-top: 33px;""><img src=""images/choice_trial_15.png"" style=""width: 408px; height: 417px; margin-right: 608px;""></div></div>",,delaylearn,learning,display_response,ln2J0IC3HSdApZoRvrszqvreSo12,ln2J0IC3HSdApZoRvrszqvreSo12,,,,,,,,,,,,,,,,,chosen stimuli: images/choice_trial_15.png,,,,,5ba91985c4da2d00015d4a11,09:05:27,27/02/2024
html-keyboard-response,120,266495,0.0-51.0-2.0,,,,delaylearn,learning,feedback_duration_window,ln2J0IC3HSdApZoRvrszqvreSo12,ln2J0IC3HSdApZoRvrszqvreSo12,,,,,,,,,,,,,,,,,,7000.0,,,,5ba91985c4da2d00015d4a11,09:05:27,27/02/2024
html-keyboard-response,121,268004,0.0-51.0-3.0,,<div style='margin:auto;width: auto; font-size: 150%'><span style='font-weight: bold; font-size: 100px; color: green;'>+10 points!</span><br><br></div>,,delaylearn,learning,feedback_image_window,ln2J0IC3HSdApZoRvrszqvreSo12,ln2J0IC3HSdApZoRvrszqvreSo12,,,,,,,,,,,,,,,,,,,,,,5ba91985c4da2d00015d4a11,09:05:27,27/02/2024
html-keyboard-response,122,270262,0.0-52.0,,"<div style=""font-size:100px;"">+</div>",,delaylearn,learning,ITI,ln2J0IC3HSdApZoRvrszqvreSo12,ln2J0IC3HSdApZoRvrszqvreSo12,,,,,,,,,,,,,,,,,,,2241.0,,,5ba91985c4da2d00015d4a11,09:05:27,27/02/2024
html-keyboard-response,123,271643,0.0-53.0-0.0,1378.5,"<div style=""display: flex; flex-direction: column; align-items: center; margin-top: -40px;""><img src=""images/pattern_5.png"" style=""width: 234px; height: 230px; margin-top: -50px;""><div style=""display: flex; justify-content: space-between; margin-top: 33px;""><img src=""images/choice_trial_13.png"" style=""width: 408px; height: 417px; margin-right: 200px;""><img src=""images/choice_trial_7.png"" style=""width: 408px; height: 417px;""></div></div>",f,delaylearn,learning,trial,ln2J0IC3HSdApZoRvrszqvreSo12,ln2J0IC3HSdApZoRvrszqvreSo12,5.0,images/choice_trial_13.png,images/choice_trial_7.png,images/pattern_5.png,j,j,750.0,13.0,7.0,4.0,1.0,23.0,0.0,0.0,13.0,90.0,,,,,,5ba91985c4da2d00015d4a11,09:05:27,27/02/2024
html-keyboard-response,124,272647,0.0-53.0-1.0,,"<div style=""display: flex; flex-direction: column; align-items: center; margin-top: -40px;""><img src=""images/pattern_5.png"" style=""width: 234px; height: 230px; margin-top: -50px;""><div style=""display: flex; justify-content: space-between; margin-top: 33px;""><img src=""images/choice_trial_13.png"" style=""width: 408px; height: 417px; margin-right: 608px;""></div></div>",,delaylearn,learning,display_response,ln2J0IC3HSdApZoRvrszqvreSo12,ln2J0IC3HSdApZoRvrszqvreSo12,,,,,,,,,,,,,,,,,chosen stimuli: images/choice_trial_13.png,,,,,5ba91985c4da2d00015d4a11,09:05:27,27/02/2024
html-keyboard-response,125,273413,0.0-53.0-2.0,,,,delaylearn,learning,feedback_duration_window,ln2J0IC3HSdApZoRvrszqvreSo12,ln2J0IC3HSdApZoRvrszqvreSo12,,,,,,,,,,,,,,,,,,750.0,,,,5ba91985c4da2d00015d4a11,09:05:27,27/02/2024
html-keyboard-response,126,274924,0.0-53.0-3.0,,<div style='margin:auto;width: auto; font-size: 150%'><span style='font-weight: bold; font-size: 100px; color: red;'>0 points!</span><br><br></div>,,delaylearn,learning,feedback_image_window,ln2J0IC3HSdApZoRvrszqvreSo12,ln2J0IC3HSdApZoRvrszqvreSo12,,,,,,,,,,,,,,,,,,,,,,5ba91985c4da2d00015d4a11,09:05:27,27/02/2024
html-keyboard-response,127,276638,0.0-54.0,,"<div style=""font-size:100px;"">+</div>",,delaylearn,learning,ITI,ln2J0IC3HSdApZoRvrszqvreSo12,ln2J0IC3HSdApZoRvrszqvreSo12,,,,,,,,,,,,,,,,,,,1707.0,,,5ba91985c4da2d00015d4a11,09:05:27,27/02/2024
html-keyboard-response,128,278297,0.0-55.0-0.0,1654.9000000059605,"<div style=""display: flex; flex-direction: column; align-items: center; margin-top: -40px;""><img src=""images/pattern_3.png"" style=""width: 234px; height: 230px; margin-top: -50px;""><div style=""display: flex; justify-content: space-between; margin-top: 33px;""><img src=""images/choice_trial_2.png"" style=""width: 408px; height: 417px; margin-right: 200px;""><img src=""images/choice_trial_16.png"" style=""width: 408px; height: 417px;""></div></div>",j,delaylearn,learning,trial,ln2J0IC3HSdApZoRvrszqvreSo12,ln2J0IC3HSdApZoRvrszqvreSo12,5.0,images/choice_trial_2.png,images/choice_trial_16.png,images/pattern_3.png,j,j,7000.0,2.0,16.0,2.0,1.0,24.0,1.0,1.0,16.0,100.0,,,,,,5ba91985c4da2d00015d4a11,09:05:27,27/02/2024
html-keyboard-response,129,279305,0.0-55.0-1.0,,"<div style=""display: flex; flex-direction: column; align-items: center; margin-top: -40px;""><img src=""images/pattern_3.png"" style=""width: 234px; height: 230px; margin-top: -50px;""><div style=""display: flex; justify-content: space-between; margin-top: 33px;""><img src=""images/choice_trial_16.png"" style=""width: 408px; height: 417px; margin-left:608px;""></div></div>",,delaylearn,learning,display_response,ln2J0IC3HSdApZoRvrszqvreSo12,ln2J0IC3HSdApZoRvrszqvreSo12,,,,,,,,,,,,,,,,,chosen stimuli: images/choice_trial_16.png,,,,,5ba91985c4da2d00015d4a11,09:05:27,27/02/2024
html-keyboard-response,130,286307,0.0-55.0-2.0,,,,delaylearn,learning,feedback_duration_window,ln2J0IC3HSdApZoRvrszqvreSo12,ln2J0IC3HSdApZoRvrszqvreSo12,,,,,,,,,,,,,,,,,,7000.0,,,,5ba91985c4da2d00015d4a11,09:05:27,27/02/2024
html-keyboard-response,131,287811,0.0-55.0-3.0,,<div style='margin:auto;width: auto; font-size: 150%'><span style='font-weight: bold; font-size: 100px; color: green;'>+10 points!</span><br><br></div>,,delaylearn,learning,feedback_image_window,ln2J0IC3HSdApZoRvrszqvreSo12,ln2J0IC3HSdApZoRvrszqvreSo12,,,,,,,,,,,,,,,,,,,,,,5ba91985c4da2d00015d4a11,09:05:27,27/02/2024
lmdlab-html-vas-response,132,294667,0.0-56.0-0.0,5342.0,*How <b><u>confident</u></b> are you feeling about your answers at this moment?*,0.45208333333333334,rewlearn,rate_confidence,,ln2J0IC3HSdApZoRvrszqvreSo12,ln2J0IC3HSdApZoRvrszqvreSo12,,,,,,,,,,,,,,,,,,,,"['No confidence', 'Complete confidence']",,5ba91985c4da2d00015d4a11,09:05:27,27/02/2024
lmdlab-rest-trial-limit,133,316388,0.0-56.0-1.0,20208.19999998808,"<div style=""font-size:40px;""><b>Please take a break!</b><br><br><br><br><p>Great work: you earned undefined points.<br><br><br><p>You have completed part(s) 1 of 6.<br><br><br><br>When you are ready to continue<br><br><br>please click the button.</p><br><br>",0,delaylearn,learning,break,ln2J0IC3HSdApZoRvrszqvreSo12,ln2J0IC3HSdApZoRvrszqvreSo12,,,,,,,,,,,,,,,,,,,,,0.0,5ba91985c4da2d00015d4a11,09:05:27,27/02/2024
html-keyboard-response,134,319404,0.0-56.0-2.0,,"<div style=""font-size:100px;"">+</div>",,delaylearn,learning,pre_fixation,ln2J0IC3HSdApZoRvrszqvreSo12,,,,,,,,,,,,,,,,,,,,,,,5ba91985c4da2d00015d4a11,09:05:27,27/02/2024
lmdlab-html-vas-response,135,325539,0.0-56.0-3.0-0.0,5119.0,How happy are you right now?,0.49375,delaylearn,learning,mood_baseline,ln2J0IC3HSdApZoRvrszqvreSo12,ln2J0IC3HSdApZoRvrszqvreSo12,,,,,,,,,,,,,,,,,,,,"['Very unhappy', 'Very happy']",,5ba91985c4da2d00015d4a11,09:05:27,27/02/2024
html-keyboard-response,136,327055,0.0-56.0-3.0-1.0,,,,,,mood_baseline_fixation,ln2J0IC3HSdApZoRvrszqvreSo12,,,,,,,,,,,,,,,,,,,,,,,5ba91985c4da2d00015d4a11,09:05:27,27/02/2024
html-keyboard-response,137,328802,0.0-57.0,,"<div style=""font-size:100px;"">+</div>",,delaylearn,learning,ITI,ln2J0IC3HSdApZoRvrszqvreSo12,ln2J0IC3HSdApZoRvrszqvreSo12,,,,,,,,,,,,,,,,,,,1738.0,,,5ba91985c4da2d00015d4a11,09:05:27,27/02/2024
html-keyboard-response,138,330831,0.0-58.0-0.0,2026.0,"<div style=""display: flex; flex-direction: column; align-items: center; margin-top: -40px;""><img src=""images/pattern_7.png"" style=""width: 234px; height: 230px; margin-top: -50px;""><div style=""display: flex; justify-content: space-between; margin-top: 33px;""><img src=""images/choice_trial_10.png"" style=""width: 408px; height: 417px; margin-right: 200px;""><img src=""images/choice_trial_8.png"" style=""width: 408px; height: 417px;""></div></div>",f,delaylearn,learning,trial,ln2J0IC3HSdApZoRvrszqvreSo12,ln2J0IC3HSdApZoRvrszqvreSo12,5.0,images/choice_trial_10.png,images/choice_trial_8.png,images/pattern_7.png,j,j,750.0,10.0,8.0,6.0,1.0,25.0,0.0,0.0,10.0,100.0,,,,,,5ba91985c4da2d00015d4a11,09:05:27,27/02/2024
html-keyboard-response,139,331847,0.0-58.0-1.0,,"<div style=""display: flex; flex-direction: column; align-items: center; margin-top: -40px;""><img src=""images/pattern_7.png"" style=""width: 234px; height: 230px; margin-top: -50px;""><div style=""display: flex; justify-content: space-between; margin-top: 33px;""><img src=""images/choice_trial_10.png"" style=""width: 408px; height: 417px; margin-right: 608px;""></div></div>",,delaylearn,learning,display_response,ln2J0IC3HSdApZoRvrszqvreSo12,ln2J0IC3HSdApZoRvrszqvreSo12,,,,,,,,,,,,,,,,,chosen stimuli: images/choice_trial_10.png,,,,,5ba91985c4da2d00015d4a11,09:05:27,27/02/2024
html-keyboard-response,140,332608,0.0-58.0-2.0,,,,delaylearn,learning,feedback_duration_window,ln2J0IC3HSdApZoRvrszqvreSo12,ln2J0IC3HSdApZoRvrszqvreSo12,,,,,,,,,,,,,,,,,,750.0,,,,5ba91985c4da2d00015d4a11,09:05:27,27/02/2024
html-keyboard-response,141,334117,0.0-58.0-3.0,,<div style='margin:auto;width: auto; font-size: 150%'><span style='font-weight: bold; font-size: 100px; color: red;'>0 points!</span><br><br></div>,,delaylearn,learning,feedback_image_window,ln2J0IC3HSdApZoRvrszqvreSo12,ln2J0IC3HSdApZoRvrszqvreSo12,,,,,,,,,,,,,,,,,,,,,,5ba91985c4da2d00015d4a11,09:05:27,27/02/2024
html-keyboard-response,142,334632,0.0-59.0-0.0,,,,,,mood_trial_fixation,ln2J0IC3HSdApZoRvrszqvreSo12,,,,,,,,,,,,,,,,,,,,,,,5ba91985c4da2d00015d4a11,09:05:27,27/02/2024
lmdlab-html-vas-response,143,341080,0.0-59.0-1.0,5430.0,How happy are you right now?,0.47291666666666665,delaylearn,learning,mood_trial,ln2J0IC3HSdApZoRvrszqvreSo12,ln2J0IC3HSdApZoRvrszqvreSo12,,,,,,,,,,,,,,,,,,,,"['Very unhappy', 'Very happy']",,5ba91985c4da2d00015d4a11,09:05:27,27/02/2024
html-keyboard-response,144,342659,0.0-60.0,,"<div style=""font-size:100px;"">+</div>",,delaylearn,learning,ITI,ln2J0IC3HSdApZoRvrszqvreSo12,ln2J0IC3HSdApZoRvrszqvreSo12,,,,,,,,,,,,,,,,,,,1576.0,,,5ba91985c4da2d00015d4a11,09:05:27,27/02/2024
html-keyboard-response,145,344128,0.0-61.0-0.0,1464.699999988079,"<div style=""display: flex; flex-direction: column; align-items: center; margin-top: -40px;""><img src=""images/pattern_1.png"" style=""width: 234px; height: 230px; margin-top: -50px;""><div style=""display: flex; justify-content: space-between; margin-top: 33px;""><img src=""images/choice_trial_6.png"" style=""width: 408px; height: 417px; margin-right: 200px;""><img src=""images/choice_trial_15.png"" style=""width: 408px; height: 417px;""></div></div>",j,delaylearn,learning,trial,ln2J0IC3HSdApZoRvrszqvreSo12,ln2J0IC3HSdApZoRvrszqvreSo12,5.0,images/choice_trial_6.png,images/choice_trial_15.png,images/pattern_1.png,f,f,7000.0,6.0,15.0,1.0,0.0,26.0,0.0,0.0,15.0,100.0,,,,,,5ba91985c4da2d00015d4a11,09:05:27,27/02/2024
html-keyboard-response,146,345135,0.0-61.0-1.0,,"<div style=""display: flex; flex-direction: column; align-items: center; margin-top: -40px;""><img src=""images/pattern_1.png"" style=""width: 234px; height: 230px; margin-top: -50px;""><div style=""display: flex; justify-content: space-between; margin-top: 33px;""><img src=""images/choice_trial_15.png"" style=""width: 408px; height: 417px; margin-left:608px;""></div></div>",,delaylearn,learning,display_response,ln2J0IC3HSdApZoRvrszqvreSo12,ln2J0IC3HSdApZoRvrszqvreSo12,,,,,,,,,,,,,,,,,chosen stimuli: images/choice_trial_15.png,,,,,5ba91985c4da2d00015d4a11,09:05:27,27/02/2024
html-keyboard-response,147,352142,0.0-61.0-2.0,,,,delaylearn,learning,feedback_duration_window,ln2J0IC3HSdApZoRvrszqvreSo12,ln2J0IC3HSdApZoRvrszqvreSo12,,,,,,,,,,,,,,,,,,7000.0,,,,5ba91985c4da2d00015d4a11,09:05:27,27/02/2024
html-keyboard-response,148,353650,0.0-61.0-3.0,,<div style='margin:auto;width: auto; font-size: 150%'><span style='font-weight: bold; font-size: 100px; color: red;'>0 points!</span><br><br></div>,,delaylearn,learning,feedback_image_window,ln2J0IC3HSdApZoRvrszqvreSo12,ln2J0IC3HSdApZoRvrszqvreSo12,,,,,,,,,,,,,,,,,,,,,,5ba91985c4da2d00015d4a11,09:05:27,27/02/2024
html-keyboard-response,149,355935,0.0-62.0,,"<div style=""font-size:100px;"">+</div>",,delaylearn,learning,ITI,ln2J0IC3HSdApZoRvrszqvreSo12,ln2J0IC3HSdApZoRvrszqvreSo12,,,,,,,,,,,,,,,,,,,2275.0,,,5ba91985c4da2d00015d4a11,09:05:27,27/02/2024
html-keyboard-response,150,358147,0.0-63.0-0.0,2209.199999988079,"<div style=""display: flex; flex-direction: column; align-items: center; margin-top: -40px;""><img src=""images/pattern_5.png"" style=""width: 234px; height: 230px; margin-top: -50px;""><div style=""display: flex; justify-content: space-between; margin-top: 33px;""><img src=""images/choice_trial_7.png"" style=""width: 408px; height: 417px; margin-right: 200px;""><img src=""images/choice_trial_13.png"" style=""width: 408px; height: 417px;""></div></div>",j,delaylearn,learning,trial,ln2J0IC3HSdApZoRvrszqvreSo12,ln2J0IC3HSdApZoRvrszqvreSo12,5.0,images/choice_trial_7.png,images/choice_trial_13.png,images/pattern_5.png,f,f,750.0,7.0,13.0,4.0,0.0,27.0,0.0,0.0,13.0,100.0,,,,,,5ba91985c4da2d00015d4a11,09:05:27,27/02/2024
html-keyboard-response,151,359156,0.0-63.0-1.0,,"<div style=""display: flex; flex-direction: column; align-items: center; margin-top: -40px;""><img src=""images/pattern_5.png"" style=""width: 234px; height: 230px; margin-top: -50px;""><div style=""display: flex; justify-content: space-between; margin-top: 33px;""><img src=""images/choice_trial_13.png"" style=""width: 408px; height: 417px; margin-left:608px;""></div></div>",,delaylearn,learning,display_response,ln2J0IC3HSdApZoRvrszqvreSo12,ln2J0IC3HSdApZoRvrszqvreSo12,,,,,,,,,,,,,,,,,chosen stimuli: images/choice_trial_13.png,,,,,5ba91985c4da2d00015d4a11,09:05:27,27/02/2024
html-keyboard-response,152,359922,0.0-63.0-2.0,,,,delaylearn,learning,feedback_duration_window,ln2J0IC3HSdApZoRvrszqvreSo12,ln2J0IC3HSdApZoRvrszqvreSo12,,,,,,,,,,,,,,,,,,750.0,,,,5ba91985c4da2d00015d4a11,09:05:27,27/02/2024
html-keyboard-response,153,361435,0.0-63.0-3.0,,<div style='margin:auto;width: auto; font-size: 150%'><span style='font-weight: bold; font-size: 100px; color: red;'>0 points!</span><br><br></div>,,delaylearn,learning,feedback_image_window,ln2J0IC3HSdApZoRvrszqvreSo12,ln2J0IC3HSdApZoRvrszqvreSo12,,,,,,,,,,,,,,,,,,,,,,5ba91985c4da2d00015d4a11,09:05:27,27/02/2024
html-keyboard-response,154,363423,0.0-64.0,,"<div style=""font-size:100px;"">+</div>",,delaylearn,learning,ITI,ln2J0IC3HSdApZoRvrszqvreSo12,ln2J0IC3HSdApZoRvrszqvreSo12,,,,,,,,,,,,,,,,,,,1981.0,,,5ba91985c4da2d00015d4a11,09:05:27,27/02/2024
html-keyboard-response,155,365310,0.0-65.0-0.0,1884.9000000059605,"<div style=""display: flex; flex-direction: column; align-items: center; margin-top: -40px;""><img src=""images/pattern_6.png"" style=""width: 234px; height: 230px; margin-top: -50px;""><div style=""display: flex; justify-content: space-between; margin-top: 33px;""><img src=""images/choice_trial_9.png"" style=""width: 408px; height: 417px; margin-right: 200px;""><img src=""images/choice_trial_14.png"" style=""width: 408px; height: 417px;""></div></div>",j,delaylearn,learning,trial,ln2J0IC3HSdApZoRvrszqvreSo12,ln2J0IC3HSdApZoRvrszqvreSo12,5.0,images/choice_trial_9.png,images/choice_trial_14.png,images/pattern_6.png,j,j,750.0,9.0,14.0,5.0,1.0,28.0,1.0,1.0,14.0,110.0,,,,,,5ba91985c4da2d00015d4a11,09:05:27,27/02/2024
html-keyboard-response,156,366316,0.0-65.0-1.0,,"<div style=""display: flex; flex-direction: column; align-items: center; margin-top: -40px;""><img src=""images/pattern_6.png"" style=""width: 234px; height: 230px; margin-top: -50px;""><div style=""display: flex; justify-content: space-between; margin-top: 33px;""><img src=""images/choice_trial_14.png"" style=""width: 408px; height: 417px; margin-left:608px;""></div></div>",,delaylearn,learning,display_response,ln2J0IC3HSdApZoRvrszqvreSo12,ln2J0IC3HSdApZoRvrszqvreSo12,,,,,,,,,,,,,,,,,chosen stimuli: images/choice_trial_14.png,,,,,5ba91985c4da2d00015d4a11,09:05:27,27/02/2024
html-keyboard-response,157,367077,0.0-65.0-2.0,,,,delaylearn,learning,feedback_duration_window,ln2J0IC3HSdApZoRvrszqvreSo12,ln2J0IC3HSdApZoRvrszqvreSo12,,,,,,,,,,,,,,,,,,750.0,,,,5ba91985c4da2d00015d4a11,09:05:27,27/02/2024
html-keyboard-response,158,368587,0.0-65.0-3.0,,<div style='margin:auto;width: auto; font-size: 150%'><span style='font-weight: bold; font-size: 100px; color: green;'>+10 points!</span><br><br></div>,,delaylearn,learning,feedback_image_window,ln2J0IC3HSdApZoRvrszqvreSo12,ln2J0IC3HSdApZoRvrszqvreSo12,,,,,,,,,,,,,,,,,,,,,,5ba91985c4da2d00015d4a11,09:05:27,27/02/2024
html-keyboard-response,159,369090,0.0-66.0-0.0,,,,,,mood_trial_fixation,ln2J0IC3HSdApZoRvrszqvreSo12,,,,,,,,,,,,,,,,,,,,,,,5ba91985c4da2d00015d4a11,09:05:27,27/02/2024
lmdlab-html-vas-response,160,375529,0.0-66.0-1.0,5426.0,How happy are you right now?,0.5666666666666667,delaylearn,learning,mood_trial,ln2J0IC3HSdApZoRvrszqvreSo12,ln2J0IC3HSdApZoRvrszqvreSo12,,,,,,,,,,,,,,,,,,,,"['Very unhappy', 'Very happy']",,5ba91985c4da2d00015d4a11,09:05:27,27/02/2024
html-keyboard-response,161,377647,0.0-67.0,,"<div style=""font-size:100px;"">+</div>",,delaylearn,learning,ITI,ln2J0IC3HSdApZoRvrszqvreSo12,ln2J0IC3HSdApZoRvrszqvreSo12,,,,,,,,,,,,,,,,,,,2111.0,,,5ba91985c4da2d00015d4a11,09:05:27,27/02/2024
html-keyboard-response,162,379327,0.0-68.0-0.0,1677.0999999940395,"<div style=""display: flex; flex-direction: column; align-items: center; margin-top: -40px;""><img src=""images/pattern_4.png"" style=""width: 234px; height: 230px; margin-top: -50px;""><div style=""display: flex; justify-content: space-between; margin-top: 33px;""><img src=""images/choice_trial_4.png"" style=""width: 408px; height: 417px; margin-right: 200px;""><img src=""images/choice_trial_11.png"" style=""width: 408px; height: 417px;""></div></div>",f,delaylearn,learning,trial,ln2J0IC3HSdApZoRvrszqvreSo12,ln2J0IC3HSdApZoRvrszqvreSo12,5.0,images/choice_trial_4.png,images/choice_trial_11.png,images/pattern_4.png,j,j,7000.0,4.0,11.0,3.0,1.0,29.0,0.0,0.0,4.0,110.0,,,,,,5ba91985c4da2d00015d4a11,09:05:27,27/02/2024
html-keyboard-response,163,380337,0.0-68.0-1.0,,"<div style=""display: flex; flex-direction: column; align-items: center; margin-top: -40px;""><img src=""images/pattern_4.png"" style=""width: 234px; height: 230px; margin-top: -50px;""><div style=""display: flex; justify-content: space-between; margin-top: 33px;""><img src=""images/choice_trial_4.png"" style=""width: 408px; height: 417px; margin-right: 608px;""></div></div>",,delaylearn,learning,display_response,ln2J0IC3HSdApZoRvrszqvreSo12,ln2J0IC3HSdApZoRvrszqvreSo12,,,,,,,,,,,,,,,,,chosen stimuli: images/choice_trial_4.png,,,,,5ba91985c4da2d00015d4a11,09:05:27,27/02/2024
html-keyboard-response,164,387354,0.0-68.0-2.0,,,,delaylearn,learning,feedback_duration_window,ln2J0IC3HSdApZoRvrszqvreSo12,ln2J0IC3HSdApZoRvrszqvreSo12,,,,,,,,,,,,,,,,,,7000.0,,,,5ba91985c4da2d00015d4a11,09:05:27,27/02/2024
html-keyboard-response,165,388860,0.0-68.0-3.0,,<div style='margin:auto;width: auto; font-size: 150%'><span style='font-weight: bold; font-size: 100px; color: red;'>0 points!</span><br><br></div>,,delaylearn,learning,feedback_image_window,ln2J0IC3HSdApZoRvrszqvreSo12,ln2J0IC3HSdApZoRvrszqvreSo12,,,,,,,,,,,,,,,,,,,,,,5ba91985c4da2d00015d4a11,09:05:27,27/02/2024
html-keyboard-response,166,390420,0.0-69.0,,"<div style=""font-size:100px;"">+</div>",,delaylearn,learning,ITI,ln2J0IC3HSdApZoRvrszqvreSo12,ln2J0IC3HSdApZoRvrszqvreSo12,,,,,,,,,,,,,,,,,,,1558.0,,,5ba91985c4da2d00015d4a11,09:05:27,27/02/2024
html-keyboard-response,167,392234,0.0-70.0-0.0,1812.5999999940395,"<div style=""display: flex; flex-direction: column; align-items: center; margin-top: -40px;""><img src=""images/pattern_3.png"" style=""width: 234px; height: 230px; margin-top: -50px;""><div style=""display: flex; justify-content: space-between; margin-top: 33px;""><img src=""images/choice_trial_2.png"" style=""width: 408px; height: 417px; margin-right: 200px;""><img src=""images/choice_trial_16.png"" style=""width: 408px; height: 417px;""></div></div>",f,delaylearn,learning,trial,ln2J0IC3HSdApZoRvrszqvreSo12,ln2J0IC3HSdApZoRvrszqvreSo12,5.0,images/choice_trial_2.png,images/choice_trial_16.png,images/pattern_3.png,j,j,7000.0,2.0,16.0,2.0,1.0,30.0,0.0,0.0,2.0,110.0,,,,,,5ba91985c4da2d00015d4a11,09:05:27,27/02/2024
html-keyboard-response,168,393251,0.0-70.0-1.0,,"<div style=""display: flex; flex-direction: column; align-items: center; margin-top: -40px;""><img src=""images/pattern_3.png"" style=""width: 234px; height: 230px; margin-top: -50px;""><div style=""display: flex; justify-content: space-between; margin-top: 33px;""><img src=""images/choice_trial_2.png"" style=""width: 408px; height: 417px; margin-right: 608px;""></div></div>",,delaylearn,learning,display_response,ln2J0IC3HSdApZoRvrszqvreSo12,ln2J0IC3HSdApZoRvrszqvreSo12,,,,,,,,,,,,,,,,,chosen stimuli: images/choice_trial_2.png,,,,,5ba91985c4da2d00015d4a11,09:05:27,27/02/2024
html-keyboard-response,169,400263,0.0-70.0-2.0,,,,delaylearn,learning,feedback_duration_window,ln2J0IC3HSdApZoRvrszqvreSo12,ln2J0IC3HSdApZoRvrszqvreSo12,,,,,,,,,,,,,,,,,,7000.0,,,,5ba91985c4da2d00015d4a11,09:05:27,27/02/2024
html-keyboard-response,170,401770,0.0-70.0-3.0,,<div style='margin:auto;width: auto; font-size: 150%'><span style='font-weight: bold; font-size: 100px; color: red;'>0 points!</span><br><br></div>,,delaylearn,learning,feedback_image_window,ln2J0IC3HSdApZoRvrszqvreSo12,ln2J0IC3HSdApZoRvrszqvreSo12,,,,,,,,,,,,,,,,,,,,,,5ba91985c4da2d00015d4a11,09:05:27,27/02/2024
html-keyboard-response,171,403608,0.0-71.0,,"<div style=""font-size:100px;"">+</div>",,delaylearn,learning,ITI,ln2J0IC3HSdApZoRvrszqvreSo12,ln2J0IC3HSdApZoRvrszqvreSo12,,,,,,,,,,,,,,,,,,,1824.0,,,5ba91985c4da2d00015d4a11,09:05:27,27/02/2024
html-keyboard-response,172,404981,0.0-72.0-0.0,1369.5999999940395,"<div style=""display: flex; flex-direction: column; align-items: center; margin-top: -40px;""><img src=""images/pattern_5.png"" style=""width: 234px; height: 230px; margin-top: -50px;""><div style=""display: flex; justify-content: space-between; margin-top: 33px;""><img src=""images/choice_trial_7.png"" style=""width: 408px; height: 417px; margin-right: 200px;""><img src=""images/choice_trial_13.png"" style=""width: 408px; height: 417px;""></div></div>",f,delaylearn,learning,trial,ln2J0IC3HSdApZoRvrszqvreSo12,ln2J0IC3HSdApZoRvrszqvreSo12,5.0,images/choice_trial_7.png,images/choice_trial_13.png,images/pattern_5.png,j,f,750.0,7.0,13.0,4.0,0.0,31.0,1.0,0.0,7.0,110.0,,,,,,5ba91985c4da2d00015d4a11,09:05:27,27/02/2024
html-keyboard-response,173,405991,0.0-72.0-1.0,,"<div style=""display: flex; flex-direction: column; align-items: center; margin-top: -40px;""><img src=""images/pattern_5.png"" style=""width: 234px; height: 230px; margin-top: -50px;""><div style=""display: flex; justify-content: space-between; margin-top: 33px;""><img src=""images/choice_trial_7.png"" style=""width: 408px; height: 417px; margin-right: 608px;""></div></div>",,delaylearn,learning,display_response,ln2J0IC3HSdApZoRvrszqvreSo12,ln2J0IC3HSdApZoRvrszqvreSo12,,,,,,,,,,,,,,,,,chosen stimuli: images/choice_trial_7.png,,,,,5ba91985c4da2d00015d4a11,09:05:27,27/02/2024
html-keyboard-response,174,406755,0.0-72.0-2.0,,,,delaylearn,learning,feedback_duration_window,ln2J0IC3HSdApZoRvrszqvreSo12,ln2J0IC3HSdApZoRvrszqvreSo12,,,,,,,,,,,,,,,,,,750.0,,,,5ba91985c4da2d00015d4a11,09:05:27,27/02/2024
html-keyboard-response,175,408264,0.0-72.0-3.0,,<div style='margin:auto;width: auto; font-size: 150%'><span style='font-weight: bold; font-size: 100px; color: red;'>0 points!</span><br><br></div>,,delaylearn,learning,feedback_image_window,ln2J0IC3HSdApZoRvrszqvreSo12,ln2J0IC3HSdApZoRvrszqvreSo12,,,,,,,,,,,,,,,,,,,,,,5ba91985c4da2d00015d4a11,09:05:27,27/02/2024
html-keyboard-response,176,410530,0.0-73.0,,"<div style=""font-size:100px;"">+</div>",,delaylearn,learning,ITI,ln2J0IC3HSdApZoRvrszqvreSo12,ln2J0IC3HSdApZoRvrszqvreSo12,,,,,,,,,,,,,,,,,,,2254.0,,,5ba91985c4da2d00015d4a11,09:05:27,27/02/2024
html-keyboard-response,177,411817,0.0-74.0-0.0,1282.199999988079,"<div style=""display: flex; flex-direction: column; align-items: center; margin-top: -40px;""><img src=""images/pattern_1.png"" style=""width: 234px; height: 230px; margin-top: -50px;""><div style=""display: flex; justify-content: space-between; margin-top: 33px;""><img src=""images/choice_trial_6.png"" style=""width: 408px; height: 417px; margin-right: 200px;""><img src=""images/choice_trial_15.png"" style=""width: 408px; height: 417px;""></div></div>",j,delaylearn,learning,trial,ln2J0IC3HSdApZoRvrszqvreSo12,ln2J0IC3HSdApZoRvrszqvreSo12,5.0,images/choice_trial_6.png,images/choice_trial_15.png,images/pattern_1.png,f,f,7000.0,6.0,15.0,1.0,0.0,32.0,0.0,0.0,15.0,110.0,,,,,,5ba91985c4da2d00015d4a11,09:05:27,27/02/2024
html-keyboard-response,178,412826,0.0-74.0-1.0,,"<div style=""display: flex; flex-direction: column; align-items: center; margin-top: -40px;""><img src=""images/pattern_1.png"" style=""width: 234px; height: 230px; margin-top: -50px;""><div style=""display: flex; justify-content: space-between; margin-top: 33px;""><img src=""images/choice_trial_15.png"" style=""width: 408px; height: 417px; margin-left:608px;""></div></div>",,delaylearn,learning,display_response,ln2J0IC3HSdApZoRvrszqvreSo12,ln2J0IC3HSdApZoRvrszqvreSo12,,,,,,,,,,,,,,,,,chosen stimuli: images/choice_trial_15.png,,,,,5ba91985c4da2d00015d4a11,09:05:27,27/02/2024
html-keyboard-response,179,419835,0.0-74.0-2.0,,,,delaylearn,learning,feedback_duration_window,ln2J0IC3HSdApZoRvrszqvreSo12,ln2J0IC3HSdApZoRvrszqvreSo12,,,,,,,,,,,,,,,,,,7000.0,,,,5ba91985c4da2d00015d4a11,09:05:27,27/02/2024
html-keyboard-response,180,421341,0.0-74.0-3.0,,<div style='margin:auto;width: auto; font-size: 150%'><span style='font-weight: bold; font-size: 100px; color: red;'>0 points!</span><br><br></div>,,delaylearn,learning,feedback_image_window,ln2J0IC3HSdApZoRvrszqvreSo12,ln2J0IC3HSdApZoRvrszqvreSo12,,,,,,,,,,,,,,,,,,,,,,5ba91985c4da2d00015d4a11,09:05:27,27/02/2024
html-keyboard-response,181,421855,0.0-75.0-0.0,,,,,,mood_trial_fixation,ln2J0IC3HSdApZoRvrszqvreSo12,,,,,,,,,,,,,,,,,,,,,,,5ba91985c4da2d00015d4a11,09:05:27,27/02/2024
lmdlab-html-vas-response,182,425986,0.0-75.0-1.0,3124.0,How happy are you right now?,0.44166666666666665,delaylearn,learning,mood_trial,ln2J0IC3HSdApZoRvrszqvreSo12,ln2J0IC3HSdApZoRvrszqvreSo12,,,,,,,,,,,,,,,,,,,,"['Very unhappy', 'Very happy']",,5ba91985c4da2d00015d4a11,09:05:27,27/02/2024
html-keyboard-response,183,427681,0.0-76.0,,"<div style=""font-size:100px;"">+</div>",,delaylearn,learning,ITI,ln2J0IC3HSdApZoRvrszqvreSo12,ln2J0IC3HSdApZoRvrszqvreSo12,,,,,,,,,,,,,,,,,,,1685.0,,,5ba91985c4da2d00015d4a11,09:05:27,27/02/2024
html-keyboard-response,184,429906,0.0-77.0-0.0,2221.5999999940395,"<div style=""display: flex; flex-direction: column; align-items: center; margin-top: -40px;""><img src=""images/pattern_6.png"" style=""width: 234px; height: 230px; margin-top: -50px;""><div style=""display: flex; justify-content: space-between; margin-top: 33px;""><img src=""images/choice_trial_14.png"" style=""width: 408px; height: 417px; margin-right: 200px;""><img src=""images/choice_trial_9.png"" style=""width: 408px; height: 417px;""></div></div>",f,delaylearn,learning,trial,ln2J0IC3HSdApZoRvrszqvreSo12,ln2J0IC3HSdApZoRvrszqvreSo12,5.0,images/choice_trial_14.png,images/choice_trial_9.png,images/pattern_6.png,j,f,750.0,14.0,9.0,5.0,0.0,33.0,1.0,0.0,14.0,110.0,,,,,,5ba91985c4da2d00015d4a11,09:05:27,27/02/2024
html-keyboard-response,185,430914,0.0-77.0-1.0,,"<div style=""display: flex; flex-direction: column; align-items: center; margin-top: -40px;""><img src=""images/pattern_6.png"" style=""width: 234px; height: 230px; margin-top: -50px;""><div style=""display: flex; justify-content: space-between; margin-top: 33px;""><img src=""images/choice_trial_14.png"" style=""width: 408px; height: 417px; margin-right: 608px;""></div></div>",,delaylearn,learning,display_response,ln2J0IC3HSdApZoRvrszqvreSo12,ln2J0IC3HSdApZoRvrszqvreSo12,,,,,,,,,,,,,,,,,chosen stimuli: images/choice_trial_14.png,,,,,5ba91985c4da2d00015d4a11,09:05:27,27/02/2024
html-keyboard-response,186,431677,0.0-77.0-2.0,,,,delaylearn,learning,feedback_duration_window,ln2J0IC3HSdApZoRvrszqvreSo12,ln2J0IC3HSdApZoRvrszqvreSo12,,,,,,,,,,,,,,,,,,750.0,,,,5ba91985c4da2d00015d4a11,09:05:27,27/02/2024
html-keyboard-response,187,433185,0.0-77.0-3.0,,<div style='margin:auto;width: auto; font-size: 150%'><span style='font-weight: bold; font-size: 100px; color: red;'>0 points!</span><br><br></div>,,delaylearn,learning,feedback_image_window,ln2J0IC3HSdApZoRvrszqvreSo12,ln2J0IC3HSdApZoRvrszqvreSo12,,,,,,,,,,,,,,,,,,,,,,5ba91985c4da2d00015d4a11,09:05:27,27/02/2024
html-keyboard-response,188,434879,0.0-78.0,,"<div style=""font-size:100px;"">+</div>",,delaylearn,learning,ITI,ln2J0IC3HSdApZoRvrszqvreSo12,ln2J0IC3HSdApZoRvrszqvreSo12,,,,,,,,,,,,,,,,,,,1690.0,,,5ba91985c4da2d00015d4a11,09:05:27,27/02/2024
html-keyboard-response,189,436194,0.0-79.0-0.0,1311.9000000059605,"<div style=""display: flex; flex-direction: column; align-items: center; margin-top: -40px;""><img src=""images/pattern_3.png"" style=""width: 234px; height: 230px; margin-top: -50px;""><div style=""display: flex; justify-content: space-between; margin-top: 33px;""><img src=""images/choice_trial_2.png"" style=""width: 408px; height: 417px; margin-right: 200px;""><img src=""images/choice_trial_16.png"" style=""width: 408px; height: 417px;""></div></div>",j,delaylearn,learning,trial,ln2J0IC3HSdApZoRvrszqvreSo12,ln2J0IC3HSdApZoRvrszqvreSo12,5.0,images/choice_trial_2.png,images/choice_trial_16.png,images/pattern_3.png,j,j,7000.0,2.0,16.0,2.0,1.0,34.0,1.0,1.0,16.0,120.0,,,,,,5ba91985c4da2d00015d4a11,09:05:27,27/02/2024
html-keyboard-response,190,437196,0.0-79.0-1.0,,"<div style=""display: flex; flex-direction: column; align-items: center; margin-top: -40px;""><img src=""images/pattern_3.png"" style=""width: 234px; height: 230px; margin-top: -50px;""><div style=""display: flex; justify-content: space-between; margin-top: 33px;""><img src=""images/choice_trial_16.png"" style=""width: 408px; height: 417px; margin-left:608px;""></div></div>",,delaylearn,learning,display_response,ln2J0IC3HSdApZoRvrszqvreSo12,ln2J0IC3HSdApZoRvrszqvreSo12,,,,,,,,,,,,,,,,,chosen stimuli: images/choice_trial_16.png,,,,,5ba91985c4da2d00015d4a11,09:05:27,27/02/2024
html-keyboard-response,191,444212,0.0-79.0-2.0,,,,delaylearn,learning,feedback_duration_window,ln2J0IC3HSdApZoRvrszqvreSo12,ln2J0IC3HSdApZoRvrszqvreSo12,,,,,,,,,,,,,,,,,,7000.0,,,,5ba91985c4da2d00015d4a11,09:05:27,27/02/2024
html-keyboard-response,192,445724,0.0-79.0-3.0,,<div style='margin:auto;width: auto; font-size: 150%'><span style='font-weight: bold; font-size: 100px; color: green;'>+10 points!</span><br><br></div>,,delaylearn,learning,feedback_image_window,ln2J0IC3HSdApZoRvrszqvreSo12,ln2J0IC3HSdApZoRvrszqvreSo12,,,,,,,,,,,,,,,,,,,,,,5ba91985c4da2d00015d4a11,09:05:27,27/02/2024
html-keyboard-response,193,448080,0.0-80.0,,"<div style=""font-size:100px;"">+</div>",,delaylearn,learning,ITI,ln2J0IC3HSdApZoRvrszqvreSo12,ln2J0IC3HSdApZoRvrszqvreSo12,,,,,,,,,,,,,,,,,,,2354.0,,,5ba91985c4da2d00015d4a11,09:05:27,27/02/2024
html-keyboard-response,194,450430,0.0-81.0-0.0,2348.0,"<div style=""display: flex; flex-direction: column; align-items: center; margin-top: -40px;""><img src=""images/pattern_4.png"" style=""width: 234px; height: 230px; margin-top: -50px;""><div style=""display: flex; justify-content: space-between; margin-top: 33px;""><img src=""images/choice_trial_4.png"" style=""width: 408px; height: 417px; margin-right: 200px;""><img src=""images/choice_trial_11.png"" style=""width: 408px; height: 417px;""></div></div>",f,delaylearn,learning,trial,ln2J0IC3HSdApZoRvrszqvreSo12,ln2J0IC3HSdApZoRvrszqvreSo12,5.0,images/choice_trial_4.png,images/choice_trial_11.png,images/pattern_4.png,f,j,7000.0,4.0,11.0,3.0,1.0,35.0,0.0,1.0,4.0,130.0,,,,,,5ba91985c4da2d00015d4a11,09:05:27,27/02/2024
html-keyboard-response,195,451446,0.0-81.0-1.0,,"<div style=""display: flex; flex-direction: column; align-items: center; margin-top: -40px;""><img src=""images/pattern_4.png"" style=""width: 234px; height: 230px; margin-top: -50px;""><div style=""display: flex; justify-content: space-between; margin-top: 33px;""><img src=""images/choice_trial_4.png"" style=""width: 408px; height: 417px; margin-right: 608px;""></div></div>",,delaylearn,learning,display_response,ln2J0IC3HSdApZoRvrszqvreSo12,ln2J0IC3HSdApZoRvrszqvreSo12,,,,,,,,,,,,,,,,,chosen stimuli: images/choice_trial_4.png,,,,,5ba91985c4da2d00015d4a11,09:05:27,27/02/2024
html-keyboard-response,196,458452,0.0-81.0-2.0,,,,delaylearn,learning,feedback_duration_window,ln2J0IC3HSdApZoRvrszqvreSo12,ln2J0IC3HSdApZoRvrszqvreSo12,,,,,,,,,,,,,,,,,,7000.0,,,,5ba91985c4da2d00015d4a11,09:05:27,27/02/2024
html-keyboard-response,197,459962,0.0-81.0-3.0,,<div style='margin:auto;width: auto; font-size: 150%'><span style='font-weight: bold; font-size: 100px; color: green;'>+10 points!</span><br><br></div>,,delaylearn,learning,feedback_image_window,ln2J0IC3HSdApZoRvrszqvreSo12,ln2J0IC3HSdApZoRvrszqvreSo12,,,,,,,,,,,,,,,,,,,,,,5ba91985c4da2d00015d4a11,09:05:27,27/02/2024
html-keyboard-response,198,462353,0.0-82.0,,"<div style=""font-size:100px;"">+</div>",,delaylearn,learning,ITI,ln2J0IC3HSdApZoRvrszqvreSo12,ln2J0IC3HSdApZoRvrszqvreSo12,,,,,,,,,,,,,,,,,,,2376.0,,,5ba91985c4da2d00015d4a11,09:05:27,27/02/2024
html-keyboard-response,199,463973,0.0-83.0-0.0,1617.800000011921,"<div style=""display: flex; flex-direction: column; align-items: center; margin-top: -40px;""><img src=""images/pattern_7.png"" style=""width: 234px; height: 230px; margin-top: -50px;""><div style=""display: flex; justify-content: space-between; margin-top: 33px;""><img src=""images/choice_trial_8.png"" style=""width: 408px; height: 417px; margin-right: 200px;""><img src=""images/choice_trial_10.png"" style=""width: 408px; height: 417px;""></div></div>",j,delaylearn,learning,trial,ln2J0IC3HSdApZoRvrszqvreSo12,ln2J0IC3HSdApZoRvrszqvreSo12,5.0,images/choice_trial_8.png,images/choice_trial_10.png,images/pattern_7.png,f,f,750.0,8.0,10.0,6.0,0.0,36.0,0.0,0.0,10.0,130.0,,,,,,5ba91985c4da2d00015d4a11,09:05:27,27/02/2024
html-keyboard-response,200,464984,0.0-83.0-1.0,,"<div style=""display: flex; flex-direction: column; align-items: center; margin-top: -40px;""><img src=""images/pattern_7.png"" style=""width: 234px; height: 230px; margin-top: -50px;""><div style=""display: flex; justify-content: space-between; margin-top: 33px;""><img src=""images/choice_trial_10.png"" style=""width: 408px; height: 417px; margin-left:608px;""></div></div>",,delaylearn,learning,display_response,ln2J0IC3HSdApZoRvrszqvreSo12,ln2J0IC3HSdApZoRvrszqvreSo12,,,,,,,,,,,,,,,,,chosen stimuli: images/choice_trial_10.png,,,,,5ba91985c4da2d00015d4a11,09:05:27,27/02/2024
html-keyboard-response,201,465751,0.0-83.0-2.0,,,,delaylearn,learning,feedback_duration_window,ln2J0IC3HSdApZoRvrszqvreSo12,ln2J0IC3HSdApZoRvrszqvreSo12,,,,,,,,,,,,,,,,,,750.0,,,,5ba91985c4da2d00015d4a11,09:05:27,27/02/2024
html-keyboard-response,202,467260,0.0-83.0-3.0,,<div style='margin:auto;width: auto; font-size: 150%'><span style='font-weight: bold; font-size: 100px; color: red;'>0 points!</span><br><br></div>,,delaylearn,learning,feedback_image_window,ln2J0IC3HSdApZoRvrszqvreSo12,ln2J0IC3HSdApZoRvrszqvreSo12,,,,,,,,,,,,,,,,,,,,,,5ba91985c4da2d00015d4a11,09:05:27,27/02/2024
html-keyboard-response,203,468784,0.0-84.0,,"<div style=""font-size:100px;"">+</div>",,delaylearn,learning,ITI,ln2J0IC3HSdApZoRvrszqvreSo12,ln2J0IC3HSdApZoRvrszqvreSo12,,,,,,,,,,,,,,,,,,,1517.0,,,5ba91985c4da2d00015d4a11,09:05:27,27/02/2024
html-keyboard-response,204,470040,0.0-85.0-0.0,1252.5999999940395,"<div style=""display: flex; flex-direction: column; align-items: center; margin-top: -40px;""><img src=""images/pattern_1.png"" style=""width: 234px; height: 230px; margin-top: -50px;""><div style=""display: flex; justify-content: space-between; margin-top: 33px;""><img src=""images/choice_trial_6.png"" style=""width: 408px; height: 417px; margin-right: 200px;""><img src=""images/choice_trial_15.png"" style=""width: 408px; height: 417px;""></div></div>",j,delaylearn,learning,trial,ln2J0IC3HSdApZoRvrszqvreSo12,ln2J0IC3HSdApZoRvrszqvreSo12,5.0,images/choice_trial_6.png,images/choice_trial_15.png,images/pattern_1.png,f,f,7000.0,6.0,15.0,1.0,0.0,37.0,0.0,0.0,15.0,130.0,,,,,,5ba91985c4da2d00015d4a11,09:05:27,27/02/2024
html-keyboard-response,205,471056,0.0-85.0-1.0,,"<div style=""display: flex; flex-direction: column; align-items: center; margin-top: -40px;""><img src=""images/pattern_1.png"" style=""width: 234px; height: 230px; margin-top: -50px;""><div style=""display: flex; justify-content: space-between; margin-top: 33px;""><img src=""images/choice_trial_15.png"" style=""width: 408px; height: 417px; margin-left:608px;""></div></div>",,delaylearn,learning,display_response,ln2J0IC3HSdApZoRvrszqvreSo12,ln2J0IC3HSdApZoRvrszqvreSo12,,,,,,,,,,,,,,,,,chosen stimuli: images/choice_trial_15.png,,,,,5ba91985c4da2d00015d4a11,09:05:27,27/02/2024
html-keyboard-response,206,478069,0.0-85.0-2.0,,,,delaylearn,learning,feedback_duration_window,ln2J0IC3HSdApZoRvrszqvreSo12,ln2J0IC3HSdApZoRvrszqvreSo12,,,,,,,,,,,,,,,,,,7000.0,,,,5ba91985c4da2d00015d4a11,09:05:27,27/02/2024
html-keyboard-response,207,479577,0.0-85.0-3.0,,<div style='margin:auto;width: auto; font-size: 150%'><span style='font-weight: bold; font-size: 100px; color: red;'>0 points!</span><br><br></div>,,delaylearn,learning,feedback_image_window,ln2J0IC3HSdApZoRvrszqvreSo12,ln2J0IC3HSdApZoRvrszqvreSo12,,,,,,,,,,,,,,,,,,,,,,5ba91985c4da2d00015d4a11,09:05:27,27/02/2024
html-keyboard-response,208,480090,0.0-86.0-0.0,,,,,,mood_trial_fixation,ln2J0IC3HSdApZoRvrszqvreSo12,,,,,,,,,,,,,,,,,,,,,,,5ba91985c4da2d00015d4a11,09:05:27,27/02/2024
lmdlab-html-vas-response,209,484540,0.0-86.0-1.0,3444.0,How happy are you right now?,0.5520833333333334,delaylearn,learning,mood_trial,ln2J0IC3HSdApZoRvrszqvreSo12,ln2J0IC3HSdApZoRvrszqvreSo12,,,,,,,,,,,,,,,,,,,,"['Very unhappy', 'Very happy']",,5ba91985c4da2d00015d4a11,09:05:27,27/02/2024
html-keyboard-response,210,486482,0.0-87.0,,"<div style=""font-size:100px;"">+</div>",,delaylearn,learning,ITI,ln2J0IC3HSdApZoRvrszqvreSo12,ln2J0IC3HSdApZoRvrszqvreSo12,,,,,,,,,,,,,,,,,,,1940.0,,,5ba91985c4da2d00015d4a11,09:05:27,27/02/2024
html-keyboard-response,211,487845,0.0-88.0-0.0,1360.1000000238419,"<div style=""display: flex; flex-direction: column; align-items: center; margin-top: -40px;""><img src=""images/pattern_3.png"" style=""width: 234px; height: 230px; margin-top: -50px;""><div style=""display: flex; justify-content: space-between; margin-top: 33px;""><img src=""images/choice_trial_16.png"" style=""width: 408px; height: 417px; margin-right: 200px;""><img src=""images/choice_trial_2.png"" style=""width: 408px; height: 417px;""></div></div>",f,delaylearn,learning,trial,ln2J0IC3HSdApZoRvrszqvreSo12,ln2J0IC3HSdApZoRvrszqvreSo12,5.0,images/choice_trial_16.png,images/choice_trial_2.png,images/pattern_3.png,j,f,7000.0,16.0,2.0,2.0,0.0,38.0,1.0,0.0,16.0,130.0,,,,,,5ba91985c4da2d00015d4a11,09:05:27,27/02/2024
html-keyboard-response,212,488849,0.0-88.0-1.0,,"<div style=""display: flex; flex-direction: column; align-items: center; margin-top: -40px;""><img src=""images/pattern_3.png"" style=""width: 234px; height: 230px; margin-top: -50px;""><div style=""display: flex; justify-content: space-between; margin-top: 33px;""><img src=""images/choice_trial_16.png"" style=""width: 408px; height: 417px; margin-right: 608px;""></div></div>",,delaylearn,learning,display_response,ln2J0IC3HSdApZoRvrszqvreSo12,ln2J0IC3HSdApZoRvrszqvreSo12,,,,,,,,,,,,,,,,,chosen stimuli: images/choice_trial_16.png,,,,,5ba91985c4da2d00015d4a11,09:05:27,27/02/2024
html-keyboard-response,213,495855,0.0-88.0-2.0,,,,delaylearn,learning,feedback_duration_window,ln2J0IC3HSdApZoRvrszqvreSo12,ln2J0IC3HSdApZoRvrszqvreSo12,,,,,,,,,,,,,,,,,,7000.0,,,,5ba91985c4da2d00015d4a11,09:05:27,27/02/2024
html-keyboard-response,214,497365,0.0-88.0-3.0,,<div style='margin:auto;width: auto; font-size: 150%'><span style='font-weight: bold; font-size: 100px; color: red;'>0 points!</span><br><br></div>,,delaylearn,learning,feedback_image_window,ln2J0IC3HSdApZoRvrszqvreSo12,ln2J0IC3HSdApZoRvrszqvreSo12,,,,,,,,,,,,,,,,,,,,,,5ba91985c4da2d00015d4a11,09:05:27,27/02/2024
html-keyboard-response,215,498907,0.0-89.0,,"<div style=""font-size:100px;"">+</div>",,delaylearn,learning,ITI,ln2J0IC3HSdApZoRvrszqvreSo12,ln2J0IC3HSdApZoRvrszqvreSo12,,,,,,,,,,,,,,,,,,,1526.0,,,5ba91985c4da2d00015d4a11,09:05:27,27/02/2024
html-keyboard-response,216,500952,0.0-90.0-0.0,2042.5999999940395,"<div style=""display: flex; flex-direction: column; align-items: center; margin-top: -40px;""><img src=""images/pattern_7.png"" style=""width: 234px; height: 230px; margin-top: -50px;""><div style=""display: flex; justify-content: space-between; margin-top: 33px;""><img src=""images/choice_trial_10.png"" style=""width: 408px; height: 417px; margin-right: 200px;""><img src=""images/choice_trial_8.png"" style=""width: 408px; height: 417px;""></div></div>",f,delaylearn,learning,trial,ln2J0IC3HSdApZoRvrszqvreSo12,ln2J0IC3HSdApZoRvrszqvreSo12,5.0,images/choice_trial_10.png,images/choice_trial_8.png,images/pattern_7.png,j,j,750.0,10.0,8.0,6.0,1.0,39.0,0.0,0.0,10.0,130.0,,,,,,5ba91985c4da2d00015d4a11,09:05:27,27/02/2024
html-keyboard-response,217,501968,0.0-90.0-1.0,,"<div style=""display: flex; flex-direction: column; align-items: center; margin-top: -40px;""><img src=""images/pattern_7.png"" style=""width: 234px; height: 230px; margin-top: -50px;""><div style=""display: flex; justify-content: space-between; margin-top: 33px;""><img src=""images/choice_trial_10.png"" style=""width: 408px; height: 417px; margin-right: 608px;""></div></div>",,delaylearn,learning,display_response,ln2J0IC3HSdApZoRvrszqvreSo12,ln2J0IC3HSdApZoRvrszqvreSo12,,,,,,,,,,,,,,,,,chosen stimuli: images/choice_trial_10.png,,,,,5ba91985c4da2d00015d4a11,09:05:27,27/02/2024
html-keyboard-response,218,502734,0.0-90.0-2.0,,,,delaylearn,learning,feedback_duration_window,ln2J0IC3HSdApZoRvrszqvreSo12,ln2J0IC3HSdApZoRvrszqvreSo12,,,,,,,,,,,,,,,,,,750.0,,,,5ba91985c4da2d00015d4a11,09:05:27,27/02/2024
html-keyboard-response,219,504237,0.0-90.0-3.0,,<div style='margin:auto;width: auto; font-size: 150%'><span style='font-weight: bold; font-size: 100px; color: red;'>0 points!</span><br><br></div>,,delaylearn,learning,feedback_image_window,ln2J0IC3HSdApZoRvrszqvreSo12,ln2J0IC3HSdApZoRvrszqvreSo12,,,,,,,,,,,,,,,,,,,,,,5ba91985c4da2d00015d4a11,09:05:27,27/02/2024
html-keyboard-response,220,505794,0.0-91.0,,"<div style=""font-size:100px;"">+</div>",,delaylearn,learning,ITI,ln2J0IC3HSdApZoRvrszqvreSo12,ln2J0IC3HSdApZoRvrszqvreSo12,,,,,,,,,,,,,,,,,,,1552.0,,,5ba91985c4da2d00015d4a11,09:05:27,27/02/2024
html-keyboard-response,221,507216,0.0-92.0-0.0,1416.5,"<div style=""display: flex; flex-direction: column; align-items: center; margin-top: -40px;""><img src=""images/pattern_5.png"" style=""width: 234px; height: 230px; margin-top: -50px;""><div style=""display: flex; justify-content: space-between; margin-top: 33px;""><img src=""images/choice_trial_13.png"" style=""width: 408px; height: 417px; margin-right: 200px;""><img src=""images/choice_trial_7.png"" style=""width: 408px; height: 417px;""></div></div>",j,delaylearn,learning,trial,ln2J0IC3HSdApZoRvrszqvreSo12,ln2J0IC3HSdApZoRvrszqvreSo12,5.0,images/choice_trial_13.png,images/choice_trial_7.png,images/pattern_5.png,j,j,750.0,13.0,7.0,4.0,1.0,40.0,1.0,1.0,7.0,140.0,,,,,,5ba91985c4da2d00015d4a11,09:05:27,27/02/2024
html-keyboard-response,222,508221,0.0-92.0-1.0,,"<div style=""display: flex; flex-direction: column; align-items: center; margin-top: -40px;""><img src=""images/pattern_5.png"" style=""width: 234px; height: 230px; margin-top: -50px;""><div style=""display: flex; justify-content: space-between; margin-top: 33px;""><img src=""images/choice_trial_7.png"" style=""width: 408px; height: 417px; margin-left:608px;""></div></div>",,delaylearn,learning,display_response,ln2J0IC3HSdApZoRvrszqvreSo12,ln2J0IC3HSdApZoRvrszqvreSo12,,,,,,,,,,,,,,,,,chosen stimuli: images/choice_trial_7.png,,,,,5ba91985c4da2d00015d4a11,09:05:27,27/02/2024
html-keyboard-response,223,508986,0.0-92.0-2.0,,,,delaylearn,learning,feedback_duration_window,ln2J0IC3HSdApZoRvrszqvreSo12,ln2J0IC3HSdApZoRvrszqvreSo12,,,,,,,,,,,,,,,,,,750.0,,,,5ba91985c4da2d00015d4a11,09:05:27,27/02/2024
html-keyboard-response,224,510495,0.0-92.0-3.0,,<div style='margin:auto;width: auto; font-size: 150%'><span style='font-weight: bold; font-size: 100px; color: green;'>+10 points!</span><br><br></div>,,delaylearn,learning,feedback_image_window,ln2J0IC3HSdApZoRvrszqvreSo12,ln2J0IC3HSdApZoRvrszqvreSo12,,,,,,,,,,,,,,,,,,,,,,5ba91985c4da2d00015d4a11,09:05:27,27/02/2024
html-keyboard-response,225,511007,0.0-93.0-0.0,,,,,,mood_trial_fixation,ln2J0IC3HSdApZoRvrszqvreSo12,,,,,,,,,,,,,,,,,,,,,,,5ba91985c4da2d00015d4a11,09:05:27,27/02/2024
lmdlab-html-vas-response,226,515657,0.0-93.0-1.0,3637.0,How happy are you right now?,0.49166666666666664,delaylearn,learning,mood_trial,ln2J0IC3HSdApZoRvrszqvreSo12,ln2J0IC3HSdApZoRvrszqvreSo12,,,,,,,,,,,,,,,,,,,,"['Very unhappy', 'Very happy']",,5ba91985c4da2d00015d4a11,09:05:27,27/02/2024
html-keyboard-response,227,518099,0.0-94.0,,"<div style=""font-size:100px;"">+</div>",,delaylearn,learning,ITI,ln2J0IC3HSdApZoRvrszqvreSo12,ln2J0IC3HSdApZoRvrszqvreSo12,,,,,,,,,,,,,,,,,,,2432.0,,,5ba91985c4da2d00015d4a11,09:05:27,27/02/2024
html-keyboard-response,228,520079,0.0-95.0-0.0,1977.4000000059605,"<div style=""display: flex; flex-direction: column; align-items: center; margin-top: -40px;""><img src=""images/pattern_4.png"" style=""width: 234px; height: 230px; margin-top: -50px;""><div style=""display: flex; justify-content: space-between; margin-top: 33px;""><img src=""images/choice_trial_11.png"" style=""width: 408px; height: 417px; margin-right: 200px;""><img src=""images/choice_trial_4.png"" style=""width: 408px; height: 417px;""></div></div>",j,delaylearn,learning,trial,ln2J0IC3HSdApZoRvrszqvreSo12,ln2J0IC3HSdApZoRvrszqvreSo12,5.0,images/choice_trial_11.png,images/choice_trial_4.png,images/pattern_4.png,f,f,7000.0,11.0,4.0,3.0,0.0,41.0,0.0,0.0,4.0,140.0,,,,,,5ba91985c4da2d00015d4a11,09:05:27,27/02/2024
html-keyboard-response,229,521085,0.0-95.0-1.0,,"<div style=""display: flex; flex-direction: column; align-items: center; margin-top: -40px;""><img src=""images/pattern_4.png"" style=""width: 234px; height: 230px; margin-top: -50px;""><div style=""display: flex; justify-content: space-between; margin-top: 33px;""><img src=""images/choice_trial_4.png"" style=""width: 408px; height: 417px; margin-left:608px;""></div></div>",,delaylearn,learning,display_response,ln2J0IC3HSdApZoRvrszqvreSo12,ln2J0IC3HSdApZoRvrszqvreSo12,,,,,,,,,,,,,,,,,chosen stimuli: images/choice_trial_4.png,,,,,5ba91985c4da2d00015d4a11,09:05:27,27/02/2024
html-keyboard-response,230,528093,0.0-95.0-2.0,,,,delaylearn,learning,feedback_duration_window,ln2J0IC3HSdApZoRvrszqvreSo12,ln2J0IC3HSdApZoRvrszqvreSo12,,,,,,,,,,,,,,,,,,7000.0,,,,5ba91985c4da2d00015d4a11,09:05:27,27/02/2024
html-keyboard-response,231,529599,0.0-95.0-3.0,,<div style='margin:auto;width: auto; font-size: 150%'><span style='font-weight: bold; font-size: 100px; color: red;'>0 points!</span><br><br></div>,,delaylearn,learning,feedback_image_window,ln2J0IC3HSdApZoRvrszqvreSo12,ln2J0IC3HSdApZoRvrszqvreSo12,,,,,,,,,,,,,,,,,,,,,,5ba91985c4da2d00015d4a11,09:05:27,27/02/2024
