trial_type,trial_index,time_elapsed,internal_node_id,rt,stimulus,response,exp_name,exp_stage,test_part,subjectID,databaseID,counterbal,choice_stimuli_1,choice_stimuli_2,pattern_stimuli,rewarded_answer,correct_answer,feedback_duration_times,stim_left,stim_right,pair,leftright_counter,trial,response_correct,response_rewarded,chosen_stim,counter,displayed_choice,feedback_durations,ITI_duration,labels,rest_warning,prolificID,start_time,date
pavlovia,0,550,0.0-0.0,,,,,,,u6UTbErfmwVhi3hcQJ0yKiTfZ2W2,,,,,,,,,,,,,,,,,,,,,,,6599e58d1011e10041695c0a,09:05:20,27/02/2024
html-keyboard-response,1,3555,0.0-1.0,,"<div style=""font-size:100px;"">+</div>",,delaylearn,learning,pre_fixation,u6UTbErfmwVhi3hcQJ0yKiTfZ2W2,,,,,,,,,,,,,,,,,,,,,,,6599e58d1011e10041695c0a,09:05:20,27/02/2024
html-keyboard-response,2,4865,0.0-2.0-0.0,1307.0,"<div style=""display: flex; flex-direction: column; align-items: center; margin-top: -40px;""><img src=""images/demo_images/pattern_1.png"" style=""width: 234px; height: 230px; margin-top: -50px;""><div style=""display: flex; justify-content: space-between; margin-top: 33px;""><img src=""images/demo_images/choice_trial_2.png"" style=""width: 408px; height: 417px; margin-right: 200px;""><img src=""images/demo_images/choice_trial_1.png"" style=""width: 408px; height: 417px;""></div></div>",j,delaylearn,learning,trial,u6UTbErfmwVhi3hcQJ0yKiTfZ2W2,u6UTbErfmwVhi3hcQJ0yKiTfZ2W2,3.0,images/demo_images/choice_trial_2.png,images/demo_images/choice_trial_1.png,images/demo_images/pattern_1.png,j,j,3000.0,2.0,1.0,20.0,1.0,1.0,1.0,1.0,1.0,10.0,,,,,,6599e58d1011e10041695c0a,09:05:20,27/02/2024
html-keyboard-response,3,5869,0.0-2.0-1.0,,"<div style=""display: flex; flex-direction: column; align-items: center; margin-top: -40px;""><img src=""images/demo_images/pattern_1.png"" style=""width: 234px; height: 230px; margin-top: -50px;""><div style=""display: flex; justify-content: space-between; margin-top: 33px;""><img src=""images/demo_images/choice_trial_1.png"" style=""width: 408px; height: 417px; margin-left:608px;""></div></div>",,delaylearn,learning,display_response,u6UTbErfmwVhi3hcQJ0yKiTfZ2W2,u6UTbErfmwVhi3hcQJ0yKiTfZ2W2,,,,,,,,,,,,,,,,,chosen stimuli: images/demo_images/choice_trial_1.png,,,,,6599e58d1011e10041695c0a,09:05:20,27/02/2024
html-keyboard-response,4,8874,0.0-2.0-2.0,,,,delaylearn,learning,feedback_duration_window,u6UTbErfmwVhi3hcQJ0yKiTfZ2W2,u6UTbErfmwVhi3hcQJ0yKiTfZ2W2,,,,,,,,,,,,,,,,,,3000.0,,,,6599e58d1011e10041695c0a,09:05:20,27/02/2024
html-keyboard-response,5,10379,0.0-2.0-3.0,,<div style='margin:auto;width: auto; font-size: 150%'><span style='font-weight: bold; font-size: 100px; color: green;'>+10 points!</span><br><br></div>,,delaylearn,learning,feedback_image_window,u6UTbErfmwVhi3hcQJ0yKiTfZ2W2,u6UTbErfmwVhi3hcQJ0yKiTfZ2W2,,,,,,,,,,,,,,,,,,,,,,6599e58d1011e10041695c0a,09:05:20,27/02/2024
html-keyboard-response,6,12202,0.0-3.0,,"<div style=""font-size:100px;"">+</div>",,delaylearn,learning,ITI,u6UTbErfmwVhi3hcQJ0yKiTfZ2W2,u6UTbErfmwVhi3hcQJ0yKiTfZ2W2,,,,,,,,,,,,,,,,,,,1818.0,,,6599e58d1011e10041695c0a,09:05:20,27/02/2024
html-keyboard-response,7,13875,0.0-4.0-0.0,1668.5999999046326,"<div style=""display: flex; flex-direction: column; align-items: center; margin-top: -40px;""><img src=""images/demo_images/pattern_1.png"" style=""width: 234px; height: 230px; margin-top: -50px;""><div style=""display: flex; justify-content: space-between; margin-top: 33px;""><img src=""images/demo_images/choice_trial_2.png"" style=""width: 408px; height: 417px; margin-right: 200px;""><img src=""images/demo_images/choice_trial_1.png"" style=""width: 408px; height: 417px;""></div></div>",f,delaylearn,learning,trial,u6UTbErfmwVhi3hcQJ0yKiTfZ2W2,u6UTbErfmwVhi3hcQJ0yKiTfZ2W2,3.0,images/demo_images/choice_trial_2.png,images/demo_images/choice_trial_1.png,images/demo_images/pattern_1.png,j,j,3000.0,2.0,1.0,20.0,1.0,2.0,0.0,0.0,2.0,10.0,,,,,,6599e58d1011e10041695c0a,09:05:20,27/02/2024
html-keyboard-response,8,14880,0.0-4.0-1.0,,"<div style=""display: flex; flex-direction: column; align-items: center; margin-top: -40px;""><img src=""images/demo_images/pattern_1.png"" style=""width: 234px; height: 230px; margin-top: -50px;""><div style=""display: flex; justify-content: space-between; margin-top: 33px;""><img src=""images/demo_images/choice_trial_2.png"" style=""width: 408px; height: 417px; margin-right: 608px;""></div></div>",,delaylearn,learning,display_response,u6UTbErfmwVhi3hcQJ0yKiTfZ2W2,u6UTbErfmwVhi3hcQJ0yKiTfZ2W2,,,,,,,,,,,,,,,,,chosen stimuli: images/demo_images/choice_trial_2.png,,,,,6599e58d1011e10041695c0a,09:05:20,27/02/2024
html-keyboard-response,9,17884,0.0-4.0-2.0,,,,delaylearn,learning,feedback_duration_window,u6UTbErfmwVhi3hcQJ0yKiTfZ2W2,u6UTbErfmwVhi3hcQJ0yKiTfZ2W2,,,,,,,,,,,,,,,,,,3000.0,,,,6599e58d1011e10041695c0a,09:05:20,27/02/2024
html-keyboard-response,10,19389,0.0-4.0-3.0,,<div style='margin:auto;width: auto; font-size: 150%'><span style='font-weight: bold; font-size: 100px; color: red;'>0 points!</span><br><br></div>,,delaylearn,learning,feedback_image_window,u6UTbErfmwVhi3hcQJ0yKiTfZ2W2,u6UTbErfmwVhi3hcQJ0yKiTfZ2W2,,,,,,,,,,,,,,,,,,,,,,6599e58d1011e10041695c0a,09:05:20,27/02/2024
html-keyboard-response,11,21005,0.0-5.0,,"<div style=""font-size:100px;"">+</div>",,delaylearn,learning,ITI,u6UTbErfmwVhi3hcQJ0yKiTfZ2W2,u6UTbErfmwVhi3hcQJ0yKiTfZ2W2,,,,,,,,,,,,,,,,,,,1612.0,,,6599e58d1011e10041695c0a,09:05:20,27/02/2024
html-keyboard-response,12,22268,0.0-6.0-0.0,1258.0,"<div style=""display: flex; flex-direction: column; align-items: center; margin-top: -40px;""><img src=""images/demo_images/pattern_1.png"" style=""width: 234px; height: 230px; margin-top: -50px;""><div style=""display: flex; justify-content: space-between; margin-top: 33px;""><img src=""images/demo_images/choice_trial_1.png"" style=""width: 408px; height: 417px; margin-right: 200px;""><img src=""images/demo_images/choice_trial_2.png"" style=""width: 408px; height: 417px;""></div></div>",f,delaylearn,learning,trial,u6UTbErfmwVhi3hcQJ0yKiTfZ2W2,u6UTbErfmwVhi3hcQJ0yKiTfZ2W2,3.0,images/demo_images/choice_trial_1.png,images/demo_images/choice_trial_2.png,images/demo_images/pattern_1.png,j,f,3000.0,1.0,2.0,20.0,0.0,3.0,1.0,0.0,1.0,10.0,,,,,,6599e58d1011e10041695c0a,09:05:20,27/02/2024
html-keyboard-response,13,23272,0.0-6.0-1.0,,"<div style=""display: flex; flex-direction: column; align-items: center; margin-top: -40px;""><img src=""images/demo_images/pattern_1.png"" style=""width: 234px; height: 230px; margin-top: -50px;""><div style=""display: flex; justify-content: space-between; margin-top: 33px;""><img src=""images/demo_images/choice_trial_1.png"" style=""width: 408px; height: 417px; margin-right: 608px;""></div></div>",,delaylearn,learning,display_response,u6UTbErfmwVhi3hcQJ0yKiTfZ2W2,u6UTbErfmwVhi3hcQJ0yKiTfZ2W2,,,,,,,,,,,,,,,,,chosen stimuli: images/demo_images/choice_trial_1.png,,,,,6599e58d1011e10041695c0a,09:05:20,27/02/2024
html-keyboard-response,14,26276,0.0-6.0-2.0,,,,delaylearn,learning,feedback_duration_window,u6UTbErfmwVhi3hcQJ0yKiTfZ2W2,u6UTbErfmwVhi3hcQJ0yKiTfZ2W2,,,,,,,,,,,,,,,,,,3000.0,,,,6599e58d1011e10041695c0a,09:05:20,27/02/2024
html-keyboard-response,15,27781,0.0-6.0-3.0,,<div style='margin:auto;width: auto; font-size: 150%'><span style='font-weight: bold; font-size: 100px; color: red;'>0 points!</span><br><br></div>,,delaylearn,learning,feedback_image_window,u6UTbErfmwVhi3hcQJ0yKiTfZ2W2,u6UTbErfmwVhi3hcQJ0yKiTfZ2W2,,,,,,,,,,,,,,,,,,,,,,6599e58d1011e10041695c0a,09:05:20,27/02/2024
html-keyboard-response,16,29590,0.0-7.0,,"<div style=""font-size:100px;"">+</div>",,delaylearn,learning,ITI,u6UTbErfmwVhi3hcQJ0yKiTfZ2W2,u6UTbErfmwVhi3hcQJ0yKiTfZ2W2,,,,,,,,,,,,,,,,,,,1805.0,,,6599e58d1011e10041695c0a,09:05:20,27/02/2024
html-keyboard-response,17,31594,0.0-8.0-0.0,1999.7999999523163,"<div style=""display: flex; flex-direction: column; align-items: center; margin-top: -40px;""><img src=""images/demo_images/pattern_1.png"" style=""width: 234px; height: 230px; margin-top: -50px;""><div style=""display: flex; justify-content: space-between; margin-top: 33px;""><img src=""images/demo_images/choice_trial_1.png"" style=""width: 408px; height: 417px; margin-right: 200px;""><img src=""images/demo_images/choice_trial_2.png"" style=""width: 408px; height: 417px;""></div></div>",j,delaylearn,learning,trial,u6UTbErfmwVhi3hcQJ0yKiTfZ2W2,u6UTbErfmwVhi3hcQJ0yKiTfZ2W2,3.0,images/demo_images/choice_trial_1.png,images/demo_images/choice_trial_2.png,images/demo_images/pattern_1.png,f,f,3000.0,1.0,2.0,20.0,0.0,4.0,0.0,0.0,2.0,10.0,,,,,,6599e58d1011e10041695c0a,09:05:20,27/02/2024
html-keyboard-response,18,32598,0.0-8.0-1.0,,"<div style=""display: flex; flex-direction: column; align-items: center; margin-top: -40px;""><img src=""images/demo_images/pattern_1.png"" style=""width: 234px; height: 230px; margin-top: -50px;""><div style=""display: flex; justify-content: space-between; margin-top: 33px;""><img src=""images/demo_images/choice_trial_2.png"" style=""width: 408px; height: 417px; margin-left:608px;""></div></div>",,delaylearn,learning,display_response,u6UTbErfmwVhi3hcQJ0yKiTfZ2W2,u6UTbErfmwVhi3hcQJ0yKiTfZ2W2,,,,,,,,,,,,,,,,,chosen stimuli: images/demo_images/choice_trial_2.png,,,,,6599e58d1011e10041695c0a,09:05:20,27/02/2024
html-keyboard-response,19,35602,0.0-8.0-2.0,,,,delaylearn,learning,feedback_duration_window,u6UTbErfmwVhi3hcQJ0yKiTfZ2W2,u6UTbErfmwVhi3hcQJ0yKiTfZ2W2,,,,,,,,,,,,,,,,,,3000.0,,,,6599e58d1011e10041695c0a,09:05:20,27/02/2024
html-keyboard-response,20,37107,0.0-8.0-3.0,,<div style='margin:auto;width: auto; font-size: 150%'><span style='font-weight: bold; font-size: 100px; color: red;'>0 points!</span><br><br></div>,,delaylearn,learning,feedback_image_window,u6UTbErfmwVhi3hcQJ0yKiTfZ2W2,u6UTbErfmwVhi3hcQJ0yKiTfZ2W2,,,,,,,,,,,,,,,,,,,,,,6599e58d1011e10041695c0a,09:05:20,27/02/2024
html-keyboard-response,21,37610,0.0-9.0-0.0,,,,,,mood_trial_fixation,u6UTbErfmwVhi3hcQJ0yKiTfZ2W2,,,,,,,,,,,,,,,,,,,,,,,6599e58d1011e10041695c0a,09:05:20,27/02/2024
lmdlab-html-vas-response,22,42252,0.0-9.0-1.0,3629.0,How happy are you right now?,0.4347580467372134,delaylearn,learning,mood_trial,u6UTbErfmwVhi3hcQJ0yKiTfZ2W2,u6UTbErfmwVhi3hcQJ0yKiTfZ2W2,,,,,,,,,,,,,,,,,,,,"['Very unhappy', 'Very happy']",,6599e58d1011e10041695c0a,09:05:20,27/02/2024
html-keyboard-response,23,44037,0.0-10.0,,"<div style=""font-size:100px;"">+</div>",,delaylearn,learning,ITI,u6UTbErfmwVhi3hcQJ0yKiTfZ2W2,u6UTbErfmwVhi3hcQJ0yKiTfZ2W2,,,,,,,,,,,,,,,,,,,1782.0,,,6599e58d1011e10041695c0a,09:05:20,27/02/2024
html-keyboard-response,24,45210,0.0-11.0-0.0,1169.2999999523163,"<div style=""display: flex; flex-direction: column; align-items: center; margin-top: -40px;""><img src=""images/demo_images/pattern_1.png"" style=""width: 234px; height: 230px; margin-top: -50px;""><div style=""display: flex; justify-content: space-between; margin-top: 33px;""><img src=""images/demo_images/choice_trial_2.png"" style=""width: 408px; height: 417px; margin-right: 200px;""><img src=""images/demo_images/choice_trial_1.png"" style=""width: 408px; height: 417px;""></div></div>",j,delaylearn,learning,trial,u6UTbErfmwVhi3hcQJ0yKiTfZ2W2,u6UTbErfmwVhi3hcQJ0yKiTfZ2W2,3.0,images/demo_images/choice_trial_2.png,images/demo_images/choice_trial_1.png,images/demo_images/pattern_1.png,j,j,3000.0,2.0,1.0,20.0,1.0,5.0,1.0,1.0,1.0,20.0,,,,,,6599e58d1011e10041695c0a,09:05:20,27/02/2024
html-keyboard-response,25,46215,0.0-11.0-1.0,,"<div style=""display: flex; flex-direction: column; align-items: center; margin-top: -40px;""><img src=""images/demo_images/pattern_1.png"" style=""width: 234px; height: 230px; margin-top: -50px;""><div style=""display: flex; justify-content: space-between; margin-top: 33px;""><img src=""images/demo_images/choice_trial_1.png"" style=""width: 408px; height: 417px; margin-left:608px;""></div></div>",,delaylearn,learning,display_response,u6UTbErfmwVhi3hcQJ0yKiTfZ2W2,u6UTbErfmwVhi3hcQJ0yKiTfZ2W2,,,,,,,,,,,,,,,,,chosen stimuli: images/demo_images/choice_trial_1.png,,,,,6599e58d1011e10041695c0a,09:05:20,27/02/2024
html-keyboard-response,26,49219,0.0-11.0-2.0,,,,delaylearn,learning,feedback_duration_window,u6UTbErfmwVhi3hcQJ0yKiTfZ2W2,u6UTbErfmwVhi3hcQJ0yKiTfZ2W2,,,,,,,,,,,,,,,,,,3000.0,,,,6599e58d1011e10041695c0a,09:05:20,27/02/2024
html-keyboard-response,27,50724,0.0-11.0-3.0,,<div style='margin:auto;width: auto; font-size: 150%'><span style='font-weight: bold; font-size: 100px; color: green;'>+10 points!</span><br><br></div>,,delaylearn,learning,feedback_image_window,u6UTbErfmwVhi3hcQJ0yKiTfZ2W2,u6UTbErfmwVhi3hcQJ0yKiTfZ2W2,,,,,,,,,,,,,,,,,,,,,,6599e58d1011e10041695c0a,09:05:20,27/02/2024
html-keyboard-response,28,52492,0.0-12.0,,"<div style=""font-size:100px;"">+</div>",,delaylearn,learning,ITI,u6UTbErfmwVhi3hcQJ0yKiTfZ2W2,u6UTbErfmwVhi3hcQJ0yKiTfZ2W2,,,,,,,,,,,,,,,,,,,1764.0,,,6599e58d1011e10041695c0a,09:05:20,27/02/2024
html-keyboard-response,29,54167,0.0-13.0-0.0,1671.7999999523163,"<div style=""display: flex; flex-direction: column; align-items: center; margin-top: -40px;""><img src=""images/demo_images/pattern_1.png"" style=""width: 234px; height: 230px; margin-top: -50px;""><div style=""display: flex; justify-content: space-between; margin-top: 33px;""><img src=""images/demo_images/choice_trial_1.png"" style=""width: 408px; height: 417px; margin-right: 200px;""><img src=""images/demo_images/choice_trial_2.png"" style=""width: 408px; height: 417px;""></div></div>",f,delaylearn,learning,trial,u6UTbErfmwVhi3hcQJ0yKiTfZ2W2,u6UTbErfmwVhi3hcQJ0yKiTfZ2W2,3.0,images/demo_images/choice_trial_1.png,images/demo_images/choice_trial_2.png,images/demo_images/pattern_1.png,f,f,3000.0,1.0,2.0,20.0,0.0,6.0,1.0,1.0,1.0,30.0,,,,,,6599e58d1011e10041695c0a,09:05:20,27/02/2024
html-keyboard-response,30,55170,0.0-13.0-1.0,,"<div style=""display: flex; flex-direction: column; align-items: center; margin-top: -40px;""><img src=""images/demo_images/pattern_1.png"" style=""width: 234px; height: 230px; margin-top: -50px;""><div style=""display: flex; justify-content: space-between; margin-top: 33px;""><img src=""images/demo_images/choice_trial_1.png"" style=""width: 408px; height: 417px; margin-right: 608px;""></div></div>",,delaylearn,learning,display_response,u6UTbErfmwVhi3hcQJ0yKiTfZ2W2,u6UTbErfmwVhi3hcQJ0yKiTfZ2W2,,,,,,,,,,,,,,,,,chosen stimuli: images/demo_images/choice_trial_1.png,,,,,6599e58d1011e10041695c0a,09:05:20,27/02/2024
html-keyboard-response,31,58173,0.0-13.0-2.0,,,,delaylearn,learning,feedback_duration_window,u6UTbErfmwVhi3hcQJ0yKiTfZ2W2,u6UTbErfmwVhi3hcQJ0yKiTfZ2W2,,,,,,,,,,,,,,,,,,3000.0,,,,6599e58d1011e10041695c0a,09:05:20,27/02/2024
html-keyboard-response,32,59676,0.0-13.0-3.0,,<div style='margin:auto;width: auto; font-size: 150%'><span style='font-weight: bold; font-size: 100px; color: green;'>+10 points!</span><br><br></div>,,delaylearn,learning,feedback_image_window,u6UTbErfmwVhi3hcQJ0yKiTfZ2W2,u6UTbErfmwVhi3hcQJ0yKiTfZ2W2,,,,,,,,,,,,,,,,,,,,,,6599e58d1011e10041695c0a,09:05:20,27/02/2024
html-button-response,33,62555,0.0-14.0,2875.2999999523163,"
  <div style=""display: flex; align-items: center; justify-content: center; height: 80vh;"">
  <div>
          <img src=""images/inst_demo_finish.png"" style=""width: 80vw; height:auto;"">
          <br><br>
      </div>
      <br><br>
  </div>",0,,,,u6UTbErfmwVhi3hcQJ0yKiTfZ2W2,,,,,,,,,,,,,,,,,,,,,,,6599e58d1011e10041695c0a,09:05:20,27/02/2024
html-keyboard-response,34,64732,0.0-15.0,2175.5,"
  <div style=""display: flex; align-items: center; justify-content: center; height: 80vh;"">
  <div>
          <img src=""images/inst_6.png"" style=""width: 80vw; height:auto;"">
          <br><br>
      </div>
      <br><br>
  </div>",j,,,,u6UTbErfmwVhi3hcQJ0yKiTfZ2W2,,,,,,,,,,,,,,,,,,,,,,,6599e58d1011e10041695c0a,09:05:20,27/02/2024
html-keyboard-response,35,67736,0.0-16.0,,"<div style=""font-size:100px;"">+</div>",,delaylearn,learning,pre_fixation,u6UTbErfmwVhi3hcQJ0yKiTfZ2W2,,,,,,,,,,,,,,,,,,,,,,,6599e58d1011e10041695c0a,09:05:20,27/02/2024
html-keyboard-response,36,69579,0.0-17.0,,"<div style=""font-size:100px;"">+</div>",,delaylearn,learning,ITI,u6UTbErfmwVhi3hcQJ0yKiTfZ2W2,u6UTbErfmwVhi3hcQJ0yKiTfZ2W2,,,,,,,,,,,,,,,,,,,1838.0,,,6599e58d1011e10041695c0a,09:05:20,27/02/2024
html-keyboard-response,37,70681,0.0-18.0-0.0,1097.7000000476837,"<div style=""display: flex; flex-direction: column; align-items: center; margin-top: -40px;""><img src=""images/pattern_3.png"" style=""width: 234px; height: 230px; margin-top: -50px;""><div style=""display: flex; justify-content: space-between; margin-top: 33px;""><img src=""images/choice_trial_13.png"" style=""width: 408px; height: 417px; margin-right: 200px;""><img src=""images/choice_trial_10.png"" style=""width: 408px; height: 417px;""></div></div>",j,delaylearn,learning,trial,u6UTbErfmwVhi3hcQJ0yKiTfZ2W2,u6UTbErfmwVhi3hcQJ0yKiTfZ2W2,3.0,images/choice_trial_13.png,images/choice_trial_10.png,images/pattern_3.png,f,f,7000.0,13.0,10.0,2.0,0.0,7.0,0.0,0.0,10.0,30.0,,,,,,6599e58d1011e10041695c0a,09:05:20,27/02/2024
html-keyboard-response,38,71684,0.0-18.0-1.0,,"<div style=""display: flex; flex-direction: column; align-items: center; margin-top: -40px;""><img src=""images/pattern_3.png"" style=""width: 234px; height: 230px; margin-top: -50px;""><div style=""display: flex; justify-content: space-between; margin-top: 33px;""><img src=""images/choice_trial_10.png"" style=""width: 408px; height: 417px; margin-left:608px;""></div></div>",,delaylearn,learning,display_response,u6UTbErfmwVhi3hcQJ0yKiTfZ2W2,u6UTbErfmwVhi3hcQJ0yKiTfZ2W2,,,,,,,,,,,,,,,,,chosen stimuli: images/choice_trial_10.png,,,,,6599e58d1011e10041695c0a,09:05:20,27/02/2024
html-keyboard-response,39,78686,0.0-18.0-2.0,,,,delaylearn,learning,feedback_duration_window,u6UTbErfmwVhi3hcQJ0yKiTfZ2W2,u6UTbErfmwVhi3hcQJ0yKiTfZ2W2,,,,,,,,,,,,,,,,,,7000.0,,,,6599e58d1011e10041695c0a,09:05:20,27/02/2024
html-keyboard-response,40,80189,0.0-18.0-3.0,,<div style='margin:auto;width: auto; font-size: 150%'><span style='font-weight: bold; font-size: 100px; color: red;'>0 points!</span><br><br></div>,,delaylearn,learning,feedback_image_window,u6UTbErfmwVhi3hcQJ0yKiTfZ2W2,u6UTbErfmwVhi3hcQJ0yKiTfZ2W2,,,,,,,,,,,,,,,,,,,,,,6599e58d1011e10041695c0a,09:05:20,27/02/2024
html-keyboard-response,41,82510,0.0-19.0,,"<div style=""font-size:100px;"">+</div>",,delaylearn,learning,ITI,u6UTbErfmwVhi3hcQJ0yKiTfZ2W2,u6UTbErfmwVhi3hcQJ0yKiTfZ2W2,,,,,,,,,,,,,,,,,,,2317.0,,,6599e58d1011e10041695c0a,09:05:20,27/02/2024
html-keyboard-response,42,84100,0.0-20.0-0.0,1585.4000000953674,"<div style=""display: flex; flex-direction: column; align-items: center; margin-top: -40px;""><img src=""images/pattern_7.png"" style=""width: 234px; height: 230px; margin-top: -50px;""><div style=""display: flex; justify-content: space-between; margin-top: 33px;""><img src=""images/choice_trial_12.png"" style=""width: 408px; height: 417px; margin-right: 200px;""><img src=""images/choice_trial_6.png"" style=""width: 408px; height: 417px;""></div></div>",j,delaylearn,learning,trial,u6UTbErfmwVhi3hcQJ0yKiTfZ2W2,u6UTbErfmwVhi3hcQJ0yKiTfZ2W2,3.0,images/choice_trial_12.png,images/choice_trial_6.png,images/pattern_7.png,j,j,750.0,12.0,6.0,6.0,1.0,8.0,1.0,1.0,6.0,40.0,,,,,,6599e58d1011e10041695c0a,09:05:20,27/02/2024
html-keyboard-response,43,85104,0.0-20.0-1.0,,"<div style=""display: flex; flex-direction: column; align-items: center; margin-top: -40px;""><img src=""images/pattern_7.png"" style=""width: 234px; height: 230px; margin-top: -50px;""><div style=""display: flex; justify-content: space-between; margin-top: 33px;""><img src=""images/choice_trial_6.png"" style=""width: 408px; height: 417px; margin-left:608px;""></div></div>",,delaylearn,learning,display_response,u6UTbErfmwVhi3hcQJ0yKiTfZ2W2,u6UTbErfmwVhi3hcQJ0yKiTfZ2W2,,,,,,,,,,,,,,,,,chosen stimuli: images/choice_trial_6.png,,,,,6599e58d1011e10041695c0a,09:05:20,27/02/2024
html-keyboard-response,44,85859,0.0-20.0-2.0,,,,delaylearn,learning,feedback_duration_window,u6UTbErfmwVhi3hcQJ0yKiTfZ2W2,u6UTbErfmwVhi3hcQJ0yKiTfZ2W2,,,,,,,,,,,,,,,,,,750.0,,,,6599e58d1011e10041695c0a,09:05:20,27/02/2024
html-keyboard-response,45,87363,0.0-20.0-3.0,,<div style='margin:auto;width: auto; font-size: 150%'><span style='font-weight: bold; font-size: 100px; color: green;'>+10 points!</span><br><br></div>,,delaylearn,learning,feedback_image_window,u6UTbErfmwVhi3hcQJ0yKiTfZ2W2,u6UTbErfmwVhi3hcQJ0yKiTfZ2W2,,,,,,,,,,,,,,,,,,,,,,6599e58d1011e10041695c0a,09:05:20,27/02/2024
html-keyboard-response,46,89256,0.0-21.0,,"<div style=""font-size:100px;"">+</div>",,delaylearn,learning,ITI,u6UTbErfmwVhi3hcQJ0yKiTfZ2W2,u6UTbErfmwVhi3hcQJ0yKiTfZ2W2,,,,,,,,,,,,,,,,,,,1890.0,,,6599e58d1011e10041695c0a,09:05:20,27/02/2024
html-keyboard-response,47,90468,0.0-22.0-0.0,1207.0999999046326,"<div style=""display: flex; flex-direction: column; align-items: center; margin-top: -40px;""><img src=""images/pattern_4.png"" style=""width: 234px; height: 230px; margin-top: -50px;""><div style=""display: flex; justify-content: space-between; margin-top: 33px;""><img src=""images/choice_trial_15.png"" style=""width: 408px; height: 417px; margin-right: 200px;""><img src=""images/choice_trial_9.png"" style=""width: 408px; height: 417px;""></div></div>",f,delaylearn,learning,trial,u6UTbErfmwVhi3hcQJ0yKiTfZ2W2,u6UTbErfmwVhi3hcQJ0yKiTfZ2W2,3.0,images/choice_trial_15.png,images/choice_trial_9.png,images/pattern_4.png,f,f,7000.0,15.0,9.0,3.0,0.0,9.0,1.0,1.0,15.0,50.0,,,,,,6599e58d1011e10041695c0a,09:05:20,27/02/2024
html-keyboard-response,48,91472,0.0-22.0-1.0,,"<div style=""display: flex; flex-direction: column; align-items: center; margin-top: -40px;""><img src=""images/pattern_4.png"" style=""width: 234px; height: 230px; margin-top: -50px;""><div style=""display: flex; justify-content: space-between; margin-top: 33px;""><img src=""images/choice_trial_15.png"" style=""width: 408px; height: 417px; margin-right: 608px;""></div></div>",,delaylearn,learning,display_response,u6UTbErfmwVhi3hcQJ0yKiTfZ2W2,u6UTbErfmwVhi3hcQJ0yKiTfZ2W2,,,,,,,,,,,,,,,,,chosen stimuli: images/choice_trial_15.png,,,,,6599e58d1011e10041695c0a,09:05:20,27/02/2024
html-keyboard-response,49,98476,0.0-22.0-2.0,,,,delaylearn,learning,feedback_duration_window,u6UTbErfmwVhi3hcQJ0yKiTfZ2W2,u6UTbErfmwVhi3hcQJ0yKiTfZ2W2,,,,,,,,,,,,,,,,,,7000.0,,,,6599e58d1011e10041695c0a,09:05:20,27/02/2024
html-keyboard-response,50,99980,0.0-22.0-3.0,,<div style='margin:auto;width: auto; font-size: 150%'><span style='font-weight: bold; font-size: 100px; color: green;'>+10 points!</span><br><br></div>,,delaylearn,learning,feedback_image_window,u6UTbErfmwVhi3hcQJ0yKiTfZ2W2,u6UTbErfmwVhi3hcQJ0yKiTfZ2W2,,,,,,,,,,,,,,,,,,,,,,6599e58d1011e10041695c0a,09:05:20,27/02/2024
html-keyboard-response,51,102073,0.0-23.0,,"<div style=""font-size:100px;"">+</div>",,delaylearn,learning,ITI,u6UTbErfmwVhi3hcQJ0yKiTfZ2W2,u6UTbErfmwVhi3hcQJ0yKiTfZ2W2,,,,,,,,,,,,,,,,,,,2089.0,,,6599e58d1011e10041695c0a,09:05:20,27/02/2024
html-keyboard-response,52,103671,0.0-24.0-0.0,1594.5999999046326,"<div style=""display: flex; flex-direction: column; align-items: center; margin-top: -40px;""><img src=""images/pattern_5.png"" style=""width: 234px; height: 230px; margin-top: -50px;""><div style=""display: flex; justify-content: space-between; margin-top: 33px;""><img src=""images/choice_trial_2.png"" style=""width: 408px; height: 417px; margin-right: 200px;""><img src=""images/choice_trial_11.png"" style=""width: 408px; height: 417px;""></div></div>",f,delaylearn,learning,trial,u6UTbErfmwVhi3hcQJ0yKiTfZ2W2,u6UTbErfmwVhi3hcQJ0yKiTfZ2W2,3.0,images/choice_trial_2.png,images/choice_trial_11.png,images/pattern_5.png,j,j,750.0,2.0,11.0,4.0,1.0,10.0,0.0,0.0,2.0,50.0,,,,,,6599e58d1011e10041695c0a,09:05:20,27/02/2024
html-keyboard-response,53,104675,0.0-24.0-1.0,,"<div style=""display: flex; flex-direction: column; align-items: center; margin-top: -40px;""><img src=""images/pattern_5.png"" style=""width: 234px; height: 230px; margin-top: -50px;""><div style=""display: flex; justify-content: space-between; margin-top: 33px;""><img src=""images/choice_trial_2.png"" style=""width: 408px; height: 417px; margin-right: 608px;""></div></div>",,delaylearn,learning,display_response,u6UTbErfmwVhi3hcQJ0yKiTfZ2W2,u6UTbErfmwVhi3hcQJ0yKiTfZ2W2,,,,,,,,,,,,,,,,,chosen stimuli: images/choice_trial_2.png,,,,,6599e58d1011e10041695c0a,09:05:20,27/02/2024
html-keyboard-response,54,105429,0.0-24.0-2.0,,,,delaylearn,learning,feedback_duration_window,u6UTbErfmwVhi3hcQJ0yKiTfZ2W2,u6UTbErfmwVhi3hcQJ0yKiTfZ2W2,,,,,,,,,,,,,,,,,,750.0,,,,6599e58d1011e10041695c0a,09:05:20,27/02/2024
html-keyboard-response,55,106933,0.0-24.0-3.0,,<div style='margin:auto;width: auto; font-size: 150%'><span style='font-weight: bold; font-size: 100px; color: red;'>0 points!</span><br><br></div>,,delaylearn,learning,feedback_image_window,u6UTbErfmwVhi3hcQJ0yKiTfZ2W2,u6UTbErfmwVhi3hcQJ0yKiTfZ2W2,,,,,,,,,,,,,,,,,,,,,,6599e58d1011e10041695c0a,09:05:20,27/02/2024
html-keyboard-response,56,108913,0.0-25.0,,"<div style=""font-size:100px;"">+</div>",,delaylearn,learning,ITI,u6UTbErfmwVhi3hcQJ0yKiTfZ2W2,u6UTbErfmwVhi3hcQJ0yKiTfZ2W2,,,,,,,,,,,,,,,,,,,1975.0,,,6599e58d1011e10041695c0a,09:05:20,27/02/2024
html-keyboard-response,57,110155,0.0-26.0-0.0,1237.8999998569489,"<div style=""display: flex; flex-direction: column; align-items: center; margin-top: -40px;""><img src=""images/pattern_6.png"" style=""width: 234px; height: 230px; margin-top: -50px;""><div style=""display: flex; justify-content: space-between; margin-top: 33px;""><img src=""images/choice_trial_16.png"" style=""width: 408px; height: 417px; margin-right: 200px;""><img src=""images/choice_trial_3.png"" style=""width: 408px; height: 417px;""></div></div>",j,delaylearn,learning,trial,u6UTbErfmwVhi3hcQJ0yKiTfZ2W2,u6UTbErfmwVhi3hcQJ0yKiTfZ2W2,3.0,images/choice_trial_16.png,images/choice_trial_3.png,images/pattern_6.png,j,f,750.0,16.0,3.0,5.0,0.0,11.0,0.0,1.0,3.0,60.0,,,,,,6599e58d1011e10041695c0a,09:05:20,27/02/2024
html-keyboard-response,58,111159,0.0-26.0-1.0,,"<div style=""display: flex; flex-direction: column; align-items: center; margin-top: -40px;""><img src=""images/pattern_6.png"" style=""width: 234px; height: 230px; margin-top: -50px;""><div style=""display: flex; justify-content: space-between; margin-top: 33px;""><img src=""images/choice_trial_3.png"" style=""width: 408px; height: 417px; margin-left:608px;""></div></div>",,delaylearn,learning,display_response,u6UTbErfmwVhi3hcQJ0yKiTfZ2W2,u6UTbErfmwVhi3hcQJ0yKiTfZ2W2,,,,,,,,,,,,,,,,,chosen stimuli: images/choice_trial_3.png,,,,,6599e58d1011e10041695c0a,09:05:20,27/02/2024
html-keyboard-response,59,111913,0.0-26.0-2.0,,,,delaylearn,learning,feedback_duration_window,u6UTbErfmwVhi3hcQJ0yKiTfZ2W2,u6UTbErfmwVhi3hcQJ0yKiTfZ2W2,,,,,,,,,,,,,,,,,,750.0,,,,6599e58d1011e10041695c0a,09:05:20,27/02/2024
html-keyboard-response,60,113416,0.0-26.0-3.0,,<div style='margin:auto;width: auto; font-size: 150%'><span style='font-weight: bold; font-size: 100px; color: green;'>+10 points!</span><br><br></div>,,delaylearn,learning,feedback_image_window,u6UTbErfmwVhi3hcQJ0yKiTfZ2W2,u6UTbErfmwVhi3hcQJ0yKiTfZ2W2,,,,,,,,,,,,,,,,,,,,,,6599e58d1011e10041695c0a,09:05:20,27/02/2024
html-keyboard-response,61,113921,0.0-27.0-0.0,,,,,,mood_trial_fixation,u6UTbErfmwVhi3hcQJ0yKiTfZ2W2,,,,,,,,,,,,,,,,,,,,,,,6599e58d1011e10041695c0a,09:05:20,27/02/2024
lmdlab-html-vas-response,62,117559,0.0-27.0-1.0,2631.0,How happy are you right now?,0.7592730379188712,delaylearn,learning,mood_trial,u6UTbErfmwVhi3hcQJ0yKiTfZ2W2,u6UTbErfmwVhi3hcQJ0yKiTfZ2W2,,,,,,,,,,,,,,,,,,,,"['Very unhappy', 'Very happy']",,6599e58d1011e10041695c0a,09:05:20,27/02/2024
html-keyboard-response,63,120037,0.0-28.0,,"<div style=""font-size:100px;"">+</div>",,delaylearn,learning,ITI,u6UTbErfmwVhi3hcQJ0yKiTfZ2W2,u6UTbErfmwVhi3hcQJ0yKiTfZ2W2,,,,,,,,,,,,,,,,,,,2475.0,,,6599e58d1011e10041695c0a,09:05:20,27/02/2024
html-keyboard-response,64,120924,0.0-29.0-0.0,881.9000000953674,"<div style=""display: flex; flex-direction: column; align-items: center; margin-top: -40px;""><img src=""images/pattern_1.png"" style=""width: 234px; height: 230px; margin-top: -50px;""><div style=""display: flex; justify-content: space-between; margin-top: 33px;""><img src=""images/choice_trial_8.png"" style=""width: 408px; height: 417px; margin-right: 200px;""><img src=""images/choice_trial_14.png"" style=""width: 408px; height: 417px;""></div></div>",j,delaylearn,learning,trial,u6UTbErfmwVhi3hcQJ0yKiTfZ2W2,u6UTbErfmwVhi3hcQJ0yKiTfZ2W2,3.0,images/choice_trial_8.png,images/choice_trial_14.png,images/pattern_1.png,j,j,7000.0,8.0,14.0,1.0,1.0,12.0,1.0,1.0,14.0,70.0,,,,,,6599e58d1011e10041695c0a,09:05:20,27/02/2024
html-keyboard-response,65,121930,0.0-29.0-1.0,,"<div style=""display: flex; flex-direction: column; align-items: center; margin-top: -40px;""><img src=""images/pattern_1.png"" style=""width: 234px; height: 230px; margin-top: -50px;""><div style=""display: flex; justify-content: space-between; margin-top: 33px;""><img src=""images/choice_trial_14.png"" style=""width: 408px; height: 417px; margin-left:608px;""></div></div>",,delaylearn,learning,display_response,u6UTbErfmwVhi3hcQJ0yKiTfZ2W2,u6UTbErfmwVhi3hcQJ0yKiTfZ2W2,,,,,,,,,,,,,,,,,chosen stimuli: images/choice_trial_14.png,,,,,6599e58d1011e10041695c0a,09:05:20,27/02/2024
html-keyboard-response,66,128933,0.0-29.0-2.0,,,,delaylearn,learning,feedback_duration_window,u6UTbErfmwVhi3hcQJ0yKiTfZ2W2,u6UTbErfmwVhi3hcQJ0yKiTfZ2W2,,,,,,,,,,,,,,,,,,7000.0,,,,6599e58d1011e10041695c0a,09:05:20,27/02/2024
html-keyboard-response,67,130437,0.0-29.0-3.0,,<div style='margin:auto;width: auto; font-size: 150%'><span style='font-weight: bold; font-size: 100px; color: green;'>+10 points!</span><br><br></div>,,delaylearn,learning,feedback_image_window,u6UTbErfmwVhi3hcQJ0yKiTfZ2W2,u6UTbErfmwVhi3hcQJ0yKiTfZ2W2,,,,,,,,,,,,,,,,,,,,,,6599e58d1011e10041695c0a,09:05:20,27/02/2024
html-keyboard-response,68,132924,0.0-30.0,,"<div style=""font-size:100px;"">+</div>",,delaylearn,learning,ITI,u6UTbErfmwVhi3hcQJ0yKiTfZ2W2,u6UTbErfmwVhi3hcQJ0yKiTfZ2W2,,,,,,,,,,,,,,,,,,,2483.0,,,6599e58d1011e10041695c0a,09:05:20,27/02/2024
html-keyboard-response,69,134105,0.0-31.0-0.0,1178.0,"<div style=""display: flex; flex-direction: column; align-items: center; margin-top: -40px;""><img src=""images/pattern_3.png"" style=""width: 234px; height: 230px; margin-top: -50px;""><div style=""display: flex; justify-content: space-between; margin-top: 33px;""><img src=""images/choice_trial_10.png"" style=""width: 408px; height: 417px; margin-right: 200px;""><img src=""images/choice_trial_13.png"" style=""width: 408px; height: 417px;""></div></div>",f,delaylearn,learning,trial,u6UTbErfmwVhi3hcQJ0yKiTfZ2W2,u6UTbErfmwVhi3hcQJ0yKiTfZ2W2,3.0,images/choice_trial_10.png,images/choice_trial_13.png,images/pattern_3.png,f,j,7000.0,10.0,13.0,2.0,1.0,13.0,0.0,1.0,10.0,80.0,,,,,,6599e58d1011e10041695c0a,09:05:20,27/02/2024
html-keyboard-response,70,135109,0.0-31.0-1.0,,"<div style=""display: flex; flex-direction: column; align-items: center; margin-top: -40px;""><img src=""images/pattern_3.png"" style=""width: 234px; height: 230px; margin-top: -50px;""><div style=""display: flex; justify-content: space-between; margin-top: 33px;""><img src=""images/choice_trial_10.png"" style=""width: 408px; height: 417px; margin-right: 608px;""></div></div>",,delaylearn,learning,display_response,u6UTbErfmwVhi3hcQJ0yKiTfZ2W2,u6UTbErfmwVhi3hcQJ0yKiTfZ2W2,,,,,,,,,,,,,,,,,chosen stimuli: images/choice_trial_10.png,,,,,6599e58d1011e10041695c0a,09:05:20,27/02/2024
html-keyboard-response,71,142113,0.0-31.0-2.0,,,,delaylearn,learning,feedback_duration_window,u6UTbErfmwVhi3hcQJ0yKiTfZ2W2,u6UTbErfmwVhi3hcQJ0yKiTfZ2W2,,,,,,,,,,,,,,,,,,7000.0,,,,6599e58d1011e10041695c0a,09:05:20,27/02/2024
html-keyboard-response,72,143617,0.0-31.0-3.0,,<div style='margin:auto;width: auto; font-size: 150%'><span style='font-weight: bold; font-size: 100px; color: green;'>+10 points!</span><br><br></div>,,delaylearn,learning,feedback_image_window,u6UTbErfmwVhi3hcQJ0yKiTfZ2W2,u6UTbErfmwVhi3hcQJ0yKiTfZ2W2,,,,,,,,,,,,,,,,,,,,,,6599e58d1011e10041695c0a,09:05:20,27/02/2024
html-keyboard-response,73,146019,0.0-32.0,,"<div style=""font-size:100px;"">+</div>",,delaylearn,learning,ITI,u6UTbErfmwVhi3hcQJ0yKiTfZ2W2,u6UTbErfmwVhi3hcQJ0yKiTfZ2W2,,,,,,,,,,,,,,,,,,,2398.0,,,6599e58d1011e10041695c0a,09:05:20,27/02/2024
html-keyboard-response,74,146934,0.0-33.0-0.0,911.6000001430511,"<div style=""display: flex; flex-direction: column; align-items: center; margin-top: -40px;""><img src=""images/pattern_5.png"" style=""width: 234px; height: 230px; margin-top: -50px;""><div style=""display: flex; justify-content: space-between; margin-top: 33px;""><img src=""images/choice_trial_11.png"" style=""width: 408px; height: 417px; margin-right: 200px;""><img src=""images/choice_trial_2.png"" style=""width: 408px; height: 417px;""></div></div>",j,delaylearn,learning,trial,u6UTbErfmwVhi3hcQJ0yKiTfZ2W2,u6UTbErfmwVhi3hcQJ0yKiTfZ2W2,3.0,images/choice_trial_11.png,images/choice_trial_2.png,images/pattern_5.png,f,f,750.0,11.0,2.0,4.0,0.0,14.0,0.0,0.0,2.0,80.0,,,,,,6599e58d1011e10041695c0a,09:05:20,27/02/2024
html-keyboard-response,75,147937,0.0-33.0-1.0,,"<div style=""display: flex; flex-direction: column; align-items: center; margin-top: -40px;""><img src=""images/pattern_5.png"" style=""width: 234px; height: 230px; margin-top: -50px;""><div style=""display: flex; justify-content: space-between; margin-top: 33px;""><img src=""images/choice_trial_2.png"" style=""width: 408px; height: 417px; margin-left:608px;""></div></div>",,delaylearn,learning,display_response,u6UTbErfmwVhi3hcQJ0yKiTfZ2W2,u6UTbErfmwVhi3hcQJ0yKiTfZ2W2,,,,,,,,,,,,,,,,,chosen stimuli: images/choice_trial_2.png,,,,,6599e58d1011e10041695c0a,09:05:20,27/02/2024
html-keyboard-response,76,148691,0.0-33.0-2.0,,,,delaylearn,learning,feedback_duration_window,u6UTbErfmwVhi3hcQJ0yKiTfZ2W2,u6UTbErfmwVhi3hcQJ0yKiTfZ2W2,,,,,,,,,,,,,,,,,,750.0,,,,6599e58d1011e10041695c0a,09:05:20,27/02/2024
html-keyboard-response,77,150194,0.0-33.0-3.0,,<div style='margin:auto;width: auto; font-size: 150%'><span style='font-weight: bold; font-size: 100px; color: red;'>0 points!</span><br><br></div>,,delaylearn,learning,feedback_image_window,u6UTbErfmwVhi3hcQJ0yKiTfZ2W2,u6UTbErfmwVhi3hcQJ0yKiTfZ2W2,,,,,,,,,,,,,,,,,,,,,,6599e58d1011e10041695c0a,09:05:20,27/02/2024
html-keyboard-response,78,150698,0.0-34.0-0.0,,,,,,mood_trial_fixation,u6UTbErfmwVhi3hcQJ0yKiTfZ2W2,,,,,,,,,,,,,,,,,,,,,,,6599e58d1011e10041695c0a,09:05:20,27/02/2024
lmdlab-html-vas-response,79,154819,0.0-34.0-1.0,3113.0,How happy are you right now?,0.6411072530864198,delaylearn,learning,mood_trial,u6UTbErfmwVhi3hcQJ0yKiTfZ2W2,u6UTbErfmwVhi3hcQJ0yKiTfZ2W2,,,,,,,,,,,,,,,,,,,,"['Very unhappy', 'Very happy']",,6599e58d1011e10041695c0a,09:05:20,27/02/2024
html-keyboard-response,80,157258,0.0-35.0,,"<div style=""font-size:100px;"">+</div>",,delaylearn,learning,ITI,u6UTbErfmwVhi3hcQJ0yKiTfZ2W2,u6UTbErfmwVhi3hcQJ0yKiTfZ2W2,,,,,,,,,,,,,,,,,,,2436.0,,,6599e58d1011e10041695c0a,09:05:20,27/02/2024
html-keyboard-response,81,158036,0.0-36.0-0.0,773.2999999523163,"<div style=""display: flex; flex-direction: column; align-items: center; margin-top: -40px;""><img src=""images/pattern_6.png"" style=""width: 234px; height: 230px; margin-top: -50px;""><div style=""display: flex; justify-content: space-between; margin-top: 33px;""><img src=""images/choice_trial_16.png"" style=""width: 408px; height: 417px; margin-right: 200px;""><img src=""images/choice_trial_3.png"" style=""width: 408px; height: 417px;""></div></div>",f,delaylearn,learning,trial,u6UTbErfmwVhi3hcQJ0yKiTfZ2W2,u6UTbErfmwVhi3hcQJ0yKiTfZ2W2,3.0,images/choice_trial_16.png,images/choice_trial_3.png,images/pattern_6.png,f,f,750.0,16.0,3.0,5.0,0.0,15.0,1.0,1.0,16.0,90.0,,,,,,6599e58d1011e10041695c0a,09:05:20,27/02/2024
html-keyboard-response,82,159040,0.0-36.0-1.0,,"<div style=""display: flex; flex-direction: column; align-items: center; margin-top: -40px;""><img src=""images/pattern_6.png"" style=""width: 234px; height: 230px; margin-top: -50px;""><div style=""display: flex; justify-content: space-between; margin-top: 33px;""><img src=""images/choice_trial_16.png"" style=""width: 408px; height: 417px; margin-right: 608px;""></div></div>",,delaylearn,learning,display_response,u6UTbErfmwVhi3hcQJ0yKiTfZ2W2,u6UTbErfmwVhi3hcQJ0yKiTfZ2W2,,,,,,,,,,,,,,,,,chosen stimuli: images/choice_trial_16.png,,,,,6599e58d1011e10041695c0a,09:05:20,27/02/2024
html-keyboard-response,83,159793,0.0-36.0-2.0,,,,delaylearn,learning,feedback_duration_window,u6UTbErfmwVhi3hcQJ0yKiTfZ2W2,u6UTbErfmwVhi3hcQJ0yKiTfZ2W2,,,,,,,,,,,,,,,,,,750.0,,,,6599e58d1011e10041695c0a,09:05:20,27/02/2024
html-keyboard-response,84,161298,0.0-36.0-3.0,,<div style='margin:auto;width: auto; font-size: 150%'><span style='font-weight: bold; font-size: 100px; color: green;'>+10 points!</span><br><br></div>,,delaylearn,learning,feedback_image_window,u6UTbErfmwVhi3hcQJ0yKiTfZ2W2,u6UTbErfmwVhi3hcQJ0yKiTfZ2W2,,,,,,,,,,,,,,,,,,,,,,6599e58d1011e10041695c0a,09:05:20,27/02/2024
html-keyboard-response,85,162821,0.0-37.0,,"<div style=""font-size:100px;"">+</div>",,delaylearn,learning,ITI,u6UTbErfmwVhi3hcQJ0yKiTfZ2W2,u6UTbErfmwVhi3hcQJ0yKiTfZ2W2,,,,,,,,,,,,,,,,,,,1521.0,,,6599e58d1011e10041695c0a,09:05:20,27/02/2024
html-keyboard-response,86,163773,0.0-38.0-0.0,948.7000000476837,"<div style=""display: flex; flex-direction: column; align-items: center; margin-top: -40px;""><img src=""images/pattern_4.png"" style=""width: 234px; height: 230px; margin-top: -50px;""><div style=""display: flex; justify-content: space-between; margin-top: 33px;""><img src=""images/choice_trial_9.png"" style=""width: 408px; height: 417px; margin-right: 200px;""><img src=""images/choice_trial_15.png"" style=""width: 408px; height: 417px;""></div></div>",j,delaylearn,learning,trial,u6UTbErfmwVhi3hcQJ0yKiTfZ2W2,u6UTbErfmwVhi3hcQJ0yKiTfZ2W2,3.0,images/choice_trial_9.png,images/choice_trial_15.png,images/pattern_4.png,j,j,7000.0,9.0,15.0,3.0,1.0,16.0,1.0,1.0,15.0,100.0,,,,,,6599e58d1011e10041695c0a,09:05:20,27/02/2024
html-keyboard-response,87,164777,0.0-38.0-1.0,,"<div style=""display: flex; flex-direction: column; align-items: center; margin-top: -40px;""><img src=""images/pattern_4.png"" style=""width: 234px; height: 230px; margin-top: -50px;""><div style=""display: flex; justify-content: space-between; margin-top: 33px;""><img src=""images/choice_trial_15.png"" style=""width: 408px; height: 417px; margin-left:608px;""></div></div>",,delaylearn,learning,display_response,u6UTbErfmwVhi3hcQJ0yKiTfZ2W2,u6UTbErfmwVhi3hcQJ0yKiTfZ2W2,,,,,,,,,,,,,,,,,chosen stimuli: images/choice_trial_15.png,,,,,6599e58d1011e10041695c0a,09:05:20,27/02/2024
html-keyboard-response,88,171782,0.0-38.0-2.0,,,,delaylearn,learning,feedback_duration_window,u6UTbErfmwVhi3hcQJ0yKiTfZ2W2,u6UTbErfmwVhi3hcQJ0yKiTfZ2W2,,,,,,,,,,,,,,,,,,7000.0,,,,6599e58d1011e10041695c0a,09:05:20,27/02/2024
html-keyboard-response,89,173287,0.0-38.0-3.0,,<div style='margin:auto;width: auto; font-size: 150%'><span style='font-weight: bold; font-size: 100px; color: green;'>+10 points!</span><br><br></div>,,delaylearn,learning,feedback_image_window,u6UTbErfmwVhi3hcQJ0yKiTfZ2W2,u6UTbErfmwVhi3hcQJ0yKiTfZ2W2,,,,,,,,,,,,,,,,,,,,,,6599e58d1011e10041695c0a,09:05:20,27/02/2024
html-keyboard-response,90,174793,0.0-39.0,,"<div style=""font-size:100px;"">+</div>",,delaylearn,learning,ITI,u6UTbErfmwVhi3hcQJ0yKiTfZ2W2,u6UTbErfmwVhi3hcQJ0yKiTfZ2W2,,,,,,,,,,,,,,,,,,,1503.0,,,6599e58d1011e10041695c0a,09:05:20,27/02/2024
html-keyboard-response,91,176469,0.0-40.0-0.0,1671.2000000476837,"<div style=""display: flex; flex-direction: column; align-items: center; margin-top: -40px;""><img src=""images/pattern_7.png"" style=""width: 234px; height: 230px; margin-top: -50px;""><div style=""display: flex; justify-content: space-between; margin-top: 33px;""><img src=""images/choice_trial_6.png"" style=""width: 408px; height: 417px; margin-right: 200px;""><img src=""images/choice_trial_12.png"" style=""width: 408px; height: 417px;""></div></div>",f,delaylearn,learning,trial,u6UTbErfmwVhi3hcQJ0yKiTfZ2W2,u6UTbErfmwVhi3hcQJ0yKiTfZ2W2,3.0,images/choice_trial_6.png,images/choice_trial_12.png,images/pattern_7.png,j,f,750.0,6.0,12.0,6.0,0.0,17.0,1.0,0.0,6.0,100.0,,,,,,6599e58d1011e10041695c0a,09:05:20,27/02/2024
html-keyboard-response,92,177474,0.0-40.0-1.0,,"<div style=""display: flex; flex-direction: column; align-items: center; margin-top: -40px;""><img src=""images/pattern_7.png"" style=""width: 234px; height: 230px; margin-top: -50px;""><div style=""display: flex; justify-content: space-between; margin-top: 33px;""><img src=""images/choice_trial_6.png"" style=""width: 408px; height: 417px; margin-right: 608px;""></div></div>",,delaylearn,learning,display_response,u6UTbErfmwVhi3hcQJ0yKiTfZ2W2,u6UTbErfmwVhi3hcQJ0yKiTfZ2W2,,,,,,,,,,,,,,,,,chosen stimuli: images/choice_trial_6.png,,,,,6599e58d1011e10041695c0a,09:05:20,27/02/2024
html-keyboard-response,93,178228,0.0-40.0-2.0,,,,delaylearn,learning,feedback_duration_window,u6UTbErfmwVhi3hcQJ0yKiTfZ2W2,u6UTbErfmwVhi3hcQJ0yKiTfZ2W2,,,,,,,,,,,,,,,,,,750.0,,,,6599e58d1011e10041695c0a,09:05:20,27/02/2024
html-keyboard-response,94,179733,0.0-40.0-3.0,,<div style='margin:auto;width: auto; font-size: 150%'><span style='font-weight: bold; font-size: 100px; color: red;'>0 points!</span><br><br></div>,,delaylearn,learning,feedback_image_window,u6UTbErfmwVhi3hcQJ0yKiTfZ2W2,u6UTbErfmwVhi3hcQJ0yKiTfZ2W2,,,,,,,,,,,,,,,,,,,,,,6599e58d1011e10041695c0a,09:05:20,27/02/2024
html-keyboard-response,95,181696,0.0-41.0,,"<div style=""font-size:100px;"">+</div>",,delaylearn,learning,ITI,u6UTbErfmwVhi3hcQJ0yKiTfZ2W2,u6UTbErfmwVhi3hcQJ0yKiTfZ2W2,,,,,,,,,,,,,,,,,,,1959.0,,,6599e58d1011e10041695c0a,09:05:20,27/02/2024
html-keyboard-response,96,183061,0.0-42.0-0.0,1360.1000001430511,"<div style=""display: flex; flex-direction: column; align-items: center; margin-top: -40px;""><img src=""images/pattern_1.png"" style=""width: 234px; height: 230px; margin-top: -50px;""><div style=""display: flex; justify-content: space-between; margin-top: 33px;""><img src=""images/choice_trial_14.png"" style=""width: 408px; height: 417px; margin-right: 200px;""><img src=""images/choice_trial_8.png"" style=""width: 408px; height: 417px;""></div></div>",f,delaylearn,learning,trial,u6UTbErfmwVhi3hcQJ0yKiTfZ2W2,u6UTbErfmwVhi3hcQJ0yKiTfZ2W2,3.0,images/choice_trial_14.png,images/choice_trial_8.png,images/pattern_1.png,f,f,7000.0,14.0,8.0,1.0,0.0,18.0,1.0,1.0,14.0,110.0,,,,,,6599e58d1011e10041695c0a,09:05:20,27/02/2024
html-keyboard-response,97,184066,0.0-42.0-1.0,,"<div style=""display: flex; flex-direction: column; align-items: center; margin-top: -40px;""><img src=""images/pattern_1.png"" style=""width: 234px; height: 230px; margin-top: -50px;""><div style=""display: flex; justify-content: space-between; margin-top: 33px;""><img src=""images/choice_trial_14.png"" style=""width: 408px; height: 417px; margin-right: 608px;""></div></div>",,delaylearn,learning,display_response,u6UTbErfmwVhi3hcQJ0yKiTfZ2W2,u6UTbErfmwVhi3hcQJ0yKiTfZ2W2,,,,,,,,,,,,,,,,,chosen stimuli: images/choice_trial_14.png,,,,,6599e58d1011e10041695c0a,09:05:20,27/02/2024
html-keyboard-response,98,191070,0.0-42.0-2.0,,,,delaylearn,learning,feedback_duration_window,u6UTbErfmwVhi3hcQJ0yKiTfZ2W2,u6UTbErfmwVhi3hcQJ0yKiTfZ2W2,,,,,,,,,,,,,,,,,,7000.0,,,,6599e58d1011e10041695c0a,09:05:20,27/02/2024
html-keyboard-response,99,192575,0.0-42.0-3.0,,<div style='margin:auto;width: auto; font-size: 150%'><span style='font-weight: bold; font-size: 100px; color: green;'>+10 points!</span><br><br></div>,,delaylearn,learning,feedback_image_window,u6UTbErfmwVhi3hcQJ0yKiTfZ2W2,u6UTbErfmwVhi3hcQJ0yKiTfZ2W2,,,,,,,,,,,,,,,,,,,,,,6599e58d1011e10041695c0a,09:05:20,27/02/2024
html-keyboard-response,100,195076,0.0-43.0,,"<div style=""font-size:100px;"">+</div>",,delaylearn,learning,ITI,u6UTbErfmwVhi3hcQJ0yKiTfZ2W2,u6UTbErfmwVhi3hcQJ0yKiTfZ2W2,,,,,,,,,,,,,,,,,,,2497.0,,,6599e58d1011e10041695c0a,09:05:20,27/02/2024
html-keyboard-response,101,196868,0.0-44.0-0.0,1787.4000000953674,"<div style=""display: flex; flex-direction: column; align-items: center; margin-top: -40px;""><img src=""images/pattern_6.png"" style=""width: 234px; height: 230px; margin-top: -50px;""><div style=""display: flex; justify-content: space-between; margin-top: 33px;""><img src=""images/choice_trial_3.png"" style=""width: 408px; height: 417px; margin-right: 200px;""><img src=""images/choice_trial_16.png"" style=""width: 408px; height: 417px;""></div></div>",j,delaylearn,learning,trial,u6UTbErfmwVhi3hcQJ0yKiTfZ2W2,u6UTbErfmwVhi3hcQJ0yKiTfZ2W2,3.0,images/choice_trial_3.png,images/choice_trial_16.png,images/pattern_6.png,j,j,750.0,3.0,16.0,5.0,1.0,19.0,1.0,1.0,16.0,120.0,,,,,,6599e58d1011e10041695c0a,09:05:20,27/02/2024
html-keyboard-response,102,197872,0.0-44.0-1.0,,"<div style=""display: flex; flex-direction: column; align-items: center; margin-top: -40px;""><img src=""images/pattern_6.png"" style=""width: 234px; height: 230px; margin-top: -50px;""><div style=""display: flex; justify-content: space-between; margin-top: 33px;""><img src=""images/choice_trial_16.png"" style=""width: 408px; height: 417px; margin-left:608px;""></div></div>",,delaylearn,learning,display_response,u6UTbErfmwVhi3hcQJ0yKiTfZ2W2,u6UTbErfmwVhi3hcQJ0yKiTfZ2W2,,,,,,,,,,,,,,,,,chosen stimuli: images/choice_trial_16.png,,,,,6599e58d1011e10041695c0a,09:05:20,27/02/2024
html-keyboard-response,103,198626,0.0-44.0-2.0,,,,delaylearn,learning,feedback_duration_window,u6UTbErfmwVhi3hcQJ0yKiTfZ2W2,u6UTbErfmwVhi3hcQJ0yKiTfZ2W2,,,,,,,,,,,,,,,,,,750.0,,,,6599e58d1011e10041695c0a,09:05:20,27/02/2024
html-keyboard-response,104,200130,0.0-44.0-3.0,,<div style='margin:auto;width: auto; font-size: 150%'><span style='font-weight: bold; font-size: 100px; color: green;'>+10 points!</span><br><br></div>,,delaylearn,learning,feedback_image_window,u6UTbErfmwVhi3hcQJ0yKiTfZ2W2,u6UTbErfmwVhi3hcQJ0yKiTfZ2W2,,,,,,,,,,,,,,,,,,,,,,6599e58d1011e10041695c0a,09:05:20,27/02/2024
html-keyboard-response,105,202411,0.0-45.0,,"<div style=""font-size:100px;"">+</div>",,delaylearn,learning,ITI,u6UTbErfmwVhi3hcQJ0yKiTfZ2W2,u6UTbErfmwVhi3hcQJ0yKiTfZ2W2,,,,,,,,,,,,,,,,,,,2277.0,,,6599e58d1011e10041695c0a,09:05:20,27/02/2024
html-keyboard-response,106,203904,0.0-46.0-0.0,1489.6000001430511,"<div style=""display: flex; flex-direction: column; align-items: center; margin-top: -40px;""><img src=""images/pattern_4.png"" style=""width: 234px; height: 230px; margin-top: -50px;""><div style=""display: flex; justify-content: space-between; margin-top: 33px;""><img src=""images/choice_trial_15.png"" style=""width: 408px; height: 417px; margin-right: 200px;""><img src=""images/choice_trial_9.png"" style=""width: 408px; height: 417px;""></div></div>",f,delaylearn,learning,trial,u6UTbErfmwVhi3hcQJ0yKiTfZ2W2,u6UTbErfmwVhi3hcQJ0yKiTfZ2W2,3.0,images/choice_trial_15.png,images/choice_trial_9.png,images/pattern_4.png,f,f,7000.0,15.0,9.0,3.0,0.0,20.0,1.0,1.0,15.0,130.0,,,,,,6599e58d1011e10041695c0a,09:05:20,27/02/2024
html-keyboard-response,107,204908,0.0-46.0-1.0,,"<div style=""display: flex; flex-direction: column; align-items: center; margin-top: -40px;""><img src=""images/pattern_4.png"" style=""width: 234px; height: 230px; margin-top: -50px;""><div style=""display: flex; justify-content: space-between; margin-top: 33px;""><img src=""images/choice_trial_15.png"" style=""width: 408px; height: 417px; margin-right: 608px;""></div></div>",,delaylearn,learning,display_response,u6UTbErfmwVhi3hcQJ0yKiTfZ2W2,u6UTbErfmwVhi3hcQJ0yKiTfZ2W2,,,,,,,,,,,,,,,,,chosen stimuli: images/choice_trial_15.png,,,,,6599e58d1011e10041695c0a,09:05:20,27/02/2024
html-keyboard-response,108,211912,0.0-46.0-2.0,,,,delaylearn,learning,feedback_duration_window,u6UTbErfmwVhi3hcQJ0yKiTfZ2W2,u6UTbErfmwVhi3hcQJ0yKiTfZ2W2,,,,,,,,,,,,,,,,,,7000.0,,,,6599e58d1011e10041695c0a,09:05:20,27/02/2024
html-keyboard-response,109,213417,0.0-46.0-3.0,,<div style='margin:auto;width: auto; font-size: 150%'><span style='font-weight: bold; font-size: 100px; color: green;'>+10 points!</span><br><br></div>,,delaylearn,learning,feedback_image_window,u6UTbErfmwVhi3hcQJ0yKiTfZ2W2,u6UTbErfmwVhi3hcQJ0yKiTfZ2W2,,,,,,,,,,,,,,,,,,,,,,6599e58d1011e10041695c0a,09:05:20,27/02/2024
html-keyboard-response,110,213920,0.0-47.0-0.0,,,,,,mood_trial_fixation,u6UTbErfmwVhi3hcQJ0yKiTfZ2W2,,,,,,,,,,,,,,,,,,,,,,,6599e58d1011e10041695c0a,09:05:20,27/02/2024
lmdlab-html-vas-response,111,217574,0.0-47.0-1.0,2646.0,How happy are you right now?,0.7945464065255732,delaylearn,learning,mood_trial,u6UTbErfmwVhi3hcQJ0yKiTfZ2W2,u6UTbErfmwVhi3hcQJ0yKiTfZ2W2,,,,,,,,,,,,,,,,,,,,"['Very unhappy', 'Very happy']",,6599e58d1011e10041695c0a,09:05:20,27/02/2024
html-keyboard-response,112,219584,0.0-48.0,,"<div style=""font-size:100px;"">+</div>",,delaylearn,learning,ITI,u6UTbErfmwVhi3hcQJ0yKiTfZ2W2,u6UTbErfmwVhi3hcQJ0yKiTfZ2W2,,,,,,,,,,,,,,,,,,,2007.0,,,6599e58d1011e10041695c0a,09:05:20,27/02/2024
html-keyboard-response,113,220956,0.0-49.0-0.0,1367.0,"<div style=""display: flex; flex-direction: column; align-items: center; margin-top: -40px;""><img src=""images/pattern_7.png"" style=""width: 234px; height: 230px; margin-top: -50px;""><div style=""display: flex; justify-content: space-between; margin-top: 33px;""><img src=""images/choice_trial_12.png"" style=""width: 408px; height: 417px; margin-right: 200px;""><img src=""images/choice_trial_6.png"" style=""width: 408px; height: 417px;""></div></div>",j,delaylearn,learning,trial,u6UTbErfmwVhi3hcQJ0yKiTfZ2W2,u6UTbErfmwVhi3hcQJ0yKiTfZ2W2,3.0,images/choice_trial_12.png,images/choice_trial_6.png,images/pattern_7.png,j,j,750.0,12.0,6.0,6.0,1.0,21.0,1.0,1.0,6.0,140.0,,,,,,6599e58d1011e10041695c0a,09:05:20,27/02/2024
html-keyboard-response,114,221962,0.0-49.0-1.0,,"<div style=""display: flex; flex-direction: column; align-items: center; margin-top: -40px;""><img src=""images/pattern_7.png"" style=""width: 234px; height: 230px; margin-top: -50px;""><div style=""display: flex; justify-content: space-between; margin-top: 33px;""><img src=""images/choice_trial_6.png"" style=""width: 408px; height: 417px; margin-left:608px;""></div></div>",,delaylearn,learning,display_response,u6UTbErfmwVhi3hcQJ0yKiTfZ2W2,u6UTbErfmwVhi3hcQJ0yKiTfZ2W2,,,,,,,,,,,,,,,,,chosen stimuli: images/choice_trial_6.png,,,,,6599e58d1011e10041695c0a,09:05:20,27/02/2024
html-keyboard-response,115,222715,0.0-49.0-2.0,,,,delaylearn,learning,feedback_duration_window,u6UTbErfmwVhi3hcQJ0yKiTfZ2W2,u6UTbErfmwVhi3hcQJ0yKiTfZ2W2,,,,,,,,,,,,,,,,,,750.0,,,,6599e58d1011e10041695c0a,09:05:20,27/02/2024
html-keyboard-response,116,224220,0.0-49.0-3.0,,<div style='margin:auto;width: auto; font-size: 150%'><span style='font-weight: bold; font-size: 100px; color: green;'>+10 points!</span><br><br></div>,,delaylearn,learning,feedback_image_window,u6UTbErfmwVhi3hcQJ0yKiTfZ2W2,u6UTbErfmwVhi3hcQJ0yKiTfZ2W2,,,,,,,,,,,,,,,,,,,,,,6599e58d1011e10041695c0a,09:05:20,27/02/2024
html-keyboard-response,117,226469,0.0-50.0,,"<div style=""font-size:100px;"">+</div>",,delaylearn,learning,ITI,u6UTbErfmwVhi3hcQJ0yKiTfZ2W2,u6UTbErfmwVhi3hcQJ0yKiTfZ2W2,,,,,,,,,,,,,,,,,,,2245.0,,,6599e58d1011e10041695c0a,09:05:20,27/02/2024
html-keyboard-response,118,227819,0.0-51.0-0.0,1346.3999998569489,"<div style=""display: flex; flex-direction: column; align-items: center; margin-top: -40px;""><img src=""images/pattern_1.png"" style=""width: 234px; height: 230px; margin-top: -50px;""><div style=""display: flex; justify-content: space-between; margin-top: 33px;""><img src=""images/choice_trial_8.png"" style=""width: 408px; height: 417px; margin-right: 200px;""><img src=""images/choice_trial_14.png"" style=""width: 408px; height: 417px;""></div></div>",j,delaylearn,learning,trial,u6UTbErfmwVhi3hcQJ0yKiTfZ2W2,u6UTbErfmwVhi3hcQJ0yKiTfZ2W2,3.0,images/choice_trial_8.png,images/choice_trial_14.png,images/pattern_1.png,f,j,7000.0,8.0,14.0,1.0,1.0,22.0,1.0,0.0,14.0,140.0,,,,,,6599e58d1011e10041695c0a,09:05:20,27/02/2024
html-keyboard-response,119,228824,0.0-51.0-1.0,,"<div style=""display: flex; flex-direction: column; align-items: center; margin-top: -40px;""><img src=""images/pattern_1.png"" style=""width: 234px; height: 230px; margin-top: -50px;""><div style=""display: flex; justify-content: space-between; margin-top: 33px;""><img src=""images/choice_trial_14.png"" style=""width: 408px; height: 417px; margin-left:608px;""></div></div>",,delaylearn,learning,display_response,u6UTbErfmwVhi3hcQJ0yKiTfZ2W2,u6UTbErfmwVhi3hcQJ0yKiTfZ2W2,,,,,,,,,,,,,,,,,chosen stimuli: images/choice_trial_14.png,,,,,6599e58d1011e10041695c0a,09:05:20,27/02/2024
html-keyboard-response,120,235828,0.0-51.0-2.0,,,,delaylearn,learning,feedback_duration_window,u6UTbErfmwVhi3hcQJ0yKiTfZ2W2,u6UTbErfmwVhi3hcQJ0yKiTfZ2W2,,,,,,,,,,,,,,,,,,7000.0,,,,6599e58d1011e10041695c0a,09:05:20,27/02/2024
html-keyboard-response,121,237332,0.0-51.0-3.0,,<div style='margin:auto;width: auto; font-size: 150%'><span style='font-weight: bold; font-size: 100px; color: red;'>0 points!</span><br><br></div>,,delaylearn,learning,feedback_image_window,u6UTbErfmwVhi3hcQJ0yKiTfZ2W2,u6UTbErfmwVhi3hcQJ0yKiTfZ2W2,,,,,,,,,,,,,,,,,,,,,,6599e58d1011e10041695c0a,09:05:20,27/02/2024
html-keyboard-response,122,239226,0.0-52.0,,"<div style=""font-size:100px;"">+</div>",,delaylearn,learning,ITI,u6UTbErfmwVhi3hcQJ0yKiTfZ2W2,u6UTbErfmwVhi3hcQJ0yKiTfZ2W2,,,,,,,,,,,,,,,,,,,1890.0,,,6599e58d1011e10041695c0a,09:05:20,27/02/2024
html-keyboard-response,123,240869,0.0-53.0-0.0,1638.7999999523163,"<div style=""display: flex; flex-direction: column; align-items: center; margin-top: -40px;""><img src=""images/pattern_5.png"" style=""width: 234px; height: 230px; margin-top: -50px;""><div style=""display: flex; justify-content: space-between; margin-top: 33px;""><img src=""images/choice_trial_2.png"" style=""width: 408px; height: 417px; margin-right: 200px;""><img src=""images/choice_trial_11.png"" style=""width: 408px; height: 417px;""></div></div>",f,delaylearn,learning,trial,u6UTbErfmwVhi3hcQJ0yKiTfZ2W2,u6UTbErfmwVhi3hcQJ0yKiTfZ2W2,3.0,images/choice_trial_2.png,images/choice_trial_11.png,images/pattern_5.png,j,j,750.0,2.0,11.0,4.0,1.0,23.0,0.0,0.0,2.0,140.0,,,,,,6599e58d1011e10041695c0a,09:05:20,27/02/2024
html-keyboard-response,124,241873,0.0-53.0-1.0,,"<div style=""display: flex; flex-direction: column; align-items: center; margin-top: -40px;""><img src=""images/pattern_5.png"" style=""width: 234px; height: 230px; margin-top: -50px;""><div style=""display: flex; justify-content: space-between; margin-top: 33px;""><img src=""images/choice_trial_2.png"" style=""width: 408px; height: 417px; margin-right: 608px;""></div></div>",,delaylearn,learning,display_response,u6UTbErfmwVhi3hcQJ0yKiTfZ2W2,u6UTbErfmwVhi3hcQJ0yKiTfZ2W2,,,,,,,,,,,,,,,,,chosen stimuli: images/choice_trial_2.png,,,,,6599e58d1011e10041695c0a,09:05:20,27/02/2024
html-keyboard-response,125,242627,0.0-53.0-2.0,,,,delaylearn,learning,feedback_duration_window,u6UTbErfmwVhi3hcQJ0yKiTfZ2W2,u6UTbErfmwVhi3hcQJ0yKiTfZ2W2,,,,,,,,,,,,,,,,,,750.0,,,,6599e58d1011e10041695c0a,09:05:20,27/02/2024
html-keyboard-response,126,244131,0.0-53.0-3.0,,<div style='margin:auto;width: auto; font-size: 150%'><span style='font-weight: bold; font-size: 100px; color: red;'>0 points!</span><br><br></div>,,delaylearn,learning,feedback_image_window,u6UTbErfmwVhi3hcQJ0yKiTfZ2W2,u6UTbErfmwVhi3hcQJ0yKiTfZ2W2,,,,,,,,,,,,,,,,,,,,,,6599e58d1011e10041695c0a,09:05:20,27/02/2024
html-keyboard-response,127,245639,0.0-54.0,,"<div style=""font-size:100px;"">+</div>",,delaylearn,learning,ITI,u6UTbErfmwVhi3hcQJ0yKiTfZ2W2,u6UTbErfmwVhi3hcQJ0yKiTfZ2W2,,,,,,,,,,,,,,,,,,,1504.0,,,6599e58d1011e10041695c0a,09:05:20,27/02/2024
html-keyboard-response,128,246833,0.0-55.0-0.0,1188.6000001430511,"<div style=""display: flex; flex-direction: column; align-items: center; margin-top: -40px;""><img src=""images/pattern_3.png"" style=""width: 234px; height: 230px; margin-top: -50px;""><div style=""display: flex; justify-content: space-between; margin-top: 33px;""><img src=""images/choice_trial_10.png"" style=""width: 408px; height: 417px; margin-right: 200px;""><img src=""images/choice_trial_13.png"" style=""width: 408px; height: 417px;""></div></div>",f,delaylearn,learning,trial,u6UTbErfmwVhi3hcQJ0yKiTfZ2W2,u6UTbErfmwVhi3hcQJ0yKiTfZ2W2,3.0,images/choice_trial_10.png,images/choice_trial_13.png,images/pattern_3.png,j,j,7000.0,10.0,13.0,2.0,1.0,24.0,0.0,0.0,10.0,140.0,,,,,,6599e58d1011e10041695c0a,09:05:20,27/02/2024
html-keyboard-response,129,247837,0.0-55.0-1.0,,"<div style=""display: flex; flex-direction: column; align-items: center; margin-top: -40px;""><img src=""images/pattern_3.png"" style=""width: 234px; height: 230px; margin-top: -50px;""><div style=""display: flex; justify-content: space-between; margin-top: 33px;""><img src=""images/choice_trial_10.png"" style=""width: 408px; height: 417px; margin-right: 608px;""></div></div>",,delaylearn,learning,display_response,u6UTbErfmwVhi3hcQJ0yKiTfZ2W2,u6UTbErfmwVhi3hcQJ0yKiTfZ2W2,,,,,,,,,,,,,,,,,chosen stimuli: images/choice_trial_10.png,,,,,6599e58d1011e10041695c0a,09:05:20,27/02/2024
html-keyboard-response,130,254841,0.0-55.0-2.0,,,,delaylearn,learning,feedback_duration_window,u6UTbErfmwVhi3hcQJ0yKiTfZ2W2,u6UTbErfmwVhi3hcQJ0yKiTfZ2W2,,,,,,,,,,,,,,,,,,7000.0,,,,6599e58d1011e10041695c0a,09:05:20,27/02/2024
html-keyboard-response,131,256345,0.0-55.0-3.0,,<div style='margin:auto;width: auto; font-size: 150%'><span style='font-weight: bold; font-size: 100px; color: red;'>0 points!</span><br><br></div>,,delaylearn,learning,feedback_image_window,u6UTbErfmwVhi3hcQJ0yKiTfZ2W2,u6UTbErfmwVhi3hcQJ0yKiTfZ2W2,,,,,,,,,,,,,,,,,,,,,,6599e58d1011e10041695c0a,09:05:20,27/02/2024
lmdlab-html-vas-response,132,264231,0.0-56.0-0.0,6375.0,*How <b><u>confident</u></b> are you feeling about your answers at this moment?*,0.0255869708994709,rewlearn,rate_confidence,,u6UTbErfmwVhi3hcQJ0yKiTfZ2W2,u6UTbErfmwVhi3hcQJ0yKiTfZ2W2,,,,,,,,,,,,,,,,,,,,"['No confidence', 'Complete confidence']",,6599e58d1011e10041695c0a,09:05:20,27/02/2024
lmdlab-rest-trial-limit,133,274789,0.0-56.0-1.0,9051.900000095367,"<div style=""font-size:40px;""><b>Please take a break!</b><br><br><br><br><p>Great work: you earned undefined points.<br><br><br><p>You have completed part(s) 1 of 6.<br><br><br><br>When you are ready to continue<br><br><br>please click the button.</p><br><br>",0,delaylearn,learning,break,u6UTbErfmwVhi3hcQJ0yKiTfZ2W2,u6UTbErfmwVhi3hcQJ0yKiTfZ2W2,,,,,,,,,,,,,,,,,,,,,0.0,6599e58d1011e10041695c0a,09:05:20,27/02/2024
html-keyboard-response,134,277794,0.0-56.0-2.0,,"<div style=""font-size:100px;"">+</div>",,delaylearn,learning,pre_fixation,u6UTbErfmwVhi3hcQJ0yKiTfZ2W2,,,,,,,,,,,,,,,,,,,,,,,6599e58d1011e10041695c0a,09:05:20,27/02/2024
lmdlab-html-vas-response,135,281223,0.0-56.0-3.0-0.0,2422.0,How happy are you right now?,0.6234705687830688,delaylearn,learning,mood_baseline,u6UTbErfmwVhi3hcQJ0yKiTfZ2W2,u6UTbErfmwVhi3hcQJ0yKiTfZ2W2,,,,,,,,,,,,,,,,,,,,"['Very unhappy', 'Very happy']",,6599e58d1011e10041695c0a,09:05:20,27/02/2024
html-keyboard-response,136,282726,0.0-56.0-3.0-1.0,,,,,,mood_baseline_fixation,u6UTbErfmwVhi3hcQJ0yKiTfZ2W2,,,,,,,,,,,,,,,,,,,,,,,6599e58d1011e10041695c0a,09:05:20,27/02/2024
html-keyboard-response,137,285082,0.0-57.0,,"<div style=""font-size:100px;"">+</div>",,delaylearn,learning,ITI,u6UTbErfmwVhi3hcQJ0yKiTfZ2W2,u6UTbErfmwVhi3hcQJ0yKiTfZ2W2,,,,,,,,,,,,,,,,,,,2352.0,,,6599e58d1011e10041695c0a,09:05:20,27/02/2024
html-keyboard-response,138,286140,0.0-58.0-0.0,1051.8999998569489,"<div style=""display: flex; flex-direction: column; align-items: center; margin-top: -40px;""><img src=""images/pattern_7.png"" style=""width: 234px; height: 230px; margin-top: -50px;""><div style=""display: flex; justify-content: space-between; margin-top: 33px;""><img src=""images/choice_trial_12.png"" style=""width: 408px; height: 417px; margin-right: 200px;""><img src=""images/choice_trial_6.png"" style=""width: 408px; height: 417px;""></div></div>",j,delaylearn,learning,trial,u6UTbErfmwVhi3hcQJ0yKiTfZ2W2,u6UTbErfmwVhi3hcQJ0yKiTfZ2W2,3.0,images/choice_trial_12.png,images/choice_trial_6.png,images/pattern_7.png,j,j,750.0,12.0,6.0,6.0,1.0,25.0,1.0,1.0,6.0,150.0,,,,,,6599e58d1011e10041695c0a,09:05:20,27/02/2024
html-keyboard-response,139,287144,0.0-58.0-1.0,,"<div style=""display: flex; flex-direction: column; align-items: center; margin-top: -40px;""><img src=""images/pattern_7.png"" style=""width: 234px; height: 230px; margin-top: -50px;""><div style=""display: flex; justify-content: space-between; margin-top: 33px;""><img src=""images/choice_trial_6.png"" style=""width: 408px; height: 417px; margin-left:608px;""></div></div>",,delaylearn,learning,display_response,u6UTbErfmwVhi3hcQJ0yKiTfZ2W2,u6UTbErfmwVhi3hcQJ0yKiTfZ2W2,,,,,,,,,,,,,,,,,chosen stimuli: images/choice_trial_6.png,,,,,6599e58d1011e10041695c0a,09:05:20,27/02/2024
html-keyboard-response,140,287898,0.0-58.0-2.0,,,,delaylearn,learning,feedback_duration_window,u6UTbErfmwVhi3hcQJ0yKiTfZ2W2,u6UTbErfmwVhi3hcQJ0yKiTfZ2W2,,,,,,,,,,,,,,,,,,750.0,,,,6599e58d1011e10041695c0a,09:05:20,27/02/2024
html-keyboard-response,141,289403,0.0-58.0-3.0,,<div style='margin:auto;width: auto; font-size: 150%'><span style='font-weight: bold; font-size: 100px; color: green;'>+10 points!</span><br><br></div>,,delaylearn,learning,feedback_image_window,u6UTbErfmwVhi3hcQJ0yKiTfZ2W2,u6UTbErfmwVhi3hcQJ0yKiTfZ2W2,,,,,,,,,,,,,,,,,,,,,,6599e58d1011e10041695c0a,09:05:20,27/02/2024
html-keyboard-response,142,289906,0.0-59.0-0.0,,,,,,mood_trial_fixation,u6UTbErfmwVhi3hcQJ0yKiTfZ2W2,,,,,,,,,,,,,,,,,,,,,,,6599e58d1011e10041695c0a,09:05:20,27/02/2024
lmdlab-html-vas-response,143,293426,0.0-59.0-1.0,2512.0,How happy are you right now?,0.753982032627866,delaylearn,learning,mood_trial,u6UTbErfmwVhi3hcQJ0yKiTfZ2W2,u6UTbErfmwVhi3hcQJ0yKiTfZ2W2,,,,,,,,,,,,,,,,,,,,"['Very unhappy', 'Very happy']",,6599e58d1011e10041695c0a,09:05:20,27/02/2024
html-keyboard-response,144,295108,0.0-60.0,,"<div style=""font-size:100px;"">+</div>",,delaylearn,learning,ITI,u6UTbErfmwVhi3hcQJ0yKiTfZ2W2,u6UTbErfmwVhi3hcQJ0yKiTfZ2W2,,,,,,,,,,,,,,,,,,,1679.0,,,6599e58d1011e10041695c0a,09:05:20,27/02/2024
html-keyboard-response,145,295860,0.0-61.0-0.0,747.4000000953674,"<div style=""display: flex; flex-direction: column; align-items: center; margin-top: -40px;""><img src=""images/pattern_1.png"" style=""width: 234px; height: 230px; margin-top: -50px;""><div style=""display: flex; justify-content: space-between; margin-top: 33px;""><img src=""images/choice_trial_14.png"" style=""width: 408px; height: 417px; margin-right: 200px;""><img src=""images/choice_trial_8.png"" style=""width: 408px; height: 417px;""></div></div>",f,delaylearn,learning,trial,u6UTbErfmwVhi3hcQJ0yKiTfZ2W2,u6UTbErfmwVhi3hcQJ0yKiTfZ2W2,3.0,images/choice_trial_14.png,images/choice_trial_8.png,images/pattern_1.png,f,f,7000.0,14.0,8.0,1.0,0.0,26.0,1.0,1.0,14.0,160.0,,,,,,6599e58d1011e10041695c0a,09:05:20,27/02/2024
html-keyboard-response,146,296866,0.0-61.0-1.0,,"<div style=""display: flex; flex-direction: column; align-items: center; margin-top: -40px;""><img src=""images/pattern_1.png"" style=""width: 234px; height: 230px; margin-top: -50px;""><div style=""display: flex; justify-content: space-between; margin-top: 33px;""><img src=""images/choice_trial_14.png"" style=""width: 408px; height: 417px; margin-right: 608px;""></div></div>",,delaylearn,learning,display_response,u6UTbErfmwVhi3hcQJ0yKiTfZ2W2,u6UTbErfmwVhi3hcQJ0yKiTfZ2W2,,,,,,,,,,,,,,,,,chosen stimuli: images/choice_trial_14.png,,,,,6599e58d1011e10041695c0a,09:05:20,27/02/2024
html-keyboard-response,147,303870,0.0-61.0-2.0,,,,delaylearn,learning,feedback_duration_window,u6UTbErfmwVhi3hcQJ0yKiTfZ2W2,u6UTbErfmwVhi3hcQJ0yKiTfZ2W2,,,,,,,,,,,,,,,,,,7000.0,,,,6599e58d1011e10041695c0a,09:05:20,27/02/2024
html-keyboard-response,148,305374,0.0-61.0-3.0,,<div style='margin:auto;width: auto; font-size: 150%'><span style='font-weight: bold; font-size: 100px; color: green;'>+10 points!</span><br><br></div>,,delaylearn,learning,feedback_image_window,u6UTbErfmwVhi3hcQJ0yKiTfZ2W2,u6UTbErfmwVhi3hcQJ0yKiTfZ2W2,,,,,,,,,,,,,,,,,,,,,,6599e58d1011e10041695c0a,09:05:20,27/02/2024
html-keyboard-response,149,307383,0.0-62.0,,"<div style=""font-size:100px;"">+</div>",,delaylearn,learning,ITI,u6UTbErfmwVhi3hcQJ0yKiTfZ2W2,u6UTbErfmwVhi3hcQJ0yKiTfZ2W2,,,,,,,,,,,,,,,,,,,2005.0,,,6599e58d1011e10041695c0a,09:05:20,27/02/2024
html-keyboard-response,150,309069,0.0-63.0-0.0,1680.2999999523163,"<div style=""display: flex; flex-direction: column; align-items: center; margin-top: -40px;""><img src=""images/pattern_5.png"" style=""width: 234px; height: 230px; margin-top: -50px;""><div style=""display: flex; justify-content: space-between; margin-top: 33px;""><img src=""images/choice_trial_11.png"" style=""width: 408px; height: 417px; margin-right: 200px;""><img src=""images/choice_trial_2.png"" style=""width: 408px; height: 417px;""></div></div>",j,delaylearn,learning,trial,u6UTbErfmwVhi3hcQJ0yKiTfZ2W2,u6UTbErfmwVhi3hcQJ0yKiTfZ2W2,3.0,images/choice_trial_11.png,images/choice_trial_2.png,images/pattern_5.png,f,f,750.0,11.0,2.0,4.0,0.0,27.0,0.0,0.0,2.0,160.0,,,,,,6599e58d1011e10041695c0a,09:05:20,27/02/2024
html-keyboard-response,151,310073,0.0-63.0-1.0,,"<div style=""display: flex; flex-direction: column; align-items: center; margin-top: -40px;""><img src=""images/pattern_5.png"" style=""width: 234px; height: 230px; margin-top: -50px;""><div style=""display: flex; justify-content: space-between; margin-top: 33px;""><img src=""images/choice_trial_2.png"" style=""width: 408px; height: 417px; margin-left:608px;""></div></div>",,delaylearn,learning,display_response,u6UTbErfmwVhi3hcQJ0yKiTfZ2W2,u6UTbErfmwVhi3hcQJ0yKiTfZ2W2,,,,,,,,,,,,,,,,,chosen stimuli: images/choice_trial_2.png,,,,,6599e58d1011e10041695c0a,09:05:20,27/02/2024
html-keyboard-response,152,310827,0.0-63.0-2.0,,,,delaylearn,learning,feedback_duration_window,u6UTbErfmwVhi3hcQJ0yKiTfZ2W2,u6UTbErfmwVhi3hcQJ0yKiTfZ2W2,,,,,,,,,,,,,,,,,,750.0,,,,6599e58d1011e10041695c0a,09:05:20,27/02/2024
html-keyboard-response,153,312331,0.0-63.0-3.0,,<div style='margin:auto;width: auto; font-size: 150%'><span style='font-weight: bold; font-size: 100px; color: red;'>0 points!</span><br><br></div>,,delaylearn,learning,feedback_image_window,u6UTbErfmwVhi3hcQJ0yKiTfZ2W2,u6UTbErfmwVhi3hcQJ0yKiTfZ2W2,,,,,,,,,,,,,,,,,,,,,,6599e58d1011e10041695c0a,09:05:20,27/02/2024
html-keyboard-response,154,313837,0.0-64.0,,"<div style=""font-size:100px;"">+</div>",,delaylearn,learning,ITI,u6UTbErfmwVhi3hcQJ0yKiTfZ2W2,u6UTbErfmwVhi3hcQJ0yKiTfZ2W2,,,,,,,,,,,,,,,,,,,1503.0,,,6599e58d1011e10041695c0a,09:05:20,27/02/2024
html-keyboard-response,155,314863,0.0-65.0-0.0,1021.0,"<div style=""display: flex; flex-direction: column; align-items: center; margin-top: -40px;""><img src=""images/pattern_6.png"" style=""width: 234px; height: 230px; margin-top: -50px;""><div style=""display: flex; justify-content: space-between; margin-top: 33px;""><img src=""images/choice_trial_3.png"" style=""width: 408px; height: 417px; margin-right: 200px;""><img src=""images/choice_trial_16.png"" style=""width: 408px; height: 417px;""></div></div>",j,delaylearn,learning,trial,u6UTbErfmwVhi3hcQJ0yKiTfZ2W2,u6UTbErfmwVhi3hcQJ0yKiTfZ2W2,3.0,images/choice_trial_3.png,images/choice_trial_16.png,images/pattern_6.png,j,j,750.0,3.0,16.0,5.0,1.0,28.0,1.0,1.0,16.0,170.0,,,,,,6599e58d1011e10041695c0a,09:05:20,27/02/2024
html-keyboard-response,156,315867,0.0-65.0-1.0,,"<div style=""display: flex; flex-direction: column; align-items: center; margin-top: -40px;""><img src=""images/pattern_6.png"" style=""width: 234px; height: 230px; margin-top: -50px;""><div style=""display: flex; justify-content: space-between; margin-top: 33px;""><img src=""images/choice_trial_16.png"" style=""width: 408px; height: 417px; margin-left:608px;""></div></div>",,delaylearn,learning,display_response,u6UTbErfmwVhi3hcQJ0yKiTfZ2W2,u6UTbErfmwVhi3hcQJ0yKiTfZ2W2,,,,,,,,,,,,,,,,,chosen stimuli: images/choice_trial_16.png,,,,,6599e58d1011e10041695c0a,09:05:20,27/02/2024
html-keyboard-response,157,316620,0.0-65.0-2.0,,,,delaylearn,learning,feedback_duration_window,u6UTbErfmwVhi3hcQJ0yKiTfZ2W2,u6UTbErfmwVhi3hcQJ0yKiTfZ2W2,,,,,,,,,,,,,,,,,,750.0,,,,6599e58d1011e10041695c0a,09:05:20,27/02/2024
html-keyboard-response,158,318124,0.0-65.0-3.0,,<div style='margin:auto;width: auto; font-size: 150%'><span style='font-weight: bold; font-size: 100px; color: green;'>+10 points!</span><br><br></div>,,delaylearn,learning,feedback_image_window,u6UTbErfmwVhi3hcQJ0yKiTfZ2W2,u6UTbErfmwVhi3hcQJ0yKiTfZ2W2,,,,,,,,,,,,,,,,,,,,,,6599e58d1011e10041695c0a,09:05:20,27/02/2024
html-keyboard-response,159,318628,0.0-66.0-0.0,,,,,,mood_trial_fixation,u6UTbErfmwVhi3hcQJ0yKiTfZ2W2,,,,,,,,,,,,,,,,,,,,,,,6599e58d1011e10041695c0a,09:05:20,27/02/2024
lmdlab-html-vas-response,160,322341,0.0-66.0-1.0,2704.0,How happy are you right now?,0.699308311287478,delaylearn,learning,mood_trial,u6UTbErfmwVhi3hcQJ0yKiTfZ2W2,u6UTbErfmwVhi3hcQJ0yKiTfZ2W2,,,,,,,,,,,,,,,,,,,,"['Very unhappy', 'Very happy']",,6599e58d1011e10041695c0a,09:05:20,27/02/2024
html-keyboard-response,161,324676,0.0-67.0,,"<div style=""font-size:100px;"">+</div>",,delaylearn,learning,ITI,u6UTbErfmwVhi3hcQJ0yKiTfZ2W2,u6UTbErfmwVhi3hcQJ0yKiTfZ2W2,,,,,,,,,,,,,,,,,,,2332.0,,,6599e58d1011e10041695c0a,09:05:20,27/02/2024
html-keyboard-response,162,325770,0.0-68.0-0.0,1088.7999999523163,"<div style=""display: flex; flex-direction: column; align-items: center; margin-top: -40px;""><img src=""images/pattern_4.png"" style=""width: 234px; height: 230px; margin-top: -50px;""><div style=""display: flex; justify-content: space-between; margin-top: 33px;""><img src=""images/choice_trial_9.png"" style=""width: 408px; height: 417px; margin-right: 200px;""><img src=""images/choice_trial_15.png"" style=""width: 408px; height: 417px;""></div></div>",j,delaylearn,learning,trial,u6UTbErfmwVhi3hcQJ0yKiTfZ2W2,u6UTbErfmwVhi3hcQJ0yKiTfZ2W2,3.0,images/choice_trial_9.png,images/choice_trial_15.png,images/pattern_4.png,j,j,7000.0,9.0,15.0,3.0,1.0,29.0,1.0,1.0,15.0,180.0,,,,,,6599e58d1011e10041695c0a,09:05:20,27/02/2024
html-keyboard-response,163,326773,0.0-68.0-1.0,,"<div style=""display: flex; flex-direction: column; align-items: center; margin-top: -40px;""><img src=""images/pattern_4.png"" style=""width: 234px; height: 230px; margin-top: -50px;""><div style=""display: flex; justify-content: space-between; margin-top: 33px;""><img src=""images/choice_trial_15.png"" style=""width: 408px; height: 417px; margin-left:608px;""></div></div>",,delaylearn,learning,display_response,u6UTbErfmwVhi3hcQJ0yKiTfZ2W2,u6UTbErfmwVhi3hcQJ0yKiTfZ2W2,,,,,,,,,,,,,,,,,chosen stimuli: images/choice_trial_15.png,,,,,6599e58d1011e10041695c0a,09:05:20,27/02/2024
html-keyboard-response,164,333777,0.0-68.0-2.0,,,,delaylearn,learning,feedback_duration_window,u6UTbErfmwVhi3hcQJ0yKiTfZ2W2,u6UTbErfmwVhi3hcQJ0yKiTfZ2W2,,,,,,,,,,,,,,,,,,7000.0,,,,6599e58d1011e10041695c0a,09:05:20,27/02/2024
html-keyboard-response,165,335282,0.0-68.0-3.0,,<div style='margin:auto;width: auto; font-size: 150%'><span style='font-weight: bold; font-size: 100px; color: green;'>+10 points!</span><br><br></div>,,delaylearn,learning,feedback_image_window,u6UTbErfmwVhi3hcQJ0yKiTfZ2W2,u6UTbErfmwVhi3hcQJ0yKiTfZ2W2,,,,,,,,,,,,,,,,,,,,,,6599e58d1011e10041695c0a,09:05:20,27/02/2024
html-keyboard-response,166,337237,0.0-69.0,,"<div style=""font-size:100px;"">+</div>",,delaylearn,learning,ITI,u6UTbErfmwVhi3hcQJ0yKiTfZ2W2,u6UTbErfmwVhi3hcQJ0yKiTfZ2W2,,,,,,,,,,,,,,,,,,,1951.0,,,6599e58d1011e10041695c0a,09:05:20,27/02/2024
html-keyboard-response,167,338494,0.0-70.0-0.0,1252.2000000476837,"<div style=""display: flex; flex-direction: column; align-items: center; margin-top: -40px;""><img src=""images/pattern_3.png"" style=""width: 234px; height: 230px; margin-top: -50px;""><div style=""display: flex; justify-content: space-between; margin-top: 33px;""><img src=""images/choice_trial_10.png"" style=""width: 408px; height: 417px; margin-right: 200px;""><img src=""images/choice_trial_13.png"" style=""width: 408px; height: 417px;""></div></div>",f,delaylearn,learning,trial,u6UTbErfmwVhi3hcQJ0yKiTfZ2W2,u6UTbErfmwVhi3hcQJ0yKiTfZ2W2,3.0,images/choice_trial_10.png,images/choice_trial_13.png,images/pattern_3.png,j,j,7000.0,10.0,13.0,2.0,1.0,30.0,0.0,0.0,10.0,180.0,,,,,,6599e58d1011e10041695c0a,09:05:20,27/02/2024
html-keyboard-response,168,339498,0.0-70.0-1.0,,"<div style=""display: flex; flex-direction: column; align-items: center; margin-top: -40px;""><img src=""images/pattern_3.png"" style=""width: 234px; height: 230px; margin-top: -50px;""><div style=""display: flex; justify-content: space-between; margin-top: 33px;""><img src=""images/choice_trial_10.png"" style=""width: 408px; height: 417px; margin-right: 608px;""></div></div>",,delaylearn,learning,display_response,u6UTbErfmwVhi3hcQJ0yKiTfZ2W2,u6UTbErfmwVhi3hcQJ0yKiTfZ2W2,,,,,,,,,,,,,,,,,chosen stimuli: images/choice_trial_10.png,,,,,6599e58d1011e10041695c0a,09:05:20,27/02/2024
html-keyboard-response,169,346502,0.0-70.0-2.0,,,,delaylearn,learning,feedback_duration_window,u6UTbErfmwVhi3hcQJ0yKiTfZ2W2,u6UTbErfmwVhi3hcQJ0yKiTfZ2W2,,,,,,,,,,,,,,,,,,7000.0,,,,6599e58d1011e10041695c0a,09:05:20,27/02/2024
html-keyboard-response,170,348008,0.0-70.0-3.0,,<div style='margin:auto;width: auto; font-size: 150%'><span style='font-weight: bold; font-size: 100px; color: red;'>0 points!</span><br><br></div>,,delaylearn,learning,feedback_image_window,u6UTbErfmwVhi3hcQJ0yKiTfZ2W2,u6UTbErfmwVhi3hcQJ0yKiTfZ2W2,,,,,,,,,,,,,,,,,,,,,,6599e58d1011e10041695c0a,09:05:20,27/02/2024
html-keyboard-response,171,349639,0.0-71.0,,"<div style=""font-size:100px;"">+</div>",,delaylearn,learning,ITI,u6UTbErfmwVhi3hcQJ0yKiTfZ2W2,u6UTbErfmwVhi3hcQJ0yKiTfZ2W2,,,,,,,,,,,,,,,,,,,1626.0,,,6599e58d1011e10041695c0a,09:05:20,27/02/2024
html-keyboard-response,172,350713,0.0-72.0-0.0,1069.5999999046326,"<div style=""display: flex; flex-direction: column; align-items: center; margin-top: -40px;""><img src=""images/pattern_5.png"" style=""width: 234px; height: 230px; margin-top: -50px;""><div style=""display: flex; justify-content: space-between; margin-top: 33px;""><img src=""images/choice_trial_11.png"" style=""width: 408px; height: 417px; margin-right: 200px;""><img src=""images/choice_trial_2.png"" style=""width: 408px; height: 417px;""></div></div>",f,delaylearn,learning,trial,u6UTbErfmwVhi3hcQJ0yKiTfZ2W2,u6UTbErfmwVhi3hcQJ0yKiTfZ2W2,3.0,images/choice_trial_11.png,images/choice_trial_2.png,images/pattern_5.png,j,f,750.0,11.0,2.0,4.0,0.0,31.0,1.0,0.0,11.0,180.0,,,,,,6599e58d1011e10041695c0a,09:05:20,27/02/2024
html-keyboard-response,173,351718,0.0-72.0-1.0,,"<div style=""display: flex; flex-direction: column; align-items: center; margin-top: -40px;""><img src=""images/pattern_5.png"" style=""width: 234px; height: 230px; margin-top: -50px;""><div style=""display: flex; justify-content: space-between; margin-top: 33px;""><img src=""images/choice_trial_11.png"" style=""width: 408px; height: 417px; margin-right: 608px;""></div></div>",,delaylearn,learning,display_response,u6UTbErfmwVhi3hcQJ0yKiTfZ2W2,u6UTbErfmwVhi3hcQJ0yKiTfZ2W2,,,,,,,,,,,,,,,,,chosen stimuli: images/choice_trial_11.png,,,,,6599e58d1011e10041695c0a,09:05:20,27/02/2024
html-keyboard-response,174,352472,0.0-72.0-2.0,,,,delaylearn,learning,feedback_duration_window,u6UTbErfmwVhi3hcQJ0yKiTfZ2W2,u6UTbErfmwVhi3hcQJ0yKiTfZ2W2,,,,,,,,,,,,,,,,,,750.0,,,,6599e58d1011e10041695c0a,09:05:20,27/02/2024
html-keyboard-response,175,353976,0.0-72.0-3.0,,<div style='margin:auto;width: auto; font-size: 150%'><span style='font-weight: bold; font-size: 100px; color: red;'>0 points!</span><br><br></div>,,delaylearn,learning,feedback_image_window,u6UTbErfmwVhi3hcQJ0yKiTfZ2W2,u6UTbErfmwVhi3hcQJ0yKiTfZ2W2,,,,,,,,,,,,,,,,,,,,,,6599e58d1011e10041695c0a,09:05:20,27/02/2024
html-keyboard-response,176,355753,0.0-73.0,,"<div style=""font-size:100px;"">+</div>",,delaylearn,learning,ITI,u6UTbErfmwVhi3hcQJ0yKiTfZ2W2,u6UTbErfmwVhi3hcQJ0yKiTfZ2W2,,,,,,,,,,,,,,,,,,,1773.0,,,6599e58d1011e10041695c0a,09:05:20,27/02/2024
html-keyboard-response,177,356762,0.0-74.0-0.0,1003.7999999523163,"<div style=""display: flex; flex-direction: column; align-items: center; margin-top: -40px;""><img src=""images/pattern_1.png"" style=""width: 234px; height: 230px; margin-top: -50px;""><div style=""display: flex; justify-content: space-between; margin-top: 33px;""><img src=""images/choice_trial_14.png"" style=""width: 408px; height: 417px; margin-right: 200px;""><img src=""images/choice_trial_8.png"" style=""width: 408px; height: 417px;""></div></div>",f,delaylearn,learning,trial,u6UTbErfmwVhi3hcQJ0yKiTfZ2W2,u6UTbErfmwVhi3hcQJ0yKiTfZ2W2,3.0,images/choice_trial_14.png,images/choice_trial_8.png,images/pattern_1.png,f,f,7000.0,14.0,8.0,1.0,0.0,32.0,1.0,1.0,14.0,190.0,,,,,,6599e58d1011e10041695c0a,09:05:20,27/02/2024
html-keyboard-response,178,357766,0.0-74.0-1.0,,"<div style=""display: flex; flex-direction: column; align-items: center; margin-top: -40px;""><img src=""images/pattern_1.png"" style=""width: 234px; height: 230px; margin-top: -50px;""><div style=""display: flex; justify-content: space-between; margin-top: 33px;""><img src=""images/choice_trial_14.png"" style=""width: 408px; height: 417px; margin-right: 608px;""></div></div>",,delaylearn,learning,display_response,u6UTbErfmwVhi3hcQJ0yKiTfZ2W2,u6UTbErfmwVhi3hcQJ0yKiTfZ2W2,,,,,,,,,,,,,,,,,chosen stimuli: images/choice_trial_14.png,,,,,6599e58d1011e10041695c0a,09:05:20,27/02/2024
html-keyboard-response,179,364770,0.0-74.0-2.0,,,,delaylearn,learning,feedback_duration_window,u6UTbErfmwVhi3hcQJ0yKiTfZ2W2,u6UTbErfmwVhi3hcQJ0yKiTfZ2W2,,,,,,,,,,,,,,,,,,7000.0,,,,6599e58d1011e10041695c0a,09:05:20,27/02/2024
html-keyboard-response,180,366275,0.0-74.0-3.0,,<div style='margin:auto;width: auto; font-size: 150%'><span style='font-weight: bold; font-size: 100px; color: green;'>+10 points!</span><br><br></div>,,delaylearn,learning,feedback_image_window,u6UTbErfmwVhi3hcQJ0yKiTfZ2W2,u6UTbErfmwVhi3hcQJ0yKiTfZ2W2,,,,,,,,,,,,,,,,,,,,,,6599e58d1011e10041695c0a,09:05:20,27/02/2024
html-keyboard-response,181,366778,0.0-75.0-0.0,,,,,,mood_trial_fixation,u6UTbErfmwVhi3hcQJ0yKiTfZ2W2,,,,,,,,,,,,,,,,,,,,,,,6599e58d1011e10041695c0a,09:05:20,27/02/2024
lmdlab-html-vas-response,182,372389,0.0-75.0-1.0,4603.0,How happy are you right now?,0.6552166005291006,delaylearn,learning,mood_trial,u6UTbErfmwVhi3hcQJ0yKiTfZ2W2,u6UTbErfmwVhi3hcQJ0yKiTfZ2W2,,,,,,,,,,,,,,,,,,,,"['Very unhappy', 'Very happy']",,6599e58d1011e10041695c0a,09:05:20,27/02/2024
html-keyboard-response,183,374861,0.0-76.0,,"<div style=""font-size:100px;"">+</div>",,delaylearn,learning,ITI,u6UTbErfmwVhi3hcQJ0yKiTfZ2W2,u6UTbErfmwVhi3hcQJ0yKiTfZ2W2,,,,,,,,,,,,,,,,,,,2468.0,,,6599e58d1011e10041695c0a,09:05:20,27/02/2024
html-keyboard-response,184,375861,0.0-77.0-0.0,993.6999998092651,"<div style=""display: flex; flex-direction: column; align-items: center; margin-top: -40px;""><img src=""images/pattern_6.png"" style=""width: 234px; height: 230px; margin-top: -50px;""><div style=""display: flex; justify-content: space-between; margin-top: 33px;""><img src=""images/choice_trial_16.png"" style=""width: 408px; height: 417px; margin-right: 200px;""><img src=""images/choice_trial_3.png"" style=""width: 408px; height: 417px;""></div></div>",f,delaylearn,learning,trial,u6UTbErfmwVhi3hcQJ0yKiTfZ2W2,u6UTbErfmwVhi3hcQJ0yKiTfZ2W2,3.0,images/choice_trial_16.png,images/choice_trial_3.png,images/pattern_6.png,j,f,750.0,16.0,3.0,5.0,0.0,33.0,1.0,0.0,16.0,190.0,,,,,,6599e58d1011e10041695c0a,09:05:20,27/02/2024
html-keyboard-response,185,376865,0.0-77.0-1.0,,"<div style=""display: flex; flex-direction: column; align-items: center; margin-top: -40px;""><img src=""images/pattern_6.png"" style=""width: 234px; height: 230px; margin-top: -50px;""><div style=""display: flex; justify-content: space-between; margin-top: 33px;""><img src=""images/choice_trial_16.png"" style=""width: 408px; height: 417px; margin-right: 608px;""></div></div>",,delaylearn,learning,display_response,u6UTbErfmwVhi3hcQJ0yKiTfZ2W2,u6UTbErfmwVhi3hcQJ0yKiTfZ2W2,,,,,,,,,,,,,,,,,chosen stimuli: images/choice_trial_16.png,,,,,6599e58d1011e10041695c0a,09:05:20,27/02/2024
html-keyboard-response,186,377619,0.0-77.0-2.0,,,,delaylearn,learning,feedback_duration_window,u6UTbErfmwVhi3hcQJ0yKiTfZ2W2,u6UTbErfmwVhi3hcQJ0yKiTfZ2W2,,,,,,,,,,,,,,,,,,750.0,,,,6599e58d1011e10041695c0a,09:05:20,27/02/2024
html-keyboard-response,187,379124,0.0-77.0-3.0,,<div style='margin:auto;width: auto; font-size: 150%'><span style='font-weight: bold; font-size: 100px; color: red;'>0 points!</span><br><br></div>,,delaylearn,learning,feedback_image_window,u6UTbErfmwVhi3hcQJ0yKiTfZ2W2,u6UTbErfmwVhi3hcQJ0yKiTfZ2W2,,,,,,,,,,,,,,,,,,,,,,6599e58d1011e10041695c0a,09:05:20,27/02/2024
html-keyboard-response,188,381177,0.0-78.0,,"<div style=""font-size:100px;"">+</div>",,delaylearn,learning,ITI,u6UTbErfmwVhi3hcQJ0yKiTfZ2W2,u6UTbErfmwVhi3hcQJ0yKiTfZ2W2,,,,,,,,,,,,,,,,,,,2050.0,,,6599e58d1011e10041695c0a,09:05:20,27/02/2024
html-keyboard-response,189,382317,0.0-79.0-0.0,1134.4000000953674,"<div style=""display: flex; flex-direction: column; align-items: center; margin-top: -40px;""><img src=""images/pattern_3.png"" style=""width: 234px; height: 230px; margin-top: -50px;""><div style=""display: flex; justify-content: space-between; margin-top: 33px;""><img src=""images/choice_trial_10.png"" style=""width: 408px; height: 417px; margin-right: 200px;""><img src=""images/choice_trial_13.png"" style=""width: 408px; height: 417px;""></div></div>",j,delaylearn,learning,trial,u6UTbErfmwVhi3hcQJ0yKiTfZ2W2,u6UTbErfmwVhi3hcQJ0yKiTfZ2W2,3.0,images/choice_trial_10.png,images/choice_trial_13.png,images/pattern_3.png,j,j,7000.0,10.0,13.0,2.0,1.0,34.0,1.0,1.0,13.0,200.0,,,,,,6599e58d1011e10041695c0a,09:05:20,27/02/2024
html-keyboard-response,190,383321,0.0-79.0-1.0,,"<div style=""display: flex; flex-direction: column; align-items: center; margin-top: -40px;""><img src=""images/pattern_3.png"" style=""width: 234px; height: 230px; margin-top: -50px;""><div style=""display: flex; justify-content: space-between; margin-top: 33px;""><img src=""images/choice_trial_13.png"" style=""width: 408px; height: 417px; margin-left:608px;""></div></div>",,delaylearn,learning,display_response,u6UTbErfmwVhi3hcQJ0yKiTfZ2W2,u6UTbErfmwVhi3hcQJ0yKiTfZ2W2,,,,,,,,,,,,,,,,,chosen stimuli: images/choice_trial_13.png,,,,,6599e58d1011e10041695c0a,09:05:20,27/02/2024
html-keyboard-response,191,390325,0.0-79.0-2.0,,,,delaylearn,learning,feedback_duration_window,u6UTbErfmwVhi3hcQJ0yKiTfZ2W2,u6UTbErfmwVhi3hcQJ0yKiTfZ2W2,,,,,,,,,,,,,,,,,,7000.0,,,,6599e58d1011e10041695c0a,09:05:20,27/02/2024
html-keyboard-response,192,391830,0.0-79.0-3.0,,<div style='margin:auto;width: auto; font-size: 150%'><span style='font-weight: bold; font-size: 100px; color: green;'>+10 points!</span><br><br></div>,,delaylearn,learning,feedback_image_window,u6UTbErfmwVhi3hcQJ0yKiTfZ2W2,u6UTbErfmwVhi3hcQJ0yKiTfZ2W2,,,,,,,,,,,,,,,,,,,,,,6599e58d1011e10041695c0a,09:05:20,27/02/2024
html-keyboard-response,193,393691,0.0-80.0,,"<div style=""font-size:100px;"">+</div>",,delaylearn,learning,ITI,u6UTbErfmwVhi3hcQJ0yKiTfZ2W2,u6UTbErfmwVhi3hcQJ0yKiTfZ2W2,,,,,,,,,,,,,,,,,,,1857.0,,,6599e58d1011e10041695c0a,09:05:20,27/02/2024
html-keyboard-response,194,394597,0.0-81.0-0.0,902.6000001430511,"<div style=""display: flex; flex-direction: column; align-items: center; margin-top: -40px;""><img src=""images/pattern_4.png"" style=""width: 234px; height: 230px; margin-top: -50px;""><div style=""display: flex; justify-content: space-between; margin-top: 33px;""><img src=""images/choice_trial_9.png"" style=""width: 408px; height: 417px; margin-right: 200px;""><img src=""images/choice_trial_15.png"" style=""width: 408px; height: 417px;""></div></div>",j,delaylearn,learning,trial,u6UTbErfmwVhi3hcQJ0yKiTfZ2W2,u6UTbErfmwVhi3hcQJ0yKiTfZ2W2,3.0,images/choice_trial_9.png,images/choice_trial_15.png,images/pattern_4.png,f,j,7000.0,9.0,15.0,3.0,1.0,35.0,1.0,0.0,15.0,200.0,,,,,,6599e58d1011e10041695c0a,09:05:20,27/02/2024
html-keyboard-response,195,395602,0.0-81.0-1.0,,"<div style=""display: flex; flex-direction: column; align-items: center; margin-top: -40px;""><img src=""images/pattern_4.png"" style=""width: 234px; height: 230px; margin-top: -50px;""><div style=""display: flex; justify-content: space-between; margin-top: 33px;""><img src=""images/choice_trial_15.png"" style=""width: 408px; height: 417px; margin-left:608px;""></div></div>",,delaylearn,learning,display_response,u6UTbErfmwVhi3hcQJ0yKiTfZ2W2,u6UTbErfmwVhi3hcQJ0yKiTfZ2W2,,,,,,,,,,,,,,,,,chosen stimuli: images/choice_trial_15.png,,,,,6599e58d1011e10041695c0a,09:05:20,27/02/2024
html-keyboard-response,196,402606,0.0-81.0-2.0,,,,delaylearn,learning,feedback_duration_window,u6UTbErfmwVhi3hcQJ0yKiTfZ2W2,u6UTbErfmwVhi3hcQJ0yKiTfZ2W2,,,,,,,,,,,,,,,,,,7000.0,,,,6599e58d1011e10041695c0a,09:05:20,27/02/2024
html-keyboard-response,197,404111,0.0-81.0-3.0,,<div style='margin:auto;width: auto; font-size: 150%'><span style='font-weight: bold; font-size: 100px; color: red;'>0 points!</span><br><br></div>,,delaylearn,learning,feedback_image_window,u6UTbErfmwVhi3hcQJ0yKiTfZ2W2,u6UTbErfmwVhi3hcQJ0yKiTfZ2W2,,,,,,,,,,,,,,,,,,,,,,6599e58d1011e10041695c0a,09:05:20,27/02/2024
html-keyboard-response,198,406422,0.0-82.0,,"<div style=""font-size:100px;"">+</div>",,delaylearn,learning,ITI,u6UTbErfmwVhi3hcQJ0yKiTfZ2W2,u6UTbErfmwVhi3hcQJ0yKiTfZ2W2,,,,,,,,,,,,,,,,,,,2307.0,,,6599e58d1011e10041695c0a,09:05:20,27/02/2024
html-keyboard-response,199,407789,0.0-83.0-0.0,1363.2000000476837,"<div style=""display: flex; flex-direction: column; align-items: center; margin-top: -40px;""><img src=""images/pattern_7.png"" style=""width: 234px; height: 230px; margin-top: -50px;""><div style=""display: flex; justify-content: space-between; margin-top: 33px;""><img src=""images/choice_trial_6.png"" style=""width: 408px; height: 417px; margin-right: 200px;""><img src=""images/choice_trial_12.png"" style=""width: 408px; height: 417px;""></div></div>",f,delaylearn,learning,trial,u6UTbErfmwVhi3hcQJ0yKiTfZ2W2,u6UTbErfmwVhi3hcQJ0yKiTfZ2W2,3.0,images/choice_trial_6.png,images/choice_trial_12.png,images/pattern_7.png,f,f,750.0,6.0,12.0,6.0,0.0,36.0,1.0,1.0,6.0,210.0,,,,,,6599e58d1011e10041695c0a,09:05:20,27/02/2024
html-keyboard-response,200,408795,0.0-83.0-1.0,,"<div style=""display: flex; flex-direction: column; align-items: center; margin-top: -40px;""><img src=""images/pattern_7.png"" style=""width: 234px; height: 230px; margin-top: -50px;""><div style=""display: flex; justify-content: space-between; margin-top: 33px;""><img src=""images/choice_trial_6.png"" style=""width: 408px; height: 417px; margin-right: 608px;""></div></div>",,delaylearn,learning,display_response,u6UTbErfmwVhi3hcQJ0yKiTfZ2W2,u6UTbErfmwVhi3hcQJ0yKiTfZ2W2,,,,,,,,,,,,,,,,,chosen stimuli: images/choice_trial_6.png,,,,,6599e58d1011e10041695c0a,09:05:20,27/02/2024
html-keyboard-response,201,409548,0.0-83.0-2.0,,,,delaylearn,learning,feedback_duration_window,u6UTbErfmwVhi3hcQJ0yKiTfZ2W2,u6UTbErfmwVhi3hcQJ0yKiTfZ2W2,,,,,,,,,,,,,,,,,,750.0,,,,6599e58d1011e10041695c0a,09:05:20,27/02/2024
html-keyboard-response,202,411052,0.0-83.0-3.0,,<div style='margin:auto;width: auto; font-size: 150%'><span style='font-weight: bold; font-size: 100px; color: green;'>+10 points!</span><br><br></div>,,delaylearn,learning,feedback_image_window,u6UTbErfmwVhi3hcQJ0yKiTfZ2W2,u6UTbErfmwVhi3hcQJ0yKiTfZ2W2,,,,,,,,,,,,,,,,,,,,,,6599e58d1011e10041695c0a,09:05:20,27/02/2024
html-keyboard-response,203,412676,0.0-84.0,,"<div style=""font-size:100px;"">+</div>",,delaylearn,learning,ITI,u6UTbErfmwVhi3hcQJ0yKiTfZ2W2,u6UTbErfmwVhi3hcQJ0yKiTfZ2W2,,,,,,,,,,,,,,,,,,,1620.0,,,6599e58d1011e10041695c0a,09:05:20,27/02/2024
html-keyboard-response,204,414207,0.0-85.0-0.0,1527.5,"<div style=""display: flex; flex-direction: column; align-items: center; margin-top: -40px;""><img src=""images/pattern_1.png"" style=""width: 234px; height: 230px; margin-top: -50px;""><div style=""display: flex; justify-content: space-between; margin-top: 33px;""><img src=""images/choice_trial_14.png"" style=""width: 408px; height: 417px; margin-right: 200px;""><img src=""images/choice_trial_8.png"" style=""width: 408px; height: 417px;""></div></div>",f,delaylearn,learning,trial,u6UTbErfmwVhi3hcQJ0yKiTfZ2W2,u6UTbErfmwVhi3hcQJ0yKiTfZ2W2,3.0,images/choice_trial_14.png,images/choice_trial_8.png,images/pattern_1.png,f,f,7000.0,14.0,8.0,1.0,0.0,37.0,1.0,1.0,14.0,220.0,,,,,,6599e58d1011e10041695c0a,09:05:20,27/02/2024
html-keyboard-response,205,415211,0.0-85.0-1.0,,"<div style=""display: flex; flex-direction: column; align-items: center; margin-top: -40px;""><img src=""images/pattern_1.png"" style=""width: 234px; height: 230px; margin-top: -50px;""><div style=""display: flex; justify-content: space-between; margin-top: 33px;""><img src=""images/choice_trial_14.png"" style=""width: 408px; height: 417px; margin-right: 608px;""></div></div>",,delaylearn,learning,display_response,u6UTbErfmwVhi3hcQJ0yKiTfZ2W2,u6UTbErfmwVhi3hcQJ0yKiTfZ2W2,,,,,,,,,,,,,,,,,chosen stimuli: images/choice_trial_14.png,,,,,6599e58d1011e10041695c0a,09:05:20,27/02/2024
html-keyboard-response,206,422215,0.0-85.0-2.0,,,,delaylearn,learning,feedback_duration_window,u6UTbErfmwVhi3hcQJ0yKiTfZ2W2,u6UTbErfmwVhi3hcQJ0yKiTfZ2W2,,,,,,,,,,,,,,,,,,7000.0,,,,6599e58d1011e10041695c0a,09:05:20,27/02/2024
html-keyboard-response,207,423719,0.0-85.0-3.0,,<div style='margin:auto;width: auto; font-size: 150%'><span style='font-weight: bold; font-size: 100px; color: green;'>+10 points!</span><br><br></div>,,delaylearn,learning,feedback_image_window,u6UTbErfmwVhi3hcQJ0yKiTfZ2W2,u6UTbErfmwVhi3hcQJ0yKiTfZ2W2,,,,,,,,,,,,,,,,,,,,,,6599e58d1011e10041695c0a,09:05:20,27/02/2024
html-keyboard-response,208,424223,0.0-86.0-0.0,,,,,,mood_trial_fixation,u6UTbErfmwVhi3hcQJ0yKiTfZ2W2,,,,,,,,,,,,,,,,,,,,,,,6599e58d1011e10041695c0a,09:05:20,27/02/2024
lmdlab-html-vas-response,209,428885,0.0-86.0-1.0,3655.0,How happy are you right now?,0.771618716931217,delaylearn,learning,mood_trial,u6UTbErfmwVhi3hcQJ0yKiTfZ2W2,u6UTbErfmwVhi3hcQJ0yKiTfZ2W2,,,,,,,,,,,,,,,,,,,,"['Very unhappy', 'Very happy']",,6599e58d1011e10041695c0a,09:05:20,27/02/2024
html-keyboard-response,210,431261,0.0-87.0,,"<div style=""font-size:100px;"">+</div>",,delaylearn,learning,ITI,u6UTbErfmwVhi3hcQJ0yKiTfZ2W2,u6UTbErfmwVhi3hcQJ0yKiTfZ2W2,,,,,,,,,,,,,,,,,,,2372.0,,,6599e58d1011e10041695c0a,09:05:20,27/02/2024
html-keyboard-response,211,432421,0.0-88.0-0.0,1153.6000001430511,"<div style=""display: flex; flex-direction: column; align-items: center; margin-top: -40px;""><img src=""images/pattern_3.png"" style=""width: 234px; height: 230px; margin-top: -50px;""><div style=""display: flex; justify-content: space-between; margin-top: 33px;""><img src=""images/choice_trial_13.png"" style=""width: 408px; height: 417px; margin-right: 200px;""><img src=""images/choice_trial_10.png"" style=""width: 408px; height: 417px;""></div></div>",j,delaylearn,learning,trial,u6UTbErfmwVhi3hcQJ0yKiTfZ2W2,u6UTbErfmwVhi3hcQJ0yKiTfZ2W2,3.0,images/choice_trial_13.png,images/choice_trial_10.png,images/pattern_3.png,j,f,7000.0,13.0,10.0,2.0,0.0,38.0,0.0,1.0,10.0,230.0,,,,,,6599e58d1011e10041695c0a,09:05:20,27/02/2024
html-keyboard-response,212,433426,0.0-88.0-1.0,,"<div style=""display: flex; flex-direction: column; align-items: center; margin-top: -40px;""><img src=""images/pattern_3.png"" style=""width: 234px; height: 230px; margin-top: -50px;""><div style=""display: flex; justify-content: space-between; margin-top: 33px;""><img src=""images/choice_trial_10.png"" style=""width: 408px; height: 417px; margin-left:608px;""></div></div>",,delaylearn,learning,display_response,u6UTbErfmwVhi3hcQJ0yKiTfZ2W2,u6UTbErfmwVhi3hcQJ0yKiTfZ2W2,,,,,,,,,,,,,,,,,chosen stimuli: images/choice_trial_10.png,,,,,6599e58d1011e10041695c0a,09:05:20,27/02/2024
html-keyboard-response,213,440430,0.0-88.0-2.0,,,,delaylearn,learning,feedback_duration_window,u6UTbErfmwVhi3hcQJ0yKiTfZ2W2,u6UTbErfmwVhi3hcQJ0yKiTfZ2W2,,,,,,,,,,,,,,,,,,7000.0,,,,6599e58d1011e10041695c0a,09:05:20,27/02/2024
html-keyboard-response,214,441933,0.0-88.0-3.0,,<div style='margin:auto;width: auto; font-size: 150%'><span style='font-weight: bold; font-size: 100px; color: green;'>+10 points!</span><br><br></div>,,delaylearn,learning,feedback_image_window,u6UTbErfmwVhi3hcQJ0yKiTfZ2W2,u6UTbErfmwVhi3hcQJ0yKiTfZ2W2,,,,,,,,,,,,,,,,,,,,,,6599e58d1011e10041695c0a,09:05:20,27/02/2024
html-keyboard-response,215,444054,0.0-89.0,,"<div style=""font-size:100px;"">+</div>",,delaylearn,learning,ITI,u6UTbErfmwVhi3hcQJ0yKiTfZ2W2,u6UTbErfmwVhi3hcQJ0yKiTfZ2W2,,,,,,,,,,,,,,,,,,,2116.0,,,6599e58d1011e10041695c0a,09:05:20,27/02/2024
html-keyboard-response,216,445058,0.0-90.0-0.0,998.8000001907349,"<div style=""display: flex; flex-direction: column; align-items: center; margin-top: -40px;""><img src=""images/pattern_7.png"" style=""width: 234px; height: 230px; margin-top: -50px;""><div style=""display: flex; justify-content: space-between; margin-top: 33px;""><img src=""images/choice_trial_12.png"" style=""width: 408px; height: 417px; margin-right: 200px;""><img src=""images/choice_trial_6.png"" style=""width: 408px; height: 417px;""></div></div>",j,delaylearn,learning,trial,u6UTbErfmwVhi3hcQJ0yKiTfZ2W2,u6UTbErfmwVhi3hcQJ0yKiTfZ2W2,3.0,images/choice_trial_12.png,images/choice_trial_6.png,images/pattern_7.png,j,j,750.0,12.0,6.0,6.0,1.0,39.0,1.0,1.0,6.0,240.0,,,,,,6599e58d1011e10041695c0a,09:05:20,27/02/2024
html-keyboard-response,217,446063,0.0-90.0-1.0,,"<div style=""display: flex; flex-direction: column; align-items: center; margin-top: -40px;""><img src=""images/pattern_7.png"" style=""width: 234px; height: 230px; margin-top: -50px;""><div style=""display: flex; justify-content: space-between; margin-top: 33px;""><img src=""images/choice_trial_6.png"" style=""width: 408px; height: 417px; margin-left:608px;""></div></div>",,delaylearn,learning,display_response,u6UTbErfmwVhi3hcQJ0yKiTfZ2W2,u6UTbErfmwVhi3hcQJ0yKiTfZ2W2,,,,,,,,,,,,,,,,,chosen stimuli: images/choice_trial_6.png,,,,,6599e58d1011e10041695c0a,09:05:20,27/02/2024
html-keyboard-response,218,446816,0.0-90.0-2.0,,,,delaylearn,learning,feedback_duration_window,u6UTbErfmwVhi3hcQJ0yKiTfZ2W2,u6UTbErfmwVhi3hcQJ0yKiTfZ2W2,,,,,,,,,,,,,,,,,,750.0,,,,6599e58d1011e10041695c0a,09:05:20,27/02/2024
html-keyboard-response,219,448320,0.0-90.0-3.0,,<div style='margin:auto;width: auto; font-size: 150%'><span style='font-weight: bold; font-size: 100px; color: green;'>+10 points!</span><br><br></div>,,delaylearn,learning,feedback_image_window,u6UTbErfmwVhi3hcQJ0yKiTfZ2W2,u6UTbErfmwVhi3hcQJ0yKiTfZ2W2,,,,,,,,,,,,,,,,,,,,,,6599e58d1011e10041695c0a,09:05:20,27/02/2024
html-keyboard-response,220,450222,0.0-91.0,,"<div style=""font-size:100px;"">+</div>",,delaylearn,learning,ITI,u6UTbErfmwVhi3hcQJ0yKiTfZ2W2,u6UTbErfmwVhi3hcQJ0yKiTfZ2W2,,,,,,,,,,,,,,,,,,,1898.0,,,6599e58d1011e10041695c0a,09:05:20,27/02/2024
html-keyboard-response,221,451622,0.0-92.0-0.0,1393.7000000476837,"<div style=""display: flex; flex-direction: column; align-items: center; margin-top: -40px;""><img src=""images/pattern_5.png"" style=""width: 234px; height: 230px; margin-top: -50px;""><div style=""display: flex; justify-content: space-between; margin-top: 33px;""><img src=""images/choice_trial_2.png"" style=""width: 408px; height: 417px; margin-right: 200px;""><img src=""images/choice_trial_11.png"" style=""width: 408px; height: 417px;""></div></div>",f,delaylearn,learning,trial,u6UTbErfmwVhi3hcQJ0yKiTfZ2W2,u6UTbErfmwVhi3hcQJ0yKiTfZ2W2,3.0,images/choice_trial_2.png,images/choice_trial_11.png,images/pattern_5.png,j,j,750.0,2.0,11.0,4.0,1.0,40.0,0.0,0.0,2.0,240.0,,,,,,6599e58d1011e10041695c0a,09:05:20,27/02/2024
html-keyboard-response,222,452626,0.0-92.0-1.0,,"<div style=""display: flex; flex-direction: column; align-items: center; margin-top: -40px;""><img src=""images/pattern_5.png"" style=""width: 234px; height: 230px; margin-top: -50px;""><div style=""display: flex; justify-content: space-between; margin-top: 33px;""><img src=""images/choice_trial_2.png"" style=""width: 408px; height: 417px; margin-right: 608px;""></div></div>",,delaylearn,learning,display_response,u6UTbErfmwVhi3hcQJ0yKiTfZ2W2,u6UTbErfmwVhi3hcQJ0yKiTfZ2W2,,,,,,,,,,,,,,,,,chosen stimuli: images/choice_trial_2.png,,,,,6599e58d1011e10041695c0a,09:05:20,27/02/2024
html-keyboard-response,223,453379,0.0-92.0-2.0,,,,delaylearn,learning,feedback_duration_window,u6UTbErfmwVhi3hcQJ0yKiTfZ2W2,u6UTbErfmwVhi3hcQJ0yKiTfZ2W2,,,,,,,,,,,,,,,,,,750.0,,,,6599e58d1011e10041695c0a,09:05:20,27/02/2024
html-keyboard-response,224,454884,0.0-92.0-3.0,,<div style='margin:auto;width: auto; font-size: 150%'><span style='font-weight: bold; font-size: 100px; color: red;'>0 points!</span><br><br></div>,,delaylearn,learning,feedback_image_window,u6UTbErfmwVhi3hcQJ0yKiTfZ2W2,u6UTbErfmwVhi3hcQJ0yKiTfZ2W2,,,,,,,,,,,,,,,,,,,,,,6599e58d1011e10041695c0a,09:05:20,27/02/2024
html-keyboard-response,225,455388,0.0-93.0-0.0,,,,,,mood_trial_fixation,u6UTbErfmwVhi3hcQJ0yKiTfZ2W2,,,,,,,,,,,,,,,,,,,,,,,6599e58d1011e10041695c0a,09:05:20,27/02/2024
lmdlab-html-vas-response,226,460800,0.0-93.0-1.0,4404.0,How happy are you right now?,0.699308311287478,delaylearn,learning,mood_trial,u6UTbErfmwVhi3hcQJ0yKiTfZ2W2,u6UTbErfmwVhi3hcQJ0yKiTfZ2W2,,,,,,,,,,,,,,,,,,,,"['Very unhappy', 'Very happy']",,6599e58d1011e10041695c0a,09:05:20,27/02/2024
html-keyboard-response,227,462428,0.0-94.0,,"<div style=""font-size:100px;"">+</div>",,delaylearn,learning,ITI,u6UTbErfmwVhi3hcQJ0yKiTfZ2W2,u6UTbErfmwVhi3hcQJ0yKiTfZ2W2,,,,,,,,,,,,,,,,,,,1624.0,,,6599e58d1011e10041695c0a,09:05:20,27/02/2024
html-keyboard-response,228,463330,0.0-95.0-0.0,896.0999999046326,"<div style=""display: flex; flex-direction: column; align-items: center; margin-top: -40px;""><img src=""images/pattern_4.png"" style=""width: 234px; height: 230px; margin-top: -50px;""><div style=""display: flex; justify-content: space-between; margin-top: 33px;""><img src=""images/choice_trial_15.png"" style=""width: 408px; height: 417px; margin-right: 200px;""><img src=""images/choice_trial_9.png"" style=""width: 408px; height: 417px;""></div></div>",f,delaylearn,learning,trial,u6UTbErfmwVhi3hcQJ0yKiTfZ2W2,u6UTbErfmwVhi3hcQJ0yKiTfZ2W2,3.0,images/choice_trial_15.png,images/choice_trial_9.png,images/pattern_4.png,f,f,7000.0,15.0,9.0,3.0,0.0,41.0,1.0,1.0,15.0,250.0,,,,,,6599e58d1011e10041695c0a,09:05:20,27/02/2024
html-keyboard-response,229,464335,0.0-95.0-1.0,,"<div style=""display: flex; flex-direction: column; align-items: center; margin-top: -40px;""><img src=""images/pattern_4.png"" style=""width: 234px; height: 230px; margin-top: -50px;""><div style=""display: flex; justify-content: space-between; margin-top: 33px;""><img src=""images/choice_trial_15.png"" style=""width: 408px; height: 417px; margin-right: 608px;""></div></div>",,delaylearn,learning,display_response,u6UTbErfmwVhi3hcQJ0yKiTfZ2W2,u6UTbErfmwVhi3hcQJ0yKiTfZ2W2,,,,,,,,,,,,,,,,,chosen stimuli: images/choice_trial_15.png,,,,,6599e58d1011e10041695c0a,09:05:20,27/02/2024
html-keyboard-response,230,471338,0.0-95.0-2.0,,,,delaylearn,learning,feedback_duration_window,u6UTbErfmwVhi3hcQJ0yKiTfZ2W2,u6UTbErfmwVhi3hcQJ0yKiTfZ2W2,,,,,,,,,,,,,,,,,,7000.0,,,,6599e58d1011e10041695c0a,09:05:20,27/02/2024
html-keyboard-response,231,472842,0.0-95.0-3.0,,<div style='margin:auto;width: auto; font-size: 150%'><span style='font-weight: bold; font-size: 100px; color: green;'>+10 points!</span><br><br></div>,,delaylearn,learning,feedback_image_window,u6UTbErfmwVhi3hcQJ0yKiTfZ2W2,u6UTbErfmwVhi3hcQJ0yKiTfZ2W2,,,,,,,,,,,,,,,,,,,,,,6599e58d1011e10041695c0a,09:05:20,27/02/2024
