trial_type,trial_index,time_elapsed,internal_node_id,rt,stimulus,response,exp_name,exp_stage,test_part,subjectID,databaseID,counterbal,choice_stimuli_1,choice_stimuli_2,pattern_stimuli,rewarded_answer,correct_answer,feedback_duration_times,stim_left,stim_right,pair,leftright_counter,trial,response_correct,response_rewarded,chosen_stim,counter,displayed_choice,feedback_durations,ITI_duration,labels,rest_warning,prolificID,start_time,date
pavlovia,0,515,0.0-0.0,,,,,,,BKtGXZLAejeHLqNgPEmezMTZ8O63,,,,,,,,,,,,,,,,,,,,,,,6543af72769aacc0bf14521e,09:11:51,27/02/2024
html-keyboard-response,1,3530,0.0-1.0,,"<div style=""font-size:100px;"">+</div>",,delaylearn,learning,pre_fixation,BKtGXZLAejeHLqNgPEmezMTZ8O63,,,,,,,,,,,,,,,,,,,,,,,6543af72769aacc0bf14521e,09:11:51,27/02/2024
html-keyboard-response,2,4497,0.0-2.0-0.0,964.1999999284744,"<div style=""display: flex; flex-direction: column; align-items: center; margin-top: -40px;""><img src=""images/demo_images/pattern_1.png"" style=""width: 234px; height: 230px; margin-top: -50px;""><div style=""display: flex; justify-content: space-between; margin-top: 33px;""><img src=""images/demo_images/choice_trial_2.png"" style=""width: 408px; height: 417px; margin-right: 200px;""><img src=""images/demo_images/choice_trial_1.png"" style=""width: 408px; height: 417px;""></div></div>",f,delaylearn,learning,trial,BKtGXZLAejeHLqNgPEmezMTZ8O63,BKtGXZLAejeHLqNgPEmezMTZ8O63,2.0,images/demo_images/choice_trial_2.png,images/demo_images/choice_trial_1.png,images/demo_images/pattern_1.png,j,j,3000.0,2.0,1.0,20.0,1.0,1.0,0.0,0.0,2.0,0.0,,,,,,6543af72769aacc0bf14521e,09:11:51,27/02/2024
html-keyboard-response,3,5507,0.0-2.0-1.0,,"<div style=""display: flex; flex-direction: column; align-items: center; margin-top: -40px;""><img src=""images/demo_images/pattern_1.png"" style=""width: 234px; height: 230px; margin-top: -50px;""><div style=""display: flex; justify-content: space-between; margin-top: 33px;""><img src=""images/demo_images/choice_trial_2.png"" style=""width: 408px; height: 417px; margin-right: 608px;""></div></div>",,delaylearn,learning,display_response,BKtGXZLAejeHLqNgPEmezMTZ8O63,BKtGXZLAejeHLqNgPEmezMTZ8O63,,,,,,,,,,,,,,,,,chosen stimuli: images/demo_images/choice_trial_2.png,,,,,6543af72769aacc0bf14521e,09:11:51,27/02/2024
html-keyboard-response,4,8511,0.0-2.0-2.0,,,,delaylearn,learning,feedback_duration_window,BKtGXZLAejeHLqNgPEmezMTZ8O63,BKtGXZLAejeHLqNgPEmezMTZ8O63,,,,,,,,,,,,,,,,,,3000.0,,,,6543af72769aacc0bf14521e,09:11:51,27/02/2024
html-keyboard-response,5,10020,0.0-2.0-3.0,,<div style='margin:auto;width: auto; font-size: 150%'><span style='font-weight: bold; font-size: 100px; color: red;'>0 points!</span><br><br></div>,,delaylearn,learning,feedback_image_window,BKtGXZLAejeHLqNgPEmezMTZ8O63,BKtGXZLAejeHLqNgPEmezMTZ8O63,,,,,,,,,,,,,,,,,,,,,,6543af72769aacc0bf14521e,09:11:51,27/02/2024
html-keyboard-response,6,12513,0.0-3.0,,"<div style=""font-size:100px;"">+</div>",,delaylearn,learning,ITI,BKtGXZLAejeHLqNgPEmezMTZ8O63,BKtGXZLAejeHLqNgPEmezMTZ8O63,,,,,,,,,,,,,,,,,,,2476.0,,,6543af72769aacc0bf14521e,09:11:51,27/02/2024
html-keyboard-response,7,13129,0.0-4.0-0.0,613.3999999761581,"<div style=""display: flex; flex-direction: column; align-items: center; margin-top: -40px;""><img src=""images/demo_images/pattern_1.png"" style=""width: 234px; height: 230px; margin-top: -50px;""><div style=""display: flex; justify-content: space-between; margin-top: 33px;""><img src=""images/demo_images/choice_trial_2.png"" style=""width: 408px; height: 417px; margin-right: 200px;""><img src=""images/demo_images/choice_trial_1.png"" style=""width: 408px; height: 417px;""></div></div>",j,delaylearn,learning,trial,BKtGXZLAejeHLqNgPEmezMTZ8O63,BKtGXZLAejeHLqNgPEmezMTZ8O63,2.0,images/demo_images/choice_trial_2.png,images/demo_images/choice_trial_1.png,images/demo_images/pattern_1.png,j,j,3000.0,2.0,1.0,20.0,1.0,2.0,1.0,1.0,1.0,10.0,,,,,,6543af72769aacc0bf14521e,09:11:51,27/02/2024
html-keyboard-response,8,14144,0.0-4.0-1.0,,"<div style=""display: flex; flex-direction: column; align-items: center; margin-top: -40px;""><img src=""images/demo_images/pattern_1.png"" style=""width: 234px; height: 230px; margin-top: -50px;""><div style=""display: flex; justify-content: space-between; margin-top: 33px;""><img src=""images/demo_images/choice_trial_1.png"" style=""width: 408px; height: 417px; margin-left:608px;""></div></div>",,delaylearn,learning,display_response,BKtGXZLAejeHLqNgPEmezMTZ8O63,BKtGXZLAejeHLqNgPEmezMTZ8O63,,,,,,,,,,,,,,,,,chosen stimuli: images/demo_images/choice_trial_1.png,,,,,6543af72769aacc0bf14521e,09:11:51,27/02/2024
html-keyboard-response,9,17150,0.0-4.0-2.0,,,,delaylearn,learning,feedback_duration_window,BKtGXZLAejeHLqNgPEmezMTZ8O63,BKtGXZLAejeHLqNgPEmezMTZ8O63,,,,,,,,,,,,,,,,,,3000.0,,,,6543af72769aacc0bf14521e,09:11:51,27/02/2024
html-keyboard-response,10,18657,0.0-4.0-3.0,,<div style='margin:auto;width: auto; font-size: 150%'><span style='font-weight: bold; font-size: 100px; color: green;'>+10 points!</span><br><br></div>,,delaylearn,learning,feedback_image_window,BKtGXZLAejeHLqNgPEmezMTZ8O63,BKtGXZLAejeHLqNgPEmezMTZ8O63,,,,,,,,,,,,,,,,,,,,,,6543af72769aacc0bf14521e,09:11:51,27/02/2024
html-keyboard-response,11,20657,0.0-5.0,,"<div style=""font-size:100px;"">+</div>",,delaylearn,learning,ITI,BKtGXZLAejeHLqNgPEmezMTZ8O63,BKtGXZLAejeHLqNgPEmezMTZ8O63,,,,,,,,,,,,,,,,,,,1998.0,,,6543af72769aacc0bf14521e,09:11:51,27/02/2024
html-keyboard-response,12,21536,0.0-6.0-0.0,877.1000000238419,"<div style=""display: flex; flex-direction: column; align-items: center; margin-top: -40px;""><img src=""images/demo_images/pattern_1.png"" style=""width: 234px; height: 230px; margin-top: -50px;""><div style=""display: flex; justify-content: space-between; margin-top: 33px;""><img src=""images/demo_images/choice_trial_1.png"" style=""width: 408px; height: 417px; margin-right: 200px;""><img src=""images/demo_images/choice_trial_2.png"" style=""width: 408px; height: 417px;""></div></div>",f,delaylearn,learning,trial,BKtGXZLAejeHLqNgPEmezMTZ8O63,BKtGXZLAejeHLqNgPEmezMTZ8O63,2.0,images/demo_images/choice_trial_1.png,images/demo_images/choice_trial_2.png,images/demo_images/pattern_1.png,j,f,3000.0,1.0,2.0,20.0,0.0,3.0,1.0,0.0,1.0,10.0,,,,,,6543af72769aacc0bf14521e,09:11:51,27/02/2024
html-keyboard-response,13,22539,0.0-6.0-1.0,,"<div style=""display: flex; flex-direction: column; align-items: center; margin-top: -40px;""><img src=""images/demo_images/pattern_1.png"" style=""width: 234px; height: 230px; margin-top: -50px;""><div style=""display: flex; justify-content: space-between; margin-top: 33px;""><img src=""images/demo_images/choice_trial_1.png"" style=""width: 408px; height: 417px; margin-right: 608px;""></div></div>",,delaylearn,learning,display_response,BKtGXZLAejeHLqNgPEmezMTZ8O63,BKtGXZLAejeHLqNgPEmezMTZ8O63,,,,,,,,,,,,,,,,,chosen stimuli: images/demo_images/choice_trial_1.png,,,,,6543af72769aacc0bf14521e,09:11:51,27/02/2024
html-keyboard-response,14,25551,0.0-6.0-2.0,,,,delaylearn,learning,feedback_duration_window,BKtGXZLAejeHLqNgPEmezMTZ8O63,BKtGXZLAejeHLqNgPEmezMTZ8O63,,,,,,,,,,,,,,,,,,3000.0,,,,6543af72769aacc0bf14521e,09:11:51,27/02/2024
html-keyboard-response,15,27056,0.0-6.0-3.0,,<div style='margin:auto;width: auto; font-size: 150%'><span style='font-weight: bold; font-size: 100px; color: red;'>0 points!</span><br><br></div>,,delaylearn,learning,feedback_image_window,BKtGXZLAejeHLqNgPEmezMTZ8O63,BKtGXZLAejeHLqNgPEmezMTZ8O63,,,,,,,,,,,,,,,,,,,,,,6543af72769aacc0bf14521e,09:11:51,27/02/2024
html-keyboard-response,16,29359,0.0-7.0,,"<div style=""font-size:100px;"">+</div>",,delaylearn,learning,ITI,BKtGXZLAejeHLqNgPEmezMTZ8O63,BKtGXZLAejeHLqNgPEmezMTZ8O63,,,,,,,,,,,,,,,,,,,2301.0,,,6543af72769aacc0bf14521e,09:11:51,27/02/2024
html-keyboard-response,17,31264,0.0-8.0-0.0,1902.2999999523163,"<div style=""display: flex; flex-direction: column; align-items: center; margin-top: -40px;""><img src=""images/demo_images/pattern_1.png"" style=""width: 234px; height: 230px; margin-top: -50px;""><div style=""display: flex; justify-content: space-between; margin-top: 33px;""><img src=""images/demo_images/choice_trial_1.png"" style=""width: 408px; height: 417px; margin-right: 200px;""><img src=""images/demo_images/choice_trial_2.png"" style=""width: 408px; height: 417px;""></div></div>",j,delaylearn,learning,trial,BKtGXZLAejeHLqNgPEmezMTZ8O63,BKtGXZLAejeHLqNgPEmezMTZ8O63,2.0,images/demo_images/choice_trial_1.png,images/demo_images/choice_trial_2.png,images/demo_images/pattern_1.png,f,f,3000.0,1.0,2.0,20.0,0.0,4.0,0.0,0.0,2.0,10.0,,,,,,6543af72769aacc0bf14521e,09:11:51,27/02/2024
html-keyboard-response,18,32281,0.0-8.0-1.0,,"<div style=""display: flex; flex-direction: column; align-items: center; margin-top: -40px;""><img src=""images/demo_images/pattern_1.png"" style=""width: 234px; height: 230px; margin-top: -50px;""><div style=""display: flex; justify-content: space-between; margin-top: 33px;""><img src=""images/demo_images/choice_trial_2.png"" style=""width: 408px; height: 417px; margin-left:608px;""></div></div>",,delaylearn,learning,display_response,BKtGXZLAejeHLqNgPEmezMTZ8O63,BKtGXZLAejeHLqNgPEmezMTZ8O63,,,,,,,,,,,,,,,,,chosen stimuli: images/demo_images/choice_trial_2.png,,,,,6543af72769aacc0bf14521e,09:11:51,27/02/2024
html-keyboard-response,19,35286,0.0-8.0-2.0,,,,delaylearn,learning,feedback_duration_window,BKtGXZLAejeHLqNgPEmezMTZ8O63,BKtGXZLAejeHLqNgPEmezMTZ8O63,,,,,,,,,,,,,,,,,,3000.0,,,,6543af72769aacc0bf14521e,09:11:51,27/02/2024
html-keyboard-response,20,36803,0.0-8.0-3.0,,<div style='margin:auto;width: auto; font-size: 150%'><span style='font-weight: bold; font-size: 100px; color: red;'>0 points!</span><br><br></div>,,delaylearn,learning,feedback_image_window,BKtGXZLAejeHLqNgPEmezMTZ8O63,BKtGXZLAejeHLqNgPEmezMTZ8O63,,,,,,,,,,,,,,,,,,,,,,6543af72769aacc0bf14521e,09:11:51,27/02/2024
html-keyboard-response,21,37317,0.0-9.0-0.0,,,,,,mood_trial_fixation,BKtGXZLAejeHLqNgPEmezMTZ8O63,,,,,,,,,,,,,,,,,,,,,,,6543af72769aacc0bf14521e,09:11:51,27/02/2024
lmdlab-html-vas-response,22,43045,0.0-9.0-1.0,4705.0,How happy are you right now?,0.7488666582052603,delaylearn,learning,mood_trial,BKtGXZLAejeHLqNgPEmezMTZ8O63,BKtGXZLAejeHLqNgPEmezMTZ8O63,,,,,,,,,,,,,,,,,,,,"['Very unhappy', 'Very happy']",,6543af72769aacc0bf14521e,09:11:51,27/02/2024
html-keyboard-response,23,45083,0.0-10.0,,"<div style=""font-size:100px;"">+</div>",,delaylearn,learning,ITI,BKtGXZLAejeHLqNgPEmezMTZ8O63,BKtGXZLAejeHLqNgPEmezMTZ8O63,,,,,,,,,,,,,,,,,,,2023.0,,,6543af72769aacc0bf14521e,09:11:51,27/02/2024
html-keyboard-response,24,46919,0.0-11.0-0.0,1833.5999999046326,"<div style=""display: flex; flex-direction: column; align-items: center; margin-top: -40px;""><img src=""images/demo_images/pattern_1.png"" style=""width: 234px; height: 230px; margin-top: -50px;""><div style=""display: flex; justify-content: space-between; margin-top: 33px;""><img src=""images/demo_images/choice_trial_2.png"" style=""width: 408px; height: 417px; margin-right: 200px;""><img src=""images/demo_images/choice_trial_1.png"" style=""width: 408px; height: 417px;""></div></div>",j,delaylearn,learning,trial,BKtGXZLAejeHLqNgPEmezMTZ8O63,BKtGXZLAejeHLqNgPEmezMTZ8O63,2.0,images/demo_images/choice_trial_2.png,images/demo_images/choice_trial_1.png,images/demo_images/pattern_1.png,j,j,3000.0,2.0,1.0,20.0,1.0,5.0,1.0,1.0,1.0,20.0,,,,,,6543af72769aacc0bf14521e,09:11:51,27/02/2024
html-keyboard-response,25,47928,0.0-11.0-1.0,,"<div style=""display: flex; flex-direction: column; align-items: center; margin-top: -40px;""><img src=""images/demo_images/pattern_1.png"" style=""width: 234px; height: 230px; margin-top: -50px;""><div style=""display: flex; justify-content: space-between; margin-top: 33px;""><img src=""images/demo_images/choice_trial_1.png"" style=""width: 408px; height: 417px; margin-left:608px;""></div></div>",,delaylearn,learning,display_response,BKtGXZLAejeHLqNgPEmezMTZ8O63,BKtGXZLAejeHLqNgPEmezMTZ8O63,,,,,,,,,,,,,,,,,chosen stimuli: images/demo_images/choice_trial_1.png,,,,,6543af72769aacc0bf14521e,09:11:51,27/02/2024
html-keyboard-response,26,50942,0.0-11.0-2.0,,,,delaylearn,learning,feedback_duration_window,BKtGXZLAejeHLqNgPEmezMTZ8O63,BKtGXZLAejeHLqNgPEmezMTZ8O63,,,,,,,,,,,,,,,,,,3000.0,,,,6543af72769aacc0bf14521e,09:11:51,27/02/2024
html-keyboard-response,27,52450,0.0-11.0-3.0,,<div style='margin:auto;width: auto; font-size: 150%'><span style='font-weight: bold; font-size: 100px; color: green;'>+10 points!</span><br><br></div>,,delaylearn,learning,feedback_image_window,BKtGXZLAejeHLqNgPEmezMTZ8O63,BKtGXZLAejeHLqNgPEmezMTZ8O63,,,,,,,,,,,,,,,,,,,,,,6543af72769aacc0bf14521e,09:11:51,27/02/2024
html-keyboard-response,28,54736,0.0-12.0,,"<div style=""font-size:100px;"">+</div>",,delaylearn,learning,ITI,BKtGXZLAejeHLqNgPEmezMTZ8O63,BKtGXZLAejeHLqNgPEmezMTZ8O63,,,,,,,,,,,,,,,,,,,2276.0,,,6543af72769aacc0bf14521e,09:11:51,27/02/2024
html-keyboard-response,29,55778,0.0-13.0-0.0,1039.2000000476837,"<div style=""display: flex; flex-direction: column; align-items: center; margin-top: -40px;""><img src=""images/demo_images/pattern_1.png"" style=""width: 234px; height: 230px; margin-top: -50px;""><div style=""display: flex; justify-content: space-between; margin-top: 33px;""><img src=""images/demo_images/choice_trial_1.png"" style=""width: 408px; height: 417px; margin-right: 200px;""><img src=""images/demo_images/choice_trial_2.png"" style=""width: 408px; height: 417px;""></div></div>",f,delaylearn,learning,trial,BKtGXZLAejeHLqNgPEmezMTZ8O63,BKtGXZLAejeHLqNgPEmezMTZ8O63,2.0,images/demo_images/choice_trial_1.png,images/demo_images/choice_trial_2.png,images/demo_images/pattern_1.png,f,f,3000.0,1.0,2.0,20.0,0.0,6.0,1.0,1.0,1.0,30.0,,,,,,6543af72769aacc0bf14521e,09:11:51,27/02/2024
html-keyboard-response,30,56796,0.0-13.0-1.0,,"<div style=""display: flex; flex-direction: column; align-items: center; margin-top: -40px;""><img src=""images/demo_images/pattern_1.png"" style=""width: 234px; height: 230px; margin-top: -50px;""><div style=""display: flex; justify-content: space-between; margin-top: 33px;""><img src=""images/demo_images/choice_trial_1.png"" style=""width: 408px; height: 417px; margin-right: 608px;""></div></div>",,delaylearn,learning,display_response,BKtGXZLAejeHLqNgPEmezMTZ8O63,BKtGXZLAejeHLqNgPEmezMTZ8O63,,,,,,,,,,,,,,,,,chosen stimuli: images/demo_images/choice_trial_1.png,,,,,6543af72769aacc0bf14521e,09:11:51,27/02/2024
html-keyboard-response,31,59807,0.0-13.0-2.0,,,,delaylearn,learning,feedback_duration_window,BKtGXZLAejeHLqNgPEmezMTZ8O63,BKtGXZLAejeHLqNgPEmezMTZ8O63,,,,,,,,,,,,,,,,,,3000.0,,,,6543af72769aacc0bf14521e,09:11:51,27/02/2024
html-keyboard-response,32,61324,0.0-13.0-3.0,,<div style='margin:auto;width: auto; font-size: 150%'><span style='font-weight: bold; font-size: 100px; color: green;'>+10 points!</span><br><br></div>,,delaylearn,learning,feedback_image_window,BKtGXZLAejeHLqNgPEmezMTZ8O63,BKtGXZLAejeHLqNgPEmezMTZ8O63,,,,,,,,,,,,,,,,,,,,,,6543af72769aacc0bf14521e,09:11:51,27/02/2024
html-button-response,33,63482,0.0-14.0,2156.100000023842,"
  <div style=""display: flex; align-items: center; justify-content: center; height: 80vh;"">
  <div>
          <img src=""images/inst_demo_finish.png"" style=""width: 80vw; height:auto;"">
          <br><br>
      </div>
      <br><br>
  </div>",0,,,,BKtGXZLAejeHLqNgPEmezMTZ8O63,,,,,,,,,,,,,,,,,,,,,,,6543af72769aacc0bf14521e,09:11:51,27/02/2024
html-keyboard-response,34,69237,0.0-15.0,5753.5,"
  <div style=""display: flex; align-items: center; justify-content: center; height: 80vh;"">
  <div>
          <img src=""images/inst_6.png"" style=""width: 80vw; height:auto;"">
          <br><br>
      </div>
      <br><br>
  </div>",f,,,,BKtGXZLAejeHLqNgPEmezMTZ8O63,,,,,,,,,,,,,,,,,,,,,,,6543af72769aacc0bf14521e,09:11:51,27/02/2024
html-keyboard-response,35,72239,0.0-16.0,,"<div style=""font-size:100px;"">+</div>",,delaylearn,learning,pre_fixation,BKtGXZLAejeHLqNgPEmezMTZ8O63,,,,,,,,,,,,,,,,,,,,,,,6543af72769aacc0bf14521e,09:11:51,27/02/2024
html-keyboard-response,36,74700,0.0-17.0,,"<div style=""font-size:100px;"">+</div>",,delaylearn,learning,ITI,BKtGXZLAejeHLqNgPEmezMTZ8O63,BKtGXZLAejeHLqNgPEmezMTZ8O63,,,,,,,,,,,,,,,,,,,2457.0,,,6543af72769aacc0bf14521e,09:11:51,27/02/2024
html-keyboard-response,37,76153,0.0-18.0-0.0,1452.2000000476837,"<div style=""display: flex; flex-direction: column; align-items: center; margin-top: -40px;""><img src=""images/pattern_3.png"" style=""width: 234px; height: 230px; margin-top: -50px;""><div style=""display: flex; justify-content: space-between; margin-top: 33px;""><img src=""images/choice_trial_12.png"" style=""width: 408px; height: 417px; margin-right: 200px;""><img src=""images/choice_trial_14.png"" style=""width: 408px; height: 417px;""></div></div>",f,delaylearn,learning,trial,BKtGXZLAejeHLqNgPEmezMTZ8O63,BKtGXZLAejeHLqNgPEmezMTZ8O63,2.0,images/choice_trial_12.png,images/choice_trial_14.png,images/pattern_3.png,f,f,7000.0,12.0,14.0,2.0,0.0,7.0,1.0,1.0,12.0,40.0,,,,,,6543af72769aacc0bf14521e,09:11:51,27/02/2024
html-keyboard-response,38,77161,0.0-18.0-1.0,,"<div style=""display: flex; flex-direction: column; align-items: center; margin-top: -40px;""><img src=""images/pattern_3.png"" style=""width: 234px; height: 230px; margin-top: -50px;""><div style=""display: flex; justify-content: space-between; margin-top: 33px;""><img src=""images/choice_trial_12.png"" style=""width: 408px; height: 417px; margin-right: 608px;""></div></div>",,delaylearn,learning,display_response,BKtGXZLAejeHLqNgPEmezMTZ8O63,BKtGXZLAejeHLqNgPEmezMTZ8O63,,,,,,,,,,,,,,,,,chosen stimuli: images/choice_trial_12.png,,,,,6543af72769aacc0bf14521e,09:11:51,27/02/2024
html-keyboard-response,39,84169,0.0-18.0-2.0,,,,delaylearn,learning,feedback_duration_window,BKtGXZLAejeHLqNgPEmezMTZ8O63,BKtGXZLAejeHLqNgPEmezMTZ8O63,,,,,,,,,,,,,,,,,,7000.0,,,,6543af72769aacc0bf14521e,09:11:51,27/02/2024
html-keyboard-response,40,85679,0.0-18.0-3.0,,<div style='margin:auto;width: auto; font-size: 150%'><span style='font-weight: bold; font-size: 100px; color: green;'>+10 points!</span><br><br></div>,,delaylearn,learning,feedback_image_window,BKtGXZLAejeHLqNgPEmezMTZ8O63,BKtGXZLAejeHLqNgPEmezMTZ8O63,,,,,,,,,,,,,,,,,,,,,,6543af72769aacc0bf14521e,09:11:51,27/02/2024
html-keyboard-response,41,87652,0.0-19.0,,"<div style=""font-size:100px;"">+</div>",,delaylearn,learning,ITI,BKtGXZLAejeHLqNgPEmezMTZ8O63,BKtGXZLAejeHLqNgPEmezMTZ8O63,,,,,,,,,,,,,,,,,,,1963.0,,,6543af72769aacc0bf14521e,09:11:51,27/02/2024
html-keyboard-response,42,89356,0.0-20.0-0.0,1702.1000000238419,"<div style=""display: flex; flex-direction: column; align-items: center; margin-top: -40px;""><img src=""images/pattern_7.png"" style=""width: 234px; height: 230px; margin-top: -50px;""><div style=""display: flex; justify-content: space-between; margin-top: 33px;""><img src=""images/choice_trial_15.png"" style=""width: 408px; height: 417px; margin-right: 200px;""><img src=""images/choice_trial_8.png"" style=""width: 408px; height: 417px;""></div></div>",j,delaylearn,learning,trial,BKtGXZLAejeHLqNgPEmezMTZ8O63,BKtGXZLAejeHLqNgPEmezMTZ8O63,2.0,images/choice_trial_15.png,images/choice_trial_8.png,images/pattern_7.png,j,j,750.0,15.0,8.0,6.0,1.0,8.0,1.0,1.0,8.0,50.0,,,,,,6543af72769aacc0bf14521e,09:11:51,27/02/2024
html-keyboard-response,43,90366,0.0-20.0-1.0,,"<div style=""display: flex; flex-direction: column; align-items: center; margin-top: -40px;""><img src=""images/pattern_7.png"" style=""width: 234px; height: 230px; margin-top: -50px;""><div style=""display: flex; justify-content: space-between; margin-top: 33px;""><img src=""images/choice_trial_8.png"" style=""width: 408px; height: 417px; margin-left:608px;""></div></div>",,delaylearn,learning,display_response,BKtGXZLAejeHLqNgPEmezMTZ8O63,BKtGXZLAejeHLqNgPEmezMTZ8O63,,,,,,,,,,,,,,,,,chosen stimuli: images/choice_trial_8.png,,,,,6543af72769aacc0bf14521e,09:11:51,27/02/2024
html-keyboard-response,44,91120,0.0-20.0-2.0,,,,delaylearn,learning,feedback_duration_window,BKtGXZLAejeHLqNgPEmezMTZ8O63,BKtGXZLAejeHLqNgPEmezMTZ8O63,,,,,,,,,,,,,,,,,,750.0,,,,6543af72769aacc0bf14521e,09:11:51,27/02/2024
html-keyboard-response,45,92622,0.0-20.0-3.0,,<div style='margin:auto;width: auto; font-size: 150%'><span style='font-weight: bold; font-size: 100px; color: green;'>+10 points!</span><br><br></div>,,delaylearn,learning,feedback_image_window,BKtGXZLAejeHLqNgPEmezMTZ8O63,BKtGXZLAejeHLqNgPEmezMTZ8O63,,,,,,,,,,,,,,,,,,,,,,6543af72769aacc0bf14521e,09:11:51,27/02/2024
html-keyboard-response,46,94837,0.0-21.0,,"<div style=""font-size:100px;"">+</div>",,delaylearn,learning,ITI,BKtGXZLAejeHLqNgPEmezMTZ8O63,BKtGXZLAejeHLqNgPEmezMTZ8O63,,,,,,,,,,,,,,,,,,,2210.0,,,6543af72769aacc0bf14521e,09:11:51,27/02/2024
html-keyboard-response,47,96805,0.0-22.0-0.0,1966.1000000238419,"<div style=""display: flex; flex-direction: column; align-items: center; margin-top: -40px;""><img src=""images/pattern_4.png"" style=""width: 234px; height: 230px; margin-top: -50px;""><div style=""display: flex; justify-content: space-between; margin-top: 33px;""><img src=""images/choice_trial_4.png"" style=""width: 408px; height: 417px; margin-right: 200px;""><img src=""images/choice_trial_16.png"" style=""width: 408px; height: 417px;""></div></div>",f,delaylearn,learning,trial,BKtGXZLAejeHLqNgPEmezMTZ8O63,BKtGXZLAejeHLqNgPEmezMTZ8O63,2.0,images/choice_trial_4.png,images/choice_trial_16.png,images/pattern_4.png,f,f,7000.0,4.0,16.0,3.0,0.0,9.0,1.0,1.0,4.0,60.0,,,,,,6543af72769aacc0bf14521e,09:11:51,27/02/2024
html-keyboard-response,48,97820,0.0-22.0-1.0,,"<div style=""display: flex; flex-direction: column; align-items: center; margin-top: -40px;""><img src=""images/pattern_4.png"" style=""width: 234px; height: 230px; margin-top: -50px;""><div style=""display: flex; justify-content: space-between; margin-top: 33px;""><img src=""images/choice_trial_4.png"" style=""width: 408px; height: 417px; margin-right: 608px;""></div></div>",,delaylearn,learning,display_response,BKtGXZLAejeHLqNgPEmezMTZ8O63,BKtGXZLAejeHLqNgPEmezMTZ8O63,,,,,,,,,,,,,,,,,chosen stimuli: images/choice_trial_4.png,,,,,6543af72769aacc0bf14521e,09:11:51,27/02/2024
html-keyboard-response,49,104833,0.0-22.0-2.0,,,,delaylearn,learning,feedback_duration_window,BKtGXZLAejeHLqNgPEmezMTZ8O63,BKtGXZLAejeHLqNgPEmezMTZ8O63,,,,,,,,,,,,,,,,,,7000.0,,,,6543af72769aacc0bf14521e,09:11:51,27/02/2024
html-keyboard-response,50,106344,0.0-22.0-3.0,,<div style='margin:auto;width: auto; font-size: 150%'><span style='font-weight: bold; font-size: 100px; color: green;'>+10 points!</span><br><br></div>,,delaylearn,learning,feedback_image_window,BKtGXZLAejeHLqNgPEmezMTZ8O63,BKtGXZLAejeHLqNgPEmezMTZ8O63,,,,,,,,,,,,,,,,,,,,,,6543af72769aacc0bf14521e,09:11:51,27/02/2024
html-keyboard-response,51,107906,0.0-23.0,,"<div style=""font-size:100px;"">+</div>",,delaylearn,learning,ITI,BKtGXZLAejeHLqNgPEmezMTZ8O63,BKtGXZLAejeHLqNgPEmezMTZ8O63,,,,,,,,,,,,,,,,,,,1547.0,,,6543af72769aacc0bf14521e,09:11:51,27/02/2024
html-keyboard-response,52,110036,0.0-24.0-0.0,2128.7000000476837,"<div style=""display: flex; flex-direction: column; align-items: center; margin-top: -40px;""><img src=""images/pattern_5.png"" style=""width: 234px; height: 230px; margin-top: -50px;""><div style=""display: flex; justify-content: space-between; margin-top: 33px;""><img src=""images/choice_trial_9.png"" style=""width: 408px; height: 417px; margin-right: 200px;""><img src=""images/choice_trial_2.png"" style=""width: 408px; height: 417px;""></div></div>",f,delaylearn,learning,trial,BKtGXZLAejeHLqNgPEmezMTZ8O63,BKtGXZLAejeHLqNgPEmezMTZ8O63,2.0,images/choice_trial_9.png,images/choice_trial_2.png,images/pattern_5.png,j,j,750.0,9.0,2.0,4.0,1.0,10.0,0.0,0.0,9.0,60.0,,,,,,6543af72769aacc0bf14521e,09:11:51,27/02/2024
html-keyboard-response,53,111041,0.0-24.0-1.0,,"<div style=""display: flex; flex-direction: column; align-items: center; margin-top: -40px;""><img src=""images/pattern_5.png"" style=""width: 234px; height: 230px; margin-top: -50px;""><div style=""display: flex; justify-content: space-between; margin-top: 33px;""><img src=""images/choice_trial_9.png"" style=""width: 408px; height: 417px; margin-right: 608px;""></div></div>",,delaylearn,learning,display_response,BKtGXZLAejeHLqNgPEmezMTZ8O63,BKtGXZLAejeHLqNgPEmezMTZ8O63,,,,,,,,,,,,,,,,,chosen stimuli: images/choice_trial_9.png,,,,,6543af72769aacc0bf14521e,09:11:51,27/02/2024
html-keyboard-response,54,111807,0.0-24.0-2.0,,,,delaylearn,learning,feedback_duration_window,BKtGXZLAejeHLqNgPEmezMTZ8O63,BKtGXZLAejeHLqNgPEmezMTZ8O63,,,,,,,,,,,,,,,,,,750.0,,,,6543af72769aacc0bf14521e,09:11:51,27/02/2024
html-keyboard-response,55,113310,0.0-24.0-3.0,,<div style='margin:auto;width: auto; font-size: 150%'><span style='font-weight: bold; font-size: 100px; color: red;'>0 points!</span><br><br></div>,,delaylearn,learning,feedback_image_window,BKtGXZLAejeHLqNgPEmezMTZ8O63,BKtGXZLAejeHLqNgPEmezMTZ8O63,,,,,,,,,,,,,,,,,,,,,,6543af72769aacc0bf14521e,09:11:51,27/02/2024
html-keyboard-response,56,115091,0.0-25.0,,"<div style=""font-size:100px;"">+</div>",,delaylearn,learning,ITI,BKtGXZLAejeHLqNgPEmezMTZ8O63,BKtGXZLAejeHLqNgPEmezMTZ8O63,,,,,,,,,,,,,,,,,,,1778.0,,,6543af72769aacc0bf14521e,09:11:51,27/02/2024
html-keyboard-response,57,116980,0.0-26.0-0.0,1886.1000000238419,"<div style=""display: flex; flex-direction: column; align-items: center; margin-top: -40px;""><img src=""images/pattern_6.png"" style=""width: 234px; height: 230px; margin-top: -50px;""><div style=""display: flex; justify-content: space-between; margin-top: 33px;""><img src=""images/choice_trial_11.png"" style=""width: 408px; height: 417px; margin-right: 200px;""><img src=""images/choice_trial_5.png"" style=""width: 408px; height: 417px;""></div></div>",j,delaylearn,learning,trial,BKtGXZLAejeHLqNgPEmezMTZ8O63,BKtGXZLAejeHLqNgPEmezMTZ8O63,2.0,images/choice_trial_11.png,images/choice_trial_5.png,images/pattern_6.png,j,f,750.0,11.0,5.0,5.0,0.0,11.0,0.0,1.0,5.0,70.0,,,,,,6543af72769aacc0bf14521e,09:11:51,27/02/2024
html-keyboard-response,58,117991,0.0-26.0-1.0,,"<div style=""display: flex; flex-direction: column; align-items: center; margin-top: -40px;""><img src=""images/pattern_6.png"" style=""width: 234px; height: 230px; margin-top: -50px;""><div style=""display: flex; justify-content: space-between; margin-top: 33px;""><img src=""images/choice_trial_5.png"" style=""width: 408px; height: 417px; margin-left:608px;""></div></div>",,delaylearn,learning,display_response,BKtGXZLAejeHLqNgPEmezMTZ8O63,BKtGXZLAejeHLqNgPEmezMTZ8O63,,,,,,,,,,,,,,,,,chosen stimuli: images/choice_trial_5.png,,,,,6543af72769aacc0bf14521e,09:11:51,27/02/2024
html-keyboard-response,59,118758,0.0-26.0-2.0,,,,delaylearn,learning,feedback_duration_window,BKtGXZLAejeHLqNgPEmezMTZ8O63,BKtGXZLAejeHLqNgPEmezMTZ8O63,,,,,,,,,,,,,,,,,,750.0,,,,6543af72769aacc0bf14521e,09:11:51,27/02/2024
html-keyboard-response,60,120263,0.0-26.0-3.0,,<div style='margin:auto;width: auto; font-size: 150%'><span style='font-weight: bold; font-size: 100px; color: green;'>+10 points!</span><br><br></div>,,delaylearn,learning,feedback_image_window,BKtGXZLAejeHLqNgPEmezMTZ8O63,BKtGXZLAejeHLqNgPEmezMTZ8O63,,,,,,,,,,,,,,,,,,,,,,6543af72769aacc0bf14521e,09:11:51,27/02/2024
html-keyboard-response,61,120777,0.0-27.0-0.0,,,,,,mood_trial_fixation,BKtGXZLAejeHLqNgPEmezMTZ8O63,,,,,,,,,,,,,,,,,,,,,,,6543af72769aacc0bf14521e,09:11:51,27/02/2024
lmdlab-html-vas-response,62,125458,0.0-27.0-1.0,3663.0,How happy are you right now?,0.7681567807535816,delaylearn,learning,mood_trial,BKtGXZLAejeHLqNgPEmezMTZ8O63,BKtGXZLAejeHLqNgPEmezMTZ8O63,,,,,,,,,,,,,,,,,,,,"['Very unhappy', 'Very happy']",,6543af72769aacc0bf14521e,09:11:51,27/02/2024
html-keyboard-response,63,127253,0.0-28.0,,"<div style=""font-size:100px;"">+</div>",,delaylearn,learning,ITI,BKtGXZLAejeHLqNgPEmezMTZ8O63,BKtGXZLAejeHLqNgPEmezMTZ8O63,,,,,,,,,,,,,,,,,,,1785.0,,,6543af72769aacc0bf14521e,09:11:51,27/02/2024
html-keyboard-response,64,128915,0.0-29.0-0.0,1660.0,"<div style=""display: flex; flex-direction: column; align-items: center; margin-top: -40px;""><img src=""images/pattern_1.png"" style=""width: 234px; height: 230px; margin-top: -50px;""><div style=""display: flex; justify-content: space-between; margin-top: 33px;""><img src=""images/choice_trial_10.png"" style=""width: 408px; height: 417px; margin-right: 200px;""><img src=""images/choice_trial_3.png"" style=""width: 408px; height: 417px;""></div></div>",j,delaylearn,learning,trial,BKtGXZLAejeHLqNgPEmezMTZ8O63,BKtGXZLAejeHLqNgPEmezMTZ8O63,2.0,images/choice_trial_10.png,images/choice_trial_3.png,images/pattern_1.png,j,j,7000.0,10.0,3.0,1.0,1.0,12.0,1.0,1.0,3.0,80.0,,,,,,6543af72769aacc0bf14521e,09:11:51,27/02/2024
html-keyboard-response,65,129923,0.0-29.0-1.0,,"<div style=""display: flex; flex-direction: column; align-items: center; margin-top: -40px;""><img src=""images/pattern_1.png"" style=""width: 234px; height: 230px; margin-top: -50px;""><div style=""display: flex; justify-content: space-between; margin-top: 33px;""><img src=""images/choice_trial_3.png"" style=""width: 408px; height: 417px; margin-left:608px;""></div></div>",,delaylearn,learning,display_response,BKtGXZLAejeHLqNgPEmezMTZ8O63,BKtGXZLAejeHLqNgPEmezMTZ8O63,,,,,,,,,,,,,,,,,chosen stimuli: images/choice_trial_3.png,,,,,6543af72769aacc0bf14521e,09:11:51,27/02/2024
html-keyboard-response,66,136940,0.0-29.0-2.0,,,,delaylearn,learning,feedback_duration_window,BKtGXZLAejeHLqNgPEmezMTZ8O63,BKtGXZLAejeHLqNgPEmezMTZ8O63,,,,,,,,,,,,,,,,,,7000.0,,,,6543af72769aacc0bf14521e,09:11:51,27/02/2024
html-keyboard-response,67,138446,0.0-29.0-3.0,,<div style='margin:auto;width: auto; font-size: 150%'><span style='font-weight: bold; font-size: 100px; color: green;'>+10 points!</span><br><br></div>,,delaylearn,learning,feedback_image_window,BKtGXZLAejeHLqNgPEmezMTZ8O63,BKtGXZLAejeHLqNgPEmezMTZ8O63,,,,,,,,,,,,,,,,,,,,,,6543af72769aacc0bf14521e,09:11:51,27/02/2024
html-keyboard-response,68,140257,0.0-30.0,,"<div style=""font-size:100px;"">+</div>",,delaylearn,learning,ITI,BKtGXZLAejeHLqNgPEmezMTZ8O63,BKtGXZLAejeHLqNgPEmezMTZ8O63,,,,,,,,,,,,,,,,,,,1804.0,,,6543af72769aacc0bf14521e,09:11:51,27/02/2024
html-keyboard-response,69,142206,0.0-31.0-0.0,1946.3999999761581,"<div style=""display: flex; flex-direction: column; align-items: center; margin-top: -40px;""><img src=""images/pattern_3.png"" style=""width: 234px; height: 230px; margin-top: -50px;""><div style=""display: flex; justify-content: space-between; margin-top: 33px;""><img src=""images/choice_trial_14.png"" style=""width: 408px; height: 417px; margin-right: 200px;""><img src=""images/choice_trial_12.png"" style=""width: 408px; height: 417px;""></div></div>",j,delaylearn,learning,trial,BKtGXZLAejeHLqNgPEmezMTZ8O63,BKtGXZLAejeHLqNgPEmezMTZ8O63,2.0,images/choice_trial_14.png,images/choice_trial_12.png,images/pattern_3.png,f,j,7000.0,14.0,12.0,2.0,1.0,13.0,1.0,0.0,12.0,80.0,,,,,,6543af72769aacc0bf14521e,09:11:51,27/02/2024
html-keyboard-response,70,143220,0.0-31.0-1.0,,"<div style=""display: flex; flex-direction: column; align-items: center; margin-top: -40px;""><img src=""images/pattern_3.png"" style=""width: 234px; height: 230px; margin-top: -50px;""><div style=""display: flex; justify-content: space-between; margin-top: 33px;""><img src=""images/choice_trial_12.png"" style=""width: 408px; height: 417px; margin-left:608px;""></div></div>",,delaylearn,learning,display_response,BKtGXZLAejeHLqNgPEmezMTZ8O63,BKtGXZLAejeHLqNgPEmezMTZ8O63,,,,,,,,,,,,,,,,,chosen stimuli: images/choice_trial_12.png,,,,,6543af72769aacc0bf14521e,09:11:51,27/02/2024
html-keyboard-response,71,150233,0.0-31.0-2.0,,,,delaylearn,learning,feedback_duration_window,BKtGXZLAejeHLqNgPEmezMTZ8O63,BKtGXZLAejeHLqNgPEmezMTZ8O63,,,,,,,,,,,,,,,,,,7000.0,,,,6543af72769aacc0bf14521e,09:11:51,27/02/2024
html-keyboard-response,72,151749,0.0-31.0-3.0,,<div style='margin:auto;width: auto; font-size: 150%'><span style='font-weight: bold; font-size: 100px; color: red;'>0 points!</span><br><br></div>,,delaylearn,learning,feedback_image_window,BKtGXZLAejeHLqNgPEmezMTZ8O63,BKtGXZLAejeHLqNgPEmezMTZ8O63,,,,,,,,,,,,,,,,,,,,,,6543af72769aacc0bf14521e,09:11:51,27/02/2024
html-keyboard-response,73,153996,0.0-32.0,,"<div style=""font-size:100px;"">+</div>",,delaylearn,learning,ITI,BKtGXZLAejeHLqNgPEmezMTZ8O63,BKtGXZLAejeHLqNgPEmezMTZ8O63,,,,,,,,,,,,,,,,,,,2234.0,,,6543af72769aacc0bf14521e,09:11:51,27/02/2024
html-keyboard-response,74,156743,0.0-33.0-0.0,2744.6999999284744,"<div style=""display: flex; flex-direction: column; align-items: center; margin-top: -40px;""><img src=""images/pattern_5.png"" style=""width: 234px; height: 230px; margin-top: -50px;""><div style=""display: flex; justify-content: space-between; margin-top: 33px;""><img src=""images/choice_trial_2.png"" style=""width: 408px; height: 417px; margin-right: 200px;""><img src=""images/choice_trial_9.png"" style=""width: 408px; height: 417px;""></div></div>",j,delaylearn,learning,trial,BKtGXZLAejeHLqNgPEmezMTZ8O63,BKtGXZLAejeHLqNgPEmezMTZ8O63,2.0,images/choice_trial_2.png,images/choice_trial_9.png,images/pattern_5.png,f,f,750.0,2.0,9.0,4.0,0.0,14.0,0.0,0.0,9.0,80.0,,,,,,6543af72769aacc0bf14521e,09:11:51,27/02/2024
html-keyboard-response,75,157746,0.0-33.0-1.0,,"<div style=""display: flex; flex-direction: column; align-items: center; margin-top: -40px;""><img src=""images/pattern_5.png"" style=""width: 234px; height: 230px; margin-top: -50px;""><div style=""display: flex; justify-content: space-between; margin-top: 33px;""><img src=""images/choice_trial_9.png"" style=""width: 408px; height: 417px; margin-left:608px;""></div></div>",,delaylearn,learning,display_response,BKtGXZLAejeHLqNgPEmezMTZ8O63,BKtGXZLAejeHLqNgPEmezMTZ8O63,,,,,,,,,,,,,,,,,chosen stimuli: images/choice_trial_9.png,,,,,6543af72769aacc0bf14521e,09:11:51,27/02/2024
html-keyboard-response,76,158510,0.0-33.0-2.0,,,,delaylearn,learning,feedback_duration_window,BKtGXZLAejeHLqNgPEmezMTZ8O63,BKtGXZLAejeHLqNgPEmezMTZ8O63,,,,,,,,,,,,,,,,,,750.0,,,,6543af72769aacc0bf14521e,09:11:51,27/02/2024
html-keyboard-response,77,160019,0.0-33.0-3.0,,<div style='margin:auto;width: auto; font-size: 150%'><span style='font-weight: bold; font-size: 100px; color: red;'>0 points!</span><br><br></div>,,delaylearn,learning,feedback_image_window,BKtGXZLAejeHLqNgPEmezMTZ8O63,BKtGXZLAejeHLqNgPEmezMTZ8O63,,,,,,,,,,,,,,,,,,,,,,6543af72769aacc0bf14521e,09:11:51,27/02/2024
html-keyboard-response,78,160523,0.0-34.0-0.0,,,,,,mood_trial_fixation,BKtGXZLAejeHLqNgPEmezMTZ8O63,,,,,,,,,,,,,,,,,,,,,,,6543af72769aacc0bf14521e,09:11:51,27/02/2024
lmdlab-html-vas-response,79,164942,0.0-34.0-1.0,3410.0,How happy are you right now?,0.6466290086991577,delaylearn,learning,mood_trial,BKtGXZLAejeHLqNgPEmezMTZ8O63,BKtGXZLAejeHLqNgPEmezMTZ8O63,,,,,,,,,,,,,,,,,,,,"['Very unhappy', 'Very happy']",,6543af72769aacc0bf14521e,09:11:51,27/02/2024
html-keyboard-response,80,167394,0.0-35.0,,"<div style=""font-size:100px;"">+</div>",,delaylearn,learning,ITI,BKtGXZLAejeHLqNgPEmezMTZ8O63,BKtGXZLAejeHLqNgPEmezMTZ8O63,,,,,,,,,,,,,,,,,,,2442.0,,,6543af72769aacc0bf14521e,09:11:51,27/02/2024
html-keyboard-response,81,168677,0.0-36.0-0.0,1279.7999999523163,"<div style=""display: flex; flex-direction: column; align-items: center; margin-top: -40px;""><img src=""images/pattern_6.png"" style=""width: 234px; height: 230px; margin-top: -50px;""><div style=""display: flex; justify-content: space-between; margin-top: 33px;""><img src=""images/choice_trial_11.png"" style=""width: 408px; height: 417px; margin-right: 200px;""><img src=""images/choice_trial_5.png"" style=""width: 408px; height: 417px;""></div></div>",f,delaylearn,learning,trial,BKtGXZLAejeHLqNgPEmezMTZ8O63,BKtGXZLAejeHLqNgPEmezMTZ8O63,2.0,images/choice_trial_11.png,images/choice_trial_5.png,images/pattern_6.png,f,f,750.0,11.0,5.0,5.0,0.0,15.0,1.0,1.0,11.0,90.0,,,,,,6543af72769aacc0bf14521e,09:11:51,27/02/2024
html-keyboard-response,82,169686,0.0-36.0-1.0,,"<div style=""display: flex; flex-direction: column; align-items: center; margin-top: -40px;""><img src=""images/pattern_6.png"" style=""width: 234px; height: 230px; margin-top: -50px;""><div style=""display: flex; justify-content: space-between; margin-top: 33px;""><img src=""images/choice_trial_11.png"" style=""width: 408px; height: 417px; margin-right: 608px;""></div></div>",,delaylearn,learning,display_response,BKtGXZLAejeHLqNgPEmezMTZ8O63,BKtGXZLAejeHLqNgPEmezMTZ8O63,,,,,,,,,,,,,,,,,chosen stimuli: images/choice_trial_11.png,,,,,6543af72769aacc0bf14521e,09:11:51,27/02/2024
html-keyboard-response,83,170439,0.0-36.0-2.0,,,,delaylearn,learning,feedback_duration_window,BKtGXZLAejeHLqNgPEmezMTZ8O63,BKtGXZLAejeHLqNgPEmezMTZ8O63,,,,,,,,,,,,,,,,,,750.0,,,,6543af72769aacc0bf14521e,09:11:51,27/02/2024
html-keyboard-response,84,171949,0.0-36.0-3.0,,<div style='margin:auto;width: auto; font-size: 150%'><span style='font-weight: bold; font-size: 100px; color: green;'>+10 points!</span><br><br></div>,,delaylearn,learning,feedback_image_window,BKtGXZLAejeHLqNgPEmezMTZ8O63,BKtGXZLAejeHLqNgPEmezMTZ8O63,,,,,,,,,,,,,,,,,,,,,,6543af72769aacc0bf14521e,09:11:51,27/02/2024
html-keyboard-response,85,174185,0.0-37.0,,"<div style=""font-size:100px;"">+</div>",,delaylearn,learning,ITI,BKtGXZLAejeHLqNgPEmezMTZ8O63,BKtGXZLAejeHLqNgPEmezMTZ8O63,,,,,,,,,,,,,,,,,,,2228.0,,,6543af72769aacc0bf14521e,09:11:51,27/02/2024
html-keyboard-response,86,176515,0.0-38.0-0.0,2327.0999999046326,"<div style=""display: flex; flex-direction: column; align-items: center; margin-top: -40px;""><img src=""images/pattern_4.png"" style=""width: 234px; height: 230px; margin-top: -50px;""><div style=""display: flex; justify-content: space-between; margin-top: 33px;""><img src=""images/choice_trial_16.png"" style=""width: 408px; height: 417px; margin-right: 200px;""><img src=""images/choice_trial_4.png"" style=""width: 408px; height: 417px;""></div></div>",j,delaylearn,learning,trial,BKtGXZLAejeHLqNgPEmezMTZ8O63,BKtGXZLAejeHLqNgPEmezMTZ8O63,2.0,images/choice_trial_16.png,images/choice_trial_4.png,images/pattern_4.png,j,j,7000.0,16.0,4.0,3.0,1.0,16.0,1.0,1.0,4.0,100.0,,,,,,6543af72769aacc0bf14521e,09:11:51,27/02/2024
html-keyboard-response,87,177526,0.0-38.0-1.0,,"<div style=""display: flex; flex-direction: column; align-items: center; margin-top: -40px;""><img src=""images/pattern_4.png"" style=""width: 234px; height: 230px; margin-top: -50px;""><div style=""display: flex; justify-content: space-between; margin-top: 33px;""><img src=""images/choice_trial_4.png"" style=""width: 408px; height: 417px; margin-left:608px;""></div></div>",,delaylearn,learning,display_response,BKtGXZLAejeHLqNgPEmezMTZ8O63,BKtGXZLAejeHLqNgPEmezMTZ8O63,,,,,,,,,,,,,,,,,chosen stimuli: images/choice_trial_4.png,,,,,6543af72769aacc0bf14521e,09:11:51,27/02/2024
html-keyboard-response,88,184532,0.0-38.0-2.0,,,,delaylearn,learning,feedback_duration_window,BKtGXZLAejeHLqNgPEmezMTZ8O63,BKtGXZLAejeHLqNgPEmezMTZ8O63,,,,,,,,,,,,,,,,,,7000.0,,,,6543af72769aacc0bf14521e,09:11:51,27/02/2024
html-keyboard-response,89,186036,0.0-38.0-3.0,,<div style='margin:auto;width: auto; font-size: 150%'><span style='font-weight: bold; font-size: 100px; color: green;'>+10 points!</span><br><br></div>,,delaylearn,learning,feedback_image_window,BKtGXZLAejeHLqNgPEmezMTZ8O63,BKtGXZLAejeHLqNgPEmezMTZ8O63,,,,,,,,,,,,,,,,,,,,,,6543af72769aacc0bf14521e,09:11:51,27/02/2024
html-keyboard-response,90,187903,0.0-39.0,,"<div style=""font-size:100px;"">+</div>",,delaylearn,learning,ITI,BKtGXZLAejeHLqNgPEmezMTZ8O63,BKtGXZLAejeHLqNgPEmezMTZ8O63,,,,,,,,,,,,,,,,,,,1852.0,,,6543af72769aacc0bf14521e,09:11:51,27/02/2024
html-keyboard-response,91,190908,0.0-40.0-0.0,,"<div style=""display: flex; flex-direction: column; align-items: center; margin-top: -40px;""><img src=""images/pattern_7.png"" style=""width: 234px; height: 230px; margin-top: -50px;""><div style=""display: flex; justify-content: space-between; margin-top: 33px;""><img src=""images/choice_trial_8.png"" style=""width: 408px; height: 417px; margin-right: 200px;""><img src=""images/choice_trial_15.png"" style=""width: 408px; height: 417px;""></div></div>",,delaylearn,learning,trial,BKtGXZLAejeHLqNgPEmezMTZ8O63,BKtGXZLAejeHLqNgPEmezMTZ8O63,2.0,images/choice_trial_8.png,images/choice_trial_15.png,images/pattern_7.png,j,f,750.0,8.0,15.0,6.0,0.0,17.0,0.0,0.0,0.0,100.0,,,,,,6543af72769aacc0bf14521e,09:11:51,27/02/2024
html-keyboard-response,92,191916,0.0-40.0-1.0,,<div style='font-weight: bold; font-size: 75px; color: red;'>Missed Trial <br><br><br><br> Please respond faster</div>,,delaylearn,learning,display_response,BKtGXZLAejeHLqNgPEmezMTZ8O63,BKtGXZLAejeHLqNgPEmezMTZ8O63,,,,,,,,,,,,,,,,,Missed trial,,,,,6543af72769aacc0bf14521e,09:11:51,27/02/2024
html-keyboard-response,93,191924,0.0-40.0-2.0,,,,delaylearn,learning,feedback_duration_window,BKtGXZLAejeHLqNgPEmezMTZ8O63,BKtGXZLAejeHLqNgPEmezMTZ8O63,,,,,,,,,,,,,,,,,,0.0,,,,6543af72769aacc0bf14521e,09:11:51,27/02/2024
html-keyboard-response,94,191932,0.0-40.0-3.0,,,,delaylearn,learning,feedback_image_window,BKtGXZLAejeHLqNgPEmezMTZ8O63,BKtGXZLAejeHLqNgPEmezMTZ8O63,,,,,,,,,,,,,,,,,,,,,,6543af72769aacc0bf14521e,09:11:51,27/02/2024
html-keyboard-response,95,193811,0.0-41.0,,"<div style=""font-size:100px;"">+</div>",,delaylearn,learning,ITI,BKtGXZLAejeHLqNgPEmezMTZ8O63,BKtGXZLAejeHLqNgPEmezMTZ8O63,,,,,,,,,,,,,,,,,,,1876.0,,,6543af72769aacc0bf14521e,09:11:51,27/02/2024
html-keyboard-response,96,194953,0.0-42.0-0.0,1139.2000000476837,"<div style=""display: flex; flex-direction: column; align-items: center; margin-top: -40px;""><img src=""images/pattern_1.png"" style=""width: 234px; height: 230px; margin-top: -50px;""><div style=""display: flex; justify-content: space-between; margin-top: 33px;""><img src=""images/choice_trial_3.png"" style=""width: 408px; height: 417px; margin-right: 200px;""><img src=""images/choice_trial_10.png"" style=""width: 408px; height: 417px;""></div></div>",f,delaylearn,learning,trial,BKtGXZLAejeHLqNgPEmezMTZ8O63,BKtGXZLAejeHLqNgPEmezMTZ8O63,2.0,images/choice_trial_3.png,images/choice_trial_10.png,images/pattern_1.png,f,f,7000.0,3.0,10.0,1.0,0.0,18.0,1.0,1.0,3.0,110.0,,,,,,6543af72769aacc0bf14521e,09:11:51,27/02/2024
html-keyboard-response,97,195967,0.0-42.0-1.0,,"<div style=""display: flex; flex-direction: column; align-items: center; margin-top: -40px;""><img src=""images/pattern_1.png"" style=""width: 234px; height: 230px; margin-top: -50px;""><div style=""display: flex; justify-content: space-between; margin-top: 33px;""><img src=""images/choice_trial_3.png"" style=""width: 408px; height: 417px; margin-right: 608px;""></div></div>",,delaylearn,learning,display_response,BKtGXZLAejeHLqNgPEmezMTZ8O63,BKtGXZLAejeHLqNgPEmezMTZ8O63,,,,,,,,,,,,,,,,,chosen stimuli: images/choice_trial_3.png,,,,,6543af72769aacc0bf14521e,09:11:51,27/02/2024
html-keyboard-response,98,202982,0.0-42.0-2.0,,,,delaylearn,learning,feedback_duration_window,BKtGXZLAejeHLqNgPEmezMTZ8O63,BKtGXZLAejeHLqNgPEmezMTZ8O63,,,,,,,,,,,,,,,,,,7000.0,,,,6543af72769aacc0bf14521e,09:11:51,27/02/2024
html-keyboard-response,99,204495,0.0-42.0-3.0,,<div style='margin:auto;width: auto; font-size: 150%'><span style='font-weight: bold; font-size: 100px; color: green;'>+10 points!</span><br><br></div>,,delaylearn,learning,feedback_image_window,BKtGXZLAejeHLqNgPEmezMTZ8O63,BKtGXZLAejeHLqNgPEmezMTZ8O63,,,,,,,,,,,,,,,,,,,,,,6543af72769aacc0bf14521e,09:11:51,27/02/2024
html-keyboard-response,100,207004,0.0-43.0,,"<div style=""font-size:100px;"">+</div>",,delaylearn,learning,ITI,BKtGXZLAejeHLqNgPEmezMTZ8O63,BKtGXZLAejeHLqNgPEmezMTZ8O63,,,,,,,,,,,,,,,,,,,2499.0,,,6543af72769aacc0bf14521e,09:11:51,27/02/2024
html-keyboard-response,101,209800,0.0-44.0-0.0,2793.5,"<div style=""display: flex; flex-direction: column; align-items: center; margin-top: -40px;""><img src=""images/pattern_6.png"" style=""width: 234px; height: 230px; margin-top: -50px;""><div style=""display: flex; justify-content: space-between; margin-top: 33px;""><img src=""images/choice_trial_5.png"" style=""width: 408px; height: 417px; margin-right: 200px;""><img src=""images/choice_trial_11.png"" style=""width: 408px; height: 417px;""></div></div>",f,delaylearn,learning,trial,BKtGXZLAejeHLqNgPEmezMTZ8O63,BKtGXZLAejeHLqNgPEmezMTZ8O63,2.0,images/choice_trial_5.png,images/choice_trial_11.png,images/pattern_6.png,j,j,750.0,5.0,11.0,5.0,1.0,19.0,0.0,0.0,5.0,110.0,,,,,,6543af72769aacc0bf14521e,09:11:51,27/02/2024
html-keyboard-response,102,210813,0.0-44.0-1.0,,"<div style=""display: flex; flex-direction: column; align-items: center; margin-top: -40px;""><img src=""images/pattern_6.png"" style=""width: 234px; height: 230px; margin-top: -50px;""><div style=""display: flex; justify-content: space-between; margin-top: 33px;""><img src=""images/choice_trial_5.png"" style=""width: 408px; height: 417px; margin-right: 608px;""></div></div>",,delaylearn,learning,display_response,BKtGXZLAejeHLqNgPEmezMTZ8O63,BKtGXZLAejeHLqNgPEmezMTZ8O63,,,,,,,,,,,,,,,,,chosen stimuli: images/choice_trial_5.png,,,,,6543af72769aacc0bf14521e,09:11:51,27/02/2024
html-keyboard-response,103,211566,0.0-44.0-2.0,,,,delaylearn,learning,feedback_duration_window,BKtGXZLAejeHLqNgPEmezMTZ8O63,BKtGXZLAejeHLqNgPEmezMTZ8O63,,,,,,,,,,,,,,,,,,750.0,,,,6543af72769aacc0bf14521e,09:11:51,27/02/2024
html-keyboard-response,104,213082,0.0-44.0-3.0,,<div style='margin:auto;width: auto; font-size: 150%'><span style='font-weight: bold; font-size: 100px; color: red;'>0 points!</span><br><br></div>,,delaylearn,learning,feedback_image_window,BKtGXZLAejeHLqNgPEmezMTZ8O63,BKtGXZLAejeHLqNgPEmezMTZ8O63,,,,,,,,,,,,,,,,,,,,,,6543af72769aacc0bf14521e,09:11:51,27/02/2024
html-keyboard-response,105,215052,0.0-45.0,,"<div style=""font-size:100px;"">+</div>",,delaylearn,learning,ITI,BKtGXZLAejeHLqNgPEmezMTZ8O63,BKtGXZLAejeHLqNgPEmezMTZ8O63,,,,,,,,,,,,,,,,,,,1954.0,,,6543af72769aacc0bf14521e,09:11:51,27/02/2024
html-keyboard-response,106,216695,0.0-46.0-0.0,1640.5,"<div style=""display: flex; flex-direction: column; align-items: center; margin-top: -40px;""><img src=""images/pattern_4.png"" style=""width: 234px; height: 230px; margin-top: -50px;""><div style=""display: flex; justify-content: space-between; margin-top: 33px;""><img src=""images/choice_trial_4.png"" style=""width: 408px; height: 417px; margin-right: 200px;""><img src=""images/choice_trial_16.png"" style=""width: 408px; height: 417px;""></div></div>",f,delaylearn,learning,trial,BKtGXZLAejeHLqNgPEmezMTZ8O63,BKtGXZLAejeHLqNgPEmezMTZ8O63,2.0,images/choice_trial_4.png,images/choice_trial_16.png,images/pattern_4.png,f,f,7000.0,4.0,16.0,3.0,0.0,20.0,1.0,1.0,4.0,120.0,,,,,,6543af72769aacc0bf14521e,09:11:51,27/02/2024
html-keyboard-response,107,217701,0.0-46.0-1.0,,"<div style=""display: flex; flex-direction: column; align-items: center; margin-top: -40px;""><img src=""images/pattern_4.png"" style=""width: 234px; height: 230px; margin-top: -50px;""><div style=""display: flex; justify-content: space-between; margin-top: 33px;""><img src=""images/choice_trial_4.png"" style=""width: 408px; height: 417px; margin-right: 608px;""></div></div>",,delaylearn,learning,display_response,BKtGXZLAejeHLqNgPEmezMTZ8O63,BKtGXZLAejeHLqNgPEmezMTZ8O63,,,,,,,,,,,,,,,,,chosen stimuli: images/choice_trial_4.png,,,,,6543af72769aacc0bf14521e,09:11:51,27/02/2024
html-keyboard-response,108,224713,0.0-46.0-2.0,,,,delaylearn,learning,feedback_duration_window,BKtGXZLAejeHLqNgPEmezMTZ8O63,BKtGXZLAejeHLqNgPEmezMTZ8O63,,,,,,,,,,,,,,,,,,7000.0,,,,6543af72769aacc0bf14521e,09:11:51,27/02/2024
html-keyboard-response,109,226222,0.0-46.0-3.0,,<div style='margin:auto;width: auto; font-size: 150%'><span style='font-weight: bold; font-size: 100px; color: green;'>+10 points!</span><br><br></div>,,delaylearn,learning,feedback_image_window,BKtGXZLAejeHLqNgPEmezMTZ8O63,BKtGXZLAejeHLqNgPEmezMTZ8O63,,,,,,,,,,,,,,,,,,,,,,6543af72769aacc0bf14521e,09:11:51,27/02/2024
html-keyboard-response,110,226728,0.0-47.0-0.0,,,,,,mood_trial_fixation,BKtGXZLAejeHLqNgPEmezMTZ8O63,,,,,,,,,,,,,,,,,,,,,,,6543af72769aacc0bf14521e,09:11:51,27/02/2024
lmdlab-html-vas-response,111,231158,0.0-47.0-1.0,3422.0,How happy are you right now?,0.6832802415409681,delaylearn,learning,mood_trial,BKtGXZLAejeHLqNgPEmezMTZ8O63,BKtGXZLAejeHLqNgPEmezMTZ8O63,,,,,,,,,,,,,,,,,,,,"['Very unhappy', 'Very happy']",,6543af72769aacc0bf14521e,09:11:51,27/02/2024
html-keyboard-response,112,233522,0.0-48.0,,"<div style=""font-size:100px;"">+</div>",,delaylearn,learning,ITI,BKtGXZLAejeHLqNgPEmezMTZ8O63,BKtGXZLAejeHLqNgPEmezMTZ8O63,,,,,,,,,,,,,,,,,,,2355.0,,,6543af72769aacc0bf14521e,09:11:51,27/02/2024
html-keyboard-response,113,235461,0.0-49.0-0.0,1936.2000000476837,"<div style=""display: flex; flex-direction: column; align-items: center; margin-top: -40px;""><img src=""images/pattern_7.png"" style=""width: 234px; height: 230px; margin-top: -50px;""><div style=""display: flex; justify-content: space-between; margin-top: 33px;""><img src=""images/choice_trial_15.png"" style=""width: 408px; height: 417px; margin-right: 200px;""><img src=""images/choice_trial_8.png"" style=""width: 408px; height: 417px;""></div></div>",f,delaylearn,learning,trial,BKtGXZLAejeHLqNgPEmezMTZ8O63,BKtGXZLAejeHLqNgPEmezMTZ8O63,2.0,images/choice_trial_15.png,images/choice_trial_8.png,images/pattern_7.png,j,j,750.0,15.0,8.0,6.0,1.0,21.0,0.0,0.0,15.0,120.0,,,,,,6543af72769aacc0bf14521e,09:11:51,27/02/2024
html-keyboard-response,114,236467,0.0-49.0-1.0,,"<div style=""display: flex; flex-direction: column; align-items: center; margin-top: -40px;""><img src=""images/pattern_7.png"" style=""width: 234px; height: 230px; margin-top: -50px;""><div style=""display: flex; justify-content: space-between; margin-top: 33px;""><img src=""images/choice_trial_15.png"" style=""width: 408px; height: 417px; margin-right: 608px;""></div></div>",,delaylearn,learning,display_response,BKtGXZLAejeHLqNgPEmezMTZ8O63,BKtGXZLAejeHLqNgPEmezMTZ8O63,,,,,,,,,,,,,,,,,chosen stimuli: images/choice_trial_15.png,,,,,6543af72769aacc0bf14521e,09:11:51,27/02/2024
html-keyboard-response,115,237231,0.0-49.0-2.0,,,,delaylearn,learning,feedback_duration_window,BKtGXZLAejeHLqNgPEmezMTZ8O63,BKtGXZLAejeHLqNgPEmezMTZ8O63,,,,,,,,,,,,,,,,,,750.0,,,,6543af72769aacc0bf14521e,09:11:51,27/02/2024
html-keyboard-response,116,238744,0.0-49.0-3.0,,<div style='margin:auto;width: auto; font-size: 150%'><span style='font-weight: bold; font-size: 100px; color: red;'>0 points!</span><br><br></div>,,delaylearn,learning,feedback_image_window,BKtGXZLAejeHLqNgPEmezMTZ8O63,BKtGXZLAejeHLqNgPEmezMTZ8O63,,,,,,,,,,,,,,,,,,,,,,6543af72769aacc0bf14521e,09:11:51,27/02/2024
html-keyboard-response,117,240745,0.0-50.0,,"<div style=""font-size:100px;"">+</div>",,delaylearn,learning,ITI,BKtGXZLAejeHLqNgPEmezMTZ8O63,BKtGXZLAejeHLqNgPEmezMTZ8O63,,,,,,,,,,,,,,,,,,,1999.0,,,6543af72769aacc0bf14521e,09:11:51,27/02/2024
html-keyboard-response,118,241642,0.0-51.0-0.0,894.3999999761581,"<div style=""display: flex; flex-direction: column; align-items: center; margin-top: -40px;""><img src=""images/pattern_1.png"" style=""width: 234px; height: 230px; margin-top: -50px;""><div style=""display: flex; justify-content: space-between; margin-top: 33px;""><img src=""images/choice_trial_10.png"" style=""width: 408px; height: 417px; margin-right: 200px;""><img src=""images/choice_trial_3.png"" style=""width: 408px; height: 417px;""></div></div>",j,delaylearn,learning,trial,BKtGXZLAejeHLqNgPEmezMTZ8O63,BKtGXZLAejeHLqNgPEmezMTZ8O63,2.0,images/choice_trial_10.png,images/choice_trial_3.png,images/pattern_1.png,f,j,7000.0,10.0,3.0,1.0,1.0,22.0,1.0,0.0,3.0,120.0,,,,,,6543af72769aacc0bf14521e,09:11:51,27/02/2024
html-keyboard-response,119,242660,0.0-51.0-1.0,,"<div style=""display: flex; flex-direction: column; align-items: center; margin-top: -40px;""><img src=""images/pattern_1.png"" style=""width: 234px; height: 230px; margin-top: -50px;""><div style=""display: flex; justify-content: space-between; margin-top: 33px;""><img src=""images/choice_trial_3.png"" style=""width: 408px; height: 417px; margin-left:608px;""></div></div>",,delaylearn,learning,display_response,BKtGXZLAejeHLqNgPEmezMTZ8O63,BKtGXZLAejeHLqNgPEmezMTZ8O63,,,,,,,,,,,,,,,,,chosen stimuli: images/choice_trial_3.png,,,,,6543af72769aacc0bf14521e,09:11:51,27/02/2024
html-keyboard-response,120,249670,0.0-51.0-2.0,,,,delaylearn,learning,feedback_duration_window,BKtGXZLAejeHLqNgPEmezMTZ8O63,BKtGXZLAejeHLqNgPEmezMTZ8O63,,,,,,,,,,,,,,,,,,7000.0,,,,6543af72769aacc0bf14521e,09:11:51,27/02/2024
html-keyboard-response,121,251173,0.0-51.0-3.0,,<div style='margin:auto;width: auto; font-size: 150%'><span style='font-weight: bold; font-size: 100px; color: red;'>0 points!</span><br><br></div>,,delaylearn,learning,feedback_image_window,BKtGXZLAejeHLqNgPEmezMTZ8O63,BKtGXZLAejeHLqNgPEmezMTZ8O63,,,,,,,,,,,,,,,,,,,,,,6543af72769aacc0bf14521e,09:11:51,27/02/2024
html-keyboard-response,122,253276,0.0-52.0,,"<div style=""font-size:100px;"">+</div>",,delaylearn,learning,ITI,BKtGXZLAejeHLqNgPEmezMTZ8O63,BKtGXZLAejeHLqNgPEmezMTZ8O63,,,,,,,,,,,,,,,,,,,2102.0,,,6543af72769aacc0bf14521e,09:11:51,27/02/2024
html-keyboard-response,123,255834,0.0-53.0-0.0,2555.0,"<div style=""display: flex; flex-direction: column; align-items: center; margin-top: -40px;""><img src=""images/pattern_5.png"" style=""width: 234px; height: 230px; margin-top: -50px;""><div style=""display: flex; justify-content: space-between; margin-top: 33px;""><img src=""images/choice_trial_9.png"" style=""width: 408px; height: 417px; margin-right: 200px;""><img src=""images/choice_trial_2.png"" style=""width: 408px; height: 417px;""></div></div>",j,delaylearn,learning,trial,BKtGXZLAejeHLqNgPEmezMTZ8O63,BKtGXZLAejeHLqNgPEmezMTZ8O63,2.0,images/choice_trial_9.png,images/choice_trial_2.png,images/pattern_5.png,j,j,750.0,9.0,2.0,4.0,1.0,23.0,1.0,1.0,2.0,130.0,,,,,,6543af72769aacc0bf14521e,09:11:51,27/02/2024
html-keyboard-response,124,256848,0.0-53.0-1.0,,"<div style=""display: flex; flex-direction: column; align-items: center; margin-top: -40px;""><img src=""images/pattern_5.png"" style=""width: 234px; height: 230px; margin-top: -50px;""><div style=""display: flex; justify-content: space-between; margin-top: 33px;""><img src=""images/choice_trial_2.png"" style=""width: 408px; height: 417px; margin-left:608px;""></div></div>",,delaylearn,learning,display_response,BKtGXZLAejeHLqNgPEmezMTZ8O63,BKtGXZLAejeHLqNgPEmezMTZ8O63,,,,,,,,,,,,,,,,,chosen stimuli: images/choice_trial_2.png,,,,,6543af72769aacc0bf14521e,09:11:51,27/02/2024
html-keyboard-response,125,257612,0.0-53.0-2.0,,,,delaylearn,learning,feedback_duration_window,BKtGXZLAejeHLqNgPEmezMTZ8O63,BKtGXZLAejeHLqNgPEmezMTZ8O63,,,,,,,,,,,,,,,,,,750.0,,,,6543af72769aacc0bf14521e,09:11:51,27/02/2024
html-keyboard-response,126,259115,0.0-53.0-3.0,,<div style='margin:auto;width: auto; font-size: 150%'><span style='font-weight: bold; font-size: 100px; color: green;'>+10 points!</span><br><br></div>,,delaylearn,learning,feedback_image_window,BKtGXZLAejeHLqNgPEmezMTZ8O63,BKtGXZLAejeHLqNgPEmezMTZ8O63,,,,,,,,,,,,,,,,,,,,,,6543af72769aacc0bf14521e,09:11:51,27/02/2024
html-keyboard-response,127,260833,0.0-54.0,,"<div style=""font-size:100px;"">+</div>",,delaylearn,learning,ITI,BKtGXZLAejeHLqNgPEmezMTZ8O63,BKtGXZLAejeHLqNgPEmezMTZ8O63,,,,,,,,,,,,,,,,,,,1712.0,,,6543af72769aacc0bf14521e,09:11:51,27/02/2024
html-keyboard-response,128,262680,0.0-55.0-0.0,1844.6999999284744,"<div style=""display: flex; flex-direction: column; align-items: center; margin-top: -40px;""><img src=""images/pattern_3.png"" style=""width: 234px; height: 230px; margin-top: -50px;""><div style=""display: flex; justify-content: space-between; margin-top: 33px;""><img src=""images/choice_trial_14.png"" style=""width: 408px; height: 417px; margin-right: 200px;""><img src=""images/choice_trial_12.png"" style=""width: 408px; height: 417px;""></div></div>",j,delaylearn,learning,trial,BKtGXZLAejeHLqNgPEmezMTZ8O63,BKtGXZLAejeHLqNgPEmezMTZ8O63,2.0,images/choice_trial_14.png,images/choice_trial_12.png,images/pattern_3.png,j,j,7000.0,14.0,12.0,2.0,1.0,24.0,1.0,1.0,12.0,140.0,,,,,,6543af72769aacc0bf14521e,09:11:51,27/02/2024
html-keyboard-response,129,263684,0.0-55.0-1.0,,"<div style=""display: flex; flex-direction: column; align-items: center; margin-top: -40px;""><img src=""images/pattern_3.png"" style=""width: 234px; height: 230px; margin-top: -50px;""><div style=""display: flex; justify-content: space-between; margin-top: 33px;""><img src=""images/choice_trial_12.png"" style=""width: 408px; height: 417px; margin-left:608px;""></div></div>",,delaylearn,learning,display_response,BKtGXZLAejeHLqNgPEmezMTZ8O63,BKtGXZLAejeHLqNgPEmezMTZ8O63,,,,,,,,,,,,,,,,,chosen stimuli: images/choice_trial_12.png,,,,,6543af72769aacc0bf14521e,09:11:51,27/02/2024
html-keyboard-response,130,270696,0.0-55.0-2.0,,,,delaylearn,learning,feedback_duration_window,BKtGXZLAejeHLqNgPEmezMTZ8O63,BKtGXZLAejeHLqNgPEmezMTZ8O63,,,,,,,,,,,,,,,,,,7000.0,,,,6543af72769aacc0bf14521e,09:11:51,27/02/2024
html-keyboard-response,131,272205,0.0-55.0-3.0,,<div style='margin:auto;width: auto; font-size: 150%'><span style='font-weight: bold; font-size: 100px; color: green;'>+10 points!</span><br><br></div>,,delaylearn,learning,feedback_image_window,BKtGXZLAejeHLqNgPEmezMTZ8O63,BKtGXZLAejeHLqNgPEmezMTZ8O63,,,,,,,,,,,,,,,,,,,,,,6543af72769aacc0bf14521e,09:11:51,27/02/2024
lmdlab-html-vas-response,132,281939,0.0-56.0-0.0,8216.0,*How <b><u>confident</u></b> are you feeling about your answers at this moment?*,0.3823301935864581,rewlearn,rate_confidence,,BKtGXZLAejeHLqNgPEmezMTZ8O63,BKtGXZLAejeHLqNgPEmezMTZ8O63,,,,,,,,,,,,,,,,,,,,"['No confidence', 'Complete confidence']",,6543af72769aacc0bf14521e,09:11:51,27/02/2024
lmdlab-rest-trial-limit,133,287484,0.0-56.0-1.0,4028.5,"<div style=""font-size:40px;""><b>Please take a break!</b><br><br><br><br><p>Great work: you earned undefined points.<br><br><br><p>You have completed part(s) 1 of 6.<br><br><br><br>When you are ready to continue<br><br><br>please click the button.</p><br><br>",0,delaylearn,learning,break,BKtGXZLAejeHLqNgPEmezMTZ8O63,BKtGXZLAejeHLqNgPEmezMTZ8O63,,,,,,,,,,,,,,,,,,,,,0.0,6543af72769aacc0bf14521e,09:11:51,27/02/2024
html-keyboard-response,134,290487,0.0-56.0-2.0,,"<div style=""font-size:100px;"">+</div>",,delaylearn,learning,pre_fixation,BKtGXZLAejeHLqNgPEmezMTZ8O63,,,,,,,,,,,,,,,,,,,,,,,6543af72769aacc0bf14521e,09:11:51,27/02/2024
lmdlab-html-vas-response,135,294675,0.0-56.0-3.0-0.0,3180.0,How happy are you right now?,0.7334345601666034,delaylearn,learning,mood_baseline,BKtGXZLAejeHLqNgPEmezMTZ8O63,BKtGXZLAejeHLqNgPEmezMTZ8O63,,,,,,,,,,,,,,,,,,,,"['Very unhappy', 'Very happy']",,6543af72769aacc0bf14521e,09:11:51,27/02/2024
html-keyboard-response,136,296183,0.0-56.0-3.0-1.0,,,,,,mood_baseline_fixation,BKtGXZLAejeHLqNgPEmezMTZ8O63,,,,,,,,,,,,,,,,,,,,,,,6543af72769aacc0bf14521e,09:11:51,27/02/2024
html-keyboard-response,137,297981,0.0-57.0,,"<div style=""font-size:100px;"">+</div>",,delaylearn,learning,ITI,BKtGXZLAejeHLqNgPEmezMTZ8O63,BKtGXZLAejeHLqNgPEmezMTZ8O63,,,,,,,,,,,,,,,,,,,1788.0,,,6543af72769aacc0bf14521e,09:11:51,27/02/2024
html-keyboard-response,138,299729,0.0-58.0-0.0,1745.5999999046326,"<div style=""display: flex; flex-direction: column; align-items: center; margin-top: -40px;""><img src=""images/pattern_7.png"" style=""width: 234px; height: 230px; margin-top: -50px;""><div style=""display: flex; justify-content: space-between; margin-top: 33px;""><img src=""images/choice_trial_15.png"" style=""width: 408px; height: 417px; margin-right: 200px;""><img src=""images/choice_trial_8.png"" style=""width: 408px; height: 417px;""></div></div>",f,delaylearn,learning,trial,BKtGXZLAejeHLqNgPEmezMTZ8O63,BKtGXZLAejeHLqNgPEmezMTZ8O63,2.0,images/choice_trial_15.png,images/choice_trial_8.png,images/pattern_7.png,j,j,750.0,15.0,8.0,6.0,1.0,25.0,0.0,0.0,15.0,140.0,,,,,,6543af72769aacc0bf14521e,09:11:51,27/02/2024
html-keyboard-response,139,300735,0.0-58.0-1.0,,"<div style=""display: flex; flex-direction: column; align-items: center; margin-top: -40px;""><img src=""images/pattern_7.png"" style=""width: 234px; height: 230px; margin-top: -50px;""><div style=""display: flex; justify-content: space-between; margin-top: 33px;""><img src=""images/choice_trial_15.png"" style=""width: 408px; height: 417px; margin-right: 608px;""></div></div>",,delaylearn,learning,display_response,BKtGXZLAejeHLqNgPEmezMTZ8O63,BKtGXZLAejeHLqNgPEmezMTZ8O63,,,,,,,,,,,,,,,,,chosen stimuli: images/choice_trial_15.png,,,,,6543af72769aacc0bf14521e,09:11:51,27/02/2024
html-keyboard-response,140,301490,0.0-58.0-2.0,,,,delaylearn,learning,feedback_duration_window,BKtGXZLAejeHLqNgPEmezMTZ8O63,BKtGXZLAejeHLqNgPEmezMTZ8O63,,,,,,,,,,,,,,,,,,750.0,,,,6543af72769aacc0bf14521e,09:11:51,27/02/2024
html-keyboard-response,141,303002,0.0-58.0-3.0,,<div style='margin:auto;width: auto; font-size: 150%'><span style='font-weight: bold; font-size: 100px; color: red;'>0 points!</span><br><br></div>,,delaylearn,learning,feedback_image_window,BKtGXZLAejeHLqNgPEmezMTZ8O63,BKtGXZLAejeHLqNgPEmezMTZ8O63,,,,,,,,,,,,,,,,,,,,,,6543af72769aacc0bf14521e,09:11:51,27/02/2024
html-keyboard-response,142,303505,0.0-59.0-0.0,,,,,,mood_trial_fixation,BKtGXZLAejeHLqNgPEmezMTZ8O63,,,,,,,,,,,,,,,,,,,,,,,6543af72769aacc0bf14521e,09:11:51,27/02/2024
lmdlab-html-vas-response,143,308578,0.0-59.0-1.0,4066.0,How happy are you right now?,0.5656104939962083,delaylearn,learning,mood_trial,BKtGXZLAejeHLqNgPEmezMTZ8O63,BKtGXZLAejeHLqNgPEmezMTZ8O63,,,,,,,,,,,,,,,,,,,,"['Very unhappy', 'Very happy']",,6543af72769aacc0bf14521e,09:11:51,27/02/2024
html-keyboard-response,144,310517,0.0-60.0,,"<div style=""font-size:100px;"">+</div>",,delaylearn,learning,ITI,BKtGXZLAejeHLqNgPEmezMTZ8O63,BKtGXZLAejeHLqNgPEmezMTZ8O63,,,,,,,,,,,,,,,,,,,1927.0,,,6543af72769aacc0bf14521e,09:11:51,27/02/2024
html-keyboard-response,145,312229,0.0-61.0-0.0,1710.2999999523163,"<div style=""display: flex; flex-direction: column; align-items: center; margin-top: -40px;""><img src=""images/pattern_1.png"" style=""width: 234px; height: 230px; margin-top: -50px;""><div style=""display: flex; justify-content: space-between; margin-top: 33px;""><img src=""images/choice_trial_3.png"" style=""width: 408px; height: 417px; margin-right: 200px;""><img src=""images/choice_trial_10.png"" style=""width: 408px; height: 417px;""></div></div>",f,delaylearn,learning,trial,BKtGXZLAejeHLqNgPEmezMTZ8O63,BKtGXZLAejeHLqNgPEmezMTZ8O63,2.0,images/choice_trial_3.png,images/choice_trial_10.png,images/pattern_1.png,f,f,7000.0,3.0,10.0,1.0,0.0,26.0,1.0,1.0,3.0,150.0,,,,,,6543af72769aacc0bf14521e,09:11:51,27/02/2024
html-keyboard-response,146,313242,0.0-61.0-1.0,,"<div style=""display: flex; flex-direction: column; align-items: center; margin-top: -40px;""><img src=""images/pattern_1.png"" style=""width: 234px; height: 230px; margin-top: -50px;""><div style=""display: flex; justify-content: space-between; margin-top: 33px;""><img src=""images/choice_trial_3.png"" style=""width: 408px; height: 417px; margin-right: 608px;""></div></div>",,delaylearn,learning,display_response,BKtGXZLAejeHLqNgPEmezMTZ8O63,BKtGXZLAejeHLqNgPEmezMTZ8O63,,,,,,,,,,,,,,,,,chosen stimuli: images/choice_trial_3.png,,,,,6543af72769aacc0bf14521e,09:11:51,27/02/2024
html-keyboard-response,147,320248,0.0-61.0-2.0,,,,delaylearn,learning,feedback_duration_window,BKtGXZLAejeHLqNgPEmezMTZ8O63,BKtGXZLAejeHLqNgPEmezMTZ8O63,,,,,,,,,,,,,,,,,,7000.0,,,,6543af72769aacc0bf14521e,09:11:51,27/02/2024
html-keyboard-response,148,321762,0.0-61.0-3.0,,<div style='margin:auto;width: auto; font-size: 150%'><span style='font-weight: bold; font-size: 100px; color: green;'>+10 points!</span><br><br></div>,,delaylearn,learning,feedback_image_window,BKtGXZLAejeHLqNgPEmezMTZ8O63,BKtGXZLAejeHLqNgPEmezMTZ8O63,,,,,,,,,,,,,,,,,,,,,,6543af72769aacc0bf14521e,09:11:51,27/02/2024
html-keyboard-response,149,323608,0.0-62.0,,"<div style=""font-size:100px;"">+</div>",,delaylearn,learning,ITI,BKtGXZLAejeHLqNgPEmezMTZ8O63,BKtGXZLAejeHLqNgPEmezMTZ8O63,,,,,,,,,,,,,,,,,,,1834.0,,,6543af72769aacc0bf14521e,09:11:51,27/02/2024
html-keyboard-response,150,325561,0.0-63.0-0.0,1950.3999999761581,"<div style=""display: flex; flex-direction: column; align-items: center; margin-top: -40px;""><img src=""images/pattern_5.png"" style=""width: 234px; height: 230px; margin-top: -50px;""><div style=""display: flex; justify-content: space-between; margin-top: 33px;""><img src=""images/choice_trial_2.png"" style=""width: 408px; height: 417px; margin-right: 200px;""><img src=""images/choice_trial_9.png"" style=""width: 408px; height: 417px;""></div></div>",f,delaylearn,learning,trial,BKtGXZLAejeHLqNgPEmezMTZ8O63,BKtGXZLAejeHLqNgPEmezMTZ8O63,2.0,images/choice_trial_2.png,images/choice_trial_9.png,images/pattern_5.png,f,f,750.0,2.0,9.0,4.0,0.0,27.0,1.0,1.0,2.0,160.0,,,,,,6543af72769aacc0bf14521e,09:11:51,27/02/2024
html-keyboard-response,151,326563,0.0-63.0-1.0,,"<div style=""display: flex; flex-direction: column; align-items: center; margin-top: -40px;""><img src=""images/pattern_5.png"" style=""width: 234px; height: 230px; margin-top: -50px;""><div style=""display: flex; justify-content: space-between; margin-top: 33px;""><img src=""images/choice_trial_2.png"" style=""width: 408px; height: 417px; margin-right: 608px;""></div></div>",,delaylearn,learning,display_response,BKtGXZLAejeHLqNgPEmezMTZ8O63,BKtGXZLAejeHLqNgPEmezMTZ8O63,,,,,,,,,,,,,,,,,chosen stimuli: images/choice_trial_2.png,,,,,6543af72769aacc0bf14521e,09:11:51,27/02/2024
html-keyboard-response,152,327322,0.0-63.0-2.0,,,,delaylearn,learning,feedback_duration_window,BKtGXZLAejeHLqNgPEmezMTZ8O63,BKtGXZLAejeHLqNgPEmezMTZ8O63,,,,,,,,,,,,,,,,,,750.0,,,,6543af72769aacc0bf14521e,09:11:51,27/02/2024
html-keyboard-response,153,328831,0.0-63.0-3.0,,<div style='margin:auto;width: auto; font-size: 150%'><span style='font-weight: bold; font-size: 100px; color: green;'>+10 points!</span><br><br></div>,,delaylearn,learning,feedback_image_window,BKtGXZLAejeHLqNgPEmezMTZ8O63,BKtGXZLAejeHLqNgPEmezMTZ8O63,,,,,,,,,,,,,,,,,,,,,,6543af72769aacc0bf14521e,09:11:51,27/02/2024
html-keyboard-response,154,330602,0.0-64.0,,"<div style=""font-size:100px;"">+</div>",,delaylearn,learning,ITI,BKtGXZLAejeHLqNgPEmezMTZ8O63,BKtGXZLAejeHLqNgPEmezMTZ8O63,,,,,,,,,,,,,,,,,,,1764.0,,,6543af72769aacc0bf14521e,09:11:51,27/02/2024
html-keyboard-response,155,332572,0.0-65.0-0.0,1967.8999999761581,"<div style=""display: flex; flex-direction: column; align-items: center; margin-top: -40px;""><img src=""images/pattern_6.png"" style=""width: 234px; height: 230px; margin-top: -50px;""><div style=""display: flex; justify-content: space-between; margin-top: 33px;""><img src=""images/choice_trial_5.png"" style=""width: 408px; height: 417px; margin-right: 200px;""><img src=""images/choice_trial_11.png"" style=""width: 408px; height: 417px;""></div></div>",j,delaylearn,learning,trial,BKtGXZLAejeHLqNgPEmezMTZ8O63,BKtGXZLAejeHLqNgPEmezMTZ8O63,2.0,images/choice_trial_5.png,images/choice_trial_11.png,images/pattern_6.png,j,j,750.0,5.0,11.0,5.0,1.0,28.0,1.0,1.0,11.0,170.0,,,,,,6543af72769aacc0bf14521e,09:11:51,27/02/2024
html-keyboard-response,156,333588,0.0-65.0-1.0,,"<div style=""display: flex; flex-direction: column; align-items: center; margin-top: -40px;""><img src=""images/pattern_6.png"" style=""width: 234px; height: 230px; margin-top: -50px;""><div style=""display: flex; justify-content: space-between; margin-top: 33px;""><img src=""images/choice_trial_11.png"" style=""width: 408px; height: 417px; margin-left:608px;""></div></div>",,delaylearn,learning,display_response,BKtGXZLAejeHLqNgPEmezMTZ8O63,BKtGXZLAejeHLqNgPEmezMTZ8O63,,,,,,,,,,,,,,,,,chosen stimuli: images/choice_trial_11.png,,,,,6543af72769aacc0bf14521e,09:11:51,27/02/2024
html-keyboard-response,157,334348,0.0-65.0-2.0,,,,delaylearn,learning,feedback_duration_window,BKtGXZLAejeHLqNgPEmezMTZ8O63,BKtGXZLAejeHLqNgPEmezMTZ8O63,,,,,,,,,,,,,,,,,,750.0,,,,6543af72769aacc0bf14521e,09:11:51,27/02/2024
html-keyboard-response,158,335850,0.0-65.0-3.0,,<div style='margin:auto;width: auto; font-size: 150%'><span style='font-weight: bold; font-size: 100px; color: green;'>+10 points!</span><br><br></div>,,delaylearn,learning,feedback_image_window,BKtGXZLAejeHLqNgPEmezMTZ8O63,BKtGXZLAejeHLqNgPEmezMTZ8O63,,,,,,,,,,,,,,,,,,,,,,6543af72769aacc0bf14521e,09:11:51,27/02/2024
html-keyboard-response,159,336362,0.0-66.0-0.0,,,,,,mood_trial_fixation,BKtGXZLAejeHLqNgPEmezMTZ8O63,,,,,,,,,,,,,,,,,,,,,,,6543af72769aacc0bf14521e,09:11:51,27/02/2024
lmdlab-html-vas-response,160,340774,0.0-66.0-1.0,3399.0,How happy are you right now?,0.851104307711363,delaylearn,learning,mood_trial,BKtGXZLAejeHLqNgPEmezMTZ8O63,BKtGXZLAejeHLqNgPEmezMTZ8O63,,,,,,,,,,,,,,,,,,,,"['Very unhappy', 'Very happy']",,6543af72769aacc0bf14521e,09:11:51,27/02/2024
html-keyboard-response,161,342738,0.0-67.0,,"<div style=""font-size:100px;"">+</div>",,delaylearn,learning,ITI,BKtGXZLAejeHLqNgPEmezMTZ8O63,BKtGXZLAejeHLqNgPEmezMTZ8O63,,,,,,,,,,,,,,,,,,,1961.0,,,6543af72769aacc0bf14521e,09:11:51,27/02/2024
html-keyboard-response,162,344853,0.0-68.0-0.0,2111.600000023842,"<div style=""display: flex; flex-direction: column; align-items: center; margin-top: -40px;""><img src=""images/pattern_4.png"" style=""width: 234px; height: 230px; margin-top: -50px;""><div style=""display: flex; justify-content: space-between; margin-top: 33px;""><img src=""images/choice_trial_16.png"" style=""width: 408px; height: 417px; margin-right: 200px;""><img src=""images/choice_trial_4.png"" style=""width: 408px; height: 417px;""></div></div>",f,delaylearn,learning,trial,BKtGXZLAejeHLqNgPEmezMTZ8O63,BKtGXZLAejeHLqNgPEmezMTZ8O63,2.0,images/choice_trial_16.png,images/choice_trial_4.png,images/pattern_4.png,j,j,7000.0,16.0,4.0,3.0,1.0,29.0,0.0,0.0,16.0,170.0,,,,,,6543af72769aacc0bf14521e,09:11:51,27/02/2024
html-keyboard-response,163,345868,0.0-68.0-1.0,,"<div style=""display: flex; flex-direction: column; align-items: center; margin-top: -40px;""><img src=""images/pattern_4.png"" style=""width: 234px; height: 230px; margin-top: -50px;""><div style=""display: flex; justify-content: space-between; margin-top: 33px;""><img src=""images/choice_trial_16.png"" style=""width: 408px; height: 417px; margin-right: 608px;""></div></div>",,delaylearn,learning,display_response,BKtGXZLAejeHLqNgPEmezMTZ8O63,BKtGXZLAejeHLqNgPEmezMTZ8O63,,,,,,,,,,,,,,,,,chosen stimuli: images/choice_trial_16.png,,,,,6543af72769aacc0bf14521e,09:11:51,27/02/2024
html-keyboard-response,164,352874,0.0-68.0-2.0,,,,delaylearn,learning,feedback_duration_window,BKtGXZLAejeHLqNgPEmezMTZ8O63,BKtGXZLAejeHLqNgPEmezMTZ8O63,,,,,,,,,,,,,,,,,,7000.0,,,,6543af72769aacc0bf14521e,09:11:51,27/02/2024
html-keyboard-response,165,354389,0.0-68.0-3.0,,<div style='margin:auto;width: auto; font-size: 150%'><span style='font-weight: bold; font-size: 100px; color: red;'>0 points!</span><br><br></div>,,delaylearn,learning,feedback_image_window,BKtGXZLAejeHLqNgPEmezMTZ8O63,BKtGXZLAejeHLqNgPEmezMTZ8O63,,,,,,,,,,,,,,,,,,,,,,6543af72769aacc0bf14521e,09:11:51,27/02/2024
html-keyboard-response,166,356051,0.0-69.0,,"<div style=""font-size:100px;"">+</div>",,delaylearn,learning,ITI,BKtGXZLAejeHLqNgPEmezMTZ8O63,BKtGXZLAejeHLqNgPEmezMTZ8O63,,,,,,,,,,,,,,,,,,,1646.0,,,6543af72769aacc0bf14521e,09:11:51,27/02/2024
html-keyboard-response,167,358712,0.0-70.0-0.0,2658.5,"<div style=""display: flex; flex-direction: column; align-items: center; margin-top: -40px;""><img src=""images/pattern_3.png"" style=""width: 234px; height: 230px; margin-top: -50px;""><div style=""display: flex; justify-content: space-between; margin-top: 33px;""><img src=""images/choice_trial_14.png"" style=""width: 408px; height: 417px; margin-right: 200px;""><img src=""images/choice_trial_12.png"" style=""width: 408px; height: 417px;""></div></div>",j,delaylearn,learning,trial,BKtGXZLAejeHLqNgPEmezMTZ8O63,BKtGXZLAejeHLqNgPEmezMTZ8O63,2.0,images/choice_trial_14.png,images/choice_trial_12.png,images/pattern_3.png,j,j,7000.0,14.0,12.0,2.0,1.0,30.0,1.0,1.0,12.0,180.0,,,,,,6543af72769aacc0bf14521e,09:11:51,27/02/2024
html-keyboard-response,168,359726,0.0-70.0-1.0,,"<div style=""display: flex; flex-direction: column; align-items: center; margin-top: -40px;""><img src=""images/pattern_3.png"" style=""width: 234px; height: 230px; margin-top: -50px;""><div style=""display: flex; justify-content: space-between; margin-top: 33px;""><img src=""images/choice_trial_12.png"" style=""width: 408px; height: 417px; margin-left:608px;""></div></div>",,delaylearn,learning,display_response,BKtGXZLAejeHLqNgPEmezMTZ8O63,BKtGXZLAejeHLqNgPEmezMTZ8O63,,,,,,,,,,,,,,,,,chosen stimuli: images/choice_trial_12.png,,,,,6543af72769aacc0bf14521e,09:11:51,27/02/2024
html-keyboard-response,169,366729,0.0-70.0-2.0,,,,delaylearn,learning,feedback_duration_window,BKtGXZLAejeHLqNgPEmezMTZ8O63,BKtGXZLAejeHLqNgPEmezMTZ8O63,,,,,,,,,,,,,,,,,,7000.0,,,,6543af72769aacc0bf14521e,09:11:51,27/02/2024
html-keyboard-response,170,368241,0.0-70.0-3.0,,<div style='margin:auto;width: auto; font-size: 150%'><span style='font-weight: bold; font-size: 100px; color: green;'>+10 points!</span><br><br></div>,,delaylearn,learning,feedback_image_window,BKtGXZLAejeHLqNgPEmezMTZ8O63,BKtGXZLAejeHLqNgPEmezMTZ8O63,,,,,,,,,,,,,,,,,,,,,,6543af72769aacc0bf14521e,09:11:51,27/02/2024
html-keyboard-response,171,370050,0.0-71.0,,"<div style=""font-size:100px;"">+</div>",,delaylearn,learning,ITI,BKtGXZLAejeHLqNgPEmezMTZ8O63,BKtGXZLAejeHLqNgPEmezMTZ8O63,,,,,,,,,,,,,,,,,,,1807.0,,,6543af72769aacc0bf14521e,09:11:51,27/02/2024
html-keyboard-response,172,371797,0.0-72.0-0.0,1743.6999999284744,"<div style=""display: flex; flex-direction: column; align-items: center; margin-top: -40px;""><img src=""images/pattern_5.png"" style=""width: 234px; height: 230px; margin-top: -50px;""><div style=""display: flex; justify-content: space-between; margin-top: 33px;""><img src=""images/choice_trial_2.png"" style=""width: 408px; height: 417px; margin-right: 200px;""><img src=""images/choice_trial_9.png"" style=""width: 408px; height: 417px;""></div></div>",f,delaylearn,learning,trial,BKtGXZLAejeHLqNgPEmezMTZ8O63,BKtGXZLAejeHLqNgPEmezMTZ8O63,2.0,images/choice_trial_2.png,images/choice_trial_9.png,images/pattern_5.png,j,f,750.0,2.0,9.0,4.0,0.0,31.0,1.0,0.0,2.0,180.0,,,,,,6543af72769aacc0bf14521e,09:11:51,27/02/2024
html-keyboard-response,173,372809,0.0-72.0-1.0,,"<div style=""display: flex; flex-direction: column; align-items: center; margin-top: -40px;""><img src=""images/pattern_5.png"" style=""width: 234px; height: 230px; margin-top: -50px;""><div style=""display: flex; justify-content: space-between; margin-top: 33px;""><img src=""images/choice_trial_2.png"" style=""width: 408px; height: 417px; margin-right: 608px;""></div></div>",,delaylearn,learning,display_response,BKtGXZLAejeHLqNgPEmezMTZ8O63,BKtGXZLAejeHLqNgPEmezMTZ8O63,,,,,,,,,,,,,,,,,chosen stimuli: images/choice_trial_2.png,,,,,6543af72769aacc0bf14521e,09:11:51,27/02/2024
html-keyboard-response,174,373568,0.0-72.0-2.0,,,,delaylearn,learning,feedback_duration_window,BKtGXZLAejeHLqNgPEmezMTZ8O63,BKtGXZLAejeHLqNgPEmezMTZ8O63,,,,,,,,,,,,,,,,,,750.0,,,,6543af72769aacc0bf14521e,09:11:51,27/02/2024
html-keyboard-response,175,375081,0.0-72.0-3.0,,<div style='margin:auto;width: auto; font-size: 150%'><span style='font-weight: bold; font-size: 100px; color: red;'>0 points!</span><br><br></div>,,delaylearn,learning,feedback_image_window,BKtGXZLAejeHLqNgPEmezMTZ8O63,BKtGXZLAejeHLqNgPEmezMTZ8O63,,,,,,,,,,,,,,,,,,,,,,6543af72769aacc0bf14521e,09:11:51,27/02/2024
html-keyboard-response,176,377226,0.0-73.0,,"<div style=""font-size:100px;"">+</div>",,delaylearn,learning,ITI,BKtGXZLAejeHLqNgPEmezMTZ8O63,BKtGXZLAejeHLqNgPEmezMTZ8O63,,,,,,,,,,,,,,,,,,,2134.0,,,6543af72769aacc0bf14521e,09:11:51,27/02/2024
html-keyboard-response,177,378514,0.0-74.0-0.0,1286.3999999761581,"<div style=""display: flex; flex-direction: column; align-items: center; margin-top: -40px;""><img src=""images/pattern_1.png"" style=""width: 234px; height: 230px; margin-top: -50px;""><div style=""display: flex; justify-content: space-between; margin-top: 33px;""><img src=""images/choice_trial_3.png"" style=""width: 408px; height: 417px; margin-right: 200px;""><img src=""images/choice_trial_10.png"" style=""width: 408px; height: 417px;""></div></div>",f,delaylearn,learning,trial,BKtGXZLAejeHLqNgPEmezMTZ8O63,BKtGXZLAejeHLqNgPEmezMTZ8O63,2.0,images/choice_trial_3.png,images/choice_trial_10.png,images/pattern_1.png,f,f,7000.0,3.0,10.0,1.0,0.0,32.0,1.0,1.0,3.0,190.0,,,,,,6543af72769aacc0bf14521e,09:11:51,27/02/2024
html-keyboard-response,178,379517,0.0-74.0-1.0,,"<div style=""display: flex; flex-direction: column; align-items: center; margin-top: -40px;""><img src=""images/pattern_1.png"" style=""width: 234px; height: 230px; margin-top: -50px;""><div style=""display: flex; justify-content: space-between; margin-top: 33px;""><img src=""images/choice_trial_3.png"" style=""width: 408px; height: 417px; margin-right: 608px;""></div></div>",,delaylearn,learning,display_response,BKtGXZLAejeHLqNgPEmezMTZ8O63,BKtGXZLAejeHLqNgPEmezMTZ8O63,,,,,,,,,,,,,,,,,chosen stimuli: images/choice_trial_3.png,,,,,6543af72769aacc0bf14521e,09:11:51,27/02/2024
html-keyboard-response,179,386523,0.0-74.0-2.0,,,,delaylearn,learning,feedback_duration_window,BKtGXZLAejeHLqNgPEmezMTZ8O63,BKtGXZLAejeHLqNgPEmezMTZ8O63,,,,,,,,,,,,,,,,,,7000.0,,,,6543af72769aacc0bf14521e,09:11:51,27/02/2024
html-keyboard-response,180,388037,0.0-74.0-3.0,,<div style='margin:auto;width: auto; font-size: 150%'><span style='font-weight: bold; font-size: 100px; color: green;'>+10 points!</span><br><br></div>,,delaylearn,learning,feedback_image_window,BKtGXZLAejeHLqNgPEmezMTZ8O63,BKtGXZLAejeHLqNgPEmezMTZ8O63,,,,,,,,,,,,,,,,,,,,,,6543af72769aacc0bf14521e,09:11:51,27/02/2024
html-keyboard-response,181,388541,0.0-75.0-0.0,,,,,,mood_trial_fixation,BKtGXZLAejeHLqNgPEmezMTZ8O63,,,,,,,,,,,,,,,,,,,,,,,6543af72769aacc0bf14521e,09:11:51,27/02/2024
lmdlab-html-vas-response,182,393143,0.0-75.0-1.0,3593.0,How happy are you right now?,0.6446999964443255,delaylearn,learning,mood_trial,BKtGXZLAejeHLqNgPEmezMTZ8O63,BKtGXZLAejeHLqNgPEmezMTZ8O63,,,,,,,,,,,,,,,,,,,,"['Very unhappy', 'Very happy']",,6543af72769aacc0bf14521e,09:11:51,27/02/2024
html-keyboard-response,183,395138,0.0-76.0,,"<div style=""font-size:100px;"">+</div>",,delaylearn,learning,ITI,BKtGXZLAejeHLqNgPEmezMTZ8O63,BKtGXZLAejeHLqNgPEmezMTZ8O63,,,,,,,,,,,,,,,,,,,1982.0,,,6543af72769aacc0bf14521e,09:11:51,27/02/2024
html-keyboard-response,184,398042,0.0-77.0-0.0,2901.7999999523163,"<div style=""display: flex; flex-direction: column; align-items: center; margin-top: -40px;""><img src=""images/pattern_6.png"" style=""width: 234px; height: 230px; margin-top: -50px;""><div style=""display: flex; justify-content: space-between; margin-top: 33px;""><img src=""images/choice_trial_11.png"" style=""width: 408px; height: 417px; margin-right: 200px;""><img src=""images/choice_trial_5.png"" style=""width: 408px; height: 417px;""></div></div>",f,delaylearn,learning,trial,BKtGXZLAejeHLqNgPEmezMTZ8O63,BKtGXZLAejeHLqNgPEmezMTZ8O63,2.0,images/choice_trial_11.png,images/choice_trial_5.png,images/pattern_6.png,j,f,750.0,11.0,5.0,5.0,0.0,33.0,1.0,0.0,11.0,190.0,,,,,,6543af72769aacc0bf14521e,09:11:51,27/02/2024
html-keyboard-response,185,399045,0.0-77.0-1.0,,"<div style=""display: flex; flex-direction: column; align-items: center; margin-top: -40px;""><img src=""images/pattern_6.png"" style=""width: 234px; height: 230px; margin-top: -50px;""><div style=""display: flex; justify-content: space-between; margin-top: 33px;""><img src=""images/choice_trial_11.png"" style=""width: 408px; height: 417px; margin-right: 608px;""></div></div>",,delaylearn,learning,display_response,BKtGXZLAejeHLqNgPEmezMTZ8O63,BKtGXZLAejeHLqNgPEmezMTZ8O63,,,,,,,,,,,,,,,,,chosen stimuli: images/choice_trial_11.png,,,,,6543af72769aacc0bf14521e,09:11:51,27/02/2024
html-keyboard-response,186,399799,0.0-77.0-2.0,,,,delaylearn,learning,feedback_duration_window,BKtGXZLAejeHLqNgPEmezMTZ8O63,BKtGXZLAejeHLqNgPEmezMTZ8O63,,,,,,,,,,,,,,,,,,750.0,,,,6543af72769aacc0bf14521e,09:11:51,27/02/2024
html-keyboard-response,187,401312,0.0-77.0-3.0,,<div style='margin:auto;width: auto; font-size: 150%'><span style='font-weight: bold; font-size: 100px; color: red;'>0 points!</span><br><br></div>,,delaylearn,learning,feedback_image_window,BKtGXZLAejeHLqNgPEmezMTZ8O63,BKtGXZLAejeHLqNgPEmezMTZ8O63,,,,,,,,,,,,,,,,,,,,,,6543af72769aacc0bf14521e,09:11:51,27/02/2024
html-keyboard-response,188,403557,0.0-78.0,,"<div style=""font-size:100px;"">+</div>",,delaylearn,learning,ITI,BKtGXZLAejeHLqNgPEmezMTZ8O63,BKtGXZLAejeHLqNgPEmezMTZ8O63,,,,,,,,,,,,,,,,,,,2236.0,,,6543af72769aacc0bf14521e,09:11:51,27/02/2024
html-keyboard-response,189,405566,0.0-79.0-0.0,2006.5999999046326,"<div style=""display: flex; flex-direction: column; align-items: center; margin-top: -40px;""><img src=""images/pattern_3.png"" style=""width: 234px; height: 230px; margin-top: -50px;""><div style=""display: flex; justify-content: space-between; margin-top: 33px;""><img src=""images/choice_trial_14.png"" style=""width: 408px; height: 417px; margin-right: 200px;""><img src=""images/choice_trial_12.png"" style=""width: 408px; height: 417px;""></div></div>",j,delaylearn,learning,trial,BKtGXZLAejeHLqNgPEmezMTZ8O63,BKtGXZLAejeHLqNgPEmezMTZ8O63,2.0,images/choice_trial_14.png,images/choice_trial_12.png,images/pattern_3.png,j,j,7000.0,14.0,12.0,2.0,1.0,34.0,1.0,1.0,12.0,200.0,,,,,,6543af72769aacc0bf14521e,09:11:51,27/02/2024
html-keyboard-response,190,406570,0.0-79.0-1.0,,"<div style=""display: flex; flex-direction: column; align-items: center; margin-top: -40px;""><img src=""images/pattern_3.png"" style=""width: 234px; height: 230px; margin-top: -50px;""><div style=""display: flex; justify-content: space-between; margin-top: 33px;""><img src=""images/choice_trial_12.png"" style=""width: 408px; height: 417px; margin-left:608px;""></div></div>",,delaylearn,learning,display_response,BKtGXZLAejeHLqNgPEmezMTZ8O63,BKtGXZLAejeHLqNgPEmezMTZ8O63,,,,,,,,,,,,,,,,,chosen stimuli: images/choice_trial_12.png,,,,,6543af72769aacc0bf14521e,09:11:51,27/02/2024
html-keyboard-response,191,413581,0.0-79.0-2.0,,,,delaylearn,learning,feedback_duration_window,BKtGXZLAejeHLqNgPEmezMTZ8O63,BKtGXZLAejeHLqNgPEmezMTZ8O63,,,,,,,,,,,,,,,,,,7000.0,,,,6543af72769aacc0bf14521e,09:11:51,27/02/2024
html-keyboard-response,192,415086,0.0-79.0-3.0,,<div style='margin:auto;width: auto; font-size: 150%'><span style='font-weight: bold; font-size: 100px; color: green;'>+10 points!</span><br><br></div>,,delaylearn,learning,feedback_image_window,BKtGXZLAejeHLqNgPEmezMTZ8O63,BKtGXZLAejeHLqNgPEmezMTZ8O63,,,,,,,,,,,,,,,,,,,,,,6543af72769aacc0bf14521e,09:11:51,27/02/2024
html-keyboard-response,193,416944,0.0-80.0,,"<div style=""font-size:100px;"">+</div>",,delaylearn,learning,ITI,BKtGXZLAejeHLqNgPEmezMTZ8O63,BKtGXZLAejeHLqNgPEmezMTZ8O63,,,,,,,,,,,,,,,,,,,1854.0,,,6543af72769aacc0bf14521e,09:11:51,27/02/2024
html-keyboard-response,194,418824,0.0-81.0-0.0,1877.3999999761581,"<div style=""display: flex; flex-direction: column; align-items: center; margin-top: -40px;""><img src=""images/pattern_4.png"" style=""width: 234px; height: 230px; margin-top: -50px;""><div style=""display: flex; justify-content: space-between; margin-top: 33px;""><img src=""images/choice_trial_16.png"" style=""width: 408px; height: 417px; margin-right: 200px;""><img src=""images/choice_trial_4.png"" style=""width: 408px; height: 417px;""></div></div>",j,delaylearn,learning,trial,BKtGXZLAejeHLqNgPEmezMTZ8O63,BKtGXZLAejeHLqNgPEmezMTZ8O63,2.0,images/choice_trial_16.png,images/choice_trial_4.png,images/pattern_4.png,f,j,7000.0,16.0,4.0,3.0,1.0,35.0,1.0,0.0,4.0,200.0,,,,,,6543af72769aacc0bf14521e,09:11:51,27/02/2024
html-keyboard-response,195,419840,0.0-81.0-1.0,,"<div style=""display: flex; flex-direction: column; align-items: center; margin-top: -40px;""><img src=""images/pattern_4.png"" style=""width: 234px; height: 230px; margin-top: -50px;""><div style=""display: flex; justify-content: space-between; margin-top: 33px;""><img src=""images/choice_trial_4.png"" style=""width: 408px; height: 417px; margin-left:608px;""></div></div>",,delaylearn,learning,display_response,BKtGXZLAejeHLqNgPEmezMTZ8O63,BKtGXZLAejeHLqNgPEmezMTZ8O63,,,,,,,,,,,,,,,,,chosen stimuli: images/choice_trial_4.png,,,,,6543af72769aacc0bf14521e,09:11:51,27/02/2024
html-keyboard-response,196,426850,0.0-81.0-2.0,,,,delaylearn,learning,feedback_duration_window,BKtGXZLAejeHLqNgPEmezMTZ8O63,BKtGXZLAejeHLqNgPEmezMTZ8O63,,,,,,,,,,,,,,,,,,7000.0,,,,6543af72769aacc0bf14521e,09:11:51,27/02/2024
html-keyboard-response,197,428362,0.0-81.0-3.0,,<div style='margin:auto;width: auto; font-size: 150%'><span style='font-weight: bold; font-size: 100px; color: red;'>0 points!</span><br><br></div>,,delaylearn,learning,feedback_image_window,BKtGXZLAejeHLqNgPEmezMTZ8O63,BKtGXZLAejeHLqNgPEmezMTZ8O63,,,,,,,,,,,,,,,,,,,,,,6543af72769aacc0bf14521e,09:11:51,27/02/2024
html-keyboard-response,198,430531,0.0-82.0,,"<div style=""font-size:100px;"">+</div>",,delaylearn,learning,ITI,BKtGXZLAejeHLqNgPEmezMTZ8O63,BKtGXZLAejeHLqNgPEmezMTZ8O63,,,,,,,,,,,,,,,,,,,2158.0,,,6543af72769aacc0bf14521e,09:11:51,27/02/2024
html-keyboard-response,199,432413,0.0-83.0-0.0,1878.8999999761581,"<div style=""display: flex; flex-direction: column; align-items: center; margin-top: -40px;""><img src=""images/pattern_7.png"" style=""width: 234px; height: 230px; margin-top: -50px;""><div style=""display: flex; justify-content: space-between; margin-top: 33px;""><img src=""images/choice_trial_8.png"" style=""width: 408px; height: 417px; margin-right: 200px;""><img src=""images/choice_trial_15.png"" style=""width: 408px; height: 417px;""></div></div>",f,delaylearn,learning,trial,BKtGXZLAejeHLqNgPEmezMTZ8O63,BKtGXZLAejeHLqNgPEmezMTZ8O63,2.0,images/choice_trial_8.png,images/choice_trial_15.png,images/pattern_7.png,f,f,750.0,8.0,15.0,6.0,0.0,36.0,1.0,1.0,8.0,210.0,,,,,,6543af72769aacc0bf14521e,09:11:51,27/02/2024
html-keyboard-response,200,433422,0.0-83.0-1.0,,"<div style=""display: flex; flex-direction: column; align-items: center; margin-top: -40px;""><img src=""images/pattern_7.png"" style=""width: 234px; height: 230px; margin-top: -50px;""><div style=""display: flex; justify-content: space-between; margin-top: 33px;""><img src=""images/choice_trial_8.png"" style=""width: 408px; height: 417px; margin-right: 608px;""></div></div>",,delaylearn,learning,display_response,BKtGXZLAejeHLqNgPEmezMTZ8O63,BKtGXZLAejeHLqNgPEmezMTZ8O63,,,,,,,,,,,,,,,,,chosen stimuli: images/choice_trial_8.png,,,,,6543af72769aacc0bf14521e,09:11:51,27/02/2024
html-keyboard-response,201,434181,0.0-83.0-2.0,,,,delaylearn,learning,feedback_duration_window,BKtGXZLAejeHLqNgPEmezMTZ8O63,BKtGXZLAejeHLqNgPEmezMTZ8O63,,,,,,,,,,,,,,,,,,750.0,,,,6543af72769aacc0bf14521e,09:11:51,27/02/2024
html-keyboard-response,202,435698,0.0-83.0-3.0,,<div style='margin:auto;width: auto; font-size: 150%'><span style='font-weight: bold; font-size: 100px; color: green;'>+10 points!</span><br><br></div>,,delaylearn,learning,feedback_image_window,BKtGXZLAejeHLqNgPEmezMTZ8O63,BKtGXZLAejeHLqNgPEmezMTZ8O63,,,,,,,,,,,,,,,,,,,,,,6543af72769aacc0bf14521e,09:11:51,27/02/2024
html-keyboard-response,203,437669,0.0-84.0,,"<div style=""font-size:100px;"">+</div>",,delaylearn,learning,ITI,BKtGXZLAejeHLqNgPEmezMTZ8O63,BKtGXZLAejeHLqNgPEmezMTZ8O63,,,,,,,,,,,,,,,,,,,1962.0,,,6543af72769aacc0bf14521e,09:11:51,27/02/2024
html-keyboard-response,204,438810,0.0-85.0-0.0,1138.6000000238419,"<div style=""display: flex; flex-direction: column; align-items: center; margin-top: -40px;""><img src=""images/pattern_1.png"" style=""width: 234px; height: 230px; margin-top: -50px;""><div style=""display: flex; justify-content: space-between; margin-top: 33px;""><img src=""images/choice_trial_3.png"" style=""width: 408px; height: 417px; margin-right: 200px;""><img src=""images/choice_trial_10.png"" style=""width: 408px; height: 417px;""></div></div>",f,delaylearn,learning,trial,BKtGXZLAejeHLqNgPEmezMTZ8O63,BKtGXZLAejeHLqNgPEmezMTZ8O63,2.0,images/choice_trial_3.png,images/choice_trial_10.png,images/pattern_1.png,f,f,7000.0,3.0,10.0,1.0,0.0,37.0,1.0,1.0,3.0,220.0,,,,,,6543af72769aacc0bf14521e,09:11:51,27/02/2024
html-keyboard-response,205,439820,0.0-85.0-1.0,,"<div style=""display: flex; flex-direction: column; align-items: center; margin-top: -40px;""><img src=""images/pattern_1.png"" style=""width: 234px; height: 230px; margin-top: -50px;""><div style=""display: flex; justify-content: space-between; margin-top: 33px;""><img src=""images/choice_trial_3.png"" style=""width: 408px; height: 417px; margin-right: 608px;""></div></div>",,delaylearn,learning,display_response,BKtGXZLAejeHLqNgPEmezMTZ8O63,BKtGXZLAejeHLqNgPEmezMTZ8O63,,,,,,,,,,,,,,,,,chosen stimuli: images/choice_trial_3.png,,,,,6543af72769aacc0bf14521e,09:11:51,27/02/2024
html-keyboard-response,206,446835,0.0-85.0-2.0,,,,delaylearn,learning,feedback_duration_window,BKtGXZLAejeHLqNgPEmezMTZ8O63,BKtGXZLAejeHLqNgPEmezMTZ8O63,,,,,,,,,,,,,,,,,,7000.0,,,,6543af72769aacc0bf14521e,09:11:51,27/02/2024
html-keyboard-response,207,448336,0.0-85.0-3.0,,<div style='margin:auto;width: auto; font-size: 150%'><span style='font-weight: bold; font-size: 100px; color: green;'>+10 points!</span><br><br></div>,,delaylearn,learning,feedback_image_window,BKtGXZLAejeHLqNgPEmezMTZ8O63,BKtGXZLAejeHLqNgPEmezMTZ8O63,,,,,,,,,,,,,,,,,,,,,,6543af72769aacc0bf14521e,09:11:51,27/02/2024
html-keyboard-response,208,448845,0.0-86.0-0.0,,,,,,mood_trial_fixation,BKtGXZLAejeHLqNgPEmezMTZ8O63,,,,,,,,,,,,,,,,,,,,,,,6543af72769aacc0bf14521e,09:11:51,27/02/2024
lmdlab-html-vas-response,209,453347,0.0-86.0-1.0,3484.0,How happy are you right now?,0.7700857930084137,delaylearn,learning,mood_trial,BKtGXZLAejeHLqNgPEmezMTZ8O63,BKtGXZLAejeHLqNgPEmezMTZ8O63,,,,,,,,,,,,,,,,,,,,"['Very unhappy', 'Very happy']",,6543af72769aacc0bf14521e,09:11:51,27/02/2024
html-keyboard-response,210,455462,0.0-87.0,,"<div style=""font-size:100px;"">+</div>",,delaylearn,learning,ITI,BKtGXZLAejeHLqNgPEmezMTZ8O63,BKtGXZLAejeHLqNgPEmezMTZ8O63,,,,,,,,,,,,,,,,,,,2101.0,,,6543af72769aacc0bf14521e,09:11:51,27/02/2024
html-keyboard-response,211,457330,0.0-88.0-0.0,1864.6000000238419,"<div style=""display: flex; flex-direction: column; align-items: center; margin-top: -40px;""><img src=""images/pattern_3.png"" style=""width: 234px; height: 230px; margin-top: -50px;""><div style=""display: flex; justify-content: space-between; margin-top: 33px;""><img src=""images/choice_trial_12.png"" style=""width: 408px; height: 417px; margin-right: 200px;""><img src=""images/choice_trial_14.png"" style=""width: 408px; height: 417px;""></div></div>",f,delaylearn,learning,trial,BKtGXZLAejeHLqNgPEmezMTZ8O63,BKtGXZLAejeHLqNgPEmezMTZ8O63,2.0,images/choice_trial_12.png,images/choice_trial_14.png,images/pattern_3.png,j,f,7000.0,12.0,14.0,2.0,0.0,38.0,1.0,0.0,12.0,220.0,,,,,,6543af72769aacc0bf14521e,09:11:51,27/02/2024
html-keyboard-response,212,458343,0.0-88.0-1.0,,"<div style=""display: flex; flex-direction: column; align-items: center; margin-top: -40px;""><img src=""images/pattern_3.png"" style=""width: 234px; height: 230px; margin-top: -50px;""><div style=""display: flex; justify-content: space-between; margin-top: 33px;""><img src=""images/choice_trial_12.png"" style=""width: 408px; height: 417px; margin-right: 608px;""></div></div>",,delaylearn,learning,display_response,BKtGXZLAejeHLqNgPEmezMTZ8O63,BKtGXZLAejeHLqNgPEmezMTZ8O63,,,,,,,,,,,,,,,,,chosen stimuli: images/choice_trial_12.png,,,,,6543af72769aacc0bf14521e,09:11:51,27/02/2024
html-keyboard-response,213,465350,0.0-88.0-2.0,,,,delaylearn,learning,feedback_duration_window,BKtGXZLAejeHLqNgPEmezMTZ8O63,BKtGXZLAejeHLqNgPEmezMTZ8O63,,,,,,,,,,,,,,,,,,7000.0,,,,6543af72769aacc0bf14521e,09:11:51,27/02/2024
html-keyboard-response,214,466854,0.0-88.0-3.0,,<div style='margin:auto;width: auto; font-size: 150%'><span style='font-weight: bold; font-size: 100px; color: red;'>0 points!</span><br><br></div>,,delaylearn,learning,feedback_image_window,BKtGXZLAejeHLqNgPEmezMTZ8O63,BKtGXZLAejeHLqNgPEmezMTZ8O63,,,,,,,,,,,,,,,,,,,,,,6543af72769aacc0bf14521e,09:11:51,27/02/2024
html-keyboard-response,215,468988,0.0-89.0,,"<div style=""font-size:100px;"">+</div>",,delaylearn,learning,ITI,BKtGXZLAejeHLqNgPEmezMTZ8O63,BKtGXZLAejeHLqNgPEmezMTZ8O63,,,,,,,,,,,,,,,,,,,2118.0,,,6543af72769aacc0bf14521e,09:11:51,27/02/2024
html-keyboard-response,216,472006,0.0-90.0-0.0,,"<div style=""display: flex; flex-direction: column; align-items: center; margin-top: -40px;""><img src=""images/pattern_7.png"" style=""width: 234px; height: 230px; margin-top: -50px;""><div style=""display: flex; justify-content: space-between; margin-top: 33px;""><img src=""images/choice_trial_15.png"" style=""width: 408px; height: 417px; margin-right: 200px;""><img src=""images/choice_trial_8.png"" style=""width: 408px; height: 417px;""></div></div>",,delaylearn,learning,trial,BKtGXZLAejeHLqNgPEmezMTZ8O63,BKtGXZLAejeHLqNgPEmezMTZ8O63,2.0,images/choice_trial_15.png,images/choice_trial_8.png,images/pattern_7.png,j,j,750.0,15.0,8.0,6.0,1.0,39.0,0.0,0.0,0.0,220.0,,,,,,6543af72769aacc0bf14521e,09:11:51,27/02/2024
html-keyboard-response,217,473010,0.0-90.0-1.0,,<div style='font-weight: bold; font-size: 75px; color: red;'>Missed Trial <br><br><br><br> Please respond faster</div>,,delaylearn,learning,display_response,BKtGXZLAejeHLqNgPEmezMTZ8O63,BKtGXZLAejeHLqNgPEmezMTZ8O63,,,,,,,,,,,,,,,,,Missed trial,,,,,6543af72769aacc0bf14521e,09:11:51,27/02/2024
html-keyboard-response,218,473017,0.0-90.0-2.0,,,,delaylearn,learning,feedback_duration_window,BKtGXZLAejeHLqNgPEmezMTZ8O63,BKtGXZLAejeHLqNgPEmezMTZ8O63,,,,,,,,,,,,,,,,,,0.0,,,,6543af72769aacc0bf14521e,09:11:51,27/02/2024
html-keyboard-response,219,473024,0.0-90.0-3.0,,,,delaylearn,learning,feedback_image_window,BKtGXZLAejeHLqNgPEmezMTZ8O63,BKtGXZLAejeHLqNgPEmezMTZ8O63,,,,,,,,,,,,,,,,,,,,,,6543af72769aacc0bf14521e,09:11:51,27/02/2024
html-keyboard-response,220,474738,0.0-91.0,,"<div style=""font-size:100px;"">+</div>",,delaylearn,learning,ITI,BKtGXZLAejeHLqNgPEmezMTZ8O63,BKtGXZLAejeHLqNgPEmezMTZ8O63,,,,,,,,,,,,,,,,,,,1713.0,,,6543af72769aacc0bf14521e,09:11:51,27/02/2024
html-keyboard-response,221,475884,0.0-92.0-0.0,1143.0,"<div style=""display: flex; flex-direction: column; align-items: center; margin-top: -40px;""><img src=""images/pattern_5.png"" style=""width: 234px; height: 230px; margin-top: -50px;""><div style=""display: flex; justify-content: space-between; margin-top: 33px;""><img src=""images/choice_trial_9.png"" style=""width: 408px; height: 417px; margin-right: 200px;""><img src=""images/choice_trial_2.png"" style=""width: 408px; height: 417px;""></div></div>",f,delaylearn,learning,trial,BKtGXZLAejeHLqNgPEmezMTZ8O63,BKtGXZLAejeHLqNgPEmezMTZ8O63,2.0,images/choice_trial_9.png,images/choice_trial_2.png,images/pattern_5.png,j,j,750.0,9.0,2.0,4.0,1.0,40.0,0.0,0.0,9.0,220.0,,,,,,6543af72769aacc0bf14521e,09:11:51,27/02/2024
html-keyboard-response,222,476901,0.0-92.0-1.0,,"<div style=""display: flex; flex-direction: column; align-items: center; margin-top: -40px;""><img src=""images/pattern_5.png"" style=""width: 234px; height: 230px; margin-top: -50px;""><div style=""display: flex; justify-content: space-between; margin-top: 33px;""><img src=""images/choice_trial_9.png"" style=""width: 408px; height: 417px; margin-right: 608px;""></div></div>",,delaylearn,learning,display_response,BKtGXZLAejeHLqNgPEmezMTZ8O63,BKtGXZLAejeHLqNgPEmezMTZ8O63,,,,,,,,,,,,,,,,,chosen stimuli: images/choice_trial_9.png,,,,,6543af72769aacc0bf14521e,09:11:51,27/02/2024
html-keyboard-response,223,477665,0.0-92.0-2.0,,,,delaylearn,learning,feedback_duration_window,BKtGXZLAejeHLqNgPEmezMTZ8O63,BKtGXZLAejeHLqNgPEmezMTZ8O63,,,,,,,,,,,,,,,,,,750.0,,,,6543af72769aacc0bf14521e,09:11:51,27/02/2024
html-keyboard-response,224,479181,0.0-92.0-3.0,,<div style='margin:auto;width: auto; font-size: 150%'><span style='font-weight: bold; font-size: 100px; color: red;'>0 points!</span><br><br></div>,,delaylearn,learning,feedback_image_window,BKtGXZLAejeHLqNgPEmezMTZ8O63,BKtGXZLAejeHLqNgPEmezMTZ8O63,,,,,,,,,,,,,,,,,,,,,,6543af72769aacc0bf14521e,09:11:51,27/02/2024
html-keyboard-response,225,479687,0.0-93.0-0.0,,,,,,mood_trial_fixation,BKtGXZLAejeHLqNgPEmezMTZ8O63,,,,,,,,,,,,,,,,,,,,,,,6543af72769aacc0bf14521e,09:11:51,27/02/2024
lmdlab-html-vas-response,226,483795,0.0-93.0-1.0,3096.0,How happy are you right now?,0.39199939106131704,delaylearn,learning,mood_trial,BKtGXZLAejeHLqNgPEmezMTZ8O63,BKtGXZLAejeHLqNgPEmezMTZ8O63,,,,,,,,,,,,,,,,,,,,"['Very unhappy', 'Very happy']",,6543af72769aacc0bf14521e,09:11:51,27/02/2024
html-keyboard-response,227,485448,0.0-94.0,,"<div style=""font-size:100px;"">+</div>",,delaylearn,learning,ITI,BKtGXZLAejeHLqNgPEmezMTZ8O63,BKtGXZLAejeHLqNgPEmezMTZ8O63,,,,,,,,,,,,,,,,,,,1637.0,,,6543af72769aacc0bf14521e,09:11:51,27/02/2024
html-keyboard-response,228,486587,0.0-95.0-0.0,1135.8999999761581,"<div style=""display: flex; flex-direction: column; align-items: center; margin-top: -40px;""><img src=""images/pattern_4.png"" style=""width: 234px; height: 230px; margin-top: -50px;""><div style=""display: flex; justify-content: space-between; margin-top: 33px;""><img src=""images/choice_trial_4.png"" style=""width: 408px; height: 417px; margin-right: 200px;""><img src=""images/choice_trial_16.png"" style=""width: 408px; height: 417px;""></div></div>",f,delaylearn,learning,trial,BKtGXZLAejeHLqNgPEmezMTZ8O63,BKtGXZLAejeHLqNgPEmezMTZ8O63,2.0,images/choice_trial_4.png,images/choice_trial_16.png,images/pattern_4.png,f,f,7000.0,4.0,16.0,3.0,0.0,41.0,1.0,1.0,4.0,230.0,,,,,,6543af72769aacc0bf14521e,09:11:51,27/02/2024
html-keyboard-response,229,487593,0.0-95.0-1.0,,"<div style=""display: flex; flex-direction: column; align-items: center; margin-top: -40px;""><img src=""images/pattern_4.png"" style=""width: 234px; height: 230px; margin-top: -50px;""><div style=""display: flex; justify-content: space-between; margin-top: 33px;""><img src=""images/choice_trial_4.png"" style=""width: 408px; height: 417px; margin-right: 608px;""></div></div>",,delaylearn,learning,display_response,BKtGXZLAejeHLqNgPEmezMTZ8O63,BKtGXZLAejeHLqNgPEmezMTZ8O63,,,,,,,,,,,,,,,,,chosen stimuli: images/choice_trial_4.png,,,,,6543af72769aacc0bf14521e,09:11:51,27/02/2024
html-keyboard-response,230,494608,0.0-95.0-2.0,,,,delaylearn,learning,feedback_duration_window,BKtGXZLAejeHLqNgPEmezMTZ8O63,BKtGXZLAejeHLqNgPEmezMTZ8O63,,,,,,,,,,,,,,,,,,7000.0,,,,6543af72769aacc0bf14521e,09:11:51,27/02/2024
html-keyboard-response,231,496111,0.0-95.0-3.0,,<div style='margin:auto;width: auto; font-size: 150%'><span style='font-weight: bold; font-size: 100px; color: green;'>+10 points!</span><br><br></div>,,delaylearn,learning,feedback_image_window,BKtGXZLAejeHLqNgPEmezMTZ8O63,BKtGXZLAejeHLqNgPEmezMTZ8O63,,,,,,,,,,,,,,,,,,,,,,6543af72769aacc0bf14521e,09:11:51,27/02/2024
html-keyboard-response,232,497631,0.0-96.0,,"<div style=""font-size:100px;"">+</div>",,delaylearn,learning,ITI,BKtGXZLAejeHLqNgPEmezMTZ8O63,BKtGXZLAejeHLqNgPEmezMTZ8O63,,,,,,,,,,,,,,,,,,,1507.0,,,6543af72769aacc0bf14521e,09:11:51,27/02/2024
html-keyboard-response,233,499285,0.0-97.0-0.0,1650.1999999284744,"<div style=""display: flex; flex-direction: column; align-items: center; margin-top: -40px;""><img src=""images/pattern_6.png"" style=""width: 234px; height: 230px; margin-top: -50px;""><div style=""display: flex; justify-content: space-between; margin-top: 33px;""><img src=""images/choice_trial_5.png"" style=""width: 408px; height: 417px; margin-right: 200px;""><img src=""images/choice_trial_11.png"" style=""width: 408px; height: 417px;""></div></div>",j,delaylearn,learning,trial,BKtGXZLAejeHLqNgPEmezMTZ8O63,BKtGXZLAejeHLqNgPEmezMTZ8O63,2.0,images/choice_trial_5.png,images/choice_trial_11.png,images/pattern_6.png,j,j,750.0,5.0,11.0,5.0,1.0,42.0,1.0,1.0,11.0,240.0,,,,,,6543af72769aacc0bf14521e,09:11:51,27/02/2024
