trial_type,trial_index,time_elapsed,internal_node_id,rt,stimulus,response,exp_name,exp_stage,test_part,subjectID,databaseID,counterbal,choice_stimuli_1,choice_stimuli_2,pattern_stimuli,rewarded_answer,correct_answer,feedback_duration_times,stim_left,stim_right,pair,leftright_counter,trial,response_correct,response_rewarded,chosen_stim,counter,displayed_choice,feedback_durations,ITI_duration,labels,rest_warning,prolificID,start_time,date
pavlovia,0,576,0.0-0.0,,,,,,,NLxvuzfNAiScPDluzpGggvFbN8Y2,,,,,,,,,,,,,,,,,,,,,,,5e9aff02f4a78b1a1fe7fc3c,16:40:00,27/03/2024
html-keyboard-response,1,3582,0.0-1.0,,"<div style=""font-size:100px;"">+</div>",,delaylearn,learning,pre_fixation,NLxvuzfNAiScPDluzpGggvFbN8Y2,,,,,,,,,,,,,,,,,,,,,,,5e9aff02f4a78b1a1fe7fc3c,16:40:00,27/03/2024
html-keyboard-response,2,4483,0.0-2.0-0.0,898.5,"<div style=""display: flex; flex-direction: column; align-items: center; margin-top: -40px;""><img src=""images/demo_images/pattern_1.png"" style=""width: 234px; height: 230px; margin-top: -50px;""><div style=""display: flex; justify-content: space-between; margin-top: 33px;""><img src=""images/demo_images/choice_trial_2.png"" style=""width: 408px; height: 417px; margin-right: 200px;""><img src=""images/demo_images/choice_trial_1.png"" style=""width: 408px; height: 417px;""></div></div>",f,delaylearn,learning,trial,NLxvuzfNAiScPDluzpGggvFbN8Y2,NLxvuzfNAiScPDluzpGggvFbN8Y2,5.0,images/demo_images/choice_trial_2.png,images/demo_images/choice_trial_1.png,images/demo_images/pattern_1.png,j,j,3000.0,2.0,1.0,20.0,1.0,1.0,0.0,0.0,2.0,0.0,,,,,,5e9aff02f4a78b1a1fe7fc3c,16:40:00,27/03/2024
html-keyboard-response,3,5494,0.0-2.0-1.0,,"<div style=""display: flex; flex-direction: column; align-items: center; margin-top: -40px;""><img src=""images/demo_images/pattern_1.png"" style=""width: 234px; height: 230px; margin-top: -50px;""><div style=""display: flex; justify-content: space-between; margin-top: 33px;""><img src=""images/demo_images/choice_trial_2.png"" style=""width: 408px; height: 417px; margin-right: 608px;""></div></div>",,delaylearn,learning,display_response,NLxvuzfNAiScPDluzpGggvFbN8Y2,NLxvuzfNAiScPDluzpGggvFbN8Y2,,,,,,,,,,,,,,,,,chosen stimuli: images/demo_images/choice_trial_2.png,,,,,5e9aff02f4a78b1a1fe7fc3c,16:40:00,27/03/2024
html-keyboard-response,4,8507,0.0-2.0-2.0,,,,delaylearn,learning,feedback_duration_window,NLxvuzfNAiScPDluzpGggvFbN8Y2,NLxvuzfNAiScPDluzpGggvFbN8Y2,,,,,,,,,,,,,,,,,,3000.0,,,,5e9aff02f4a78b1a1fe7fc3c,16:40:00,27/03/2024
html-keyboard-response,5,10015,0.0-2.0-3.0,,<div style='margin:auto;width: auto; font-size: 150%'><span style='font-weight: bold; font-size: 100px; color: red;'>0 points!</span><br><br></div>,,delaylearn,learning,feedback_image_window,NLxvuzfNAiScPDluzpGggvFbN8Y2,NLxvuzfNAiScPDluzpGggvFbN8Y2,,,,,,,,,,,,,,,,,,,,,,5e9aff02f4a78b1a1fe7fc3c,16:40:00,27/03/2024
html-keyboard-response,6,12102,0.0-3.0,,"<div style=""font-size:100px;"">+</div>",,delaylearn,learning,ITI,NLxvuzfNAiScPDluzpGggvFbN8Y2,NLxvuzfNAiScPDluzpGggvFbN8Y2,,,,,,,,,,,,,,,,,,,2071.0,,,5e9aff02f4a78b1a1fe7fc3c,16:40:00,27/03/2024
html-keyboard-response,7,13088,0.0-4.0-0.0,981.0,"<div style=""display: flex; flex-direction: column; align-items: center; margin-top: -40px;""><img src=""images/demo_images/pattern_1.png"" style=""width: 234px; height: 230px; margin-top: -50px;""><div style=""display: flex; justify-content: space-between; margin-top: 33px;""><img src=""images/demo_images/choice_trial_2.png"" style=""width: 408px; height: 417px; margin-right: 200px;""><img src=""images/demo_images/choice_trial_1.png"" style=""width: 408px; height: 417px;""></div></div>",j,delaylearn,learning,trial,NLxvuzfNAiScPDluzpGggvFbN8Y2,NLxvuzfNAiScPDluzpGggvFbN8Y2,5.0,images/demo_images/choice_trial_2.png,images/demo_images/choice_trial_1.png,images/demo_images/pattern_1.png,j,j,3000.0,2.0,1.0,20.0,1.0,2.0,1.0,1.0,1.0,10.0,,,,,,5e9aff02f4a78b1a1fe7fc3c,16:40:00,27/03/2024
html-keyboard-response,8,14092,0.0-4.0-1.0,,"<div style=""display: flex; flex-direction: column; align-items: center; margin-top: -40px;""><img src=""images/demo_images/pattern_1.png"" style=""width: 234px; height: 230px; margin-top: -50px;""><div style=""display: flex; justify-content: space-between; margin-top: 33px;""><img src=""images/demo_images/choice_trial_1.png"" style=""width: 408px; height: 417px; margin-left:608px;""></div></div>",,delaylearn,learning,display_response,NLxvuzfNAiScPDluzpGggvFbN8Y2,NLxvuzfNAiScPDluzpGggvFbN8Y2,,,,,,,,,,,,,,,,,chosen stimuli: images/demo_images/choice_trial_1.png,,,,,5e9aff02f4a78b1a1fe7fc3c,16:40:00,27/03/2024
html-keyboard-response,9,17108,0.0-4.0-2.0,,,,delaylearn,learning,feedback_duration_window,NLxvuzfNAiScPDluzpGggvFbN8Y2,NLxvuzfNAiScPDluzpGggvFbN8Y2,,,,,,,,,,,,,,,,,,3000.0,,,,5e9aff02f4a78b1a1fe7fc3c,16:40:00,27/03/2024
html-keyboard-response,10,18611,0.0-4.0-3.0,,<div style='margin:auto;width: auto; font-size: 150%'><span style='font-weight: bold; font-size: 100px; color: green;'>+10 points!</span><br><br></div>,,delaylearn,learning,feedback_image_window,NLxvuzfNAiScPDluzpGggvFbN8Y2,NLxvuzfNAiScPDluzpGggvFbN8Y2,,,,,,,,,,,,,,,,,,,,,,5e9aff02f4a78b1a1fe7fc3c,16:40:00,27/03/2024
html-keyboard-response,11,20881,0.0-5.0,,"<div style=""font-size:100px;"">+</div>",,delaylearn,learning,ITI,NLxvuzfNAiScPDluzpGggvFbN8Y2,NLxvuzfNAiScPDluzpGggvFbN8Y2,,,,,,,,,,,,,,,,,,,2262.0,,,5e9aff02f4a78b1a1fe7fc3c,16:40:00,27/03/2024
html-keyboard-response,12,21980,0.0-6.0-0.0,1096.0,"<div style=""display: flex; flex-direction: column; align-items: center; margin-top: -40px;""><img src=""images/demo_images/pattern_1.png"" style=""width: 234px; height: 230px; margin-top: -50px;""><div style=""display: flex; justify-content: space-between; margin-top: 33px;""><img src=""images/demo_images/choice_trial_1.png"" style=""width: 408px; height: 417px; margin-right: 200px;""><img src=""images/demo_images/choice_trial_2.png"" style=""width: 408px; height: 417px;""></div></div>",f,delaylearn,learning,trial,NLxvuzfNAiScPDluzpGggvFbN8Y2,NLxvuzfNAiScPDluzpGggvFbN8Y2,5.0,images/demo_images/choice_trial_1.png,images/demo_images/choice_trial_2.png,images/demo_images/pattern_1.png,j,f,3000.0,1.0,2.0,20.0,0.0,3.0,1.0,0.0,1.0,10.0,,,,,,5e9aff02f4a78b1a1fe7fc3c,16:40:00,27/03/2024
html-keyboard-response,13,22985,0.0-6.0-1.0,,"<div style=""display: flex; flex-direction: column; align-items: center; margin-top: -40px;""><img src=""images/demo_images/pattern_1.png"" style=""width: 234px; height: 230px; margin-top: -50px;""><div style=""display: flex; justify-content: space-between; margin-top: 33px;""><img src=""images/demo_images/choice_trial_1.png"" style=""width: 408px; height: 417px; margin-right: 608px;""></div></div>",,delaylearn,learning,display_response,NLxvuzfNAiScPDluzpGggvFbN8Y2,NLxvuzfNAiScPDluzpGggvFbN8Y2,,,,,,,,,,,,,,,,,chosen stimuli: images/demo_images/choice_trial_1.png,,,,,5e9aff02f4a78b1a1fe7fc3c,16:40:00,27/03/2024
html-keyboard-response,14,25998,0.0-6.0-2.0,,,,delaylearn,learning,feedback_duration_window,NLxvuzfNAiScPDluzpGggvFbN8Y2,NLxvuzfNAiScPDluzpGggvFbN8Y2,,,,,,,,,,,,,,,,,,3000.0,,,,5e9aff02f4a78b1a1fe7fc3c,16:40:00,27/03/2024
html-keyboard-response,15,27509,0.0-6.0-3.0,,<div style='margin:auto;width: auto; font-size: 150%'><span style='font-weight: bold; font-size: 100px; color: red;'>0 points!</span><br><br></div>,,delaylearn,learning,feedback_image_window,NLxvuzfNAiScPDluzpGggvFbN8Y2,NLxvuzfNAiScPDluzpGggvFbN8Y2,,,,,,,,,,,,,,,,,,,,,,5e9aff02f4a78b1a1fe7fc3c,16:40:00,27/03/2024
html-keyboard-response,16,29809,0.0-7.0,,"<div style=""font-size:100px;"">+</div>",,delaylearn,learning,ITI,NLxvuzfNAiScPDluzpGggvFbN8Y2,NLxvuzfNAiScPDluzpGggvFbN8Y2,,,,,,,,,,,,,,,,,,,2288.0,,,5e9aff02f4a78b1a1fe7fc3c,16:40:00,27/03/2024
html-keyboard-response,17,30999,0.0-8.0-0.0,1186.5,"<div style=""display: flex; flex-direction: column; align-items: center; margin-top: -40px;""><img src=""images/demo_images/pattern_1.png"" style=""width: 234px; height: 230px; margin-top: -50px;""><div style=""display: flex; justify-content: space-between; margin-top: 33px;""><img src=""images/demo_images/choice_trial_1.png"" style=""width: 408px; height: 417px; margin-right: 200px;""><img src=""images/demo_images/choice_trial_2.png"" style=""width: 408px; height: 417px;""></div></div>",j,delaylearn,learning,trial,NLxvuzfNAiScPDluzpGggvFbN8Y2,NLxvuzfNAiScPDluzpGggvFbN8Y2,5.0,images/demo_images/choice_trial_1.png,images/demo_images/choice_trial_2.png,images/demo_images/pattern_1.png,f,f,3000.0,1.0,2.0,20.0,0.0,4.0,0.0,0.0,2.0,10.0,,,,,,5e9aff02f4a78b1a1fe7fc3c,16:40:00,27/03/2024
html-keyboard-response,18,32005,0.0-8.0-1.0,,"<div style=""display: flex; flex-direction: column; align-items: center; margin-top: -40px;""><img src=""images/demo_images/pattern_1.png"" style=""width: 234px; height: 230px; margin-top: -50px;""><div style=""display: flex; justify-content: space-between; margin-top: 33px;""><img src=""images/demo_images/choice_trial_2.png"" style=""width: 408px; height: 417px; margin-left:608px;""></div></div>",,delaylearn,learning,display_response,NLxvuzfNAiScPDluzpGggvFbN8Y2,NLxvuzfNAiScPDluzpGggvFbN8Y2,,,,,,,,,,,,,,,,,chosen stimuli: images/demo_images/choice_trial_2.png,,,,,5e9aff02f4a78b1a1fe7fc3c,16:40:00,27/03/2024
html-keyboard-response,19,35007,0.0-8.0-2.0,,,,delaylearn,learning,feedback_duration_window,NLxvuzfNAiScPDluzpGggvFbN8Y2,NLxvuzfNAiScPDluzpGggvFbN8Y2,,,,,,,,,,,,,,,,,,3000.0,,,,5e9aff02f4a78b1a1fe7fc3c,16:40:00,27/03/2024
html-keyboard-response,20,36524,0.0-8.0-3.0,,<div style='margin:auto;width: auto; font-size: 150%'><span style='font-weight: bold; font-size: 100px; color: red;'>0 points!</span><br><br></div>,,delaylearn,learning,feedback_image_window,NLxvuzfNAiScPDluzpGggvFbN8Y2,NLxvuzfNAiScPDluzpGggvFbN8Y2,,,,,,,,,,,,,,,,,,,,,,5e9aff02f4a78b1a1fe7fc3c,16:40:00,27/03/2024
html-keyboard-response,21,37026,0.0-9.0-0.0,,,,,,mood_trial_fixation,NLxvuzfNAiScPDluzpGggvFbN8Y2,,,,,,,,,,,,,,,,,,,,,,,5e9aff02f4a78b1a1fe7fc3c,16:40:00,27/03/2024
lmdlab-html-vas-response,22,42942,0.0-9.0-1.0,4874.0,How happy are you right now?,0.3534191459646745,delaylearn,learning,mood_trial,NLxvuzfNAiScPDluzpGggvFbN8Y2,NLxvuzfNAiScPDluzpGggvFbN8Y2,,,,,,,,,,,,,,,,,,,,"['Very unhappy', 'Very happy']",,5e9aff02f4a78b1a1fe7fc3c,16:40:00,27/03/2024
html-keyboard-response,23,45324,0.0-10.0,,"<div style=""font-size:100px;"">+</div>",,delaylearn,learning,ITI,NLxvuzfNAiScPDluzpGggvFbN8Y2,NLxvuzfNAiScPDluzpGggvFbN8Y2,,,,,,,,,,,,,,,,,,,2368.0,,,5e9aff02f4a78b1a1fe7fc3c,16:40:00,27/03/2024
html-keyboard-response,24,47153,0.0-11.0-0.0,1825.8999999761581,"<div style=""display: flex; flex-direction: column; align-items: center; margin-top: -40px;""><img src=""images/demo_images/pattern_1.png"" style=""width: 234px; height: 230px; margin-top: -50px;""><div style=""display: flex; justify-content: space-between; margin-top: 33px;""><img src=""images/demo_images/choice_trial_2.png"" style=""width: 408px; height: 417px; margin-right: 200px;""><img src=""images/demo_images/choice_trial_1.png"" style=""width: 408px; height: 417px;""></div></div>",f,delaylearn,learning,trial,NLxvuzfNAiScPDluzpGggvFbN8Y2,NLxvuzfNAiScPDluzpGggvFbN8Y2,5.0,images/demo_images/choice_trial_2.png,images/demo_images/choice_trial_1.png,images/demo_images/pattern_1.png,j,j,3000.0,2.0,1.0,20.0,1.0,5.0,0.0,0.0,2.0,10.0,,,,,,5e9aff02f4a78b1a1fe7fc3c,16:40:00,27/03/2024
html-keyboard-response,25,48171,0.0-11.0-1.0,,"<div style=""display: flex; flex-direction: column; align-items: center; margin-top: -40px;""><img src=""images/demo_images/pattern_1.png"" style=""width: 234px; height: 230px; margin-top: -50px;""><div style=""display: flex; justify-content: space-between; margin-top: 33px;""><img src=""images/demo_images/choice_trial_2.png"" style=""width: 408px; height: 417px; margin-right: 608px;""></div></div>",,delaylearn,learning,display_response,NLxvuzfNAiScPDluzpGggvFbN8Y2,NLxvuzfNAiScPDluzpGggvFbN8Y2,,,,,,,,,,,,,,,,,chosen stimuli: images/demo_images/choice_trial_2.png,,,,,5e9aff02f4a78b1a1fe7fc3c,16:40:00,27/03/2024
html-keyboard-response,26,51186,0.0-11.0-2.0,,,,delaylearn,learning,feedback_duration_window,NLxvuzfNAiScPDluzpGggvFbN8Y2,NLxvuzfNAiScPDluzpGggvFbN8Y2,,,,,,,,,,,,,,,,,,3000.0,,,,5e9aff02f4a78b1a1fe7fc3c,16:40:00,27/03/2024
html-keyboard-response,27,52695,0.0-11.0-3.0,,<div style='margin:auto;width: auto; font-size: 150%'><span style='font-weight: bold; font-size: 100px; color: red;'>0 points!</span><br><br></div>,,delaylearn,learning,feedback_image_window,NLxvuzfNAiScPDluzpGggvFbN8Y2,NLxvuzfNAiScPDluzpGggvFbN8Y2,,,,,,,,,,,,,,,,,,,,,,5e9aff02f4a78b1a1fe7fc3c,16:40:00,27/03/2024
html-keyboard-response,28,54254,0.0-12.0,,"<div style=""font-size:100px;"">+</div>",,delaylearn,learning,ITI,NLxvuzfNAiScPDluzpGggvFbN8Y2,NLxvuzfNAiScPDluzpGggvFbN8Y2,,,,,,,,,,,,,,,,,,,1552.0,,,5e9aff02f4a78b1a1fe7fc3c,16:40:00,27/03/2024
html-keyboard-response,29,56662,0.0-13.0-0.0,2405.2000000476837,"<div style=""display: flex; flex-direction: column; align-items: center; margin-top: -40px;""><img src=""images/demo_images/pattern_1.png"" style=""width: 234px; height: 230px; margin-top: -50px;""><div style=""display: flex; justify-content: space-between; margin-top: 33px;""><img src=""images/demo_images/choice_trial_1.png"" style=""width: 408px; height: 417px; margin-right: 200px;""><img src=""images/demo_images/choice_trial_2.png"" style=""width: 408px; height: 417px;""></div></div>",f,delaylearn,learning,trial,NLxvuzfNAiScPDluzpGggvFbN8Y2,NLxvuzfNAiScPDluzpGggvFbN8Y2,5.0,images/demo_images/choice_trial_1.png,images/demo_images/choice_trial_2.png,images/demo_images/pattern_1.png,f,f,3000.0,1.0,2.0,20.0,0.0,6.0,1.0,1.0,1.0,20.0,,,,,,5e9aff02f4a78b1a1fe7fc3c,16:40:00,27/03/2024
html-keyboard-response,30,57673,0.0-13.0-1.0,,"<div style=""display: flex; flex-direction: column; align-items: center; margin-top: -40px;""><img src=""images/demo_images/pattern_1.png"" style=""width: 234px; height: 230px; margin-top: -50px;""><div style=""display: flex; justify-content: space-between; margin-top: 33px;""><img src=""images/demo_images/choice_trial_1.png"" style=""width: 408px; height: 417px; margin-right: 608px;""></div></div>",,delaylearn,learning,display_response,NLxvuzfNAiScPDluzpGggvFbN8Y2,NLxvuzfNAiScPDluzpGggvFbN8Y2,,,,,,,,,,,,,,,,,chosen stimuli: images/demo_images/choice_trial_1.png,,,,,5e9aff02f4a78b1a1fe7fc3c,16:40:00,27/03/2024
html-keyboard-response,31,60690,0.0-13.0-2.0,,,,delaylearn,learning,feedback_duration_window,NLxvuzfNAiScPDluzpGggvFbN8Y2,NLxvuzfNAiScPDluzpGggvFbN8Y2,,,,,,,,,,,,,,,,,,3000.0,,,,5e9aff02f4a78b1a1fe7fc3c,16:40:00,27/03/2024
html-keyboard-response,32,62206,0.0-13.0-3.0,,<div style='margin:auto;width: auto; font-size: 150%'><span style='font-weight: bold; font-size: 100px; color: green;'>+10 points!</span><br><br></div>,,delaylearn,learning,feedback_image_window,NLxvuzfNAiScPDluzpGggvFbN8Y2,NLxvuzfNAiScPDluzpGggvFbN8Y2,,,,,,,,,,,,,,,,,,,,,,5e9aff02f4a78b1a1fe7fc3c,16:40:00,27/03/2024
html-keyboard-response,33,64244,0.0-14.0,,"<div style=""font-size:100px;"">+</div>",,delaylearn,learning,ITI,NLxvuzfNAiScPDluzpGggvFbN8Y2,NLxvuzfNAiScPDluzpGggvFbN8Y2,,,,,,,,,,,,,,,,,,,2026.0,,,5e9aff02f4a78b1a1fe7fc3c,16:40:00,27/03/2024
html-keyboard-response,34,66291,0.0-15.0-0.0,2044.8999999761581,"<div style=""display: flex; flex-direction: column; align-items: center; margin-top: -40px;""><img src=""images/demo_images/pattern_1.png"" style=""width: 234px; height: 230px; margin-top: -50px;""><div style=""display: flex; justify-content: space-between; margin-top: 33px;""><img src=""images/demo_images/choice_trial_2.png"" style=""width: 408px; height: 417px; margin-right: 200px;""><img src=""images/demo_images/choice_trial_1.png"" style=""width: 408px; height: 417px;""></div></div>",f,delaylearn,learning,trial,NLxvuzfNAiScPDluzpGggvFbN8Y2,NLxvuzfNAiScPDluzpGggvFbN8Y2,5.0,images/demo_images/choice_trial_2.png,images/demo_images/choice_trial_1.png,images/demo_images/pattern_1.png,j,j,3000.0,2.0,1.0,20.0,1.0,7.0,0.0,0.0,2.0,20.0,,,,,,5e9aff02f4a78b1a1fe7fc3c,16:40:00,27/03/2024
html-keyboard-response,35,67296,0.0-15.0-1.0,,"<div style=""display: flex; flex-direction: column; align-items: center; margin-top: -40px;""><img src=""images/demo_images/pattern_1.png"" style=""width: 234px; height: 230px; margin-top: -50px;""><div style=""display: flex; justify-content: space-between; margin-top: 33px;""><img src=""images/demo_images/choice_trial_2.png"" style=""width: 408px; height: 417px; margin-right: 608px;""></div></div>",,delaylearn,learning,display_response,NLxvuzfNAiScPDluzpGggvFbN8Y2,NLxvuzfNAiScPDluzpGggvFbN8Y2,,,,,,,,,,,,,,,,,chosen stimuli: images/demo_images/choice_trial_2.png,,,,,5e9aff02f4a78b1a1fe7fc3c,16:40:00,27/03/2024
html-keyboard-response,36,70298,0.0-15.0-2.0,,,,delaylearn,learning,feedback_duration_window,NLxvuzfNAiScPDluzpGggvFbN8Y2,NLxvuzfNAiScPDluzpGggvFbN8Y2,,,,,,,,,,,,,,,,,,3000.0,,,,5e9aff02f4a78b1a1fe7fc3c,16:40:00,27/03/2024
html-keyboard-response,37,71809,0.0-15.0-3.0,,<div style='margin:auto;width: auto; font-size: 150%'><span style='font-weight: bold; font-size: 100px; color: red;'>0 points!</span><br><br></div>,,delaylearn,learning,feedback_image_window,NLxvuzfNAiScPDluzpGggvFbN8Y2,NLxvuzfNAiScPDluzpGggvFbN8Y2,,,,,,,,,,,,,,,,,,,,,,5e9aff02f4a78b1a1fe7fc3c,16:40:00,27/03/2024
html-keyboard-response,38,73723,0.0-16.0,,"<div style=""font-size:100px;"">+</div>",,delaylearn,learning,ITI,NLxvuzfNAiScPDluzpGggvFbN8Y2,NLxvuzfNAiScPDluzpGggvFbN8Y2,,,,,,,,,,,,,,,,,,,1906.0,,,5e9aff02f4a78b1a1fe7fc3c,16:40:00,27/03/2024
html-keyboard-response,39,75599,0.0-17.0-0.0,1872.8999999761581,"<div style=""display: flex; flex-direction: column; align-items: center; margin-top: -40px;""><img src=""images/demo_images/pattern_1.png"" style=""width: 234px; height: 230px; margin-top: -50px;""><div style=""display: flex; justify-content: space-between; margin-top: 33px;""><img src=""images/demo_images/choice_trial_1.png"" style=""width: 408px; height: 417px; margin-right: 200px;""><img src=""images/demo_images/choice_trial_2.png"" style=""width: 408px; height: 417px;""></div></div>",j,delaylearn,learning,trial,NLxvuzfNAiScPDluzpGggvFbN8Y2,NLxvuzfNAiScPDluzpGggvFbN8Y2,5.0,images/demo_images/choice_trial_1.png,images/demo_images/choice_trial_2.png,images/demo_images/pattern_1.png,f,f,3000.0,1.0,2.0,20.0,0.0,8.0,0.0,0.0,2.0,20.0,,,,,,5e9aff02f4a78b1a1fe7fc3c,16:40:00,27/03/2024
html-keyboard-response,40,76613,0.0-17.0-1.0,,"<div style=""display: flex; flex-direction: column; align-items: center; margin-top: -40px;""><img src=""images/demo_images/pattern_1.png"" style=""width: 234px; height: 230px; margin-top: -50px;""><div style=""display: flex; justify-content: space-between; margin-top: 33px;""><img src=""images/demo_images/choice_trial_2.png"" style=""width: 408px; height: 417px; margin-left:608px;""></div></div>",,delaylearn,learning,display_response,NLxvuzfNAiScPDluzpGggvFbN8Y2,NLxvuzfNAiScPDluzpGggvFbN8Y2,,,,,,,,,,,,,,,,,chosen stimuli: images/demo_images/choice_trial_2.png,,,,,5e9aff02f4a78b1a1fe7fc3c,16:40:00,27/03/2024
html-keyboard-response,41,79619,0.0-17.0-2.0,,,,delaylearn,learning,feedback_duration_window,NLxvuzfNAiScPDluzpGggvFbN8Y2,NLxvuzfNAiScPDluzpGggvFbN8Y2,,,,,,,,,,,,,,,,,,3000.0,,,,5e9aff02f4a78b1a1fe7fc3c,16:40:00,27/03/2024
html-keyboard-response,42,81122,0.0-17.0-3.0,,<div style='margin:auto;width: auto; font-size: 150%'><span style='font-weight: bold; font-size: 100px; color: red;'>0 points!</span><br><br></div>,,delaylearn,learning,feedback_image_window,NLxvuzfNAiScPDluzpGggvFbN8Y2,NLxvuzfNAiScPDluzpGggvFbN8Y2,,,,,,,,,,,,,,,,,,,,,,5e9aff02f4a78b1a1fe7fc3c,16:40:00,27/03/2024
html-button-response,43,104830,0.0-18.0,23704.899999976158,"
  <div style=""display: flex; align-items: center; justify-content: center; height: 80vh;"">
  <div>
          <img src=""images/inst_demo_finish.png"" style=""width: 80vw; height:auto;"">
          <br><br>
      </div>
      <br><br>
  </div>",0,,,,NLxvuzfNAiScPDluzpGggvFbN8Y2,,,,,,,,,,,,,,,,,,,,,,,5e9aff02f4a78b1a1fe7fc3c,16:40:00,27/03/2024
html-keyboard-response,44,111219,0.0-19.0,6387.699999928474,"
  <div style=""display: flex; align-items: center; justify-content: center; height: 80vh;"">
  <div>
          <img src=""images/inst_6.png"" style=""width: 80vw; height:auto;"">
          <br><br>
      </div>
      <br><br>
  </div>",f,,,,NLxvuzfNAiScPDluzpGggvFbN8Y2,,,,,,,,,,,,,,,,,,,,,,,5e9aff02f4a78b1a1fe7fc3c,16:40:00,27/03/2024
html-keyboard-response,45,114228,0.0-20.0,,"<div style=""font-size:100px;"">+</div>",,delaylearn,learning,pre_fixation,NLxvuzfNAiScPDluzpGggvFbN8Y2,,,,,,,,,,,,,,,,,,,,,,,5e9aff02f4a78b1a1fe7fc3c,16:40:00,27/03/2024
html-keyboard-response,46,116528,0.0-21.0,,"<div style=""font-size:100px;"">+</div>",,delaylearn,learning,ITI,NLxvuzfNAiScPDluzpGggvFbN8Y2,NLxvuzfNAiScPDluzpGggvFbN8Y2,,,,,,,,,,,,,,,,,,,2288.0,,,5e9aff02f4a78b1a1fe7fc3c,16:40:00,27/03/2024
html-keyboard-response,47,117656,0.0-22.0-0.0,1125.4000000953674,"<div style=""display: flex; flex-direction: column; align-items: center; margin-top: -40px;""><img src=""images/pattern_3.png"" style=""width: 234px; height: 230px; margin-top: -50px;""><div style=""display: flex; justify-content: space-between; margin-top: 33px;""><img src=""images/choice_trial_16.png"" style=""width: 408px; height: 417px; margin-right: 200px;""><img src=""images/choice_trial_2.png"" style=""width: 408px; height: 417px;""></div></div>",f,delaylearn,learning,trial,NLxvuzfNAiScPDluzpGggvFbN8Y2,NLxvuzfNAiScPDluzpGggvFbN8Y2,5.0,images/choice_trial_16.png,images/choice_trial_2.png,images/pattern_3.png,f,f,7000.0,16.0,2.0,2.0,0.0,9.0,1.0,1.0,16.0,30.0,,,,,,5e9aff02f4a78b1a1fe7fc3c,16:40:00,27/03/2024
html-keyboard-response,48,118685,0.0-22.0-1.0,,"<div style=""display: flex; flex-direction: column; align-items: center; margin-top: -40px;""><img src=""images/pattern_3.png"" style=""width: 234px; height: 230px; margin-top: -50px;""><div style=""display: flex; justify-content: space-between; margin-top: 33px;""><img src=""images/choice_trial_16.png"" style=""width: 408px; height: 417px; margin-right: 608px;""></div></div>",,delaylearn,learning,display_response,NLxvuzfNAiScPDluzpGggvFbN8Y2,NLxvuzfNAiScPDluzpGggvFbN8Y2,,,,,,,,,,,,,,,,,chosen stimuli: images/choice_trial_16.png,,,,,5e9aff02f4a78b1a1fe7fc3c,16:40:00,27/03/2024
html-keyboard-response,49,125698,0.0-22.0-2.0,,,,delaylearn,learning,feedback_duration_window,NLxvuzfNAiScPDluzpGggvFbN8Y2,NLxvuzfNAiScPDluzpGggvFbN8Y2,,,,,,,,,,,,,,,,,,7000.0,,,,5e9aff02f4a78b1a1fe7fc3c,16:40:00,27/03/2024
html-keyboard-response,50,127213,0.0-22.0-3.0,,<div style='margin:auto;width: auto; font-size: 150%'><span style='font-weight: bold; font-size: 100px; color: green;'>+10 points!</span><br><br></div>,,delaylearn,learning,feedback_image_window,NLxvuzfNAiScPDluzpGggvFbN8Y2,NLxvuzfNAiScPDluzpGggvFbN8Y2,,,,,,,,,,,,,,,,,,,,,,5e9aff02f4a78b1a1fe7fc3c,16:40:00,27/03/2024
html-keyboard-response,51,129348,0.0-23.0,,"<div style=""font-size:100px;"">+</div>",,delaylearn,learning,ITI,NLxvuzfNAiScPDluzpGggvFbN8Y2,NLxvuzfNAiScPDluzpGggvFbN8Y2,,,,,,,,,,,,,,,,,,,2128.0,,,5e9aff02f4a78b1a1fe7fc3c,16:40:00,27/03/2024
html-keyboard-response,52,130770,0.0-24.0-0.0,1419.0,"<div style=""display: flex; flex-direction: column; align-items: center; margin-top: -40px;""><img src=""images/pattern_7.png"" style=""width: 234px; height: 230px; margin-top: -50px;""><div style=""display: flex; justify-content: space-between; margin-top: 33px;""><img src=""images/choice_trial_10.png"" style=""width: 408px; height: 417px; margin-right: 200px;""><img src=""images/choice_trial_8.png"" style=""width: 408px; height: 417px;""></div></div>",j,delaylearn,learning,trial,NLxvuzfNAiScPDluzpGggvFbN8Y2,NLxvuzfNAiScPDluzpGggvFbN8Y2,5.0,images/choice_trial_10.png,images/choice_trial_8.png,images/pattern_7.png,j,j,750.0,10.0,8.0,6.0,1.0,10.0,1.0,1.0,8.0,40.0,,,,,,5e9aff02f4a78b1a1fe7fc3c,16:40:00,27/03/2024
html-keyboard-response,53,131781,0.0-24.0-1.0,,"<div style=""display: flex; flex-direction: column; align-items: center; margin-top: -40px;""><img src=""images/pattern_7.png"" style=""width: 234px; height: 230px; margin-top: -50px;""><div style=""display: flex; justify-content: space-between; margin-top: 33px;""><img src=""images/choice_trial_8.png"" style=""width: 408px; height: 417px; margin-left:608px;""></div></div>",,delaylearn,learning,display_response,NLxvuzfNAiScPDluzpGggvFbN8Y2,NLxvuzfNAiScPDluzpGggvFbN8Y2,,,,,,,,,,,,,,,,,chosen stimuli: images/choice_trial_8.png,,,,,5e9aff02f4a78b1a1fe7fc3c,16:40:00,27/03/2024
html-keyboard-response,54,132537,0.0-24.0-2.0,,,,delaylearn,learning,feedback_duration_window,NLxvuzfNAiScPDluzpGggvFbN8Y2,NLxvuzfNAiScPDluzpGggvFbN8Y2,,,,,,,,,,,,,,,,,,750.0,,,,5e9aff02f4a78b1a1fe7fc3c,16:40:00,27/03/2024
html-keyboard-response,55,134053,0.0-24.0-3.0,,<div style='margin:auto;width: auto; font-size: 150%'><span style='font-weight: bold; font-size: 100px; color: green;'>+10 points!</span><br><br></div>,,delaylearn,learning,feedback_image_window,NLxvuzfNAiScPDluzpGggvFbN8Y2,NLxvuzfNAiScPDluzpGggvFbN8Y2,,,,,,,,,,,,,,,,,,,,,,5e9aff02f4a78b1a1fe7fc3c,16:40:00,27/03/2024
html-keyboard-response,56,135860,0.0-25.0,,"<div style=""font-size:100px;"">+</div>",,delaylearn,learning,ITI,NLxvuzfNAiScPDluzpGggvFbN8Y2,NLxvuzfNAiScPDluzpGggvFbN8Y2,,,,,,,,,,,,,,,,,,,1800.0,,,5e9aff02f4a78b1a1fe7fc3c,16:40:00,27/03/2024
html-keyboard-response,57,137579,0.0-26.0-0.0,1716.1999999284744,"<div style=""display: flex; flex-direction: column; align-items: center; margin-top: -40px;""><img src=""images/pattern_4.png"" style=""width: 234px; height: 230px; margin-top: -50px;""><div style=""display: flex; justify-content: space-between; margin-top: 33px;""><img src=""images/choice_trial_11.png"" style=""width: 408px; height: 417px; margin-right: 200px;""><img src=""images/choice_trial_4.png"" style=""width: 408px; height: 417px;""></div></div>",j,delaylearn,learning,trial,NLxvuzfNAiScPDluzpGggvFbN8Y2,NLxvuzfNAiScPDluzpGggvFbN8Y2,5.0,images/choice_trial_11.png,images/choice_trial_4.png,images/pattern_4.png,f,f,7000.0,11.0,4.0,3.0,0.0,11.0,0.0,0.0,4.0,40.0,,,,,,5e9aff02f4a78b1a1fe7fc3c,16:40:00,27/03/2024
html-keyboard-response,58,138586,0.0-26.0-1.0,,"<div style=""display: flex; flex-direction: column; align-items: center; margin-top: -40px;""><img src=""images/pattern_4.png"" style=""width: 234px; height: 230px; margin-top: -50px;""><div style=""display: flex; justify-content: space-between; margin-top: 33px;""><img src=""images/choice_trial_4.png"" style=""width: 408px; height: 417px; margin-left:608px;""></div></div>",,delaylearn,learning,display_response,NLxvuzfNAiScPDluzpGggvFbN8Y2,NLxvuzfNAiScPDluzpGggvFbN8Y2,,,,,,,,,,,,,,,,,chosen stimuli: images/choice_trial_4.png,,,,,5e9aff02f4a78b1a1fe7fc3c,16:40:00,27/03/2024
html-keyboard-response,59,145594,0.0-26.0-2.0,,,,delaylearn,learning,feedback_duration_window,NLxvuzfNAiScPDluzpGggvFbN8Y2,NLxvuzfNAiScPDluzpGggvFbN8Y2,,,,,,,,,,,,,,,,,,7000.0,,,,5e9aff02f4a78b1a1fe7fc3c,16:40:00,27/03/2024
html-keyboard-response,60,147106,0.0-26.0-3.0,,<div style='margin:auto;width: auto; font-size: 150%'><span style='font-weight: bold; font-size: 100px; color: red;'>0 points!</span><br><br></div>,,delaylearn,learning,feedback_image_window,NLxvuzfNAiScPDluzpGggvFbN8Y2,NLxvuzfNAiScPDluzpGggvFbN8Y2,,,,,,,,,,,,,,,,,,,,,,5e9aff02f4a78b1a1fe7fc3c,16:40:00,27/03/2024
html-keyboard-response,61,149319,0.0-27.0,,"<div style=""font-size:100px;"">+</div>",,delaylearn,learning,ITI,NLxvuzfNAiScPDluzpGggvFbN8Y2,NLxvuzfNAiScPDluzpGggvFbN8Y2,,,,,,,,,,,,,,,,,,,2209.0,,,5e9aff02f4a78b1a1fe7fc3c,16:40:00,27/03/2024
html-keyboard-response,62,150550,0.0-28.0-0.0,1227.8999999761581,"<div style=""display: flex; flex-direction: column; align-items: center; margin-top: -40px;""><img src=""images/pattern_5.png"" style=""width: 234px; height: 230px; margin-top: -50px;""><div style=""display: flex; justify-content: space-between; margin-top: 33px;""><img src=""images/choice_trial_13.png"" style=""width: 408px; height: 417px; margin-right: 200px;""><img src=""images/choice_trial_7.png"" style=""width: 408px; height: 417px;""></div></div>",f,delaylearn,learning,trial,NLxvuzfNAiScPDluzpGggvFbN8Y2,NLxvuzfNAiScPDluzpGggvFbN8Y2,5.0,images/choice_trial_13.png,images/choice_trial_7.png,images/pattern_5.png,j,j,750.0,13.0,7.0,4.0,1.0,12.0,0.0,0.0,13.0,40.0,,,,,,5e9aff02f4a78b1a1fe7fc3c,16:40:00,27/03/2024
html-keyboard-response,63,151563,0.0-28.0-1.0,,"<div style=""display: flex; flex-direction: column; align-items: center; margin-top: -40px;""><img src=""images/pattern_5.png"" style=""width: 234px; height: 230px; margin-top: -50px;""><div style=""display: flex; justify-content: space-between; margin-top: 33px;""><img src=""images/choice_trial_13.png"" style=""width: 408px; height: 417px; margin-right: 608px;""></div></div>",,delaylearn,learning,display_response,NLxvuzfNAiScPDluzpGggvFbN8Y2,NLxvuzfNAiScPDluzpGggvFbN8Y2,,,,,,,,,,,,,,,,,chosen stimuli: images/choice_trial_13.png,,,,,5e9aff02f4a78b1a1fe7fc3c,16:40:00,27/03/2024
html-keyboard-response,64,152328,0.0-28.0-2.0,,,,delaylearn,learning,feedback_duration_window,NLxvuzfNAiScPDluzpGggvFbN8Y2,NLxvuzfNAiScPDluzpGggvFbN8Y2,,,,,,,,,,,,,,,,,,750.0,,,,5e9aff02f4a78b1a1fe7fc3c,16:40:00,27/03/2024
html-keyboard-response,65,153838,0.0-28.0-3.0,,<div style='margin:auto;width: auto; font-size: 150%'><span style='font-weight: bold; font-size: 100px; color: red;'>0 points!</span><br><br></div>,,delaylearn,learning,feedback_image_window,NLxvuzfNAiScPDluzpGggvFbN8Y2,NLxvuzfNAiScPDluzpGggvFbN8Y2,,,,,,,,,,,,,,,,,,,,,,5e9aff02f4a78b1a1fe7fc3c,16:40:00,27/03/2024
html-keyboard-response,66,156144,0.0-29.0,,"<div style=""font-size:100px;"">+</div>",,delaylearn,learning,ITI,NLxvuzfNAiScPDluzpGggvFbN8Y2,NLxvuzfNAiScPDluzpGggvFbN8Y2,,,,,,,,,,,,,,,,,,,2290.0,,,5e9aff02f4a78b1a1fe7fc3c,16:40:00,27/03/2024
html-keyboard-response,67,158079,0.0-30.0-0.0,1933.0,"<div style=""display: flex; flex-direction: column; align-items: center; margin-top: -40px;""><img src=""images/pattern_6.png"" style=""width: 234px; height: 230px; margin-top: -50px;""><div style=""display: flex; justify-content: space-between; margin-top: 33px;""><img src=""images/choice_trial_14.png"" style=""width: 408px; height: 417px; margin-right: 200px;""><img src=""images/choice_trial_9.png"" style=""width: 408px; height: 417px;""></div></div>",f,delaylearn,learning,trial,NLxvuzfNAiScPDluzpGggvFbN8Y2,NLxvuzfNAiScPDluzpGggvFbN8Y2,5.0,images/choice_trial_14.png,images/choice_trial_9.png,images/pattern_6.png,j,f,750.0,14.0,9.0,5.0,0.0,13.0,1.0,0.0,14.0,40.0,,,,,,5e9aff02f4a78b1a1fe7fc3c,16:40:00,27/03/2024
html-keyboard-response,68,159094,0.0-30.0-1.0,,"<div style=""display: flex; flex-direction: column; align-items: center; margin-top: -40px;""><img src=""images/pattern_6.png"" style=""width: 234px; height: 230px; margin-top: -50px;""><div style=""display: flex; justify-content: space-between; margin-top: 33px;""><img src=""images/choice_trial_14.png"" style=""width: 408px; height: 417px; margin-right: 608px;""></div></div>",,delaylearn,learning,display_response,NLxvuzfNAiScPDluzpGggvFbN8Y2,NLxvuzfNAiScPDluzpGggvFbN8Y2,,,,,,,,,,,,,,,,,chosen stimuli: images/choice_trial_14.png,,,,,5e9aff02f4a78b1a1fe7fc3c,16:40:00,27/03/2024
html-keyboard-response,69,159853,0.0-30.0-2.0,,,,delaylearn,learning,feedback_duration_window,NLxvuzfNAiScPDluzpGggvFbN8Y2,NLxvuzfNAiScPDluzpGggvFbN8Y2,,,,,,,,,,,,,,,,,,750.0,,,,5e9aff02f4a78b1a1fe7fc3c,16:40:00,27/03/2024
html-keyboard-response,70,161362,0.0-30.0-3.0,,<div style='margin:auto;width: auto; font-size: 150%'><span style='font-weight: bold; font-size: 100px; color: red;'>0 points!</span><br><br></div>,,delaylearn,learning,feedback_image_window,NLxvuzfNAiScPDluzpGggvFbN8Y2,NLxvuzfNAiScPDluzpGggvFbN8Y2,,,,,,,,,,,,,,,,,,,,,,5e9aff02f4a78b1a1fe7fc3c,16:40:00,27/03/2024
html-keyboard-response,71,161867,0.0-31.0-0.0,,,,,,mood_trial_fixation,NLxvuzfNAiScPDluzpGggvFbN8Y2,,,,,,,,,,,,,,,,,,,,,,,5e9aff02f4a78b1a1fe7fc3c,16:40:00,27/03/2024
lmdlab-html-vas-response,72,167017,0.0-31.0-1.0,4126.0,How happy are you right now?,0.22031730038125777,delaylearn,learning,mood_trial,NLxvuzfNAiScPDluzpGggvFbN8Y2,NLxvuzfNAiScPDluzpGggvFbN8Y2,,,,,,,,,,,,,,,,,,,,"['Very unhappy', 'Very happy']",,5e9aff02f4a78b1a1fe7fc3c,16:40:00,27/03/2024
html-keyboard-response,73,168702,0.0-32.0,,"<div style=""font-size:100px;"">+</div>",,delaylearn,learning,ITI,NLxvuzfNAiScPDluzpGggvFbN8Y2,NLxvuzfNAiScPDluzpGggvFbN8Y2,,,,,,,,,,,,,,,,,,,1669.0,,,5e9aff02f4a78b1a1fe7fc3c,16:40:00,27/03/2024
html-keyboard-response,74,170405,0.0-33.0-0.0,1700.2999999523163,"<div style=""display: flex; flex-direction: column; align-items: center; margin-top: -40px;""><img src=""images/pattern_1.png"" style=""width: 234px; height: 230px; margin-top: -50px;""><div style=""display: flex; justify-content: space-between; margin-top: 33px;""><img src=""images/choice_trial_15.png"" style=""width: 408px; height: 417px; margin-right: 200px;""><img src=""images/choice_trial_6.png"" style=""width: 408px; height: 417px;""></div></div>",j,delaylearn,learning,trial,NLxvuzfNAiScPDluzpGggvFbN8Y2,NLxvuzfNAiScPDluzpGggvFbN8Y2,5.0,images/choice_trial_15.png,images/choice_trial_6.png,images/pattern_1.png,j,j,7000.0,15.0,6.0,1.0,1.0,14.0,1.0,1.0,6.0,50.0,,,,,,5e9aff02f4a78b1a1fe7fc3c,16:40:00,27/03/2024
html-keyboard-response,75,171410,0.0-33.0-1.0,,"<div style=""display: flex; flex-direction: column; align-items: center; margin-top: -40px;""><img src=""images/pattern_1.png"" style=""width: 234px; height: 230px; margin-top: -50px;""><div style=""display: flex; justify-content: space-between; margin-top: 33px;""><img src=""images/choice_trial_6.png"" style=""width: 408px; height: 417px; margin-left:608px;""></div></div>",,delaylearn,learning,display_response,NLxvuzfNAiScPDluzpGggvFbN8Y2,NLxvuzfNAiScPDluzpGggvFbN8Y2,,,,,,,,,,,,,,,,,chosen stimuli: images/choice_trial_6.png,,,,,5e9aff02f4a78b1a1fe7fc3c,16:40:00,27/03/2024
html-keyboard-response,76,178425,0.0-33.0-2.0,,,,delaylearn,learning,feedback_duration_window,NLxvuzfNAiScPDluzpGggvFbN8Y2,NLxvuzfNAiScPDluzpGggvFbN8Y2,,,,,,,,,,,,,,,,,,7000.0,,,,5e9aff02f4a78b1a1fe7fc3c,16:40:00,27/03/2024
html-keyboard-response,77,179939,0.0-33.0-3.0,,<div style='margin:auto;width: auto; font-size: 150%'><span style='font-weight: bold; font-size: 100px; color: green;'>+10 points!</span><br><br></div>,,delaylearn,learning,feedback_image_window,NLxvuzfNAiScPDluzpGggvFbN8Y2,NLxvuzfNAiScPDluzpGggvFbN8Y2,,,,,,,,,,,,,,,,,,,,,,5e9aff02f4a78b1a1fe7fc3c,16:40:00,27/03/2024
html-keyboard-response,78,181627,0.0-34.0,,"<div style=""font-size:100px;"">+</div>",,delaylearn,learning,ITI,NLxvuzfNAiScPDluzpGggvFbN8Y2,NLxvuzfNAiScPDluzpGggvFbN8Y2,,,,,,,,,,,,,,,,,,,1672.0,,,5e9aff02f4a78b1a1fe7fc3c,16:40:00,27/03/2024
html-keyboard-response,79,183099,0.0-35.0-0.0,1470.0,"<div style=""display: flex; flex-direction: column; align-items: center; margin-top: -40px;""><img src=""images/pattern_3.png"" style=""width: 234px; height: 230px; margin-top: -50px;""><div style=""display: flex; justify-content: space-between; margin-top: 33px;""><img src=""images/choice_trial_2.png"" style=""width: 408px; height: 417px; margin-right: 200px;""><img src=""images/choice_trial_16.png"" style=""width: 408px; height: 417px;""></div></div>",j,delaylearn,learning,trial,NLxvuzfNAiScPDluzpGggvFbN8Y2,NLxvuzfNAiScPDluzpGggvFbN8Y2,5.0,images/choice_trial_2.png,images/choice_trial_16.png,images/pattern_3.png,f,j,7000.0,2.0,16.0,2.0,1.0,15.0,1.0,0.0,16.0,50.0,,,,,,5e9aff02f4a78b1a1fe7fc3c,16:40:00,27/03/2024
html-keyboard-response,80,184119,0.0-35.0-1.0,,"<div style=""display: flex; flex-direction: column; align-items: center; margin-top: -40px;""><img src=""images/pattern_3.png"" style=""width: 234px; height: 230px; margin-top: -50px;""><div style=""display: flex; justify-content: space-between; margin-top: 33px;""><img src=""images/choice_trial_16.png"" style=""width: 408px; height: 417px; margin-left:608px;""></div></div>",,delaylearn,learning,display_response,NLxvuzfNAiScPDluzpGggvFbN8Y2,NLxvuzfNAiScPDluzpGggvFbN8Y2,,,,,,,,,,,,,,,,,chosen stimuli: images/choice_trial_16.png,,,,,5e9aff02f4a78b1a1fe7fc3c,16:40:00,27/03/2024
html-keyboard-response,81,191127,0.0-35.0-2.0,,,,delaylearn,learning,feedback_duration_window,NLxvuzfNAiScPDluzpGggvFbN8Y2,NLxvuzfNAiScPDluzpGggvFbN8Y2,,,,,,,,,,,,,,,,,,7000.0,,,,5e9aff02f4a78b1a1fe7fc3c,16:40:00,27/03/2024
html-keyboard-response,82,192637,0.0-35.0-3.0,,<div style='margin:auto;width: auto; font-size: 150%'><span style='font-weight: bold; font-size: 100px; color: red;'>0 points!</span><br><br></div>,,delaylearn,learning,feedback_image_window,NLxvuzfNAiScPDluzpGggvFbN8Y2,NLxvuzfNAiScPDluzpGggvFbN8Y2,,,,,,,,,,,,,,,,,,,,,,5e9aff02f4a78b1a1fe7fc3c,16:40:00,27/03/2024
html-keyboard-response,83,195083,0.0-36.0,,"<div style=""font-size:100px;"">+</div>",,delaylearn,learning,ITI,NLxvuzfNAiScPDluzpGggvFbN8Y2,NLxvuzfNAiScPDluzpGggvFbN8Y2,,,,,,,,,,,,,,,,,,,2434.0,,,5e9aff02f4a78b1a1fe7fc3c,16:40:00,27/03/2024
html-keyboard-response,84,196575,0.0-37.0-0.0,1489.7999999523163,"<div style=""display: flex; flex-direction: column; align-items: center; margin-top: -40px;""><img src=""images/pattern_5.png"" style=""width: 234px; height: 230px; margin-top: -50px;""><div style=""display: flex; justify-content: space-between; margin-top: 33px;""><img src=""images/choice_trial_7.png"" style=""width: 408px; height: 417px; margin-right: 200px;""><img src=""images/choice_trial_13.png"" style=""width: 408px; height: 417px;""></div></div>",f,delaylearn,learning,trial,NLxvuzfNAiScPDluzpGggvFbN8Y2,NLxvuzfNAiScPDluzpGggvFbN8Y2,5.0,images/choice_trial_7.png,images/choice_trial_13.png,images/pattern_5.png,f,f,750.0,7.0,13.0,4.0,0.0,16.0,1.0,1.0,7.0,60.0,,,,,,5e9aff02f4a78b1a1fe7fc3c,16:40:00,27/03/2024
html-keyboard-response,85,197588,0.0-37.0-1.0,,"<div style=""display: flex; flex-direction: column; align-items: center; margin-top: -40px;""><img src=""images/pattern_5.png"" style=""width: 234px; height: 230px; margin-top: -50px;""><div style=""display: flex; justify-content: space-between; margin-top: 33px;""><img src=""images/choice_trial_7.png"" style=""width: 408px; height: 417px; margin-right: 608px;""></div></div>",,delaylearn,learning,display_response,NLxvuzfNAiScPDluzpGggvFbN8Y2,NLxvuzfNAiScPDluzpGggvFbN8Y2,,,,,,,,,,,,,,,,,chosen stimuli: images/choice_trial_7.png,,,,,5e9aff02f4a78b1a1fe7fc3c,16:40:00,27/03/2024
html-keyboard-response,86,198353,0.0-37.0-2.0,,,,delaylearn,learning,feedback_duration_window,NLxvuzfNAiScPDluzpGggvFbN8Y2,NLxvuzfNAiScPDluzpGggvFbN8Y2,,,,,,,,,,,,,,,,,,750.0,,,,5e9aff02f4a78b1a1fe7fc3c,16:40:00,27/03/2024
html-keyboard-response,87,199869,0.0-37.0-3.0,,<div style='margin:auto;width: auto; font-size: 150%'><span style='font-weight: bold; font-size: 100px; color: green;'>+10 points!</span><br><br></div>,,delaylearn,learning,feedback_image_window,NLxvuzfNAiScPDluzpGggvFbN8Y2,NLxvuzfNAiScPDluzpGggvFbN8Y2,,,,,,,,,,,,,,,,,,,,,,5e9aff02f4a78b1a1fe7fc3c,16:40:00,27/03/2024
html-keyboard-response,88,200384,0.0-38.0-0.0,,,,,,mood_trial_fixation,NLxvuzfNAiScPDluzpGggvFbN8Y2,,,,,,,,,,,,,,,,,,,,,,,5e9aff02f4a78b1a1fe7fc3c,16:40:00,27/03/2024
lmdlab-html-vas-response,89,204696,0.0-38.0-1.0,3301.0,How happy are you right now?,0.4923080283125876,delaylearn,learning,mood_trial,NLxvuzfNAiScPDluzpGggvFbN8Y2,NLxvuzfNAiScPDluzpGggvFbN8Y2,,,,,,,,,,,,,,,,,,,,"['Very unhappy', 'Very happy']",,5e9aff02f4a78b1a1fe7fc3c,16:40:00,27/03/2024
html-keyboard-response,90,206669,0.0-39.0,,"<div style=""font-size:100px;"">+</div>",,delaylearn,learning,ITI,NLxvuzfNAiScPDluzpGggvFbN8Y2,NLxvuzfNAiScPDluzpGggvFbN8Y2,,,,,,,,,,,,,,,,,,,1967.0,,,5e9aff02f4a78b1a1fe7fc3c,16:40:00,27/03/2024
html-keyboard-response,91,208084,0.0-40.0-0.0,1412.0,"<div style=""display: flex; flex-direction: column; align-items: center; margin-top: -40px;""><img src=""images/pattern_6.png"" style=""width: 234px; height: 230px; margin-top: -50px;""><div style=""display: flex; justify-content: space-between; margin-top: 33px;""><img src=""images/choice_trial_14.png"" style=""width: 408px; height: 417px; margin-right: 200px;""><img src=""images/choice_trial_9.png"" style=""width: 408px; height: 417px;""></div></div>",f,delaylearn,learning,trial,NLxvuzfNAiScPDluzpGggvFbN8Y2,NLxvuzfNAiScPDluzpGggvFbN8Y2,5.0,images/choice_trial_14.png,images/choice_trial_9.png,images/pattern_6.png,f,f,750.0,14.0,9.0,5.0,0.0,17.0,1.0,1.0,14.0,70.0,,,,,,5e9aff02f4a78b1a1fe7fc3c,16:40:00,27/03/2024
html-keyboard-response,92,209090,0.0-40.0-1.0,,"<div style=""display: flex; flex-direction: column; align-items: center; margin-top: -40px;""><img src=""images/pattern_6.png"" style=""width: 234px; height: 230px; margin-top: -50px;""><div style=""display: flex; justify-content: space-between; margin-top: 33px;""><img src=""images/choice_trial_14.png"" style=""width: 408px; height: 417px; margin-right: 608px;""></div></div>",,delaylearn,learning,display_response,NLxvuzfNAiScPDluzpGggvFbN8Y2,NLxvuzfNAiScPDluzpGggvFbN8Y2,,,,,,,,,,,,,,,,,chosen stimuli: images/choice_trial_14.png,,,,,5e9aff02f4a78b1a1fe7fc3c,16:40:00,27/03/2024
html-keyboard-response,93,209843,0.0-40.0-2.0,,,,delaylearn,learning,feedback_duration_window,NLxvuzfNAiScPDluzpGggvFbN8Y2,NLxvuzfNAiScPDluzpGggvFbN8Y2,,,,,,,,,,,,,,,,,,750.0,,,,5e9aff02f4a78b1a1fe7fc3c,16:40:00,27/03/2024
html-keyboard-response,94,211359,0.0-40.0-3.0,,<div style='margin:auto;width: auto; font-size: 150%'><span style='font-weight: bold; font-size: 100px; color: green;'>+10 points!</span><br><br></div>,,delaylearn,learning,feedback_image_window,NLxvuzfNAiScPDluzpGggvFbN8Y2,NLxvuzfNAiScPDluzpGggvFbN8Y2,,,,,,,,,,,,,,,,,,,,,,5e9aff02f4a78b1a1fe7fc3c,16:40:00,27/03/2024
html-keyboard-response,95,213692,0.0-41.0,,"<div style=""font-size:100px;"">+</div>",,delaylearn,learning,ITI,NLxvuzfNAiScPDluzpGggvFbN8Y2,NLxvuzfNAiScPDluzpGggvFbN8Y2,,,,,,,,,,,,,,,,,,,2321.0,,,5e9aff02f4a78b1a1fe7fc3c,16:40:00,27/03/2024
html-keyboard-response,96,214955,0.0-42.0-0.0,1260.2000000476837,"<div style=""display: flex; flex-direction: column; align-items: center; margin-top: -40px;""><img src=""images/pattern_4.png"" style=""width: 234px; height: 230px; margin-top: -50px;""><div style=""display: flex; justify-content: space-between; margin-top: 33px;""><img src=""images/choice_trial_4.png"" style=""width: 408px; height: 417px; margin-right: 200px;""><img src=""images/choice_trial_11.png"" style=""width: 408px; height: 417px;""></div></div>",f,delaylearn,learning,trial,NLxvuzfNAiScPDluzpGggvFbN8Y2,NLxvuzfNAiScPDluzpGggvFbN8Y2,5.0,images/choice_trial_4.png,images/choice_trial_11.png,images/pattern_4.png,j,j,7000.0,4.0,11.0,3.0,1.0,18.0,0.0,0.0,4.0,70.0,,,,,,5e9aff02f4a78b1a1fe7fc3c,16:40:00,27/03/2024
html-keyboard-response,97,215962,0.0-42.0-1.0,,"<div style=""display: flex; flex-direction: column; align-items: center; margin-top: -40px;""><img src=""images/pattern_4.png"" style=""width: 234px; height: 230px; margin-top: -50px;""><div style=""display: flex; justify-content: space-between; margin-top: 33px;""><img src=""images/choice_trial_4.png"" style=""width: 408px; height: 417px; margin-right: 608px;""></div></div>",,delaylearn,learning,display_response,NLxvuzfNAiScPDluzpGggvFbN8Y2,NLxvuzfNAiScPDluzpGggvFbN8Y2,,,,,,,,,,,,,,,,,chosen stimuli: images/choice_trial_4.png,,,,,5e9aff02f4a78b1a1fe7fc3c,16:40:00,27/03/2024
html-keyboard-response,98,222972,0.0-42.0-2.0,,,,delaylearn,learning,feedback_duration_window,NLxvuzfNAiScPDluzpGggvFbN8Y2,NLxvuzfNAiScPDluzpGggvFbN8Y2,,,,,,,,,,,,,,,,,,7000.0,,,,5e9aff02f4a78b1a1fe7fc3c,16:40:00,27/03/2024
html-keyboard-response,99,224477,0.0-42.0-3.0,,<div style='margin:auto;width: auto; font-size: 150%'><span style='font-weight: bold; font-size: 100px; color: red;'>0 points!</span><br><br></div>,,delaylearn,learning,feedback_image_window,NLxvuzfNAiScPDluzpGggvFbN8Y2,NLxvuzfNAiScPDluzpGggvFbN8Y2,,,,,,,,,,,,,,,,,,,,,,5e9aff02f4a78b1a1fe7fc3c,16:40:00,27/03/2024
html-keyboard-response,100,226250,0.0-43.0,,"<div style=""font-size:100px;"">+</div>",,delaylearn,learning,ITI,NLxvuzfNAiScPDluzpGggvFbN8Y2,NLxvuzfNAiScPDluzpGggvFbN8Y2,,,,,,,,,,,,,,,,,,,1769.0,,,5e9aff02f4a78b1a1fe7fc3c,16:40:00,27/03/2024
html-keyboard-response,101,227587,0.0-44.0-0.0,1335.1000000238419,"<div style=""display: flex; flex-direction: column; align-items: center; margin-top: -40px;""><img src=""images/pattern_7.png"" style=""width: 234px; height: 230px; margin-top: -50px;""><div style=""display: flex; justify-content: space-between; margin-top: 33px;""><img src=""images/choice_trial_8.png"" style=""width: 408px; height: 417px; margin-right: 200px;""><img src=""images/choice_trial_10.png"" style=""width: 408px; height: 417px;""></div></div>",j,delaylearn,learning,trial,NLxvuzfNAiScPDluzpGggvFbN8Y2,NLxvuzfNAiScPDluzpGggvFbN8Y2,5.0,images/choice_trial_8.png,images/choice_trial_10.png,images/pattern_7.png,j,f,750.0,8.0,10.0,6.0,0.0,19.0,0.0,1.0,10.0,80.0,,,,,,5e9aff02f4a78b1a1fe7fc3c,16:40:00,27/03/2024
html-keyboard-response,102,228592,0.0-44.0-1.0,,"<div style=""display: flex; flex-direction: column; align-items: center; margin-top: -40px;""><img src=""images/pattern_7.png"" style=""width: 234px; height: 230px; margin-top: -50px;""><div style=""display: flex; justify-content: space-between; margin-top: 33px;""><img src=""images/choice_trial_10.png"" style=""width: 408px; height: 417px; margin-left:608px;""></div></div>",,delaylearn,learning,display_response,NLxvuzfNAiScPDluzpGggvFbN8Y2,NLxvuzfNAiScPDluzpGggvFbN8Y2,,,,,,,,,,,,,,,,,chosen stimuli: images/choice_trial_10.png,,,,,5e9aff02f4a78b1a1fe7fc3c,16:40:00,27/03/2024
html-keyboard-response,103,229348,0.0-44.0-2.0,,,,delaylearn,learning,feedback_duration_window,NLxvuzfNAiScPDluzpGggvFbN8Y2,NLxvuzfNAiScPDluzpGggvFbN8Y2,,,,,,,,,,,,,,,,,,750.0,,,,5e9aff02f4a78b1a1fe7fc3c,16:40:00,27/03/2024
html-keyboard-response,104,230860,0.0-44.0-3.0,,<div style='margin:auto;width: auto; font-size: 150%'><span style='font-weight: bold; font-size: 100px; color: green;'>+10 points!</span><br><br></div>,,delaylearn,learning,feedback_image_window,NLxvuzfNAiScPDluzpGggvFbN8Y2,NLxvuzfNAiScPDluzpGggvFbN8Y2,,,,,,,,,,,,,,,,,,,,,,5e9aff02f4a78b1a1fe7fc3c,16:40:00,27/03/2024
html-keyboard-response,105,233265,0.0-45.0,,"<div style=""font-size:100px;"">+</div>",,delaylearn,learning,ITI,NLxvuzfNAiScPDluzpGggvFbN8Y2,NLxvuzfNAiScPDluzpGggvFbN8Y2,,,,,,,,,,,,,,,,,,,2396.0,,,5e9aff02f4a78b1a1fe7fc3c,16:40:00,27/03/2024
html-keyboard-response,106,235574,0.0-46.0-0.0,2305.5,"<div style=""display: flex; flex-direction: column; align-items: center; margin-top: -40px;""><img src=""images/pattern_1.png"" style=""width: 234px; height: 230px; margin-top: -50px;""><div style=""display: flex; justify-content: space-between; margin-top: 33px;""><img src=""images/choice_trial_6.png"" style=""width: 408px; height: 417px; margin-right: 200px;""><img src=""images/choice_trial_15.png"" style=""width: 408px; height: 417px;""></div></div>",f,delaylearn,learning,trial,NLxvuzfNAiScPDluzpGggvFbN8Y2,NLxvuzfNAiScPDluzpGggvFbN8Y2,5.0,images/choice_trial_6.png,images/choice_trial_15.png,images/pattern_1.png,f,f,7000.0,6.0,15.0,1.0,0.0,20.0,1.0,1.0,6.0,90.0,,,,,,5e9aff02f4a78b1a1fe7fc3c,16:40:00,27/03/2024
html-keyboard-response,107,236584,0.0-46.0-1.0,,"<div style=""display: flex; flex-direction: column; align-items: center; margin-top: -40px;""><img src=""images/pattern_1.png"" style=""width: 234px; height: 230px; margin-top: -50px;""><div style=""display: flex; justify-content: space-between; margin-top: 33px;""><img src=""images/choice_trial_6.png"" style=""width: 408px; height: 417px; margin-right: 608px;""></div></div>",,delaylearn,learning,display_response,NLxvuzfNAiScPDluzpGggvFbN8Y2,NLxvuzfNAiScPDluzpGggvFbN8Y2,,,,,,,,,,,,,,,,,chosen stimuli: images/choice_trial_6.png,,,,,5e9aff02f4a78b1a1fe7fc3c,16:40:00,27/03/2024
html-keyboard-response,108,243588,0.0-46.0-2.0,,,,delaylearn,learning,feedback_duration_window,NLxvuzfNAiScPDluzpGggvFbN8Y2,NLxvuzfNAiScPDluzpGggvFbN8Y2,,,,,,,,,,,,,,,,,,7000.0,,,,5e9aff02f4a78b1a1fe7fc3c,16:40:00,27/03/2024
html-keyboard-response,109,245090,0.0-46.0-3.0,,<div style='margin:auto;width: auto; font-size: 150%'><span style='font-weight: bold; font-size: 100px; color: green;'>+10 points!</span><br><br></div>,,delaylearn,learning,feedback_image_window,NLxvuzfNAiScPDluzpGggvFbN8Y2,NLxvuzfNAiScPDluzpGggvFbN8Y2,,,,,,,,,,,,,,,,,,,,,,5e9aff02f4a78b1a1fe7fc3c,16:40:00,27/03/2024
html-keyboard-response,110,247483,0.0-47.0,,"<div style=""font-size:100px;"">+</div>",,delaylearn,learning,ITI,NLxvuzfNAiScPDluzpGggvFbN8Y2,NLxvuzfNAiScPDluzpGggvFbN8Y2,,,,,,,,,,,,,,,,,,,2388.0,,,5e9aff02f4a78b1a1fe7fc3c,16:40:00,27/03/2024
html-keyboard-response,111,249845,0.0-48.0-0.0,2359.2999999523163,"<div style=""display: flex; flex-direction: column; align-items: center; margin-top: -40px;""><img src=""images/pattern_6.png"" style=""width: 234px; height: 230px; margin-top: -50px;""><div style=""display: flex; justify-content: space-between; margin-top: 33px;""><img src=""images/choice_trial_9.png"" style=""width: 408px; height: 417px; margin-right: 200px;""><img src=""images/choice_trial_14.png"" style=""width: 408px; height: 417px;""></div></div>",j,delaylearn,learning,trial,NLxvuzfNAiScPDluzpGggvFbN8Y2,NLxvuzfNAiScPDluzpGggvFbN8Y2,5.0,images/choice_trial_9.png,images/choice_trial_14.png,images/pattern_6.png,j,j,750.0,9.0,14.0,5.0,1.0,21.0,1.0,1.0,14.0,100.0,,,,,,5e9aff02f4a78b1a1fe7fc3c,16:40:00,27/03/2024
html-keyboard-response,112,250854,0.0-48.0-1.0,,"<div style=""display: flex; flex-direction: column; align-items: center; margin-top: -40px;""><img src=""images/pattern_6.png"" style=""width: 234px; height: 230px; margin-top: -50px;""><div style=""display: flex; justify-content: space-between; margin-top: 33px;""><img src=""images/choice_trial_14.png"" style=""width: 408px; height: 417px; margin-left:608px;""></div></div>",,delaylearn,learning,display_response,NLxvuzfNAiScPDluzpGggvFbN8Y2,NLxvuzfNAiScPDluzpGggvFbN8Y2,,,,,,,,,,,,,,,,,chosen stimuli: images/choice_trial_14.png,,,,,5e9aff02f4a78b1a1fe7fc3c,16:40:00,27/03/2024
html-keyboard-response,113,251618,0.0-48.0-2.0,,,,delaylearn,learning,feedback_duration_window,NLxvuzfNAiScPDluzpGggvFbN8Y2,NLxvuzfNAiScPDluzpGggvFbN8Y2,,,,,,,,,,,,,,,,,,750.0,,,,5e9aff02f4a78b1a1fe7fc3c,16:40:00,27/03/2024
html-keyboard-response,114,253132,0.0-48.0-3.0,,<div style='margin:auto;width: auto; font-size: 150%'><span style='font-weight: bold; font-size: 100px; color: green;'>+10 points!</span><br><br></div>,,delaylearn,learning,feedback_image_window,NLxvuzfNAiScPDluzpGggvFbN8Y2,NLxvuzfNAiScPDluzpGggvFbN8Y2,,,,,,,,,,,,,,,,,,,,,,5e9aff02f4a78b1a1fe7fc3c,16:40:00,27/03/2024
html-keyboard-response,115,255088,0.0-49.0,,"<div style=""font-size:100px;"">+</div>",,delaylearn,learning,ITI,NLxvuzfNAiScPDluzpGggvFbN8Y2,NLxvuzfNAiScPDluzpGggvFbN8Y2,,,,,,,,,,,,,,,,,,,1947.0,,,5e9aff02f4a78b1a1fe7fc3c,16:40:00,27/03/2024
html-keyboard-response,116,256856,0.0-50.0-0.0,1765.5,"<div style=""display: flex; flex-direction: column; align-items: center; margin-top: -40px;""><img src=""images/pattern_4.png"" style=""width: 234px; height: 230px; margin-top: -50px;""><div style=""display: flex; justify-content: space-between; margin-top: 33px;""><img src=""images/choice_trial_11.png"" style=""width: 408px; height: 417px; margin-right: 200px;""><img src=""images/choice_trial_4.png"" style=""width: 408px; height: 417px;""></div></div>",j,delaylearn,learning,trial,NLxvuzfNAiScPDluzpGggvFbN8Y2,NLxvuzfNAiScPDluzpGggvFbN8Y2,5.0,images/choice_trial_11.png,images/choice_trial_4.png,images/pattern_4.png,f,f,7000.0,11.0,4.0,3.0,0.0,22.0,0.0,0.0,4.0,100.0,,,,,,5e9aff02f4a78b1a1fe7fc3c,16:40:00,27/03/2024
html-keyboard-response,117,257863,0.0-50.0-1.0,,"<div style=""display: flex; flex-direction: column; align-items: center; margin-top: -40px;""><img src=""images/pattern_4.png"" style=""width: 234px; height: 230px; margin-top: -50px;""><div style=""display: flex; justify-content: space-between; margin-top: 33px;""><img src=""images/choice_trial_4.png"" style=""width: 408px; height: 417px; margin-left:608px;""></div></div>",,delaylearn,learning,display_response,NLxvuzfNAiScPDluzpGggvFbN8Y2,NLxvuzfNAiScPDluzpGggvFbN8Y2,,,,,,,,,,,,,,,,,chosen stimuli: images/choice_trial_4.png,,,,,5e9aff02f4a78b1a1fe7fc3c,16:40:00,27/03/2024
html-keyboard-response,118,264868,0.0-50.0-2.0,,,,delaylearn,learning,feedback_duration_window,NLxvuzfNAiScPDluzpGggvFbN8Y2,NLxvuzfNAiScPDluzpGggvFbN8Y2,,,,,,,,,,,,,,,,,,7000.0,,,,5e9aff02f4a78b1a1fe7fc3c,16:40:00,27/03/2024
html-keyboard-response,119,266376,0.0-50.0-3.0,,<div style='margin:auto;width: auto; font-size: 150%'><span style='font-weight: bold; font-size: 100px; color: red;'>0 points!</span><br><br></div>,,delaylearn,learning,feedback_image_window,NLxvuzfNAiScPDluzpGggvFbN8Y2,NLxvuzfNAiScPDluzpGggvFbN8Y2,,,,,,,,,,,,,,,,,,,,,,5e9aff02f4a78b1a1fe7fc3c,16:40:00,27/03/2024
html-keyboard-response,120,266891,0.0-51.0-0.0,,,,,,mood_trial_fixation,NLxvuzfNAiScPDluzpGggvFbN8Y2,,,,,,,,,,,,,,,,,,,,,,,5e9aff02f4a78b1a1fe7fc3c,16:40:00,27/03/2024
lmdlab-html-vas-response,121,271083,0.0-51.0-1.0,3184.0,How happy are you right now?,0.5887586410541938,delaylearn,learning,mood_trial,NLxvuzfNAiScPDluzpGggvFbN8Y2,NLxvuzfNAiScPDluzpGggvFbN8Y2,,,,,,,,,,,,,,,,,,,,"['Very unhappy', 'Very happy']",,5e9aff02f4a78b1a1fe7fc3c,16:40:00,27/03/2024
html-keyboard-response,122,272909,0.0-52.0,,"<div style=""font-size:100px;"">+</div>",,delaylearn,learning,ITI,NLxvuzfNAiScPDluzpGggvFbN8Y2,NLxvuzfNAiScPDluzpGggvFbN8Y2,,,,,,,,,,,,,,,,,,,1811.0,,,5e9aff02f4a78b1a1fe7fc3c,16:40:00,27/03/2024
html-keyboard-response,123,274727,0.0-53.0-0.0,1814.2999999523163,"<div style=""display: flex; flex-direction: column; align-items: center; margin-top: -40px;""><img src=""images/pattern_7.png"" style=""width: 234px; height: 230px; margin-top: -50px;""><div style=""display: flex; justify-content: space-between; margin-top: 33px;""><img src=""images/choice_trial_10.png"" style=""width: 408px; height: 417px; margin-right: 200px;""><img src=""images/choice_trial_8.png"" style=""width: 408px; height: 417px;""></div></div>",j,delaylearn,learning,trial,NLxvuzfNAiScPDluzpGggvFbN8Y2,NLxvuzfNAiScPDluzpGggvFbN8Y2,5.0,images/choice_trial_10.png,images/choice_trial_8.png,images/pattern_7.png,j,j,750.0,10.0,8.0,6.0,1.0,23.0,1.0,1.0,8.0,110.0,,,,,,5e9aff02f4a78b1a1fe7fc3c,16:40:00,27/03/2024
html-keyboard-response,124,275730,0.0-53.0-1.0,,"<div style=""display: flex; flex-direction: column; align-items: center; margin-top: -40px;""><img src=""images/pattern_7.png"" style=""width: 234px; height: 230px; margin-top: -50px;""><div style=""display: flex; justify-content: space-between; margin-top: 33px;""><img src=""images/choice_trial_8.png"" style=""width: 408px; height: 417px; margin-left:608px;""></div></div>",,delaylearn,learning,display_response,NLxvuzfNAiScPDluzpGggvFbN8Y2,NLxvuzfNAiScPDluzpGggvFbN8Y2,,,,,,,,,,,,,,,,,chosen stimuli: images/choice_trial_8.png,,,,,5e9aff02f4a78b1a1fe7fc3c,16:40:00,27/03/2024
html-keyboard-response,125,276496,0.0-53.0-2.0,,,,delaylearn,learning,feedback_duration_window,NLxvuzfNAiScPDluzpGggvFbN8Y2,NLxvuzfNAiScPDluzpGggvFbN8Y2,,,,,,,,,,,,,,,,,,750.0,,,,5e9aff02f4a78b1a1fe7fc3c,16:40:00,27/03/2024
html-keyboard-response,126,278006,0.0-53.0-3.0,,<div style='margin:auto;width: auto; font-size: 150%'><span style='font-weight: bold; font-size: 100px; color: green;'>+10 points!</span><br><br></div>,,delaylearn,learning,feedback_image_window,NLxvuzfNAiScPDluzpGggvFbN8Y2,NLxvuzfNAiScPDluzpGggvFbN8Y2,,,,,,,,,,,,,,,,,,,,,,5e9aff02f4a78b1a1fe7fc3c,16:40:00,27/03/2024
html-keyboard-response,127,279596,0.0-54.0,,"<div style=""font-size:100px;"">+</div>",,delaylearn,learning,ITI,NLxvuzfNAiScPDluzpGggvFbN8Y2,NLxvuzfNAiScPDluzpGggvFbN8Y2,,,,,,,,,,,,,,,,,,,1588.0,,,5e9aff02f4a78b1a1fe7fc3c,16:40:00,27/03/2024
html-keyboard-response,128,281307,0.0-55.0-0.0,1708.6000000238419,"<div style=""display: flex; flex-direction: column; align-items: center; margin-top: -40px;""><img src=""images/pattern_1.png"" style=""width: 234px; height: 230px; margin-top: -50px;""><div style=""display: flex; justify-content: space-between; margin-top: 33px;""><img src=""images/choice_trial_15.png"" style=""width: 408px; height: 417px; margin-right: 200px;""><img src=""images/choice_trial_6.png"" style=""width: 408px; height: 417px;""></div></div>",f,delaylearn,learning,trial,NLxvuzfNAiScPDluzpGggvFbN8Y2,NLxvuzfNAiScPDluzpGggvFbN8Y2,5.0,images/choice_trial_15.png,images/choice_trial_6.png,images/pattern_1.png,f,j,7000.0,15.0,6.0,1.0,1.0,24.0,0.0,1.0,15.0,120.0,,,,,,5e9aff02f4a78b1a1fe7fc3c,16:40:00,27/03/2024
html-keyboard-response,129,282320,0.0-55.0-1.0,,"<div style=""display: flex; flex-direction: column; align-items: center; margin-top: -40px;""><img src=""images/pattern_1.png"" style=""width: 234px; height: 230px; margin-top: -50px;""><div style=""display: flex; justify-content: space-between; margin-top: 33px;""><img src=""images/choice_trial_15.png"" style=""width: 408px; height: 417px; margin-right: 608px;""></div></div>",,delaylearn,learning,display_response,NLxvuzfNAiScPDluzpGggvFbN8Y2,NLxvuzfNAiScPDluzpGggvFbN8Y2,,,,,,,,,,,,,,,,,chosen stimuli: images/choice_trial_15.png,,,,,5e9aff02f4a78b1a1fe7fc3c,16:40:00,27/03/2024
html-keyboard-response,130,289333,0.0-55.0-2.0,,,,delaylearn,learning,feedback_duration_window,NLxvuzfNAiScPDluzpGggvFbN8Y2,NLxvuzfNAiScPDluzpGggvFbN8Y2,,,,,,,,,,,,,,,,,,7000.0,,,,5e9aff02f4a78b1a1fe7fc3c,16:40:00,27/03/2024
html-keyboard-response,131,290839,0.0-55.0-3.0,,<div style='margin:auto;width: auto; font-size: 150%'><span style='font-weight: bold; font-size: 100px; color: green;'>+10 points!</span><br><br></div>,,delaylearn,learning,feedback_image_window,NLxvuzfNAiScPDluzpGggvFbN8Y2,NLxvuzfNAiScPDluzpGggvFbN8Y2,,,,,,,,,,,,,,,,,,,,,,5e9aff02f4a78b1a1fe7fc3c,16:40:00,27/03/2024
html-keyboard-response,132,292482,0.0-56.0,,"<div style=""font-size:100px;"">+</div>",,delaylearn,learning,ITI,NLxvuzfNAiScPDluzpGggvFbN8Y2,NLxvuzfNAiScPDluzpGggvFbN8Y2,,,,,,,,,,,,,,,,,,,1637.0,,,5e9aff02f4a78b1a1fe7fc3c,16:40:00,27/03/2024
html-keyboard-response,133,294130,0.0-57.0-0.0,1645.1000000238419,"<div style=""display: flex; flex-direction: column; align-items: center; margin-top: -40px;""><img src=""images/pattern_5.png"" style=""width: 234px; height: 230px; margin-top: -50px;""><div style=""display: flex; justify-content: space-between; margin-top: 33px;""><img src=""images/choice_trial_13.png"" style=""width: 408px; height: 417px; margin-right: 200px;""><img src=""images/choice_trial_7.png"" style=""width: 408px; height: 417px;""></div></div>",j,delaylearn,learning,trial,NLxvuzfNAiScPDluzpGggvFbN8Y2,NLxvuzfNAiScPDluzpGggvFbN8Y2,5.0,images/choice_trial_13.png,images/choice_trial_7.png,images/pattern_5.png,j,j,750.0,13.0,7.0,4.0,1.0,25.0,1.0,1.0,7.0,130.0,,,,,,5e9aff02f4a78b1a1fe7fc3c,16:40:00,27/03/2024
html-keyboard-response,134,295150,0.0-57.0-1.0,,"<div style=""display: flex; flex-direction: column; align-items: center; margin-top: -40px;""><img src=""images/pattern_5.png"" style=""width: 234px; height: 230px; margin-top: -50px;""><div style=""display: flex; justify-content: space-between; margin-top: 33px;""><img src=""images/choice_trial_7.png"" style=""width: 408px; height: 417px; margin-left:608px;""></div></div>",,delaylearn,learning,display_response,NLxvuzfNAiScPDluzpGggvFbN8Y2,NLxvuzfNAiScPDluzpGggvFbN8Y2,,,,,,,,,,,,,,,,,chosen stimuli: images/choice_trial_7.png,,,,,5e9aff02f4a78b1a1fe7fc3c,16:40:00,27/03/2024
html-keyboard-response,135,295902,0.0-57.0-2.0,,,,delaylearn,learning,feedback_duration_window,NLxvuzfNAiScPDluzpGggvFbN8Y2,NLxvuzfNAiScPDluzpGggvFbN8Y2,,,,,,,,,,,,,,,,,,750.0,,,,5e9aff02f4a78b1a1fe7fc3c,16:40:00,27/03/2024
html-keyboard-response,136,297411,0.0-57.0-3.0,,<div style='margin:auto;width: auto; font-size: 150%'><span style='font-weight: bold; font-size: 100px; color: green;'>+10 points!</span><br><br></div>,,delaylearn,learning,feedback_image_window,NLxvuzfNAiScPDluzpGggvFbN8Y2,NLxvuzfNAiScPDluzpGggvFbN8Y2,,,,,,,,,,,,,,,,,,,,,,5e9aff02f4a78b1a1fe7fc3c,16:40:00,27/03/2024
html-keyboard-response,137,299521,0.0-58.0,,"<div style=""font-size:100px;"">+</div>",,delaylearn,learning,ITI,NLxvuzfNAiScPDluzpGggvFbN8Y2,NLxvuzfNAiScPDluzpGggvFbN8Y2,,,,,,,,,,,,,,,,,,,2101.0,,,5e9aff02f4a78b1a1fe7fc3c,16:40:00,27/03/2024
html-keyboard-response,138,301785,0.0-59.0-0.0,2260.2000000476837,"<div style=""display: flex; flex-direction: column; align-items: center; margin-top: -40px;""><img src=""images/pattern_3.png"" style=""width: 234px; height: 230px; margin-top: -50px;""><div style=""display: flex; justify-content: space-between; margin-top: 33px;""><img src=""images/choice_trial_2.png"" style=""width: 408px; height: 417px; margin-right: 200px;""><img src=""images/choice_trial_16.png"" style=""width: 408px; height: 417px;""></div></div>",j,delaylearn,learning,trial,NLxvuzfNAiScPDluzpGggvFbN8Y2,NLxvuzfNAiScPDluzpGggvFbN8Y2,5.0,images/choice_trial_2.png,images/choice_trial_16.png,images/pattern_3.png,j,j,7000.0,2.0,16.0,2.0,1.0,26.0,1.0,1.0,16.0,140.0,,,,,,5e9aff02f4a78b1a1fe7fc3c,16:40:00,27/03/2024
html-keyboard-response,139,302793,0.0-59.0-1.0,,"<div style=""display: flex; flex-direction: column; align-items: center; margin-top: -40px;""><img src=""images/pattern_3.png"" style=""width: 234px; height: 230px; margin-top: -50px;""><div style=""display: flex; justify-content: space-between; margin-top: 33px;""><img src=""images/choice_trial_16.png"" style=""width: 408px; height: 417px; margin-left:608px;""></div></div>",,delaylearn,learning,display_response,NLxvuzfNAiScPDluzpGggvFbN8Y2,NLxvuzfNAiScPDluzpGggvFbN8Y2,,,,,,,,,,,,,,,,,chosen stimuli: images/choice_trial_16.png,,,,,5e9aff02f4a78b1a1fe7fc3c,16:40:00,27/03/2024
html-keyboard-response,140,309811,0.0-59.0-2.0,,,,delaylearn,learning,feedback_duration_window,NLxvuzfNAiScPDluzpGggvFbN8Y2,NLxvuzfNAiScPDluzpGggvFbN8Y2,,,,,,,,,,,,,,,,,,7000.0,,,,5e9aff02f4a78b1a1fe7fc3c,16:40:00,27/03/2024
html-keyboard-response,141,311327,0.0-59.0-3.0,,<div style='margin:auto;width: auto; font-size: 150%'><span style='font-weight: bold; font-size: 100px; color: green;'>+10 points!</span><br><br></div>,,delaylearn,learning,feedback_image_window,NLxvuzfNAiScPDluzpGggvFbN8Y2,NLxvuzfNAiScPDluzpGggvFbN8Y2,,,,,,,,,,,,,,,,,,,,,,5e9aff02f4a78b1a1fe7fc3c,16:40:00,27/03/2024
lmdlab-html-vas-response,142,318530,0.0-60.0-0.0,5691.0,*How <b><u>confident</u></b> are you feeling about your answers at this moment?*,0.47492278181840014,rewlearn,rate_confidence,,NLxvuzfNAiScPDluzpGggvFbN8Y2,NLxvuzfNAiScPDluzpGggvFbN8Y2,,,,,,,,,,,,,,,,,,,,"['No confidence', 'Complete confidence']",,5e9aff02f4a78b1a1fe7fc3c,16:40:00,27/03/2024
lmdlab-rest-trial-limit,143,392297,0.0-60.0-1.0,72250.0,"<div style=""font-size:40px;""><b>Please take a break!</b><br><br><br><br><p>Great work: you earned 140 points.<br><br><br><p>You have completed part(s) 1 of 5.<br><br><br><br>When you are ready to continue<br><br><br>please click the button.</p><br><br>",0,delaylearn,learning,break,NLxvuzfNAiScPDluzpGggvFbN8Y2,NLxvuzfNAiScPDluzpGggvFbN8Y2,,,,,,,,,,,,,,,,,,,,,0.0,5e9aff02f4a78b1a1fe7fc3c,16:40:00,27/03/2024
html-keyboard-response,144,395312,0.0-60.0-2.0,,"<div style=""font-size:100px;"">+</div>",,delaylearn,learning,pre_fixation,NLxvuzfNAiScPDluzpGggvFbN8Y2,,,,,,,,,,,,,,,,,,,,,,,5e9aff02f4a78b1a1fe7fc3c,16:40:00,27/03/2024
lmdlab-html-vas-response,145,399517,0.0-60.0-3.0-0.0,3192.0,How happy are you right now?,0.5771845675252011,delaylearn,learning,mood_baseline,NLxvuzfNAiScPDluzpGggvFbN8Y2,NLxvuzfNAiScPDluzpGggvFbN8Y2,,,,,,,,,,,,,,,,,,,,"['Very unhappy', 'Very happy']",,5e9aff02f4a78b1a1fe7fc3c,16:40:00,27/03/2024
html-keyboard-response,146,401022,0.0-60.0-3.0-1.0,,,,,,mood_baseline_fixation,NLxvuzfNAiScPDluzpGggvFbN8Y2,,,,,,,,,,,,,,,,,,,,,,,5e9aff02f4a78b1a1fe7fc3c,16:40:00,27/03/2024
html-keyboard-response,147,402816,0.0-61.0,,"<div style=""font-size:100px;"">+</div>",,delaylearn,learning,ITI,NLxvuzfNAiScPDluzpGggvFbN8Y2,NLxvuzfNAiScPDluzpGggvFbN8Y2,,,,,,,,,,,,,,,,,,,1781.0,,,5e9aff02f4a78b1a1fe7fc3c,16:40:00,27/03/2024
html-keyboard-response,148,404038,0.0-62.0-0.0,1219.2000000476837,"<div style=""display: flex; flex-direction: column; align-items: center; margin-top: -40px;""><img src=""images/pattern_7.png"" style=""width: 234px; height: 230px; margin-top: -50px;""><div style=""display: flex; justify-content: space-between; margin-top: 33px;""><img src=""images/choice_trial_10.png"" style=""width: 408px; height: 417px; margin-right: 200px;""><img src=""images/choice_trial_8.png"" style=""width: 408px; height: 417px;""></div></div>",j,delaylearn,learning,trial,NLxvuzfNAiScPDluzpGggvFbN8Y2,NLxvuzfNAiScPDluzpGggvFbN8Y2,5.0,images/choice_trial_10.png,images/choice_trial_8.png,images/pattern_7.png,j,j,750.0,10.0,8.0,6.0,1.0,27.0,1.0,1.0,8.0,150.0,,,,,,5e9aff02f4a78b1a1fe7fc3c,16:40:00,27/03/2024
html-keyboard-response,149,405052,0.0-62.0-1.0,,"<div style=""display: flex; flex-direction: column; align-items: center; margin-top: -40px;""><img src=""images/pattern_7.png"" style=""width: 234px; height: 230px; margin-top: -50px;""><div style=""display: flex; justify-content: space-between; margin-top: 33px;""><img src=""images/choice_trial_8.png"" style=""width: 408px; height: 417px; margin-left:608px;""></div></div>",,delaylearn,learning,display_response,NLxvuzfNAiScPDluzpGggvFbN8Y2,NLxvuzfNAiScPDluzpGggvFbN8Y2,,,,,,,,,,,,,,,,,chosen stimuli: images/choice_trial_8.png,,,,,5e9aff02f4a78b1a1fe7fc3c,16:40:00,27/03/2024
html-keyboard-response,150,405814,0.0-62.0-2.0,,,,delaylearn,learning,feedback_duration_window,NLxvuzfNAiScPDluzpGggvFbN8Y2,NLxvuzfNAiScPDluzpGggvFbN8Y2,,,,,,,,,,,,,,,,,,750.0,,,,5e9aff02f4a78b1a1fe7fc3c,16:40:00,27/03/2024
html-keyboard-response,151,407317,0.0-62.0-3.0,,<div style='margin:auto;width: auto; font-size: 150%'><span style='font-weight: bold; font-size: 100px; color: green;'>+10 points!</span><br><br></div>,,delaylearn,learning,feedback_image_window,NLxvuzfNAiScPDluzpGggvFbN8Y2,NLxvuzfNAiScPDluzpGggvFbN8Y2,,,,,,,,,,,,,,,,,,,,,,5e9aff02f4a78b1a1fe7fc3c,16:40:00,27/03/2024
html-keyboard-response,152,407833,0.0-63.0-0.0,,,,,,mood_trial_fixation,NLxvuzfNAiScPDluzpGggvFbN8Y2,,,,,,,,,,,,,,,,,,,,,,,5e9aff02f4a78b1a1fe7fc3c,16:40:00,27/03/2024
lmdlab-html-vas-response,153,412722,0.0-63.0-1.0,3880.0,How happy are you right now?,0.5791135797800333,delaylearn,learning,mood_trial,NLxvuzfNAiScPDluzpGggvFbN8Y2,NLxvuzfNAiScPDluzpGggvFbN8Y2,,,,,,,,,,,,,,,,,,,,"['Very unhappy', 'Very happy']",,5e9aff02f4a78b1a1fe7fc3c,16:40:00,27/03/2024
html-keyboard-response,154,414560,0.0-64.0,,"<div style=""font-size:100px;"">+</div>",,delaylearn,learning,ITI,NLxvuzfNAiScPDluzpGggvFbN8Y2,NLxvuzfNAiScPDluzpGggvFbN8Y2,,,,,,,,,,,,,,,,,,,1823.0,,,5e9aff02f4a78b1a1fe7fc3c,16:40:00,27/03/2024
html-keyboard-response,155,416311,0.0-65.0-0.0,1747.3000000715256,"<div style=""display: flex; flex-direction: column; align-items: center; margin-top: -40px;""><img src=""images/pattern_1.png"" style=""width: 234px; height: 230px; margin-top: -50px;""><div style=""display: flex; justify-content: space-between; margin-top: 33px;""><img src=""images/choice_trial_6.png"" style=""width: 408px; height: 417px; margin-right: 200px;""><img src=""images/choice_trial_15.png"" style=""width: 408px; height: 417px;""></div></div>",f,delaylearn,learning,trial,NLxvuzfNAiScPDluzpGggvFbN8Y2,NLxvuzfNAiScPDluzpGggvFbN8Y2,5.0,images/choice_trial_6.png,images/choice_trial_15.png,images/pattern_1.png,f,f,7000.0,6.0,15.0,1.0,0.0,28.0,1.0,1.0,6.0,160.0,,,,,,5e9aff02f4a78b1a1fe7fc3c,16:40:00,27/03/2024
html-keyboard-response,156,417320,0.0-65.0-1.0,,"<div style=""display: flex; flex-direction: column; align-items: center; margin-top: -40px;""><img src=""images/pattern_1.png"" style=""width: 234px; height: 230px; margin-top: -50px;""><div style=""display: flex; justify-content: space-between; margin-top: 33px;""><img src=""images/choice_trial_6.png"" style=""width: 408px; height: 417px; margin-right: 608px;""></div></div>",,delaylearn,learning,display_response,NLxvuzfNAiScPDluzpGggvFbN8Y2,NLxvuzfNAiScPDluzpGggvFbN8Y2,,,,,,,,,,,,,,,,,chosen stimuli: images/choice_trial_6.png,,,,,5e9aff02f4a78b1a1fe7fc3c,16:40:00,27/03/2024
html-keyboard-response,157,424328,0.0-65.0-2.0,,,,delaylearn,learning,feedback_duration_window,NLxvuzfNAiScPDluzpGggvFbN8Y2,NLxvuzfNAiScPDluzpGggvFbN8Y2,,,,,,,,,,,,,,,,,,7000.0,,,,5e9aff02f4a78b1a1fe7fc3c,16:40:00,27/03/2024
html-keyboard-response,158,425835,0.0-65.0-3.0,,<div style='margin:auto;width: auto; font-size: 150%'><span style='font-weight: bold; font-size: 100px; color: green;'>+10 points!</span><br><br></div>,,delaylearn,learning,feedback_image_window,NLxvuzfNAiScPDluzpGggvFbN8Y2,NLxvuzfNAiScPDluzpGggvFbN8Y2,,,,,,,,,,,,,,,,,,,,,,5e9aff02f4a78b1a1fe7fc3c,16:40:00,27/03/2024
html-keyboard-response,159,427669,0.0-66.0,,"<div style=""font-size:100px;"">+</div>",,delaylearn,learning,ITI,NLxvuzfNAiScPDluzpGggvFbN8Y2,NLxvuzfNAiScPDluzpGggvFbN8Y2,,,,,,,,,,,,,,,,,,,1825.0,,,5e9aff02f4a78b1a1fe7fc3c,16:40:00,27/03/2024
html-keyboard-response,160,430058,0.0-67.0-0.0,2386.100000023842,"<div style=""display: flex; flex-direction: column; align-items: center; margin-top: -40px;""><img src=""images/pattern_5.png"" style=""width: 234px; height: 230px; margin-top: -50px;""><div style=""display: flex; justify-content: space-between; margin-top: 33px;""><img src=""images/choice_trial_7.png"" style=""width: 408px; height: 417px; margin-right: 200px;""><img src=""images/choice_trial_13.png"" style=""width: 408px; height: 417px;""></div></div>",f,delaylearn,learning,trial,NLxvuzfNAiScPDluzpGggvFbN8Y2,NLxvuzfNAiScPDluzpGggvFbN8Y2,5.0,images/choice_trial_7.png,images/choice_trial_13.png,images/pattern_5.png,f,f,750.0,7.0,13.0,4.0,0.0,29.0,1.0,1.0,7.0,170.0,,,,,,5e9aff02f4a78b1a1fe7fc3c,16:40:00,27/03/2024
html-keyboard-response,161,431063,0.0-67.0-1.0,,"<div style=""display: flex; flex-direction: column; align-items: center; margin-top: -40px;""><img src=""images/pattern_5.png"" style=""width: 234px; height: 230px; margin-top: -50px;""><div style=""display: flex; justify-content: space-between; margin-top: 33px;""><img src=""images/choice_trial_7.png"" style=""width: 408px; height: 417px; margin-right: 608px;""></div></div>",,delaylearn,learning,display_response,NLxvuzfNAiScPDluzpGggvFbN8Y2,NLxvuzfNAiScPDluzpGggvFbN8Y2,,,,,,,,,,,,,,,,,chosen stimuli: images/choice_trial_7.png,,,,,5e9aff02f4a78b1a1fe7fc3c,16:40:00,27/03/2024
html-keyboard-response,162,431816,0.0-67.0-2.0,,,,delaylearn,learning,feedback_duration_window,NLxvuzfNAiScPDluzpGggvFbN8Y2,NLxvuzfNAiScPDluzpGggvFbN8Y2,,,,,,,,,,,,,,,,,,750.0,,,,5e9aff02f4a78b1a1fe7fc3c,16:40:00,27/03/2024
html-keyboard-response,163,433322,0.0-67.0-3.0,,<div style='margin:auto;width: auto; font-size: 150%'><span style='font-weight: bold; font-size: 100px; color: green;'>+10 points!</span><br><br></div>,,delaylearn,learning,feedback_image_window,NLxvuzfNAiScPDluzpGggvFbN8Y2,NLxvuzfNAiScPDluzpGggvFbN8Y2,,,,,,,,,,,,,,,,,,,,,,5e9aff02f4a78b1a1fe7fc3c,16:40:00,27/03/2024
html-keyboard-response,164,435201,0.0-68.0,,"<div style=""font-size:100px;"">+</div>",,delaylearn,learning,ITI,NLxvuzfNAiScPDluzpGggvFbN8Y2,NLxvuzfNAiScPDluzpGggvFbN8Y2,,,,,,,,,,,,,,,,,,,1875.0,,,5e9aff02f4a78b1a1fe7fc3c,16:40:00,27/03/2024
html-keyboard-response,165,436647,0.0-69.0-0.0,1442.7000000476837,"<div style=""display: flex; flex-direction: column; align-items: center; margin-top: -40px;""><img src=""images/pattern_6.png"" style=""width: 234px; height: 230px; margin-top: -50px;""><div style=""display: flex; justify-content: space-between; margin-top: 33px;""><img src=""images/choice_trial_9.png"" style=""width: 408px; height: 417px; margin-right: 200px;""><img src=""images/choice_trial_14.png"" style=""width: 408px; height: 417px;""></div></div>",j,delaylearn,learning,trial,NLxvuzfNAiScPDluzpGggvFbN8Y2,NLxvuzfNAiScPDluzpGggvFbN8Y2,5.0,images/choice_trial_9.png,images/choice_trial_14.png,images/pattern_6.png,j,j,750.0,9.0,14.0,5.0,1.0,30.0,1.0,1.0,14.0,180.0,,,,,,5e9aff02f4a78b1a1fe7fc3c,16:40:00,27/03/2024
html-keyboard-response,166,437652,0.0-69.0-1.0,,"<div style=""display: flex; flex-direction: column; align-items: center; margin-top: -40px;""><img src=""images/pattern_6.png"" style=""width: 234px; height: 230px; margin-top: -50px;""><div style=""display: flex; justify-content: space-between; margin-top: 33px;""><img src=""images/choice_trial_14.png"" style=""width: 408px; height: 417px; margin-left:608px;""></div></div>",,delaylearn,learning,display_response,NLxvuzfNAiScPDluzpGggvFbN8Y2,NLxvuzfNAiScPDluzpGggvFbN8Y2,,,,,,,,,,,,,,,,,chosen stimuli: images/choice_trial_14.png,,,,,5e9aff02f4a78b1a1fe7fc3c,16:40:00,27/03/2024
html-keyboard-response,167,438406,0.0-69.0-2.0,,,,delaylearn,learning,feedback_duration_window,NLxvuzfNAiScPDluzpGggvFbN8Y2,NLxvuzfNAiScPDluzpGggvFbN8Y2,,,,,,,,,,,,,,,,,,750.0,,,,5e9aff02f4a78b1a1fe7fc3c,16:40:00,27/03/2024
html-keyboard-response,168,439917,0.0-69.0-3.0,,<div style='margin:auto;width: auto; font-size: 150%'><span style='font-weight: bold; font-size: 100px; color: green;'>+10 points!</span><br><br></div>,,delaylearn,learning,feedback_image_window,NLxvuzfNAiScPDluzpGggvFbN8Y2,NLxvuzfNAiScPDluzpGggvFbN8Y2,,,,,,,,,,,,,,,,,,,,,,5e9aff02f4a78b1a1fe7fc3c,16:40:00,27/03/2024
html-keyboard-response,169,440431,0.0-70.0-0.0,,,,,,mood_trial_fixation,NLxvuzfNAiScPDluzpGggvFbN8Y2,,,,,,,,,,,,,,,,,,,,,,,5e9aff02f4a78b1a1fe7fc3c,16:40:00,27/03/2024
lmdlab-html-vas-response,170,444231,0.0-70.0-1.0,2784.0,How happy are you right now?,0.7083574008537857,delaylearn,learning,mood_trial,NLxvuzfNAiScPDluzpGggvFbN8Y2,NLxvuzfNAiScPDluzpGggvFbN8Y2,,,,,,,,,,,,,,,,,,,,"['Very unhappy', 'Very happy']",,5e9aff02f4a78b1a1fe7fc3c,16:40:00,27/03/2024
html-keyboard-response,171,446160,0.0-71.0,,"<div style=""font-size:100px;"">+</div>",,delaylearn,learning,ITI,NLxvuzfNAiScPDluzpGggvFbN8Y2,NLxvuzfNAiScPDluzpGggvFbN8Y2,,,,,,,,,,,,,,,,,,,1918.0,,,5e9aff02f4a78b1a1fe7fc3c,16:40:00,27/03/2024
html-keyboard-response,172,448394,0.0-72.0-0.0,2230.2000000476837,"<div style=""display: flex; flex-direction: column; align-items: center; margin-top: -40px;""><img src=""images/pattern_4.png"" style=""width: 234px; height: 230px; margin-top: -50px;""><div style=""display: flex; justify-content: space-between; margin-top: 33px;""><img src=""images/choice_trial_4.png"" style=""width: 408px; height: 417px; margin-right: 200px;""><img src=""images/choice_trial_11.png"" style=""width: 408px; height: 417px;""></div></div>",f,delaylearn,learning,trial,NLxvuzfNAiScPDluzpGggvFbN8Y2,NLxvuzfNAiScPDluzpGggvFbN8Y2,5.0,images/choice_trial_4.png,images/choice_trial_11.png,images/pattern_4.png,j,j,7000.0,4.0,11.0,3.0,1.0,31.0,0.0,0.0,4.0,180.0,,,,,,5e9aff02f4a78b1a1fe7fc3c,16:40:00,27/03/2024
html-keyboard-response,173,449399,0.0-72.0-1.0,,"<div style=""display: flex; flex-direction: column; align-items: center; margin-top: -40px;""><img src=""images/pattern_4.png"" style=""width: 234px; height: 230px; margin-top: -50px;""><div style=""display: flex; justify-content: space-between; margin-top: 33px;""><img src=""images/choice_trial_4.png"" style=""width: 408px; height: 417px; margin-right: 608px;""></div></div>",,delaylearn,learning,display_response,NLxvuzfNAiScPDluzpGggvFbN8Y2,NLxvuzfNAiScPDluzpGggvFbN8Y2,,,,,,,,,,,,,,,,,chosen stimuli: images/choice_trial_4.png,,,,,5e9aff02f4a78b1a1fe7fc3c,16:40:00,27/03/2024
html-keyboard-response,174,456400,0.0-72.0-2.0,,,,delaylearn,learning,feedback_duration_window,NLxvuzfNAiScPDluzpGggvFbN8Y2,NLxvuzfNAiScPDluzpGggvFbN8Y2,,,,,,,,,,,,,,,,,,7000.0,,,,5e9aff02f4a78b1a1fe7fc3c,16:40:00,27/03/2024
html-keyboard-response,175,457907,0.0-72.0-3.0,,<div style='margin:auto;width: auto; font-size: 150%'><span style='font-weight: bold; font-size: 100px; color: red;'>0 points!</span><br><br></div>,,delaylearn,learning,feedback_image_window,NLxvuzfNAiScPDluzpGggvFbN8Y2,NLxvuzfNAiScPDluzpGggvFbN8Y2,,,,,,,,,,,,,,,,,,,,,,5e9aff02f4a78b1a1fe7fc3c,16:40:00,27/03/2024
html-keyboard-response,176,459447,0.0-73.0,,"<div style=""font-size:100px;"">+</div>",,delaylearn,learning,ITI,NLxvuzfNAiScPDluzpGggvFbN8Y2,NLxvuzfNAiScPDluzpGggvFbN8Y2,,,,,,,,,,,,,,,,,,,1526.0,,,5e9aff02f4a78b1a1fe7fc3c,16:40:00,27/03/2024
html-keyboard-response,177,460913,0.0-74.0-0.0,1462.2000000476837,"<div style=""display: flex; flex-direction: column; align-items: center; margin-top: -40px;""><img src=""images/pattern_3.png"" style=""width: 234px; height: 230px; margin-top: -50px;""><div style=""display: flex; justify-content: space-between; margin-top: 33px;""><img src=""images/choice_trial_2.png"" style=""width: 408px; height: 417px; margin-right: 200px;""><img src=""images/choice_trial_16.png"" style=""width: 408px; height: 417px;""></div></div>",f,delaylearn,learning,trial,NLxvuzfNAiScPDluzpGggvFbN8Y2,NLxvuzfNAiScPDluzpGggvFbN8Y2,5.0,images/choice_trial_2.png,images/choice_trial_16.png,images/pattern_3.png,j,j,7000.0,2.0,16.0,2.0,1.0,32.0,0.0,0.0,2.0,180.0,,,,,,5e9aff02f4a78b1a1fe7fc3c,16:40:00,27/03/2024
html-keyboard-response,178,461922,0.0-74.0-1.0,,"<div style=""display: flex; flex-direction: column; align-items: center; margin-top: -40px;""><img src=""images/pattern_3.png"" style=""width: 234px; height: 230px; margin-top: -50px;""><div style=""display: flex; justify-content: space-between; margin-top: 33px;""><img src=""images/choice_trial_2.png"" style=""width: 408px; height: 417px; margin-right: 608px;""></div></div>",,delaylearn,learning,display_response,NLxvuzfNAiScPDluzpGggvFbN8Y2,NLxvuzfNAiScPDluzpGggvFbN8Y2,,,,,,,,,,,,,,,,,chosen stimuli: images/choice_trial_2.png,,,,,5e9aff02f4a78b1a1fe7fc3c,16:40:00,27/03/2024
html-keyboard-response,179,468933,0.0-74.0-2.0,,,,delaylearn,learning,feedback_duration_window,NLxvuzfNAiScPDluzpGggvFbN8Y2,NLxvuzfNAiScPDluzpGggvFbN8Y2,,,,,,,,,,,,,,,,,,7000.0,,,,5e9aff02f4a78b1a1fe7fc3c,16:40:00,27/03/2024
html-keyboard-response,180,470442,0.0-74.0-3.0,,<div style='margin:auto;width: auto; font-size: 150%'><span style='font-weight: bold; font-size: 100px; color: red;'>0 points!</span><br><br></div>,,delaylearn,learning,feedback_image_window,NLxvuzfNAiScPDluzpGggvFbN8Y2,NLxvuzfNAiScPDluzpGggvFbN8Y2,,,,,,,,,,,,,,,,,,,,,,5e9aff02f4a78b1a1fe7fc3c,16:40:00,27/03/2024
html-keyboard-response,181,472070,0.0-75.0,,"<div style=""font-size:100px;"">+</div>",,delaylearn,learning,ITI,NLxvuzfNAiScPDluzpGggvFbN8Y2,NLxvuzfNAiScPDluzpGggvFbN8Y2,,,,,,,,,,,,,,,,,,,1620.0,,,5e9aff02f4a78b1a1fe7fc3c,16:40:00,27/03/2024
html-keyboard-response,182,473236,0.0-76.0-0.0,1162.8000000715256,"<div style=""display: flex; flex-direction: column; align-items: center; margin-top: -40px;""><img src=""images/pattern_5.png"" style=""width: 234px; height: 230px; margin-top: -50px;""><div style=""display: flex; justify-content: space-between; margin-top: 33px;""><img src=""images/choice_trial_7.png"" style=""width: 408px; height: 417px; margin-right: 200px;""><img src=""images/choice_trial_13.png"" style=""width: 408px; height: 417px;""></div></div>",f,delaylearn,learning,trial,NLxvuzfNAiScPDluzpGggvFbN8Y2,NLxvuzfNAiScPDluzpGggvFbN8Y2,5.0,images/choice_trial_7.png,images/choice_trial_13.png,images/pattern_5.png,j,f,750.0,7.0,13.0,4.0,0.0,33.0,1.0,0.0,7.0,180.0,,,,,,5e9aff02f4a78b1a1fe7fc3c,16:40:00,27/03/2024
html-keyboard-response,183,474252,0.0-76.0-1.0,,"<div style=""display: flex; flex-direction: column; align-items: center; margin-top: -40px;""><img src=""images/pattern_5.png"" style=""width: 234px; height: 230px; margin-top: -50px;""><div style=""display: flex; justify-content: space-between; margin-top: 33px;""><img src=""images/choice_trial_7.png"" style=""width: 408px; height: 417px; margin-right: 608px;""></div></div>",,delaylearn,learning,display_response,NLxvuzfNAiScPDluzpGggvFbN8Y2,NLxvuzfNAiScPDluzpGggvFbN8Y2,,,,,,,,,,,,,,,,,chosen stimuli: images/choice_trial_7.png,,,,,5e9aff02f4a78b1a1fe7fc3c,16:40:00,27/03/2024
html-keyboard-response,184,475016,0.0-76.0-2.0,,,,delaylearn,learning,feedback_duration_window,NLxvuzfNAiScPDluzpGggvFbN8Y2,NLxvuzfNAiScPDluzpGggvFbN8Y2,,,,,,,,,,,,,,,,,,750.0,,,,5e9aff02f4a78b1a1fe7fc3c,16:40:00,27/03/2024
html-keyboard-response,185,476519,0.0-76.0-3.0,,<div style='margin:auto;width: auto; font-size: 150%'><span style='font-weight: bold; font-size: 100px; color: red;'>0 points!</span><br><br></div>,,delaylearn,learning,feedback_image_window,NLxvuzfNAiScPDluzpGggvFbN8Y2,NLxvuzfNAiScPDluzpGggvFbN8Y2,,,,,,,,,,,,,,,,,,,,,,5e9aff02f4a78b1a1fe7fc3c,16:40:00,27/03/2024
html-keyboard-response,186,478393,0.0-77.0,,"<div style=""font-size:100px;"">+</div>",,delaylearn,learning,ITI,NLxvuzfNAiScPDluzpGggvFbN8Y2,NLxvuzfNAiScPDluzpGggvFbN8Y2,,,,,,,,,,,,,,,,,,,1867.0,,,5e9aff02f4a78b1a1fe7fc3c,16:40:00,27/03/2024
html-keyboard-response,187,481085,0.0-78.0-0.0,2689.600000023842,"<div style=""display: flex; flex-direction: column; align-items: center; margin-top: -40px;""><img src=""images/pattern_1.png"" style=""width: 234px; height: 230px; margin-top: -50px;""><div style=""display: flex; justify-content: space-between; margin-top: 33px;""><img src=""images/choice_trial_6.png"" style=""width: 408px; height: 417px; margin-right: 200px;""><img src=""images/choice_trial_15.png"" style=""width: 408px; height: 417px;""></div></div>",j,delaylearn,learning,trial,NLxvuzfNAiScPDluzpGggvFbN8Y2,NLxvuzfNAiScPDluzpGggvFbN8Y2,5.0,images/choice_trial_6.png,images/choice_trial_15.png,images/pattern_1.png,f,f,7000.0,6.0,15.0,1.0,0.0,34.0,0.0,0.0,15.0,180.0,,,,,,5e9aff02f4a78b1a1fe7fc3c,16:40:00,27/03/2024
html-keyboard-response,188,482092,0.0-78.0-1.0,,"<div style=""display: flex; flex-direction: column; align-items: center; margin-top: -40px;""><img src=""images/pattern_1.png"" style=""width: 234px; height: 230px; margin-top: -50px;""><div style=""display: flex; justify-content: space-between; margin-top: 33px;""><img src=""images/choice_trial_15.png"" style=""width: 408px; height: 417px; margin-left:608px;""></div></div>",,delaylearn,learning,display_response,NLxvuzfNAiScPDluzpGggvFbN8Y2,NLxvuzfNAiScPDluzpGggvFbN8Y2,,,,,,,,,,,,,,,,,chosen stimuli: images/choice_trial_15.png,,,,,5e9aff02f4a78b1a1fe7fc3c,16:40:00,27/03/2024
html-keyboard-response,189,489104,0.0-78.0-2.0,,,,delaylearn,learning,feedback_duration_window,NLxvuzfNAiScPDluzpGggvFbN8Y2,NLxvuzfNAiScPDluzpGggvFbN8Y2,,,,,,,,,,,,,,,,,,7000.0,,,,5e9aff02f4a78b1a1fe7fc3c,16:40:00,27/03/2024
html-keyboard-response,190,490611,0.0-78.0-3.0,,<div style='margin:auto;width: auto; font-size: 150%'><span style='font-weight: bold; font-size: 100px; color: red;'>0 points!</span><br><br></div>,,delaylearn,learning,feedback_image_window,NLxvuzfNAiScPDluzpGggvFbN8Y2,NLxvuzfNAiScPDluzpGggvFbN8Y2,,,,,,,,,,,,,,,,,,,,,,5e9aff02f4a78b1a1fe7fc3c,16:40:00,27/03/2024
html-keyboard-response,191,491118,0.0-79.0-0.0,,,,,,mood_trial_fixation,NLxvuzfNAiScPDluzpGggvFbN8Y2,,,,,,,,,,,,,,,,,,,,,,,5e9aff02f4a78b1a1fe7fc3c,16:40:00,27/03/2024
lmdlab-html-vas-response,192,494269,0.0-79.0-1.0,2137.0,How happy are you right now?,0.15280187146213337,delaylearn,learning,mood_trial,NLxvuzfNAiScPDluzpGggvFbN8Y2,NLxvuzfNAiScPDluzpGggvFbN8Y2,,,,,,,,,,,,,,,,,,,,"['Very unhappy', 'Very happy']",,5e9aff02f4a78b1a1fe7fc3c,16:40:00,27/03/2024
html-keyboard-response,193,495791,0.0-80.0,,"<div style=""font-size:100px;"">+</div>",,delaylearn,learning,ITI,NLxvuzfNAiScPDluzpGggvFbN8Y2,NLxvuzfNAiScPDluzpGggvFbN8Y2,,,,,,,,,,,,,,,,,,,1515.0,,,5e9aff02f4a78b1a1fe7fc3c,16:40:00,27/03/2024
html-keyboard-response,194,497354,0.0-81.0-0.0,1559.5,"<div style=""display: flex; flex-direction: column; align-items: center; margin-top: -40px;""><img src=""images/pattern_6.png"" style=""width: 234px; height: 230px; margin-top: -50px;""><div style=""display: flex; justify-content: space-between; margin-top: 33px;""><img src=""images/choice_trial_14.png"" style=""width: 408px; height: 417px; margin-right: 200px;""><img src=""images/choice_trial_9.png"" style=""width: 408px; height: 417px;""></div></div>",f,delaylearn,learning,trial,NLxvuzfNAiScPDluzpGggvFbN8Y2,NLxvuzfNAiScPDluzpGggvFbN8Y2,5.0,images/choice_trial_14.png,images/choice_trial_9.png,images/pattern_6.png,j,f,750.0,14.0,9.0,5.0,0.0,35.0,1.0,0.0,14.0,180.0,,,,,,5e9aff02f4a78b1a1fe7fc3c,16:40:00,27/03/2024
html-keyboard-response,195,498366,0.0-81.0-1.0,,"<div style=""display: flex; flex-direction: column; align-items: center; margin-top: -40px;""><img src=""images/pattern_6.png"" style=""width: 234px; height: 230px; margin-top: -50px;""><div style=""display: flex; justify-content: space-between; margin-top: 33px;""><img src=""images/choice_trial_14.png"" style=""width: 408px; height: 417px; margin-right: 608px;""></div></div>",,delaylearn,learning,display_response,NLxvuzfNAiScPDluzpGggvFbN8Y2,NLxvuzfNAiScPDluzpGggvFbN8Y2,,,,,,,,,,,,,,,,,chosen stimuli: images/choice_trial_14.png,,,,,5e9aff02f4a78b1a1fe7fc3c,16:40:00,27/03/2024
html-keyboard-response,196,499118,0.0-81.0-2.0,,,,delaylearn,learning,feedback_duration_window,NLxvuzfNAiScPDluzpGggvFbN8Y2,NLxvuzfNAiScPDluzpGggvFbN8Y2,,,,,,,,,,,,,,,,,,750.0,,,,5e9aff02f4a78b1a1fe7fc3c,16:40:00,27/03/2024
html-keyboard-response,197,500626,0.0-81.0-3.0,,<div style='margin:auto;width: auto; font-size: 150%'><span style='font-weight: bold; font-size: 100px; color: red;'>0 points!</span><br><br></div>,,delaylearn,learning,feedback_image_window,NLxvuzfNAiScPDluzpGggvFbN8Y2,NLxvuzfNAiScPDluzpGggvFbN8Y2,,,,,,,,,,,,,,,,,,,,,,5e9aff02f4a78b1a1fe7fc3c,16:40:00,27/03/2024
html-keyboard-response,198,502956,0.0-82.0,,"<div style=""font-size:100px;"">+</div>",,delaylearn,learning,ITI,NLxvuzfNAiScPDluzpGggvFbN8Y2,NLxvuzfNAiScPDluzpGggvFbN8Y2,,,,,,,,,,,,,,,,,,,2324.0,,,5e9aff02f4a78b1a1fe7fc3c,16:40:00,27/03/2024
html-keyboard-response,199,504261,0.0-83.0-0.0,1300.7999999523163,"<div style=""display: flex; flex-direction: column; align-items: center; margin-top: -40px;""><img src=""images/pattern_3.png"" style=""width: 234px; height: 230px; margin-top: -50px;""><div style=""display: flex; justify-content: space-between; margin-top: 33px;""><img src=""images/choice_trial_2.png"" style=""width: 408px; height: 417px; margin-right: 200px;""><img src=""images/choice_trial_16.png"" style=""width: 408px; height: 417px;""></div></div>",f,delaylearn,learning,trial,NLxvuzfNAiScPDluzpGggvFbN8Y2,NLxvuzfNAiScPDluzpGggvFbN8Y2,5.0,images/choice_trial_2.png,images/choice_trial_16.png,images/pattern_3.png,j,j,7000.0,2.0,16.0,2.0,1.0,36.0,0.0,0.0,2.0,180.0,,,,,,5e9aff02f4a78b1a1fe7fc3c,16:40:00,27/03/2024
html-keyboard-response,200,505266,0.0-83.0-1.0,,"<div style=""display: flex; flex-direction: column; align-items: center; margin-top: -40px;""><img src=""images/pattern_3.png"" style=""width: 234px; height: 230px; margin-top: -50px;""><div style=""display: flex; justify-content: space-between; margin-top: 33px;""><img src=""images/choice_trial_2.png"" style=""width: 408px; height: 417px; margin-right: 608px;""></div></div>",,delaylearn,learning,display_response,NLxvuzfNAiScPDluzpGggvFbN8Y2,NLxvuzfNAiScPDluzpGggvFbN8Y2,,,,,,,,,,,,,,,,,chosen stimuli: images/choice_trial_2.png,,,,,5e9aff02f4a78b1a1fe7fc3c,16:40:00,27/03/2024
html-keyboard-response,201,512272,0.0-83.0-2.0,,,,delaylearn,learning,feedback_duration_window,NLxvuzfNAiScPDluzpGggvFbN8Y2,NLxvuzfNAiScPDluzpGggvFbN8Y2,,,,,,,,,,,,,,,,,,7000.0,,,,5e9aff02f4a78b1a1fe7fc3c,16:40:00,27/03/2024
html-keyboard-response,202,513778,0.0-83.0-3.0,,<div style='margin:auto;width: auto; font-size: 150%'><span style='font-weight: bold; font-size: 100px; color: red;'>0 points!</span><br><br></div>,,delaylearn,learning,feedback_image_window,NLxvuzfNAiScPDluzpGggvFbN8Y2,NLxvuzfNAiScPDluzpGggvFbN8Y2,,,,,,,,,,,,,,,,,,,,,,5e9aff02f4a78b1a1fe7fc3c,16:40:00,27/03/2024
html-keyboard-response,203,515376,0.0-84.0,,"<div style=""font-size:100px;"">+</div>",,delaylearn,learning,ITI,NLxvuzfNAiScPDluzpGggvFbN8Y2,NLxvuzfNAiScPDluzpGggvFbN8Y2,,,,,,,,,,,,,,,,,,,1590.0,,,5e9aff02f4a78b1a1fe7fc3c,16:40:00,27/03/2024
html-keyboard-response,204,516857,0.0-85.0-0.0,1477.1000000238419,"<div style=""display: flex; flex-direction: column; align-items: center; margin-top: -40px;""><img src=""images/pattern_4.png"" style=""width: 234px; height: 230px; margin-top: -50px;""><div style=""display: flex; justify-content: space-between; margin-top: 33px;""><img src=""images/choice_trial_4.png"" style=""width: 408px; height: 417px; margin-right: 200px;""><img src=""images/choice_trial_11.png"" style=""width: 408px; height: 417px;""></div></div>",f,delaylearn,learning,trial,NLxvuzfNAiScPDluzpGggvFbN8Y2,NLxvuzfNAiScPDluzpGggvFbN8Y2,5.0,images/choice_trial_4.png,images/choice_trial_11.png,images/pattern_4.png,f,j,7000.0,4.0,11.0,3.0,1.0,37.0,0.0,1.0,4.0,190.0,,,,,,5e9aff02f4a78b1a1fe7fc3c,16:40:00,27/03/2024
html-keyboard-response,205,517862,0.0-85.0-1.0,,"<div style=""display: flex; flex-direction: column; align-items: center; margin-top: -40px;""><img src=""images/pattern_4.png"" style=""width: 234px; height: 230px; margin-top: -50px;""><div style=""display: flex; justify-content: space-between; margin-top: 33px;""><img src=""images/choice_trial_4.png"" style=""width: 408px; height: 417px; margin-right: 608px;""></div></div>",,delaylearn,learning,display_response,NLxvuzfNAiScPDluzpGggvFbN8Y2,NLxvuzfNAiScPDluzpGggvFbN8Y2,,,,,,,,,,,,,,,,,chosen stimuli: images/choice_trial_4.png,,,,,5e9aff02f4a78b1a1fe7fc3c,16:40:00,27/03/2024
html-keyboard-response,206,524873,0.0-85.0-2.0,,,,delaylearn,learning,feedback_duration_window,NLxvuzfNAiScPDluzpGggvFbN8Y2,NLxvuzfNAiScPDluzpGggvFbN8Y2,,,,,,,,,,,,,,,,,,7000.0,,,,5e9aff02f4a78b1a1fe7fc3c,16:40:00,27/03/2024
html-keyboard-response,207,526386,0.0-85.0-3.0,,<div style='margin:auto;width: auto; font-size: 150%'><span style='font-weight: bold; font-size: 100px; color: green;'>+10 points!</span><br><br></div>,,delaylearn,learning,feedback_image_window,NLxvuzfNAiScPDluzpGggvFbN8Y2,NLxvuzfNAiScPDluzpGggvFbN8Y2,,,,,,,,,,,,,,,,,,,,,,5e9aff02f4a78b1a1fe7fc3c,16:40:00,27/03/2024
html-keyboard-response,208,528108,0.0-86.0,,"<div style=""font-size:100px;"">+</div>",,delaylearn,learning,ITI,NLxvuzfNAiScPDluzpGggvFbN8Y2,NLxvuzfNAiScPDluzpGggvFbN8Y2,,,,,,,,,,,,,,,,,,,1710.0,,,5e9aff02f4a78b1a1fe7fc3c,16:40:00,27/03/2024
html-keyboard-response,209,530485,0.0-87.0-0.0,2374.0,"<div style=""display: flex; flex-direction: column; align-items: center; margin-top: -40px;""><img src=""images/pattern_7.png"" style=""width: 234px; height: 230px; margin-top: -50px;""><div style=""display: flex; justify-content: space-between; margin-top: 33px;""><img src=""images/choice_trial_8.png"" style=""width: 408px; height: 417px; margin-right: 200px;""><img src=""images/choice_trial_10.png"" style=""width: 408px; height: 417px;""></div></div>",j,delaylearn,learning,trial,NLxvuzfNAiScPDluzpGggvFbN8Y2,NLxvuzfNAiScPDluzpGggvFbN8Y2,5.0,images/choice_trial_8.png,images/choice_trial_10.png,images/pattern_7.png,f,f,750.0,8.0,10.0,6.0,0.0,38.0,0.0,0.0,10.0,190.0,,,,,,5e9aff02f4a78b1a1fe7fc3c,16:40:00,27/03/2024
html-keyboard-response,210,531499,0.0-87.0-1.0,,"<div style=""display: flex; flex-direction: column; align-items: center; margin-top: -40px;""><img src=""images/pattern_7.png"" style=""width: 234px; height: 230px; margin-top: -50px;""><div style=""display: flex; justify-content: space-between; margin-top: 33px;""><img src=""images/choice_trial_10.png"" style=""width: 408px; height: 417px; margin-left:608px;""></div></div>",,delaylearn,learning,display_response,NLxvuzfNAiScPDluzpGggvFbN8Y2,NLxvuzfNAiScPDluzpGggvFbN8Y2,,,,,,,,,,,,,,,,,chosen stimuli: images/choice_trial_10.png,,,,,5e9aff02f4a78b1a1fe7fc3c,16:40:00,27/03/2024
html-keyboard-response,211,532252,0.0-87.0-2.0,,,,delaylearn,learning,feedback_duration_window,NLxvuzfNAiScPDluzpGggvFbN8Y2,NLxvuzfNAiScPDluzpGggvFbN8Y2,,,,,,,,,,,,,,,,,,750.0,,,,5e9aff02f4a78b1a1fe7fc3c,16:40:00,27/03/2024
html-keyboard-response,212,533768,0.0-87.0-3.0,,<div style='margin:auto;width: auto; font-size: 150%'><span style='font-weight: bold; font-size: 100px; color: red;'>0 points!</span><br><br></div>,,delaylearn,learning,feedback_image_window,NLxvuzfNAiScPDluzpGggvFbN8Y2,NLxvuzfNAiScPDluzpGggvFbN8Y2,,,,,,,,,,,,,,,,,,,,,,5e9aff02f4a78b1a1fe7fc3c,16:40:00,27/03/2024
html-keyboard-response,213,536253,0.0-88.0,,"<div style=""font-size:100px;"">+</div>",,delaylearn,learning,ITI,NLxvuzfNAiScPDluzpGggvFbN8Y2,NLxvuzfNAiScPDluzpGggvFbN8Y2,,,,,,,,,,,,,,,,,,,2471.0,,,5e9aff02f4a78b1a1fe7fc3c,16:40:00,27/03/2024
html-keyboard-response,214,537995,0.0-89.0-0.0,1738.0,"<div style=""display: flex; flex-direction: column; align-items: center; margin-top: -40px;""><img src=""images/pattern_1.png"" style=""width: 234px; height: 230px; margin-top: -50px;""><div style=""display: flex; justify-content: space-between; margin-top: 33px;""><img src=""images/choice_trial_6.png"" style=""width: 408px; height: 417px; margin-right: 200px;""><img src=""images/choice_trial_15.png"" style=""width: 408px; height: 417px;""></div></div>",j,delaylearn,learning,trial,NLxvuzfNAiScPDluzpGggvFbN8Y2,NLxvuzfNAiScPDluzpGggvFbN8Y2,5.0,images/choice_trial_6.png,images/choice_trial_15.png,images/pattern_1.png,f,f,7000.0,6.0,15.0,1.0,0.0,39.0,0.0,0.0,15.0,190.0,,,,,,5e9aff02f4a78b1a1fe7fc3c,16:40:00,27/03/2024
html-keyboard-response,215,538999,0.0-89.0-1.0,,"<div style=""display: flex; flex-direction: column; align-items: center; margin-top: -40px;""><img src=""images/pattern_1.png"" style=""width: 234px; height: 230px; margin-top: -50px;""><div style=""display: flex; justify-content: space-between; margin-top: 33px;""><img src=""images/choice_trial_15.png"" style=""width: 408px; height: 417px; margin-left:608px;""></div></div>",,delaylearn,learning,display_response,NLxvuzfNAiScPDluzpGggvFbN8Y2,NLxvuzfNAiScPDluzpGggvFbN8Y2,,,,,,,,,,,,,,,,,chosen stimuli: images/choice_trial_15.png,,,,,5e9aff02f4a78b1a1fe7fc3c,16:40:00,27/03/2024
html-keyboard-response,216,546009,0.0-89.0-2.0,,,,delaylearn,learning,feedback_duration_window,NLxvuzfNAiScPDluzpGggvFbN8Y2,NLxvuzfNAiScPDluzpGggvFbN8Y2,,,,,,,,,,,,,,,,,,7000.0,,,,5e9aff02f4a78b1a1fe7fc3c,16:40:00,27/03/2024
html-keyboard-response,217,547526,0.0-89.0-3.0,,<div style='margin:auto;width: auto; font-size: 150%'><span style='font-weight: bold; font-size: 100px; color: red;'>0 points!</span><br><br></div>,,delaylearn,learning,feedback_image_window,NLxvuzfNAiScPDluzpGggvFbN8Y2,NLxvuzfNAiScPDluzpGggvFbN8Y2,,,,,,,,,,,,,,,,,,,,,,5e9aff02f4a78b1a1fe7fc3c,16:40:00,27/03/2024
html-keyboard-response,218,548029,0.0-90.0-0.0,,,,,,mood_trial_fixation,NLxvuzfNAiScPDluzpGggvFbN8Y2,,,,,,,,,,,,,,,,,,,,,,,5e9aff02f4a78b1a1fe7fc3c,16:40:00,27/03/2024
lmdlab-html-vas-response,219,552033,0.0-90.0-1.0,2991.0,How happy are you right now?,0.17595001852011888,delaylearn,learning,mood_trial,NLxvuzfNAiScPDluzpGggvFbN8Y2,NLxvuzfNAiScPDluzpGggvFbN8Y2,,,,,,,,,,,,,,,,,,,,"['Very unhappy', 'Very happy']",,5e9aff02f4a78b1a1fe7fc3c,16:40:00,27/03/2024
html-keyboard-response,220,553802,0.0-91.0,,"<div style=""font-size:100px;"">+</div>",,delaylearn,learning,ITI,NLxvuzfNAiScPDluzpGggvFbN8Y2,NLxvuzfNAiScPDluzpGggvFbN8Y2,,,,,,,,,,,,,,,,,,,1756.0,,,5e9aff02f4a78b1a1fe7fc3c,16:40:00,27/03/2024
html-keyboard-response,221,555836,0.0-92.0-0.0,2029.7000000476837,"<div style=""display: flex; flex-direction: column; align-items: center; margin-top: -40px;""><img src=""images/pattern_3.png"" style=""width: 234px; height: 230px; margin-top: -50px;""><div style=""display: flex; justify-content: space-between; margin-top: 33px;""><img src=""images/choice_trial_16.png"" style=""width: 408px; height: 417px; margin-right: 200px;""><img src=""images/choice_trial_2.png"" style=""width: 408px; height: 417px;""></div></div>",j,delaylearn,learning,trial,NLxvuzfNAiScPDluzpGggvFbN8Y2,NLxvuzfNAiScPDluzpGggvFbN8Y2,5.0,images/choice_trial_16.png,images/choice_trial_2.png,images/pattern_3.png,j,f,7000.0,16.0,2.0,2.0,0.0,40.0,0.0,1.0,2.0,200.0,,,,,,5e9aff02f4a78b1a1fe7fc3c,16:40:00,27/03/2024
html-keyboard-response,222,556850,0.0-92.0-1.0,,"<div style=""display: flex; flex-direction: column; align-items: center; margin-top: -40px;""><img src=""images/pattern_3.png"" style=""width: 234px; height: 230px; margin-top: -50px;""><div style=""display: flex; justify-content: space-between; margin-top: 33px;""><img src=""images/choice_trial_2.png"" style=""width: 408px; height: 417px; margin-left:608px;""></div></div>",,delaylearn,learning,display_response,NLxvuzfNAiScPDluzpGggvFbN8Y2,NLxvuzfNAiScPDluzpGggvFbN8Y2,,,,,,,,,,,,,,,,,chosen stimuli: images/choice_trial_2.png,,,,,5e9aff02f4a78b1a1fe7fc3c,16:40:00,27/03/2024
html-keyboard-response,223,563852,0.0-92.0-2.0,,,,delaylearn,learning,feedback_duration_window,NLxvuzfNAiScPDluzpGggvFbN8Y2,NLxvuzfNAiScPDluzpGggvFbN8Y2,,,,,,,,,,,,,,,,,,7000.0,,,,5e9aff02f4a78b1a1fe7fc3c,16:40:00,27/03/2024
html-keyboard-response,224,565367,0.0-92.0-3.0,,<div style='margin:auto;width: auto; font-size: 150%'><span style='font-weight: bold; font-size: 100px; color: green;'>+10 points!</span><br><br></div>,,delaylearn,learning,feedback_image_window,NLxvuzfNAiScPDluzpGggvFbN8Y2,NLxvuzfNAiScPDluzpGggvFbN8Y2,,,,,,,,,,,,,,,,,,,,,,5e9aff02f4a78b1a1fe7fc3c,16:40:00,27/03/2024
html-keyboard-response,225,567639,0.0-93.0,,"<div style=""font-size:100px;"">+</div>",,delaylearn,learning,ITI,NLxvuzfNAiScPDluzpGggvFbN8Y2,NLxvuzfNAiScPDluzpGggvFbN8Y2,,,,,,,,,,,,,,,,,,,2269.0,,,5e9aff02f4a78b1a1fe7fc3c,16:40:00,27/03/2024
html-keyboard-response,226,569827,0.0-94.0-0.0,2184.8000000715256,"<div style=""display: flex; flex-direction: column; align-items: center; margin-top: -40px;""><img src=""images/pattern_7.png"" style=""width: 234px; height: 230px; margin-top: -50px;""><div style=""display: flex; justify-content: space-between; margin-top: 33px;""><img src=""images/choice_trial_10.png"" style=""width: 408px; height: 417px; margin-right: 200px;""><img src=""images/choice_trial_8.png"" style=""width: 408px; height: 417px;""></div></div>",j,delaylearn,learning,trial,NLxvuzfNAiScPDluzpGggvFbN8Y2,NLxvuzfNAiScPDluzpGggvFbN8Y2,5.0,images/choice_trial_10.png,images/choice_trial_8.png,images/pattern_7.png,j,j,750.0,10.0,8.0,6.0,1.0,41.0,1.0,1.0,8.0,210.0,,,,,,5e9aff02f4a78b1a1fe7fc3c,16:40:00,27/03/2024
html-keyboard-response,227,570842,0.0-94.0-1.0,,"<div style=""display: flex; flex-direction: column; align-items: center; margin-top: -40px;""><img src=""images/pattern_7.png"" style=""width: 234px; height: 230px; margin-top: -50px;""><div style=""display: flex; justify-content: space-between; margin-top: 33px;""><img src=""images/choice_trial_8.png"" style=""width: 408px; height: 417px; margin-left:608px;""></div></div>",,delaylearn,learning,display_response,NLxvuzfNAiScPDluzpGggvFbN8Y2,NLxvuzfNAiScPDluzpGggvFbN8Y2,,,,,,,,,,,,,,,,,chosen stimuli: images/choice_trial_8.png,,,,,5e9aff02f4a78b1a1fe7fc3c,16:40:00,27/03/2024
html-keyboard-response,228,571596,0.0-94.0-2.0,,,,delaylearn,learning,feedback_duration_window,NLxvuzfNAiScPDluzpGggvFbN8Y2,NLxvuzfNAiScPDluzpGggvFbN8Y2,,,,,,,,,,,,,,,,,,750.0,,,,5e9aff02f4a78b1a1fe7fc3c,16:40:00,27/03/2024
html-keyboard-response,229,573115,0.0-94.0-3.0,,<div style='margin:auto;width: auto; font-size: 150%'><span style='font-weight: bold; font-size: 100px; color: green;'>+10 points!</span><br><br></div>,,delaylearn,learning,feedback_image_window,NLxvuzfNAiScPDluzpGggvFbN8Y2,NLxvuzfNAiScPDluzpGggvFbN8Y2,,,,,,,,,,,,,,,,,,,,,,5e9aff02f4a78b1a1fe7fc3c,16:40:00,27/03/2024
html-keyboard-response,230,574930,0.0-95.0,,"<div style=""font-size:100px;"">+</div>",,delaylearn,learning,ITI,NLxvuzfNAiScPDluzpGggvFbN8Y2,NLxvuzfNAiScPDluzpGggvFbN8Y2,,,,,,,,,,,,,,,,,,,1811.0,,,5e9aff02f4a78b1a1fe7fc3c,16:40:00,27/03/2024
