trial_type,trial_index,time_elapsed,internal_node_id,rt,stimulus,response,exp_name,exp_stage,test_part,subjectID,databaseID,counterbal,choice_stimuli_1,choice_stimuli_2,pattern_stimuli,rewarded_answer,correct_answer,feedback_duration_times,stim_left,stim_right,pair,leftright_counter,trial,response_correct,response_rewarded,chosen_stim,counter,displayed_choice,feedback_durations,ITI_duration,labels,rest_warning,prolificID,start_time,date
pavlovia,0,1045,0.0-0.0,,,,,,,NGNuEau595V5JttzXFtsMnje45B2,,,,,,,,,,,,,,,,,,,,,,,5ee91ec1ef56832aa7947169,16:51:18,27/03/2024
html-keyboard-response,1,4050,0.0-1.0,,"<div style=""font-size:100px;"">+</div>",,delaylearn,learning,pre_fixation,NGNuEau595V5JttzXFtsMnje45B2,not found,,,,,,,,,,,,,,,,,,,,,,5ee91ec1ef56832aa7947169,16:51:18,27/03/2024
html-keyboard-response,2,5745,0.0-2.0-0.0,1691.7999999998137,"<div style=""display: flex; flex-direction: column; align-items: center; margin-top: -40px;""><img src=""images/demo_images/pattern_1.png"" style=""width: 234px; height: 230px; margin-top: -50px;""><div style=""display: flex; justify-content: space-between; margin-top: 33px;""><img src=""images/demo_images/choice_trial_2.png"" style=""width: 408px; height: 417px; margin-right: 200px;""><img src=""images/demo_images/choice_trial_1.png"" style=""width: 408px; height: 417px;""></div></div>",f,delaylearn,learning,trial,NGNuEau595V5JttzXFtsMnje45B2,NGNuEau595V5JttzXFtsMnje45B2,3.0,images/demo_images/choice_trial_2.png,images/demo_images/choice_trial_1.png,images/demo_images/pattern_1.png,j,j,3000.0,2.0,1.0,20.0,1.0,1.0,0.0,0.0,2.0,0.0,,,,,,5ee91ec1ef56832aa7947169,16:51:18,27/03/2024
html-keyboard-response,3,6749,0.0-2.0-1.0,,"<div style=""display: flex; flex-direction: column; align-items: center; margin-top: -40px;""><img src=""images/demo_images/pattern_1.png"" style=""width: 234px; height: 230px; margin-top: -50px;""><div style=""display: flex; justify-content: space-between; margin-top: 33px;""><img src=""images/demo_images/choice_trial_2.png"" style=""width: 408px; height: 417px; margin-right: 608px;""></div></div>",,delaylearn,learning,display_response,NGNuEau595V5JttzXFtsMnje45B2,NGNuEau595V5JttzXFtsMnje45B2,,,,,,,,,,,,,,,,,chosen stimuli: images/demo_images/choice_trial_2.png,,,,,5ee91ec1ef56832aa7947169,16:51:18,27/03/2024
html-keyboard-response,4,9759,0.0-2.0-2.0,,,,delaylearn,learning,feedback_duration_window,NGNuEau595V5JttzXFtsMnje45B2,NGNuEau595V5JttzXFtsMnje45B2,,,,,,,,,,,,,,,,,,3000.0,,,,5ee91ec1ef56832aa7947169,16:51:18,27/03/2024
html-keyboard-response,5,11273,0.0-2.0-3.0,,<div style='margin:auto;width: auto; font-size: 150%'><span style='font-weight: bold; font-size: 100px; color: red;'>0 points!</span><br><br></div>,,delaylearn,learning,feedback_image_window,NGNuEau595V5JttzXFtsMnje45B2,NGNuEau595V5JttzXFtsMnje45B2,,,,,,,,,,,,,,,,,,,,,,5ee91ec1ef56832aa7947169,16:51:18,27/03/2024
html-keyboard-response,6,12990,0.0-3.0,,"<div style=""font-size:100px;"">+</div>",,delaylearn,learning,ITI,NGNuEau595V5JttzXFtsMnje45B2,NGNuEau595V5JttzXFtsMnje45B2,,,,,,,,,,,,,,,,,,,1706.0,,,5ee91ec1ef56832aa7947169,16:51:18,27/03/2024
html-keyboard-response,7,14539,0.0-4.0-0.0,1547.2999999998137,"<div style=""display: flex; flex-direction: column; align-items: center; margin-top: -40px;""><img src=""images/demo_images/pattern_1.png"" style=""width: 234px; height: 230px; margin-top: -50px;""><div style=""display: flex; justify-content: space-between; margin-top: 33px;""><img src=""images/demo_images/choice_trial_2.png"" style=""width: 408px; height: 417px; margin-right: 200px;""><img src=""images/demo_images/choice_trial_1.png"" style=""width: 408px; height: 417px;""></div></div>",j,delaylearn,learning,trial,NGNuEau595V5JttzXFtsMnje45B2,NGNuEau595V5JttzXFtsMnje45B2,3.0,images/demo_images/choice_trial_2.png,images/demo_images/choice_trial_1.png,images/demo_images/pattern_1.png,j,j,3000.0,2.0,1.0,20.0,1.0,2.0,1.0,1.0,1.0,10.0,,,,,,5ee91ec1ef56832aa7947169,16:51:18,27/03/2024
html-keyboard-response,8,15546,0.0-4.0-1.0,,"<div style=""display: flex; flex-direction: column; align-items: center; margin-top: -40px;""><img src=""images/demo_images/pattern_1.png"" style=""width: 234px; height: 230px; margin-top: -50px;""><div style=""display: flex; justify-content: space-between; margin-top: 33px;""><img src=""images/demo_images/choice_trial_1.png"" style=""width: 408px; height: 417px; margin-left:608px;""></div></div>",,delaylearn,learning,display_response,NGNuEau595V5JttzXFtsMnje45B2,NGNuEau595V5JttzXFtsMnje45B2,,,,,,,,,,,,,,,,,chosen stimuli: images/demo_images/choice_trial_1.png,,,,,5ee91ec1ef56832aa7947169,16:51:18,27/03/2024
html-keyboard-response,9,18549,0.0-4.0-2.0,,,,delaylearn,learning,feedback_duration_window,NGNuEau595V5JttzXFtsMnje45B2,NGNuEau595V5JttzXFtsMnje45B2,,,,,,,,,,,,,,,,,,3000.0,,,,5ee91ec1ef56832aa7947169,16:51:18,27/03/2024
html-keyboard-response,10,20054,0.0-4.0-3.0,,<div style='margin:auto;width: auto; font-size: 150%'><span style='font-weight: bold; font-size: 100px; color: green;'>+10 points!</span><br><br></div>,,delaylearn,learning,feedback_image_window,NGNuEau595V5JttzXFtsMnje45B2,NGNuEau595V5JttzXFtsMnje45B2,,,,,,,,,,,,,,,,,,,,,,5ee91ec1ef56832aa7947169,16:51:18,27/03/2024
html-keyboard-response,11,22050,0.0-5.0,,"<div style=""font-size:100px;"">+</div>",,delaylearn,learning,ITI,NGNuEau595V5JttzXFtsMnje45B2,NGNuEau595V5JttzXFtsMnje45B2,,,,,,,,,,,,,,,,,,,1988.0,,,5ee91ec1ef56832aa7947169,16:51:18,27/03/2024
html-keyboard-response,12,24395,0.0-6.0-0.0,2342.7000000001863,"<div style=""display: flex; flex-direction: column; align-items: center; margin-top: -40px;""><img src=""images/demo_images/pattern_1.png"" style=""width: 234px; height: 230px; margin-top: -50px;""><div style=""display: flex; justify-content: space-between; margin-top: 33px;""><img src=""images/demo_images/choice_trial_1.png"" style=""width: 408px; height: 417px; margin-right: 200px;""><img src=""images/demo_images/choice_trial_2.png"" style=""width: 408px; height: 417px;""></div></div>",f,delaylearn,learning,trial,NGNuEau595V5JttzXFtsMnje45B2,NGNuEau595V5JttzXFtsMnje45B2,3.0,images/demo_images/choice_trial_1.png,images/demo_images/choice_trial_2.png,images/demo_images/pattern_1.png,j,f,3000.0,1.0,2.0,20.0,0.0,3.0,1.0,0.0,1.0,10.0,,,,,,5ee91ec1ef56832aa7947169,16:51:18,27/03/2024
html-keyboard-response,13,25411,0.0-6.0-1.0,,"<div style=""display: flex; flex-direction: column; align-items: center; margin-top: -40px;""><img src=""images/demo_images/pattern_1.png"" style=""width: 234px; height: 230px; margin-top: -50px;""><div style=""display: flex; justify-content: space-between; margin-top: 33px;""><img src=""images/demo_images/choice_trial_1.png"" style=""width: 408px; height: 417px; margin-right: 608px;""></div></div>",,delaylearn,learning,display_response,NGNuEau595V5JttzXFtsMnje45B2,NGNuEau595V5JttzXFtsMnje45B2,,,,,,,,,,,,,,,,,chosen stimuli: images/demo_images/choice_trial_1.png,,,,,5ee91ec1ef56832aa7947169,16:51:18,27/03/2024
html-keyboard-response,14,28418,0.0-6.0-2.0,,,,delaylearn,learning,feedback_duration_window,NGNuEau595V5JttzXFtsMnje45B2,NGNuEau595V5JttzXFtsMnje45B2,,,,,,,,,,,,,,,,,,3000.0,,,,5ee91ec1ef56832aa7947169,16:51:18,27/03/2024
html-keyboard-response,15,29923,0.0-6.0-3.0,,<div style='margin:auto;width: auto; font-size: 150%'><span style='font-weight: bold; font-size: 100px; color: red;'>0 points!</span><br><br></div>,,delaylearn,learning,feedback_image_window,NGNuEau595V5JttzXFtsMnje45B2,NGNuEau595V5JttzXFtsMnje45B2,,,,,,,,,,,,,,,,,,,,,,5ee91ec1ef56832aa7947169,16:51:18,27/03/2024
html-keyboard-response,16,31892,0.0-7.0,,"<div style=""font-size:100px;"">+</div>",,delaylearn,learning,ITI,NGNuEau595V5JttzXFtsMnje45B2,NGNuEau595V5JttzXFtsMnje45B2,,,,,,,,,,,,,,,,,,,1953.0,,,5ee91ec1ef56832aa7947169,16:51:18,27/03/2024
html-keyboard-response,17,34886,0.0-8.0-0.0,2992.7000000001863,"<div style=""display: flex; flex-direction: column; align-items: center; margin-top: -40px;""><img src=""images/demo_images/pattern_1.png"" style=""width: 234px; height: 230px; margin-top: -50px;""><div style=""display: flex; justify-content: space-between; margin-top: 33px;""><img src=""images/demo_images/choice_trial_1.png"" style=""width: 408px; height: 417px; margin-right: 200px;""><img src=""images/demo_images/choice_trial_2.png"" style=""width: 408px; height: 417px;""></div></div>",j,delaylearn,learning,trial,NGNuEau595V5JttzXFtsMnje45B2,NGNuEau595V5JttzXFtsMnje45B2,3.0,images/demo_images/choice_trial_1.png,images/demo_images/choice_trial_2.png,images/demo_images/pattern_1.png,f,f,3000.0,1.0,2.0,20.0,0.0,4.0,0.0,0.0,2.0,10.0,,,,,,5ee91ec1ef56832aa7947169,16:51:18,27/03/2024
html-keyboard-response,18,35907,0.0-8.0-1.0,,"<div style=""display: flex; flex-direction: column; align-items: center; margin-top: -40px;""><img src=""images/demo_images/pattern_1.png"" style=""width: 234px; height: 230px; margin-top: -50px;""><div style=""display: flex; justify-content: space-between; margin-top: 33px;""><img src=""images/demo_images/choice_trial_2.png"" style=""width: 408px; height: 417px; margin-left:608px;""></div></div>",,delaylearn,learning,display_response,NGNuEau595V5JttzXFtsMnje45B2,NGNuEau595V5JttzXFtsMnje45B2,,,,,,,,,,,,,,,,,chosen stimuli: images/demo_images/choice_trial_2.png,,,,,5ee91ec1ef56832aa7947169,16:51:18,27/03/2024
html-keyboard-response,19,38921,0.0-8.0-2.0,,,,delaylearn,learning,feedback_duration_window,NGNuEau595V5JttzXFtsMnje45B2,NGNuEau595V5JttzXFtsMnje45B2,,,,,,,,,,,,,,,,,,3000.0,,,,5ee91ec1ef56832aa7947169,16:51:18,27/03/2024
html-keyboard-response,20,40427,0.0-8.0-3.0,,<div style='margin:auto;width: auto; font-size: 150%'><span style='font-weight: bold; font-size: 100px; color: red;'>0 points!</span><br><br></div>,,delaylearn,learning,feedback_image_window,NGNuEau595V5JttzXFtsMnje45B2,NGNuEau595V5JttzXFtsMnje45B2,,,,,,,,,,,,,,,,,,,,,,5ee91ec1ef56832aa7947169,16:51:18,27/03/2024
html-keyboard-response,21,40934,0.0-9.0-0.0,,,,,,mood_trial_fixation,NGNuEau595V5JttzXFtsMnje45B2,,,,,,,,,,,,,,,,,,,,,,,5ee91ec1ef56832aa7947169,16:51:18,27/03/2024
lmdlab-html-vas-response,22,45782,0.0-9.0-1.0,3832.0,How happy are you right now?,0.3958333333333333,delaylearn,learning,mood_trial,NGNuEau595V5JttzXFtsMnje45B2,NGNuEau595V5JttzXFtsMnje45B2,,,,,,,,,,,,,,,,,,,,"['Very unhappy', 'Very happy']",,5ee91ec1ef56832aa7947169,16:51:18,27/03/2024
html-keyboard-response,23,47517,0.0-10.0,,"<div style=""font-size:100px;"">+</div>",,delaylearn,learning,ITI,NGNuEau595V5JttzXFtsMnje45B2,NGNuEau595V5JttzXFtsMnje45B2,,,,,,,,,,,,,,,,,,,1719.0,,,5ee91ec1ef56832aa7947169,16:51:18,27/03/2024
html-keyboard-response,24,49947,0.0-11.0-0.0,2428.0,"<div style=""display: flex; flex-direction: column; align-items: center; margin-top: -40px;""><img src=""images/demo_images/pattern_1.png"" style=""width: 234px; height: 230px; margin-top: -50px;""><div style=""display: flex; justify-content: space-between; margin-top: 33px;""><img src=""images/demo_images/choice_trial_2.png"" style=""width: 408px; height: 417px; margin-right: 200px;""><img src=""images/demo_images/choice_trial_1.png"" style=""width: 408px; height: 417px;""></div></div>",f,delaylearn,learning,trial,NGNuEau595V5JttzXFtsMnje45B2,NGNuEau595V5JttzXFtsMnje45B2,3.0,images/demo_images/choice_trial_2.png,images/demo_images/choice_trial_1.png,images/demo_images/pattern_1.png,j,j,3000.0,2.0,1.0,20.0,1.0,5.0,0.0,0.0,2.0,10.0,,,,,,5ee91ec1ef56832aa7947169,16:51:18,27/03/2024
html-keyboard-response,25,50962,0.0-11.0-1.0,,"<div style=""display: flex; flex-direction: column; align-items: center; margin-top: -40px;""><img src=""images/demo_images/pattern_1.png"" style=""width: 234px; height: 230px; margin-top: -50px;""><div style=""display: flex; justify-content: space-between; margin-top: 33px;""><img src=""images/demo_images/choice_trial_2.png"" style=""width: 408px; height: 417px; margin-right: 608px;""></div></div>",,delaylearn,learning,display_response,NGNuEau595V5JttzXFtsMnje45B2,NGNuEau595V5JttzXFtsMnje45B2,,,,,,,,,,,,,,,,,chosen stimuli: images/demo_images/choice_trial_2.png,,,,,5ee91ec1ef56832aa7947169,16:51:18,27/03/2024
html-keyboard-response,26,53964,0.0-11.0-2.0,,,,delaylearn,learning,feedback_duration_window,NGNuEau595V5JttzXFtsMnje45B2,NGNuEau595V5JttzXFtsMnje45B2,,,,,,,,,,,,,,,,,,3000.0,,,,5ee91ec1ef56832aa7947169,16:51:18,27/03/2024
html-keyboard-response,27,55467,0.0-11.0-3.0,,<div style='margin:auto;width: auto; font-size: 150%'><span style='font-weight: bold; font-size: 100px; color: red;'>0 points!</span><br><br></div>,,delaylearn,learning,feedback_image_window,NGNuEau595V5JttzXFtsMnje45B2,NGNuEau595V5JttzXFtsMnje45B2,,,,,,,,,,,,,,,,,,,,,,5ee91ec1ef56832aa7947169,16:51:18,27/03/2024
html-keyboard-response,28,57564,0.0-12.0,,"<div style=""font-size:100px;"">+</div>",,delaylearn,learning,ITI,NGNuEau595V5JttzXFtsMnje45B2,NGNuEau595V5JttzXFtsMnje45B2,,,,,,,,,,,,,,,,,,,2077.0,,,5ee91ec1ef56832aa7947169,16:51:18,27/03/2024
html-keyboard-response,29,59285,0.0-13.0-0.0,1719.1000000005588,"<div style=""display: flex; flex-direction: column; align-items: center; margin-top: -40px;""><img src=""images/demo_images/pattern_1.png"" style=""width: 234px; height: 230px; margin-top: -50px;""><div style=""display: flex; justify-content: space-between; margin-top: 33px;""><img src=""images/demo_images/choice_trial_1.png"" style=""width: 408px; height: 417px; margin-right: 200px;""><img src=""images/demo_images/choice_trial_2.png"" style=""width: 408px; height: 417px;""></div></div>",f,delaylearn,learning,trial,NGNuEau595V5JttzXFtsMnje45B2,NGNuEau595V5JttzXFtsMnje45B2,3.0,images/demo_images/choice_trial_1.png,images/demo_images/choice_trial_2.png,images/demo_images/pattern_1.png,f,f,3000.0,1.0,2.0,20.0,0.0,6.0,1.0,1.0,1.0,20.0,,,,,,5ee91ec1ef56832aa7947169,16:51:18,27/03/2024
html-keyboard-response,30,60288,0.0-13.0-1.0,,"<div style=""display: flex; flex-direction: column; align-items: center; margin-top: -40px;""><img src=""images/demo_images/pattern_1.png"" style=""width: 234px; height: 230px; margin-top: -50px;""><div style=""display: flex; justify-content: space-between; margin-top: 33px;""><img src=""images/demo_images/choice_trial_1.png"" style=""width: 408px; height: 417px; margin-right: 608px;""></div></div>",,delaylearn,learning,display_response,NGNuEau595V5JttzXFtsMnje45B2,NGNuEau595V5JttzXFtsMnje45B2,,,,,,,,,,,,,,,,,chosen stimuli: images/demo_images/choice_trial_1.png,,,,,5ee91ec1ef56832aa7947169,16:51:18,27/03/2024
html-keyboard-response,31,63304,0.0-13.0-2.0,,,,delaylearn,learning,feedback_duration_window,NGNuEau595V5JttzXFtsMnje45B2,NGNuEau595V5JttzXFtsMnje45B2,,,,,,,,,,,,,,,,,,3000.0,,,,5ee91ec1ef56832aa7947169,16:51:18,27/03/2024
html-keyboard-response,32,64810,0.0-13.0-3.0,,<div style='margin:auto;width: auto; font-size: 150%'><span style='font-weight: bold; font-size: 100px; color: green;'>+10 points!</span><br><br></div>,,delaylearn,learning,feedback_image_window,NGNuEau595V5JttzXFtsMnje45B2,NGNuEau595V5JttzXFtsMnje45B2,,,,,,,,,,,,,,,,,,,,,,5ee91ec1ef56832aa7947169,16:51:18,27/03/2024
html-keyboard-response,33,66604,0.0-14.0,,"<div style=""font-size:100px;"">+</div>",,delaylearn,learning,ITI,NGNuEau595V5JttzXFtsMnje45B2,NGNuEau595V5JttzXFtsMnje45B2,,,,,,,,,,,,,,,,,,,1792.0,,,5ee91ec1ef56832aa7947169,16:51:18,27/03/2024
html-keyboard-response,34,67774,0.0-15.0-0.0,1167.3999999994412,"<div style=""display: flex; flex-direction: column; align-items: center; margin-top: -40px;""><img src=""images/demo_images/pattern_1.png"" style=""width: 234px; height: 230px; margin-top: -50px;""><div style=""display: flex; justify-content: space-between; margin-top: 33px;""><img src=""images/demo_images/choice_trial_2.png"" style=""width: 408px; height: 417px; margin-right: 200px;""><img src=""images/demo_images/choice_trial_1.png"" style=""width: 408px; height: 417px;""></div></div>",j,delaylearn,learning,trial,NGNuEau595V5JttzXFtsMnje45B2,NGNuEau595V5JttzXFtsMnje45B2,3.0,images/demo_images/choice_trial_2.png,images/demo_images/choice_trial_1.png,images/demo_images/pattern_1.png,j,j,3000.0,2.0,1.0,20.0,1.0,7.0,1.0,1.0,1.0,30.0,,,,,,5ee91ec1ef56832aa7947169,16:51:18,27/03/2024
html-keyboard-response,35,68788,0.0-15.0-1.0,,"<div style=""display: flex; flex-direction: column; align-items: center; margin-top: -40px;""><img src=""images/demo_images/pattern_1.png"" style=""width: 234px; height: 230px; margin-top: -50px;""><div style=""display: flex; justify-content: space-between; margin-top: 33px;""><img src=""images/demo_images/choice_trial_1.png"" style=""width: 408px; height: 417px; margin-left:608px;""></div></div>",,delaylearn,learning,display_response,NGNuEau595V5JttzXFtsMnje45B2,NGNuEau595V5JttzXFtsMnje45B2,,,,,,,,,,,,,,,,,chosen stimuli: images/demo_images/choice_trial_1.png,,,,,5ee91ec1ef56832aa7947169,16:51:18,27/03/2024
html-keyboard-response,36,71790,0.0-15.0-2.0,,,,delaylearn,learning,feedback_duration_window,NGNuEau595V5JttzXFtsMnje45B2,NGNuEau595V5JttzXFtsMnje45B2,,,,,,,,,,,,,,,,,,3000.0,,,,5ee91ec1ef56832aa7947169,16:51:18,27/03/2024
html-keyboard-response,37,73302,0.0-15.0-3.0,,<div style='margin:auto;width: auto; font-size: 150%'><span style='font-weight: bold; font-size: 100px; color: green;'>+10 points!</span><br><br></div>,,delaylearn,learning,feedback_image_window,NGNuEau595V5JttzXFtsMnje45B2,NGNuEau595V5JttzXFtsMnje45B2,,,,,,,,,,,,,,,,,,,,,,5ee91ec1ef56832aa7947169,16:51:18,27/03/2024
html-keyboard-response,38,75142,0.0-16.0,,"<div style=""font-size:100px;"">+</div>",,delaylearn,learning,ITI,NGNuEau595V5JttzXFtsMnje45B2,NGNuEau595V5JttzXFtsMnje45B2,,,,,,,,,,,,,,,,,,,1832.0,,,5ee91ec1ef56832aa7947169,16:51:18,27/03/2024
html-keyboard-response,39,75798,0.0-17.0-0.0,654.3999999994412,"<div style=""display: flex; flex-direction: column; align-items: center; margin-top: -40px;""><img src=""images/demo_images/pattern_1.png"" style=""width: 234px; height: 230px; margin-top: -50px;""><div style=""display: flex; justify-content: space-between; margin-top: 33px;""><img src=""images/demo_images/choice_trial_1.png"" style=""width: 408px; height: 417px; margin-right: 200px;""><img src=""images/demo_images/choice_trial_2.png"" style=""width: 408px; height: 417px;""></div></div>",f,delaylearn,learning,trial,NGNuEau595V5JttzXFtsMnje45B2,NGNuEau595V5JttzXFtsMnje45B2,3.0,images/demo_images/choice_trial_1.png,images/demo_images/choice_trial_2.png,images/demo_images/pattern_1.png,f,f,3000.0,1.0,2.0,20.0,0.0,8.0,1.0,1.0,1.0,40.0,,,,,,5ee91ec1ef56832aa7947169,16:51:18,27/03/2024
html-keyboard-response,40,76812,0.0-17.0-1.0,,"<div style=""display: flex; flex-direction: column; align-items: center; margin-top: -40px;""><img src=""images/demo_images/pattern_1.png"" style=""width: 234px; height: 230px; margin-top: -50px;""><div style=""display: flex; justify-content: space-between; margin-top: 33px;""><img src=""images/demo_images/choice_trial_1.png"" style=""width: 408px; height: 417px; margin-right: 608px;""></div></div>",,delaylearn,learning,display_response,NGNuEau595V5JttzXFtsMnje45B2,NGNuEau595V5JttzXFtsMnje45B2,,,,,,,,,,,,,,,,,chosen stimuli: images/demo_images/choice_trial_1.png,,,,,5ee91ec1ef56832aa7947169,16:51:18,27/03/2024
html-keyboard-response,41,79828,0.0-17.0-2.0,,,,delaylearn,learning,feedback_duration_window,NGNuEau595V5JttzXFtsMnje45B2,NGNuEau595V5JttzXFtsMnje45B2,,,,,,,,,,,,,,,,,,3000.0,,,,5ee91ec1ef56832aa7947169,16:51:18,27/03/2024
html-keyboard-response,42,81331,0.0-17.0-3.0,,<div style='margin:auto;width: auto; font-size: 150%'><span style='font-weight: bold; font-size: 100px; color: green;'>+10 points!</span><br><br></div>,,delaylearn,learning,feedback_image_window,NGNuEau595V5JttzXFtsMnje45B2,NGNuEau595V5JttzXFtsMnje45B2,,,,,,,,,,,,,,,,,,,,,,5ee91ec1ef56832aa7947169,16:51:18,27/03/2024
html-button-response,43,84393,0.0-18.0,3061.0999999996275,"
  <div style=""display: flex; align-items: center; justify-content: center; height: 80vh;"">
  <div>
          <img src=""images/inst_demo_finish.png"" style=""width: 80vw; height:auto;"">
          <br><br>
      </div>
      <br><br>
  </div>",0,,,,NGNuEau595V5JttzXFtsMnje45B2,,,,,,,,,,,,,,,,,,,,,,,5ee91ec1ef56832aa7947169,16:51:18,27/03/2024
html-keyboard-response,44,90685,0.0-19.0,6290.5,"
  <div style=""display: flex; align-items: center; justify-content: center; height: 80vh;"">
  <div>
          <img src=""images/inst_6.png"" style=""width: 80vw; height:auto;"">
          <br><br>
      </div>
      <br><br>
  </div>",f,,,,NGNuEau595V5JttzXFtsMnje45B2,,,,,,,,,,,,,,,,,,,,,,,5ee91ec1ef56832aa7947169,16:51:18,27/03/2024
html-keyboard-response,45,93699,0.0-20.0,,"<div style=""font-size:100px;"">+</div>",,delaylearn,learning,pre_fixation,NGNuEau595V5JttzXFtsMnje45B2,not found,,,,,,,,,,,,,,,,,,,,,,5ee91ec1ef56832aa7947169,16:51:18,27/03/2024
html-keyboard-response,46,95646,0.0-21.0,,"<div style=""font-size:100px;"">+</div>",,delaylearn,learning,ITI,NGNuEau595V5JttzXFtsMnje45B2,NGNuEau595V5JttzXFtsMnje45B2,,,,,,,,,,,,,,,,,,,1939.0,,,5ee91ec1ef56832aa7947169,16:51:18,27/03/2024
html-keyboard-response,47,97578,0.0-22.0-0.0,1930.2999999998137,"<div style=""display: flex; flex-direction: column; align-items: center; margin-top: -40px;""><img src=""images/pattern_3.png"" style=""width: 234px; height: 230px; margin-top: -50px;""><div style=""display: flex; justify-content: space-between; margin-top: 33px;""><img src=""images/choice_trial_13.png"" style=""width: 408px; height: 417px; margin-right: 200px;""><img src=""images/choice_trial_10.png"" style=""width: 408px; height: 417px;""></div></div>",f,delaylearn,learning,trial,NGNuEau595V5JttzXFtsMnje45B2,NGNuEau595V5JttzXFtsMnje45B2,3.0,images/choice_trial_13.png,images/choice_trial_10.png,images/pattern_3.png,f,f,7000.0,13.0,10.0,2.0,0.0,9.0,1.0,1.0,13.0,50.0,,,,,,5ee91ec1ef56832aa7947169,16:51:18,27/03/2024
html-keyboard-response,48,98580,0.0-22.0-1.0,,"<div style=""display: flex; flex-direction: column; align-items: center; margin-top: -40px;""><img src=""images/pattern_3.png"" style=""width: 234px; height: 230px; margin-top: -50px;""><div style=""display: flex; justify-content: space-between; margin-top: 33px;""><img src=""images/choice_trial_13.png"" style=""width: 408px; height: 417px; margin-right: 608px;""></div></div>",,delaylearn,learning,display_response,NGNuEau595V5JttzXFtsMnje45B2,NGNuEau595V5JttzXFtsMnje45B2,,,,,,,,,,,,,,,,,chosen stimuli: images/choice_trial_13.png,,,,,5ee91ec1ef56832aa7947169,16:51:18,27/03/2024
html-keyboard-response,49,105591,0.0-22.0-2.0,,,,delaylearn,learning,feedback_duration_window,NGNuEau595V5JttzXFtsMnje45B2,NGNuEau595V5JttzXFtsMnje45B2,,,,,,,,,,,,,,,,,,7000.0,,,,5ee91ec1ef56832aa7947169,16:51:18,27/03/2024
html-keyboard-response,50,107096,0.0-22.0-3.0,,<div style='margin:auto;width: auto; font-size: 150%'><span style='font-weight: bold; font-size: 100px; color: green;'>+10 points!</span><br><br></div>,,delaylearn,learning,feedback_image_window,NGNuEau595V5JttzXFtsMnje45B2,NGNuEau595V5JttzXFtsMnje45B2,,,,,,,,,,,,,,,,,,,,,,5ee91ec1ef56832aa7947169,16:51:18,27/03/2024
html-keyboard-response,51,108940,0.0-23.0,,"<div style=""font-size:100px;"">+</div>",,delaylearn,learning,ITI,NGNuEau595V5JttzXFtsMnje45B2,NGNuEau595V5JttzXFtsMnje45B2,,,,,,,,,,,,,,,,,,,1837.0,,,5ee91ec1ef56832aa7947169,16:51:18,27/03/2024
html-keyboard-response,52,111038,0.0-24.0-0.0,2096.0999999996275,"<div style=""display: flex; flex-direction: column; align-items: center; margin-top: -40px;""><img src=""images/pattern_7.png"" style=""width: 234px; height: 230px; margin-top: -50px;""><div style=""display: flex; justify-content: space-between; margin-top: 33px;""><img src=""images/choice_trial_12.png"" style=""width: 408px; height: 417px; margin-right: 200px;""><img src=""images/choice_trial_6.png"" style=""width: 408px; height: 417px;""></div></div>",j,delaylearn,learning,trial,NGNuEau595V5JttzXFtsMnje45B2,NGNuEau595V5JttzXFtsMnje45B2,3.0,images/choice_trial_12.png,images/choice_trial_6.png,images/pattern_7.png,j,j,750.0,12.0,6.0,6.0,1.0,10.0,1.0,1.0,6.0,60.0,,,,,,5ee91ec1ef56832aa7947169,16:51:18,27/03/2024
html-keyboard-response,53,112046,0.0-24.0-1.0,,"<div style=""display: flex; flex-direction: column; align-items: center; margin-top: -40px;""><img src=""images/pattern_7.png"" style=""width: 234px; height: 230px; margin-top: -50px;""><div style=""display: flex; justify-content: space-between; margin-top: 33px;""><img src=""images/choice_trial_6.png"" style=""width: 408px; height: 417px; margin-left:608px;""></div></div>",,delaylearn,learning,display_response,NGNuEau595V5JttzXFtsMnje45B2,NGNuEau595V5JttzXFtsMnje45B2,,,,,,,,,,,,,,,,,chosen stimuli: images/choice_trial_6.png,,,,,5ee91ec1ef56832aa7947169,16:51:18,27/03/2024
html-keyboard-response,54,112800,0.0-24.0-2.0,,,,delaylearn,learning,feedback_duration_window,NGNuEau595V5JttzXFtsMnje45B2,NGNuEau595V5JttzXFtsMnje45B2,,,,,,,,,,,,,,,,,,750.0,,,,5ee91ec1ef56832aa7947169,16:51:18,27/03/2024
html-keyboard-response,55,114305,0.0-24.0-3.0,,<div style='margin:auto;width: auto; font-size: 150%'><span style='font-weight: bold; font-size: 100px; color: green;'>+10 points!</span><br><br></div>,,delaylearn,learning,feedback_image_window,NGNuEau595V5JttzXFtsMnje45B2,NGNuEau595V5JttzXFtsMnje45B2,,,,,,,,,,,,,,,,,,,,,,5ee91ec1ef56832aa7947169,16:51:18,27/03/2024
html-keyboard-response,56,116296,0.0-25.0,,"<div style=""font-size:100px;"">+</div>",,delaylearn,learning,ITI,NGNuEau595V5JttzXFtsMnje45B2,NGNuEau595V5JttzXFtsMnje45B2,,,,,,,,,,,,,,,,,,,1986.0,,,5ee91ec1ef56832aa7947169,16:51:18,27/03/2024
html-keyboard-response,57,118857,0.0-26.0-0.0,2558.2000000001863,"<div style=""display: flex; flex-direction: column; align-items: center; margin-top: -40px;""><img src=""images/pattern_4.png"" style=""width: 234px; height: 230px; margin-top: -50px;""><div style=""display: flex; justify-content: space-between; margin-top: 33px;""><img src=""images/choice_trial_15.png"" style=""width: 408px; height: 417px; margin-right: 200px;""><img src=""images/choice_trial_9.png"" style=""width: 408px; height: 417px;""></div></div>",f,delaylearn,learning,trial,NGNuEau595V5JttzXFtsMnje45B2,NGNuEau595V5JttzXFtsMnje45B2,3.0,images/choice_trial_15.png,images/choice_trial_9.png,images/pattern_4.png,f,f,7000.0,15.0,9.0,3.0,0.0,11.0,1.0,1.0,15.0,70.0,,,,,,5ee91ec1ef56832aa7947169,16:51:18,27/03/2024
html-keyboard-response,58,119862,0.0-26.0-1.0,,"<div style=""display: flex; flex-direction: column; align-items: center; margin-top: -40px;""><img src=""images/pattern_4.png"" style=""width: 234px; height: 230px; margin-top: -50px;""><div style=""display: flex; justify-content: space-between; margin-top: 33px;""><img src=""images/choice_trial_15.png"" style=""width: 408px; height: 417px; margin-right: 608px;""></div></div>",,delaylearn,learning,display_response,NGNuEau595V5JttzXFtsMnje45B2,NGNuEau595V5JttzXFtsMnje45B2,,,,,,,,,,,,,,,,,chosen stimuli: images/choice_trial_15.png,,,,,5ee91ec1ef56832aa7947169,16:51:18,27/03/2024
html-keyboard-response,59,126877,0.0-26.0-2.0,,,,delaylearn,learning,feedback_duration_window,NGNuEau595V5JttzXFtsMnje45B2,NGNuEau595V5JttzXFtsMnje45B2,,,,,,,,,,,,,,,,,,7000.0,,,,5ee91ec1ef56832aa7947169,16:51:18,27/03/2024
html-keyboard-response,60,128394,0.0-26.0-3.0,,<div style='margin:auto;width: auto; font-size: 150%'><span style='font-weight: bold; font-size: 100px; color: green;'>+10 points!</span><br><br></div>,,delaylearn,learning,feedback_image_window,NGNuEau595V5JttzXFtsMnje45B2,NGNuEau595V5JttzXFtsMnje45B2,,,,,,,,,,,,,,,,,,,,,,5ee91ec1ef56832aa7947169,16:51:18,27/03/2024
html-keyboard-response,61,130077,0.0-27.0,,"<div style=""font-size:100px;"">+</div>",,delaylearn,learning,ITI,NGNuEau595V5JttzXFtsMnje45B2,NGNuEau595V5JttzXFtsMnje45B2,,,,,,,,,,,,,,,,,,,1667.0,,,5ee91ec1ef56832aa7947169,16:51:18,27/03/2024
html-keyboard-response,62,132569,0.0-28.0-0.0,2491.2000000001863,"<div style=""display: flex; flex-direction: column; align-items: center; margin-top: -40px;""><img src=""images/pattern_5.png"" style=""width: 234px; height: 230px; margin-top: -50px;""><div style=""display: flex; justify-content: space-between; margin-top: 33px;""><img src=""images/choice_trial_2.png"" style=""width: 408px; height: 417px; margin-right: 200px;""><img src=""images/choice_trial_11.png"" style=""width: 408px; height: 417px;""></div></div>",j,delaylearn,learning,trial,NGNuEau595V5JttzXFtsMnje45B2,NGNuEau595V5JttzXFtsMnje45B2,3.0,images/choice_trial_2.png,images/choice_trial_11.png,images/pattern_5.png,j,j,750.0,2.0,11.0,4.0,1.0,12.0,1.0,1.0,11.0,80.0,,,,,,5ee91ec1ef56832aa7947169,16:51:18,27/03/2024
html-keyboard-response,63,133584,0.0-28.0-1.0,,"<div style=""display: flex; flex-direction: column; align-items: center; margin-top: -40px;""><img src=""images/pattern_5.png"" style=""width: 234px; height: 230px; margin-top: -50px;""><div style=""display: flex; justify-content: space-between; margin-top: 33px;""><img src=""images/choice_trial_11.png"" style=""width: 408px; height: 417px; margin-left:608px;""></div></div>",,delaylearn,learning,display_response,NGNuEau595V5JttzXFtsMnje45B2,NGNuEau595V5JttzXFtsMnje45B2,,,,,,,,,,,,,,,,,chosen stimuli: images/choice_trial_11.png,,,,,5ee91ec1ef56832aa7947169,16:51:18,27/03/2024
html-keyboard-response,64,134344,0.0-28.0-2.0,,,,delaylearn,learning,feedback_duration_window,NGNuEau595V5JttzXFtsMnje45B2,NGNuEau595V5JttzXFtsMnje45B2,,,,,,,,,,,,,,,,,,750.0,,,,5ee91ec1ef56832aa7947169,16:51:18,27/03/2024
html-keyboard-response,65,135849,0.0-28.0-3.0,,<div style='margin:auto;width: auto; font-size: 150%'><span style='font-weight: bold; font-size: 100px; color: green;'>+10 points!</span><br><br></div>,,delaylearn,learning,feedback_image_window,NGNuEau595V5JttzXFtsMnje45B2,NGNuEau595V5JttzXFtsMnje45B2,,,,,,,,,,,,,,,,,,,,,,5ee91ec1ef56832aa7947169,16:51:18,27/03/2024
html-keyboard-response,66,137377,0.0-29.0,,"<div style=""font-size:100px;"">+</div>",,delaylearn,learning,ITI,NGNuEau595V5JttzXFtsMnje45B2,NGNuEau595V5JttzXFtsMnje45B2,,,,,,,,,,,,,,,,,,,1513.0,,,5ee91ec1ef56832aa7947169,16:51:18,27/03/2024
html-keyboard-response,67,139873,0.0-30.0-0.0,2494.2999999998137,"<div style=""display: flex; flex-direction: column; align-items: center; margin-top: -40px;""><img src=""images/pattern_6.png"" style=""width: 234px; height: 230px; margin-top: -50px;""><div style=""display: flex; justify-content: space-between; margin-top: 33px;""><img src=""images/choice_trial_16.png"" style=""width: 408px; height: 417px; margin-right: 200px;""><img src=""images/choice_trial_3.png"" style=""width: 408px; height: 417px;""></div></div>",f,delaylearn,learning,trial,NGNuEau595V5JttzXFtsMnje45B2,NGNuEau595V5JttzXFtsMnje45B2,3.0,images/choice_trial_16.png,images/choice_trial_3.png,images/pattern_6.png,j,f,750.0,16.0,3.0,5.0,0.0,13.0,1.0,0.0,16.0,80.0,,,,,,5ee91ec1ef56832aa7947169,16:51:18,27/03/2024
html-keyboard-response,68,140880,0.0-30.0-1.0,,"<div style=""display: flex; flex-direction: column; align-items: center; margin-top: -40px;""><img src=""images/pattern_6.png"" style=""width: 234px; height: 230px; margin-top: -50px;""><div style=""display: flex; justify-content: space-between; margin-top: 33px;""><img src=""images/choice_trial_16.png"" style=""width: 408px; height: 417px; margin-right: 608px;""></div></div>",,delaylearn,learning,display_response,NGNuEau595V5JttzXFtsMnje45B2,NGNuEau595V5JttzXFtsMnje45B2,,,,,,,,,,,,,,,,,chosen stimuli: images/choice_trial_16.png,,,,,5ee91ec1ef56832aa7947169,16:51:18,27/03/2024
html-keyboard-response,69,141641,0.0-30.0-2.0,,,,delaylearn,learning,feedback_duration_window,NGNuEau595V5JttzXFtsMnje45B2,NGNuEau595V5JttzXFtsMnje45B2,,,,,,,,,,,,,,,,,,750.0,,,,5ee91ec1ef56832aa7947169,16:51:18,27/03/2024
html-keyboard-response,70,143157,0.0-30.0-3.0,,<div style='margin:auto;width: auto; font-size: 150%'><span style='font-weight: bold; font-size: 100px; color: red;'>0 points!</span><br><br></div>,,delaylearn,learning,feedback_image_window,NGNuEau595V5JttzXFtsMnje45B2,NGNuEau595V5JttzXFtsMnje45B2,,,,,,,,,,,,,,,,,,,,,,5ee91ec1ef56832aa7947169,16:51:18,27/03/2024
html-keyboard-response,71,143673,0.0-31.0-0.0,,,,,,mood_trial_fixation,NGNuEau595V5JttzXFtsMnje45B2,,,,,,,,,,,,,,,,,,,,,,,5ee91ec1ef56832aa7947169,16:51:18,27/03/2024
lmdlab-html-vas-response,72,148789,0.0-31.0-1.0,4096.0,How happy are you right now?,0.425,delaylearn,learning,mood_trial,NGNuEau595V5JttzXFtsMnje45B2,NGNuEau595V5JttzXFtsMnje45B2,,,,,,,,,,,,,,,,,,,,"['Very unhappy', 'Very happy']",,5ee91ec1ef56832aa7947169,16:51:18,27/03/2024
html-keyboard-response,73,150508,0.0-32.0,,"<div style=""font-size:100px;"">+</div>",,delaylearn,learning,ITI,NGNuEau595V5JttzXFtsMnje45B2,NGNuEau595V5JttzXFtsMnje45B2,,,,,,,,,,,,,,,,,,,1696.0,,,5ee91ec1ef56832aa7947169,16:51:18,27/03/2024
html-keyboard-response,74,153226,0.0-33.0-0.0,2716.2999999998137,"<div style=""display: flex; flex-direction: column; align-items: center; margin-top: -40px;""><img src=""images/pattern_1.png"" style=""width: 234px; height: 230px; margin-top: -50px;""><div style=""display: flex; justify-content: space-between; margin-top: 33px;""><img src=""images/choice_trial_8.png"" style=""width: 408px; height: 417px; margin-right: 200px;""><img src=""images/choice_trial_14.png"" style=""width: 408px; height: 417px;""></div></div>",j,delaylearn,learning,trial,NGNuEau595V5JttzXFtsMnje45B2,NGNuEau595V5JttzXFtsMnje45B2,3.0,images/choice_trial_8.png,images/choice_trial_14.png,images/pattern_1.png,j,j,7000.0,8.0,14.0,1.0,1.0,14.0,1.0,1.0,14.0,90.0,,,,,,5ee91ec1ef56832aa7947169,16:51:18,27/03/2024
html-keyboard-response,75,154238,0.0-33.0-1.0,,"<div style=""display: flex; flex-direction: column; align-items: center; margin-top: -40px;""><img src=""images/pattern_1.png"" style=""width: 234px; height: 230px; margin-top: -50px;""><div style=""display: flex; justify-content: space-between; margin-top: 33px;""><img src=""images/choice_trial_14.png"" style=""width: 408px; height: 417px; margin-left:608px;""></div></div>",,delaylearn,learning,display_response,NGNuEau595V5JttzXFtsMnje45B2,NGNuEau595V5JttzXFtsMnje45B2,,,,,,,,,,,,,,,,,chosen stimuli: images/choice_trial_14.png,,,,,5ee91ec1ef56832aa7947169,16:51:18,27/03/2024
html-keyboard-response,76,161246,0.0-33.0-2.0,,,,delaylearn,learning,feedback_duration_window,NGNuEau595V5JttzXFtsMnje45B2,NGNuEau595V5JttzXFtsMnje45B2,,,,,,,,,,,,,,,,,,7000.0,,,,5ee91ec1ef56832aa7947169,16:51:18,27/03/2024
html-keyboard-response,77,162753,0.0-33.0-3.0,,<div style='margin:auto;width: auto; font-size: 150%'><span style='font-weight: bold; font-size: 100px; color: green;'>+10 points!</span><br><br></div>,,delaylearn,learning,feedback_image_window,NGNuEau595V5JttzXFtsMnje45B2,NGNuEau595V5JttzXFtsMnje45B2,,,,,,,,,,,,,,,,,,,,,,5ee91ec1ef56832aa7947169,16:51:18,27/03/2024
html-keyboard-response,78,164922,0.0-34.0,,"<div style=""font-size:100px;"">+</div>",,delaylearn,learning,ITI,NGNuEau595V5JttzXFtsMnje45B2,NGNuEau595V5JttzXFtsMnje45B2,,,,,,,,,,,,,,,,,,,2159.0,,,5ee91ec1ef56832aa7947169,16:51:18,27/03/2024
html-keyboard-response,79,166515,0.0-35.0-0.0,1592.0,"<div style=""display: flex; flex-direction: column; align-items: center; margin-top: -40px;""><img src=""images/pattern_3.png"" style=""width: 234px; height: 230px; margin-top: -50px;""><div style=""display: flex; justify-content: space-between; margin-top: 33px;""><img src=""images/choice_trial_10.png"" style=""width: 408px; height: 417px; margin-right: 200px;""><img src=""images/choice_trial_13.png"" style=""width: 408px; height: 417px;""></div></div>",j,delaylearn,learning,trial,NGNuEau595V5JttzXFtsMnje45B2,NGNuEau595V5JttzXFtsMnje45B2,3.0,images/choice_trial_10.png,images/choice_trial_13.png,images/pattern_3.png,f,j,7000.0,10.0,13.0,2.0,1.0,15.0,1.0,0.0,13.0,90.0,,,,,,5ee91ec1ef56832aa7947169,16:51:18,27/03/2024
html-keyboard-response,80,167518,0.0-35.0-1.0,,"<div style=""display: flex; flex-direction: column; align-items: center; margin-top: -40px;""><img src=""images/pattern_3.png"" style=""width: 234px; height: 230px; margin-top: -50px;""><div style=""display: flex; justify-content: space-between; margin-top: 33px;""><img src=""images/choice_trial_13.png"" style=""width: 408px; height: 417px; margin-left:608px;""></div></div>",,delaylearn,learning,display_response,NGNuEau595V5JttzXFtsMnje45B2,NGNuEau595V5JttzXFtsMnje45B2,,,,,,,,,,,,,,,,,chosen stimuli: images/choice_trial_13.png,,,,,5ee91ec1ef56832aa7947169,16:51:18,27/03/2024
html-keyboard-response,81,174526,0.0-35.0-2.0,,,,delaylearn,learning,feedback_duration_window,NGNuEau595V5JttzXFtsMnje45B2,NGNuEau595V5JttzXFtsMnje45B2,,,,,,,,,,,,,,,,,,7000.0,,,,5ee91ec1ef56832aa7947169,16:51:18,27/03/2024
html-keyboard-response,82,176032,0.0-35.0-3.0,,<div style='margin:auto;width: auto; font-size: 150%'><span style='font-weight: bold; font-size: 100px; color: red;'>0 points!</span><br><br></div>,,delaylearn,learning,feedback_image_window,NGNuEau595V5JttzXFtsMnje45B2,NGNuEau595V5JttzXFtsMnje45B2,,,,,,,,,,,,,,,,,,,,,,5ee91ec1ef56832aa7947169,16:51:18,27/03/2024
html-keyboard-response,83,178267,0.0-36.0,,"<div style=""font-size:100px;"">+</div>",,delaylearn,learning,ITI,NGNuEau595V5JttzXFtsMnje45B2,NGNuEau595V5JttzXFtsMnje45B2,,,,,,,,,,,,,,,,,,,2226.0,,,5ee91ec1ef56832aa7947169,16:51:18,27/03/2024
html-keyboard-response,84,179966,0.0-37.0-0.0,1696.7999999998137,"<div style=""display: flex; flex-direction: column; align-items: center; margin-top: -40px;""><img src=""images/pattern_5.png"" style=""width: 234px; height: 230px; margin-top: -50px;""><div style=""display: flex; justify-content: space-between; margin-top: 33px;""><img src=""images/choice_trial_11.png"" style=""width: 408px; height: 417px; margin-right: 200px;""><img src=""images/choice_trial_2.png"" style=""width: 408px; height: 417px;""></div></div>",f,delaylearn,learning,trial,NGNuEau595V5JttzXFtsMnje45B2,NGNuEau595V5JttzXFtsMnje45B2,3.0,images/choice_trial_11.png,images/choice_trial_2.png,images/pattern_5.png,f,f,750.0,11.0,2.0,4.0,0.0,16.0,1.0,1.0,11.0,100.0,,,,,,5ee91ec1ef56832aa7947169,16:51:18,27/03/2024
html-keyboard-response,85,180969,0.0-37.0-1.0,,"<div style=""display: flex; flex-direction: column; align-items: center; margin-top: -40px;""><img src=""images/pattern_5.png"" style=""width: 234px; height: 230px; margin-top: -50px;""><div style=""display: flex; justify-content: space-between; margin-top: 33px;""><img src=""images/choice_trial_11.png"" style=""width: 408px; height: 417px; margin-right: 608px;""></div></div>",,delaylearn,learning,display_response,NGNuEau595V5JttzXFtsMnje45B2,NGNuEau595V5JttzXFtsMnje45B2,,,,,,,,,,,,,,,,,chosen stimuli: images/choice_trial_11.png,,,,,5ee91ec1ef56832aa7947169,16:51:18,27/03/2024
html-keyboard-response,86,181735,0.0-37.0-2.0,,,,delaylearn,learning,feedback_duration_window,NGNuEau595V5JttzXFtsMnje45B2,NGNuEau595V5JttzXFtsMnje45B2,,,,,,,,,,,,,,,,,,750.0,,,,5ee91ec1ef56832aa7947169,16:51:18,27/03/2024
html-keyboard-response,87,183241,0.0-37.0-3.0,,<div style='margin:auto;width: auto; font-size: 150%'><span style='font-weight: bold; font-size: 100px; color: green;'>+10 points!</span><br><br></div>,,delaylearn,learning,feedback_image_window,NGNuEau595V5JttzXFtsMnje45B2,NGNuEau595V5JttzXFtsMnje45B2,,,,,,,,,,,,,,,,,,,,,,5ee91ec1ef56832aa7947169,16:51:18,27/03/2024
html-keyboard-response,88,183751,0.0-38.0-0.0,,,,,,mood_trial_fixation,NGNuEau595V5JttzXFtsMnje45B2,,,,,,,,,,,,,,,,,,,,,,,5ee91ec1ef56832aa7947169,16:51:18,27/03/2024
lmdlab-html-vas-response,89,188436,0.0-38.0-1.0,3675.0,How happy are you right now?,0.43333333333333335,delaylearn,learning,mood_trial,NGNuEau595V5JttzXFtsMnje45B2,NGNuEau595V5JttzXFtsMnje45B2,,,,,,,,,,,,,,,,,,,,"['Very unhappy', 'Very happy']",,5ee91ec1ef56832aa7947169,16:51:18,27/03/2024
html-keyboard-response,90,190104,0.0-39.0,,"<div style=""font-size:100px;"">+</div>",,delaylearn,learning,ITI,NGNuEau595V5JttzXFtsMnje45B2,NGNuEau595V5JttzXFtsMnje45B2,,,,,,,,,,,,,,,,,,,1662.0,,,5ee91ec1ef56832aa7947169,16:51:18,27/03/2024
html-keyboard-response,91,192803,0.0-40.0-0.0,2696.2000000001863,"<div style=""display: flex; flex-direction: column; align-items: center; margin-top: -40px;""><img src=""images/pattern_6.png"" style=""width: 234px; height: 230px; margin-top: -50px;""><div style=""display: flex; justify-content: space-between; margin-top: 33px;""><img src=""images/choice_trial_16.png"" style=""width: 408px; height: 417px; margin-right: 200px;""><img src=""images/choice_trial_3.png"" style=""width: 408px; height: 417px;""></div></div>",f,delaylearn,learning,trial,NGNuEau595V5JttzXFtsMnje45B2,NGNuEau595V5JttzXFtsMnje45B2,3.0,images/choice_trial_16.png,images/choice_trial_3.png,images/pattern_6.png,f,f,750.0,16.0,3.0,5.0,0.0,17.0,1.0,1.0,16.0,110.0,,,,,,5ee91ec1ef56832aa7947169,16:51:18,27/03/2024
html-keyboard-response,92,193818,0.0-40.0-1.0,,"<div style=""display: flex; flex-direction: column; align-items: center; margin-top: -40px;""><img src=""images/pattern_6.png"" style=""width: 234px; height: 230px; margin-top: -50px;""><div style=""display: flex; justify-content: space-between; margin-top: 33px;""><img src=""images/choice_trial_16.png"" style=""width: 408px; height: 417px; margin-right: 608px;""></div></div>",,delaylearn,learning,display_response,NGNuEau595V5JttzXFtsMnje45B2,NGNuEau595V5JttzXFtsMnje45B2,,,,,,,,,,,,,,,,,chosen stimuli: images/choice_trial_16.png,,,,,5ee91ec1ef56832aa7947169,16:51:18,27/03/2024
html-keyboard-response,93,194575,0.0-40.0-2.0,,,,delaylearn,learning,feedback_duration_window,NGNuEau595V5JttzXFtsMnje45B2,NGNuEau595V5JttzXFtsMnje45B2,,,,,,,,,,,,,,,,,,750.0,,,,5ee91ec1ef56832aa7947169,16:51:18,27/03/2024
html-keyboard-response,94,196090,0.0-40.0-3.0,,<div style='margin:auto;width: auto; font-size: 150%'><span style='font-weight: bold; font-size: 100px; color: green;'>+10 points!</span><br><br></div>,,delaylearn,learning,feedback_image_window,NGNuEau595V5JttzXFtsMnje45B2,NGNuEau595V5JttzXFtsMnje45B2,,,,,,,,,,,,,,,,,,,,,,5ee91ec1ef56832aa7947169,16:51:18,27/03/2024
html-keyboard-response,95,198530,0.0-41.0,,"<div style=""font-size:100px;"">+</div>",,delaylearn,learning,ITI,NGNuEau595V5JttzXFtsMnje45B2,NGNuEau595V5JttzXFtsMnje45B2,,,,,,,,,,,,,,,,,,,2430.0,,,5ee91ec1ef56832aa7947169,16:51:18,27/03/2024
html-keyboard-response,96,200800,0.0-42.0-0.0,2267.699999999255,"<div style=""display: flex; flex-direction: column; align-items: center; margin-top: -40px;""><img src=""images/pattern_4.png"" style=""width: 234px; height: 230px; margin-top: -50px;""><div style=""display: flex; justify-content: space-between; margin-top: 33px;""><img src=""images/choice_trial_9.png"" style=""width: 408px; height: 417px; margin-right: 200px;""><img src=""images/choice_trial_15.png"" style=""width: 408px; height: 417px;""></div></div>",j,delaylearn,learning,trial,NGNuEau595V5JttzXFtsMnje45B2,NGNuEau595V5JttzXFtsMnje45B2,3.0,images/choice_trial_9.png,images/choice_trial_15.png,images/pattern_4.png,j,j,7000.0,9.0,15.0,3.0,1.0,18.0,1.0,1.0,15.0,120.0,,,,,,5ee91ec1ef56832aa7947169,16:51:18,27/03/2024
html-keyboard-response,97,201802,0.0-42.0-1.0,,"<div style=""display: flex; flex-direction: column; align-items: center; margin-top: -40px;""><img src=""images/pattern_4.png"" style=""width: 234px; height: 230px; margin-top: -50px;""><div style=""display: flex; justify-content: space-between; margin-top: 33px;""><img src=""images/choice_trial_15.png"" style=""width: 408px; height: 417px; margin-left:608px;""></div></div>",,delaylearn,learning,display_response,NGNuEau595V5JttzXFtsMnje45B2,NGNuEau595V5JttzXFtsMnje45B2,,,,,,,,,,,,,,,,,chosen stimuli: images/choice_trial_15.png,,,,,5ee91ec1ef56832aa7947169,16:51:18,27/03/2024
html-keyboard-response,98,208810,0.0-42.0-2.0,,,,delaylearn,learning,feedback_duration_window,NGNuEau595V5JttzXFtsMnje45B2,NGNuEau595V5JttzXFtsMnje45B2,,,,,,,,,,,,,,,,,,7000.0,,,,5ee91ec1ef56832aa7947169,16:51:18,27/03/2024
html-keyboard-response,99,210332,0.0-42.0-3.0,,<div style='margin:auto;width: auto; font-size: 150%'><span style='font-weight: bold; font-size: 100px; color: green;'>+10 points!</span><br><br></div>,,delaylearn,learning,feedback_image_window,NGNuEau595V5JttzXFtsMnje45B2,NGNuEau595V5JttzXFtsMnje45B2,,,,,,,,,,,,,,,,,,,,,,5ee91ec1ef56832aa7947169,16:51:18,27/03/2024
html-keyboard-response,100,212246,0.0-43.0,,"<div style=""font-size:100px;"">+</div>",,delaylearn,learning,ITI,NGNuEau595V5JttzXFtsMnje45B2,NGNuEau595V5JttzXFtsMnje45B2,,,,,,,,,,,,,,,,,,,1899.0,,,5ee91ec1ef56832aa7947169,16:51:18,27/03/2024
html-keyboard-response,101,213302,0.0-44.0-0.0,1054.199999999255,"<div style=""display: flex; flex-direction: column; align-items: center; margin-top: -40px;""><img src=""images/pattern_7.png"" style=""width: 234px; height: 230px; margin-top: -50px;""><div style=""display: flex; justify-content: space-between; margin-top: 33px;""><img src=""images/choice_trial_6.png"" style=""width: 408px; height: 417px; margin-right: 200px;""><img src=""images/choice_trial_12.png"" style=""width: 408px; height: 417px;""></div></div>",f,delaylearn,learning,trial,NGNuEau595V5JttzXFtsMnje45B2,NGNuEau595V5JttzXFtsMnje45B2,3.0,images/choice_trial_6.png,images/choice_trial_12.png,images/pattern_7.png,j,f,750.0,6.0,12.0,6.0,0.0,19.0,1.0,0.0,6.0,120.0,,,,,,5ee91ec1ef56832aa7947169,16:51:18,27/03/2024
html-keyboard-response,102,214312,0.0-44.0-1.0,,"<div style=""display: flex; flex-direction: column; align-items: center; margin-top: -40px;""><img src=""images/pattern_7.png"" style=""width: 234px; height: 230px; margin-top: -50px;""><div style=""display: flex; justify-content: space-between; margin-top: 33px;""><img src=""images/choice_trial_6.png"" style=""width: 408px; height: 417px; margin-right: 608px;""></div></div>",,delaylearn,learning,display_response,NGNuEau595V5JttzXFtsMnje45B2,NGNuEau595V5JttzXFtsMnje45B2,,,,,,,,,,,,,,,,,chosen stimuli: images/choice_trial_6.png,,,,,5ee91ec1ef56832aa7947169,16:51:18,27/03/2024
html-keyboard-response,103,215075,0.0-44.0-2.0,,,,delaylearn,learning,feedback_duration_window,NGNuEau595V5JttzXFtsMnje45B2,NGNuEau595V5JttzXFtsMnje45B2,,,,,,,,,,,,,,,,,,750.0,,,,5ee91ec1ef56832aa7947169,16:51:18,27/03/2024
html-keyboard-response,104,216580,0.0-44.0-3.0,,<div style='margin:auto;width: auto; font-size: 150%'><span style='font-weight: bold; font-size: 100px; color: red;'>0 points!</span><br><br></div>,,delaylearn,learning,feedback_image_window,NGNuEau595V5JttzXFtsMnje45B2,NGNuEau595V5JttzXFtsMnje45B2,,,,,,,,,,,,,,,,,,,,,,5ee91ec1ef56832aa7947169,16:51:18,27/03/2024
html-keyboard-response,105,218723,0.0-45.0,,"<div style=""font-size:100px;"">+</div>",,delaylearn,learning,ITI,NGNuEau595V5JttzXFtsMnje45B2,NGNuEau595V5JttzXFtsMnje45B2,,,,,,,,,,,,,,,,,,,2136.0,,,5ee91ec1ef56832aa7947169,16:51:18,27/03/2024
html-keyboard-response,106,221735,0.0-46.0-0.0,,"<div style=""display: flex; flex-direction: column; align-items: center; margin-top: -40px;""><img src=""images/pattern_1.png"" style=""width: 234px; height: 230px; margin-top: -50px;""><div style=""display: flex; justify-content: space-between; margin-top: 33px;""><img src=""images/choice_trial_14.png"" style=""width: 408px; height: 417px; margin-right: 200px;""><img src=""images/choice_trial_8.png"" style=""width: 408px; height: 417px;""></div></div>",,delaylearn,learning,trial,NGNuEau595V5JttzXFtsMnje45B2,NGNuEau595V5JttzXFtsMnje45B2,3.0,images/choice_trial_14.png,images/choice_trial_8.png,images/pattern_1.png,f,f,7000.0,14.0,8.0,1.0,0.0,20.0,0.0,0.0,0.0,120.0,,,,,,5ee91ec1ef56832aa7947169,16:51:18,27/03/2024
html-keyboard-response,107,222739,0.0-46.0-1.0,,<div style='font-weight: bold; font-size: 75px; color: red;'>Missed Trial <br><br><br><br> Please respond faster</div>,,delaylearn,learning,display_response,NGNuEau595V5JttzXFtsMnje45B2,NGNuEau595V5JttzXFtsMnje45B2,,,,,,,,,,,,,,,,,Missed trial,,,,,5ee91ec1ef56832aa7947169,16:51:18,27/03/2024
html-keyboard-response,108,222744,0.0-46.0-2.0,,,,delaylearn,learning,feedback_duration_window,NGNuEau595V5JttzXFtsMnje45B2,NGNuEau595V5JttzXFtsMnje45B2,,,,,,,,,,,,,,,,,,0.0,,,,5ee91ec1ef56832aa7947169,16:51:18,27/03/2024
html-keyboard-response,109,222750,0.0-46.0-3.0,,,,delaylearn,learning,feedback_image_window,NGNuEau595V5JttzXFtsMnje45B2,NGNuEau595V5JttzXFtsMnje45B2,,,,,,,,,,,,,,,,,,,,,,5ee91ec1ef56832aa7947169,16:51:18,27/03/2024
html-keyboard-response,110,225094,0.0-47.0,,"<div style=""font-size:100px;"">+</div>",,delaylearn,learning,ITI,NGNuEau595V5JttzXFtsMnje45B2,NGNuEau595V5JttzXFtsMnje45B2,,,,,,,,,,,,,,,,,,,2335.0,,,5ee91ec1ef56832aa7947169,16:51:18,27/03/2024
html-keyboard-response,111,226707,0.0-48.0-0.0,1610.5999999996275,"<div style=""display: flex; flex-direction: column; align-items: center; margin-top: -40px;""><img src=""images/pattern_6.png"" style=""width: 234px; height: 230px; margin-top: -50px;""><div style=""display: flex; justify-content: space-between; margin-top: 33px;""><img src=""images/choice_trial_3.png"" style=""width: 408px; height: 417px; margin-right: 200px;""><img src=""images/choice_trial_16.png"" style=""width: 408px; height: 417px;""></div></div>",j,delaylearn,learning,trial,NGNuEau595V5JttzXFtsMnje45B2,NGNuEau595V5JttzXFtsMnje45B2,3.0,images/choice_trial_3.png,images/choice_trial_16.png,images/pattern_6.png,j,j,750.0,3.0,16.0,5.0,1.0,21.0,1.0,1.0,16.0,130.0,,,,,,5ee91ec1ef56832aa7947169,16:51:18,27/03/2024
html-keyboard-response,112,227711,0.0-48.0-1.0,,"<div style=""display: flex; flex-direction: column; align-items: center; margin-top: -40px;""><img src=""images/pattern_6.png"" style=""width: 234px; height: 230px; margin-top: -50px;""><div style=""display: flex; justify-content: space-between; margin-top: 33px;""><img src=""images/choice_trial_16.png"" style=""width: 408px; height: 417px; margin-left:608px;""></div></div>",,delaylearn,learning,display_response,NGNuEau595V5JttzXFtsMnje45B2,NGNuEau595V5JttzXFtsMnje45B2,,,,,,,,,,,,,,,,,chosen stimuli: images/choice_trial_16.png,,,,,5ee91ec1ef56832aa7947169,16:51:18,27/03/2024
html-keyboard-response,113,228471,0.0-48.0-2.0,,,,delaylearn,learning,feedback_duration_window,NGNuEau595V5JttzXFtsMnje45B2,NGNuEau595V5JttzXFtsMnje45B2,,,,,,,,,,,,,,,,,,750.0,,,,5ee91ec1ef56832aa7947169,16:51:18,27/03/2024
html-keyboard-response,114,229986,0.0-48.0-3.0,,<div style='margin:auto;width: auto; font-size: 150%'><span style='font-weight: bold; font-size: 100px; color: green;'>+10 points!</span><br><br></div>,,delaylearn,learning,feedback_image_window,NGNuEau595V5JttzXFtsMnje45B2,NGNuEau595V5JttzXFtsMnje45B2,,,,,,,,,,,,,,,,,,,,,,5ee91ec1ef56832aa7947169,16:51:18,27/03/2024
html-keyboard-response,115,232026,0.0-49.0,,"<div style=""font-size:100px;"">+</div>",,delaylearn,learning,ITI,NGNuEau595V5JttzXFtsMnje45B2,NGNuEau595V5JttzXFtsMnje45B2,,,,,,,,,,,,,,,,,,,2031.0,,,5ee91ec1ef56832aa7947169,16:51:18,27/03/2024
html-keyboard-response,116,232931,0.0-50.0-0.0,903.2000000001863,"<div style=""display: flex; flex-direction: column; align-items: center; margin-top: -40px;""><img src=""images/pattern_4.png"" style=""width: 234px; height: 230px; margin-top: -50px;""><div style=""display: flex; justify-content: space-between; margin-top: 33px;""><img src=""images/choice_trial_15.png"" style=""width: 408px; height: 417px; margin-right: 200px;""><img src=""images/choice_trial_9.png"" style=""width: 408px; height: 417px;""></div></div>",f,delaylearn,learning,trial,NGNuEau595V5JttzXFtsMnje45B2,NGNuEau595V5JttzXFtsMnje45B2,3.0,images/choice_trial_15.png,images/choice_trial_9.png,images/pattern_4.png,f,f,7000.0,15.0,9.0,3.0,0.0,22.0,1.0,1.0,15.0,140.0,,,,,,5ee91ec1ef56832aa7947169,16:51:18,27/03/2024
html-keyboard-response,117,233935,0.0-50.0-1.0,,"<div style=""display: flex; flex-direction: column; align-items: center; margin-top: -40px;""><img src=""images/pattern_4.png"" style=""width: 234px; height: 230px; margin-top: -50px;""><div style=""display: flex; justify-content: space-between; margin-top: 33px;""><img src=""images/choice_trial_15.png"" style=""width: 408px; height: 417px; margin-right: 608px;""></div></div>",,delaylearn,learning,display_response,NGNuEau595V5JttzXFtsMnje45B2,NGNuEau595V5JttzXFtsMnje45B2,,,,,,,,,,,,,,,,,chosen stimuli: images/choice_trial_15.png,,,,,5ee91ec1ef56832aa7947169,16:51:18,27/03/2024
html-keyboard-response,118,240947,0.0-50.0-2.0,,,,delaylearn,learning,feedback_duration_window,NGNuEau595V5JttzXFtsMnje45B2,NGNuEau595V5JttzXFtsMnje45B2,,,,,,,,,,,,,,,,,,7000.0,,,,5ee91ec1ef56832aa7947169,16:51:18,27/03/2024
html-keyboard-response,119,242450,0.0-50.0-3.0,,<div style='margin:auto;width: auto; font-size: 150%'><span style='font-weight: bold; font-size: 100px; color: green;'>+10 points!</span><br><br></div>,,delaylearn,learning,feedback_image_window,NGNuEau595V5JttzXFtsMnje45B2,NGNuEau595V5JttzXFtsMnje45B2,,,,,,,,,,,,,,,,,,,,,,5ee91ec1ef56832aa7947169,16:51:18,27/03/2024
html-keyboard-response,120,242966,0.0-51.0-0.0,,,,,,mood_trial_fixation,NGNuEau595V5JttzXFtsMnje45B2,,,,,,,,,,,,,,,,,,,,,,,5ee91ec1ef56832aa7947169,16:51:18,27/03/2024
lmdlab-html-vas-response,121,248470,0.0-51.0-1.0,4491.0,How happy are you right now?,0.45416666666666666,delaylearn,learning,mood_trial,NGNuEau595V5JttzXFtsMnje45B2,NGNuEau595V5JttzXFtsMnje45B2,,,,,,,,,,,,,,,,,,,,"['Very unhappy', 'Very happy']",,5ee91ec1ef56832aa7947169,16:51:18,27/03/2024
html-keyboard-response,122,250124,0.0-52.0,,"<div style=""font-size:100px;"">+</div>",,delaylearn,learning,ITI,NGNuEau595V5JttzXFtsMnje45B2,NGNuEau595V5JttzXFtsMnje45B2,,,,,,,,,,,,,,,,,,,1648.0,,,5ee91ec1ef56832aa7947169,16:51:18,27/03/2024
html-keyboard-response,123,252281,0.0-53.0-0.0,2154.5,"<div style=""display: flex; flex-direction: column; align-items: center; margin-top: -40px;""><img src=""images/pattern_7.png"" style=""width: 234px; height: 230px; margin-top: -50px;""><div style=""display: flex; justify-content: space-between; margin-top: 33px;""><img src=""images/choice_trial_12.png"" style=""width: 408px; height: 417px; margin-right: 200px;""><img src=""images/choice_trial_6.png"" style=""width: 408px; height: 417px;""></div></div>",j,delaylearn,learning,trial,NGNuEau595V5JttzXFtsMnje45B2,NGNuEau595V5JttzXFtsMnje45B2,3.0,images/choice_trial_12.png,images/choice_trial_6.png,images/pattern_7.png,j,j,750.0,12.0,6.0,6.0,1.0,23.0,1.0,1.0,6.0,150.0,,,,,,5ee91ec1ef56832aa7947169,16:51:18,27/03/2024
html-keyboard-response,124,253290,0.0-53.0-1.0,,"<div style=""display: flex; flex-direction: column; align-items: center; margin-top: -40px;""><img src=""images/pattern_7.png"" style=""width: 234px; height: 230px; margin-top: -50px;""><div style=""display: flex; justify-content: space-between; margin-top: 33px;""><img src=""images/choice_trial_6.png"" style=""width: 408px; height: 417px; margin-left:608px;""></div></div>",,delaylearn,learning,display_response,NGNuEau595V5JttzXFtsMnje45B2,NGNuEau595V5JttzXFtsMnje45B2,,,,,,,,,,,,,,,,,chosen stimuli: images/choice_trial_6.png,,,,,5ee91ec1ef56832aa7947169,16:51:18,27/03/2024
html-keyboard-response,125,254043,0.0-53.0-2.0,,,,delaylearn,learning,feedback_duration_window,NGNuEau595V5JttzXFtsMnje45B2,NGNuEau595V5JttzXFtsMnje45B2,,,,,,,,,,,,,,,,,,750.0,,,,5ee91ec1ef56832aa7947169,16:51:18,27/03/2024
html-keyboard-response,126,255550,0.0-53.0-3.0,,<div style='margin:auto;width: auto; font-size: 150%'><span style='font-weight: bold; font-size: 100px; color: green;'>+10 points!</span><br><br></div>,,delaylearn,learning,feedback_image_window,NGNuEau595V5JttzXFtsMnje45B2,NGNuEau595V5JttzXFtsMnje45B2,,,,,,,,,,,,,,,,,,,,,,5ee91ec1ef56832aa7947169,16:51:18,27/03/2024
html-keyboard-response,127,257187,0.0-54.0,,"<div style=""font-size:100px;"">+</div>",,delaylearn,learning,ITI,NGNuEau595V5JttzXFtsMnje45B2,NGNuEau595V5JttzXFtsMnje45B2,,,,,,,,,,,,,,,,,,,1634.0,,,5ee91ec1ef56832aa7947169,16:51:18,27/03/2024
html-keyboard-response,128,259909,0.0-55.0-0.0,2719.600000000559,"<div style=""display: flex; flex-direction: column; align-items: center; margin-top: -40px;""><img src=""images/pattern_1.png"" style=""width: 234px; height: 230px; margin-top: -50px;""><div style=""display: flex; justify-content: space-between; margin-top: 33px;""><img src=""images/choice_trial_8.png"" style=""width: 408px; height: 417px; margin-right: 200px;""><img src=""images/choice_trial_14.png"" style=""width: 408px; height: 417px;""></div></div>",j,delaylearn,learning,trial,NGNuEau595V5JttzXFtsMnje45B2,NGNuEau595V5JttzXFtsMnje45B2,3.0,images/choice_trial_8.png,images/choice_trial_14.png,images/pattern_1.png,f,j,7000.0,8.0,14.0,1.0,1.0,24.0,1.0,0.0,14.0,150.0,,,,,,5ee91ec1ef56832aa7947169,16:51:18,27/03/2024
html-keyboard-response,129,260922,0.0-55.0-1.0,,"<div style=""display: flex; flex-direction: column; align-items: center; margin-top: -40px;""><img src=""images/pattern_1.png"" style=""width: 234px; height: 230px; margin-top: -50px;""><div style=""display: flex; justify-content: space-between; margin-top: 33px;""><img src=""images/choice_trial_14.png"" style=""width: 408px; height: 417px; margin-left:608px;""></div></div>",,delaylearn,learning,display_response,NGNuEau595V5JttzXFtsMnje45B2,NGNuEau595V5JttzXFtsMnje45B2,,,,,,,,,,,,,,,,,chosen stimuli: images/choice_trial_14.png,,,,,5ee91ec1ef56832aa7947169,16:51:18,27/03/2024
html-keyboard-response,130,267926,0.0-55.0-2.0,,,,delaylearn,learning,feedback_duration_window,NGNuEau595V5JttzXFtsMnje45B2,NGNuEau595V5JttzXFtsMnje45B2,,,,,,,,,,,,,,,,,,7000.0,,,,5ee91ec1ef56832aa7947169,16:51:18,27/03/2024
html-keyboard-response,131,269430,0.0-55.0-3.0,,<div style='margin:auto;width: auto; font-size: 150%'><span style='font-weight: bold; font-size: 100px; color: red;'>0 points!</span><br><br></div>,,delaylearn,learning,feedback_image_window,NGNuEau595V5JttzXFtsMnje45B2,NGNuEau595V5JttzXFtsMnje45B2,,,,,,,,,,,,,,,,,,,,,,5ee91ec1ef56832aa7947169,16:51:18,27/03/2024
html-keyboard-response,132,270950,0.0-56.0,,"<div style=""font-size:100px;"">+</div>",,delaylearn,learning,ITI,NGNuEau595V5JttzXFtsMnje45B2,NGNuEau595V5JttzXFtsMnje45B2,,,,,,,,,,,,,,,,,,,1507.0,,,5ee91ec1ef56832aa7947169,16:51:18,27/03/2024
html-keyboard-response,133,272794,0.0-57.0-0.0,1841.2000000001863,"<div style=""display: flex; flex-direction: column; align-items: center; margin-top: -40px;""><img src=""images/pattern_5.png"" style=""width: 234px; height: 230px; margin-top: -50px;""><div style=""display: flex; justify-content: space-between; margin-top: 33px;""><img src=""images/choice_trial_2.png"" style=""width: 408px; height: 417px; margin-right: 200px;""><img src=""images/choice_trial_11.png"" style=""width: 408px; height: 417px;""></div></div>",j,delaylearn,learning,trial,NGNuEau595V5JttzXFtsMnje45B2,NGNuEau595V5JttzXFtsMnje45B2,3.0,images/choice_trial_2.png,images/choice_trial_11.png,images/pattern_5.png,j,j,750.0,2.0,11.0,4.0,1.0,25.0,1.0,1.0,11.0,160.0,,,,,,5ee91ec1ef56832aa7947169,16:51:18,27/03/2024
html-keyboard-response,134,273797,0.0-57.0-1.0,,"<div style=""display: flex; flex-direction: column; align-items: center; margin-top: -40px;""><img src=""images/pattern_5.png"" style=""width: 234px; height: 230px; margin-top: -50px;""><div style=""display: flex; justify-content: space-between; margin-top: 33px;""><img src=""images/choice_trial_11.png"" style=""width: 408px; height: 417px; margin-left:608px;""></div></div>",,delaylearn,learning,display_response,NGNuEau595V5JttzXFtsMnje45B2,NGNuEau595V5JttzXFtsMnje45B2,,,,,,,,,,,,,,,,,chosen stimuli: images/choice_trial_11.png,,,,,5ee91ec1ef56832aa7947169,16:51:18,27/03/2024
html-keyboard-response,135,274563,0.0-57.0-2.0,,,,delaylearn,learning,feedback_duration_window,NGNuEau595V5JttzXFtsMnje45B2,NGNuEau595V5JttzXFtsMnje45B2,,,,,,,,,,,,,,,,,,750.0,,,,5ee91ec1ef56832aa7947169,16:51:18,27/03/2024
html-keyboard-response,136,276073,0.0-57.0-3.0,,<div style='margin:auto;width: auto; font-size: 150%'><span style='font-weight: bold; font-size: 100px; color: green;'>+10 points!</span><br><br></div>,,delaylearn,learning,feedback_image_window,NGNuEau595V5JttzXFtsMnje45B2,NGNuEau595V5JttzXFtsMnje45B2,,,,,,,,,,,,,,,,,,,,,,5ee91ec1ef56832aa7947169,16:51:18,27/03/2024
html-keyboard-response,137,278122,0.0-58.0,,"<div style=""font-size:100px;"">+</div>",,delaylearn,learning,ITI,NGNuEau595V5JttzXFtsMnje45B2,NGNuEau595V5JttzXFtsMnje45B2,,,,,,,,,,,,,,,,,,,2045.0,,,5ee91ec1ef56832aa7947169,16:51:18,27/03/2024
html-keyboard-response,138,280124,0.0-59.0-0.0,1999.0,"<div style=""display: flex; flex-direction: column; align-items: center; margin-top: -40px;""><img src=""images/pattern_3.png"" style=""width: 234px; height: 230px; margin-top: -50px;""><div style=""display: flex; justify-content: space-between; margin-top: 33px;""><img src=""images/choice_trial_10.png"" style=""width: 408px; height: 417px; margin-right: 200px;""><img src=""images/choice_trial_13.png"" style=""width: 408px; height: 417px;""></div></div>",j,delaylearn,learning,trial,NGNuEau595V5JttzXFtsMnje45B2,NGNuEau595V5JttzXFtsMnje45B2,3.0,images/choice_trial_10.png,images/choice_trial_13.png,images/pattern_3.png,j,j,7000.0,10.0,13.0,2.0,1.0,26.0,1.0,1.0,13.0,170.0,,,,,,5ee91ec1ef56832aa7947169,16:51:18,27/03/2024
html-keyboard-response,139,281140,0.0-59.0-1.0,,"<div style=""display: flex; flex-direction: column; align-items: center; margin-top: -40px;""><img src=""images/pattern_3.png"" style=""width: 234px; height: 230px; margin-top: -50px;""><div style=""display: flex; justify-content: space-between; margin-top: 33px;""><img src=""images/choice_trial_13.png"" style=""width: 408px; height: 417px; margin-left:608px;""></div></div>",,delaylearn,learning,display_response,NGNuEau595V5JttzXFtsMnje45B2,NGNuEau595V5JttzXFtsMnje45B2,,,,,,,,,,,,,,,,,chosen stimuli: images/choice_trial_13.png,,,,,5ee91ec1ef56832aa7947169,16:51:18,27/03/2024
html-keyboard-response,140,288146,0.0-59.0-2.0,,,,delaylearn,learning,feedback_duration_window,NGNuEau595V5JttzXFtsMnje45B2,NGNuEau595V5JttzXFtsMnje45B2,,,,,,,,,,,,,,,,,,7000.0,,,,5ee91ec1ef56832aa7947169,16:51:18,27/03/2024
html-keyboard-response,141,289661,0.0-59.0-3.0,,<div style='margin:auto;width: auto; font-size: 150%'><span style='font-weight: bold; font-size: 100px; color: green;'>+10 points!</span><br><br></div>,,delaylearn,learning,feedback_image_window,NGNuEau595V5JttzXFtsMnje45B2,NGNuEau595V5JttzXFtsMnje45B2,,,,,,,,,,,,,,,,,,,,,,5ee91ec1ef56832aa7947169,16:51:18,27/03/2024
lmdlab-html-vas-response,142,298178,0.0-60.0-0.0,7008.0,*How <b><u>confident</u></b> are you feeling about your answers at this moment?*,0.6458333333333334,rewlearn,rate_confidence,,NGNuEau595V5JttzXFtsMnje45B2,NGNuEau595V5JttzXFtsMnje45B2,,,,,,,,,,,,,,,,,,,,"['No confidence', 'Complete confidence']",,5ee91ec1ef56832aa7947169,16:51:18,27/03/2024
lmdlab-rest-trial-limit,143,549667,0.0-60.0-1.0,249973.7000000002,"<div style=""font-size:40px;""><b>Please take a break!</b><br><br><br><br><p>Great work: you earned 170 points.<br><br><br><p>You have completed part(s) 1 of 5.<br><br><br><br>When you are ready to continue<br><br><br>please click the button.</p><br><br>",0,delaylearn,learning,break,NGNuEau595V5JttzXFtsMnje45B2,NGNuEau595V5JttzXFtsMnje45B2,,,,,,,,,,,,,,,,,,,,,0.0,5ee91ec1ef56832aa7947169,16:51:18,27/03/2024
html-keyboard-response,144,552674,0.0-60.0-2.0,,"<div style=""font-size:100px;"">+</div>",,delaylearn,learning,pre_fixation,NGNuEau595V5JttzXFtsMnje45B2,not found,,,,,,,,,,,,,,,,,,,,,,5ee91ec1ef56832aa7947169,16:51:18,27/03/2024
lmdlab-html-vas-response,145,558320,0.0-60.0-3.0-0.0,4637.0,How happy are you right now?,0.4791666666666667,delaylearn,learning,mood_baseline,NGNuEau595V5JttzXFtsMnje45B2,NGNuEau595V5JttzXFtsMnje45B2,,,,,,,,,,,,,,,,,,,,"['Very unhappy', 'Very happy']",,5ee91ec1ef56832aa7947169,16:51:18,27/03/2024
html-keyboard-response,146,559830,0.0-60.0-3.0-1.0,,,,,,mood_baseline_fixation,NGNuEau595V5JttzXFtsMnje45B2,,,,,,,,,,,,,,,,,,,,,,,5ee91ec1ef56832aa7947169,16:51:18,27/03/2024
html-keyboard-response,147,561812,0.0-61.0,,"<div style=""font-size:100px;"">+</div>",,delaylearn,learning,ITI,NGNuEau595V5JttzXFtsMnje45B2,NGNuEau595V5JttzXFtsMnje45B2,,,,,,,,,,,,,,,,,,,1967.0,,,5ee91ec1ef56832aa7947169,16:51:18,27/03/2024
html-keyboard-response,148,563475,0.0-62.0-0.0,1660.2999999998137,"<div style=""display: flex; flex-direction: column; align-items: center; margin-top: -40px;""><img src=""images/pattern_7.png"" style=""width: 234px; height: 230px; margin-top: -50px;""><div style=""display: flex; justify-content: space-between; margin-top: 33px;""><img src=""images/choice_trial_12.png"" style=""width: 408px; height: 417px; margin-right: 200px;""><img src=""images/choice_trial_6.png"" style=""width: 408px; height: 417px;""></div></div>",j,delaylearn,learning,trial,NGNuEau595V5JttzXFtsMnje45B2,NGNuEau595V5JttzXFtsMnje45B2,3.0,images/choice_trial_12.png,images/choice_trial_6.png,images/pattern_7.png,j,j,750.0,12.0,6.0,6.0,1.0,27.0,1.0,1.0,6.0,180.0,,,,,,5ee91ec1ef56832aa7947169,16:51:18,27/03/2024
html-keyboard-response,149,564478,0.0-62.0-1.0,,"<div style=""display: flex; flex-direction: column; align-items: center; margin-top: -40px;""><img src=""images/pattern_7.png"" style=""width: 234px; height: 230px; margin-top: -50px;""><div style=""display: flex; justify-content: space-between; margin-top: 33px;""><img src=""images/choice_trial_6.png"" style=""width: 408px; height: 417px; margin-left:608px;""></div></div>",,delaylearn,learning,display_response,NGNuEau595V5JttzXFtsMnje45B2,NGNuEau595V5JttzXFtsMnje45B2,,,,,,,,,,,,,,,,,chosen stimuli: images/choice_trial_6.png,,,,,5ee91ec1ef56832aa7947169,16:51:18,27/03/2024
html-keyboard-response,150,565244,0.0-62.0-2.0,,,,delaylearn,learning,feedback_duration_window,NGNuEau595V5JttzXFtsMnje45B2,NGNuEau595V5JttzXFtsMnje45B2,,,,,,,,,,,,,,,,,,750.0,,,,5ee91ec1ef56832aa7947169,16:51:18,27/03/2024
html-keyboard-response,151,566760,0.0-62.0-3.0,,<div style='margin:auto;width: auto; font-size: 150%'><span style='font-weight: bold; font-size: 100px; color: green;'>+10 points!</span><br><br></div>,,delaylearn,learning,feedback_image_window,NGNuEau595V5JttzXFtsMnje45B2,NGNuEau595V5JttzXFtsMnje45B2,,,,,,,,,,,,,,,,,,,,,,5ee91ec1ef56832aa7947169,16:51:18,27/03/2024
html-keyboard-response,152,567277,0.0-63.0-0.0,,,,,,mood_trial_fixation,NGNuEau595V5JttzXFtsMnje45B2,,,,,,,,,,,,,,,,,,,,,,,5ee91ec1ef56832aa7947169,16:51:18,27/03/2024
lmdlab-html-vas-response,153,572665,0.0-63.0-1.0,4367.0,How happy are you right now?,0.4666666666666667,delaylearn,learning,mood_trial,NGNuEau595V5JttzXFtsMnje45B2,NGNuEau595V5JttzXFtsMnje45B2,,,,,,,,,,,,,,,,,,,,"['Very unhappy', 'Very happy']",,5ee91ec1ef56832aa7947169,16:51:18,27/03/2024
html-keyboard-response,154,574491,0.0-64.0,,"<div style=""font-size:100px;"">+</div>",,delaylearn,learning,ITI,NGNuEau595V5JttzXFtsMnje45B2,NGNuEau595V5JttzXFtsMnje45B2,,,,,,,,,,,,,,,,,,,1815.0,,,5ee91ec1ef56832aa7947169,16:51:18,27/03/2024
html-keyboard-response,155,576395,0.0-65.0-0.0,1900.9000000003725,"<div style=""display: flex; flex-direction: column; align-items: center; margin-top: -40px;""><img src=""images/pattern_1.png"" style=""width: 234px; height: 230px; margin-top: -50px;""><div style=""display: flex; justify-content: space-between; margin-top: 33px;""><img src=""images/choice_trial_14.png"" style=""width: 408px; height: 417px; margin-right: 200px;""><img src=""images/choice_trial_8.png"" style=""width: 408px; height: 417px;""></div></div>",f,delaylearn,learning,trial,NGNuEau595V5JttzXFtsMnje45B2,NGNuEau595V5JttzXFtsMnje45B2,3.0,images/choice_trial_14.png,images/choice_trial_8.png,images/pattern_1.png,f,f,7000.0,14.0,8.0,1.0,0.0,28.0,1.0,1.0,14.0,190.0,,,,,,5ee91ec1ef56832aa7947169,16:51:18,27/03/2024
html-keyboard-response,156,577412,0.0-65.0-1.0,,"<div style=""display: flex; flex-direction: column; align-items: center; margin-top: -40px;""><img src=""images/pattern_1.png"" style=""width: 234px; height: 230px; margin-top: -50px;""><div style=""display: flex; justify-content: space-between; margin-top: 33px;""><img src=""images/choice_trial_14.png"" style=""width: 408px; height: 417px; margin-right: 608px;""></div></div>",,delaylearn,learning,display_response,NGNuEau595V5JttzXFtsMnje45B2,NGNuEau595V5JttzXFtsMnje45B2,,,,,,,,,,,,,,,,,chosen stimuli: images/choice_trial_14.png,,,,,5ee91ec1ef56832aa7947169,16:51:18,27/03/2024
html-keyboard-response,157,584422,0.0-65.0-2.0,,,,delaylearn,learning,feedback_duration_window,NGNuEau595V5JttzXFtsMnje45B2,NGNuEau595V5JttzXFtsMnje45B2,,,,,,,,,,,,,,,,,,7000.0,,,,5ee91ec1ef56832aa7947169,16:51:18,27/03/2024
html-keyboard-response,158,585937,0.0-65.0-3.0,,<div style='margin:auto;width: auto; font-size: 150%'><span style='font-weight: bold; font-size: 100px; color: green;'>+10 points!</span><br><br></div>,,delaylearn,learning,feedback_image_window,NGNuEau595V5JttzXFtsMnje45B2,NGNuEau595V5JttzXFtsMnje45B2,,,,,,,,,,,,,,,,,,,,,,5ee91ec1ef56832aa7947169,16:51:18,27/03/2024
html-keyboard-response,159,587470,0.0-66.0,,"<div style=""font-size:100px;"">+</div>",,delaylearn,learning,ITI,NGNuEau595V5JttzXFtsMnje45B2,NGNuEau595V5JttzXFtsMnje45B2,,,,,,,,,,,,,,,,,,,1530.0,,,5ee91ec1ef56832aa7947169,16:51:18,27/03/2024
html-keyboard-response,160,589470,0.0-67.0-0.0,1998.199999999255,"<div style=""display: flex; flex-direction: column; align-items: center; margin-top: -40px;""><img src=""images/pattern_5.png"" style=""width: 234px; height: 230px; margin-top: -50px;""><div style=""display: flex; justify-content: space-between; margin-top: 33px;""><img src=""images/choice_trial_11.png"" style=""width: 408px; height: 417px; margin-right: 200px;""><img src=""images/choice_trial_2.png"" style=""width: 408px; height: 417px;""></div></div>",f,delaylearn,learning,trial,NGNuEau595V5JttzXFtsMnje45B2,NGNuEau595V5JttzXFtsMnje45B2,3.0,images/choice_trial_11.png,images/choice_trial_2.png,images/pattern_5.png,f,f,750.0,11.0,2.0,4.0,0.0,29.0,1.0,1.0,11.0,200.0,,,,,,5ee91ec1ef56832aa7947169,16:51:18,27/03/2024
html-keyboard-response,161,590485,0.0-67.0-1.0,,"<div style=""display: flex; flex-direction: column; align-items: center; margin-top: -40px;""><img src=""images/pattern_5.png"" style=""width: 234px; height: 230px; margin-top: -50px;""><div style=""display: flex; justify-content: space-between; margin-top: 33px;""><img src=""images/choice_trial_11.png"" style=""width: 408px; height: 417px; margin-right: 608px;""></div></div>",,delaylearn,learning,display_response,NGNuEau595V5JttzXFtsMnje45B2,NGNuEau595V5JttzXFtsMnje45B2,,,,,,,,,,,,,,,,,chosen stimuli: images/choice_trial_11.png,,,,,5ee91ec1ef56832aa7947169,16:51:18,27/03/2024
html-keyboard-response,162,591252,0.0-67.0-2.0,,,,delaylearn,learning,feedback_duration_window,NGNuEau595V5JttzXFtsMnje45B2,NGNuEau595V5JttzXFtsMnje45B2,,,,,,,,,,,,,,,,,,750.0,,,,5ee91ec1ef56832aa7947169,16:51:18,27/03/2024
html-keyboard-response,163,592759,0.0-67.0-3.0,,<div style='margin:auto;width: auto; font-size: 150%'><span style='font-weight: bold; font-size: 100px; color: green;'>+10 points!</span><br><br></div>,,delaylearn,learning,feedback_image_window,NGNuEau595V5JttzXFtsMnje45B2,NGNuEau595V5JttzXFtsMnje45B2,,,,,,,,,,,,,,,,,,,,,,5ee91ec1ef56832aa7947169,16:51:18,27/03/2024
html-keyboard-response,164,595040,0.0-68.0,,"<div style=""font-size:100px;"">+</div>",,delaylearn,learning,ITI,NGNuEau595V5JttzXFtsMnje45B2,NGNuEau595V5JttzXFtsMnje45B2,,,,,,,,,,,,,,,,,,,2275.0,,,5ee91ec1ef56832aa7947169,16:51:18,27/03/2024
html-keyboard-response,165,597094,0.0-69.0-0.0,2051.600000000559,"<div style=""display: flex; flex-direction: column; align-items: center; margin-top: -40px;""><img src=""images/pattern_6.png"" style=""width: 234px; height: 230px; margin-top: -50px;""><div style=""display: flex; justify-content: space-between; margin-top: 33px;""><img src=""images/choice_trial_3.png"" style=""width: 408px; height: 417px; margin-right: 200px;""><img src=""images/choice_trial_16.png"" style=""width: 408px; height: 417px;""></div></div>",f,delaylearn,learning,trial,NGNuEau595V5JttzXFtsMnje45B2,NGNuEau595V5JttzXFtsMnje45B2,3.0,images/choice_trial_3.png,images/choice_trial_16.png,images/pattern_6.png,j,j,750.0,3.0,16.0,5.0,1.0,30.0,0.0,0.0,3.0,200.0,,,,,,5ee91ec1ef56832aa7947169,16:51:18,27/03/2024
html-keyboard-response,166,598099,0.0-69.0-1.0,,"<div style=""display: flex; flex-direction: column; align-items: center; margin-top: -40px;""><img src=""images/pattern_6.png"" style=""width: 234px; height: 230px; margin-top: -50px;""><div style=""display: flex; justify-content: space-between; margin-top: 33px;""><img src=""images/choice_trial_3.png"" style=""width: 408px; height: 417px; margin-right: 608px;""></div></div>",,delaylearn,learning,display_response,NGNuEau595V5JttzXFtsMnje45B2,NGNuEau595V5JttzXFtsMnje45B2,,,,,,,,,,,,,,,,,chosen stimuli: images/choice_trial_3.png,,,,,5ee91ec1ef56832aa7947169,16:51:18,27/03/2024
html-keyboard-response,167,598858,0.0-69.0-2.0,,,,delaylearn,learning,feedback_duration_window,NGNuEau595V5JttzXFtsMnje45B2,NGNuEau595V5JttzXFtsMnje45B2,,,,,,,,,,,,,,,,,,750.0,,,,5ee91ec1ef56832aa7947169,16:51:18,27/03/2024
html-keyboard-response,168,600363,0.0-69.0-3.0,,<div style='margin:auto;width: auto; font-size: 150%'><span style='font-weight: bold; font-size: 100px; color: red;'>0 points!</span><br><br></div>,,delaylearn,learning,feedback_image_window,NGNuEau595V5JttzXFtsMnje45B2,NGNuEau595V5JttzXFtsMnje45B2,,,,,,,,,,,,,,,,,,,,,,5ee91ec1ef56832aa7947169,16:51:18,27/03/2024
html-keyboard-response,169,600865,0.0-70.0-0.0,,,,,,mood_trial_fixation,NGNuEau595V5JttzXFtsMnje45B2,,,,,,,,,,,,,,,,,,,,,,,5ee91ec1ef56832aa7947169,16:51:18,27/03/2024
lmdlab-html-vas-response,170,606036,0.0-70.0-1.0,4145.0,How happy are you right now?,0.4583333333333333,delaylearn,learning,mood_trial,NGNuEau595V5JttzXFtsMnje45B2,NGNuEau595V5JttzXFtsMnje45B2,,,,,,,,,,,,,,,,,,,,"['Very unhappy', 'Very happy']",,5ee91ec1ef56832aa7947169,16:51:18,27/03/2024
html-keyboard-response,171,607976,0.0-71.0,,"<div style=""font-size:100px;"">+</div>",,delaylearn,learning,ITI,NGNuEau595V5JttzXFtsMnje45B2,NGNuEau595V5JttzXFtsMnje45B2,,,,,,,,,,,,,,,,,,,1936.0,,,5ee91ec1ef56832aa7947169,16:51:18,27/03/2024
html-keyboard-response,172,609357,0.0-72.0-0.0,1377.7999999998137,"<div style=""display: flex; flex-direction: column; align-items: center; margin-top: -40px;""><img src=""images/pattern_4.png"" style=""width: 234px; height: 230px; margin-top: -50px;""><div style=""display: flex; justify-content: space-between; margin-top: 33px;""><img src=""images/choice_trial_9.png"" style=""width: 408px; height: 417px; margin-right: 200px;""><img src=""images/choice_trial_15.png"" style=""width: 408px; height: 417px;""></div></div>",j,delaylearn,learning,trial,NGNuEau595V5JttzXFtsMnje45B2,NGNuEau595V5JttzXFtsMnje45B2,3.0,images/choice_trial_9.png,images/choice_trial_15.png,images/pattern_4.png,j,j,7000.0,9.0,15.0,3.0,1.0,31.0,1.0,1.0,15.0,210.0,,,,,,5ee91ec1ef56832aa7947169,16:51:18,27/03/2024
html-keyboard-response,173,610364,0.0-72.0-1.0,,"<div style=""display: flex; flex-direction: column; align-items: center; margin-top: -40px;""><img src=""images/pattern_4.png"" style=""width: 234px; height: 230px; margin-top: -50px;""><div style=""display: flex; justify-content: space-between; margin-top: 33px;""><img src=""images/choice_trial_15.png"" style=""width: 408px; height: 417px; margin-left:608px;""></div></div>",,delaylearn,learning,display_response,NGNuEau595V5JttzXFtsMnje45B2,NGNuEau595V5JttzXFtsMnje45B2,,,,,,,,,,,,,,,,,chosen stimuli: images/choice_trial_15.png,,,,,5ee91ec1ef56832aa7947169,16:51:18,27/03/2024
html-keyboard-response,174,617376,0.0-72.0-2.0,,,,delaylearn,learning,feedback_duration_window,NGNuEau595V5JttzXFtsMnje45B2,NGNuEau595V5JttzXFtsMnje45B2,,,,,,,,,,,,,,,,,,7000.0,,,,5ee91ec1ef56832aa7947169,16:51:18,27/03/2024
html-keyboard-response,175,618890,0.0-72.0-3.0,,<div style='margin:auto;width: auto; font-size: 150%'><span style='font-weight: bold; font-size: 100px; color: green;'>+10 points!</span><br><br></div>,,delaylearn,learning,feedback_image_window,NGNuEau595V5JttzXFtsMnje45B2,NGNuEau595V5JttzXFtsMnje45B2,,,,,,,,,,,,,,,,,,,,,,5ee91ec1ef56832aa7947169,16:51:18,27/03/2024
html-keyboard-response,176,621371,0.0-73.0,,"<div style=""font-size:100px;"">+</div>",,delaylearn,learning,ITI,NGNuEau595V5JttzXFtsMnje45B2,NGNuEau595V5JttzXFtsMnje45B2,,,,,,,,,,,,,,,,,,,2468.0,,,5ee91ec1ef56832aa7947169,16:51:18,27/03/2024
html-keyboard-response,177,623439,0.0-74.0-0.0,2064.7999999998137,"<div style=""display: flex; flex-direction: column; align-items: center; margin-top: -40px;""><img src=""images/pattern_3.png"" style=""width: 234px; height: 230px; margin-top: -50px;""><div style=""display: flex; justify-content: space-between; margin-top: 33px;""><img src=""images/choice_trial_10.png"" style=""width: 408px; height: 417px; margin-right: 200px;""><img src=""images/choice_trial_13.png"" style=""width: 408px; height: 417px;""></div></div>",j,delaylearn,learning,trial,NGNuEau595V5JttzXFtsMnje45B2,NGNuEau595V5JttzXFtsMnje45B2,3.0,images/choice_trial_10.png,images/choice_trial_13.png,images/pattern_3.png,j,j,7000.0,10.0,13.0,2.0,1.0,32.0,1.0,1.0,13.0,220.0,,,,,,5ee91ec1ef56832aa7947169,16:51:18,27/03/2024
html-keyboard-response,178,624443,0.0-74.0-1.0,,"<div style=""display: flex; flex-direction: column; align-items: center; margin-top: -40px;""><img src=""images/pattern_3.png"" style=""width: 234px; height: 230px; margin-top: -50px;""><div style=""display: flex; justify-content: space-between; margin-top: 33px;""><img src=""images/choice_trial_13.png"" style=""width: 408px; height: 417px; margin-left:608px;""></div></div>",,delaylearn,learning,display_response,NGNuEau595V5JttzXFtsMnje45B2,NGNuEau595V5JttzXFtsMnje45B2,,,,,,,,,,,,,,,,,chosen stimuli: images/choice_trial_13.png,,,,,5ee91ec1ef56832aa7947169,16:51:18,27/03/2024
html-keyboard-response,179,631452,0.0-74.0-2.0,,,,delaylearn,learning,feedback_duration_window,NGNuEau595V5JttzXFtsMnje45B2,NGNuEau595V5JttzXFtsMnje45B2,,,,,,,,,,,,,,,,,,7000.0,,,,5ee91ec1ef56832aa7947169,16:51:18,27/03/2024
html-keyboard-response,180,632957,0.0-74.0-3.0,,<div style='margin:auto;width: auto; font-size: 150%'><span style='font-weight: bold; font-size: 100px; color: green;'>+10 points!</span><br><br></div>,,delaylearn,learning,feedback_image_window,NGNuEau595V5JttzXFtsMnje45B2,NGNuEau595V5JttzXFtsMnje45B2,,,,,,,,,,,,,,,,,,,,,,5ee91ec1ef56832aa7947169,16:51:18,27/03/2024
html-keyboard-response,181,635033,0.0-75.0,,"<div style=""font-size:100px;"">+</div>",,delaylearn,learning,ITI,NGNuEau595V5JttzXFtsMnje45B2,NGNuEau595V5JttzXFtsMnje45B2,,,,,,,,,,,,,,,,,,,2068.0,,,5ee91ec1ef56832aa7947169,16:51:18,27/03/2024
html-keyboard-response,182,636487,0.0-76.0-0.0,1451.2999999998137,"<div style=""display: flex; flex-direction: column; align-items: center; margin-top: -40px;""><img src=""images/pattern_5.png"" style=""width: 234px; height: 230px; margin-top: -50px;""><div style=""display: flex; justify-content: space-between; margin-top: 33px;""><img src=""images/choice_trial_11.png"" style=""width: 408px; height: 417px; margin-right: 200px;""><img src=""images/choice_trial_2.png"" style=""width: 408px; height: 417px;""></div></div>",f,delaylearn,learning,trial,NGNuEau595V5JttzXFtsMnje45B2,NGNuEau595V5JttzXFtsMnje45B2,3.0,images/choice_trial_11.png,images/choice_trial_2.png,images/pattern_5.png,j,f,750.0,11.0,2.0,4.0,0.0,33.0,1.0,0.0,11.0,220.0,,,,,,5ee91ec1ef56832aa7947169,16:51:18,27/03/2024
html-keyboard-response,183,637496,0.0-76.0-1.0,,"<div style=""display: flex; flex-direction: column; align-items: center; margin-top: -40px;""><img src=""images/pattern_5.png"" style=""width: 234px; height: 230px; margin-top: -50px;""><div style=""display: flex; justify-content: space-between; margin-top: 33px;""><img src=""images/choice_trial_11.png"" style=""width: 408px; height: 417px; margin-right: 608px;""></div></div>",,delaylearn,learning,display_response,NGNuEau595V5JttzXFtsMnje45B2,NGNuEau595V5JttzXFtsMnje45B2,,,,,,,,,,,,,,,,,chosen stimuli: images/choice_trial_11.png,,,,,5ee91ec1ef56832aa7947169,16:51:18,27/03/2024
html-keyboard-response,184,638249,0.0-76.0-2.0,,,,delaylearn,learning,feedback_duration_window,NGNuEau595V5JttzXFtsMnje45B2,NGNuEau595V5JttzXFtsMnje45B2,,,,,,,,,,,,,,,,,,750.0,,,,5ee91ec1ef56832aa7947169,16:51:18,27/03/2024
html-keyboard-response,185,639756,0.0-76.0-3.0,,<div style='margin:auto;width: auto; font-size: 150%'><span style='font-weight: bold; font-size: 100px; color: red;'>0 points!</span><br><br></div>,,delaylearn,learning,feedback_image_window,NGNuEau595V5JttzXFtsMnje45B2,NGNuEau595V5JttzXFtsMnje45B2,,,,,,,,,,,,,,,,,,,,,,5ee91ec1ef56832aa7947169,16:51:18,27/03/2024
html-keyboard-response,186,641898,0.0-77.0,,"<div style=""font-size:100px;"">+</div>",,delaylearn,learning,ITI,NGNuEau595V5JttzXFtsMnje45B2,NGNuEau595V5JttzXFtsMnje45B2,,,,,,,,,,,,,,,,,,,2129.0,,,5ee91ec1ef56832aa7947169,16:51:18,27/03/2024
html-keyboard-response,187,643203,0.0-78.0-0.0,1302.5,"<div style=""display: flex; flex-direction: column; align-items: center; margin-top: -40px;""><img src=""images/pattern_1.png"" style=""width: 234px; height: 230px; margin-top: -50px;""><div style=""display: flex; justify-content: space-between; margin-top: 33px;""><img src=""images/choice_trial_14.png"" style=""width: 408px; height: 417px; margin-right: 200px;""><img src=""images/choice_trial_8.png"" style=""width: 408px; height: 417px;""></div></div>",f,delaylearn,learning,trial,NGNuEau595V5JttzXFtsMnje45B2,NGNuEau595V5JttzXFtsMnje45B2,3.0,images/choice_trial_14.png,images/choice_trial_8.png,images/pattern_1.png,f,f,7000.0,14.0,8.0,1.0,0.0,34.0,1.0,1.0,14.0,230.0,,,,,,5ee91ec1ef56832aa7947169,16:51:18,27/03/2024
html-keyboard-response,188,644222,0.0-78.0-1.0,,"<div style=""display: flex; flex-direction: column; align-items: center; margin-top: -40px;""><img src=""images/pattern_1.png"" style=""width: 234px; height: 230px; margin-top: -50px;""><div style=""display: flex; justify-content: space-between; margin-top: 33px;""><img src=""images/choice_trial_14.png"" style=""width: 408px; height: 417px; margin-right: 608px;""></div></div>",,delaylearn,learning,display_response,NGNuEau595V5JttzXFtsMnje45B2,NGNuEau595V5JttzXFtsMnje45B2,,,,,,,,,,,,,,,,,chosen stimuli: images/choice_trial_14.png,,,,,5ee91ec1ef56832aa7947169,16:51:18,27/03/2024
html-keyboard-response,189,651229,0.0-78.0-2.0,,,,delaylearn,learning,feedback_duration_window,NGNuEau595V5JttzXFtsMnje45B2,NGNuEau595V5JttzXFtsMnje45B2,,,,,,,,,,,,,,,,,,7000.0,,,,5ee91ec1ef56832aa7947169,16:51:18,27/03/2024
html-keyboard-response,190,652747,0.0-78.0-3.0,,<div style='margin:auto;width: auto; font-size: 150%'><span style='font-weight: bold; font-size: 100px; color: green;'>+10 points!</span><br><br></div>,,delaylearn,learning,feedback_image_window,NGNuEau595V5JttzXFtsMnje45B2,NGNuEau595V5JttzXFtsMnje45B2,,,,,,,,,,,,,,,,,,,,,,5ee91ec1ef56832aa7947169,16:51:18,27/03/2024
html-keyboard-response,191,653251,0.0-79.0-0.0,,,,,,mood_trial_fixation,NGNuEau595V5JttzXFtsMnje45B2,,,,,,,,,,,,,,,,,,,,,,,5ee91ec1ef56832aa7947169,16:51:18,27/03/2024
lmdlab-html-vas-response,192,665868,0.0-79.0-1.0,11606.0,How happy are you right now?,0.44166666666666665,delaylearn,learning,mood_trial,NGNuEau595V5JttzXFtsMnje45B2,NGNuEau595V5JttzXFtsMnje45B2,,,,,,,,,,,,,,,,,,,,"['Very unhappy', 'Very happy']",,5ee91ec1ef56832aa7947169,16:51:18,27/03/2024
html-keyboard-response,193,667987,0.0-80.0,,"<div style=""font-size:100px;"">+</div>",,delaylearn,learning,ITI,NGNuEau595V5JttzXFtsMnje45B2,NGNuEau595V5JttzXFtsMnje45B2,,,,,,,,,,,,,,,,,,,2116.0,,,5ee91ec1ef56832aa7947169,16:51:18,27/03/2024
html-keyboard-response,194,669801,0.0-81.0-0.0,1810.2000000001863,"<div style=""display: flex; flex-direction: column; align-items: center; margin-top: -40px;""><img src=""images/pattern_6.png"" style=""width: 234px; height: 230px; margin-top: -50px;""><div style=""display: flex; justify-content: space-between; margin-top: 33px;""><img src=""images/choice_trial_16.png"" style=""width: 408px; height: 417px; margin-right: 200px;""><img src=""images/choice_trial_3.png"" style=""width: 408px; height: 417px;""></div></div>",f,delaylearn,learning,trial,NGNuEau595V5JttzXFtsMnje45B2,NGNuEau595V5JttzXFtsMnje45B2,3.0,images/choice_trial_16.png,images/choice_trial_3.png,images/pattern_6.png,j,f,750.0,16.0,3.0,5.0,0.0,35.0,1.0,0.0,16.0,230.0,,,,,,5ee91ec1ef56832aa7947169,16:51:18,27/03/2024
html-keyboard-response,195,670808,0.0-81.0-1.0,,"<div style=""display: flex; flex-direction: column; align-items: center; margin-top: -40px;""><img src=""images/pattern_6.png"" style=""width: 234px; height: 230px; margin-top: -50px;""><div style=""display: flex; justify-content: space-between; margin-top: 33px;""><img src=""images/choice_trial_16.png"" style=""width: 408px; height: 417px; margin-right: 608px;""></div></div>",,delaylearn,learning,display_response,NGNuEau595V5JttzXFtsMnje45B2,NGNuEau595V5JttzXFtsMnje45B2,,,,,,,,,,,,,,,,,chosen stimuli: images/choice_trial_16.png,,,,,5ee91ec1ef56832aa7947169,16:51:18,27/03/2024
html-keyboard-response,196,671562,0.0-81.0-2.0,,,,delaylearn,learning,feedback_duration_window,NGNuEau595V5JttzXFtsMnje45B2,NGNuEau595V5JttzXFtsMnje45B2,,,,,,,,,,,,,,,,,,750.0,,,,5ee91ec1ef56832aa7947169,16:51:18,27/03/2024
html-keyboard-response,197,673067,0.0-81.0-3.0,,<div style='margin:auto;width: auto; font-size: 150%'><span style='font-weight: bold; font-size: 100px; color: red;'>0 points!</span><br><br></div>,,delaylearn,learning,feedback_image_window,NGNuEau595V5JttzXFtsMnje45B2,NGNuEau595V5JttzXFtsMnje45B2,,,,,,,,,,,,,,,,,,,,,,5ee91ec1ef56832aa7947169,16:51:18,27/03/2024
html-keyboard-response,198,675434,0.0-82.0,,"<div style=""font-size:100px;"">+</div>",,delaylearn,learning,ITI,NGNuEau595V5JttzXFtsMnje45B2,NGNuEau595V5JttzXFtsMnje45B2,,,,,,,,,,,,,,,,,,,2366.0,,,5ee91ec1ef56832aa7947169,16:51:18,27/03/2024
html-keyboard-response,199,676487,0.0-83.0-0.0,1049.800000000745,"<div style=""display: flex; flex-direction: column; align-items: center; margin-top: -40px;""><img src=""images/pattern_3.png"" style=""width: 234px; height: 230px; margin-top: -50px;""><div style=""display: flex; justify-content: space-between; margin-top: 33px;""><img src=""images/choice_trial_10.png"" style=""width: 408px; height: 417px; margin-right: 200px;""><img src=""images/choice_trial_13.png"" style=""width: 408px; height: 417px;""></div></div>",f,delaylearn,learning,trial,NGNuEau595V5JttzXFtsMnje45B2,NGNuEau595V5JttzXFtsMnje45B2,3.0,images/choice_trial_10.png,images/choice_trial_13.png,images/pattern_3.png,j,j,7000.0,10.0,13.0,2.0,1.0,36.0,0.0,0.0,10.0,230.0,,,,,,5ee91ec1ef56832aa7947169,16:51:18,27/03/2024
html-keyboard-response,200,677499,0.0-83.0-1.0,,"<div style=""display: flex; flex-direction: column; align-items: center; margin-top: -40px;""><img src=""images/pattern_3.png"" style=""width: 234px; height: 230px; margin-top: -50px;""><div style=""display: flex; justify-content: space-between; margin-top: 33px;""><img src=""images/choice_trial_10.png"" style=""width: 408px; height: 417px; margin-right: 608px;""></div></div>",,delaylearn,learning,display_response,NGNuEau595V5JttzXFtsMnje45B2,NGNuEau595V5JttzXFtsMnje45B2,,,,,,,,,,,,,,,,,chosen stimuli: images/choice_trial_10.png,,,,,5ee91ec1ef56832aa7947169,16:51:18,27/03/2024
html-keyboard-response,201,684512,0.0-83.0-2.0,,,,delaylearn,learning,feedback_duration_window,NGNuEau595V5JttzXFtsMnje45B2,NGNuEau595V5JttzXFtsMnje45B2,,,,,,,,,,,,,,,,,,7000.0,,,,5ee91ec1ef56832aa7947169,16:51:18,27/03/2024
html-keyboard-response,202,686020,0.0-83.0-3.0,,<div style='margin:auto;width: auto; font-size: 150%'><span style='font-weight: bold; font-size: 100px; color: red;'>0 points!</span><br><br></div>,,delaylearn,learning,feedback_image_window,NGNuEau595V5JttzXFtsMnje45B2,NGNuEau595V5JttzXFtsMnje45B2,,,,,,,,,,,,,,,,,,,,,,5ee91ec1ef56832aa7947169,16:51:18,27/03/2024
html-keyboard-response,203,687710,0.0-84.0,,"<div style=""font-size:100px;"">+</div>",,delaylearn,learning,ITI,NGNuEau595V5JttzXFtsMnje45B2,NGNuEau595V5JttzXFtsMnje45B2,,,,,,,,,,,,,,,,,,,1686.0,,,5ee91ec1ef56832aa7947169,16:51:18,27/03/2024
html-keyboard-response,204,689460,0.0-85.0-0.0,1743.4000000003725,"<div style=""display: flex; flex-direction: column; align-items: center; margin-top: -40px;""><img src=""images/pattern_4.png"" style=""width: 234px; height: 230px; margin-top: -50px;""><div style=""display: flex; justify-content: space-between; margin-top: 33px;""><img src=""images/choice_trial_9.png"" style=""width: 408px; height: 417px; margin-right: 200px;""><img src=""images/choice_trial_15.png"" style=""width: 408px; height: 417px;""></div></div>",j,delaylearn,learning,trial,NGNuEau595V5JttzXFtsMnje45B2,NGNuEau595V5JttzXFtsMnje45B2,3.0,images/choice_trial_9.png,images/choice_trial_15.png,images/pattern_4.png,f,j,7000.0,9.0,15.0,3.0,1.0,37.0,1.0,0.0,15.0,230.0,,,,,,5ee91ec1ef56832aa7947169,16:51:18,27/03/2024
html-keyboard-response,205,690484,0.0-85.0-1.0,,"<div style=""display: flex; flex-direction: column; align-items: center; margin-top: -40px;""><img src=""images/pattern_4.png"" style=""width: 234px; height: 230px; margin-top: -50px;""><div style=""display: flex; justify-content: space-between; margin-top: 33px;""><img src=""images/choice_trial_15.png"" style=""width: 408px; height: 417px; margin-left:608px;""></div></div>",,delaylearn,learning,display_response,NGNuEau595V5JttzXFtsMnje45B2,NGNuEau595V5JttzXFtsMnje45B2,,,,,,,,,,,,,,,,,chosen stimuli: images/choice_trial_15.png,,,,,5ee91ec1ef56832aa7947169,16:51:18,27/03/2024
html-keyboard-response,206,697495,0.0-85.0-2.0,,,,delaylearn,learning,feedback_duration_window,NGNuEau595V5JttzXFtsMnje45B2,NGNuEau595V5JttzXFtsMnje45B2,,,,,,,,,,,,,,,,,,7000.0,,,,5ee91ec1ef56832aa7947169,16:51:18,27/03/2024
html-keyboard-response,207,698999,0.0-85.0-3.0,,<div style='margin:auto;width: auto; font-size: 150%'><span style='font-weight: bold; font-size: 100px; color: red;'>0 points!</span><br><br></div>,,delaylearn,learning,feedback_image_window,NGNuEau595V5JttzXFtsMnje45B2,NGNuEau595V5JttzXFtsMnje45B2,,,,,,,,,,,,,,,,,,,,,,5ee91ec1ef56832aa7947169,16:51:18,27/03/2024
html-keyboard-response,208,700672,0.0-86.0,,"<div style=""font-size:100px;"">+</div>",,delaylearn,learning,ITI,NGNuEau595V5JttzXFtsMnje45B2,NGNuEau595V5JttzXFtsMnje45B2,,,,,,,,,,,,,,,,,,,1659.0,,,5ee91ec1ef56832aa7947169,16:51:18,27/03/2024
html-keyboard-response,209,701886,0.0-87.0-0.0,1210.8999999994412,"<div style=""display: flex; flex-direction: column; align-items: center; margin-top: -40px;""><img src=""images/pattern_7.png"" style=""width: 234px; height: 230px; margin-top: -50px;""><div style=""display: flex; justify-content: space-between; margin-top: 33px;""><img src=""images/choice_trial_6.png"" style=""width: 408px; height: 417px; margin-right: 200px;""><img src=""images/choice_trial_12.png"" style=""width: 408px; height: 417px;""></div></div>",f,delaylearn,learning,trial,NGNuEau595V5JttzXFtsMnje45B2,NGNuEau595V5JttzXFtsMnje45B2,3.0,images/choice_trial_6.png,images/choice_trial_12.png,images/pattern_7.png,f,f,750.0,6.0,12.0,6.0,0.0,38.0,1.0,1.0,6.0,240.0,,,,,,5ee91ec1ef56832aa7947169,16:51:18,27/03/2024
html-keyboard-response,210,702889,0.0-87.0-1.0,,"<div style=""display: flex; flex-direction: column; align-items: center; margin-top: -40px;""><img src=""images/pattern_7.png"" style=""width: 234px; height: 230px; margin-top: -50px;""><div style=""display: flex; justify-content: space-between; margin-top: 33px;""><img src=""images/choice_trial_6.png"" style=""width: 408px; height: 417px; margin-right: 608px;""></div></div>",,delaylearn,learning,display_response,NGNuEau595V5JttzXFtsMnje45B2,NGNuEau595V5JttzXFtsMnje45B2,,,,,,,,,,,,,,,,,chosen stimuli: images/choice_trial_6.png,,,,,5ee91ec1ef56832aa7947169,16:51:18,27/03/2024
html-keyboard-response,211,703655,0.0-87.0-2.0,,,,delaylearn,learning,feedback_duration_window,NGNuEau595V5JttzXFtsMnje45B2,NGNuEau595V5JttzXFtsMnje45B2,,,,,,,,,,,,,,,,,,750.0,,,,5ee91ec1ef56832aa7947169,16:51:18,27/03/2024
html-keyboard-response,212,705170,0.0-87.0-3.0,,<div style='margin:auto;width: auto; font-size: 150%'><span style='font-weight: bold; font-size: 100px; color: green;'>+10 points!</span><br><br></div>,,delaylearn,learning,feedback_image_window,NGNuEau595V5JttzXFtsMnje45B2,NGNuEau595V5JttzXFtsMnje45B2,,,,,,,,,,,,,,,,,,,,,,5ee91ec1ef56832aa7947169,16:51:18,27/03/2024
html-keyboard-response,213,706920,0.0-88.0,,"<div style=""font-size:100px;"">+</div>",,delaylearn,learning,ITI,NGNuEau595V5JttzXFtsMnje45B2,NGNuEau595V5JttzXFtsMnje45B2,,,,,,,,,,,,,,,,,,,1740.0,,,5ee91ec1ef56832aa7947169,16:51:18,27/03/2024
html-keyboard-response,214,709381,0.0-89.0-0.0,2456.7999999998137,"<div style=""display: flex; flex-direction: column; align-items: center; margin-top: -40px;""><img src=""images/pattern_1.png"" style=""width: 234px; height: 230px; margin-top: -50px;""><div style=""display: flex; justify-content: space-between; margin-top: 33px;""><img src=""images/choice_trial_14.png"" style=""width: 408px; height: 417px; margin-right: 200px;""><img src=""images/choice_trial_8.png"" style=""width: 408px; height: 417px;""></div></div>",j,delaylearn,learning,trial,NGNuEau595V5JttzXFtsMnje45B2,NGNuEau595V5JttzXFtsMnje45B2,3.0,images/choice_trial_14.png,images/choice_trial_8.png,images/pattern_1.png,f,f,7000.0,14.0,8.0,1.0,0.0,39.0,0.0,0.0,8.0,240.0,,,,,,5ee91ec1ef56832aa7947169,16:51:18,27/03/2024
html-keyboard-response,215,710385,0.0-89.0-1.0,,"<div style=""display: flex; flex-direction: column; align-items: center; margin-top: -40px;""><img src=""images/pattern_1.png"" style=""width: 234px; height: 230px; margin-top: -50px;""><div style=""display: flex; justify-content: space-between; margin-top: 33px;""><img src=""images/choice_trial_8.png"" style=""width: 408px; height: 417px; margin-left:608px;""></div></div>",,delaylearn,learning,display_response,NGNuEau595V5JttzXFtsMnje45B2,NGNuEau595V5JttzXFtsMnje45B2,,,,,,,,,,,,,,,,,chosen stimuli: images/choice_trial_8.png,,,,,5ee91ec1ef56832aa7947169,16:51:18,27/03/2024
html-keyboard-response,216,717395,0.0-89.0-2.0,,,,delaylearn,learning,feedback_duration_window,NGNuEau595V5JttzXFtsMnje45B2,NGNuEau595V5JttzXFtsMnje45B2,,,,,,,,,,,,,,,,,,7000.0,,,,5ee91ec1ef56832aa7947169,16:51:18,27/03/2024
html-keyboard-response,217,718907,0.0-89.0-3.0,,<div style='margin:auto;width: auto; font-size: 150%'><span style='font-weight: bold; font-size: 100px; color: red;'>0 points!</span><br><br></div>,,delaylearn,learning,feedback_image_window,NGNuEau595V5JttzXFtsMnje45B2,NGNuEau595V5JttzXFtsMnje45B2,,,,,,,,,,,,,,,,,,,,,,5ee91ec1ef56832aa7947169,16:51:18,27/03/2024
html-keyboard-response,218,719423,0.0-90.0-0.0,,,,,,mood_trial_fixation,NGNuEau595V5JttzXFtsMnje45B2,,,,,,,,,,,,,,,,,,,,,,,5ee91ec1ef56832aa7947169,16:51:18,27/03/2024
lmdlab-html-vas-response,219,724011,0.0-90.0-1.0,3575.0,How happy are you right now?,0.27708333333333335,delaylearn,learning,mood_trial,NGNuEau595V5JttzXFtsMnje45B2,NGNuEau595V5JttzXFtsMnje45B2,,,,,,,,,,,,,,,,,,,,"['Very unhappy', 'Very happy']",,5ee91ec1ef56832aa7947169,16:51:18,27/03/2024
html-keyboard-response,220,725935,0.0-91.0,,"<div style=""font-size:100px;"">+</div>",,delaylearn,learning,ITI,NGNuEau595V5JttzXFtsMnje45B2,NGNuEau595V5JttzXFtsMnje45B2,,,,,,,,,,,,,,,,,,,1917.0,,,5ee91ec1ef56832aa7947169,16:51:18,27/03/2024
html-keyboard-response,221,727774,0.0-92.0-0.0,1835.2999999998137,"<div style=""display: flex; flex-direction: column; align-items: center; margin-top: -40px;""><img src=""images/pattern_3.png"" style=""width: 234px; height: 230px; margin-top: -50px;""><div style=""display: flex; justify-content: space-between; margin-top: 33px;""><img src=""images/choice_trial_13.png"" style=""width: 408px; height: 417px; margin-right: 200px;""><img src=""images/choice_trial_10.png"" style=""width: 408px; height: 417px;""></div></div>",f,delaylearn,learning,trial,NGNuEau595V5JttzXFtsMnje45B2,NGNuEau595V5JttzXFtsMnje45B2,3.0,images/choice_trial_13.png,images/choice_trial_10.png,images/pattern_3.png,j,f,7000.0,13.0,10.0,2.0,0.0,40.0,1.0,0.0,13.0,240.0,,,,,,5ee91ec1ef56832aa7947169,16:51:18,27/03/2024
html-keyboard-response,222,728777,0.0-92.0-1.0,,"<div style=""display: flex; flex-direction: column; align-items: center; margin-top: -40px;""><img src=""images/pattern_3.png"" style=""width: 234px; height: 230px; margin-top: -50px;""><div style=""display: flex; justify-content: space-between; margin-top: 33px;""><img src=""images/choice_trial_13.png"" style=""width: 408px; height: 417px; margin-right: 608px;""></div></div>",,delaylearn,learning,display_response,NGNuEau595V5JttzXFtsMnje45B2,NGNuEau595V5JttzXFtsMnje45B2,,,,,,,,,,,,,,,,,chosen stimuli: images/choice_trial_13.png,,,,,5ee91ec1ef56832aa7947169,16:51:18,27/03/2024
html-keyboard-response,223,735791,0.0-92.0-2.0,,,,delaylearn,learning,feedback_duration_window,NGNuEau595V5JttzXFtsMnje45B2,NGNuEau595V5JttzXFtsMnje45B2,,,,,,,,,,,,,,,,,,7000.0,,,,5ee91ec1ef56832aa7947169,16:51:18,27/03/2024
html-keyboard-response,224,737299,0.0-92.0-3.0,,<div style='margin:auto;width: auto; font-size: 150%'><span style='font-weight: bold; font-size: 100px; color: red;'>0 points!</span><br><br></div>,,delaylearn,learning,feedback_image_window,NGNuEau595V5JttzXFtsMnje45B2,NGNuEau595V5JttzXFtsMnje45B2,,,,,,,,,,,,,,,,,,,,,,5ee91ec1ef56832aa7947169,16:51:18,27/03/2024
html-keyboard-response,225,739545,0.0-93.0,,"<div style=""font-size:100px;"">+</div>",,delaylearn,learning,ITI,NGNuEau595V5JttzXFtsMnje45B2,NGNuEau595V5JttzXFtsMnje45B2,,,,,,,,,,,,,,,,,,,2232.0,,,5ee91ec1ef56832aa7947169,16:51:18,27/03/2024
html-keyboard-response,226,740466,0.0-94.0-0.0,917.3999999994412,"<div style=""display: flex; flex-direction: column; align-items: center; margin-top: -40px;""><img src=""images/pattern_7.png"" style=""width: 234px; height: 230px; margin-top: -50px;""><div style=""display: flex; justify-content: space-between; margin-top: 33px;""><img src=""images/choice_trial_12.png"" style=""width: 408px; height: 417px; margin-right: 200px;""><img src=""images/choice_trial_6.png"" style=""width: 408px; height: 417px;""></div></div>",j,delaylearn,learning,trial,NGNuEau595V5JttzXFtsMnje45B2,NGNuEau595V5JttzXFtsMnje45B2,3.0,images/choice_trial_12.png,images/choice_trial_6.png,images/pattern_7.png,j,j,750.0,12.0,6.0,6.0,1.0,41.0,1.0,1.0,6.0,250.0,,,,,,5ee91ec1ef56832aa7947169,16:51:18,27/03/2024
html-keyboard-response,227,741470,0.0-94.0-1.0,,"<div style=""display: flex; flex-direction: column; align-items: center; margin-top: -40px;""><img src=""images/pattern_7.png"" style=""width: 234px; height: 230px; margin-top: -50px;""><div style=""display: flex; justify-content: space-between; margin-top: 33px;""><img src=""images/choice_trial_6.png"" style=""width: 408px; height: 417px; margin-left:608px;""></div></div>",,delaylearn,learning,display_response,NGNuEau595V5JttzXFtsMnje45B2,NGNuEau595V5JttzXFtsMnje45B2,,,,,,,,,,,,,,,,,chosen stimuli: images/choice_trial_6.png,,,,,5ee91ec1ef56832aa7947169,16:51:18,27/03/2024
html-keyboard-response,228,742229,0.0-94.0-2.0,,,,delaylearn,learning,feedback_duration_window,NGNuEau595V5JttzXFtsMnje45B2,NGNuEau595V5JttzXFtsMnje45B2,,,,,,,,,,,,,,,,,,750.0,,,,5ee91ec1ef56832aa7947169,16:51:18,27/03/2024
html-keyboard-response,229,743746,0.0-94.0-3.0,,<div style='margin:auto;width: auto; font-size: 150%'><span style='font-weight: bold; font-size: 100px; color: green;'>+10 points!</span><br><br></div>,,delaylearn,learning,feedback_image_window,NGNuEau595V5JttzXFtsMnje45B2,NGNuEau595V5JttzXFtsMnje45B2,,,,,,,,,,,,,,,,,,,,,,5ee91ec1ef56832aa7947169,16:51:18,27/03/2024
html-keyboard-response,230,746186,0.0-95.0,,"<div style=""font-size:100px;"">+</div>",,delaylearn,learning,ITI,NGNuEau595V5JttzXFtsMnje45B2,NGNuEau595V5JttzXFtsMnje45B2,,,,,,,,,,,,,,,,,,,2431.0,,,5ee91ec1ef56832aa7947169,16:51:18,27/03/2024
