trial_type,trial_index,time_elapsed,internal_node_id,rt,stimulus,response,exp_name,exp_stage,test_part,subjectID,databaseID,counterbal,choice_stimuli_1,choice_stimuli_2,pattern_stimuli,rewarded_answer,correct_answer,feedback_duration_times,stim_left,stim_right,pair,leftright_counter,trial,response_correct,response_rewarded,chosen_stim,counter,displayed_choice,feedback_durations,ITI_duration,labels,rest_warning,prolificID,start_time,date
pavlovia,0,478,0.0-0.0,,,,,,,xrE6pwXf6nOfeb59ns940WYZyNl1,,,,,,,,,,,,,,,,,,,,,,,60394fde95a5a03dcc668c4b,16:55:33,27/03/2024
html-keyboard-response,1,3485,0.0-1.0,,"<div style=""font-size:100px;"">+</div>",,delaylearn,learning,pre_fixation,xrE6pwXf6nOfeb59ns940WYZyNl1,,,,,,,,,,,,,,,,,,,,,,,60394fde95a5a03dcc668c4b,16:55:33,27/03/2024
html-keyboard-response,2,4536,0.0-2.0-0.0,1049.4000000953674,"<div style=""display: flex; flex-direction: column; align-items: center; margin-top: -40px;""><img src=""images/demo_images/pattern_1.png"" style=""width: 234px; height: 230px; margin-top: -50px;""><div style=""display: flex; justify-content: space-between; margin-top: 33px;""><img src=""images/demo_images/choice_trial_2.png"" style=""width: 408px; height: 417px; margin-right: 200px;""><img src=""images/demo_images/choice_trial_1.png"" style=""width: 408px; height: 417px;""></div></div>",f,delaylearn,learning,trial,xrE6pwXf6nOfeb59ns940WYZyNl1,xrE6pwXf6nOfeb59ns940WYZyNl1,4.0,images/demo_images/choice_trial_2.png,images/demo_images/choice_trial_1.png,images/demo_images/pattern_1.png,j,j,3000.0,2.0,1.0,20.0,1.0,1.0,0.0,0.0,2.0,0.0,,,,,,60394fde95a5a03dcc668c4b,16:55:33,27/03/2024
html-keyboard-response,3,5553,0.0-2.0-1.0,,"<div style=""display: flex; flex-direction: column; align-items: center; margin-top: -40px;""><img src=""images/demo_images/pattern_1.png"" style=""width: 234px; height: 230px; margin-top: -50px;""><div style=""display: flex; justify-content: space-between; margin-top: 33px;""><img src=""images/demo_images/choice_trial_2.png"" style=""width: 408px; height: 417px; margin-right: 608px;""></div></div>",,delaylearn,learning,display_response,xrE6pwXf6nOfeb59ns940WYZyNl1,xrE6pwXf6nOfeb59ns940WYZyNl1,,,,,,,,,,,,,,,,,chosen stimuli: images/demo_images/choice_trial_2.png,,,,,60394fde95a5a03dcc668c4b,16:55:33,27/03/2024
html-keyboard-response,4,8565,0.0-2.0-2.0,,,,delaylearn,learning,feedback_duration_window,xrE6pwXf6nOfeb59ns940WYZyNl1,xrE6pwXf6nOfeb59ns940WYZyNl1,,,,,,,,,,,,,,,,,,3000.0,,,,60394fde95a5a03dcc668c4b,16:55:33,27/03/2024
html-keyboard-response,5,10072,0.0-2.0-3.0,,<div style='margin:auto;width: auto; font-size: 150%'><span style='font-weight: bold; font-size: 100px; color: red;'>0 points!</span><br><br></div>,,delaylearn,learning,feedback_image_window,xrE6pwXf6nOfeb59ns940WYZyNl1,xrE6pwXf6nOfeb59ns940WYZyNl1,,,,,,,,,,,,,,,,,,,,,,60394fde95a5a03dcc668c4b,16:55:33,27/03/2024
html-keyboard-response,6,11940,0.0-3.0,,"<div style=""font-size:100px;"">+</div>",,delaylearn,learning,ITI,xrE6pwXf6nOfeb59ns940WYZyNl1,xrE6pwXf6nOfeb59ns940WYZyNl1,,,,,,,,,,,,,,,,,,,1859.0,,,60394fde95a5a03dcc668c4b,16:55:33,27/03/2024
html-keyboard-response,7,12930,0.0-4.0-0.0,987.1999999284744,"<div style=""display: flex; flex-direction: column; align-items: center; margin-top: -40px;""><img src=""images/demo_images/pattern_1.png"" style=""width: 234px; height: 230px; margin-top: -50px;""><div style=""display: flex; justify-content: space-between; margin-top: 33px;""><img src=""images/demo_images/choice_trial_2.png"" style=""width: 408px; height: 417px; margin-right: 200px;""><img src=""images/demo_images/choice_trial_1.png"" style=""width: 408px; height: 417px;""></div></div>",j,delaylearn,learning,trial,xrE6pwXf6nOfeb59ns940WYZyNl1,xrE6pwXf6nOfeb59ns940WYZyNl1,4.0,images/demo_images/choice_trial_2.png,images/demo_images/choice_trial_1.png,images/demo_images/pattern_1.png,j,j,3000.0,2.0,1.0,20.0,1.0,2.0,1.0,1.0,1.0,10.0,,,,,,60394fde95a5a03dcc668c4b,16:55:33,27/03/2024
html-keyboard-response,8,13939,0.0-4.0-1.0,,"<div style=""display: flex; flex-direction: column; align-items: center; margin-top: -40px;""><img src=""images/demo_images/pattern_1.png"" style=""width: 234px; height: 230px; margin-top: -50px;""><div style=""display: flex; justify-content: space-between; margin-top: 33px;""><img src=""images/demo_images/choice_trial_1.png"" style=""width: 408px; height: 417px; margin-left:608px;""></div></div>",,delaylearn,learning,display_response,xrE6pwXf6nOfeb59ns940WYZyNl1,xrE6pwXf6nOfeb59ns940WYZyNl1,,,,,,,,,,,,,,,,,chosen stimuli: images/demo_images/choice_trial_1.png,,,,,60394fde95a5a03dcc668c4b,16:55:33,27/03/2024
html-keyboard-response,9,16950,0.0-4.0-2.0,,,,delaylearn,learning,feedback_duration_window,xrE6pwXf6nOfeb59ns940WYZyNl1,xrE6pwXf6nOfeb59ns940WYZyNl1,,,,,,,,,,,,,,,,,,3000.0,,,,60394fde95a5a03dcc668c4b,16:55:33,27/03/2024
html-keyboard-response,10,18467,0.0-4.0-3.0,,<div style='margin:auto;width: auto; font-size: 150%'><span style='font-weight: bold; font-size: 100px; color: green;'>+10 points!</span><br><br></div>,,delaylearn,learning,feedback_image_window,xrE6pwXf6nOfeb59ns940WYZyNl1,xrE6pwXf6nOfeb59ns940WYZyNl1,,,,,,,,,,,,,,,,,,,,,,60394fde95a5a03dcc668c4b,16:55:33,27/03/2024
html-keyboard-response,11,20118,0.0-5.0,,"<div style=""font-size:100px;"">+</div>",,delaylearn,learning,ITI,xrE6pwXf6nOfeb59ns940WYZyNl1,xrE6pwXf6nOfeb59ns940WYZyNl1,,,,,,,,,,,,,,,,,,,1640.0,,,60394fde95a5a03dcc668c4b,16:55:33,27/03/2024
html-keyboard-response,12,20743,0.0-6.0-0.0,623.3999999761581,"<div style=""display: flex; flex-direction: column; align-items: center; margin-top: -40px;""><img src=""images/demo_images/pattern_1.png"" style=""width: 234px; height: 230px; margin-top: -50px;""><div style=""display: flex; justify-content: space-between; margin-top: 33px;""><img src=""images/demo_images/choice_trial_1.png"" style=""width: 408px; height: 417px; margin-right: 200px;""><img src=""images/demo_images/choice_trial_2.png"" style=""width: 408px; height: 417px;""></div></div>",f,delaylearn,learning,trial,xrE6pwXf6nOfeb59ns940WYZyNl1,xrE6pwXf6nOfeb59ns940WYZyNl1,4.0,images/demo_images/choice_trial_1.png,images/demo_images/choice_trial_2.png,images/demo_images/pattern_1.png,j,f,3000.0,1.0,2.0,20.0,0.0,3.0,1.0,0.0,1.0,10.0,,,,,,60394fde95a5a03dcc668c4b,16:55:33,27/03/2024
html-keyboard-response,13,21754,0.0-6.0-1.0,,"<div style=""display: flex; flex-direction: column; align-items: center; margin-top: -40px;""><img src=""images/demo_images/pattern_1.png"" style=""width: 234px; height: 230px; margin-top: -50px;""><div style=""display: flex; justify-content: space-between; margin-top: 33px;""><img src=""images/demo_images/choice_trial_1.png"" style=""width: 408px; height: 417px; margin-right: 608px;""></div></div>",,delaylearn,learning,display_response,xrE6pwXf6nOfeb59ns940WYZyNl1,xrE6pwXf6nOfeb59ns940WYZyNl1,,,,,,,,,,,,,,,,,chosen stimuli: images/demo_images/choice_trial_1.png,,,,,60394fde95a5a03dcc668c4b,16:55:33,27/03/2024
html-keyboard-response,14,24770,0.0-6.0-2.0,,,,delaylearn,learning,feedback_duration_window,xrE6pwXf6nOfeb59ns940WYZyNl1,xrE6pwXf6nOfeb59ns940WYZyNl1,,,,,,,,,,,,,,,,,,3000.0,,,,60394fde95a5a03dcc668c4b,16:55:33,27/03/2024
html-keyboard-response,15,26284,0.0-6.0-3.0,,<div style='margin:auto;width: auto; font-size: 150%'><span style='font-weight: bold; font-size: 100px; color: red;'>0 points!</span><br><br></div>,,delaylearn,learning,feedback_image_window,xrE6pwXf6nOfeb59ns940WYZyNl1,xrE6pwXf6nOfeb59ns940WYZyNl1,,,,,,,,,,,,,,,,,,,,,,60394fde95a5a03dcc668c4b,16:55:33,27/03/2024
html-keyboard-response,16,28446,0.0-7.0,,"<div style=""font-size:100px;"">+</div>",,delaylearn,learning,ITI,xrE6pwXf6nOfeb59ns940WYZyNl1,xrE6pwXf6nOfeb59ns940WYZyNl1,,,,,,,,,,,,,,,,,,,2154.0,,,60394fde95a5a03dcc668c4b,16:55:33,27/03/2024
html-keyboard-response,17,29585,0.0-8.0-0.0,1137.5,"<div style=""display: flex; flex-direction: column; align-items: center; margin-top: -40px;""><img src=""images/demo_images/pattern_1.png"" style=""width: 234px; height: 230px; margin-top: -50px;""><div style=""display: flex; justify-content: space-between; margin-top: 33px;""><img src=""images/demo_images/choice_trial_1.png"" style=""width: 408px; height: 417px; margin-right: 200px;""><img src=""images/demo_images/choice_trial_2.png"" style=""width: 408px; height: 417px;""></div></div>",f,delaylearn,learning,trial,xrE6pwXf6nOfeb59ns940WYZyNl1,xrE6pwXf6nOfeb59ns940WYZyNl1,4.0,images/demo_images/choice_trial_1.png,images/demo_images/choice_trial_2.png,images/demo_images/pattern_1.png,f,f,3000.0,1.0,2.0,20.0,0.0,4.0,1.0,1.0,1.0,20.0,,,,,,60394fde95a5a03dcc668c4b,16:55:33,27/03/2024
html-keyboard-response,18,30603,0.0-8.0-1.0,,"<div style=""display: flex; flex-direction: column; align-items: center; margin-top: -40px;""><img src=""images/demo_images/pattern_1.png"" style=""width: 234px; height: 230px; margin-top: -50px;""><div style=""display: flex; justify-content: space-between; margin-top: 33px;""><img src=""images/demo_images/choice_trial_1.png"" style=""width: 408px; height: 417px; margin-right: 608px;""></div></div>",,delaylearn,learning,display_response,xrE6pwXf6nOfeb59ns940WYZyNl1,xrE6pwXf6nOfeb59ns940WYZyNl1,,,,,,,,,,,,,,,,,chosen stimuli: images/demo_images/choice_trial_1.png,,,,,60394fde95a5a03dcc668c4b,16:55:33,27/03/2024
html-keyboard-response,19,33614,0.0-8.0-2.0,,,,delaylearn,learning,feedback_duration_window,xrE6pwXf6nOfeb59ns940WYZyNl1,xrE6pwXf6nOfeb59ns940WYZyNl1,,,,,,,,,,,,,,,,,,3000.0,,,,60394fde95a5a03dcc668c4b,16:55:33,27/03/2024
html-keyboard-response,20,35123,0.0-8.0-3.0,,<div style='margin:auto;width: auto; font-size: 150%'><span style='font-weight: bold; font-size: 100px; color: green;'>+10 points!</span><br><br></div>,,delaylearn,learning,feedback_image_window,xrE6pwXf6nOfeb59ns940WYZyNl1,xrE6pwXf6nOfeb59ns940WYZyNl1,,,,,,,,,,,,,,,,,,,,,,60394fde95a5a03dcc668c4b,16:55:33,27/03/2024
html-keyboard-response,21,35635,0.0-9.0-0.0,,,,,,mood_trial_fixation,xrE6pwXf6nOfeb59ns940WYZyNl1,,,,,,,,,,,,,,,,,,,,,,,60394fde95a5a03dcc668c4b,16:55:33,27/03/2024
lmdlab-html-vas-response,22,40855,0.0-9.0-1.0,4203.0,How happy are you right now?,0.9652777777777778,delaylearn,learning,mood_trial,xrE6pwXf6nOfeb59ns940WYZyNl1,xrE6pwXf6nOfeb59ns940WYZyNl1,,,,,,,,,,,,,,,,,,,,"['Very unhappy', 'Very happy']",,60394fde95a5a03dcc668c4b,16:55:33,27/03/2024
html-keyboard-response,23,43164,0.0-10.0,,"<div style=""font-size:100px;"">+</div>",,delaylearn,learning,ITI,xrE6pwXf6nOfeb59ns940WYZyNl1,xrE6pwXf6nOfeb59ns940WYZyNl1,,,,,,,,,,,,,,,,,,,2297.0,,,60394fde95a5a03dcc668c4b,16:55:33,27/03/2024
html-keyboard-response,24,44243,0.0-11.0-0.0,1076.2000000476837,"<div style=""display: flex; flex-direction: column; align-items: center; margin-top: -40px;""><img src=""images/demo_images/pattern_1.png"" style=""width: 234px; height: 230px; margin-top: -50px;""><div style=""display: flex; justify-content: space-between; margin-top: 33px;""><img src=""images/demo_images/choice_trial_2.png"" style=""width: 408px; height: 417px; margin-right: 200px;""><img src=""images/demo_images/choice_trial_1.png"" style=""width: 408px; height: 417px;""></div></div>",j,delaylearn,learning,trial,xrE6pwXf6nOfeb59ns940WYZyNl1,xrE6pwXf6nOfeb59ns940WYZyNl1,4.0,images/demo_images/choice_trial_2.png,images/demo_images/choice_trial_1.png,images/demo_images/pattern_1.png,j,j,3000.0,2.0,1.0,20.0,1.0,5.0,1.0,1.0,1.0,30.0,,,,,,60394fde95a5a03dcc668c4b,16:55:33,27/03/2024
html-keyboard-response,25,45252,0.0-11.0-1.0,,"<div style=""display: flex; flex-direction: column; align-items: center; margin-top: -40px;""><img src=""images/demo_images/pattern_1.png"" style=""width: 234px; height: 230px; margin-top: -50px;""><div style=""display: flex; justify-content: space-between; margin-top: 33px;""><img src=""images/demo_images/choice_trial_1.png"" style=""width: 408px; height: 417px; margin-left:608px;""></div></div>",,delaylearn,learning,display_response,xrE6pwXf6nOfeb59ns940WYZyNl1,xrE6pwXf6nOfeb59ns940WYZyNl1,,,,,,,,,,,,,,,,,chosen stimuli: images/demo_images/choice_trial_1.png,,,,,60394fde95a5a03dcc668c4b,16:55:33,27/03/2024
html-keyboard-response,26,48265,0.0-11.0-2.0,,,,delaylearn,learning,feedback_duration_window,xrE6pwXf6nOfeb59ns940WYZyNl1,xrE6pwXf6nOfeb59ns940WYZyNl1,,,,,,,,,,,,,,,,,,3000.0,,,,60394fde95a5a03dcc668c4b,16:55:33,27/03/2024
html-keyboard-response,27,49767,0.0-11.0-3.0,,<div style='margin:auto;width: auto; font-size: 150%'><span style='font-weight: bold; font-size: 100px; color: green;'>+10 points!</span><br><br></div>,,delaylearn,learning,feedback_image_window,xrE6pwXf6nOfeb59ns940WYZyNl1,xrE6pwXf6nOfeb59ns940WYZyNl1,,,,,,,,,,,,,,,,,,,,,,60394fde95a5a03dcc668c4b,16:55:33,27/03/2024
html-keyboard-response,28,51329,0.0-12.0,,"<div style=""font-size:100px;"">+</div>",,delaylearn,learning,ITI,xrE6pwXf6nOfeb59ns940WYZyNl1,xrE6pwXf6nOfeb59ns940WYZyNl1,,,,,,,,,,,,,,,,,,,1552.0,,,60394fde95a5a03dcc668c4b,16:55:33,27/03/2024
html-keyboard-response,29,52381,0.0-13.0-0.0,1050.1000000238419,"<div style=""display: flex; flex-direction: column; align-items: center; margin-top: -40px;""><img src=""images/demo_images/pattern_1.png"" style=""width: 234px; height: 230px; margin-top: -50px;""><div style=""display: flex; justify-content: space-between; margin-top: 33px;""><img src=""images/demo_images/choice_trial_1.png"" style=""width: 408px; height: 417px; margin-right: 200px;""><img src=""images/demo_images/choice_trial_2.png"" style=""width: 408px; height: 417px;""></div></div>",f,delaylearn,learning,trial,xrE6pwXf6nOfeb59ns940WYZyNl1,xrE6pwXf6nOfeb59ns940WYZyNl1,4.0,images/demo_images/choice_trial_1.png,images/demo_images/choice_trial_2.png,images/demo_images/pattern_1.png,f,f,3000.0,1.0,2.0,20.0,0.0,6.0,1.0,1.0,1.0,40.0,,,,,,60394fde95a5a03dcc668c4b,16:55:33,27/03/2024
html-keyboard-response,30,53397,0.0-13.0-1.0,,"<div style=""display: flex; flex-direction: column; align-items: center; margin-top: -40px;""><img src=""images/demo_images/pattern_1.png"" style=""width: 234px; height: 230px; margin-top: -50px;""><div style=""display: flex; justify-content: space-between; margin-top: 33px;""><img src=""images/demo_images/choice_trial_1.png"" style=""width: 408px; height: 417px; margin-right: 608px;""></div></div>",,delaylearn,learning,display_response,xrE6pwXf6nOfeb59ns940WYZyNl1,xrE6pwXf6nOfeb59ns940WYZyNl1,,,,,,,,,,,,,,,,,chosen stimuli: images/demo_images/choice_trial_1.png,,,,,60394fde95a5a03dcc668c4b,16:55:33,27/03/2024
html-keyboard-response,31,56401,0.0-13.0-2.0,,,,delaylearn,learning,feedback_duration_window,xrE6pwXf6nOfeb59ns940WYZyNl1,xrE6pwXf6nOfeb59ns940WYZyNl1,,,,,,,,,,,,,,,,,,3000.0,,,,60394fde95a5a03dcc668c4b,16:55:33,27/03/2024
html-keyboard-response,32,57914,0.0-13.0-3.0,,<div style='margin:auto;width: auto; font-size: 150%'><span style='font-weight: bold; font-size: 100px; color: green;'>+10 points!</span><br><br></div>,,delaylearn,learning,feedback_image_window,xrE6pwXf6nOfeb59ns940WYZyNl1,xrE6pwXf6nOfeb59ns940WYZyNl1,,,,,,,,,,,,,,,,,,,,,,60394fde95a5a03dcc668c4b,16:55:33,27/03/2024
html-keyboard-response,33,60362,0.0-14.0,,"<div style=""font-size:100px;"">+</div>",,delaylearn,learning,ITI,xrE6pwXf6nOfeb59ns940WYZyNl1,xrE6pwXf6nOfeb59ns940WYZyNl1,,,,,,,,,,,,,,,,,,,2442.0,,,60394fde95a5a03dcc668c4b,16:55:33,27/03/2024
html-keyboard-response,34,61198,0.0-15.0-0.0,833.8999999761581,"<div style=""display: flex; flex-direction: column; align-items: center; margin-top: -40px;""><img src=""images/demo_images/pattern_1.png"" style=""width: 234px; height: 230px; margin-top: -50px;""><div style=""display: flex; justify-content: space-between; margin-top: 33px;""><img src=""images/demo_images/choice_trial_2.png"" style=""width: 408px; height: 417px; margin-right: 200px;""><img src=""images/demo_images/choice_trial_1.png"" style=""width: 408px; height: 417px;""></div></div>",j,delaylearn,learning,trial,xrE6pwXf6nOfeb59ns940WYZyNl1,xrE6pwXf6nOfeb59ns940WYZyNl1,4.0,images/demo_images/choice_trial_2.png,images/demo_images/choice_trial_1.png,images/demo_images/pattern_1.png,j,j,3000.0,2.0,1.0,20.0,1.0,7.0,1.0,1.0,1.0,50.0,,,,,,60394fde95a5a03dcc668c4b,16:55:33,27/03/2024
html-keyboard-response,35,62214,0.0-15.0-1.0,,"<div style=""display: flex; flex-direction: column; align-items: center; margin-top: -40px;""><img src=""images/demo_images/pattern_1.png"" style=""width: 234px; height: 230px; margin-top: -50px;""><div style=""display: flex; justify-content: space-between; margin-top: 33px;""><img src=""images/demo_images/choice_trial_1.png"" style=""width: 408px; height: 417px; margin-left:608px;""></div></div>",,delaylearn,learning,display_response,xrE6pwXf6nOfeb59ns940WYZyNl1,xrE6pwXf6nOfeb59ns940WYZyNl1,,,,,,,,,,,,,,,,,chosen stimuli: images/demo_images/choice_trial_1.png,,,,,60394fde95a5a03dcc668c4b,16:55:33,27/03/2024
html-keyboard-response,36,65231,0.0-15.0-2.0,,,,delaylearn,learning,feedback_duration_window,xrE6pwXf6nOfeb59ns940WYZyNl1,xrE6pwXf6nOfeb59ns940WYZyNl1,,,,,,,,,,,,,,,,,,3000.0,,,,60394fde95a5a03dcc668c4b,16:55:33,27/03/2024
html-keyboard-response,37,66746,0.0-15.0-3.0,,<div style='margin:auto;width: auto; font-size: 150%'><span style='font-weight: bold; font-size: 100px; color: green;'>+10 points!</span><br><br></div>,,delaylearn,learning,feedback_image_window,xrE6pwXf6nOfeb59ns940WYZyNl1,xrE6pwXf6nOfeb59ns940WYZyNl1,,,,,,,,,,,,,,,,,,,,,,60394fde95a5a03dcc668c4b,16:55:33,27/03/2024
html-keyboard-response,38,69002,0.0-16.0,,"<div style=""font-size:100px;"">+</div>",,delaylearn,learning,ITI,xrE6pwXf6nOfeb59ns940WYZyNl1,xrE6pwXf6nOfeb59ns940WYZyNl1,,,,,,,,,,,,,,,,,,,2239.0,,,60394fde95a5a03dcc668c4b,16:55:33,27/03/2024
html-keyboard-response,39,69947,0.0-17.0-0.0,943.3999999761581,"<div style=""display: flex; flex-direction: column; align-items: center; margin-top: -40px;""><img src=""images/demo_images/pattern_1.png"" style=""width: 234px; height: 230px; margin-top: -50px;""><div style=""display: flex; justify-content: space-between; margin-top: 33px;""><img src=""images/demo_images/choice_trial_1.png"" style=""width: 408px; height: 417px; margin-right: 200px;""><img src=""images/demo_images/choice_trial_2.png"" style=""width: 408px; height: 417px;""></div></div>",f,delaylearn,learning,trial,xrE6pwXf6nOfeb59ns940WYZyNl1,xrE6pwXf6nOfeb59ns940WYZyNl1,4.0,images/demo_images/choice_trial_1.png,images/demo_images/choice_trial_2.png,images/demo_images/pattern_1.png,f,f,3000.0,1.0,2.0,20.0,0.0,8.0,1.0,1.0,1.0,60.0,,,,,,60394fde95a5a03dcc668c4b,16:55:33,27/03/2024
html-keyboard-response,40,70958,0.0-17.0-1.0,,"<div style=""display: flex; flex-direction: column; align-items: center; margin-top: -40px;""><img src=""images/demo_images/pattern_1.png"" style=""width: 234px; height: 230px; margin-top: -50px;""><div style=""display: flex; justify-content: space-between; margin-top: 33px;""><img src=""images/demo_images/choice_trial_1.png"" style=""width: 408px; height: 417px; margin-right: 608px;""></div></div>",,delaylearn,learning,display_response,xrE6pwXf6nOfeb59ns940WYZyNl1,xrE6pwXf6nOfeb59ns940WYZyNl1,,,,,,,,,,,,,,,,,chosen stimuli: images/demo_images/choice_trial_1.png,,,,,60394fde95a5a03dcc668c4b,16:55:33,27/03/2024
html-keyboard-response,41,73973,0.0-17.0-2.0,,,,delaylearn,learning,feedback_duration_window,xrE6pwXf6nOfeb59ns940WYZyNl1,xrE6pwXf6nOfeb59ns940WYZyNl1,,,,,,,,,,,,,,,,,,3000.0,,,,60394fde95a5a03dcc668c4b,16:55:33,27/03/2024
html-keyboard-response,42,75480,0.0-17.0-3.0,,<div style='margin:auto;width: auto; font-size: 150%'><span style='font-weight: bold; font-size: 100px; color: green;'>+10 points!</span><br><br></div>,,delaylearn,learning,feedback_image_window,xrE6pwXf6nOfeb59ns940WYZyNl1,xrE6pwXf6nOfeb59ns940WYZyNl1,,,,,,,,,,,,,,,,,,,,,,60394fde95a5a03dcc668c4b,16:55:33,27/03/2024
html-button-response,43,79511,0.0-18.0,4030.2000000476837,"
  <div style=""display: flex; align-items: center; justify-content: center; height: 80vh;"">
  <div>
          <img src=""images/inst_demo_finish.png"" style=""width: 80vw; height:auto;"">
          <br><br>
      </div>
      <br><br>
  </div>",0,,,,xrE6pwXf6nOfeb59ns940WYZyNl1,,,,,,,,,,,,,,,,,,,,,,,60394fde95a5a03dcc668c4b,16:55:33,27/03/2024
html-keyboard-response,44,82176,0.0-19.0,2663.1999999284744,"
  <div style=""display: flex; align-items: center; justify-content: center; height: 80vh;"">
  <div>
          <img src=""images/inst_6.png"" style=""width: 80vw; height:auto;"">
          <br><br>
      </div>
      <br><br>
  </div>",f,,,,xrE6pwXf6nOfeb59ns940WYZyNl1,,,,,,,,,,,,,,,,,,,,,,,60394fde95a5a03dcc668c4b,16:55:33,27/03/2024
html-keyboard-response,45,85183,0.0-20.0,,"<div style=""font-size:100px;"">+</div>",,delaylearn,learning,pre_fixation,xrE6pwXf6nOfeb59ns940WYZyNl1,,,,,,,,,,,,,,,,,,,,,,,60394fde95a5a03dcc668c4b,16:55:33,27/03/2024
html-keyboard-response,46,86729,0.0-21.0,,"<div style=""font-size:100px;"">+</div>",,delaylearn,learning,ITI,xrE6pwXf6nOfeb59ns940WYZyNl1,xrE6pwXf6nOfeb59ns940WYZyNl1,,,,,,,,,,,,,,,,,,,1533.0,,,60394fde95a5a03dcc668c4b,16:55:33,27/03/2024
html-keyboard-response,47,87578,0.0-22.0-0.0,847.0,"<div style=""display: flex; flex-direction: column; align-items: center; margin-top: -40px;""><img src=""images/pattern_3.png"" style=""width: 234px; height: 230px; margin-top: -50px;""><div style=""display: flex; justify-content: space-between; margin-top: 33px;""><img src=""images/choice_trial_16.png"" style=""width: 408px; height: 417px; margin-right: 200px;""><img src=""images/choice_trial_6.png"" style=""width: 408px; height: 417px;""></div></div>",f,delaylearn,learning,trial,xrE6pwXf6nOfeb59ns940WYZyNl1,xrE6pwXf6nOfeb59ns940WYZyNl1,4.0,images/choice_trial_16.png,images/choice_trial_6.png,images/pattern_3.png,f,f,7000.0,16.0,6.0,2.0,0.0,9.0,1.0,1.0,16.0,70.0,,,,,,60394fde95a5a03dcc668c4b,16:55:33,27/03/2024
html-keyboard-response,48,88588,0.0-22.0-1.0,,"<div style=""display: flex; flex-direction: column; align-items: center; margin-top: -40px;""><img src=""images/pattern_3.png"" style=""width: 234px; height: 230px; margin-top: -50px;""><div style=""display: flex; justify-content: space-between; margin-top: 33px;""><img src=""images/choice_trial_16.png"" style=""width: 408px; height: 417px; margin-right: 608px;""></div></div>",,delaylearn,learning,display_response,xrE6pwXf6nOfeb59ns940WYZyNl1,xrE6pwXf6nOfeb59ns940WYZyNl1,,,,,,,,,,,,,,,,,chosen stimuli: images/choice_trial_16.png,,,,,60394fde95a5a03dcc668c4b,16:55:33,27/03/2024
html-keyboard-response,49,95600,0.0-22.0-2.0,,,,delaylearn,learning,feedback_duration_window,xrE6pwXf6nOfeb59ns940WYZyNl1,xrE6pwXf6nOfeb59ns940WYZyNl1,,,,,,,,,,,,,,,,,,7000.0,,,,60394fde95a5a03dcc668c4b,16:55:33,27/03/2024
html-keyboard-response,50,97106,0.0-22.0-3.0,,<div style='margin:auto;width: auto; font-size: 150%'><span style='font-weight: bold; font-size: 100px; color: green;'>+10 points!</span><br><br></div>,,delaylearn,learning,feedback_image_window,xrE6pwXf6nOfeb59ns940WYZyNl1,xrE6pwXf6nOfeb59ns940WYZyNl1,,,,,,,,,,,,,,,,,,,,,,60394fde95a5a03dcc668c4b,16:55:33,27/03/2024
html-keyboard-response,51,99525,0.0-23.0,,"<div style=""font-size:100px;"">+</div>",,delaylearn,learning,ITI,xrE6pwXf6nOfeb59ns940WYZyNl1,xrE6pwXf6nOfeb59ns940WYZyNl1,,,,,,,,,,,,,,,,,,,2408.0,,,60394fde95a5a03dcc668c4b,16:55:33,27/03/2024
html-keyboard-response,52,101308,0.0-24.0-0.0,1781.3000000715256,"<div style=""display: flex; flex-direction: column; align-items: center; margin-top: -40px;""><img src=""images/pattern_7.png"" style=""width: 234px; height: 230px; margin-top: -50px;""><div style=""display: flex; justify-content: space-between; margin-top: 33px;""><img src=""images/choice_trial_4.png"" style=""width: 408px; height: 417px; margin-right: 200px;""><img src=""images/choice_trial_13.png"" style=""width: 408px; height: 417px;""></div></div>",f,delaylearn,learning,trial,xrE6pwXf6nOfeb59ns940WYZyNl1,xrE6pwXf6nOfeb59ns940WYZyNl1,4.0,images/choice_trial_4.png,images/choice_trial_13.png,images/pattern_7.png,j,j,750.0,4.0,13.0,6.0,1.0,10.0,0.0,0.0,4.0,70.0,,,,,,60394fde95a5a03dcc668c4b,16:55:33,27/03/2024
html-keyboard-response,53,102320,0.0-24.0-1.0,,"<div style=""display: flex; flex-direction: column; align-items: center; margin-top: -40px;""><img src=""images/pattern_7.png"" style=""width: 234px; height: 230px; margin-top: -50px;""><div style=""display: flex; justify-content: space-between; margin-top: 33px;""><img src=""images/choice_trial_4.png"" style=""width: 408px; height: 417px; margin-right: 608px;""></div></div>",,delaylearn,learning,display_response,xrE6pwXf6nOfeb59ns940WYZyNl1,xrE6pwXf6nOfeb59ns940WYZyNl1,,,,,,,,,,,,,,,,,chosen stimuli: images/choice_trial_4.png,,,,,60394fde95a5a03dcc668c4b,16:55:33,27/03/2024
html-keyboard-response,54,103087,0.0-24.0-2.0,,,,delaylearn,learning,feedback_duration_window,xrE6pwXf6nOfeb59ns940WYZyNl1,xrE6pwXf6nOfeb59ns940WYZyNl1,,,,,,,,,,,,,,,,,,750.0,,,,60394fde95a5a03dcc668c4b,16:55:33,27/03/2024
html-keyboard-response,55,104597,0.0-24.0-3.0,,<div style='margin:auto;width: auto; font-size: 150%'><span style='font-weight: bold; font-size: 100px; color: red;'>0 points!</span><br><br></div>,,delaylearn,learning,feedback_image_window,xrE6pwXf6nOfeb59ns940WYZyNl1,xrE6pwXf6nOfeb59ns940WYZyNl1,,,,,,,,,,,,,,,,,,,,,,60394fde95a5a03dcc668c4b,16:55:33,27/03/2024
html-keyboard-response,56,107016,0.0-25.0,,"<div style=""font-size:100px;"">+</div>",,delaylearn,learning,ITI,xrE6pwXf6nOfeb59ns940WYZyNl1,xrE6pwXf6nOfeb59ns940WYZyNl1,,,,,,,,,,,,,,,,,,,2404.0,,,60394fde95a5a03dcc668c4b,16:55:33,27/03/2024
html-keyboard-response,57,108019,0.0-26.0-0.0,1001.2000000476837,"<div style=""display: flex; flex-direction: column; align-items: center; margin-top: -40px;""><img src=""images/pattern_4.png"" style=""width: 234px; height: 230px; margin-top: -50px;""><div style=""display: flex; justify-content: space-between; margin-top: 33px;""><img src=""images/choice_trial_8.png"" style=""width: 408px; height: 417px; margin-right: 200px;""><img src=""images/choice_trial_7.png"" style=""width: 408px; height: 417px;""></div></div>",f,delaylearn,learning,trial,xrE6pwXf6nOfeb59ns940WYZyNl1,xrE6pwXf6nOfeb59ns940WYZyNl1,4.0,images/choice_trial_8.png,images/choice_trial_7.png,images/pattern_4.png,f,f,7000.0,8.0,7.0,3.0,0.0,11.0,1.0,1.0,8.0,80.0,,,,,,60394fde95a5a03dcc668c4b,16:55:33,27/03/2024
html-keyboard-response,58,109029,0.0-26.0-1.0,,"<div style=""display: flex; flex-direction: column; align-items: center; margin-top: -40px;""><img src=""images/pattern_4.png"" style=""width: 234px; height: 230px; margin-top: -50px;""><div style=""display: flex; justify-content: space-between; margin-top: 33px;""><img src=""images/choice_trial_8.png"" style=""width: 408px; height: 417px; margin-right: 608px;""></div></div>",,delaylearn,learning,display_response,xrE6pwXf6nOfeb59ns940WYZyNl1,xrE6pwXf6nOfeb59ns940WYZyNl1,,,,,,,,,,,,,,,,,chosen stimuli: images/choice_trial_8.png,,,,,60394fde95a5a03dcc668c4b,16:55:33,27/03/2024
html-keyboard-response,59,116040,0.0-26.0-2.0,,,,delaylearn,learning,feedback_duration_window,xrE6pwXf6nOfeb59ns940WYZyNl1,xrE6pwXf6nOfeb59ns940WYZyNl1,,,,,,,,,,,,,,,,,,7000.0,,,,60394fde95a5a03dcc668c4b,16:55:33,27/03/2024
html-keyboard-response,60,117552,0.0-26.0-3.0,,<div style='margin:auto;width: auto; font-size: 150%'><span style='font-weight: bold; font-size: 100px; color: green;'>+10 points!</span><br><br></div>,,delaylearn,learning,feedback_image_window,xrE6pwXf6nOfeb59ns940WYZyNl1,xrE6pwXf6nOfeb59ns940WYZyNl1,,,,,,,,,,,,,,,,,,,,,,60394fde95a5a03dcc668c4b,16:55:33,27/03/2024
html-keyboard-response,61,119198,0.0-27.0,,"<div style=""font-size:100px;"">+</div>",,delaylearn,learning,ITI,xrE6pwXf6nOfeb59ns940WYZyNl1,xrE6pwXf6nOfeb59ns940WYZyNl1,,,,,,,,,,,,,,,,,,,1635.0,,,60394fde95a5a03dcc668c4b,16:55:33,27/03/2024
html-keyboard-response,62,120068,0.0-28.0-0.0,867.2999999523163,"<div style=""display: flex; flex-direction: column; align-items: center; margin-top: -40px;""><img src=""images/pattern_5.png"" style=""width: 234px; height: 230px; margin-top: -50px;""><div style=""display: flex; justify-content: space-between; margin-top: 33px;""><img src=""images/choice_trial_15.png"" style=""width: 408px; height: 417px; margin-right: 200px;""><img src=""images/choice_trial_5.png"" style=""width: 408px; height: 417px;""></div></div>",f,delaylearn,learning,trial,xrE6pwXf6nOfeb59ns940WYZyNl1,xrE6pwXf6nOfeb59ns940WYZyNl1,4.0,images/choice_trial_15.png,images/choice_trial_5.png,images/pattern_5.png,j,j,750.0,15.0,5.0,4.0,1.0,12.0,0.0,0.0,15.0,80.0,,,,,,60394fde95a5a03dcc668c4b,16:55:33,27/03/2024
html-keyboard-response,63,121084,0.0-28.0-1.0,,"<div style=""display: flex; flex-direction: column; align-items: center; margin-top: -40px;""><img src=""images/pattern_5.png"" style=""width: 234px; height: 230px; margin-top: -50px;""><div style=""display: flex; justify-content: space-between; margin-top: 33px;""><img src=""images/choice_trial_15.png"" style=""width: 408px; height: 417px; margin-right: 608px;""></div></div>",,delaylearn,learning,display_response,xrE6pwXf6nOfeb59ns940WYZyNl1,xrE6pwXf6nOfeb59ns940WYZyNl1,,,,,,,,,,,,,,,,,chosen stimuli: images/choice_trial_15.png,,,,,60394fde95a5a03dcc668c4b,16:55:33,27/03/2024
html-keyboard-response,64,121849,0.0-28.0-2.0,,,,delaylearn,learning,feedback_duration_window,xrE6pwXf6nOfeb59ns940WYZyNl1,xrE6pwXf6nOfeb59ns940WYZyNl1,,,,,,,,,,,,,,,,,,750.0,,,,60394fde95a5a03dcc668c4b,16:55:33,27/03/2024
html-keyboard-response,65,123364,0.0-28.0-3.0,,<div style='margin:auto;width: auto; font-size: 150%'><span style='font-weight: bold; font-size: 100px; color: red;'>0 points!</span><br><br></div>,,delaylearn,learning,feedback_image_window,xrE6pwXf6nOfeb59ns940WYZyNl1,xrE6pwXf6nOfeb59ns940WYZyNl1,,,,,,,,,,,,,,,,,,,,,,60394fde95a5a03dcc668c4b,16:55:33,27/03/2024
html-keyboard-response,66,125373,0.0-29.0,,"<div style=""font-size:100px;"">+</div>",,delaylearn,learning,ITI,xrE6pwXf6nOfeb59ns940WYZyNl1,xrE6pwXf6nOfeb59ns940WYZyNl1,,,,,,,,,,,,,,,,,,,1997.0,,,60394fde95a5a03dcc668c4b,16:55:33,27/03/2024
html-keyboard-response,67,126080,0.0-30.0-0.0,705.1000000238419,"<div style=""display: flex; flex-direction: column; align-items: center; margin-top: -40px;""><img src=""images/pattern_6.png"" style=""width: 234px; height: 230px; margin-top: -50px;""><div style=""display: flex; justify-content: space-between; margin-top: 33px;""><img src=""images/choice_trial_10.png"" style=""width: 408px; height: 417px; margin-right: 200px;""><img src=""images/choice_trial_3.png"" style=""width: 408px; height: 417px;""></div></div>",f,delaylearn,learning,trial,xrE6pwXf6nOfeb59ns940WYZyNl1,xrE6pwXf6nOfeb59ns940WYZyNl1,4.0,images/choice_trial_10.png,images/choice_trial_3.png,images/pattern_6.png,j,f,750.0,10.0,3.0,5.0,0.0,13.0,1.0,0.0,10.0,80.0,,,,,,60394fde95a5a03dcc668c4b,16:55:33,27/03/2024
html-keyboard-response,68,127090,0.0-30.0-1.0,,"<div style=""display: flex; flex-direction: column; align-items: center; margin-top: -40px;""><img src=""images/pattern_6.png"" style=""width: 234px; height: 230px; margin-top: -50px;""><div style=""display: flex; justify-content: space-between; margin-top: 33px;""><img src=""images/choice_trial_10.png"" style=""width: 408px; height: 417px; margin-right: 608px;""></div></div>",,delaylearn,learning,display_response,xrE6pwXf6nOfeb59ns940WYZyNl1,xrE6pwXf6nOfeb59ns940WYZyNl1,,,,,,,,,,,,,,,,,chosen stimuli: images/choice_trial_10.png,,,,,60394fde95a5a03dcc668c4b,16:55:33,27/03/2024
html-keyboard-response,69,127852,0.0-30.0-2.0,,,,delaylearn,learning,feedback_duration_window,xrE6pwXf6nOfeb59ns940WYZyNl1,xrE6pwXf6nOfeb59ns940WYZyNl1,,,,,,,,,,,,,,,,,,750.0,,,,60394fde95a5a03dcc668c4b,16:55:33,27/03/2024
html-keyboard-response,70,129364,0.0-30.0-3.0,,<div style='margin:auto;width: auto; font-size: 150%'><span style='font-weight: bold; font-size: 100px; color: red;'>0 points!</span><br><br></div>,,delaylearn,learning,feedback_image_window,xrE6pwXf6nOfeb59ns940WYZyNl1,xrE6pwXf6nOfeb59ns940WYZyNl1,,,,,,,,,,,,,,,,,,,,,,60394fde95a5a03dcc668c4b,16:55:33,27/03/2024
html-keyboard-response,71,129872,0.0-31.0-0.0,,,,,,mood_trial_fixation,xrE6pwXf6nOfeb59ns940WYZyNl1,,,,,,,,,,,,,,,,,,,,,,,60394fde95a5a03dcc668c4b,16:55:33,27/03/2024
lmdlab-html-vas-response,72,134943,0.0-31.0-1.0,4057.0,How happy are you right now?,0.4930555555555556,delaylearn,learning,mood_trial,xrE6pwXf6nOfeb59ns940WYZyNl1,xrE6pwXf6nOfeb59ns940WYZyNl1,,,,,,,,,,,,,,,,,,,,"['Very unhappy', 'Very happy']",,60394fde95a5a03dcc668c4b,16:55:33,27/03/2024
html-keyboard-response,73,137020,0.0-32.0,,"<div style=""font-size:100px;"">+</div>",,delaylearn,learning,ITI,xrE6pwXf6nOfeb59ns940WYZyNl1,xrE6pwXf6nOfeb59ns940WYZyNl1,,,,,,,,,,,,,,,,,,,2064.0,,,60394fde95a5a03dcc668c4b,16:55:33,27/03/2024
html-keyboard-response,74,138352,0.0-33.0-0.0,1329.5,"<div style=""display: flex; flex-direction: column; align-items: center; margin-top: -40px;""><img src=""images/pattern_1.png"" style=""width: 234px; height: 230px; margin-top: -50px;""><div style=""display: flex; justify-content: space-between; margin-top: 33px;""><img src=""images/choice_trial_9.png"" style=""width: 408px; height: 417px; margin-right: 200px;""><img src=""images/choice_trial_1.png"" style=""width: 408px; height: 417px;""></div></div>",j,delaylearn,learning,trial,xrE6pwXf6nOfeb59ns940WYZyNl1,xrE6pwXf6nOfeb59ns940WYZyNl1,4.0,images/choice_trial_9.png,images/choice_trial_1.png,images/pattern_1.png,j,j,7000.0,9.0,1.0,1.0,1.0,14.0,1.0,1.0,1.0,90.0,,,,,,60394fde95a5a03dcc668c4b,16:55:33,27/03/2024
html-keyboard-response,75,139357,0.0-33.0-1.0,,"<div style=""display: flex; flex-direction: column; align-items: center; margin-top: -40px;""><img src=""images/pattern_1.png"" style=""width: 234px; height: 230px; margin-top: -50px;""><div style=""display: flex; justify-content: space-between; margin-top: 33px;""><img src=""images/choice_trial_1.png"" style=""width: 408px; height: 417px; margin-left:608px;""></div></div>",,delaylearn,learning,display_response,xrE6pwXf6nOfeb59ns940WYZyNl1,xrE6pwXf6nOfeb59ns940WYZyNl1,,,,,,,,,,,,,,,,,chosen stimuli: images/choice_trial_1.png,,,,,60394fde95a5a03dcc668c4b,16:55:33,27/03/2024
html-keyboard-response,76,146359,0.0-33.0-2.0,,,,delaylearn,learning,feedback_duration_window,xrE6pwXf6nOfeb59ns940WYZyNl1,xrE6pwXf6nOfeb59ns940WYZyNl1,,,,,,,,,,,,,,,,,,7000.0,,,,60394fde95a5a03dcc668c4b,16:55:33,27/03/2024
html-keyboard-response,77,147866,0.0-33.0-3.0,,<div style='margin:auto;width: auto; font-size: 150%'><span style='font-weight: bold; font-size: 100px; color: green;'>+10 points!</span><br><br></div>,,delaylearn,learning,feedback_image_window,xrE6pwXf6nOfeb59ns940WYZyNl1,xrE6pwXf6nOfeb59ns940WYZyNl1,,,,,,,,,,,,,,,,,,,,,,60394fde95a5a03dcc668c4b,16:55:33,27/03/2024
html-keyboard-response,78,150071,0.0-34.0,,"<div style=""font-size:100px;"">+</div>",,delaylearn,learning,ITI,xrE6pwXf6nOfeb59ns940WYZyNl1,xrE6pwXf6nOfeb59ns940WYZyNl1,,,,,,,,,,,,,,,,,,,2196.0,,,60394fde95a5a03dcc668c4b,16:55:33,27/03/2024
html-keyboard-response,79,151254,0.0-35.0-0.0,1180.5,"<div style=""display: flex; flex-direction: column; align-items: center; margin-top: -40px;""><img src=""images/pattern_3.png"" style=""width: 234px; height: 230px; margin-top: -50px;""><div style=""display: flex; justify-content: space-between; margin-top: 33px;""><img src=""images/choice_trial_6.png"" style=""width: 408px; height: 417px; margin-right: 200px;""><img src=""images/choice_trial_16.png"" style=""width: 408px; height: 417px;""></div></div>",j,delaylearn,learning,trial,xrE6pwXf6nOfeb59ns940WYZyNl1,xrE6pwXf6nOfeb59ns940WYZyNl1,4.0,images/choice_trial_6.png,images/choice_trial_16.png,images/pattern_3.png,f,j,7000.0,6.0,16.0,2.0,1.0,15.0,1.0,0.0,16.0,90.0,,,,,,60394fde95a5a03dcc668c4b,16:55:33,27/03/2024
html-keyboard-response,80,152269,0.0-35.0-1.0,,"<div style=""display: flex; flex-direction: column; align-items: center; margin-top: -40px;""><img src=""images/pattern_3.png"" style=""width: 234px; height: 230px; margin-top: -50px;""><div style=""display: flex; justify-content: space-between; margin-top: 33px;""><img src=""images/choice_trial_16.png"" style=""width: 408px; height: 417px; margin-left:608px;""></div></div>",,delaylearn,learning,display_response,xrE6pwXf6nOfeb59ns940WYZyNl1,xrE6pwXf6nOfeb59ns940WYZyNl1,,,,,,,,,,,,,,,,,chosen stimuli: images/choice_trial_16.png,,,,,60394fde95a5a03dcc668c4b,16:55:33,27/03/2024
html-keyboard-response,81,159278,0.0-35.0-2.0,,,,delaylearn,learning,feedback_duration_window,xrE6pwXf6nOfeb59ns940WYZyNl1,xrE6pwXf6nOfeb59ns940WYZyNl1,,,,,,,,,,,,,,,,,,7000.0,,,,60394fde95a5a03dcc668c4b,16:55:33,27/03/2024
html-keyboard-response,82,160785,0.0-35.0-3.0,,<div style='margin:auto;width: auto; font-size: 150%'><span style='font-weight: bold; font-size: 100px; color: red;'>0 points!</span><br><br></div>,,delaylearn,learning,feedback_image_window,xrE6pwXf6nOfeb59ns940WYZyNl1,xrE6pwXf6nOfeb59ns940WYZyNl1,,,,,,,,,,,,,,,,,,,,,,60394fde95a5a03dcc668c4b,16:55:33,27/03/2024
html-keyboard-response,83,163128,0.0-36.0,,"<div style=""font-size:100px;"">+</div>",,delaylearn,learning,ITI,xrE6pwXf6nOfeb59ns940WYZyNl1,xrE6pwXf6nOfeb59ns940WYZyNl1,,,,,,,,,,,,,,,,,,,2335.0,,,60394fde95a5a03dcc668c4b,16:55:33,27/03/2024
html-keyboard-response,84,163900,0.0-37.0-0.0,769.2999999523163,"<div style=""display: flex; flex-direction: column; align-items: center; margin-top: -40px;""><img src=""images/pattern_5.png"" style=""width: 234px; height: 230px; margin-top: -50px;""><div style=""display: flex; justify-content: space-between; margin-top: 33px;""><img src=""images/choice_trial_5.png"" style=""width: 408px; height: 417px; margin-right: 200px;""><img src=""images/choice_trial_15.png"" style=""width: 408px; height: 417px;""></div></div>",f,delaylearn,learning,trial,xrE6pwXf6nOfeb59ns940WYZyNl1,xrE6pwXf6nOfeb59ns940WYZyNl1,4.0,images/choice_trial_5.png,images/choice_trial_15.png,images/pattern_5.png,f,f,750.0,5.0,15.0,4.0,0.0,16.0,1.0,1.0,5.0,100.0,,,,,,60394fde95a5a03dcc668c4b,16:55:33,27/03/2024
html-keyboard-response,85,164911,0.0-37.0-1.0,,"<div style=""display: flex; flex-direction: column; align-items: center; margin-top: -40px;""><img src=""images/pattern_5.png"" style=""width: 234px; height: 230px; margin-top: -50px;""><div style=""display: flex; justify-content: space-between; margin-top: 33px;""><img src=""images/choice_trial_5.png"" style=""width: 408px; height: 417px; margin-right: 608px;""></div></div>",,delaylearn,learning,display_response,xrE6pwXf6nOfeb59ns940WYZyNl1,xrE6pwXf6nOfeb59ns940WYZyNl1,,,,,,,,,,,,,,,,,chosen stimuli: images/choice_trial_5.png,,,,,60394fde95a5a03dcc668c4b,16:55:33,27/03/2024
html-keyboard-response,86,165663,0.0-37.0-2.0,,,,delaylearn,learning,feedback_duration_window,xrE6pwXf6nOfeb59ns940WYZyNl1,xrE6pwXf6nOfeb59ns940WYZyNl1,,,,,,,,,,,,,,,,,,750.0,,,,60394fde95a5a03dcc668c4b,16:55:33,27/03/2024
html-keyboard-response,87,167175,0.0-37.0-3.0,,<div style='margin:auto;width: auto; font-size: 150%'><span style='font-weight: bold; font-size: 100px; color: green;'>+10 points!</span><br><br></div>,,delaylearn,learning,feedback_image_window,xrE6pwXf6nOfeb59ns940WYZyNl1,xrE6pwXf6nOfeb59ns940WYZyNl1,,,,,,,,,,,,,,,,,,,,,,60394fde95a5a03dcc668c4b,16:55:33,27/03/2024
html-keyboard-response,88,167679,0.0-38.0-0.0,,,,,,mood_trial_fixation,xrE6pwXf6nOfeb59ns940WYZyNl1,,,,,,,,,,,,,,,,,,,,,,,60394fde95a5a03dcc668c4b,16:55:33,27/03/2024
lmdlab-html-vas-response,89,172353,0.0-38.0-1.0,3662.0,How happy are you right now?,0.7129629629629629,delaylearn,learning,mood_trial,xrE6pwXf6nOfeb59ns940WYZyNl1,xrE6pwXf6nOfeb59ns940WYZyNl1,,,,,,,,,,,,,,,,,,,,"['Very unhappy', 'Very happy']",,60394fde95a5a03dcc668c4b,16:55:33,27/03/2024
html-keyboard-response,90,174217,0.0-39.0,,"<div style=""font-size:100px;"">+</div>",,delaylearn,learning,ITI,xrE6pwXf6nOfeb59ns940WYZyNl1,xrE6pwXf6nOfeb59ns940WYZyNl1,,,,,,,,,,,,,,,,,,,1851.0,,,60394fde95a5a03dcc668c4b,16:55:33,27/03/2024
html-keyboard-response,91,176683,0.0-40.0-0.0,2464.600000023842,"<div style=""display: flex; flex-direction: column; align-items: center; margin-top: -40px;""><img src=""images/pattern_6.png"" style=""width: 234px; height: 230px; margin-top: -50px;""><div style=""display: flex; justify-content: space-between; margin-top: 33px;""><img src=""images/choice_trial_10.png"" style=""width: 408px; height: 417px; margin-right: 200px;""><img src=""images/choice_trial_3.png"" style=""width: 408px; height: 417px;""></div></div>",j,delaylearn,learning,trial,xrE6pwXf6nOfeb59ns940WYZyNl1,xrE6pwXf6nOfeb59ns940WYZyNl1,4.0,images/choice_trial_10.png,images/choice_trial_3.png,images/pattern_6.png,f,f,750.0,10.0,3.0,5.0,0.0,17.0,0.0,0.0,3.0,100.0,,,,,,60394fde95a5a03dcc668c4b,16:55:33,27/03/2024
html-keyboard-response,92,177697,0.0-40.0-1.0,,"<div style=""display: flex; flex-direction: column; align-items: center; margin-top: -40px;""><img src=""images/pattern_6.png"" style=""width: 234px; height: 230px; margin-top: -50px;""><div style=""display: flex; justify-content: space-between; margin-top: 33px;""><img src=""images/choice_trial_3.png"" style=""width: 408px; height: 417px; margin-left:608px;""></div></div>",,delaylearn,learning,display_response,xrE6pwXf6nOfeb59ns940WYZyNl1,xrE6pwXf6nOfeb59ns940WYZyNl1,,,,,,,,,,,,,,,,,chosen stimuli: images/choice_trial_3.png,,,,,60394fde95a5a03dcc668c4b,16:55:33,27/03/2024
html-keyboard-response,93,178449,0.0-40.0-2.0,,,,delaylearn,learning,feedback_duration_window,xrE6pwXf6nOfeb59ns940WYZyNl1,xrE6pwXf6nOfeb59ns940WYZyNl1,,,,,,,,,,,,,,,,,,750.0,,,,60394fde95a5a03dcc668c4b,16:55:33,27/03/2024
html-keyboard-response,94,179964,0.0-40.0-3.0,,<div style='margin:auto;width: auto; font-size: 150%'><span style='font-weight: bold; font-size: 100px; color: red;'>0 points!</span><br><br></div>,,delaylearn,learning,feedback_image_window,xrE6pwXf6nOfeb59ns940WYZyNl1,xrE6pwXf6nOfeb59ns940WYZyNl1,,,,,,,,,,,,,,,,,,,,,,60394fde95a5a03dcc668c4b,16:55:33,27/03/2024
html-keyboard-response,95,181532,0.0-41.0,,"<div style=""font-size:100px;"">+</div>",,delaylearn,learning,ITI,xrE6pwXf6nOfeb59ns940WYZyNl1,xrE6pwXf6nOfeb59ns940WYZyNl1,,,,,,,,,,,,,,,,,,,1552.0,,,60394fde95a5a03dcc668c4b,16:55:33,27/03/2024
html-keyboard-response,96,183102,0.0-42.0-0.0,1568.0999999046326,"<div style=""display: flex; flex-direction: column; align-items: center; margin-top: -40px;""><img src=""images/pattern_4.png"" style=""width: 234px; height: 230px; margin-top: -50px;""><div style=""display: flex; justify-content: space-between; margin-top: 33px;""><img src=""images/choice_trial_7.png"" style=""width: 408px; height: 417px; margin-right: 200px;""><img src=""images/choice_trial_8.png"" style=""width: 408px; height: 417px;""></div></div>",f,delaylearn,learning,trial,xrE6pwXf6nOfeb59ns940WYZyNl1,xrE6pwXf6nOfeb59ns940WYZyNl1,4.0,images/choice_trial_7.png,images/choice_trial_8.png,images/pattern_4.png,j,j,7000.0,7.0,8.0,3.0,1.0,18.0,0.0,0.0,7.0,100.0,,,,,,60394fde95a5a03dcc668c4b,16:55:33,27/03/2024
html-keyboard-response,97,184110,0.0-42.0-1.0,,"<div style=""display: flex; flex-direction: column; align-items: center; margin-top: -40px;""><img src=""images/pattern_4.png"" style=""width: 234px; height: 230px; margin-top: -50px;""><div style=""display: flex; justify-content: space-between; margin-top: 33px;""><img src=""images/choice_trial_7.png"" style=""width: 408px; height: 417px; margin-right: 608px;""></div></div>",,delaylearn,learning,display_response,xrE6pwXf6nOfeb59ns940WYZyNl1,xrE6pwXf6nOfeb59ns940WYZyNl1,,,,,,,,,,,,,,,,,chosen stimuli: images/choice_trial_7.png,,,,,60394fde95a5a03dcc668c4b,16:55:33,27/03/2024
html-keyboard-response,98,191123,0.0-42.0-2.0,,,,delaylearn,learning,feedback_duration_window,xrE6pwXf6nOfeb59ns940WYZyNl1,xrE6pwXf6nOfeb59ns940WYZyNl1,,,,,,,,,,,,,,,,,,7000.0,,,,60394fde95a5a03dcc668c4b,16:55:33,27/03/2024
html-keyboard-response,99,192626,0.0-42.0-3.0,,<div style='margin:auto;width: auto; font-size: 150%'><span style='font-weight: bold; font-size: 100px; color: red;'>0 points!</span><br><br></div>,,delaylearn,learning,feedback_image_window,xrE6pwXf6nOfeb59ns940WYZyNl1,xrE6pwXf6nOfeb59ns940WYZyNl1,,,,,,,,,,,,,,,,,,,,,,60394fde95a5a03dcc668c4b,16:55:33,27/03/2024
html-keyboard-response,100,194562,0.0-43.0,,"<div style=""font-size:100px;"">+</div>",,delaylearn,learning,ITI,xrE6pwXf6nOfeb59ns940WYZyNl1,xrE6pwXf6nOfeb59ns940WYZyNl1,,,,,,,,,,,,,,,,,,,1924.0,,,60394fde95a5a03dcc668c4b,16:55:33,27/03/2024
html-keyboard-response,101,195423,0.0-44.0-0.0,858.7000000476837,"<div style=""display: flex; flex-direction: column; align-items: center; margin-top: -40px;""><img src=""images/pattern_7.png"" style=""width: 234px; height: 230px; margin-top: -50px;""><div style=""display: flex; justify-content: space-between; margin-top: 33px;""><img src=""images/choice_trial_13.png"" style=""width: 408px; height: 417px; margin-right: 200px;""><img src=""images/choice_trial_4.png"" style=""width: 408px; height: 417px;""></div></div>",j,delaylearn,learning,trial,xrE6pwXf6nOfeb59ns940WYZyNl1,xrE6pwXf6nOfeb59ns940WYZyNl1,4.0,images/choice_trial_13.png,images/choice_trial_4.png,images/pattern_7.png,j,f,750.0,13.0,4.0,6.0,0.0,19.0,0.0,1.0,4.0,110.0,,,,,,60394fde95a5a03dcc668c4b,16:55:33,27/03/2024
html-keyboard-response,102,196438,0.0-44.0-1.0,,"<div style=""display: flex; flex-direction: column; align-items: center; margin-top: -40px;""><img src=""images/pattern_7.png"" style=""width: 234px; height: 230px; margin-top: -50px;""><div style=""display: flex; justify-content: space-between; margin-top: 33px;""><img src=""images/choice_trial_4.png"" style=""width: 408px; height: 417px; margin-left:608px;""></div></div>",,delaylearn,learning,display_response,xrE6pwXf6nOfeb59ns940WYZyNl1,xrE6pwXf6nOfeb59ns940WYZyNl1,,,,,,,,,,,,,,,,,chosen stimuli: images/choice_trial_4.png,,,,,60394fde95a5a03dcc668c4b,16:55:33,27/03/2024
html-keyboard-response,103,197191,0.0-44.0-2.0,,,,delaylearn,learning,feedback_duration_window,xrE6pwXf6nOfeb59ns940WYZyNl1,xrE6pwXf6nOfeb59ns940WYZyNl1,,,,,,,,,,,,,,,,,,750.0,,,,60394fde95a5a03dcc668c4b,16:55:33,27/03/2024
html-keyboard-response,104,198697,0.0-44.0-3.0,,<div style='margin:auto;width: auto; font-size: 150%'><span style='font-weight: bold; font-size: 100px; color: green;'>+10 points!</span><br><br></div>,,delaylearn,learning,feedback_image_window,xrE6pwXf6nOfeb59ns940WYZyNl1,xrE6pwXf6nOfeb59ns940WYZyNl1,,,,,,,,,,,,,,,,,,,,,,60394fde95a5a03dcc668c4b,16:55:33,27/03/2024
html-keyboard-response,105,201066,0.0-45.0,,"<div style=""font-size:100px;"">+</div>",,delaylearn,learning,ITI,xrE6pwXf6nOfeb59ns940WYZyNl1,xrE6pwXf6nOfeb59ns940WYZyNl1,,,,,,,,,,,,,,,,,,,2364.0,,,60394fde95a5a03dcc668c4b,16:55:33,27/03/2024
html-keyboard-response,106,203038,0.0-46.0-0.0,1969.6000000238419,"<div style=""display: flex; flex-direction: column; align-items: center; margin-top: -40px;""><img src=""images/pattern_1.png"" style=""width: 234px; height: 230px; margin-top: -50px;""><div style=""display: flex; justify-content: space-between; margin-top: 33px;""><img src=""images/choice_trial_1.png"" style=""width: 408px; height: 417px; margin-right: 200px;""><img src=""images/choice_trial_9.png"" style=""width: 408px; height: 417px;""></div></div>",f,delaylearn,learning,trial,xrE6pwXf6nOfeb59ns940WYZyNl1,xrE6pwXf6nOfeb59ns940WYZyNl1,4.0,images/choice_trial_1.png,images/choice_trial_9.png,images/pattern_1.png,f,f,7000.0,1.0,9.0,1.0,0.0,20.0,1.0,1.0,1.0,120.0,,,,,,60394fde95a5a03dcc668c4b,16:55:33,27/03/2024
html-keyboard-response,107,204047,0.0-46.0-1.0,,"<div style=""display: flex; flex-direction: column; align-items: center; margin-top: -40px;""><img src=""images/pattern_1.png"" style=""width: 234px; height: 230px; margin-top: -50px;""><div style=""display: flex; justify-content: space-between; margin-top: 33px;""><img src=""images/choice_trial_1.png"" style=""width: 408px; height: 417px; margin-right: 608px;""></div></div>",,delaylearn,learning,display_response,xrE6pwXf6nOfeb59ns940WYZyNl1,xrE6pwXf6nOfeb59ns940WYZyNl1,,,,,,,,,,,,,,,,,chosen stimuli: images/choice_trial_1.png,,,,,60394fde95a5a03dcc668c4b,16:55:33,27/03/2024
html-keyboard-response,108,211058,0.0-46.0-2.0,,,,delaylearn,learning,feedback_duration_window,xrE6pwXf6nOfeb59ns940WYZyNl1,xrE6pwXf6nOfeb59ns940WYZyNl1,,,,,,,,,,,,,,,,,,7000.0,,,,60394fde95a5a03dcc668c4b,16:55:33,27/03/2024
html-keyboard-response,109,212573,0.0-46.0-3.0,,<div style='margin:auto;width: auto; font-size: 150%'><span style='font-weight: bold; font-size: 100px; color: green;'>+10 points!</span><br><br></div>,,delaylearn,learning,feedback_image_window,xrE6pwXf6nOfeb59ns940WYZyNl1,xrE6pwXf6nOfeb59ns940WYZyNl1,,,,,,,,,,,,,,,,,,,,,,60394fde95a5a03dcc668c4b,16:55:33,27/03/2024
html-keyboard-response,110,214156,0.0-47.0,,"<div style=""font-size:100px;"">+</div>",,delaylearn,learning,ITI,xrE6pwXf6nOfeb59ns940WYZyNl1,xrE6pwXf6nOfeb59ns940WYZyNl1,,,,,,,,,,,,,,,,,,,1572.0,,,60394fde95a5a03dcc668c4b,16:55:33,27/03/2024
html-keyboard-response,111,215915,0.0-48.0-0.0,1756.8999999761581,"<div style=""display: flex; flex-direction: column; align-items: center; margin-top: -40px;""><img src=""images/pattern_6.png"" style=""width: 234px; height: 230px; margin-top: -50px;""><div style=""display: flex; justify-content: space-between; margin-top: 33px;""><img src=""images/choice_trial_3.png"" style=""width: 408px; height: 417px; margin-right: 200px;""><img src=""images/choice_trial_10.png"" style=""width: 408px; height: 417px;""></div></div>",f,delaylearn,learning,trial,xrE6pwXf6nOfeb59ns940WYZyNl1,xrE6pwXf6nOfeb59ns940WYZyNl1,4.0,images/choice_trial_3.png,images/choice_trial_10.png,images/pattern_6.png,j,j,750.0,3.0,10.0,5.0,1.0,21.0,0.0,0.0,3.0,120.0,,,,,,60394fde95a5a03dcc668c4b,16:55:33,27/03/2024
html-keyboard-response,112,216927,0.0-48.0-1.0,,"<div style=""display: flex; flex-direction: column; align-items: center; margin-top: -40px;""><img src=""images/pattern_6.png"" style=""width: 234px; height: 230px; margin-top: -50px;""><div style=""display: flex; justify-content: space-between; margin-top: 33px;""><img src=""images/choice_trial_3.png"" style=""width: 408px; height: 417px; margin-right: 608px;""></div></div>",,delaylearn,learning,display_response,xrE6pwXf6nOfeb59ns940WYZyNl1,xrE6pwXf6nOfeb59ns940WYZyNl1,,,,,,,,,,,,,,,,,chosen stimuli: images/choice_trial_3.png,,,,,60394fde95a5a03dcc668c4b,16:55:33,27/03/2024
html-keyboard-response,113,217689,0.0-48.0-2.0,,,,delaylearn,learning,feedback_duration_window,xrE6pwXf6nOfeb59ns940WYZyNl1,xrE6pwXf6nOfeb59ns940WYZyNl1,,,,,,,,,,,,,,,,,,750.0,,,,60394fde95a5a03dcc668c4b,16:55:33,27/03/2024
html-keyboard-response,114,219194,0.0-48.0-3.0,,<div style='margin:auto;width: auto; font-size: 150%'><span style='font-weight: bold; font-size: 100px; color: red;'>0 points!</span><br><br></div>,,delaylearn,learning,feedback_image_window,xrE6pwXf6nOfeb59ns940WYZyNl1,xrE6pwXf6nOfeb59ns940WYZyNl1,,,,,,,,,,,,,,,,,,,,,,60394fde95a5a03dcc668c4b,16:55:33,27/03/2024
html-keyboard-response,115,221562,0.0-49.0,,"<div style=""font-size:100px;"">+</div>",,delaylearn,learning,ITI,xrE6pwXf6nOfeb59ns940WYZyNl1,xrE6pwXf6nOfeb59ns940WYZyNl1,,,,,,,,,,,,,,,,,,,2351.0,,,60394fde95a5a03dcc668c4b,16:55:33,27/03/2024
html-keyboard-response,116,222612,0.0-50.0-0.0,1048.0,"<div style=""display: flex; flex-direction: column; align-items: center; margin-top: -40px;""><img src=""images/pattern_4.png"" style=""width: 234px; height: 230px; margin-top: -50px;""><div style=""display: flex; justify-content: space-between; margin-top: 33px;""><img src=""images/choice_trial_8.png"" style=""width: 408px; height: 417px; margin-right: 200px;""><img src=""images/choice_trial_7.png"" style=""width: 408px; height: 417px;""></div></div>",j,delaylearn,learning,trial,xrE6pwXf6nOfeb59ns940WYZyNl1,xrE6pwXf6nOfeb59ns940WYZyNl1,4.0,images/choice_trial_8.png,images/choice_trial_7.png,images/pattern_4.png,f,f,7000.0,8.0,7.0,3.0,0.0,22.0,0.0,0.0,7.0,120.0,,,,,,60394fde95a5a03dcc668c4b,16:55:33,27/03/2024
html-keyboard-response,117,223621,0.0-50.0-1.0,,"<div style=""display: flex; flex-direction: column; align-items: center; margin-top: -40px;""><img src=""images/pattern_4.png"" style=""width: 234px; height: 230px; margin-top: -50px;""><div style=""display: flex; justify-content: space-between; margin-top: 33px;""><img src=""images/choice_trial_7.png"" style=""width: 408px; height: 417px; margin-left:608px;""></div></div>",,delaylearn,learning,display_response,xrE6pwXf6nOfeb59ns940WYZyNl1,xrE6pwXf6nOfeb59ns940WYZyNl1,,,,,,,,,,,,,,,,,chosen stimuli: images/choice_trial_7.png,,,,,60394fde95a5a03dcc668c4b,16:55:33,27/03/2024
html-keyboard-response,118,230627,0.0-50.0-2.0,,,,delaylearn,learning,feedback_duration_window,xrE6pwXf6nOfeb59ns940WYZyNl1,xrE6pwXf6nOfeb59ns940WYZyNl1,,,,,,,,,,,,,,,,,,7000.0,,,,60394fde95a5a03dcc668c4b,16:55:33,27/03/2024
html-keyboard-response,119,232145,0.0-50.0-3.0,,<div style='margin:auto;width: auto; font-size: 150%'><span style='font-weight: bold; font-size: 100px; color: red;'>0 points!</span><br><br></div>,,delaylearn,learning,feedback_image_window,xrE6pwXf6nOfeb59ns940WYZyNl1,xrE6pwXf6nOfeb59ns940WYZyNl1,,,,,,,,,,,,,,,,,,,,,,60394fde95a5a03dcc668c4b,16:55:33,27/03/2024
html-keyboard-response,120,232654,0.0-51.0-0.0,,,,,,mood_trial_fixation,xrE6pwXf6nOfeb59ns940WYZyNl1,,,,,,,,,,,,,,,,,,,,,,,60394fde95a5a03dcc668c4b,16:55:33,27/03/2024
lmdlab-html-vas-response,121,239211,0.0-51.0-1.0,5549.0,How happy are you right now?,0.21064814814814814,delaylearn,learning,mood_trial,xrE6pwXf6nOfeb59ns940WYZyNl1,xrE6pwXf6nOfeb59ns940WYZyNl1,,,,,,,,,,,,,,,,,,,,"['Very unhappy', 'Very happy']",,60394fde95a5a03dcc668c4b,16:55:33,27/03/2024
html-keyboard-response,122,241262,0.0-52.0,,"<div style=""font-size:100px;"">+</div>",,delaylearn,learning,ITI,xrE6pwXf6nOfeb59ns940WYZyNl1,xrE6pwXf6nOfeb59ns940WYZyNl1,,,,,,,,,,,,,,,,,,,2035.0,,,60394fde95a5a03dcc668c4b,16:55:33,27/03/2024
html-keyboard-response,123,243133,0.0-53.0-0.0,1869.0,"<div style=""display: flex; flex-direction: column; align-items: center; margin-top: -40px;""><img src=""images/pattern_7.png"" style=""width: 234px; height: 230px; margin-top: -50px;""><div style=""display: flex; justify-content: space-between; margin-top: 33px;""><img src=""images/choice_trial_4.png"" style=""width: 408px; height: 417px; margin-right: 200px;""><img src=""images/choice_trial_13.png"" style=""width: 408px; height: 417px;""></div></div>",f,delaylearn,learning,trial,xrE6pwXf6nOfeb59ns940WYZyNl1,xrE6pwXf6nOfeb59ns940WYZyNl1,4.0,images/choice_trial_4.png,images/choice_trial_13.png,images/pattern_7.png,j,j,750.0,4.0,13.0,6.0,1.0,23.0,0.0,0.0,4.0,120.0,,,,,,60394fde95a5a03dcc668c4b,16:55:33,27/03/2024
html-keyboard-response,124,244142,0.0-53.0-1.0,,"<div style=""display: flex; flex-direction: column; align-items: center; margin-top: -40px;""><img src=""images/pattern_7.png"" style=""width: 234px; height: 230px; margin-top: -50px;""><div style=""display: flex; justify-content: space-between; margin-top: 33px;""><img src=""images/choice_trial_4.png"" style=""width: 408px; height: 417px; margin-right: 608px;""></div></div>",,delaylearn,learning,display_response,xrE6pwXf6nOfeb59ns940WYZyNl1,xrE6pwXf6nOfeb59ns940WYZyNl1,,,,,,,,,,,,,,,,,chosen stimuli: images/choice_trial_4.png,,,,,60394fde95a5a03dcc668c4b,16:55:33,27/03/2024
html-keyboard-response,125,244903,0.0-53.0-2.0,,,,delaylearn,learning,feedback_duration_window,xrE6pwXf6nOfeb59ns940WYZyNl1,xrE6pwXf6nOfeb59ns940WYZyNl1,,,,,,,,,,,,,,,,,,750.0,,,,60394fde95a5a03dcc668c4b,16:55:33,27/03/2024
html-keyboard-response,126,246407,0.0-53.0-3.0,,<div style='margin:auto;width: auto; font-size: 150%'><span style='font-weight: bold; font-size: 100px; color: red;'>0 points!</span><br><br></div>,,delaylearn,learning,feedback_image_window,xrE6pwXf6nOfeb59ns940WYZyNl1,xrE6pwXf6nOfeb59ns940WYZyNl1,,,,,,,,,,,,,,,,,,,,,,60394fde95a5a03dcc668c4b,16:55:33,27/03/2024
html-keyboard-response,127,248909,0.0-54.0,,"<div style=""font-size:100px;"">+</div>",,delaylearn,learning,ITI,xrE6pwXf6nOfeb59ns940WYZyNl1,xrE6pwXf6nOfeb59ns940WYZyNl1,,,,,,,,,,,,,,,,,,,2490.0,,,60394fde95a5a03dcc668c4b,16:55:33,27/03/2024
html-keyboard-response,128,251233,0.0-55.0-0.0,2321.7999999523163,"<div style=""display: flex; flex-direction: column; align-items: center; margin-top: -40px;""><img src=""images/pattern_1.png"" style=""width: 234px; height: 230px; margin-top: -50px;""><div style=""display: flex; justify-content: space-between; margin-top: 33px;""><img src=""images/choice_trial_9.png"" style=""width: 408px; height: 417px; margin-right: 200px;""><img src=""images/choice_trial_1.png"" style=""width: 408px; height: 417px;""></div></div>",j,delaylearn,learning,trial,xrE6pwXf6nOfeb59ns940WYZyNl1,xrE6pwXf6nOfeb59ns940WYZyNl1,4.0,images/choice_trial_9.png,images/choice_trial_1.png,images/pattern_1.png,f,j,7000.0,9.0,1.0,1.0,1.0,24.0,1.0,0.0,1.0,120.0,,,,,,60394fde95a5a03dcc668c4b,16:55:33,27/03/2024
html-keyboard-response,129,252239,0.0-55.0-1.0,,"<div style=""display: flex; flex-direction: column; align-items: center; margin-top: -40px;""><img src=""images/pattern_1.png"" style=""width: 234px; height: 230px; margin-top: -50px;""><div style=""display: flex; justify-content: space-between; margin-top: 33px;""><img src=""images/choice_trial_1.png"" style=""width: 408px; height: 417px; margin-left:608px;""></div></div>",,delaylearn,learning,display_response,xrE6pwXf6nOfeb59ns940WYZyNl1,xrE6pwXf6nOfeb59ns940WYZyNl1,,,,,,,,,,,,,,,,,chosen stimuli: images/choice_trial_1.png,,,,,60394fde95a5a03dcc668c4b,16:55:33,27/03/2024
html-keyboard-response,130,259243,0.0-55.0-2.0,,,,delaylearn,learning,feedback_duration_window,xrE6pwXf6nOfeb59ns940WYZyNl1,xrE6pwXf6nOfeb59ns940WYZyNl1,,,,,,,,,,,,,,,,,,7000.0,,,,60394fde95a5a03dcc668c4b,16:55:33,27/03/2024
html-keyboard-response,131,260759,0.0-55.0-3.0,,<div style='margin:auto;width: auto; font-size: 150%'><span style='font-weight: bold; font-size: 100px; color: red;'>0 points!</span><br><br></div>,,delaylearn,learning,feedback_image_window,xrE6pwXf6nOfeb59ns940WYZyNl1,xrE6pwXf6nOfeb59ns940WYZyNl1,,,,,,,,,,,,,,,,,,,,,,60394fde95a5a03dcc668c4b,16:55:33,27/03/2024
html-keyboard-response,132,262323,0.0-56.0,,"<div style=""font-size:100px;"">+</div>",,delaylearn,learning,ITI,xrE6pwXf6nOfeb59ns940WYZyNl1,xrE6pwXf6nOfeb59ns940WYZyNl1,,,,,,,,,,,,,,,,,,,1555.0,,,60394fde95a5a03dcc668c4b,16:55:33,27/03/2024
html-keyboard-response,133,263041,0.0-57.0-0.0,716.2999999523163,"<div style=""display: flex; flex-direction: column; align-items: center; margin-top: -40px;""><img src=""images/pattern_5.png"" style=""width: 234px; height: 230px; margin-top: -50px;""><div style=""display: flex; justify-content: space-between; margin-top: 33px;""><img src=""images/choice_trial_15.png"" style=""width: 408px; height: 417px; margin-right: 200px;""><img src=""images/choice_trial_5.png"" style=""width: 408px; height: 417px;""></div></div>",f,delaylearn,learning,trial,xrE6pwXf6nOfeb59ns940WYZyNl1,xrE6pwXf6nOfeb59ns940WYZyNl1,4.0,images/choice_trial_15.png,images/choice_trial_5.png,images/pattern_5.png,j,j,750.0,15.0,5.0,4.0,1.0,25.0,0.0,0.0,15.0,120.0,,,,,,60394fde95a5a03dcc668c4b,16:55:33,27/03/2024
html-keyboard-response,134,264053,0.0-57.0-1.0,,"<div style=""display: flex; flex-direction: column; align-items: center; margin-top: -40px;""><img src=""images/pattern_5.png"" style=""width: 234px; height: 230px; margin-top: -50px;""><div style=""display: flex; justify-content: space-between; margin-top: 33px;""><img src=""images/choice_trial_15.png"" style=""width: 408px; height: 417px; margin-right: 608px;""></div></div>",,delaylearn,learning,display_response,xrE6pwXf6nOfeb59ns940WYZyNl1,xrE6pwXf6nOfeb59ns940WYZyNl1,,,,,,,,,,,,,,,,,chosen stimuli: images/choice_trial_15.png,,,,,60394fde95a5a03dcc668c4b,16:55:33,27/03/2024
html-keyboard-response,135,264806,0.0-57.0-2.0,,,,delaylearn,learning,feedback_duration_window,xrE6pwXf6nOfeb59ns940WYZyNl1,xrE6pwXf6nOfeb59ns940WYZyNl1,,,,,,,,,,,,,,,,,,750.0,,,,60394fde95a5a03dcc668c4b,16:55:33,27/03/2024
html-keyboard-response,136,266322,0.0-57.0-3.0,,<div style='margin:auto;width: auto; font-size: 150%'><span style='font-weight: bold; font-size: 100px; color: red;'>0 points!</span><br><br></div>,,delaylearn,learning,feedback_image_window,xrE6pwXf6nOfeb59ns940WYZyNl1,xrE6pwXf6nOfeb59ns940WYZyNl1,,,,,,,,,,,,,,,,,,,,,,60394fde95a5a03dcc668c4b,16:55:33,27/03/2024
html-keyboard-response,137,268379,0.0-58.0,,"<div style=""font-size:100px;"">+</div>",,delaylearn,learning,ITI,xrE6pwXf6nOfeb59ns940WYZyNl1,xrE6pwXf6nOfeb59ns940WYZyNl1,,,,,,,,,,,,,,,,,,,2046.0,,,60394fde95a5a03dcc668c4b,16:55:33,27/03/2024
html-keyboard-response,138,269413,0.0-59.0-0.0,1032.5,"<div style=""display: flex; flex-direction: column; align-items: center; margin-top: -40px;""><img src=""images/pattern_3.png"" style=""width: 234px; height: 230px; margin-top: -50px;""><div style=""display: flex; justify-content: space-between; margin-top: 33px;""><img src=""images/choice_trial_6.png"" style=""width: 408px; height: 417px; margin-right: 200px;""><img src=""images/choice_trial_16.png"" style=""width: 408px; height: 417px;""></div></div>",j,delaylearn,learning,trial,xrE6pwXf6nOfeb59ns940WYZyNl1,xrE6pwXf6nOfeb59ns940WYZyNl1,4.0,images/choice_trial_6.png,images/choice_trial_16.png,images/pattern_3.png,j,j,7000.0,6.0,16.0,2.0,1.0,26.0,1.0,1.0,16.0,130.0,,,,,,60394fde95a5a03dcc668c4b,16:55:33,27/03/2024
html-keyboard-response,139,270421,0.0-59.0-1.0,,"<div style=""display: flex; flex-direction: column; align-items: center; margin-top: -40px;""><img src=""images/pattern_3.png"" style=""width: 234px; height: 230px; margin-top: -50px;""><div style=""display: flex; justify-content: space-between; margin-top: 33px;""><img src=""images/choice_trial_16.png"" style=""width: 408px; height: 417px; margin-left:608px;""></div></div>",,delaylearn,learning,display_response,xrE6pwXf6nOfeb59ns940WYZyNl1,xrE6pwXf6nOfeb59ns940WYZyNl1,,,,,,,,,,,,,,,,,chosen stimuli: images/choice_trial_16.png,,,,,60394fde95a5a03dcc668c4b,16:55:33,27/03/2024
html-keyboard-response,140,277430,0.0-59.0-2.0,,,,delaylearn,learning,feedback_duration_window,xrE6pwXf6nOfeb59ns940WYZyNl1,xrE6pwXf6nOfeb59ns940WYZyNl1,,,,,,,,,,,,,,,,,,7000.0,,,,60394fde95a5a03dcc668c4b,16:55:33,27/03/2024
html-keyboard-response,141,278936,0.0-59.0-3.0,,<div style='margin:auto;width: auto; font-size: 150%'><span style='font-weight: bold; font-size: 100px; color: green;'>+10 points!</span><br><br></div>,,delaylearn,learning,feedback_image_window,xrE6pwXf6nOfeb59ns940WYZyNl1,xrE6pwXf6nOfeb59ns940WYZyNl1,,,,,,,,,,,,,,,,,,,,,,60394fde95a5a03dcc668c4b,16:55:33,27/03/2024
lmdlab-html-vas-response,142,286791,0.0-60.0-0.0,6341.0,*How <b><u>confident</u></b> are you feeling about your answers at this moment?*,0.18055555555555555,rewlearn,rate_confidence,,xrE6pwXf6nOfeb59ns940WYZyNl1,xrE6pwXf6nOfeb59ns940WYZyNl1,,,,,,,,,,,,,,,,,,,,"['No confidence', 'Complete confidence']",,60394fde95a5a03dcc668c4b,16:55:33,27/03/2024
lmdlab-rest-trial-limit,143,292624,0.0-60.0-1.0,4328.399999976158,"<div style=""font-size:40px;""><b>Please take a break!</b><br><br><br><br><p>Great work: you earned 130 points.<br><br><br><p>You have completed part(s) 1 of 5.<br><br><br><br>When you are ready to continue<br><br><br>please click the button.</p><br><br>",0,delaylearn,learning,break,xrE6pwXf6nOfeb59ns940WYZyNl1,xrE6pwXf6nOfeb59ns940WYZyNl1,,,,,,,,,,,,,,,,,,,,,0.0,60394fde95a5a03dcc668c4b,16:55:33,27/03/2024
html-keyboard-response,144,295628,0.0-60.0-2.0,,"<div style=""font-size:100px;"">+</div>",,delaylearn,learning,pre_fixation,xrE6pwXf6nOfeb59ns940WYZyNl1,,,,,,,,,,,,,,,,,,,,,,,60394fde95a5a03dcc668c4b,16:55:33,27/03/2024
lmdlab-html-vas-response,145,300381,0.0-60.0-3.0-0.0,3740.0,How happy are you right now?,0.36574074074074076,delaylearn,learning,mood_baseline,xrE6pwXf6nOfeb59ns940WYZyNl1,xrE6pwXf6nOfeb59ns940WYZyNl1,,,,,,,,,,,,,,,,,,,,"['Very unhappy', 'Very happy']",,60394fde95a5a03dcc668c4b,16:55:33,27/03/2024
html-keyboard-response,146,301898,0.0-60.0-3.0-1.0,,,,,,mood_baseline_fixation,xrE6pwXf6nOfeb59ns940WYZyNl1,,,,,,,,,,,,,,,,,,,,,,,60394fde95a5a03dcc668c4b,16:55:33,27/03/2024
html-keyboard-response,147,303759,0.0-61.0,,"<div style=""font-size:100px;"">+</div>",,delaylearn,learning,ITI,xrE6pwXf6nOfeb59ns940WYZyNl1,xrE6pwXf6nOfeb59ns940WYZyNl1,,,,,,,,,,,,,,,,,,,1848.0,,,60394fde95a5a03dcc668c4b,16:55:33,27/03/2024
html-keyboard-response,148,304671,0.0-62.0-0.0,909.7999999523163,"<div style=""display: flex; flex-direction: column; align-items: center; margin-top: -40px;""><img src=""images/pattern_7.png"" style=""width: 234px; height: 230px; margin-top: -50px;""><div style=""display: flex; justify-content: space-between; margin-top: 33px;""><img src=""images/choice_trial_4.png"" style=""width: 408px; height: 417px; margin-right: 200px;""><img src=""images/choice_trial_13.png"" style=""width: 408px; height: 417px;""></div></div>",f,delaylearn,learning,trial,xrE6pwXf6nOfeb59ns940WYZyNl1,xrE6pwXf6nOfeb59ns940WYZyNl1,4.0,images/choice_trial_4.png,images/choice_trial_13.png,images/pattern_7.png,j,j,750.0,4.0,13.0,6.0,1.0,27.0,0.0,0.0,4.0,130.0,,,,,,60394fde95a5a03dcc668c4b,16:55:33,27/03/2024
html-keyboard-response,149,305682,0.0-62.0-1.0,,"<div style=""display: flex; flex-direction: column; align-items: center; margin-top: -40px;""><img src=""images/pattern_7.png"" style=""width: 234px; height: 230px; margin-top: -50px;""><div style=""display: flex; justify-content: space-between; margin-top: 33px;""><img src=""images/choice_trial_4.png"" style=""width: 408px; height: 417px; margin-right: 608px;""></div></div>",,delaylearn,learning,display_response,xrE6pwXf6nOfeb59ns940WYZyNl1,xrE6pwXf6nOfeb59ns940WYZyNl1,,,,,,,,,,,,,,,,,chosen stimuli: images/choice_trial_4.png,,,,,60394fde95a5a03dcc668c4b,16:55:33,27/03/2024
html-keyboard-response,150,306449,0.0-62.0-2.0,,,,delaylearn,learning,feedback_duration_window,xrE6pwXf6nOfeb59ns940WYZyNl1,xrE6pwXf6nOfeb59ns940WYZyNl1,,,,,,,,,,,,,,,,,,750.0,,,,60394fde95a5a03dcc668c4b,16:55:33,27/03/2024
html-keyboard-response,151,307965,0.0-62.0-3.0,,<div style='margin:auto;width: auto; font-size: 150%'><span style='font-weight: bold; font-size: 100px; color: red;'>0 points!</span><br><br></div>,,delaylearn,learning,feedback_image_window,xrE6pwXf6nOfeb59ns940WYZyNl1,xrE6pwXf6nOfeb59ns940WYZyNl1,,,,,,,,,,,,,,,,,,,,,,60394fde95a5a03dcc668c4b,16:55:33,27/03/2024
html-keyboard-response,152,308476,0.0-63.0-0.0,,,,,,mood_trial_fixation,xrE6pwXf6nOfeb59ns940WYZyNl1,,,,,,,,,,,,,,,,,,,,,,,60394fde95a5a03dcc668c4b,16:55:33,27/03/2024
lmdlab-html-vas-response,153,312853,0.0-63.0-1.0,3361.0,How happy are you right now?,0.41435185185185186,delaylearn,learning,mood_trial,xrE6pwXf6nOfeb59ns940WYZyNl1,xrE6pwXf6nOfeb59ns940WYZyNl1,,,,,,,,,,,,,,,,,,,,"['Very unhappy', 'Very happy']",,60394fde95a5a03dcc668c4b,16:55:33,27/03/2024
html-keyboard-response,154,314801,0.0-64.0,,"<div style=""font-size:100px;"">+</div>",,delaylearn,learning,ITI,xrE6pwXf6nOfeb59ns940WYZyNl1,xrE6pwXf6nOfeb59ns940WYZyNl1,,,,,,,,,,,,,,,,,,,1936.0,,,60394fde95a5a03dcc668c4b,16:55:33,27/03/2024
html-keyboard-response,155,315730,0.0-65.0-0.0,926.7000000476837,"<div style=""display: flex; flex-direction: column; align-items: center; margin-top: -40px;""><img src=""images/pattern_1.png"" style=""width: 234px; height: 230px; margin-top: -50px;""><div style=""display: flex; justify-content: space-between; margin-top: 33px;""><img src=""images/choice_trial_1.png"" style=""width: 408px; height: 417px; margin-right: 200px;""><img src=""images/choice_trial_9.png"" style=""width: 408px; height: 417px;""></div></div>",f,delaylearn,learning,trial,xrE6pwXf6nOfeb59ns940WYZyNl1,xrE6pwXf6nOfeb59ns940WYZyNl1,4.0,images/choice_trial_1.png,images/choice_trial_9.png,images/pattern_1.png,f,f,7000.0,1.0,9.0,1.0,0.0,28.0,1.0,1.0,1.0,140.0,,,,,,60394fde95a5a03dcc668c4b,16:55:33,27/03/2024
html-keyboard-response,156,316738,0.0-65.0-1.0,,"<div style=""display: flex; flex-direction: column; align-items: center; margin-top: -40px;""><img src=""images/pattern_1.png"" style=""width: 234px; height: 230px; margin-top: -50px;""><div style=""display: flex; justify-content: space-between; margin-top: 33px;""><img src=""images/choice_trial_1.png"" style=""width: 408px; height: 417px; margin-right: 608px;""></div></div>",,delaylearn,learning,display_response,xrE6pwXf6nOfeb59ns940WYZyNl1,xrE6pwXf6nOfeb59ns940WYZyNl1,,,,,,,,,,,,,,,,,chosen stimuli: images/choice_trial_1.png,,,,,60394fde95a5a03dcc668c4b,16:55:33,27/03/2024
html-keyboard-response,157,323740,0.0-65.0-2.0,,,,delaylearn,learning,feedback_duration_window,xrE6pwXf6nOfeb59ns940WYZyNl1,xrE6pwXf6nOfeb59ns940WYZyNl1,,,,,,,,,,,,,,,,,,7000.0,,,,60394fde95a5a03dcc668c4b,16:55:33,27/03/2024
html-keyboard-response,158,325243,0.0-65.0-3.0,,<div style='margin:auto;width: auto; font-size: 150%'><span style='font-weight: bold; font-size: 100px; color: green;'>+10 points!</span><br><br></div>,,delaylearn,learning,feedback_image_window,xrE6pwXf6nOfeb59ns940WYZyNl1,xrE6pwXf6nOfeb59ns940WYZyNl1,,,,,,,,,,,,,,,,,,,,,,60394fde95a5a03dcc668c4b,16:55:33,27/03/2024
html-keyboard-response,159,327628,0.0-66.0,,"<div style=""font-size:100px;"">+</div>",,delaylearn,learning,ITI,xrE6pwXf6nOfeb59ns940WYZyNl1,xrE6pwXf6nOfeb59ns940WYZyNl1,,,,,,,,,,,,,,,,,,,2381.0,,,60394fde95a5a03dcc668c4b,16:55:33,27/03/2024
html-keyboard-response,160,330645,0.0-67.0-0.0,,"<div style=""display: flex; flex-direction: column; align-items: center; margin-top: -40px;""><img src=""images/pattern_5.png"" style=""width: 234px; height: 230px; margin-top: -50px;""><div style=""display: flex; justify-content: space-between; margin-top: 33px;""><img src=""images/choice_trial_5.png"" style=""width: 408px; height: 417px; margin-right: 200px;""><img src=""images/choice_trial_15.png"" style=""width: 408px; height: 417px;""></div></div>",,delaylearn,learning,trial,xrE6pwXf6nOfeb59ns940WYZyNl1,xrE6pwXf6nOfeb59ns940WYZyNl1,4.0,images/choice_trial_5.png,images/choice_trial_15.png,images/pattern_5.png,f,f,750.0,5.0,15.0,4.0,0.0,29.0,0.0,0.0,0.0,140.0,,,,,,60394fde95a5a03dcc668c4b,16:55:33,27/03/2024
html-keyboard-response,161,331662,0.0-67.0-1.0,,<div style='font-weight: bold; font-size: 75px; color: red;'>Missed Trial <br><br><br><br> Please respond faster</div>,,delaylearn,learning,display_response,xrE6pwXf6nOfeb59ns940WYZyNl1,xrE6pwXf6nOfeb59ns940WYZyNl1,,,,,,,,,,,,,,,,,Missed trial,,,,,60394fde95a5a03dcc668c4b,16:55:33,27/03/2024
html-keyboard-response,162,331667,0.0-67.0-2.0,,,,delaylearn,learning,feedback_duration_window,xrE6pwXf6nOfeb59ns940WYZyNl1,xrE6pwXf6nOfeb59ns940WYZyNl1,,,,,,,,,,,,,,,,,,0.0,,,,60394fde95a5a03dcc668c4b,16:55:33,27/03/2024
html-keyboard-response,163,331673,0.0-67.0-3.0,,,,delaylearn,learning,feedback_image_window,xrE6pwXf6nOfeb59ns940WYZyNl1,xrE6pwXf6nOfeb59ns940WYZyNl1,,,,,,,,,,,,,,,,,,,,,,60394fde95a5a03dcc668c4b,16:55:33,27/03/2024
html-keyboard-response,164,333969,0.0-68.0,,"<div style=""font-size:100px;"">+</div>",,delaylearn,learning,ITI,xrE6pwXf6nOfeb59ns940WYZyNl1,xrE6pwXf6nOfeb59ns940WYZyNl1,,,,,,,,,,,,,,,,,,,2282.0,,,60394fde95a5a03dcc668c4b,16:55:33,27/03/2024
html-keyboard-response,165,336978,0.0-69.0-0.0,,"<div style=""display: flex; flex-direction: column; align-items: center; margin-top: -40px;""><img src=""images/pattern_6.png"" style=""width: 234px; height: 230px; margin-top: -50px;""><div style=""display: flex; justify-content: space-between; margin-top: 33px;""><img src=""images/choice_trial_3.png"" style=""width: 408px; height: 417px; margin-right: 200px;""><img src=""images/choice_trial_10.png"" style=""width: 408px; height: 417px;""></div></div>",,delaylearn,learning,trial,xrE6pwXf6nOfeb59ns940WYZyNl1,xrE6pwXf6nOfeb59ns940WYZyNl1,4.0,images/choice_trial_3.png,images/choice_trial_10.png,images/pattern_6.png,j,j,750.0,3.0,10.0,5.0,1.0,30.0,0.0,0.0,0.0,140.0,,,,,,60394fde95a5a03dcc668c4b,16:55:33,27/03/2024
html-keyboard-response,166,337995,0.0-69.0-1.0,,<div style='font-weight: bold; font-size: 75px; color: red;'>Missed Trial <br><br><br><br> Please respond faster</div>,,delaylearn,learning,display_response,xrE6pwXf6nOfeb59ns940WYZyNl1,xrE6pwXf6nOfeb59ns940WYZyNl1,,,,,,,,,,,,,,,,,Missed trial,,,,,60394fde95a5a03dcc668c4b,16:55:33,27/03/2024
html-keyboard-response,167,338007,0.0-69.0-2.0,,,,delaylearn,learning,feedback_duration_window,xrE6pwXf6nOfeb59ns940WYZyNl1,xrE6pwXf6nOfeb59ns940WYZyNl1,,,,,,,,,,,,,,,,,,0.0,,,,60394fde95a5a03dcc668c4b,16:55:33,27/03/2024
html-keyboard-response,168,338015,0.0-69.0-3.0,,,,delaylearn,learning,feedback_image_window,xrE6pwXf6nOfeb59ns940WYZyNl1,xrE6pwXf6nOfeb59ns940WYZyNl1,,,,,,,,,,,,,,,,,,,,,,60394fde95a5a03dcc668c4b,16:55:33,27/03/2024
html-keyboard-response,169,338525,0.0-70.0-0.0,,,,,,mood_trial_fixation,xrE6pwXf6nOfeb59ns940WYZyNl1,,,,,,,,,,,,,,,,,,,,,,,60394fde95a5a03dcc668c4b,16:55:33,27/03/2024
lmdlab-html-vas-response,170,351408,0.0-70.0-1.0,11870.0,How happy are you right now?,0.6550925925925926,delaylearn,learning,mood_trial,xrE6pwXf6nOfeb59ns940WYZyNl1,xrE6pwXf6nOfeb59ns940WYZyNl1,,,,,,,,,,,,,,,,,,,,"['Very unhappy', 'Very happy']",,60394fde95a5a03dcc668c4b,16:55:33,27/03/2024
html-keyboard-response,171,353561,0.0-71.0,,"<div style=""font-size:100px;"">+</div>",,delaylearn,learning,ITI,xrE6pwXf6nOfeb59ns940WYZyNl1,xrE6pwXf6nOfeb59ns940WYZyNl1,,,,,,,,,,,,,,,,,,,2146.0,,,60394fde95a5a03dcc668c4b,16:55:33,27/03/2024
html-keyboard-response,172,356179,0.0-72.0-0.0,2615.0,"<div style=""display: flex; flex-direction: column; align-items: center; margin-top: -40px;""><img src=""images/pattern_4.png"" style=""width: 234px; height: 230px; margin-top: -50px;""><div style=""display: flex; justify-content: space-between; margin-top: 33px;""><img src=""images/choice_trial_7.png"" style=""width: 408px; height: 417px; margin-right: 200px;""><img src=""images/choice_trial_8.png"" style=""width: 408px; height: 417px;""></div></div>",f,delaylearn,learning,trial,xrE6pwXf6nOfeb59ns940WYZyNl1,xrE6pwXf6nOfeb59ns940WYZyNl1,4.0,images/choice_trial_7.png,images/choice_trial_8.png,images/pattern_4.png,j,j,7000.0,7.0,8.0,3.0,1.0,31.0,0.0,0.0,7.0,140.0,,,,,,60394fde95a5a03dcc668c4b,16:55:33,27/03/2024
html-keyboard-response,173,357193,0.0-72.0-1.0,,"<div style=""display: flex; flex-direction: column; align-items: center; margin-top: -40px;""><img src=""images/pattern_4.png"" style=""width: 234px; height: 230px; margin-top: -50px;""><div style=""display: flex; justify-content: space-between; margin-top: 33px;""><img src=""images/choice_trial_7.png"" style=""width: 408px; height: 417px; margin-right: 608px;""></div></div>",,delaylearn,learning,display_response,xrE6pwXf6nOfeb59ns940WYZyNl1,xrE6pwXf6nOfeb59ns940WYZyNl1,,,,,,,,,,,,,,,,,chosen stimuli: images/choice_trial_7.png,,,,,60394fde95a5a03dcc668c4b,16:55:33,27/03/2024
html-keyboard-response,174,364208,0.0-72.0-2.0,,,,delaylearn,learning,feedback_duration_window,xrE6pwXf6nOfeb59ns940WYZyNl1,xrE6pwXf6nOfeb59ns940WYZyNl1,,,,,,,,,,,,,,,,,,7000.0,,,,60394fde95a5a03dcc668c4b,16:55:33,27/03/2024
html-keyboard-response,175,365719,0.0-72.0-3.0,,<div style='margin:auto;width: auto; font-size: 150%'><span style='font-weight: bold; font-size: 100px; color: red;'>0 points!</span><br><br></div>,,delaylearn,learning,feedback_image_window,xrE6pwXf6nOfeb59ns940WYZyNl1,xrE6pwXf6nOfeb59ns940WYZyNl1,,,,,,,,,,,,,,,,,,,,,,60394fde95a5a03dcc668c4b,16:55:33,27/03/2024
html-keyboard-response,176,367720,0.0-73.0,,"<div style=""font-size:100px;"">+</div>",,delaylearn,learning,ITI,xrE6pwXf6nOfeb59ns940WYZyNl1,xrE6pwXf6nOfeb59ns940WYZyNl1,,,,,,,,,,,,,,,,,,,1997.0,,,60394fde95a5a03dcc668c4b,16:55:33,27/03/2024
html-keyboard-response,177,368963,0.0-74.0-0.0,1239.6000000238419,"<div style=""display: flex; flex-direction: column; align-items: center; margin-top: -40px;""><img src=""images/pattern_3.png"" style=""width: 234px; height: 230px; margin-top: -50px;""><div style=""display: flex; justify-content: space-between; margin-top: 33px;""><img src=""images/choice_trial_6.png"" style=""width: 408px; height: 417px; margin-right: 200px;""><img src=""images/choice_trial_16.png"" style=""width: 408px; height: 417px;""></div></div>",j,delaylearn,learning,trial,xrE6pwXf6nOfeb59ns940WYZyNl1,xrE6pwXf6nOfeb59ns940WYZyNl1,4.0,images/choice_trial_6.png,images/choice_trial_16.png,images/pattern_3.png,j,j,7000.0,6.0,16.0,2.0,1.0,32.0,1.0,1.0,16.0,150.0,,,,,,60394fde95a5a03dcc668c4b,16:55:33,27/03/2024
html-keyboard-response,178,369969,0.0-74.0-1.0,,"<div style=""display: flex; flex-direction: column; align-items: center; margin-top: -40px;""><img src=""images/pattern_3.png"" style=""width: 234px; height: 230px; margin-top: -50px;""><div style=""display: flex; justify-content: space-between; margin-top: 33px;""><img src=""images/choice_trial_16.png"" style=""width: 408px; height: 417px; margin-left:608px;""></div></div>",,delaylearn,learning,display_response,xrE6pwXf6nOfeb59ns940WYZyNl1,xrE6pwXf6nOfeb59ns940WYZyNl1,,,,,,,,,,,,,,,,,chosen stimuli: images/choice_trial_16.png,,,,,60394fde95a5a03dcc668c4b,16:55:33,27/03/2024
html-keyboard-response,179,376985,0.0-74.0-2.0,,,,delaylearn,learning,feedback_duration_window,xrE6pwXf6nOfeb59ns940WYZyNl1,xrE6pwXf6nOfeb59ns940WYZyNl1,,,,,,,,,,,,,,,,,,7000.0,,,,60394fde95a5a03dcc668c4b,16:55:33,27/03/2024
html-keyboard-response,180,378491,0.0-74.0-3.0,,<div style='margin:auto;width: auto; font-size: 150%'><span style='font-weight: bold; font-size: 100px; color: green;'>+10 points!</span><br><br></div>,,delaylearn,learning,feedback_image_window,xrE6pwXf6nOfeb59ns940WYZyNl1,xrE6pwXf6nOfeb59ns940WYZyNl1,,,,,,,,,,,,,,,,,,,,,,60394fde95a5a03dcc668c4b,16:55:33,27/03/2024
html-keyboard-response,181,380236,0.0-75.0,,"<div style=""font-size:100px;"">+</div>",,delaylearn,learning,ITI,xrE6pwXf6nOfeb59ns940WYZyNl1,xrE6pwXf6nOfeb59ns940WYZyNl1,,,,,,,,,,,,,,,,,,,1729.0,,,60394fde95a5a03dcc668c4b,16:55:33,27/03/2024
html-keyboard-response,182,382061,0.0-76.0-0.0,1821.7000000476837,"<div style=""display: flex; flex-direction: column; align-items: center; margin-top: -40px;""><img src=""images/pattern_5.png"" style=""width: 234px; height: 230px; margin-top: -50px;""><div style=""display: flex; justify-content: space-between; margin-top: 33px;""><img src=""images/choice_trial_5.png"" style=""width: 408px; height: 417px; margin-right: 200px;""><img src=""images/choice_trial_15.png"" style=""width: 408px; height: 417px;""></div></div>",f,delaylearn,learning,trial,xrE6pwXf6nOfeb59ns940WYZyNl1,xrE6pwXf6nOfeb59ns940WYZyNl1,4.0,images/choice_trial_5.png,images/choice_trial_15.png,images/pattern_5.png,j,f,750.0,5.0,15.0,4.0,0.0,33.0,1.0,0.0,5.0,150.0,,,,,,60394fde95a5a03dcc668c4b,16:55:33,27/03/2024
html-keyboard-response,183,383074,0.0-76.0-1.0,,"<div style=""display: flex; flex-direction: column; align-items: center; margin-top: -40px;""><img src=""images/pattern_5.png"" style=""width: 234px; height: 230px; margin-top: -50px;""><div style=""display: flex; justify-content: space-between; margin-top: 33px;""><img src=""images/choice_trial_5.png"" style=""width: 408px; height: 417px; margin-right: 608px;""></div></div>",,delaylearn,learning,display_response,xrE6pwXf6nOfeb59ns940WYZyNl1,xrE6pwXf6nOfeb59ns940WYZyNl1,,,,,,,,,,,,,,,,,chosen stimuli: images/choice_trial_5.png,,,,,60394fde95a5a03dcc668c4b,16:55:33,27/03/2024
html-keyboard-response,184,383829,0.0-76.0-2.0,,,,delaylearn,learning,feedback_duration_window,xrE6pwXf6nOfeb59ns940WYZyNl1,xrE6pwXf6nOfeb59ns940WYZyNl1,,,,,,,,,,,,,,,,,,750.0,,,,60394fde95a5a03dcc668c4b,16:55:33,27/03/2024
html-keyboard-response,185,385341,0.0-76.0-3.0,,<div style='margin:auto;width: auto; font-size: 150%'><span style='font-weight: bold; font-size: 100px; color: red;'>0 points!</span><br><br></div>,,delaylearn,learning,feedback_image_window,xrE6pwXf6nOfeb59ns940WYZyNl1,xrE6pwXf6nOfeb59ns940WYZyNl1,,,,,,,,,,,,,,,,,,,,,,60394fde95a5a03dcc668c4b,16:55:33,27/03/2024
html-keyboard-response,186,387787,0.0-77.0,,"<div style=""font-size:100px;"">+</div>",,delaylearn,learning,ITI,xrE6pwXf6nOfeb59ns940WYZyNl1,xrE6pwXf6nOfeb59ns940WYZyNl1,,,,,,,,,,,,,,,,,,,2437.0,,,60394fde95a5a03dcc668c4b,16:55:33,27/03/2024
html-keyboard-response,187,388875,0.0-78.0-0.0,1085.0,"<div style=""display: flex; flex-direction: column; align-items: center; margin-top: -40px;""><img src=""images/pattern_1.png"" style=""width: 234px; height: 230px; margin-top: -50px;""><div style=""display: flex; justify-content: space-between; margin-top: 33px;""><img src=""images/choice_trial_1.png"" style=""width: 408px; height: 417px; margin-right: 200px;""><img src=""images/choice_trial_9.png"" style=""width: 408px; height: 417px;""></div></div>",j,delaylearn,learning,trial,xrE6pwXf6nOfeb59ns940WYZyNl1,xrE6pwXf6nOfeb59ns940WYZyNl1,4.0,images/choice_trial_1.png,images/choice_trial_9.png,images/pattern_1.png,f,f,7000.0,1.0,9.0,1.0,0.0,34.0,0.0,0.0,9.0,150.0,,,,,,60394fde95a5a03dcc668c4b,16:55:33,27/03/2024
html-keyboard-response,188,389882,0.0-78.0-1.0,,"<div style=""display: flex; flex-direction: column; align-items: center; margin-top: -40px;""><img src=""images/pattern_1.png"" style=""width: 234px; height: 230px; margin-top: -50px;""><div style=""display: flex; justify-content: space-between; margin-top: 33px;""><img src=""images/choice_trial_9.png"" style=""width: 408px; height: 417px; margin-left:608px;""></div></div>",,delaylearn,learning,display_response,xrE6pwXf6nOfeb59ns940WYZyNl1,xrE6pwXf6nOfeb59ns940WYZyNl1,,,,,,,,,,,,,,,,,chosen stimuli: images/choice_trial_9.png,,,,,60394fde95a5a03dcc668c4b,16:55:33,27/03/2024
html-keyboard-response,189,396887,0.0-78.0-2.0,,,,delaylearn,learning,feedback_duration_window,xrE6pwXf6nOfeb59ns940WYZyNl1,xrE6pwXf6nOfeb59ns940WYZyNl1,,,,,,,,,,,,,,,,,,7000.0,,,,60394fde95a5a03dcc668c4b,16:55:33,27/03/2024
html-keyboard-response,190,398399,0.0-78.0-3.0,,<div style='margin:auto;width: auto; font-size: 150%'><span style='font-weight: bold; font-size: 100px; color: red;'>0 points!</span><br><br></div>,,delaylearn,learning,feedback_image_window,xrE6pwXf6nOfeb59ns940WYZyNl1,xrE6pwXf6nOfeb59ns940WYZyNl1,,,,,,,,,,,,,,,,,,,,,,60394fde95a5a03dcc668c4b,16:55:33,27/03/2024
html-keyboard-response,191,398906,0.0-79.0-0.0,,,,,,mood_trial_fixation,xrE6pwXf6nOfeb59ns940WYZyNl1,,,,,,,,,,,,,,,,,,,,,,,60394fde95a5a03dcc668c4b,16:55:33,27/03/2024
lmdlab-html-vas-response,192,408034,0.0-79.0-1.0,8110.0,How happy are you right now?,0.6203703703703703,delaylearn,learning,mood_trial,xrE6pwXf6nOfeb59ns940WYZyNl1,xrE6pwXf6nOfeb59ns940WYZyNl1,,,,,,,,,,,,,,,,,,,,"['Very unhappy', 'Very happy']",,60394fde95a5a03dcc668c4b,16:55:33,27/03/2024
html-keyboard-response,193,409919,0.0-80.0,,"<div style=""font-size:100px;"">+</div>",,delaylearn,learning,ITI,xrE6pwXf6nOfeb59ns940WYZyNl1,xrE6pwXf6nOfeb59ns940WYZyNl1,,,,,,,,,,,,,,,,,,,1870.0,,,60394fde95a5a03dcc668c4b,16:55:33,27/03/2024
html-keyboard-response,194,410932,0.0-81.0-0.0,1009.6999999284744,"<div style=""display: flex; flex-direction: column; align-items: center; margin-top: -40px;""><img src=""images/pattern_6.png"" style=""width: 234px; height: 230px; margin-top: -50px;""><div style=""display: flex; justify-content: space-between; margin-top: 33px;""><img src=""images/choice_trial_10.png"" style=""width: 408px; height: 417px; margin-right: 200px;""><img src=""images/choice_trial_3.png"" style=""width: 408px; height: 417px;""></div></div>",f,delaylearn,learning,trial,xrE6pwXf6nOfeb59ns940WYZyNl1,xrE6pwXf6nOfeb59ns940WYZyNl1,4.0,images/choice_trial_10.png,images/choice_trial_3.png,images/pattern_6.png,j,f,750.0,10.0,3.0,5.0,0.0,35.0,1.0,0.0,10.0,150.0,,,,,,60394fde95a5a03dcc668c4b,16:55:33,27/03/2024
html-keyboard-response,195,411939,0.0-81.0-1.0,,"<div style=""display: flex; flex-direction: column; align-items: center; margin-top: -40px;""><img src=""images/pattern_6.png"" style=""width: 234px; height: 230px; margin-top: -50px;""><div style=""display: flex; justify-content: space-between; margin-top: 33px;""><img src=""images/choice_trial_10.png"" style=""width: 408px; height: 417px; margin-right: 608px;""></div></div>",,delaylearn,learning,display_response,xrE6pwXf6nOfeb59ns940WYZyNl1,xrE6pwXf6nOfeb59ns940WYZyNl1,,,,,,,,,,,,,,,,,chosen stimuli: images/choice_trial_10.png,,,,,60394fde95a5a03dcc668c4b,16:55:33,27/03/2024
html-keyboard-response,196,412703,0.0-81.0-2.0,,,,delaylearn,learning,feedback_duration_window,xrE6pwXf6nOfeb59ns940WYZyNl1,xrE6pwXf6nOfeb59ns940WYZyNl1,,,,,,,,,,,,,,,,,,750.0,,,,60394fde95a5a03dcc668c4b,16:55:33,27/03/2024
html-keyboard-response,197,414205,0.0-81.0-3.0,,<div style='margin:auto;width: auto; font-size: 150%'><span style='font-weight: bold; font-size: 100px; color: red;'>0 points!</span><br><br></div>,,delaylearn,learning,feedback_image_window,xrE6pwXf6nOfeb59ns940WYZyNl1,xrE6pwXf6nOfeb59ns940WYZyNl1,,,,,,,,,,,,,,,,,,,,,,60394fde95a5a03dcc668c4b,16:55:33,27/03/2024
html-keyboard-response,198,416566,0.0-82.0,,"<div style=""font-size:100px;"">+</div>",,delaylearn,learning,ITI,xrE6pwXf6nOfeb59ns940WYZyNl1,xrE6pwXf6nOfeb59ns940WYZyNl1,,,,,,,,,,,,,,,,,,,2344.0,,,60394fde95a5a03dcc668c4b,16:55:33,27/03/2024
html-keyboard-response,199,418345,0.0-83.0-0.0,1776.3999999761581,"<div style=""display: flex; flex-direction: column; align-items: center; margin-top: -40px;""><img src=""images/pattern_3.png"" style=""width: 234px; height: 230px; margin-top: -50px;""><div style=""display: flex; justify-content: space-between; margin-top: 33px;""><img src=""images/choice_trial_6.png"" style=""width: 408px; height: 417px; margin-right: 200px;""><img src=""images/choice_trial_16.png"" style=""width: 408px; height: 417px;""></div></div>",j,delaylearn,learning,trial,xrE6pwXf6nOfeb59ns940WYZyNl1,xrE6pwXf6nOfeb59ns940WYZyNl1,4.0,images/choice_trial_6.png,images/choice_trial_16.png,images/pattern_3.png,j,j,7000.0,6.0,16.0,2.0,1.0,36.0,1.0,1.0,16.0,160.0,,,,,,60394fde95a5a03dcc668c4b,16:55:33,27/03/2024
html-keyboard-response,200,419351,0.0-83.0-1.0,,"<div style=""display: flex; flex-direction: column; align-items: center; margin-top: -40px;""><img src=""images/pattern_3.png"" style=""width: 234px; height: 230px; margin-top: -50px;""><div style=""display: flex; justify-content: space-between; margin-top: 33px;""><img src=""images/choice_trial_16.png"" style=""width: 408px; height: 417px; margin-left:608px;""></div></div>",,delaylearn,learning,display_response,xrE6pwXf6nOfeb59ns940WYZyNl1,xrE6pwXf6nOfeb59ns940WYZyNl1,,,,,,,,,,,,,,,,,chosen stimuli: images/choice_trial_16.png,,,,,60394fde95a5a03dcc668c4b,16:55:33,27/03/2024
html-keyboard-response,201,426356,0.0-83.0-2.0,,,,delaylearn,learning,feedback_duration_window,xrE6pwXf6nOfeb59ns940WYZyNl1,xrE6pwXf6nOfeb59ns940WYZyNl1,,,,,,,,,,,,,,,,,,7000.0,,,,60394fde95a5a03dcc668c4b,16:55:33,27/03/2024
html-keyboard-response,202,427863,0.0-83.0-3.0,,<div style='margin:auto;width: auto; font-size: 150%'><span style='font-weight: bold; font-size: 100px; color: green;'>+10 points!</span><br><br></div>,,delaylearn,learning,feedback_image_window,xrE6pwXf6nOfeb59ns940WYZyNl1,xrE6pwXf6nOfeb59ns940WYZyNl1,,,,,,,,,,,,,,,,,,,,,,60394fde95a5a03dcc668c4b,16:55:33,27/03/2024
html-keyboard-response,203,429373,0.0-84.0,,"<div style=""font-size:100px;"">+</div>",,delaylearn,learning,ITI,xrE6pwXf6nOfeb59ns940WYZyNl1,xrE6pwXf6nOfeb59ns940WYZyNl1,,,,,,,,,,,,,,,,,,,1500.0,,,60394fde95a5a03dcc668c4b,16:55:33,27/03/2024
html-keyboard-response,204,430770,0.0-85.0-0.0,1393.8000000715256,"<div style=""display: flex; flex-direction: column; align-items: center; margin-top: -40px;""><img src=""images/pattern_4.png"" style=""width: 234px; height: 230px; margin-top: -50px;""><div style=""display: flex; justify-content: space-between; margin-top: 33px;""><img src=""images/choice_trial_7.png"" style=""width: 408px; height: 417px; margin-right: 200px;""><img src=""images/choice_trial_8.png"" style=""width: 408px; height: 417px;""></div></div>",j,delaylearn,learning,trial,xrE6pwXf6nOfeb59ns940WYZyNl1,xrE6pwXf6nOfeb59ns940WYZyNl1,4.0,images/choice_trial_7.png,images/choice_trial_8.png,images/pattern_4.png,f,j,7000.0,7.0,8.0,3.0,1.0,37.0,1.0,0.0,8.0,160.0,,,,,,60394fde95a5a03dcc668c4b,16:55:33,27/03/2024
html-keyboard-response,205,431788,0.0-85.0-1.0,,"<div style=""display: flex; flex-direction: column; align-items: center; margin-top: -40px;""><img src=""images/pattern_4.png"" style=""width: 234px; height: 230px; margin-top: -50px;""><div style=""display: flex; justify-content: space-between; margin-top: 33px;""><img src=""images/choice_trial_8.png"" style=""width: 408px; height: 417px; margin-left:608px;""></div></div>",,delaylearn,learning,display_response,xrE6pwXf6nOfeb59ns940WYZyNl1,xrE6pwXf6nOfeb59ns940WYZyNl1,,,,,,,,,,,,,,,,,chosen stimuli: images/choice_trial_8.png,,,,,60394fde95a5a03dcc668c4b,16:55:33,27/03/2024
html-keyboard-response,206,438805,0.0-85.0-2.0,,,,delaylearn,learning,feedback_duration_window,xrE6pwXf6nOfeb59ns940WYZyNl1,xrE6pwXf6nOfeb59ns940WYZyNl1,,,,,,,,,,,,,,,,,,7000.0,,,,60394fde95a5a03dcc668c4b,16:55:33,27/03/2024
html-keyboard-response,207,440316,0.0-85.0-3.0,,<div style='margin:auto;width: auto; font-size: 150%'><span style='font-weight: bold; font-size: 100px; color: red;'>0 points!</span><br><br></div>,,delaylearn,learning,feedback_image_window,xrE6pwXf6nOfeb59ns940WYZyNl1,xrE6pwXf6nOfeb59ns940WYZyNl1,,,,,,,,,,,,,,,,,,,,,,60394fde95a5a03dcc668c4b,16:55:33,27/03/2024
html-keyboard-response,208,442469,0.0-86.0,,"<div style=""font-size:100px;"">+</div>",,delaylearn,learning,ITI,xrE6pwXf6nOfeb59ns940WYZyNl1,xrE6pwXf6nOfeb59ns940WYZyNl1,,,,,,,,,,,,,,,,,,,2146.0,,,60394fde95a5a03dcc668c4b,16:55:33,27/03/2024
html-keyboard-response,209,443438,0.0-87.0-0.0,965.8999999761581,"<div style=""display: flex; flex-direction: column; align-items: center; margin-top: -40px;""><img src=""images/pattern_7.png"" style=""width: 234px; height: 230px; margin-top: -50px;""><div style=""display: flex; justify-content: space-between; margin-top: 33px;""><img src=""images/choice_trial_13.png"" style=""width: 408px; height: 417px; margin-right: 200px;""><img src=""images/choice_trial_4.png"" style=""width: 408px; height: 417px;""></div></div>",f,delaylearn,learning,trial,xrE6pwXf6nOfeb59ns940WYZyNl1,xrE6pwXf6nOfeb59ns940WYZyNl1,4.0,images/choice_trial_13.png,images/choice_trial_4.png,images/pattern_7.png,f,f,750.0,13.0,4.0,6.0,0.0,38.0,1.0,1.0,13.0,170.0,,,,,,60394fde95a5a03dcc668c4b,16:55:33,27/03/2024
html-keyboard-response,210,444443,0.0-87.0-1.0,,"<div style=""display: flex; flex-direction: column; align-items: center; margin-top: -40px;""><img src=""images/pattern_7.png"" style=""width: 234px; height: 230px; margin-top: -50px;""><div style=""display: flex; justify-content: space-between; margin-top: 33px;""><img src=""images/choice_trial_13.png"" style=""width: 408px; height: 417px; margin-right: 608px;""></div></div>",,delaylearn,learning,display_response,xrE6pwXf6nOfeb59ns940WYZyNl1,xrE6pwXf6nOfeb59ns940WYZyNl1,,,,,,,,,,,,,,,,,chosen stimuli: images/choice_trial_13.png,,,,,60394fde95a5a03dcc668c4b,16:55:33,27/03/2024
html-keyboard-response,211,445204,0.0-87.0-2.0,,,,delaylearn,learning,feedback_duration_window,xrE6pwXf6nOfeb59ns940WYZyNl1,xrE6pwXf6nOfeb59ns940WYZyNl1,,,,,,,,,,,,,,,,,,750.0,,,,60394fde95a5a03dcc668c4b,16:55:33,27/03/2024
html-keyboard-response,212,446721,0.0-87.0-3.0,,<div style='margin:auto;width: auto; font-size: 150%'><span style='font-weight: bold; font-size: 100px; color: green;'>+10 points!</span><br><br></div>,,delaylearn,learning,feedback_image_window,xrE6pwXf6nOfeb59ns940WYZyNl1,xrE6pwXf6nOfeb59ns940WYZyNl1,,,,,,,,,,,,,,,,,,,,,,60394fde95a5a03dcc668c4b,16:55:33,27/03/2024
html-keyboard-response,213,448317,0.0-88.0,,"<div style=""font-size:100px;"">+</div>",,delaylearn,learning,ITI,xrE6pwXf6nOfeb59ns940WYZyNl1,xrE6pwXf6nOfeb59ns940WYZyNl1,,,,,,,,,,,,,,,,,,,1590.0,,,60394fde95a5a03dcc668c4b,16:55:33,27/03/2024
html-keyboard-response,214,449095,0.0-89.0-0.0,775.2000000476837,"<div style=""display: flex; flex-direction: column; align-items: center; margin-top: -40px;""><img src=""images/pattern_1.png"" style=""width: 234px; height: 230px; margin-top: -50px;""><div style=""display: flex; justify-content: space-between; margin-top: 33px;""><img src=""images/choice_trial_1.png"" style=""width: 408px; height: 417px; margin-right: 200px;""><img src=""images/choice_trial_9.png"" style=""width: 408px; height: 417px;""></div></div>",f,delaylearn,learning,trial,xrE6pwXf6nOfeb59ns940WYZyNl1,xrE6pwXf6nOfeb59ns940WYZyNl1,4.0,images/choice_trial_1.png,images/choice_trial_9.png,images/pattern_1.png,f,f,7000.0,1.0,9.0,1.0,0.0,39.0,1.0,1.0,1.0,180.0,,,,,,60394fde95a5a03dcc668c4b,16:55:33,27/03/2024
html-keyboard-response,215,450112,0.0-89.0-1.0,,"<div style=""display: flex; flex-direction: column; align-items: center; margin-top: -40px;""><img src=""images/pattern_1.png"" style=""width: 234px; height: 230px; margin-top: -50px;""><div style=""display: flex; justify-content: space-between; margin-top: 33px;""><img src=""images/choice_trial_1.png"" style=""width: 408px; height: 417px; margin-right: 608px;""></div></div>",,delaylearn,learning,display_response,xrE6pwXf6nOfeb59ns940WYZyNl1,xrE6pwXf6nOfeb59ns940WYZyNl1,,,,,,,,,,,,,,,,,chosen stimuli: images/choice_trial_1.png,,,,,60394fde95a5a03dcc668c4b,16:55:33,27/03/2024
html-keyboard-response,216,457118,0.0-89.0-2.0,,,,delaylearn,learning,feedback_duration_window,xrE6pwXf6nOfeb59ns940WYZyNl1,xrE6pwXf6nOfeb59ns940WYZyNl1,,,,,,,,,,,,,,,,,,7000.0,,,,60394fde95a5a03dcc668c4b,16:55:33,27/03/2024
html-keyboard-response,217,458631,0.0-89.0-3.0,,<div style='margin:auto;width: auto; font-size: 150%'><span style='font-weight: bold; font-size: 100px; color: green;'>+10 points!</span><br><br></div>,,delaylearn,learning,feedback_image_window,xrE6pwXf6nOfeb59ns940WYZyNl1,xrE6pwXf6nOfeb59ns940WYZyNl1,,,,,,,,,,,,,,,,,,,,,,60394fde95a5a03dcc668c4b,16:55:33,27/03/2024
html-keyboard-response,218,459146,0.0-90.0-0.0,,,,,,mood_trial_fixation,xrE6pwXf6nOfeb59ns940WYZyNl1,,,,,,,,,,,,,,,,,,,,,,,60394fde95a5a03dcc668c4b,16:55:33,27/03/2024
lmdlab-html-vas-response,219,462741,0.0-90.0-1.0,2580.0,How happy are you right now?,0.6481481481481481,delaylearn,learning,mood_trial,xrE6pwXf6nOfeb59ns940WYZyNl1,xrE6pwXf6nOfeb59ns940WYZyNl1,,,,,,,,,,,,,,,,,,,,"['Very unhappy', 'Very happy']",,60394fde95a5a03dcc668c4b,16:55:33,27/03/2024
html-keyboard-response,220,464636,0.0-91.0,,"<div style=""font-size:100px;"">+</div>",,delaylearn,learning,ITI,xrE6pwXf6nOfeb59ns940WYZyNl1,xrE6pwXf6nOfeb59ns940WYZyNl1,,,,,,,,,,,,,,,,,,,1878.0,,,60394fde95a5a03dcc668c4b,16:55:33,27/03/2024
html-keyboard-response,221,466164,0.0-92.0-0.0,1523.8999999761581,"<div style=""display: flex; flex-direction: column; align-items: center; margin-top: -40px;""><img src=""images/pattern_3.png"" style=""width: 234px; height: 230px; margin-top: -50px;""><div style=""display: flex; justify-content: space-between; margin-top: 33px;""><img src=""images/choice_trial_16.png"" style=""width: 408px; height: 417px; margin-right: 200px;""><img src=""images/choice_trial_6.png"" style=""width: 408px; height: 417px;""></div></div>",f,delaylearn,learning,trial,xrE6pwXf6nOfeb59ns940WYZyNl1,xrE6pwXf6nOfeb59ns940WYZyNl1,4.0,images/choice_trial_16.png,images/choice_trial_6.png,images/pattern_3.png,j,f,7000.0,16.0,6.0,2.0,0.0,40.0,1.0,0.0,16.0,180.0,,,,,,60394fde95a5a03dcc668c4b,16:55:33,27/03/2024
html-keyboard-response,222,467174,0.0-92.0-1.0,,"<div style=""display: flex; flex-direction: column; align-items: center; margin-top: -40px;""><img src=""images/pattern_3.png"" style=""width: 234px; height: 230px; margin-top: -50px;""><div style=""display: flex; justify-content: space-between; margin-top: 33px;""><img src=""images/choice_trial_16.png"" style=""width: 408px; height: 417px; margin-right: 608px;""></div></div>",,delaylearn,learning,display_response,xrE6pwXf6nOfeb59ns940WYZyNl1,xrE6pwXf6nOfeb59ns940WYZyNl1,,,,,,,,,,,,,,,,,chosen stimuli: images/choice_trial_16.png,,,,,60394fde95a5a03dcc668c4b,16:55:33,27/03/2024
html-keyboard-response,223,474184,0.0-92.0-2.0,,,,delaylearn,learning,feedback_duration_window,xrE6pwXf6nOfeb59ns940WYZyNl1,xrE6pwXf6nOfeb59ns940WYZyNl1,,,,,,,,,,,,,,,,,,7000.0,,,,60394fde95a5a03dcc668c4b,16:55:33,27/03/2024
html-keyboard-response,224,475689,0.0-92.0-3.0,,<div style='margin:auto;width: auto; font-size: 150%'><span style='font-weight: bold; font-size: 100px; color: red;'>0 points!</span><br><br></div>,,delaylearn,learning,feedback_image_window,xrE6pwXf6nOfeb59ns940WYZyNl1,xrE6pwXf6nOfeb59ns940WYZyNl1,,,,,,,,,,,,,,,,,,,,,,60394fde95a5a03dcc668c4b,16:55:33,27/03/2024
html-keyboard-response,225,477513,0.0-93.0,,"<div style=""font-size:100px;"">+</div>",,delaylearn,learning,ITI,xrE6pwXf6nOfeb59ns940WYZyNl1,xrE6pwXf6nOfeb59ns940WYZyNl1,,,,,,,,,,,,,,,,,,,1819.0,,,60394fde95a5a03dcc668c4b,16:55:33,27/03/2024
html-keyboard-response,226,478894,0.0-94.0-0.0,1377.5999999046326,"<div style=""display: flex; flex-direction: column; align-items: center; margin-top: -40px;""><img src=""images/pattern_7.png"" style=""width: 234px; height: 230px; margin-top: -50px;""><div style=""display: flex; justify-content: space-between; margin-top: 33px;""><img src=""images/choice_trial_4.png"" style=""width: 408px; height: 417px; margin-right: 200px;""><img src=""images/choice_trial_13.png"" style=""width: 408px; height: 417px;""></div></div>",f,delaylearn,learning,trial,xrE6pwXf6nOfeb59ns940WYZyNl1,xrE6pwXf6nOfeb59ns940WYZyNl1,4.0,images/choice_trial_4.png,images/choice_trial_13.png,images/pattern_7.png,j,j,750.0,4.0,13.0,6.0,1.0,41.0,0.0,0.0,4.0,180.0,,,,,,60394fde95a5a03dcc668c4b,16:55:33,27/03/2024
html-keyboard-response,227,479903,0.0-94.0-1.0,,"<div style=""display: flex; flex-direction: column; align-items: center; margin-top: -40px;""><img src=""images/pattern_7.png"" style=""width: 234px; height: 230px; margin-top: -50px;""><div style=""display: flex; justify-content: space-between; margin-top: 33px;""><img src=""images/choice_trial_4.png"" style=""width: 408px; height: 417px; margin-right: 608px;""></div></div>",,delaylearn,learning,display_response,xrE6pwXf6nOfeb59ns940WYZyNl1,xrE6pwXf6nOfeb59ns940WYZyNl1,,,,,,,,,,,,,,,,,chosen stimuli: images/choice_trial_4.png,,,,,60394fde95a5a03dcc668c4b,16:55:33,27/03/2024
html-keyboard-response,228,480661,0.0-94.0-2.0,,,,delaylearn,learning,feedback_duration_window,xrE6pwXf6nOfeb59ns940WYZyNl1,xrE6pwXf6nOfeb59ns940WYZyNl1,,,,,,,,,,,,,,,,,,750.0,,,,60394fde95a5a03dcc668c4b,16:55:33,27/03/2024
html-keyboard-response,229,482173,0.0-94.0-3.0,,<div style='margin:auto;width: auto; font-size: 150%'><span style='font-weight: bold; font-size: 100px; color: red;'>0 points!</span><br><br></div>,,delaylearn,learning,feedback_image_window,xrE6pwXf6nOfeb59ns940WYZyNl1,xrE6pwXf6nOfeb59ns940WYZyNl1,,,,,,,,,,,,,,,,,,,,,,60394fde95a5a03dcc668c4b,16:55:33,27/03/2024
html-keyboard-response,230,484218,0.0-95.0,,"<div style=""font-size:100px;"">+</div>",,delaylearn,learning,ITI,xrE6pwXf6nOfeb59ns940WYZyNl1,xrE6pwXf6nOfeb59ns940WYZyNl1,,,,,,,,,,,,,,,,,,,2029.0,,,60394fde95a5a03dcc668c4b,16:55:33,27/03/2024
html-keyboard-response,231,485806,0.0-96.0-0.0,1584.2000000476837,"<div style=""display: flex; flex-direction: column; align-items: center; margin-top: -40px;""><img src=""images/pattern_5.png"" style=""width: 234px; height: 230px; margin-top: -50px;""><div style=""display: flex; justify-content: space-between; margin-top: 33px;""><img src=""images/choice_trial_15.png"" style=""width: 408px; height: 417px; margin-right: 200px;""><img src=""images/choice_trial_5.png"" style=""width: 408px; height: 417px;""></div></div>",f,delaylearn,learning,trial,xrE6pwXf6nOfeb59ns940WYZyNl1,xrE6pwXf6nOfeb59ns940WYZyNl1,4.0,images/choice_trial_15.png,images/choice_trial_5.png,images/pattern_5.png,j,j,750.0,15.0,5.0,4.0,1.0,42.0,0.0,0.0,15.0,180.0,,,,,,60394fde95a5a03dcc668c4b,16:55:33,27/03/2024
