trial_type,trial_index,time_elapsed,internal_node_id,rt,stimulus,response,exp_name,exp_stage,test_part,subjectID,databaseID,counterbal,choice_stimuli_1,choice_stimuli_2,pattern_stimuli,rewarded_answer,correct_answer,feedback_duration_times,stim_left,stim_right,pair,leftright_counter,trial,response_correct,response_rewarded,chosen_stim,counter,displayed_choice,feedback_durations,ITI_duration,labels,rest_warning,prolificID,start_time,date
pavlovia,0,521,0.0-0.0,,,,,,,nWhssvZeXHg5JuLn9TWdR4JFZ5B2,,,,,,,,,,,,,,,,,,,,,,,5f19a735255c76000b023d92,16:38:54,27/03/2024
html-keyboard-response,1,3530,0.0-1.0,,"<div style=""font-size:100px;"">+</div>",,delaylearn,learning,pre_fixation,nWhssvZeXHg5JuLn9TWdR4JFZ5B2,,,,,,,,,,,,,,,,,,,,,,,5f19a735255c76000b023d92,16:38:54,27/03/2024
html-keyboard-response,2,4240,0.0-2.0-0.0,708.0,"<div style=""display: flex; flex-direction: column; align-items: center; margin-top: -40px;""><img src=""images/demo_images/pattern_1.png"" style=""width: 234px; height: 230px; margin-top: -50px;""><div style=""display: flex; justify-content: space-between; margin-top: 33px;""><img src=""images/demo_images/choice_trial_2.png"" style=""width: 408px; height: 417px; margin-right: 200px;""><img src=""images/demo_images/choice_trial_1.png"" style=""width: 408px; height: 417px;""></div></div>",f,delaylearn,learning,trial,nWhssvZeXHg5JuLn9TWdR4JFZ5B2,nWhssvZeXHg5JuLn9TWdR4JFZ5B2,1.0,images/demo_images/choice_trial_2.png,images/demo_images/choice_trial_1.png,images/demo_images/pattern_1.png,j,j,3000.0,2.0,1.0,20.0,1.0,1.0,0.0,0.0,2.0,0.0,,,,,,5f19a735255c76000b023d92,16:38:54,27/03/2024
html-keyboard-response,3,5257,0.0-2.0-1.0,,"<div style=""display: flex; flex-direction: column; align-items: center; margin-top: -40px;""><img src=""images/demo_images/pattern_1.png"" style=""width: 234px; height: 230px; margin-top: -50px;""><div style=""display: flex; justify-content: space-between; margin-top: 33px;""><img src=""images/demo_images/choice_trial_2.png"" style=""width: 408px; height: 417px; margin-right: 608px;""></div></div>",,delaylearn,learning,display_response,nWhssvZeXHg5JuLn9TWdR4JFZ5B2,nWhssvZeXHg5JuLn9TWdR4JFZ5B2,,,,,,,,,,,,,,,,,chosen stimuli: images/demo_images/choice_trial_2.png,,,,,5f19a735255c76000b023d92,16:38:54,27/03/2024
html-keyboard-response,4,8268,0.0-2.0-2.0,,,,delaylearn,learning,feedback_duration_window,nWhssvZeXHg5JuLn9TWdR4JFZ5B2,nWhssvZeXHg5JuLn9TWdR4JFZ5B2,,,,,,,,,,,,,,,,,,3000.0,,,,5f19a735255c76000b023d92,16:38:54,27/03/2024
html-keyboard-response,5,9779,0.0-2.0-3.0,,<div style='margin:auto;width: auto; font-size: 150%'><span style='font-weight: bold; font-size: 100px; color: red;'>0 points!</span><br><br></div>,,delaylearn,learning,feedback_image_window,nWhssvZeXHg5JuLn9TWdR4JFZ5B2,nWhssvZeXHg5JuLn9TWdR4JFZ5B2,,,,,,,,,,,,,,,,,,,,,,5f19a735255c76000b023d92,16:38:54,27/03/2024
html-keyboard-response,6,11710,0.0-3.0,,"<div style=""font-size:100px;"">+</div>",,delaylearn,learning,ITI,nWhssvZeXHg5JuLn9TWdR4JFZ5B2,nWhssvZeXHg5JuLn9TWdR4JFZ5B2,,,,,,,,,,,,,,,,,,,1927.0,,,5f19a735255c76000b023d92,16:38:54,27/03/2024
html-keyboard-response,7,12632,0.0-4.0-0.0,919.0,"<div style=""display: flex; flex-direction: column; align-items: center; margin-top: -40px;""><img src=""images/demo_images/pattern_1.png"" style=""width: 234px; height: 230px; margin-top: -50px;""><div style=""display: flex; justify-content: space-between; margin-top: 33px;""><img src=""images/demo_images/choice_trial_2.png"" style=""width: 408px; height: 417px; margin-right: 200px;""><img src=""images/demo_images/choice_trial_1.png"" style=""width: 408px; height: 417px;""></div></div>",j,delaylearn,learning,trial,nWhssvZeXHg5JuLn9TWdR4JFZ5B2,nWhssvZeXHg5JuLn9TWdR4JFZ5B2,1.0,images/demo_images/choice_trial_2.png,images/demo_images/choice_trial_1.png,images/demo_images/pattern_1.png,j,j,3000.0,2.0,1.0,20.0,1.0,2.0,1.0,1.0,1.0,10.0,,,,,,5f19a735255c76000b023d92,16:38:54,27/03/2024
html-keyboard-response,8,13641,0.0-4.0-1.0,,"<div style=""display: flex; flex-direction: column; align-items: center; margin-top: -40px;""><img src=""images/demo_images/pattern_1.png"" style=""width: 234px; height: 230px; margin-top: -50px;""><div style=""display: flex; justify-content: space-between; margin-top: 33px;""><img src=""images/demo_images/choice_trial_1.png"" style=""width: 408px; height: 417px; margin-left:608px;""></div></div>",,delaylearn,learning,display_response,nWhssvZeXHg5JuLn9TWdR4JFZ5B2,nWhssvZeXHg5JuLn9TWdR4JFZ5B2,,,,,,,,,,,,,,,,,chosen stimuli: images/demo_images/choice_trial_1.png,,,,,5f19a735255c76000b023d92,16:38:54,27/03/2024
html-keyboard-response,9,16658,0.0-4.0-2.0,,,,delaylearn,learning,feedback_duration_window,nWhssvZeXHg5JuLn9TWdR4JFZ5B2,nWhssvZeXHg5JuLn9TWdR4JFZ5B2,,,,,,,,,,,,,,,,,,3000.0,,,,5f19a735255c76000b023d92,16:38:54,27/03/2024
html-keyboard-response,10,18167,0.0-4.0-3.0,,<div style='margin:auto;width: auto; font-size: 150%'><span style='font-weight: bold; font-size: 100px; color: green;'>+10 points!</span><br><br></div>,,delaylearn,learning,feedback_image_window,nWhssvZeXHg5JuLn9TWdR4JFZ5B2,nWhssvZeXHg5JuLn9TWdR4JFZ5B2,,,,,,,,,,,,,,,,,,,,,,5f19a735255c76000b023d92,16:38:54,27/03/2024
html-keyboard-response,11,20540,0.0-5.0,,"<div style=""font-size:100px;"">+</div>",,delaylearn,learning,ITI,nWhssvZeXHg5JuLn9TWdR4JFZ5B2,nWhssvZeXHg5JuLn9TWdR4JFZ5B2,,,,,,,,,,,,,,,,,,,2368.0,,,5f19a735255c76000b023d92,16:38:54,27/03/2024
html-keyboard-response,12,21712,0.0-6.0-0.0,1170.0,"<div style=""display: flex; flex-direction: column; align-items: center; margin-top: -40px;""><img src=""images/demo_images/pattern_1.png"" style=""width: 234px; height: 230px; margin-top: -50px;""><div style=""display: flex; justify-content: space-between; margin-top: 33px;""><img src=""images/demo_images/choice_trial_1.png"" style=""width: 408px; height: 417px; margin-right: 200px;""><img src=""images/demo_images/choice_trial_2.png"" style=""width: 408px; height: 417px;""></div></div>",f,delaylearn,learning,trial,nWhssvZeXHg5JuLn9TWdR4JFZ5B2,nWhssvZeXHg5JuLn9TWdR4JFZ5B2,1.0,images/demo_images/choice_trial_1.png,images/demo_images/choice_trial_2.png,images/demo_images/pattern_1.png,j,f,3000.0,1.0,2.0,20.0,0.0,3.0,1.0,0.0,1.0,10.0,,,,,,5f19a735255c76000b023d92,16:38:54,27/03/2024
html-keyboard-response,13,22720,0.0-6.0-1.0,,"<div style=""display: flex; flex-direction: column; align-items: center; margin-top: -40px;""><img src=""images/demo_images/pattern_1.png"" style=""width: 234px; height: 230px; margin-top: -50px;""><div style=""display: flex; justify-content: space-between; margin-top: 33px;""><img src=""images/demo_images/choice_trial_1.png"" style=""width: 408px; height: 417px; margin-right: 608px;""></div></div>",,delaylearn,learning,display_response,nWhssvZeXHg5JuLn9TWdR4JFZ5B2,nWhssvZeXHg5JuLn9TWdR4JFZ5B2,,,,,,,,,,,,,,,,,chosen stimuli: images/demo_images/choice_trial_1.png,,,,,5f19a735255c76000b023d92,16:38:54,27/03/2024
html-keyboard-response,14,25735,0.0-6.0-2.0,,,,delaylearn,learning,feedback_duration_window,nWhssvZeXHg5JuLn9TWdR4JFZ5B2,nWhssvZeXHg5JuLn9TWdR4JFZ5B2,,,,,,,,,,,,,,,,,,3000.0,,,,5f19a735255c76000b023d92,16:38:54,27/03/2024
html-keyboard-response,15,27237,0.0-6.0-3.0,,<div style='margin:auto;width: auto; font-size: 150%'><span style='font-weight: bold; font-size: 100px; color: red;'>0 points!</span><br><br></div>,,delaylearn,learning,feedback_image_window,nWhssvZeXHg5JuLn9TWdR4JFZ5B2,nWhssvZeXHg5JuLn9TWdR4JFZ5B2,,,,,,,,,,,,,,,,,,,,,,5f19a735255c76000b023d92,16:38:54,27/03/2024
html-keyboard-response,16,29220,0.0-7.0,,"<div style=""font-size:100px;"">+</div>",,delaylearn,learning,ITI,nWhssvZeXHg5JuLn9TWdR4JFZ5B2,nWhssvZeXHg5JuLn9TWdR4JFZ5B2,,,,,,,,,,,,,,,,,,,1981.0,,,5f19a735255c76000b023d92,16:38:54,27/03/2024
html-keyboard-response,17,30148,0.0-8.0-0.0,926.0,"<div style=""display: flex; flex-direction: column; align-items: center; margin-top: -40px;""><img src=""images/demo_images/pattern_1.png"" style=""width: 234px; height: 230px; margin-top: -50px;""><div style=""display: flex; justify-content: space-between; margin-top: 33px;""><img src=""images/demo_images/choice_trial_1.png"" style=""width: 408px; height: 417px; margin-right: 200px;""><img src=""images/demo_images/choice_trial_2.png"" style=""width: 408px; height: 417px;""></div></div>",j,delaylearn,learning,trial,nWhssvZeXHg5JuLn9TWdR4JFZ5B2,nWhssvZeXHg5JuLn9TWdR4JFZ5B2,1.0,images/demo_images/choice_trial_1.png,images/demo_images/choice_trial_2.png,images/demo_images/pattern_1.png,f,f,3000.0,1.0,2.0,20.0,0.0,4.0,0.0,0.0,2.0,10.0,,,,,,5f19a735255c76000b023d92,16:38:54,27/03/2024
html-keyboard-response,18,31161,0.0-8.0-1.0,,"<div style=""display: flex; flex-direction: column; align-items: center; margin-top: -40px;""><img src=""images/demo_images/pattern_1.png"" style=""width: 234px; height: 230px; margin-top: -50px;""><div style=""display: flex; justify-content: space-between; margin-top: 33px;""><img src=""images/demo_images/choice_trial_2.png"" style=""width: 408px; height: 417px; margin-left:608px;""></div></div>",,delaylearn,learning,display_response,nWhssvZeXHg5JuLn9TWdR4JFZ5B2,nWhssvZeXHg5JuLn9TWdR4JFZ5B2,,,,,,,,,,,,,,,,,chosen stimuli: images/demo_images/choice_trial_2.png,,,,,5f19a735255c76000b023d92,16:38:54,27/03/2024
html-keyboard-response,19,34175,0.0-8.0-2.0,,,,delaylearn,learning,feedback_duration_window,nWhssvZeXHg5JuLn9TWdR4JFZ5B2,nWhssvZeXHg5JuLn9TWdR4JFZ5B2,,,,,,,,,,,,,,,,,,3000.0,,,,5f19a735255c76000b023d92,16:38:54,27/03/2024
html-keyboard-response,20,35684,0.0-8.0-3.0,,<div style='margin:auto;width: auto; font-size: 150%'><span style='font-weight: bold; font-size: 100px; color: red;'>0 points!</span><br><br></div>,,delaylearn,learning,feedback_image_window,nWhssvZeXHg5JuLn9TWdR4JFZ5B2,nWhssvZeXHg5JuLn9TWdR4JFZ5B2,,,,,,,,,,,,,,,,,,,,,,5f19a735255c76000b023d92,16:38:54,27/03/2024
html-keyboard-response,21,36186,0.0-9.0-0.0,,,,,,mood_trial_fixation,nWhssvZeXHg5JuLn9TWdR4JFZ5B2,,,,,,,,,,,,,,,,,,,,,,,5f19a735255c76000b023d92,16:38:54,27/03/2024
lmdlab-html-vas-response,22,41742,0.0-9.0-1.0,4547.0,How happy are you right now?,0.4544270821260633,delaylearn,learning,mood_trial,nWhssvZeXHg5JuLn9TWdR4JFZ5B2,nWhssvZeXHg5JuLn9TWdR4JFZ5B2,,,,,,,,,,,,,,,,,,,,"['Very unhappy', 'Very happy']",,5f19a735255c76000b023d92,16:38:54,27/03/2024
html-keyboard-response,23,44112,0.0-10.0,,"<div style=""font-size:100px;"">+</div>",,delaylearn,learning,ITI,nWhssvZeXHg5JuLn9TWdR4JFZ5B2,nWhssvZeXHg5JuLn9TWdR4JFZ5B2,,,,,,,,,,,,,,,,,,,2356.0,,,5f19a735255c76000b023d92,16:38:54,27/03/2024
html-keyboard-response,24,45147,0.0-11.0-0.0,1033.0,"<div style=""display: flex; flex-direction: column; align-items: center; margin-top: -40px;""><img src=""images/demo_images/pattern_1.png"" style=""width: 234px; height: 230px; margin-top: -50px;""><div style=""display: flex; justify-content: space-between; margin-top: 33px;""><img src=""images/demo_images/choice_trial_2.png"" style=""width: 408px; height: 417px; margin-right: 200px;""><img src=""images/demo_images/choice_trial_1.png"" style=""width: 408px; height: 417px;""></div></div>",f,delaylearn,learning,trial,nWhssvZeXHg5JuLn9TWdR4JFZ5B2,nWhssvZeXHg5JuLn9TWdR4JFZ5B2,1.0,images/demo_images/choice_trial_2.png,images/demo_images/choice_trial_1.png,images/demo_images/pattern_1.png,j,j,3000.0,2.0,1.0,20.0,1.0,5.0,0.0,0.0,2.0,10.0,,,,,,5f19a735255c76000b023d92,16:38:54,27/03/2024
html-keyboard-response,25,46154,0.0-11.0-1.0,,"<div style=""display: flex; flex-direction: column; align-items: center; margin-top: -40px;""><img src=""images/demo_images/pattern_1.png"" style=""width: 234px; height: 230px; margin-top: -50px;""><div style=""display: flex; justify-content: space-between; margin-top: 33px;""><img src=""images/demo_images/choice_trial_2.png"" style=""width: 408px; height: 417px; margin-right: 608px;""></div></div>",,delaylearn,learning,display_response,nWhssvZeXHg5JuLn9TWdR4JFZ5B2,nWhssvZeXHg5JuLn9TWdR4JFZ5B2,,,,,,,,,,,,,,,,,chosen stimuli: images/demo_images/choice_trial_2.png,,,,,5f19a735255c76000b023d92,16:38:54,27/03/2024
html-keyboard-response,26,49158,0.0-11.0-2.0,,,,delaylearn,learning,feedback_duration_window,nWhssvZeXHg5JuLn9TWdR4JFZ5B2,nWhssvZeXHg5JuLn9TWdR4JFZ5B2,,,,,,,,,,,,,,,,,,3000.0,,,,5f19a735255c76000b023d92,16:38:54,27/03/2024
html-keyboard-response,27,50666,0.0-11.0-3.0,,<div style='margin:auto;width: auto; font-size: 150%'><span style='font-weight: bold; font-size: 100px; color: red;'>0 points!</span><br><br></div>,,delaylearn,learning,feedback_image_window,nWhssvZeXHg5JuLn9TWdR4JFZ5B2,nWhssvZeXHg5JuLn9TWdR4JFZ5B2,,,,,,,,,,,,,,,,,,,,,,5f19a735255c76000b023d92,16:38:54,27/03/2024
html-keyboard-response,28,52746,0.0-12.0,,"<div style=""font-size:100px;"">+</div>",,delaylearn,learning,ITI,nWhssvZeXHg5JuLn9TWdR4JFZ5B2,nWhssvZeXHg5JuLn9TWdR4JFZ5B2,,,,,,,,,,,,,,,,,,,2066.0,,,5f19a735255c76000b023d92,16:38:54,27/03/2024
html-keyboard-response,29,54725,0.0-13.0-0.0,1976.0,"<div style=""display: flex; flex-direction: column; align-items: center; margin-top: -40px;""><img src=""images/demo_images/pattern_1.png"" style=""width: 234px; height: 230px; margin-top: -50px;""><div style=""display: flex; justify-content: space-between; margin-top: 33px;""><img src=""images/demo_images/choice_trial_1.png"" style=""width: 408px; height: 417px; margin-right: 200px;""><img src=""images/demo_images/choice_trial_2.png"" style=""width: 408px; height: 417px;""></div></div>",f,delaylearn,learning,trial,nWhssvZeXHg5JuLn9TWdR4JFZ5B2,nWhssvZeXHg5JuLn9TWdR4JFZ5B2,1.0,images/demo_images/choice_trial_1.png,images/demo_images/choice_trial_2.png,images/demo_images/pattern_1.png,f,f,3000.0,1.0,2.0,20.0,0.0,6.0,1.0,1.0,1.0,20.0,,,,,,5f19a735255c76000b023d92,16:38:54,27/03/2024
html-keyboard-response,30,55742,0.0-13.0-1.0,,"<div style=""display: flex; flex-direction: column; align-items: center; margin-top: -40px;""><img src=""images/demo_images/pattern_1.png"" style=""width: 234px; height: 230px; margin-top: -50px;""><div style=""display: flex; justify-content: space-between; margin-top: 33px;""><img src=""images/demo_images/choice_trial_1.png"" style=""width: 408px; height: 417px; margin-right: 608px;""></div></div>",,delaylearn,learning,display_response,nWhssvZeXHg5JuLn9TWdR4JFZ5B2,nWhssvZeXHg5JuLn9TWdR4JFZ5B2,,,,,,,,,,,,,,,,,chosen stimuli: images/demo_images/choice_trial_1.png,,,,,5f19a735255c76000b023d92,16:38:54,27/03/2024
html-keyboard-response,31,58752,0.0-13.0-2.0,,,,delaylearn,learning,feedback_duration_window,nWhssvZeXHg5JuLn9TWdR4JFZ5B2,nWhssvZeXHg5JuLn9TWdR4JFZ5B2,,,,,,,,,,,,,,,,,,3000.0,,,,5f19a735255c76000b023d92,16:38:54,27/03/2024
html-keyboard-response,32,60261,0.0-13.0-3.0,,<div style='margin:auto;width: auto; font-size: 150%'><span style='font-weight: bold; font-size: 100px; color: green;'>+10 points!</span><br><br></div>,,delaylearn,learning,feedback_image_window,nWhssvZeXHg5JuLn9TWdR4JFZ5B2,nWhssvZeXHg5JuLn9TWdR4JFZ5B2,,,,,,,,,,,,,,,,,,,,,,5f19a735255c76000b023d92,16:38:54,27/03/2024
html-keyboard-response,33,62169,0.0-14.0,,"<div style=""font-size:100px;"">+</div>",,delaylearn,learning,ITI,nWhssvZeXHg5JuLn9TWdR4JFZ5B2,nWhssvZeXHg5JuLn9TWdR4JFZ5B2,,,,,,,,,,,,,,,,,,,1898.0,,,5f19a735255c76000b023d92,16:38:54,27/03/2024
html-keyboard-response,34,63535,0.0-15.0-0.0,1363.0,"<div style=""display: flex; flex-direction: column; align-items: center; margin-top: -40px;""><img src=""images/demo_images/pattern_1.png"" style=""width: 234px; height: 230px; margin-top: -50px;""><div style=""display: flex; justify-content: space-between; margin-top: 33px;""><img src=""images/demo_images/choice_trial_2.png"" style=""width: 408px; height: 417px; margin-right: 200px;""><img src=""images/demo_images/choice_trial_1.png"" style=""width: 408px; height: 417px;""></div></div>",j,delaylearn,learning,trial,nWhssvZeXHg5JuLn9TWdR4JFZ5B2,nWhssvZeXHg5JuLn9TWdR4JFZ5B2,1.0,images/demo_images/choice_trial_2.png,images/demo_images/choice_trial_1.png,images/demo_images/pattern_1.png,j,j,3000.0,2.0,1.0,20.0,1.0,7.0,1.0,1.0,1.0,30.0,,,,,,5f19a735255c76000b023d92,16:38:54,27/03/2024
html-keyboard-response,35,64548,0.0-15.0-1.0,,"<div style=""display: flex; flex-direction: column; align-items: center; margin-top: -40px;""><img src=""images/demo_images/pattern_1.png"" style=""width: 234px; height: 230px; margin-top: -50px;""><div style=""display: flex; justify-content: space-between; margin-top: 33px;""><img src=""images/demo_images/choice_trial_1.png"" style=""width: 408px; height: 417px; margin-left:608px;""></div></div>",,delaylearn,learning,display_response,nWhssvZeXHg5JuLn9TWdR4JFZ5B2,nWhssvZeXHg5JuLn9TWdR4JFZ5B2,,,,,,,,,,,,,,,,,chosen stimuli: images/demo_images/choice_trial_1.png,,,,,5f19a735255c76000b023d92,16:38:54,27/03/2024
html-keyboard-response,36,67551,0.0-15.0-2.0,,,,delaylearn,learning,feedback_duration_window,nWhssvZeXHg5JuLn9TWdR4JFZ5B2,nWhssvZeXHg5JuLn9TWdR4JFZ5B2,,,,,,,,,,,,,,,,,,3000.0,,,,5f19a735255c76000b023d92,16:38:54,27/03/2024
html-keyboard-response,37,69058,0.0-15.0-3.0,,<div style='margin:auto;width: auto; font-size: 150%'><span style='font-weight: bold; font-size: 100px; color: green;'>+10 points!</span><br><br></div>,,delaylearn,learning,feedback_image_window,nWhssvZeXHg5JuLn9TWdR4JFZ5B2,nWhssvZeXHg5JuLn9TWdR4JFZ5B2,,,,,,,,,,,,,,,,,,,,,,5f19a735255c76000b023d92,16:38:54,27/03/2024
html-keyboard-response,38,71539,0.0-16.0,,"<div style=""font-size:100px;"">+</div>",,delaylearn,learning,ITI,nWhssvZeXHg5JuLn9TWdR4JFZ5B2,nWhssvZeXHg5JuLn9TWdR4JFZ5B2,,,,,,,,,,,,,,,,,,,2467.0,,,5f19a735255c76000b023d92,16:38:54,27/03/2024
html-keyboard-response,39,72626,0.0-17.0-0.0,1084.0,"<div style=""display: flex; flex-direction: column; align-items: center; margin-top: -40px;""><img src=""images/demo_images/pattern_1.png"" style=""width: 234px; height: 230px; margin-top: -50px;""><div style=""display: flex; justify-content: space-between; margin-top: 33px;""><img src=""images/demo_images/choice_trial_1.png"" style=""width: 408px; height: 417px; margin-right: 200px;""><img src=""images/demo_images/choice_trial_2.png"" style=""width: 408px; height: 417px;""></div></div>",f,delaylearn,learning,trial,nWhssvZeXHg5JuLn9TWdR4JFZ5B2,nWhssvZeXHg5JuLn9TWdR4JFZ5B2,1.0,images/demo_images/choice_trial_1.png,images/demo_images/choice_trial_2.png,images/demo_images/pattern_1.png,f,f,3000.0,1.0,2.0,20.0,0.0,8.0,1.0,1.0,1.0,40.0,,,,,,5f19a735255c76000b023d92,16:38:54,27/03/2024
html-keyboard-response,40,73632,0.0-17.0-1.0,,"<div style=""display: flex; flex-direction: column; align-items: center; margin-top: -40px;""><img src=""images/demo_images/pattern_1.png"" style=""width: 234px; height: 230px; margin-top: -50px;""><div style=""display: flex; justify-content: space-between; margin-top: 33px;""><img src=""images/demo_images/choice_trial_1.png"" style=""width: 408px; height: 417px; margin-right: 608px;""></div></div>",,delaylearn,learning,display_response,nWhssvZeXHg5JuLn9TWdR4JFZ5B2,nWhssvZeXHg5JuLn9TWdR4JFZ5B2,,,,,,,,,,,,,,,,,chosen stimuli: images/demo_images/choice_trial_1.png,,,,,5f19a735255c76000b023d92,16:38:54,27/03/2024
html-keyboard-response,41,76648,0.0-17.0-2.0,,,,delaylearn,learning,feedback_duration_window,nWhssvZeXHg5JuLn9TWdR4JFZ5B2,nWhssvZeXHg5JuLn9TWdR4JFZ5B2,,,,,,,,,,,,,,,,,,3000.0,,,,5f19a735255c76000b023d92,16:38:54,27/03/2024
html-keyboard-response,42,78156,0.0-17.0-3.0,,<div style='margin:auto;width: auto; font-size: 150%'><span style='font-weight: bold; font-size: 100px; color: green;'>+10 points!</span><br><br></div>,,delaylearn,learning,feedback_image_window,nWhssvZeXHg5JuLn9TWdR4JFZ5B2,nWhssvZeXHg5JuLn9TWdR4JFZ5B2,,,,,,,,,,,,,,,,,,,,,,5f19a735255c76000b023d92,16:38:54,27/03/2024
html-button-response,43,98987,0.0-18.0,20828.0,"
  <div style=""display: flex; align-items: center; justify-content: center; height: 80vh;"">
  <div>
          <img src=""images/inst_demo_finish.png"" style=""width: 80vw; height:auto;"">
          <br><br>
      </div>
      <br><br>
  </div>",0,,,,nWhssvZeXHg5JuLn9TWdR4JFZ5B2,,,,,,,,,,,,,,,,,,,,,,,5f19a735255c76000b023d92,16:38:54,27/03/2024
html-keyboard-response,44,114016,0.0-19.0,15028.0,"
  <div style=""display: flex; align-items: center; justify-content: center; height: 80vh;"">
  <div>
          <img src=""images/inst_6.png"" style=""width: 80vw; height:auto;"">
          <br><br>
      </div>
      <br><br>
  </div>",j,,,,nWhssvZeXHg5JuLn9TWdR4JFZ5B2,,,,,,,,,,,,,,,,,,,,,,,5f19a735255c76000b023d92,16:38:54,27/03/2024
html-keyboard-response,45,117023,0.0-20.0,,"<div style=""font-size:100px;"">+</div>",,delaylearn,learning,pre_fixation,nWhssvZeXHg5JuLn9TWdR4JFZ5B2,,,,,,,,,,,,,,,,,,,,,,,5f19a735255c76000b023d92,16:38:54,27/03/2024
html-keyboard-response,46,118832,0.0-21.0,,"<div style=""font-size:100px;"">+</div>",,delaylearn,learning,ITI,nWhssvZeXHg5JuLn9TWdR4JFZ5B2,nWhssvZeXHg5JuLn9TWdR4JFZ5B2,,,,,,,,,,,,,,,,,,,1800.0,,,5f19a735255c76000b023d92,16:38:54,27/03/2024
html-keyboard-response,47,120339,0.0-22.0-0.0,1505.0,"<div style=""display: flex; flex-direction: column; align-items: center; margin-top: -40px;""><img src=""images/pattern_3.png"" style=""width: 234px; height: 230px; margin-top: -50px;""><div style=""display: flex; justify-content: space-between; margin-top: 33px;""><img src=""images/choice_trial_5.png"" style=""width: 408px; height: 417px; margin-right: 200px;""><img src=""images/choice_trial_6.png"" style=""width: 408px; height: 417px;""></div></div>",f,delaylearn,learning,trial,nWhssvZeXHg5JuLn9TWdR4JFZ5B2,nWhssvZeXHg5JuLn9TWdR4JFZ5B2,1.0,images/choice_trial_5.png,images/choice_trial_6.png,images/pattern_3.png,f,f,7000.0,5.0,6.0,2.0,0.0,9.0,1.0,1.0,5.0,50.0,,,,,,5f19a735255c76000b023d92,16:38:54,27/03/2024
html-keyboard-response,48,121344,0.0-22.0-1.0,,"<div style=""display: flex; flex-direction: column; align-items: center; margin-top: -40px;""><img src=""images/pattern_3.png"" style=""width: 234px; height: 230px; margin-top: -50px;""><div style=""display: flex; justify-content: space-between; margin-top: 33px;""><img src=""images/choice_trial_5.png"" style=""width: 408px; height: 417px; margin-right: 608px;""></div></div>",,delaylearn,learning,display_response,nWhssvZeXHg5JuLn9TWdR4JFZ5B2,nWhssvZeXHg5JuLn9TWdR4JFZ5B2,,,,,,,,,,,,,,,,,chosen stimuli: images/choice_trial_5.png,,,,,5f19a735255c76000b023d92,16:38:54,27/03/2024
html-keyboard-response,49,128358,0.0-22.0-2.0,,,,delaylearn,learning,feedback_duration_window,nWhssvZeXHg5JuLn9TWdR4JFZ5B2,nWhssvZeXHg5JuLn9TWdR4JFZ5B2,,,,,,,,,,,,,,,,,,7000.0,,,,5f19a735255c76000b023d92,16:38:54,27/03/2024
html-keyboard-response,50,129865,0.0-22.0-3.0,,<div style='margin:auto;width: auto; font-size: 150%'><span style='font-weight: bold; font-size: 100px; color: green;'>+10 points!</span><br><br></div>,,delaylearn,learning,feedback_image_window,nWhssvZeXHg5JuLn9TWdR4JFZ5B2,nWhssvZeXHg5JuLn9TWdR4JFZ5B2,,,,,,,,,,,,,,,,,,,,,,5f19a735255c76000b023d92,16:38:54,27/03/2024
html-keyboard-response,51,131860,0.0-23.0,,"<div style=""font-size:100px;"">+</div>",,delaylearn,learning,ITI,nWhssvZeXHg5JuLn9TWdR4JFZ5B2,nWhssvZeXHg5JuLn9TWdR4JFZ5B2,,,,,,,,,,,,,,,,,,,1987.0,,,5f19a735255c76000b023d92,16:38:54,27/03/2024
html-keyboard-response,52,133007,0.0-24.0-0.0,1144.0,"<div style=""display: flex; flex-direction: column; align-items: center; margin-top: -40px;""><img src=""images/pattern_7.png"" style=""width: 234px; height: 230px; margin-top: -50px;""><div style=""display: flex; justify-content: space-between; margin-top: 33px;""><img src=""images/choice_trial_14.png"" style=""width: 408px; height: 417px; margin-right: 200px;""><img src=""images/choice_trial_13.png"" style=""width: 408px; height: 417px;""></div></div>",j,delaylearn,learning,trial,nWhssvZeXHg5JuLn9TWdR4JFZ5B2,nWhssvZeXHg5JuLn9TWdR4JFZ5B2,1.0,images/choice_trial_14.png,images/choice_trial_13.png,images/pattern_7.png,j,j,750.0,14.0,13.0,6.0,1.0,10.0,1.0,1.0,13.0,60.0,,,,,,5f19a735255c76000b023d92,16:38:54,27/03/2024
html-keyboard-response,53,134015,0.0-24.0-1.0,,"<div style=""display: flex; flex-direction: column; align-items: center; margin-top: -40px;""><img src=""images/pattern_7.png"" style=""width: 234px; height: 230px; margin-top: -50px;""><div style=""display: flex; justify-content: space-between; margin-top: 33px;""><img src=""images/choice_trial_13.png"" style=""width: 408px; height: 417px; margin-left:608px;""></div></div>",,delaylearn,learning,display_response,nWhssvZeXHg5JuLn9TWdR4JFZ5B2,nWhssvZeXHg5JuLn9TWdR4JFZ5B2,,,,,,,,,,,,,,,,,chosen stimuli: images/choice_trial_13.png,,,,,5f19a735255c76000b023d92,16:38:54,27/03/2024
html-keyboard-response,54,134772,0.0-24.0-2.0,,,,delaylearn,learning,feedback_duration_window,nWhssvZeXHg5JuLn9TWdR4JFZ5B2,nWhssvZeXHg5JuLn9TWdR4JFZ5B2,,,,,,,,,,,,,,,,,,750.0,,,,5f19a735255c76000b023d92,16:38:54,27/03/2024
html-keyboard-response,55,136282,0.0-24.0-3.0,,<div style='margin:auto;width: auto; font-size: 150%'><span style='font-weight: bold; font-size: 100px; color: green;'>+10 points!</span><br><br></div>,,delaylearn,learning,feedback_image_window,nWhssvZeXHg5JuLn9TWdR4JFZ5B2,nWhssvZeXHg5JuLn9TWdR4JFZ5B2,,,,,,,,,,,,,,,,,,,,,,5f19a735255c76000b023d92,16:38:54,27/03/2024
html-keyboard-response,56,138223,0.0-25.0,,"<div style=""font-size:100px;"">+</div>",,delaylearn,learning,ITI,nWhssvZeXHg5JuLn9TWdR4JFZ5B2,nWhssvZeXHg5JuLn9TWdR4JFZ5B2,,,,,,,,,,,,,,,,,,,1928.0,,,5f19a735255c76000b023d92,16:38:54,27/03/2024
html-keyboard-response,57,139525,0.0-26.0-0.0,1300.0,"<div style=""display: flex; flex-direction: column; align-items: center; margin-top: -40px;""><img src=""images/pattern_4.png"" style=""width: 234px; height: 230px; margin-top: -50px;""><div style=""display: flex; justify-content: space-between; margin-top: 33px;""><img src=""images/choice_trial_7.png"" style=""width: 408px; height: 417px; margin-right: 200px;""><img src=""images/choice_trial_8.png"" style=""width: 408px; height: 417px;""></div></div>",f,delaylearn,learning,trial,nWhssvZeXHg5JuLn9TWdR4JFZ5B2,nWhssvZeXHg5JuLn9TWdR4JFZ5B2,1.0,images/choice_trial_7.png,images/choice_trial_8.png,images/pattern_4.png,f,f,7000.0,7.0,8.0,3.0,0.0,11.0,1.0,1.0,7.0,70.0,,,,,,5f19a735255c76000b023d92,16:38:54,27/03/2024
html-keyboard-response,58,140532,0.0-26.0-1.0,,"<div style=""display: flex; flex-direction: column; align-items: center; margin-top: -40px;""><img src=""images/pattern_4.png"" style=""width: 234px; height: 230px; margin-top: -50px;""><div style=""display: flex; justify-content: space-between; margin-top: 33px;""><img src=""images/choice_trial_7.png"" style=""width: 408px; height: 417px; margin-right: 608px;""></div></div>",,delaylearn,learning,display_response,nWhssvZeXHg5JuLn9TWdR4JFZ5B2,nWhssvZeXHg5JuLn9TWdR4JFZ5B2,,,,,,,,,,,,,,,,,chosen stimuli: images/choice_trial_7.png,,,,,5f19a735255c76000b023d92,16:38:54,27/03/2024
html-keyboard-response,59,147540,0.0-26.0-2.0,,,,delaylearn,learning,feedback_duration_window,nWhssvZeXHg5JuLn9TWdR4JFZ5B2,nWhssvZeXHg5JuLn9TWdR4JFZ5B2,,,,,,,,,,,,,,,,,,7000.0,,,,5f19a735255c76000b023d92,16:38:54,27/03/2024
html-keyboard-response,60,149047,0.0-26.0-3.0,,<div style='margin:auto;width: auto; font-size: 150%'><span style='font-weight: bold; font-size: 100px; color: green;'>+10 points!</span><br><br></div>,,delaylearn,learning,feedback_image_window,nWhssvZeXHg5JuLn9TWdR4JFZ5B2,nWhssvZeXHg5JuLn9TWdR4JFZ5B2,,,,,,,,,,,,,,,,,,,,,,5f19a735255c76000b023d92,16:38:54,27/03/2024
html-keyboard-response,61,151486,0.0-27.0,,"<div style=""font-size:100px;"">+</div>",,delaylearn,learning,ITI,nWhssvZeXHg5JuLn9TWdR4JFZ5B2,nWhssvZeXHg5JuLn9TWdR4JFZ5B2,,,,,,,,,,,,,,,,,,,2431.0,,,5f19a735255c76000b023d92,16:38:54,27/03/2024
html-keyboard-response,62,152871,0.0-28.0-0.0,1381.0,"<div style=""display: flex; flex-direction: column; align-items: center; margin-top: -40px;""><img src=""images/pattern_5.png"" style=""width: 234px; height: 230px; margin-top: -50px;""><div style=""display: flex; justify-content: space-between; margin-top: 33px;""><img src=""images/choice_trial_10.png"" style=""width: 408px; height: 417px; margin-right: 200px;""><img src=""images/choice_trial_9.png"" style=""width: 408px; height: 417px;""></div></div>",j,delaylearn,learning,trial,nWhssvZeXHg5JuLn9TWdR4JFZ5B2,nWhssvZeXHg5JuLn9TWdR4JFZ5B2,1.0,images/choice_trial_10.png,images/choice_trial_9.png,images/pattern_5.png,j,j,750.0,10.0,9.0,4.0,1.0,12.0,1.0,1.0,9.0,80.0,,,,,,5f19a735255c76000b023d92,16:38:54,27/03/2024
html-keyboard-response,63,153884,0.0-28.0-1.0,,"<div style=""display: flex; flex-direction: column; align-items: center; margin-top: -40px;""><img src=""images/pattern_5.png"" style=""width: 234px; height: 230px; margin-top: -50px;""><div style=""display: flex; justify-content: space-between; margin-top: 33px;""><img src=""images/choice_trial_9.png"" style=""width: 408px; height: 417px; margin-left:608px;""></div></div>",,delaylearn,learning,display_response,nWhssvZeXHg5JuLn9TWdR4JFZ5B2,nWhssvZeXHg5JuLn9TWdR4JFZ5B2,,,,,,,,,,,,,,,,,chosen stimuli: images/choice_trial_9.png,,,,,5f19a735255c76000b023d92,16:38:54,27/03/2024
html-keyboard-response,64,154640,0.0-28.0-2.0,,,,delaylearn,learning,feedback_duration_window,nWhssvZeXHg5JuLn9TWdR4JFZ5B2,nWhssvZeXHg5JuLn9TWdR4JFZ5B2,,,,,,,,,,,,,,,,,,750.0,,,,5f19a735255c76000b023d92,16:38:54,27/03/2024
html-keyboard-response,65,156141,0.0-28.0-3.0,,<div style='margin:auto;width: auto; font-size: 150%'><span style='font-weight: bold; font-size: 100px; color: green;'>+10 points!</span><br><br></div>,,delaylearn,learning,feedback_image_window,nWhssvZeXHg5JuLn9TWdR4JFZ5B2,nWhssvZeXHg5JuLn9TWdR4JFZ5B2,,,,,,,,,,,,,,,,,,,,,,5f19a735255c76000b023d92,16:38:54,27/03/2024
html-keyboard-response,66,158215,0.0-29.0,,"<div style=""font-size:100px;"">+</div>",,delaylearn,learning,ITI,nWhssvZeXHg5JuLn9TWdR4JFZ5B2,nWhssvZeXHg5JuLn9TWdR4JFZ5B2,,,,,,,,,,,,,,,,,,,2066.0,,,5f19a735255c76000b023d92,16:38:54,27/03/2024
html-keyboard-response,67,159942,0.0-30.0-0.0,1724.0,"<div style=""display: flex; flex-direction: column; align-items: center; margin-top: -40px;""><img src=""images/pattern_6.png"" style=""width: 234px; height: 230px; margin-top: -50px;""><div style=""display: flex; justify-content: space-between; margin-top: 33px;""><img src=""images/choice_trial_11.png"" style=""width: 408px; height: 417px; margin-right: 200px;""><img src=""images/choice_trial_12.png"" style=""width: 408px; height: 417px;""></div></div>",f,delaylearn,learning,trial,nWhssvZeXHg5JuLn9TWdR4JFZ5B2,nWhssvZeXHg5JuLn9TWdR4JFZ5B2,1.0,images/choice_trial_11.png,images/choice_trial_12.png,images/pattern_6.png,j,f,750.0,11.0,12.0,5.0,0.0,13.0,1.0,0.0,11.0,80.0,,,,,,5f19a735255c76000b023d92,16:38:54,27/03/2024
html-keyboard-response,68,160959,0.0-30.0-1.0,,"<div style=""display: flex; flex-direction: column; align-items: center; margin-top: -40px;""><img src=""images/pattern_6.png"" style=""width: 234px; height: 230px; margin-top: -50px;""><div style=""display: flex; justify-content: space-between; margin-top: 33px;""><img src=""images/choice_trial_11.png"" style=""width: 408px; height: 417px; margin-right: 608px;""></div></div>",,delaylearn,learning,display_response,nWhssvZeXHg5JuLn9TWdR4JFZ5B2,nWhssvZeXHg5JuLn9TWdR4JFZ5B2,,,,,,,,,,,,,,,,,chosen stimuli: images/choice_trial_11.png,,,,,5f19a735255c76000b023d92,16:38:54,27/03/2024
html-keyboard-response,69,161717,0.0-30.0-2.0,,,,delaylearn,learning,feedback_duration_window,nWhssvZeXHg5JuLn9TWdR4JFZ5B2,nWhssvZeXHg5JuLn9TWdR4JFZ5B2,,,,,,,,,,,,,,,,,,750.0,,,,5f19a735255c76000b023d92,16:38:54,27/03/2024
html-keyboard-response,70,163223,0.0-30.0-3.0,,<div style='margin:auto;width: auto; font-size: 150%'><span style='font-weight: bold; font-size: 100px; color: red;'>0 points!</span><br><br></div>,,delaylearn,learning,feedback_image_window,nWhssvZeXHg5JuLn9TWdR4JFZ5B2,nWhssvZeXHg5JuLn9TWdR4JFZ5B2,,,,,,,,,,,,,,,,,,,,,,5f19a735255c76000b023d92,16:38:54,27/03/2024
html-keyboard-response,71,163726,0.0-31.0-0.0,,,,,,mood_trial_fixation,nWhssvZeXHg5JuLn9TWdR4JFZ5B2,,,,,,,,,,,,,,,,,,,,,,,5f19a735255c76000b023d92,16:38:54,27/03/2024
lmdlab-html-vas-response,72,168978,0.0-31.0-1.0,4245.0,How happy are you right now?,0.47829861053622064,delaylearn,learning,mood_trial,nWhssvZeXHg5JuLn9TWdR4JFZ5B2,nWhssvZeXHg5JuLn9TWdR4JFZ5B2,,,,,,,,,,,,,,,,,,,,"['Very unhappy', 'Very happy']",,5f19a735255c76000b023d92,16:38:54,27/03/2024
html-keyboard-response,73,171001,0.0-32.0,,"<div style=""font-size:100px;"">+</div>",,delaylearn,learning,ITI,nWhssvZeXHg5JuLn9TWdR4JFZ5B2,nWhssvZeXHg5JuLn9TWdR4JFZ5B2,,,,,,,,,,,,,,,,,,,2006.0,,,5f19a735255c76000b023d92,16:38:54,27/03/2024
html-keyboard-response,74,172289,0.0-33.0-0.0,1287.0,"<div style=""display: flex; flex-direction: column; align-items: center; margin-top: -40px;""><img src=""images/pattern_1.png"" style=""width: 234px; height: 230px; margin-top: -50px;""><div style=""display: flex; justify-content: space-between; margin-top: 33px;""><img src=""images/choice_trial_2.png"" style=""width: 408px; height: 417px; margin-right: 200px;""><img src=""images/choice_trial_1.png"" style=""width: 408px; height: 417px;""></div></div>",j,delaylearn,learning,trial,nWhssvZeXHg5JuLn9TWdR4JFZ5B2,nWhssvZeXHg5JuLn9TWdR4JFZ5B2,1.0,images/choice_trial_2.png,images/choice_trial_1.png,images/pattern_1.png,j,j,7000.0,2.0,1.0,1.0,1.0,14.0,1.0,1.0,1.0,90.0,,,,,,5f19a735255c76000b023d92,16:38:54,27/03/2024
html-keyboard-response,75,173292,0.0-33.0-1.0,,"<div style=""display: flex; flex-direction: column; align-items: center; margin-top: -40px;""><img src=""images/pattern_1.png"" style=""width: 234px; height: 230px; margin-top: -50px;""><div style=""display: flex; justify-content: space-between; margin-top: 33px;""><img src=""images/choice_trial_1.png"" style=""width: 408px; height: 417px; margin-left:608px;""></div></div>",,delaylearn,learning,display_response,nWhssvZeXHg5JuLn9TWdR4JFZ5B2,nWhssvZeXHg5JuLn9TWdR4JFZ5B2,,,,,,,,,,,,,,,,,chosen stimuli: images/choice_trial_1.png,,,,,5f19a735255c76000b023d92,16:38:54,27/03/2024
html-keyboard-response,76,180299,0.0-33.0-2.0,,,,delaylearn,learning,feedback_duration_window,nWhssvZeXHg5JuLn9TWdR4JFZ5B2,nWhssvZeXHg5JuLn9TWdR4JFZ5B2,,,,,,,,,,,,,,,,,,7000.0,,,,5f19a735255c76000b023d92,16:38:54,27/03/2024
html-keyboard-response,77,181804,0.0-33.0-3.0,,<div style='margin:auto;width: auto; font-size: 150%'><span style='font-weight: bold; font-size: 100px; color: green;'>+10 points!</span><br><br></div>,,delaylearn,learning,feedback_image_window,nWhssvZeXHg5JuLn9TWdR4JFZ5B2,nWhssvZeXHg5JuLn9TWdR4JFZ5B2,,,,,,,,,,,,,,,,,,,,,,5f19a735255c76000b023d92,16:38:54,27/03/2024
html-keyboard-response,78,184045,0.0-34.0,,"<div style=""font-size:100px;"">+</div>",,delaylearn,learning,ITI,nWhssvZeXHg5JuLn9TWdR4JFZ5B2,nWhssvZeXHg5JuLn9TWdR4JFZ5B2,,,,,,,,,,,,,,,,,,,2226.0,,,5f19a735255c76000b023d92,16:38:54,27/03/2024
html-keyboard-response,79,185884,0.0-35.0-0.0,1837.0,"<div style=""display: flex; flex-direction: column; align-items: center; margin-top: -40px;""><img src=""images/pattern_3.png"" style=""width: 234px; height: 230px; margin-top: -50px;""><div style=""display: flex; justify-content: space-between; margin-top: 33px;""><img src=""images/choice_trial_6.png"" style=""width: 408px; height: 417px; margin-right: 200px;""><img src=""images/choice_trial_5.png"" style=""width: 408px; height: 417px;""></div></div>",j,delaylearn,learning,trial,nWhssvZeXHg5JuLn9TWdR4JFZ5B2,nWhssvZeXHg5JuLn9TWdR4JFZ5B2,1.0,images/choice_trial_6.png,images/choice_trial_5.png,images/pattern_3.png,f,j,7000.0,6.0,5.0,2.0,1.0,15.0,1.0,0.0,5.0,90.0,,,,,,5f19a735255c76000b023d92,16:38:54,27/03/2024
html-keyboard-response,80,186888,0.0-35.0-1.0,,"<div style=""display: flex; flex-direction: column; align-items: center; margin-top: -40px;""><img src=""images/pattern_3.png"" style=""width: 234px; height: 230px; margin-top: -50px;""><div style=""display: flex; justify-content: space-between; margin-top: 33px;""><img src=""images/choice_trial_5.png"" style=""width: 408px; height: 417px; margin-left:608px;""></div></div>",,delaylearn,learning,display_response,nWhssvZeXHg5JuLn9TWdR4JFZ5B2,nWhssvZeXHg5JuLn9TWdR4JFZ5B2,,,,,,,,,,,,,,,,,chosen stimuli: images/choice_trial_5.png,,,,,5f19a735255c76000b023d92,16:38:54,27/03/2024
html-keyboard-response,81,193899,0.0-35.0-2.0,,,,delaylearn,learning,feedback_duration_window,nWhssvZeXHg5JuLn9TWdR4JFZ5B2,nWhssvZeXHg5JuLn9TWdR4JFZ5B2,,,,,,,,,,,,,,,,,,7000.0,,,,5f19a735255c76000b023d92,16:38:54,27/03/2024
html-keyboard-response,82,195407,0.0-35.0-3.0,,<div style='margin:auto;width: auto; font-size: 150%'><span style='font-weight: bold; font-size: 100px; color: red;'>0 points!</span><br><br></div>,,delaylearn,learning,feedback_image_window,nWhssvZeXHg5JuLn9TWdR4JFZ5B2,nWhssvZeXHg5JuLn9TWdR4JFZ5B2,,,,,,,,,,,,,,,,,,,,,,5f19a735255c76000b023d92,16:38:54,27/03/2024
html-keyboard-response,83,197600,0.0-36.0,,"<div style=""font-size:100px;"">+</div>",,delaylearn,learning,ITI,nWhssvZeXHg5JuLn9TWdR4JFZ5B2,nWhssvZeXHg5JuLn9TWdR4JFZ5B2,,,,,,,,,,,,,,,,,,,2190.0,,,5f19a735255c76000b023d92,16:38:54,27/03/2024
html-keyboard-response,84,198940,0.0-37.0-0.0,1336.0,"<div style=""display: flex; flex-direction: column; align-items: center; margin-top: -40px;""><img src=""images/pattern_5.png"" style=""width: 234px; height: 230px; margin-top: -50px;""><div style=""display: flex; justify-content: space-between; margin-top: 33px;""><img src=""images/choice_trial_9.png"" style=""width: 408px; height: 417px; margin-right: 200px;""><img src=""images/choice_trial_10.png"" style=""width: 408px; height: 417px;""></div></div>",f,delaylearn,learning,trial,nWhssvZeXHg5JuLn9TWdR4JFZ5B2,nWhssvZeXHg5JuLn9TWdR4JFZ5B2,1.0,images/choice_trial_9.png,images/choice_trial_10.png,images/pattern_5.png,f,f,750.0,9.0,10.0,4.0,0.0,16.0,1.0,1.0,9.0,100.0,,,,,,5f19a735255c76000b023d92,16:38:54,27/03/2024
html-keyboard-response,85,199944,0.0-37.0-1.0,,"<div style=""display: flex; flex-direction: column; align-items: center; margin-top: -40px;""><img src=""images/pattern_5.png"" style=""width: 234px; height: 230px; margin-top: -50px;""><div style=""display: flex; justify-content: space-between; margin-top: 33px;""><img src=""images/choice_trial_9.png"" style=""width: 408px; height: 417px; margin-right: 608px;""></div></div>",,delaylearn,learning,display_response,nWhssvZeXHg5JuLn9TWdR4JFZ5B2,nWhssvZeXHg5JuLn9TWdR4JFZ5B2,,,,,,,,,,,,,,,,,chosen stimuli: images/choice_trial_9.png,,,,,5f19a735255c76000b023d92,16:38:54,27/03/2024
html-keyboard-response,86,200702,0.0-37.0-2.0,,,,delaylearn,learning,feedback_duration_window,nWhssvZeXHg5JuLn9TWdR4JFZ5B2,nWhssvZeXHg5JuLn9TWdR4JFZ5B2,,,,,,,,,,,,,,,,,,750.0,,,,5f19a735255c76000b023d92,16:38:54,27/03/2024
html-keyboard-response,87,202209,0.0-37.0-3.0,,<div style='margin:auto;width: auto; font-size: 150%'><span style='font-weight: bold; font-size: 100px; color: green;'>+10 points!</span><br><br></div>,,delaylearn,learning,feedback_image_window,nWhssvZeXHg5JuLn9TWdR4JFZ5B2,nWhssvZeXHg5JuLn9TWdR4JFZ5B2,,,,,,,,,,,,,,,,,,,,,,5f19a735255c76000b023d92,16:38:54,27/03/2024
html-keyboard-response,88,202725,0.0-38.0-0.0,,,,,,mood_trial_fixation,nWhssvZeXHg5JuLn9TWdR4JFZ5B2,,,,,,,,,,,,,,,,,,,,,,,5f19a735255c76000b023d92,16:38:54,27/03/2024
lmdlab-html-vas-response,89,208379,0.0-38.0-1.0,4645.0,How happy are you right now?,0.49131944421448825,delaylearn,learning,mood_trial,nWhssvZeXHg5JuLn9TWdR4JFZ5B2,nWhssvZeXHg5JuLn9TWdR4JFZ5B2,,,,,,,,,,,,,,,,,,,,"['Very unhappy', 'Very happy']",,5f19a735255c76000b023d92,16:38:54,27/03/2024
html-keyboard-response,90,210297,0.0-39.0,,"<div style=""font-size:100px;"">+</div>",,delaylearn,learning,ITI,nWhssvZeXHg5JuLn9TWdR4JFZ5B2,nWhssvZeXHg5JuLn9TWdR4JFZ5B2,,,,,,,,,,,,,,,,,,,1899.0,,,5f19a735255c76000b023d92,16:38:54,27/03/2024
html-keyboard-response,91,212012,0.0-40.0-0.0,1712.0,"<div style=""display: flex; flex-direction: column; align-items: center; margin-top: -40px;""><img src=""images/pattern_6.png"" style=""width: 234px; height: 230px; margin-top: -50px;""><div style=""display: flex; justify-content: space-between; margin-top: 33px;""><img src=""images/choice_trial_11.png"" style=""width: 408px; height: 417px; margin-right: 200px;""><img src=""images/choice_trial_12.png"" style=""width: 408px; height: 417px;""></div></div>",f,delaylearn,learning,trial,nWhssvZeXHg5JuLn9TWdR4JFZ5B2,nWhssvZeXHg5JuLn9TWdR4JFZ5B2,1.0,images/choice_trial_11.png,images/choice_trial_12.png,images/pattern_6.png,f,f,750.0,11.0,12.0,5.0,0.0,17.0,1.0,1.0,11.0,110.0,,,,,,5f19a735255c76000b023d92,16:38:54,27/03/2024
html-keyboard-response,92,213021,0.0-40.0-1.0,,"<div style=""display: flex; flex-direction: column; align-items: center; margin-top: -40px;""><img src=""images/pattern_6.png"" style=""width: 234px; height: 230px; margin-top: -50px;""><div style=""display: flex; justify-content: space-between; margin-top: 33px;""><img src=""images/choice_trial_11.png"" style=""width: 408px; height: 417px; margin-right: 608px;""></div></div>",,delaylearn,learning,display_response,nWhssvZeXHg5JuLn9TWdR4JFZ5B2,nWhssvZeXHg5JuLn9TWdR4JFZ5B2,,,,,,,,,,,,,,,,,chosen stimuli: images/choice_trial_11.png,,,,,5f19a735255c76000b023d92,16:38:54,27/03/2024
html-keyboard-response,93,213779,0.0-40.0-2.0,,,,delaylearn,learning,feedback_duration_window,nWhssvZeXHg5JuLn9TWdR4JFZ5B2,nWhssvZeXHg5JuLn9TWdR4JFZ5B2,,,,,,,,,,,,,,,,,,750.0,,,,5f19a735255c76000b023d92,16:38:54,27/03/2024
html-keyboard-response,94,215285,0.0-40.0-3.0,,<div style='margin:auto;width: auto; font-size: 150%'><span style='font-weight: bold; font-size: 100px; color: green;'>+10 points!</span><br><br></div>,,delaylearn,learning,feedback_image_window,nWhssvZeXHg5JuLn9TWdR4JFZ5B2,nWhssvZeXHg5JuLn9TWdR4JFZ5B2,,,,,,,,,,,,,,,,,,,,,,5f19a735255c76000b023d92,16:38:54,27/03/2024
html-keyboard-response,95,216838,0.0-41.0,,"<div style=""font-size:100px;"">+</div>",,delaylearn,learning,ITI,nWhssvZeXHg5JuLn9TWdR4JFZ5B2,nWhssvZeXHg5JuLn9TWdR4JFZ5B2,,,,,,,,,,,,,,,,,,,1550.0,,,5f19a735255c76000b023d92,16:38:54,27/03/2024
html-keyboard-response,96,218497,0.0-42.0-0.0,1656.0,"<div style=""display: flex; flex-direction: column; align-items: center; margin-top: -40px;""><img src=""images/pattern_4.png"" style=""width: 234px; height: 230px; margin-top: -50px;""><div style=""display: flex; justify-content: space-between; margin-top: 33px;""><img src=""images/choice_trial_8.png"" style=""width: 408px; height: 417px; margin-right: 200px;""><img src=""images/choice_trial_7.png"" style=""width: 408px; height: 417px;""></div></div>",j,delaylearn,learning,trial,nWhssvZeXHg5JuLn9TWdR4JFZ5B2,nWhssvZeXHg5JuLn9TWdR4JFZ5B2,1.0,images/choice_trial_8.png,images/choice_trial_7.png,images/pattern_4.png,j,j,7000.0,8.0,7.0,3.0,1.0,18.0,1.0,1.0,7.0,120.0,,,,,,5f19a735255c76000b023d92,16:38:54,27/03/2024
html-keyboard-response,97,219506,0.0-42.0-1.0,,"<div style=""display: flex; flex-direction: column; align-items: center; margin-top: -40px;""><img src=""images/pattern_4.png"" style=""width: 234px; height: 230px; margin-top: -50px;""><div style=""display: flex; justify-content: space-between; margin-top: 33px;""><img src=""images/choice_trial_7.png"" style=""width: 408px; height: 417px; margin-left:608px;""></div></div>",,delaylearn,learning,display_response,nWhssvZeXHg5JuLn9TWdR4JFZ5B2,nWhssvZeXHg5JuLn9TWdR4JFZ5B2,,,,,,,,,,,,,,,,,chosen stimuli: images/choice_trial_7.png,,,,,5f19a735255c76000b023d92,16:38:54,27/03/2024
html-keyboard-response,98,226523,0.0-42.0-2.0,,,,delaylearn,learning,feedback_duration_window,nWhssvZeXHg5JuLn9TWdR4JFZ5B2,nWhssvZeXHg5JuLn9TWdR4JFZ5B2,,,,,,,,,,,,,,,,,,7000.0,,,,5f19a735255c76000b023d92,16:38:54,27/03/2024
html-keyboard-response,99,228030,0.0-42.0-3.0,,<div style='margin:auto;width: auto; font-size: 150%'><span style='font-weight: bold; font-size: 100px; color: green;'>+10 points!</span><br><br></div>,,delaylearn,learning,feedback_image_window,nWhssvZeXHg5JuLn9TWdR4JFZ5B2,nWhssvZeXHg5JuLn9TWdR4JFZ5B2,,,,,,,,,,,,,,,,,,,,,,5f19a735255c76000b023d92,16:38:54,27/03/2024
html-keyboard-response,100,230039,0.0-43.0,,"<div style=""font-size:100px;"">+</div>",,delaylearn,learning,ITI,nWhssvZeXHg5JuLn9TWdR4JFZ5B2,nWhssvZeXHg5JuLn9TWdR4JFZ5B2,,,,,,,,,,,,,,,,,,,1987.0,,,5f19a735255c76000b023d92,16:38:54,27/03/2024
html-keyboard-response,101,232034,0.0-44.0-0.0,1993.0,"<div style=""display: flex; flex-direction: column; align-items: center; margin-top: -40px;""><img src=""images/pattern_7.png"" style=""width: 234px; height: 230px; margin-top: -50px;""><div style=""display: flex; justify-content: space-between; margin-top: 33px;""><img src=""images/choice_trial_13.png"" style=""width: 408px; height: 417px; margin-right: 200px;""><img src=""images/choice_trial_14.png"" style=""width: 408px; height: 417px;""></div></div>",j,delaylearn,learning,trial,nWhssvZeXHg5JuLn9TWdR4JFZ5B2,nWhssvZeXHg5JuLn9TWdR4JFZ5B2,1.0,images/choice_trial_13.png,images/choice_trial_14.png,images/pattern_7.png,j,f,750.0,13.0,14.0,6.0,0.0,19.0,0.0,1.0,14.0,130.0,,,,,,5f19a735255c76000b023d92,16:38:54,27/03/2024
html-keyboard-response,102,233037,0.0-44.0-1.0,,"<div style=""display: flex; flex-direction: column; align-items: center; margin-top: -40px;""><img src=""images/pattern_7.png"" style=""width: 234px; height: 230px; margin-top: -50px;""><div style=""display: flex; justify-content: space-between; margin-top: 33px;""><img src=""images/choice_trial_14.png"" style=""width: 408px; height: 417px; margin-left:608px;""></div></div>",,delaylearn,learning,display_response,nWhssvZeXHg5JuLn9TWdR4JFZ5B2,nWhssvZeXHg5JuLn9TWdR4JFZ5B2,,,,,,,,,,,,,,,,,chosen stimuli: images/choice_trial_14.png,,,,,5f19a735255c76000b023d92,16:38:54,27/03/2024
html-keyboard-response,103,233788,0.0-44.0-2.0,,,,delaylearn,learning,feedback_duration_window,nWhssvZeXHg5JuLn9TWdR4JFZ5B2,nWhssvZeXHg5JuLn9TWdR4JFZ5B2,,,,,,,,,,,,,,,,,,750.0,,,,5f19a735255c76000b023d92,16:38:54,27/03/2024
html-keyboard-response,104,235295,0.0-44.0-3.0,,<div style='margin:auto;width: auto; font-size: 150%'><span style='font-weight: bold; font-size: 100px; color: green;'>+10 points!</span><br><br></div>,,delaylearn,learning,feedback_image_window,nWhssvZeXHg5JuLn9TWdR4JFZ5B2,nWhssvZeXHg5JuLn9TWdR4JFZ5B2,,,,,,,,,,,,,,,,,,,,,,5f19a735255c76000b023d92,16:38:54,27/03/2024
html-keyboard-response,105,237135,0.0-45.0,,"<div style=""font-size:100px;"">+</div>",,delaylearn,learning,ITI,nWhssvZeXHg5JuLn9TWdR4JFZ5B2,nWhssvZeXHg5JuLn9TWdR4JFZ5B2,,,,,,,,,,,,,,,,,,,1830.0,,,5f19a735255c76000b023d92,16:38:54,27/03/2024
html-keyboard-response,106,239292,0.0-46.0-0.0,2154.0,"<div style=""display: flex; flex-direction: column; align-items: center; margin-top: -40px;""><img src=""images/pattern_1.png"" style=""width: 234px; height: 230px; margin-top: -50px;""><div style=""display: flex; justify-content: space-between; margin-top: 33px;""><img src=""images/choice_trial_1.png"" style=""width: 408px; height: 417px; margin-right: 200px;""><img src=""images/choice_trial_2.png"" style=""width: 408px; height: 417px;""></div></div>",j,delaylearn,learning,trial,nWhssvZeXHg5JuLn9TWdR4JFZ5B2,nWhssvZeXHg5JuLn9TWdR4JFZ5B2,1.0,images/choice_trial_1.png,images/choice_trial_2.png,images/pattern_1.png,f,f,7000.0,1.0,2.0,1.0,0.0,20.0,0.0,0.0,2.0,130.0,,,,,,5f19a735255c76000b023d92,16:38:54,27/03/2024
html-keyboard-response,107,240303,0.0-46.0-1.0,,"<div style=""display: flex; flex-direction: column; align-items: center; margin-top: -40px;""><img src=""images/pattern_1.png"" style=""width: 234px; height: 230px; margin-top: -50px;""><div style=""display: flex; justify-content: space-between; margin-top: 33px;""><img src=""images/choice_trial_2.png"" style=""width: 408px; height: 417px; margin-left:608px;""></div></div>",,delaylearn,learning,display_response,nWhssvZeXHg5JuLn9TWdR4JFZ5B2,nWhssvZeXHg5JuLn9TWdR4JFZ5B2,,,,,,,,,,,,,,,,,chosen stimuli: images/choice_trial_2.png,,,,,5f19a735255c76000b023d92,16:38:54,27/03/2024
html-keyboard-response,108,247307,0.0-46.0-2.0,,,,delaylearn,learning,feedback_duration_window,nWhssvZeXHg5JuLn9TWdR4JFZ5B2,nWhssvZeXHg5JuLn9TWdR4JFZ5B2,,,,,,,,,,,,,,,,,,7000.0,,,,5f19a735255c76000b023d92,16:38:54,27/03/2024
html-keyboard-response,109,248814,0.0-46.0-3.0,,<div style='margin:auto;width: auto; font-size: 150%'><span style='font-weight: bold; font-size: 100px; color: red;'>0 points!</span><br><br></div>,,delaylearn,learning,feedback_image_window,nWhssvZeXHg5JuLn9TWdR4JFZ5B2,nWhssvZeXHg5JuLn9TWdR4JFZ5B2,,,,,,,,,,,,,,,,,,,,,,5f19a735255c76000b023d92,16:38:54,27/03/2024
html-keyboard-response,110,251248,0.0-47.0,,"<div style=""font-size:100px;"">+</div>",,delaylearn,learning,ITI,nWhssvZeXHg5JuLn9TWdR4JFZ5B2,nWhssvZeXHg5JuLn9TWdR4JFZ5B2,,,,,,,,,,,,,,,,,,,2411.0,,,5f19a735255c76000b023d92,16:38:54,27/03/2024
html-keyboard-response,111,253391,0.0-48.0-0.0,2140.0,"<div style=""display: flex; flex-direction: column; align-items: center; margin-top: -40px;""><img src=""images/pattern_6.png"" style=""width: 234px; height: 230px; margin-top: -50px;""><div style=""display: flex; justify-content: space-between; margin-top: 33px;""><img src=""images/choice_trial_12.png"" style=""width: 408px; height: 417px; margin-right: 200px;""><img src=""images/choice_trial_11.png"" style=""width: 408px; height: 417px;""></div></div>",j,delaylearn,learning,trial,nWhssvZeXHg5JuLn9TWdR4JFZ5B2,nWhssvZeXHg5JuLn9TWdR4JFZ5B2,1.0,images/choice_trial_12.png,images/choice_trial_11.png,images/pattern_6.png,j,j,750.0,12.0,11.0,5.0,1.0,21.0,1.0,1.0,11.0,140.0,,,,,,5f19a735255c76000b023d92,16:38:54,27/03/2024
html-keyboard-response,112,254407,0.0-48.0-1.0,,"<div style=""display: flex; flex-direction: column; align-items: center; margin-top: -40px;""><img src=""images/pattern_6.png"" style=""width: 234px; height: 230px; margin-top: -50px;""><div style=""display: flex; justify-content: space-between; margin-top: 33px;""><img src=""images/choice_trial_11.png"" style=""width: 408px; height: 417px; margin-left:608px;""></div></div>",,delaylearn,learning,display_response,nWhssvZeXHg5JuLn9TWdR4JFZ5B2,nWhssvZeXHg5JuLn9TWdR4JFZ5B2,,,,,,,,,,,,,,,,,chosen stimuli: images/choice_trial_11.png,,,,,5f19a735255c76000b023d92,16:38:54,27/03/2024
html-keyboard-response,113,255164,0.0-48.0-2.0,,,,delaylearn,learning,feedback_duration_window,nWhssvZeXHg5JuLn9TWdR4JFZ5B2,nWhssvZeXHg5JuLn9TWdR4JFZ5B2,,,,,,,,,,,,,,,,,,750.0,,,,5f19a735255c76000b023d92,16:38:54,27/03/2024
html-keyboard-response,114,256674,0.0-48.0-3.0,,<div style='margin:auto;width: auto; font-size: 150%'><span style='font-weight: bold; font-size: 100px; color: green;'>+10 points!</span><br><br></div>,,delaylearn,learning,feedback_image_window,nWhssvZeXHg5JuLn9TWdR4JFZ5B2,nWhssvZeXHg5JuLn9TWdR4JFZ5B2,,,,,,,,,,,,,,,,,,,,,,5f19a735255c76000b023d92,16:38:54,27/03/2024
html-keyboard-response,115,258830,0.0-49.0,,"<div style=""font-size:100px;"">+</div>",,delaylearn,learning,ITI,nWhssvZeXHg5JuLn9TWdR4JFZ5B2,nWhssvZeXHg5JuLn9TWdR4JFZ5B2,,,,,,,,,,,,,,,,,,,2147.0,,,5f19a735255c76000b023d92,16:38:54,27/03/2024
html-keyboard-response,116,260920,0.0-50.0-0.0,2086.0,"<div style=""display: flex; flex-direction: column; align-items: center; margin-top: -40px;""><img src=""images/pattern_4.png"" style=""width: 234px; height: 230px; margin-top: -50px;""><div style=""display: flex; justify-content: space-between; margin-top: 33px;""><img src=""images/choice_trial_7.png"" style=""width: 408px; height: 417px; margin-right: 200px;""><img src=""images/choice_trial_8.png"" style=""width: 408px; height: 417px;""></div></div>",f,delaylearn,learning,trial,nWhssvZeXHg5JuLn9TWdR4JFZ5B2,nWhssvZeXHg5JuLn9TWdR4JFZ5B2,1.0,images/choice_trial_7.png,images/choice_trial_8.png,images/pattern_4.png,f,f,7000.0,7.0,8.0,3.0,0.0,22.0,1.0,1.0,7.0,150.0,,,,,,5f19a735255c76000b023d92,16:38:54,27/03/2024
html-keyboard-response,117,261933,0.0-50.0-1.0,,"<div style=""display: flex; flex-direction: column; align-items: center; margin-top: -40px;""><img src=""images/pattern_4.png"" style=""width: 234px; height: 230px; margin-top: -50px;""><div style=""display: flex; justify-content: space-between; margin-top: 33px;""><img src=""images/choice_trial_7.png"" style=""width: 408px; height: 417px; margin-right: 608px;""></div></div>",,delaylearn,learning,display_response,nWhssvZeXHg5JuLn9TWdR4JFZ5B2,nWhssvZeXHg5JuLn9TWdR4JFZ5B2,,,,,,,,,,,,,,,,,chosen stimuli: images/choice_trial_7.png,,,,,5f19a735255c76000b023d92,16:38:54,27/03/2024
html-keyboard-response,118,268938,0.0-50.0-2.0,,,,delaylearn,learning,feedback_duration_window,nWhssvZeXHg5JuLn9TWdR4JFZ5B2,nWhssvZeXHg5JuLn9TWdR4JFZ5B2,,,,,,,,,,,,,,,,,,7000.0,,,,5f19a735255c76000b023d92,16:38:54,27/03/2024
html-keyboard-response,119,270447,0.0-50.0-3.0,,<div style='margin:auto;width: auto; font-size: 150%'><span style='font-weight: bold; font-size: 100px; color: green;'>+10 points!</span><br><br></div>,,delaylearn,learning,feedback_image_window,nWhssvZeXHg5JuLn9TWdR4JFZ5B2,nWhssvZeXHg5JuLn9TWdR4JFZ5B2,,,,,,,,,,,,,,,,,,,,,,5f19a735255c76000b023d92,16:38:54,27/03/2024
html-keyboard-response,120,270950,0.0-51.0-0.0,,,,,,mood_trial_fixation,nWhssvZeXHg5JuLn9TWdR4JFZ5B2,,,,,,,,,,,,,,,,,,,,,,,5f19a735255c76000b023d92,16:38:54,27/03/2024
lmdlab-html-vas-response,121,275657,0.0-51.0-1.0,3699.0,How happy are you right now?,0.534722223142047,delaylearn,learning,mood_trial,nWhssvZeXHg5JuLn9TWdR4JFZ5B2,nWhssvZeXHg5JuLn9TWdR4JFZ5B2,,,,,,,,,,,,,,,,,,,,"['Very unhappy', 'Very happy']",,5f19a735255c76000b023d92,16:38:54,27/03/2024
html-keyboard-response,122,277270,0.0-52.0,,"<div style=""font-size:100px;"">+</div>",,delaylearn,learning,ITI,nWhssvZeXHg5JuLn9TWdR4JFZ5B2,nWhssvZeXHg5JuLn9TWdR4JFZ5B2,,,,,,,,,,,,,,,,,,,1547.0,,,5f19a735255c76000b023d92,16:38:54,27/03/2024
html-keyboard-response,123,279611,0.0-53.0-0.0,2339.0,"<div style=""display: flex; flex-direction: column; align-items: center; margin-top: -40px;""><img src=""images/pattern_7.png"" style=""width: 234px; height: 230px; margin-top: -50px;""><div style=""display: flex; justify-content: space-between; margin-top: 33px;""><img src=""images/choice_trial_14.png"" style=""width: 408px; height: 417px; margin-right: 200px;""><img src=""images/choice_trial_13.png"" style=""width: 408px; height: 417px;""></div></div>",f,delaylearn,learning,trial,nWhssvZeXHg5JuLn9TWdR4JFZ5B2,nWhssvZeXHg5JuLn9TWdR4JFZ5B2,1.0,images/choice_trial_14.png,images/choice_trial_13.png,images/pattern_7.png,j,j,750.0,14.0,13.0,6.0,1.0,23.0,0.0,0.0,14.0,150.0,,,,,,5f19a735255c76000b023d92,16:38:54,27/03/2024
html-keyboard-response,124,280643,0.0-53.0-1.0,,"<div style=""display: flex; flex-direction: column; align-items: center; margin-top: -40px;""><img src=""images/pattern_7.png"" style=""width: 234px; height: 230px; margin-top: -50px;""><div style=""display: flex; justify-content: space-between; margin-top: 33px;""><img src=""images/choice_trial_14.png"" style=""width: 408px; height: 417px; margin-right: 608px;""></div></div>",,delaylearn,learning,display_response,nWhssvZeXHg5JuLn9TWdR4JFZ5B2,nWhssvZeXHg5JuLn9TWdR4JFZ5B2,,,,,,,,,,,,,,,,,chosen stimuli: images/choice_trial_14.png,,,,,5f19a735255c76000b023d92,16:38:54,27/03/2024
html-keyboard-response,125,281417,0.0-53.0-2.0,,,,delaylearn,learning,feedback_duration_window,nWhssvZeXHg5JuLn9TWdR4JFZ5B2,nWhssvZeXHg5JuLn9TWdR4JFZ5B2,,,,,,,,,,,,,,,,,,750.0,,,,5f19a735255c76000b023d92,16:38:54,27/03/2024
html-keyboard-response,126,282925,0.0-53.0-3.0,,<div style='margin:auto;width: auto; font-size: 150%'><span style='font-weight: bold; font-size: 100px; color: red;'>0 points!</span><br><br></div>,,delaylearn,learning,feedback_image_window,nWhssvZeXHg5JuLn9TWdR4JFZ5B2,nWhssvZeXHg5JuLn9TWdR4JFZ5B2,,,,,,,,,,,,,,,,,,,,,,5f19a735255c76000b023d92,16:38:54,27/03/2024
html-keyboard-response,127,285297,0.0-54.0,,"<div style=""font-size:100px;"">+</div>",,delaylearn,learning,ITI,nWhssvZeXHg5JuLn9TWdR4JFZ5B2,nWhssvZeXHg5JuLn9TWdR4JFZ5B2,,,,,,,,,,,,,,,,,,,2369.0,,,5f19a735255c76000b023d92,16:38:54,27/03/2024
html-keyboard-response,128,287948,0.0-55.0-0.0,2648.0,"<div style=""display: flex; flex-direction: column; align-items: center; margin-top: -40px;""><img src=""images/pattern_1.png"" style=""width: 234px; height: 230px; margin-top: -50px;""><div style=""display: flex; justify-content: space-between; margin-top: 33px;""><img src=""images/choice_trial_2.png"" style=""width: 408px; height: 417px; margin-right: 200px;""><img src=""images/choice_trial_1.png"" style=""width: 408px; height: 417px;""></div></div>",j,delaylearn,learning,trial,nWhssvZeXHg5JuLn9TWdR4JFZ5B2,nWhssvZeXHg5JuLn9TWdR4JFZ5B2,1.0,images/choice_trial_2.png,images/choice_trial_1.png,images/pattern_1.png,f,j,7000.0,2.0,1.0,1.0,1.0,24.0,1.0,0.0,1.0,150.0,,,,,,5f19a735255c76000b023d92,16:38:54,27/03/2024
html-keyboard-response,129,288972,0.0-55.0-1.0,,"<div style=""display: flex; flex-direction: column; align-items: center; margin-top: -40px;""><img src=""images/pattern_1.png"" style=""width: 234px; height: 230px; margin-top: -50px;""><div style=""display: flex; justify-content: space-between; margin-top: 33px;""><img src=""images/choice_trial_1.png"" style=""width: 408px; height: 417px; margin-left:608px;""></div></div>",,delaylearn,learning,display_response,nWhssvZeXHg5JuLn9TWdR4JFZ5B2,nWhssvZeXHg5JuLn9TWdR4JFZ5B2,,,,,,,,,,,,,,,,,chosen stimuli: images/choice_trial_1.png,,,,,5f19a735255c76000b023d92,16:38:54,27/03/2024
html-keyboard-response,130,295974,0.0-55.0-2.0,,,,delaylearn,learning,feedback_duration_window,nWhssvZeXHg5JuLn9TWdR4JFZ5B2,nWhssvZeXHg5JuLn9TWdR4JFZ5B2,,,,,,,,,,,,,,,,,,7000.0,,,,5f19a735255c76000b023d92,16:38:54,27/03/2024
html-keyboard-response,131,297482,0.0-55.0-3.0,,<div style='margin:auto;width: auto; font-size: 150%'><span style='font-weight: bold; font-size: 100px; color: red;'>0 points!</span><br><br></div>,,delaylearn,learning,feedback_image_window,nWhssvZeXHg5JuLn9TWdR4JFZ5B2,nWhssvZeXHg5JuLn9TWdR4JFZ5B2,,,,,,,,,,,,,,,,,,,,,,5f19a735255c76000b023d92,16:38:54,27/03/2024
html-keyboard-response,132,299710,0.0-56.0,,"<div style=""font-size:100px;"">+</div>",,delaylearn,learning,ITI,nWhssvZeXHg5JuLn9TWdR4JFZ5B2,nWhssvZeXHg5JuLn9TWdR4JFZ5B2,,,,,,,,,,,,,,,,,,,2214.0,,,5f19a735255c76000b023d92,16:38:54,27/03/2024
html-keyboard-response,133,300818,0.0-57.0-0.0,1105.0,"<div style=""display: flex; flex-direction: column; align-items: center; margin-top: -40px;""><img src=""images/pattern_5.png"" style=""width: 234px; height: 230px; margin-top: -50px;""><div style=""display: flex; justify-content: space-between; margin-top: 33px;""><img src=""images/choice_trial_10.png"" style=""width: 408px; height: 417px; margin-right: 200px;""><img src=""images/choice_trial_9.png"" style=""width: 408px; height: 417px;""></div></div>",j,delaylearn,learning,trial,nWhssvZeXHg5JuLn9TWdR4JFZ5B2,nWhssvZeXHg5JuLn9TWdR4JFZ5B2,1.0,images/choice_trial_10.png,images/choice_trial_9.png,images/pattern_5.png,j,j,750.0,10.0,9.0,4.0,1.0,25.0,1.0,1.0,9.0,160.0,,,,,,5f19a735255c76000b023d92,16:38:54,27/03/2024
html-keyboard-response,134,301821,0.0-57.0-1.0,,"<div style=""display: flex; flex-direction: column; align-items: center; margin-top: -40px;""><img src=""images/pattern_5.png"" style=""width: 234px; height: 230px; margin-top: -50px;""><div style=""display: flex; justify-content: space-between; margin-top: 33px;""><img src=""images/choice_trial_9.png"" style=""width: 408px; height: 417px; margin-left:608px;""></div></div>",,delaylearn,learning,display_response,nWhssvZeXHg5JuLn9TWdR4JFZ5B2,nWhssvZeXHg5JuLn9TWdR4JFZ5B2,,,,,,,,,,,,,,,,,chosen stimuli: images/choice_trial_9.png,,,,,5f19a735255c76000b023d92,16:38:54,27/03/2024
html-keyboard-response,135,302573,0.0-57.0-2.0,,,,delaylearn,learning,feedback_duration_window,nWhssvZeXHg5JuLn9TWdR4JFZ5B2,nWhssvZeXHg5JuLn9TWdR4JFZ5B2,,,,,,,,,,,,,,,,,,750.0,,,,5f19a735255c76000b023d92,16:38:54,27/03/2024
html-keyboard-response,136,304081,0.0-57.0-3.0,,<div style='margin:auto;width: auto; font-size: 150%'><span style='font-weight: bold; font-size: 100px; color: green;'>+10 points!</span><br><br></div>,,delaylearn,learning,feedback_image_window,nWhssvZeXHg5JuLn9TWdR4JFZ5B2,nWhssvZeXHg5JuLn9TWdR4JFZ5B2,,,,,,,,,,,,,,,,,,,,,,5f19a735255c76000b023d92,16:38:54,27/03/2024
html-keyboard-response,137,306346,0.0-58.0,,"<div style=""font-size:100px;"">+</div>",,delaylearn,learning,ITI,nWhssvZeXHg5JuLn9TWdR4JFZ5B2,nWhssvZeXHg5JuLn9TWdR4JFZ5B2,,,,,,,,,,,,,,,,,,,2257.0,,,5f19a735255c76000b023d92,16:38:54,27/03/2024
html-keyboard-response,138,308620,0.0-59.0-0.0,2270.0,"<div style=""display: flex; flex-direction: column; align-items: center; margin-top: -40px;""><img src=""images/pattern_3.png"" style=""width: 234px; height: 230px; margin-top: -50px;""><div style=""display: flex; justify-content: space-between; margin-top: 33px;""><img src=""images/choice_trial_6.png"" style=""width: 408px; height: 417px; margin-right: 200px;""><img src=""images/choice_trial_5.png"" style=""width: 408px; height: 417px;""></div></div>",f,delaylearn,learning,trial,nWhssvZeXHg5JuLn9TWdR4JFZ5B2,nWhssvZeXHg5JuLn9TWdR4JFZ5B2,1.0,images/choice_trial_6.png,images/choice_trial_5.png,images/pattern_3.png,j,j,7000.0,6.0,5.0,2.0,1.0,26.0,0.0,0.0,6.0,160.0,,,,,,5f19a735255c76000b023d92,16:38:54,27/03/2024
html-keyboard-response,139,309624,0.0-59.0-1.0,,"<div style=""display: flex; flex-direction: column; align-items: center; margin-top: -40px;""><img src=""images/pattern_3.png"" style=""width: 234px; height: 230px; margin-top: -50px;""><div style=""display: flex; justify-content: space-between; margin-top: 33px;""><img src=""images/choice_trial_6.png"" style=""width: 408px; height: 417px; margin-right: 608px;""></div></div>",,delaylearn,learning,display_response,nWhssvZeXHg5JuLn9TWdR4JFZ5B2,nWhssvZeXHg5JuLn9TWdR4JFZ5B2,,,,,,,,,,,,,,,,,chosen stimuli: images/choice_trial_6.png,,,,,5f19a735255c76000b023d92,16:38:54,27/03/2024
html-keyboard-response,140,316627,0.0-59.0-2.0,,,,delaylearn,learning,feedback_duration_window,nWhssvZeXHg5JuLn9TWdR4JFZ5B2,nWhssvZeXHg5JuLn9TWdR4JFZ5B2,,,,,,,,,,,,,,,,,,7000.0,,,,5f19a735255c76000b023d92,16:38:54,27/03/2024
html-keyboard-response,141,318140,0.0-59.0-3.0,,<div style='margin:auto;width: auto; font-size: 150%'><span style='font-weight: bold; font-size: 100px; color: red;'>0 points!</span><br><br></div>,,delaylearn,learning,feedback_image_window,nWhssvZeXHg5JuLn9TWdR4JFZ5B2,nWhssvZeXHg5JuLn9TWdR4JFZ5B2,,,,,,,,,,,,,,,,,,,,,,5f19a735255c76000b023d92,16:38:54,27/03/2024
lmdlab-html-vas-response,142,325474,0.0-60.0-0.0,5808.0,*How <b><u>confident</u></b> are you feeling about your answers at this moment?*,0.4327256926622839,rewlearn,rate_confidence,,nWhssvZeXHg5JuLn9TWdR4JFZ5B2,nWhssvZeXHg5JuLn9TWdR4JFZ5B2,,,,,,,,,,,,,,,,,,,,"['No confidence', 'Complete confidence']",,5f19a735255c76000b023d92,16:38:54,27/03/2024
lmdlab-rest-trial-limit,143,345281,0.0-60.0-1.0,18298.0,"<div style=""font-size:40px;""><b>Please take a break!</b><br><br><br><br><p>Great work: you earned 160 points.<br><br><br><p>You have completed part(s) 1 of 5.<br><br><br><br>When you are ready to continue<br><br><br>please click the button.</p><br><br>",0,delaylearn,learning,break,nWhssvZeXHg5JuLn9TWdR4JFZ5B2,nWhssvZeXHg5JuLn9TWdR4JFZ5B2,,,,,,,,,,,,,,,,,,,,,0.0,5f19a735255c76000b023d92,16:38:54,27/03/2024
html-keyboard-response,144,348295,0.0-60.0-2.0,,"<div style=""font-size:100px;"">+</div>",,delaylearn,learning,pre_fixation,nWhssvZeXHg5JuLn9TWdR4JFZ5B2,,,,,,,,,,,,,,,,,,,,,,,5f19a735255c76000b023d92,16:38:54,27/03/2024
lmdlab-html-vas-response,145,353756,0.0-60.0-3.0-0.0,4441.0,How happy are you right now?,0.5130208336782677,delaylearn,learning,mood_baseline,nWhssvZeXHg5JuLn9TWdR4JFZ5B2,nWhssvZeXHg5JuLn9TWdR4JFZ5B2,,,,,,,,,,,,,,,,,,,,"['Very unhappy', 'Very happy']",,5f19a735255c76000b023d92,16:38:54,27/03/2024
html-keyboard-response,146,355269,0.0-60.0-3.0-1.0,,,,,,mood_baseline_fixation,nWhssvZeXHg5JuLn9TWdR4JFZ5B2,,,,,,,,,,,,,,,,,,,,,,,5f19a735255c76000b023d92,16:38:54,27/03/2024
html-keyboard-response,147,356908,0.0-61.0,,"<div style=""font-size:100px;"">+</div>",,delaylearn,learning,ITI,nWhssvZeXHg5JuLn9TWdR4JFZ5B2,nWhssvZeXHg5JuLn9TWdR4JFZ5B2,,,,,,,,,,,,,,,,,,,1624.0,,,5f19a735255c76000b023d92,16:38:54,27/03/2024
html-keyboard-response,148,358499,0.0-62.0-0.0,1589.0,"<div style=""display: flex; flex-direction: column; align-items: center; margin-top: -40px;""><img src=""images/pattern_7.png"" style=""width: 234px; height: 230px; margin-top: -50px;""><div style=""display: flex; justify-content: space-between; margin-top: 33px;""><img src=""images/choice_trial_14.png"" style=""width: 408px; height: 417px; margin-right: 200px;""><img src=""images/choice_trial_13.png"" style=""width: 408px; height: 417px;""></div></div>",j,delaylearn,learning,trial,nWhssvZeXHg5JuLn9TWdR4JFZ5B2,nWhssvZeXHg5JuLn9TWdR4JFZ5B2,1.0,images/choice_trial_14.png,images/choice_trial_13.png,images/pattern_7.png,j,j,750.0,14.0,13.0,6.0,1.0,27.0,1.0,1.0,13.0,170.0,,,,,,5f19a735255c76000b023d92,16:38:54,27/03/2024
html-keyboard-response,149,359505,0.0-62.0-1.0,,"<div style=""display: flex; flex-direction: column; align-items: center; margin-top: -40px;""><img src=""images/pattern_7.png"" style=""width: 234px; height: 230px; margin-top: -50px;""><div style=""display: flex; justify-content: space-between; margin-top: 33px;""><img src=""images/choice_trial_13.png"" style=""width: 408px; height: 417px; margin-left:608px;""></div></div>",,delaylearn,learning,display_response,nWhssvZeXHg5JuLn9TWdR4JFZ5B2,nWhssvZeXHg5JuLn9TWdR4JFZ5B2,,,,,,,,,,,,,,,,,chosen stimuli: images/choice_trial_13.png,,,,,5f19a735255c76000b023d92,16:38:54,27/03/2024
html-keyboard-response,150,360262,0.0-62.0-2.0,,,,delaylearn,learning,feedback_duration_window,nWhssvZeXHg5JuLn9TWdR4JFZ5B2,nWhssvZeXHg5JuLn9TWdR4JFZ5B2,,,,,,,,,,,,,,,,,,750.0,,,,5f19a735255c76000b023d92,16:38:54,27/03/2024
html-keyboard-response,151,361771,0.0-62.0-3.0,,<div style='margin:auto;width: auto; font-size: 150%'><span style='font-weight: bold; font-size: 100px; color: green;'>+10 points!</span><br><br></div>,,delaylearn,learning,feedback_image_window,nWhssvZeXHg5JuLn9TWdR4JFZ5B2,nWhssvZeXHg5JuLn9TWdR4JFZ5B2,,,,,,,,,,,,,,,,,,,,,,5f19a735255c76000b023d92,16:38:54,27/03/2024
html-keyboard-response,152,362273,0.0-63.0-0.0,,,,,,mood_trial_fixation,nWhssvZeXHg5JuLn9TWdR4JFZ5B2,,,,,,,,,,,,,,,,,,,,,,,5f19a735255c76000b023d92,16:38:54,27/03/2024
lmdlab-html-vas-response,153,368050,0.0-63.0-1.0,4760.0,How happy are you right now?,0.5260416673565352,delaylearn,learning,mood_trial,nWhssvZeXHg5JuLn9TWdR4JFZ5B2,nWhssvZeXHg5JuLn9TWdR4JFZ5B2,,,,,,,,,,,,,,,,,,,,"['Very unhappy', 'Very happy']",,5f19a735255c76000b023d92,16:38:54,27/03/2024
html-keyboard-response,154,370304,0.0-64.0,,"<div style=""font-size:100px;"">+</div>",,delaylearn,learning,ITI,nWhssvZeXHg5JuLn9TWdR4JFZ5B2,nWhssvZeXHg5JuLn9TWdR4JFZ5B2,,,,,,,,,,,,,,,,,,,2249.0,,,5f19a735255c76000b023d92,16:38:54,27/03/2024
html-keyboard-response,155,372208,0.0-65.0-0.0,1901.0,"<div style=""display: flex; flex-direction: column; align-items: center; margin-top: -40px;""><img src=""images/pattern_1.png"" style=""width: 234px; height: 230px; margin-top: -50px;""><div style=""display: flex; justify-content: space-between; margin-top: 33px;""><img src=""images/choice_trial_1.png"" style=""width: 408px; height: 417px; margin-right: 200px;""><img src=""images/choice_trial_2.png"" style=""width: 408px; height: 417px;""></div></div>",j,delaylearn,learning,trial,nWhssvZeXHg5JuLn9TWdR4JFZ5B2,nWhssvZeXHg5JuLn9TWdR4JFZ5B2,1.0,images/choice_trial_1.png,images/choice_trial_2.png,images/pattern_1.png,f,f,7000.0,1.0,2.0,1.0,0.0,28.0,0.0,0.0,2.0,170.0,,,,,,5f19a735255c76000b023d92,16:38:54,27/03/2024
html-keyboard-response,156,373216,0.0-65.0-1.0,,"<div style=""display: flex; flex-direction: column; align-items: center; margin-top: -40px;""><img src=""images/pattern_1.png"" style=""width: 234px; height: 230px; margin-top: -50px;""><div style=""display: flex; justify-content: space-between; margin-top: 33px;""><img src=""images/choice_trial_2.png"" style=""width: 408px; height: 417px; margin-left:608px;""></div></div>",,delaylearn,learning,display_response,nWhssvZeXHg5JuLn9TWdR4JFZ5B2,nWhssvZeXHg5JuLn9TWdR4JFZ5B2,,,,,,,,,,,,,,,,,chosen stimuli: images/choice_trial_2.png,,,,,5f19a735255c76000b023d92,16:38:54,27/03/2024
html-keyboard-response,157,380227,0.0-65.0-2.0,,,,delaylearn,learning,feedback_duration_window,nWhssvZeXHg5JuLn9TWdR4JFZ5B2,nWhssvZeXHg5JuLn9TWdR4JFZ5B2,,,,,,,,,,,,,,,,,,7000.0,,,,5f19a735255c76000b023d92,16:38:54,27/03/2024
html-keyboard-response,158,381736,0.0-65.0-3.0,,<div style='margin:auto;width: auto; font-size: 150%'><span style='font-weight: bold; font-size: 100px; color: red;'>0 points!</span><br><br></div>,,delaylearn,learning,feedback_image_window,nWhssvZeXHg5JuLn9TWdR4JFZ5B2,nWhssvZeXHg5JuLn9TWdR4JFZ5B2,,,,,,,,,,,,,,,,,,,,,,5f19a735255c76000b023d92,16:38:54,27/03/2024
html-keyboard-response,159,383497,0.0-66.0,,"<div style=""font-size:100px;"">+</div>",,delaylearn,learning,ITI,nWhssvZeXHg5JuLn9TWdR4JFZ5B2,nWhssvZeXHg5JuLn9TWdR4JFZ5B2,,,,,,,,,,,,,,,,,,,1757.0,,,5f19a735255c76000b023d92,16:38:54,27/03/2024
html-keyboard-response,160,384424,0.0-67.0-0.0,924.0,"<div style=""display: flex; flex-direction: column; align-items: center; margin-top: -40px;""><img src=""images/pattern_5.png"" style=""width: 234px; height: 230px; margin-top: -50px;""><div style=""display: flex; justify-content: space-between; margin-top: 33px;""><img src=""images/choice_trial_9.png"" style=""width: 408px; height: 417px; margin-right: 200px;""><img src=""images/choice_trial_10.png"" style=""width: 408px; height: 417px;""></div></div>",f,delaylearn,learning,trial,nWhssvZeXHg5JuLn9TWdR4JFZ5B2,nWhssvZeXHg5JuLn9TWdR4JFZ5B2,1.0,images/choice_trial_9.png,images/choice_trial_10.png,images/pattern_5.png,f,f,750.0,9.0,10.0,4.0,0.0,29.0,1.0,1.0,9.0,180.0,,,,,,5f19a735255c76000b023d92,16:38:54,27/03/2024
html-keyboard-response,161,385437,0.0-67.0-1.0,,"<div style=""display: flex; flex-direction: column; align-items: center; margin-top: -40px;""><img src=""images/pattern_5.png"" style=""width: 234px; height: 230px; margin-top: -50px;""><div style=""display: flex; justify-content: space-between; margin-top: 33px;""><img src=""images/choice_trial_9.png"" style=""width: 408px; height: 417px; margin-right: 608px;""></div></div>",,delaylearn,learning,display_response,nWhssvZeXHg5JuLn9TWdR4JFZ5B2,nWhssvZeXHg5JuLn9TWdR4JFZ5B2,,,,,,,,,,,,,,,,,chosen stimuli: images/choice_trial_9.png,,,,,5f19a735255c76000b023d92,16:38:54,27/03/2024
html-keyboard-response,162,386194,0.0-67.0-2.0,,,,delaylearn,learning,feedback_duration_window,nWhssvZeXHg5JuLn9TWdR4JFZ5B2,nWhssvZeXHg5JuLn9TWdR4JFZ5B2,,,,,,,,,,,,,,,,,,750.0,,,,5f19a735255c76000b023d92,16:38:54,27/03/2024
html-keyboard-response,163,387701,0.0-67.0-3.0,,<div style='margin:auto;width: auto; font-size: 150%'><span style='font-weight: bold; font-size: 100px; color: green;'>+10 points!</span><br><br></div>,,delaylearn,learning,feedback_image_window,nWhssvZeXHg5JuLn9TWdR4JFZ5B2,nWhssvZeXHg5JuLn9TWdR4JFZ5B2,,,,,,,,,,,,,,,,,,,,,,5f19a735255c76000b023d92,16:38:54,27/03/2024
html-keyboard-response,164,389774,0.0-68.0,,"<div style=""font-size:100px;"">+</div>",,delaylearn,learning,ITI,nWhssvZeXHg5JuLn9TWdR4JFZ5B2,nWhssvZeXHg5JuLn9TWdR4JFZ5B2,,,,,,,,,,,,,,,,,,,2060.0,,,5f19a735255c76000b023d92,16:38:54,27/03/2024
html-keyboard-response,165,391785,0.0-69.0-0.0,2008.0,"<div style=""display: flex; flex-direction: column; align-items: center; margin-top: -40px;""><img src=""images/pattern_6.png"" style=""width: 234px; height: 230px; margin-top: -50px;""><div style=""display: flex; justify-content: space-between; margin-top: 33px;""><img src=""images/choice_trial_12.png"" style=""width: 408px; height: 417px; margin-right: 200px;""><img src=""images/choice_trial_11.png"" style=""width: 408px; height: 417px;""></div></div>",j,delaylearn,learning,trial,nWhssvZeXHg5JuLn9TWdR4JFZ5B2,nWhssvZeXHg5JuLn9TWdR4JFZ5B2,1.0,images/choice_trial_12.png,images/choice_trial_11.png,images/pattern_6.png,j,j,750.0,12.0,11.0,5.0,1.0,30.0,1.0,1.0,11.0,190.0,,,,,,5f19a735255c76000b023d92,16:38:54,27/03/2024
html-keyboard-response,166,392802,0.0-69.0-1.0,,"<div style=""display: flex; flex-direction: column; align-items: center; margin-top: -40px;""><img src=""images/pattern_6.png"" style=""width: 234px; height: 230px; margin-top: -50px;""><div style=""display: flex; justify-content: space-between; margin-top: 33px;""><img src=""images/choice_trial_11.png"" style=""width: 408px; height: 417px; margin-left:608px;""></div></div>",,delaylearn,learning,display_response,nWhssvZeXHg5JuLn9TWdR4JFZ5B2,nWhssvZeXHg5JuLn9TWdR4JFZ5B2,,,,,,,,,,,,,,,,,chosen stimuli: images/choice_trial_11.png,,,,,5f19a735255c76000b023d92,16:38:54,27/03/2024
html-keyboard-response,167,393560,0.0-69.0-2.0,,,,delaylearn,learning,feedback_duration_window,nWhssvZeXHg5JuLn9TWdR4JFZ5B2,nWhssvZeXHg5JuLn9TWdR4JFZ5B2,,,,,,,,,,,,,,,,,,750.0,,,,5f19a735255c76000b023d92,16:38:54,27/03/2024
html-keyboard-response,168,395083,0.0-69.0-3.0,,<div style='margin:auto;width: auto; font-size: 150%'><span style='font-weight: bold; font-size: 100px; color: green;'>+10 points!</span><br><br></div>,,delaylearn,learning,feedback_image_window,nWhssvZeXHg5JuLn9TWdR4JFZ5B2,nWhssvZeXHg5JuLn9TWdR4JFZ5B2,,,,,,,,,,,,,,,,,,,,,,5f19a735255c76000b023d92,16:38:54,27/03/2024
html-keyboard-response,169,395586,0.0-70.0-0.0,,,,,,mood_trial_fixation,nWhssvZeXHg5JuLn9TWdR4JFZ5B2,,,,,,,,,,,,,,,,,,,,,,,5f19a735255c76000b023d92,16:38:54,27/03/2024
lmdlab-html-vas-response,170,401098,0.0-70.0-1.0,4505.0,How happy are you right now?,0.5325520841956691,delaylearn,learning,mood_trial,nWhssvZeXHg5JuLn9TWdR4JFZ5B2,nWhssvZeXHg5JuLn9TWdR4JFZ5B2,,,,,,,,,,,,,,,,,,,,"['Very unhappy', 'Very happy']",,5f19a735255c76000b023d92,16:38:54,27/03/2024
html-keyboard-response,171,403461,0.0-71.0,,"<div style=""font-size:100px;"">+</div>",,delaylearn,learning,ITI,nWhssvZeXHg5JuLn9TWdR4JFZ5B2,nWhssvZeXHg5JuLn9TWdR4JFZ5B2,,,,,,,,,,,,,,,,,,,2356.0,,,5f19a735255c76000b023d92,16:38:54,27/03/2024
html-keyboard-response,172,405014,0.0-72.0-0.0,1551.0,"<div style=""display: flex; flex-direction: column; align-items: center; margin-top: -40px;""><img src=""images/pattern_4.png"" style=""width: 234px; height: 230px; margin-top: -50px;""><div style=""display: flex; justify-content: space-between; margin-top: 33px;""><img src=""images/choice_trial_8.png"" style=""width: 408px; height: 417px; margin-right: 200px;""><img src=""images/choice_trial_7.png"" style=""width: 408px; height: 417px;""></div></div>",f,delaylearn,learning,trial,nWhssvZeXHg5JuLn9TWdR4JFZ5B2,nWhssvZeXHg5JuLn9TWdR4JFZ5B2,1.0,images/choice_trial_8.png,images/choice_trial_7.png,images/pattern_4.png,j,j,7000.0,8.0,7.0,3.0,1.0,31.0,0.0,0.0,8.0,190.0,,,,,,5f19a735255c76000b023d92,16:38:54,27/03/2024
html-keyboard-response,173,406020,0.0-72.0-1.0,,"<div style=""display: flex; flex-direction: column; align-items: center; margin-top: -40px;""><img src=""images/pattern_4.png"" style=""width: 234px; height: 230px; margin-top: -50px;""><div style=""display: flex; justify-content: space-between; margin-top: 33px;""><img src=""images/choice_trial_8.png"" style=""width: 408px; height: 417px; margin-right: 608px;""></div></div>",,delaylearn,learning,display_response,nWhssvZeXHg5JuLn9TWdR4JFZ5B2,nWhssvZeXHg5JuLn9TWdR4JFZ5B2,,,,,,,,,,,,,,,,,chosen stimuli: images/choice_trial_8.png,,,,,5f19a735255c76000b023d92,16:38:54,27/03/2024
html-keyboard-response,174,413025,0.0-72.0-2.0,,,,delaylearn,learning,feedback_duration_window,nWhssvZeXHg5JuLn9TWdR4JFZ5B2,nWhssvZeXHg5JuLn9TWdR4JFZ5B2,,,,,,,,,,,,,,,,,,7000.0,,,,5f19a735255c76000b023d92,16:38:54,27/03/2024
html-keyboard-response,175,414534,0.0-72.0-3.0,,<div style='margin:auto;width: auto; font-size: 150%'><span style='font-weight: bold; font-size: 100px; color: red;'>0 points!</span><br><br></div>,,delaylearn,learning,feedback_image_window,nWhssvZeXHg5JuLn9TWdR4JFZ5B2,nWhssvZeXHg5JuLn9TWdR4JFZ5B2,,,,,,,,,,,,,,,,,,,,,,5f19a735255c76000b023d92,16:38:54,27/03/2024
html-keyboard-response,176,416610,0.0-73.0,,"<div style=""font-size:100px;"">+</div>",,delaylearn,learning,ITI,nWhssvZeXHg5JuLn9TWdR4JFZ5B2,nWhssvZeXHg5JuLn9TWdR4JFZ5B2,,,,,,,,,,,,,,,,,,,2064.0,,,5f19a735255c76000b023d92,16:38:54,27/03/2024
html-keyboard-response,177,418058,0.0-74.0-0.0,1446.0,"<div style=""display: flex; flex-direction: column; align-items: center; margin-top: -40px;""><img src=""images/pattern_3.png"" style=""width: 234px; height: 230px; margin-top: -50px;""><div style=""display: flex; justify-content: space-between; margin-top: 33px;""><img src=""images/choice_trial_6.png"" style=""width: 408px; height: 417px; margin-right: 200px;""><img src=""images/choice_trial_5.png"" style=""width: 408px; height: 417px;""></div></div>",j,delaylearn,learning,trial,nWhssvZeXHg5JuLn9TWdR4JFZ5B2,nWhssvZeXHg5JuLn9TWdR4JFZ5B2,1.0,images/choice_trial_6.png,images/choice_trial_5.png,images/pattern_3.png,j,j,7000.0,6.0,5.0,2.0,1.0,32.0,1.0,1.0,5.0,200.0,,,,,,5f19a735255c76000b023d92,16:38:54,27/03/2024
html-keyboard-response,178,419060,0.0-74.0-1.0,,"<div style=""display: flex; flex-direction: column; align-items: center; margin-top: -40px;""><img src=""images/pattern_3.png"" style=""width: 234px; height: 230px; margin-top: -50px;""><div style=""display: flex; justify-content: space-between; margin-top: 33px;""><img src=""images/choice_trial_5.png"" style=""width: 408px; height: 417px; margin-left:608px;""></div></div>",,delaylearn,learning,display_response,nWhssvZeXHg5JuLn9TWdR4JFZ5B2,nWhssvZeXHg5JuLn9TWdR4JFZ5B2,,,,,,,,,,,,,,,,,chosen stimuli: images/choice_trial_5.png,,,,,5f19a735255c76000b023d92,16:38:54,27/03/2024
html-keyboard-response,179,426074,0.0-74.0-2.0,,,,delaylearn,learning,feedback_duration_window,nWhssvZeXHg5JuLn9TWdR4JFZ5B2,nWhssvZeXHg5JuLn9TWdR4JFZ5B2,,,,,,,,,,,,,,,,,,7000.0,,,,5f19a735255c76000b023d92,16:38:54,27/03/2024
html-keyboard-response,180,427580,0.0-74.0-3.0,,<div style='margin:auto;width: auto; font-size: 150%'><span style='font-weight: bold; font-size: 100px; color: green;'>+10 points!</span><br><br></div>,,delaylearn,learning,feedback_image_window,nWhssvZeXHg5JuLn9TWdR4JFZ5B2,nWhssvZeXHg5JuLn9TWdR4JFZ5B2,,,,,,,,,,,,,,,,,,,,,,5f19a735255c76000b023d92,16:38:54,27/03/2024
html-keyboard-response,181,429327,0.0-75.0,,"<div style=""font-size:100px;"">+</div>",,delaylearn,learning,ITI,nWhssvZeXHg5JuLn9TWdR4JFZ5B2,nWhssvZeXHg5JuLn9TWdR4JFZ5B2,,,,,,,,,,,,,,,,,,,1734.0,,,5f19a735255c76000b023d92,16:38:54,27/03/2024
html-keyboard-response,182,430239,0.0-76.0-0.0,909.0,"<div style=""display: flex; flex-direction: column; align-items: center; margin-top: -40px;""><img src=""images/pattern_5.png"" style=""width: 234px; height: 230px; margin-top: -50px;""><div style=""display: flex; justify-content: space-between; margin-top: 33px;""><img src=""images/choice_trial_9.png"" style=""width: 408px; height: 417px; margin-right: 200px;""><img src=""images/choice_trial_10.png"" style=""width: 408px; height: 417px;""></div></div>",f,delaylearn,learning,trial,nWhssvZeXHg5JuLn9TWdR4JFZ5B2,nWhssvZeXHg5JuLn9TWdR4JFZ5B2,1.0,images/choice_trial_9.png,images/choice_trial_10.png,images/pattern_5.png,j,f,750.0,9.0,10.0,4.0,0.0,33.0,1.0,0.0,9.0,200.0,,,,,,5f19a735255c76000b023d92,16:38:54,27/03/2024
html-keyboard-response,183,431255,0.0-76.0-1.0,,"<div style=""display: flex; flex-direction: column; align-items: center; margin-top: -40px;""><img src=""images/pattern_5.png"" style=""width: 234px; height: 230px; margin-top: -50px;""><div style=""display: flex; justify-content: space-between; margin-top: 33px;""><img src=""images/choice_trial_9.png"" style=""width: 408px; height: 417px; margin-right: 608px;""></div></div>",,delaylearn,learning,display_response,nWhssvZeXHg5JuLn9TWdR4JFZ5B2,nWhssvZeXHg5JuLn9TWdR4JFZ5B2,,,,,,,,,,,,,,,,,chosen stimuli: images/choice_trial_9.png,,,,,5f19a735255c76000b023d92,16:38:54,27/03/2024
html-keyboard-response,184,432027,0.0-76.0-2.0,,,,delaylearn,learning,feedback_duration_window,nWhssvZeXHg5JuLn9TWdR4JFZ5B2,nWhssvZeXHg5JuLn9TWdR4JFZ5B2,,,,,,,,,,,,,,,,,,750.0,,,,5f19a735255c76000b023d92,16:38:54,27/03/2024
html-keyboard-response,185,433534,0.0-76.0-3.0,,<div style='margin:auto;width: auto; font-size: 150%'><span style='font-weight: bold; font-size: 100px; color: red;'>0 points!</span><br><br></div>,,delaylearn,learning,feedback_image_window,nWhssvZeXHg5JuLn9TWdR4JFZ5B2,nWhssvZeXHg5JuLn9TWdR4JFZ5B2,,,,,,,,,,,,,,,,,,,,,,5f19a735255c76000b023d92,16:38:54,27/03/2024
html-keyboard-response,186,435274,0.0-77.0,,"<div style=""font-size:100px;"">+</div>",,delaylearn,learning,ITI,nWhssvZeXHg5JuLn9TWdR4JFZ5B2,nWhssvZeXHg5JuLn9TWdR4JFZ5B2,,,,,,,,,,,,,,,,,,,1718.0,,,5f19a735255c76000b023d92,16:38:54,27/03/2024
html-keyboard-response,187,436874,0.0-78.0-0.0,1598.0,"<div style=""display: flex; flex-direction: column; align-items: center; margin-top: -40px;""><img src=""images/pattern_1.png"" style=""width: 234px; height: 230px; margin-top: -50px;""><div style=""display: flex; justify-content: space-between; margin-top: 33px;""><img src=""images/choice_trial_1.png"" style=""width: 408px; height: 417px; margin-right: 200px;""><img src=""images/choice_trial_2.png"" style=""width: 408px; height: 417px;""></div></div>",f,delaylearn,learning,trial,nWhssvZeXHg5JuLn9TWdR4JFZ5B2,nWhssvZeXHg5JuLn9TWdR4JFZ5B2,1.0,images/choice_trial_1.png,images/choice_trial_2.png,images/pattern_1.png,f,f,7000.0,1.0,2.0,1.0,0.0,34.0,1.0,1.0,1.0,210.0,,,,,,5f19a735255c76000b023d92,16:38:54,27/03/2024
html-keyboard-response,188,437879,0.0-78.0-1.0,,"<div style=""display: flex; flex-direction: column; align-items: center; margin-top: -40px;""><img src=""images/pattern_1.png"" style=""width: 234px; height: 230px; margin-top: -50px;""><div style=""display: flex; justify-content: space-between; margin-top: 33px;""><img src=""images/choice_trial_1.png"" style=""width: 408px; height: 417px; margin-right: 608px;""></div></div>",,delaylearn,learning,display_response,nWhssvZeXHg5JuLn9TWdR4JFZ5B2,nWhssvZeXHg5JuLn9TWdR4JFZ5B2,,,,,,,,,,,,,,,,,chosen stimuli: images/choice_trial_1.png,,,,,5f19a735255c76000b023d92,16:38:54,27/03/2024
html-keyboard-response,189,444893,0.0-78.0-2.0,,,,delaylearn,learning,feedback_duration_window,nWhssvZeXHg5JuLn9TWdR4JFZ5B2,nWhssvZeXHg5JuLn9TWdR4JFZ5B2,,,,,,,,,,,,,,,,,,7000.0,,,,5f19a735255c76000b023d92,16:38:54,27/03/2024
html-keyboard-response,190,446401,0.0-78.0-3.0,,<div style='margin:auto;width: auto; font-size: 150%'><span style='font-weight: bold; font-size: 100px; color: green;'>+10 points!</span><br><br></div>,,delaylearn,learning,feedback_image_window,nWhssvZeXHg5JuLn9TWdR4JFZ5B2,nWhssvZeXHg5JuLn9TWdR4JFZ5B2,,,,,,,,,,,,,,,,,,,,,,5f19a735255c76000b023d92,16:38:54,27/03/2024
html-keyboard-response,191,446905,0.0-79.0-0.0,,,,,,mood_trial_fixation,nWhssvZeXHg5JuLn9TWdR4JFZ5B2,,,,,,,,,,,,,,,,,,,,,,,5f19a735255c76000b023d92,16:38:54,27/03/2024
lmdlab-html-vas-response,192,451639,0.0-79.0-1.0,3725.0,How happy are you right now?,0.5108506947318897,delaylearn,learning,mood_trial,nWhssvZeXHg5JuLn9TWdR4JFZ5B2,nWhssvZeXHg5JuLn9TWdR4JFZ5B2,,,,,,,,,,,,,,,,,,,,"['Very unhappy', 'Very happy']",,5f19a735255c76000b023d92,16:38:54,27/03/2024
html-keyboard-response,193,453831,0.0-80.0,,"<div style=""font-size:100px;"">+</div>",,delaylearn,learning,ITI,nWhssvZeXHg5JuLn9TWdR4JFZ5B2,nWhssvZeXHg5JuLn9TWdR4JFZ5B2,,,,,,,,,,,,,,,,,,,2184.0,,,5f19a735255c76000b023d92,16:38:54,27/03/2024
html-keyboard-response,194,455226,0.0-81.0-0.0,1391.0,"<div style=""display: flex; flex-direction: column; align-items: center; margin-top: -40px;""><img src=""images/pattern_6.png"" style=""width: 234px; height: 230px; margin-top: -50px;""><div style=""display: flex; justify-content: space-between; margin-top: 33px;""><img src=""images/choice_trial_11.png"" style=""width: 408px; height: 417px; margin-right: 200px;""><img src=""images/choice_trial_12.png"" style=""width: 408px; height: 417px;""></div></div>",f,delaylearn,learning,trial,nWhssvZeXHg5JuLn9TWdR4JFZ5B2,nWhssvZeXHg5JuLn9TWdR4JFZ5B2,1.0,images/choice_trial_11.png,images/choice_trial_12.png,images/pattern_6.png,j,f,750.0,11.0,12.0,5.0,0.0,35.0,1.0,0.0,11.0,210.0,,,,,,5f19a735255c76000b023d92,16:38:54,27/03/2024
html-keyboard-response,195,456228,0.0-81.0-1.0,,"<div style=""display: flex; flex-direction: column; align-items: center; margin-top: -40px;""><img src=""images/pattern_6.png"" style=""width: 234px; height: 230px; margin-top: -50px;""><div style=""display: flex; justify-content: space-between; margin-top: 33px;""><img src=""images/choice_trial_11.png"" style=""width: 408px; height: 417px; margin-right: 608px;""></div></div>",,delaylearn,learning,display_response,nWhssvZeXHg5JuLn9TWdR4JFZ5B2,nWhssvZeXHg5JuLn9TWdR4JFZ5B2,,,,,,,,,,,,,,,,,chosen stimuli: images/choice_trial_11.png,,,,,5f19a735255c76000b023d92,16:38:54,27/03/2024
html-keyboard-response,196,456987,0.0-81.0-2.0,,,,delaylearn,learning,feedback_duration_window,nWhssvZeXHg5JuLn9TWdR4JFZ5B2,nWhssvZeXHg5JuLn9TWdR4JFZ5B2,,,,,,,,,,,,,,,,,,750.0,,,,5f19a735255c76000b023d92,16:38:54,27/03/2024
html-keyboard-response,197,458494,0.0-81.0-3.0,,<div style='margin:auto;width: auto; font-size: 150%'><span style='font-weight: bold; font-size: 100px; color: red;'>0 points!</span><br><br></div>,,delaylearn,learning,feedback_image_window,nWhssvZeXHg5JuLn9TWdR4JFZ5B2,nWhssvZeXHg5JuLn9TWdR4JFZ5B2,,,,,,,,,,,,,,,,,,,,,,5f19a735255c76000b023d92,16:38:54,27/03/2024
html-keyboard-response,198,460166,0.0-82.0,,"<div style=""font-size:100px;"">+</div>",,delaylearn,learning,ITI,nWhssvZeXHg5JuLn9TWdR4JFZ5B2,nWhssvZeXHg5JuLn9TWdR4JFZ5B2,,,,,,,,,,,,,,,,,,,1670.0,,,5f19a735255c76000b023d92,16:38:54,27/03/2024
html-keyboard-response,199,461741,0.0-83.0-0.0,1571.0,"<div style=""display: flex; flex-direction: column; align-items: center; margin-top: -40px;""><img src=""images/pattern_3.png"" style=""width: 234px; height: 230px; margin-top: -50px;""><div style=""display: flex; justify-content: space-between; margin-top: 33px;""><img src=""images/choice_trial_6.png"" style=""width: 408px; height: 417px; margin-right: 200px;""><img src=""images/choice_trial_5.png"" style=""width: 408px; height: 417px;""></div></div>",j,delaylearn,learning,trial,nWhssvZeXHg5JuLn9TWdR4JFZ5B2,nWhssvZeXHg5JuLn9TWdR4JFZ5B2,1.0,images/choice_trial_6.png,images/choice_trial_5.png,images/pattern_3.png,j,j,7000.0,6.0,5.0,2.0,1.0,36.0,1.0,1.0,5.0,220.0,,,,,,5f19a735255c76000b023d92,16:38:54,27/03/2024
html-keyboard-response,200,462746,0.0-83.0-1.0,,"<div style=""display: flex; flex-direction: column; align-items: center; margin-top: -40px;""><img src=""images/pattern_3.png"" style=""width: 234px; height: 230px; margin-top: -50px;""><div style=""display: flex; justify-content: space-between; margin-top: 33px;""><img src=""images/choice_trial_5.png"" style=""width: 408px; height: 417px; margin-left:608px;""></div></div>",,delaylearn,learning,display_response,nWhssvZeXHg5JuLn9TWdR4JFZ5B2,nWhssvZeXHg5JuLn9TWdR4JFZ5B2,,,,,,,,,,,,,,,,,chosen stimuli: images/choice_trial_5.png,,,,,5f19a735255c76000b023d92,16:38:54,27/03/2024
html-keyboard-response,201,469751,0.0-83.0-2.0,,,,delaylearn,learning,feedback_duration_window,nWhssvZeXHg5JuLn9TWdR4JFZ5B2,nWhssvZeXHg5JuLn9TWdR4JFZ5B2,,,,,,,,,,,,,,,,,,7000.0,,,,5f19a735255c76000b023d92,16:38:54,27/03/2024
html-keyboard-response,202,471258,0.0-83.0-3.0,,<div style='margin:auto;width: auto; font-size: 150%'><span style='font-weight: bold; font-size: 100px; color: green;'>+10 points!</span><br><br></div>,,delaylearn,learning,feedback_image_window,nWhssvZeXHg5JuLn9TWdR4JFZ5B2,nWhssvZeXHg5JuLn9TWdR4JFZ5B2,,,,,,,,,,,,,,,,,,,,,,5f19a735255c76000b023d92,16:38:54,27/03/2024
html-keyboard-response,203,473616,0.0-84.0,,"<div style=""font-size:100px;"">+</div>",,delaylearn,learning,ITI,nWhssvZeXHg5JuLn9TWdR4JFZ5B2,nWhssvZeXHg5JuLn9TWdR4JFZ5B2,,,,,,,,,,,,,,,,,,,2355.0,,,5f19a735255c76000b023d92,16:38:54,27/03/2024
html-keyboard-response,204,475053,0.0-85.0-0.0,1434.0,"<div style=""display: flex; flex-direction: column; align-items: center; margin-top: -40px;""><img src=""images/pattern_4.png"" style=""width: 234px; height: 230px; margin-top: -50px;""><div style=""display: flex; justify-content: space-between; margin-top: 33px;""><img src=""images/choice_trial_8.png"" style=""width: 408px; height: 417px; margin-right: 200px;""><img src=""images/choice_trial_7.png"" style=""width: 408px; height: 417px;""></div></div>",f,delaylearn,learning,trial,nWhssvZeXHg5JuLn9TWdR4JFZ5B2,nWhssvZeXHg5JuLn9TWdR4JFZ5B2,1.0,images/choice_trial_8.png,images/choice_trial_7.png,images/pattern_4.png,f,j,7000.0,8.0,7.0,3.0,1.0,37.0,0.0,1.0,8.0,230.0,,,,,,5f19a735255c76000b023d92,16:38:54,27/03/2024
html-keyboard-response,205,476061,0.0-85.0-1.0,,"<div style=""display: flex; flex-direction: column; align-items: center; margin-top: -40px;""><img src=""images/pattern_4.png"" style=""width: 234px; height: 230px; margin-top: -50px;""><div style=""display: flex; justify-content: space-between; margin-top: 33px;""><img src=""images/choice_trial_8.png"" style=""width: 408px; height: 417px; margin-right: 608px;""></div></div>",,delaylearn,learning,display_response,nWhssvZeXHg5JuLn9TWdR4JFZ5B2,nWhssvZeXHg5JuLn9TWdR4JFZ5B2,,,,,,,,,,,,,,,,,chosen stimuli: images/choice_trial_8.png,,,,,5f19a735255c76000b023d92,16:38:54,27/03/2024
html-keyboard-response,206,483067,0.0-85.0-2.0,,,,delaylearn,learning,feedback_duration_window,nWhssvZeXHg5JuLn9TWdR4JFZ5B2,nWhssvZeXHg5JuLn9TWdR4JFZ5B2,,,,,,,,,,,,,,,,,,7000.0,,,,5f19a735255c76000b023d92,16:38:54,27/03/2024
html-keyboard-response,207,484574,0.0-85.0-3.0,,<div style='margin:auto;width: auto; font-size: 150%'><span style='font-weight: bold; font-size: 100px; color: green;'>+10 points!</span><br><br></div>,,delaylearn,learning,feedback_image_window,nWhssvZeXHg5JuLn9TWdR4JFZ5B2,nWhssvZeXHg5JuLn9TWdR4JFZ5B2,,,,,,,,,,,,,,,,,,,,,,5f19a735255c76000b023d92,16:38:54,27/03/2024
html-keyboard-response,208,486367,0.0-86.0,,"<div style=""font-size:100px;"">+</div>",,delaylearn,learning,ITI,nWhssvZeXHg5JuLn9TWdR4JFZ5B2,nWhssvZeXHg5JuLn9TWdR4JFZ5B2,,,,,,,,,,,,,,,,,,,1777.0,,,5f19a735255c76000b023d92,16:38:54,27/03/2024
html-keyboard-response,209,488462,0.0-87.0-0.0,2091.0,"<div style=""display: flex; flex-direction: column; align-items: center; margin-top: -40px;""><img src=""images/pattern_7.png"" style=""width: 234px; height: 230px; margin-top: -50px;""><div style=""display: flex; justify-content: space-between; margin-top: 33px;""><img src=""images/choice_trial_13.png"" style=""width: 408px; height: 417px; margin-right: 200px;""><img src=""images/choice_trial_14.png"" style=""width: 408px; height: 417px;""></div></div>",f,delaylearn,learning,trial,nWhssvZeXHg5JuLn9TWdR4JFZ5B2,nWhssvZeXHg5JuLn9TWdR4JFZ5B2,1.0,images/choice_trial_13.png,images/choice_trial_14.png,images/pattern_7.png,f,f,750.0,13.0,14.0,6.0,0.0,38.0,1.0,1.0,13.0,240.0,,,,,,5f19a735255c76000b023d92,16:38:54,27/03/2024
html-keyboard-response,210,489467,0.0-87.0-1.0,,"<div style=""display: flex; flex-direction: column; align-items: center; margin-top: -40px;""><img src=""images/pattern_7.png"" style=""width: 234px; height: 230px; margin-top: -50px;""><div style=""display: flex; justify-content: space-between; margin-top: 33px;""><img src=""images/choice_trial_13.png"" style=""width: 408px; height: 417px; margin-right: 608px;""></div></div>",,delaylearn,learning,display_response,nWhssvZeXHg5JuLn9TWdR4JFZ5B2,nWhssvZeXHg5JuLn9TWdR4JFZ5B2,,,,,,,,,,,,,,,,,chosen stimuli: images/choice_trial_13.png,,,,,5f19a735255c76000b023d92,16:38:54,27/03/2024
html-keyboard-response,211,490231,0.0-87.0-2.0,,,,delaylearn,learning,feedback_duration_window,nWhssvZeXHg5JuLn9TWdR4JFZ5B2,nWhssvZeXHg5JuLn9TWdR4JFZ5B2,,,,,,,,,,,,,,,,,,750.0,,,,5f19a735255c76000b023d92,16:38:54,27/03/2024
html-keyboard-response,212,491739,0.0-87.0-3.0,,<div style='margin:auto;width: auto; font-size: 150%'><span style='font-weight: bold; font-size: 100px; color: green;'>+10 points!</span><br><br></div>,,delaylearn,learning,feedback_image_window,nWhssvZeXHg5JuLn9TWdR4JFZ5B2,nWhssvZeXHg5JuLn9TWdR4JFZ5B2,,,,,,,,,,,,,,,,,,,,,,5f19a735255c76000b023d92,16:38:54,27/03/2024
html-keyboard-response,213,493786,0.0-88.0,,"<div style=""font-size:100px;"">+</div>",,delaylearn,learning,ITI,nWhssvZeXHg5JuLn9TWdR4JFZ5B2,nWhssvZeXHg5JuLn9TWdR4JFZ5B2,,,,,,,,,,,,,,,,,,,2038.0,,,5f19a735255c76000b023d92,16:38:54,27/03/2024
html-keyboard-response,214,496292,0.0-89.0-0.0,2503.0,"<div style=""display: flex; flex-direction: column; align-items: center; margin-top: -40px;""><img src=""images/pattern_1.png"" style=""width: 234px; height: 230px; margin-top: -50px;""><div style=""display: flex; justify-content: space-between; margin-top: 33px;""><img src=""images/choice_trial_1.png"" style=""width: 408px; height: 417px; margin-right: 200px;""><img src=""images/choice_trial_2.png"" style=""width: 408px; height: 417px;""></div></div>",f,delaylearn,learning,trial,nWhssvZeXHg5JuLn9TWdR4JFZ5B2,nWhssvZeXHg5JuLn9TWdR4JFZ5B2,1.0,images/choice_trial_1.png,images/choice_trial_2.png,images/pattern_1.png,f,f,7000.0,1.0,2.0,1.0,0.0,39.0,1.0,1.0,1.0,250.0,,,,,,5f19a735255c76000b023d92,16:38:54,27/03/2024
html-keyboard-response,215,497305,0.0-89.0-1.0,,"<div style=""display: flex; flex-direction: column; align-items: center; margin-top: -40px;""><img src=""images/pattern_1.png"" style=""width: 234px; height: 230px; margin-top: -50px;""><div style=""display: flex; justify-content: space-between; margin-top: 33px;""><img src=""images/choice_trial_1.png"" style=""width: 408px; height: 417px; margin-right: 608px;""></div></div>",,delaylearn,learning,display_response,nWhssvZeXHg5JuLn9TWdR4JFZ5B2,nWhssvZeXHg5JuLn9TWdR4JFZ5B2,,,,,,,,,,,,,,,,,chosen stimuli: images/choice_trial_1.png,,,,,5f19a735255c76000b023d92,16:38:54,27/03/2024
html-keyboard-response,216,504318,0.0-89.0-2.0,,,,delaylearn,learning,feedback_duration_window,nWhssvZeXHg5JuLn9TWdR4JFZ5B2,nWhssvZeXHg5JuLn9TWdR4JFZ5B2,,,,,,,,,,,,,,,,,,7000.0,,,,5f19a735255c76000b023d92,16:38:54,27/03/2024
html-keyboard-response,217,505826,0.0-89.0-3.0,,<div style='margin:auto;width: auto; font-size: 150%'><span style='font-weight: bold; font-size: 100px; color: green;'>+10 points!</span><br><br></div>,,delaylearn,learning,feedback_image_window,nWhssvZeXHg5JuLn9TWdR4JFZ5B2,nWhssvZeXHg5JuLn9TWdR4JFZ5B2,,,,,,,,,,,,,,,,,,,,,,5f19a735255c76000b023d92,16:38:54,27/03/2024
html-keyboard-response,218,506348,0.0-90.0-0.0,,,,,,mood_trial_fixation,nWhssvZeXHg5JuLn9TWdR4JFZ5B2,,,,,,,,,,,,,,,,,,,,,,,5f19a735255c76000b023d92,16:38:54,27/03/2024
lmdlab-html-vas-response,219,511868,0.0-90.0-1.0,4509.0,How happy are you right now?,0.5151909726246455,delaylearn,learning,mood_trial,nWhssvZeXHg5JuLn9TWdR4JFZ5B2,nWhssvZeXHg5JuLn9TWdR4JFZ5B2,,,,,,,,,,,,,,,,,,,,"['Very unhappy', 'Very happy']",,5f19a735255c76000b023d92,16:38:54,27/03/2024
html-keyboard-response,220,514207,0.0-91.0,,"<div style=""font-size:100px;"">+</div>",,delaylearn,learning,ITI,nWhssvZeXHg5JuLn9TWdR4JFZ5B2,nWhssvZeXHg5JuLn9TWdR4JFZ5B2,,,,,,,,,,,,,,,,,,,2329.0,,,5f19a735255c76000b023d92,16:38:54,27/03/2024
html-keyboard-response,221,515148,0.0-92.0-0.0,938.0,"<div style=""display: flex; flex-direction: column; align-items: center; margin-top: -40px;""><img src=""images/pattern_3.png"" style=""width: 234px; height: 230px; margin-top: -50px;""><div style=""display: flex; justify-content: space-between; margin-top: 33px;""><img src=""images/choice_trial_5.png"" style=""width: 408px; height: 417px; margin-right: 200px;""><img src=""images/choice_trial_6.png"" style=""width: 408px; height: 417px;""></div></div>",f,delaylearn,learning,trial,nWhssvZeXHg5JuLn9TWdR4JFZ5B2,nWhssvZeXHg5JuLn9TWdR4JFZ5B2,1.0,images/choice_trial_5.png,images/choice_trial_6.png,images/pattern_3.png,j,f,7000.0,5.0,6.0,2.0,0.0,40.0,1.0,0.0,5.0,250.0,,,,,,5f19a735255c76000b023d92,16:38:54,27/03/2024
html-keyboard-response,222,516162,0.0-92.0-1.0,,"<div style=""display: flex; flex-direction: column; align-items: center; margin-top: -40px;""><img src=""images/pattern_3.png"" style=""width: 234px; height: 230px; margin-top: -50px;""><div style=""display: flex; justify-content: space-between; margin-top: 33px;""><img src=""images/choice_trial_5.png"" style=""width: 408px; height: 417px; margin-right: 608px;""></div></div>",,delaylearn,learning,display_response,nWhssvZeXHg5JuLn9TWdR4JFZ5B2,nWhssvZeXHg5JuLn9TWdR4JFZ5B2,,,,,,,,,,,,,,,,,chosen stimuli: images/choice_trial_5.png,,,,,5f19a735255c76000b023d92,16:38:54,27/03/2024
html-keyboard-response,223,523167,0.0-92.0-2.0,,,,delaylearn,learning,feedback_duration_window,nWhssvZeXHg5JuLn9TWdR4JFZ5B2,nWhssvZeXHg5JuLn9TWdR4JFZ5B2,,,,,,,,,,,,,,,,,,7000.0,,,,5f19a735255c76000b023d92,16:38:54,27/03/2024
html-keyboard-response,224,524674,0.0-92.0-3.0,,<div style='margin:auto;width: auto; font-size: 150%'><span style='font-weight: bold; font-size: 100px; color: red;'>0 points!</span><br><br></div>,,delaylearn,learning,feedback_image_window,nWhssvZeXHg5JuLn9TWdR4JFZ5B2,nWhssvZeXHg5JuLn9TWdR4JFZ5B2,,,,,,,,,,,,,,,,,,,,,,5f19a735255c76000b023d92,16:38:54,27/03/2024
html-keyboard-response,225,526594,0.0-93.0,,"<div style=""font-size:100px;"">+</div>",,delaylearn,learning,ITI,nWhssvZeXHg5JuLn9TWdR4JFZ5B2,nWhssvZeXHg5JuLn9TWdR4JFZ5B2,,,,,,,,,,,,,,,,,,,1907.0,,,5f19a735255c76000b023d92,16:38:54,27/03/2024
html-keyboard-response,226,528170,0.0-94.0-0.0,1575.0,"<div style=""display: flex; flex-direction: column; align-items: center; margin-top: -40px;""><img src=""images/pattern_7.png"" style=""width: 234px; height: 230px; margin-top: -50px;""><div style=""display: flex; justify-content: space-between; margin-top: 33px;""><img src=""images/choice_trial_14.png"" style=""width: 408px; height: 417px; margin-right: 200px;""><img src=""images/choice_trial_13.png"" style=""width: 408px; height: 417px;""></div></div>",j,delaylearn,learning,trial,nWhssvZeXHg5JuLn9TWdR4JFZ5B2,nWhssvZeXHg5JuLn9TWdR4JFZ5B2,1.0,images/choice_trial_14.png,images/choice_trial_13.png,images/pattern_7.png,j,j,750.0,14.0,13.0,6.0,1.0,41.0,1.0,1.0,13.0,260.0,,,,,,5f19a735255c76000b023d92,16:38:54,27/03/2024
html-keyboard-response,227,529185,0.0-94.0-1.0,,"<div style=""display: flex; flex-direction: column; align-items: center; margin-top: -40px;""><img src=""images/pattern_7.png"" style=""width: 234px; height: 230px; margin-top: -50px;""><div style=""display: flex; justify-content: space-between; margin-top: 33px;""><img src=""images/choice_trial_13.png"" style=""width: 408px; height: 417px; margin-left:608px;""></div></div>",,delaylearn,learning,display_response,nWhssvZeXHg5JuLn9TWdR4JFZ5B2,nWhssvZeXHg5JuLn9TWdR4JFZ5B2,,,,,,,,,,,,,,,,,chosen stimuli: images/choice_trial_13.png,,,,,5f19a735255c76000b023d92,16:38:54,27/03/2024
html-keyboard-response,228,529941,0.0-94.0-2.0,,,,delaylearn,learning,feedback_duration_window,nWhssvZeXHg5JuLn9TWdR4JFZ5B2,nWhssvZeXHg5JuLn9TWdR4JFZ5B2,,,,,,,,,,,,,,,,,,750.0,,,,5f19a735255c76000b023d92,16:38:54,27/03/2024
html-keyboard-response,229,531448,0.0-94.0-3.0,,<div style='margin:auto;width: auto; font-size: 150%'><span style='font-weight: bold; font-size: 100px; color: green;'>+10 points!</span><br><br></div>,,delaylearn,learning,feedback_image_window,nWhssvZeXHg5JuLn9TWdR4JFZ5B2,nWhssvZeXHg5JuLn9TWdR4JFZ5B2,,,,,,,,,,,,,,,,,,,,,,5f19a735255c76000b023d92,16:38:54,27/03/2024
html-keyboard-response,230,533705,0.0-95.0,,"<div style=""font-size:100px;"">+</div>",,delaylearn,learning,ITI,nWhssvZeXHg5JuLn9TWdR4JFZ5B2,nWhssvZeXHg5JuLn9TWdR4JFZ5B2,,,,,,,,,,,,,,,,,,,2248.0,,,5f19a735255c76000b023d92,16:38:54,27/03/2024
