trial_type,trial_index,time_elapsed,internal_node_id,rt,stimulus,response,exp_name,exp_stage,test_part,subjectID,databaseID,counterbal,choice_stimuli_1,choice_stimuli_2,pattern_stimuli,rewarded_answer,correct_answer,feedback_duration_times,stim_left,stim_right,pair,leftright_counter,trial,response_correct,response_rewarded,chosen_stim,counter,displayed_choice,feedback_durations,ITI_duration,labels,rest_warning,prolificID,start_time,date
pavlovia,0,530,0.0-0.0,,,,,,,VBWkO9W60aNEOjxBq3p6UyQsCky1,,,,,,,,,,,,,,,,,,,,,,,6173c5b0aa4bc2370fd2c1f2,09:09:30,27/02/2024
html-keyboard-response,1,3538,0.0-1.0,,"<div style=""font-size:100px;"">+</div>",,delaylearn,learning,pre_fixation,VBWkO9W60aNEOjxBq3p6UyQsCky1,,,,,,,,,,,,,,,,,,,,,,,6173c5b0aa4bc2370fd2c1f2,09:09:30,27/02/2024
html-keyboard-response,2,4675,0.0-2.0-0.0,1134.2999999523163,"<div style=""display: flex; flex-direction: column; align-items: center; margin-top: -40px;""><img src=""images/demo_images/pattern_1.png"" style=""width: 234px; height: 230px; margin-top: -50px;""><div style=""display: flex; justify-content: space-between; margin-top: 33px;""><img src=""images/demo_images/choice_trial_2.png"" style=""width: 408px; height: 417px; margin-right: 200px;""><img src=""images/demo_images/choice_trial_1.png"" style=""width: 408px; height: 417px;""></div></div>",f,delaylearn,learning,trial,VBWkO9W60aNEOjxBq3p6UyQsCky1,VBWkO9W60aNEOjxBq3p6UyQsCky1,1.0,images/demo_images/choice_trial_2.png,images/demo_images/choice_trial_1.png,images/demo_images/pattern_1.png,j,j,3000.0,2.0,1.0,20.0,1.0,1.0,0.0,0.0,2.0,0.0,,,,,,6173c5b0aa4bc2370fd2c1f2,09:09:30,27/02/2024
html-keyboard-response,3,5690,0.0-2.0-1.0,,"<div style=""display: flex; flex-direction: column; align-items: center; margin-top: -40px;""><img src=""images/demo_images/pattern_1.png"" style=""width: 234px; height: 230px; margin-top: -50px;""><div style=""display: flex; justify-content: space-between; margin-top: 33px;""><img src=""images/demo_images/choice_trial_2.png"" style=""width: 408px; height: 417px; margin-right: 608px;""></div></div>",,delaylearn,learning,display_response,VBWkO9W60aNEOjxBq3p6UyQsCky1,VBWkO9W60aNEOjxBq3p6UyQsCky1,,,,,,,,,,,,,,,,,chosen stimuli: images/demo_images/choice_trial_2.png,,,,,6173c5b0aa4bc2370fd2c1f2,09:09:30,27/02/2024
html-keyboard-response,4,8699,0.0-2.0-2.0,,,,delaylearn,learning,feedback_duration_window,VBWkO9W60aNEOjxBq3p6UyQsCky1,VBWkO9W60aNEOjxBq3p6UyQsCky1,,,,,,,,,,,,,,,,,,3000.0,,,,6173c5b0aa4bc2370fd2c1f2,09:09:30,27/02/2024
html-keyboard-response,5,10203,0.0-2.0-3.0,,<div style='margin:auto;width: auto; font-size: 150%'><span style='font-weight: bold; font-size: 100px; color: red;'>0 points!</span><br><br></div>,,delaylearn,learning,feedback_image_window,VBWkO9W60aNEOjxBq3p6UyQsCky1,VBWkO9W60aNEOjxBq3p6UyQsCky1,,,,,,,,,,,,,,,,,,,,,,6173c5b0aa4bc2370fd2c1f2,09:09:30,27/02/2024
html-keyboard-response,6,12562,0.0-3.0,,"<div style=""font-size:100px;"">+</div>",,delaylearn,learning,ITI,VBWkO9W60aNEOjxBq3p6UyQsCky1,VBWkO9W60aNEOjxBq3p6UyQsCky1,,,,,,,,,,,,,,,,,,,2349.0,,,6173c5b0aa4bc2370fd2c1f2,09:09:30,27/02/2024
html-keyboard-response,7,13897,0.0-4.0-0.0,1331.7000000476837,"<div style=""display: flex; flex-direction: column; align-items: center; margin-top: -40px;""><img src=""images/demo_images/pattern_1.png"" style=""width: 234px; height: 230px; margin-top: -50px;""><div style=""display: flex; justify-content: space-between; margin-top: 33px;""><img src=""images/demo_images/choice_trial_2.png"" style=""width: 408px; height: 417px; margin-right: 200px;""><img src=""images/demo_images/choice_trial_1.png"" style=""width: 408px; height: 417px;""></div></div>",j,delaylearn,learning,trial,VBWkO9W60aNEOjxBq3p6UyQsCky1,VBWkO9W60aNEOjxBq3p6UyQsCky1,1.0,images/demo_images/choice_trial_2.png,images/demo_images/choice_trial_1.png,images/demo_images/pattern_1.png,j,j,3000.0,2.0,1.0,20.0,1.0,2.0,1.0,1.0,1.0,10.0,,,,,,6173c5b0aa4bc2370fd2c1f2,09:09:30,27/02/2024
html-keyboard-response,8,14913,0.0-4.0-1.0,,"<div style=""display: flex; flex-direction: column; align-items: center; margin-top: -40px;""><img src=""images/demo_images/pattern_1.png"" style=""width: 234px; height: 230px; margin-top: -50px;""><div style=""display: flex; justify-content: space-between; margin-top: 33px;""><img src=""images/demo_images/choice_trial_1.png"" style=""width: 408px; height: 417px; margin-left:608px;""></div></div>",,delaylearn,learning,display_response,VBWkO9W60aNEOjxBq3p6UyQsCky1,VBWkO9W60aNEOjxBq3p6UyQsCky1,,,,,,,,,,,,,,,,,chosen stimuli: images/demo_images/choice_trial_1.png,,,,,6173c5b0aa4bc2370fd2c1f2,09:09:30,27/02/2024
html-keyboard-response,9,17918,0.0-4.0-2.0,,,,delaylearn,learning,feedback_duration_window,VBWkO9W60aNEOjxBq3p6UyQsCky1,VBWkO9W60aNEOjxBq3p6UyQsCky1,,,,,,,,,,,,,,,,,,3000.0,,,,6173c5b0aa4bc2370fd2c1f2,09:09:30,27/02/2024
html-keyboard-response,10,19421,0.0-4.0-3.0,,<div style='margin:auto;width: auto; font-size: 150%'><span style='font-weight: bold; font-size: 100px; color: green;'>+10 points!</span><br><br></div>,,delaylearn,learning,feedback_image_window,VBWkO9W60aNEOjxBq3p6UyQsCky1,VBWkO9W60aNEOjxBq3p6UyQsCky1,,,,,,,,,,,,,,,,,,,,,,6173c5b0aa4bc2370fd2c1f2,09:09:30,27/02/2024
html-keyboard-response,11,21247,0.0-5.0,,"<div style=""font-size:100px;"">+</div>",,delaylearn,learning,ITI,VBWkO9W60aNEOjxBq3p6UyQsCky1,VBWkO9W60aNEOjxBq3p6UyQsCky1,,,,,,,,,,,,,,,,,,,1810.0,,,6173c5b0aa4bc2370fd2c1f2,09:09:30,27/02/2024
html-keyboard-response,12,22103,0.0-6.0-0.0,854.0,"<div style=""display: flex; flex-direction: column; align-items: center; margin-top: -40px;""><img src=""images/demo_images/pattern_1.png"" style=""width: 234px; height: 230px; margin-top: -50px;""><div style=""display: flex; justify-content: space-between; margin-top: 33px;""><img src=""images/demo_images/choice_trial_1.png"" style=""width: 408px; height: 417px; margin-right: 200px;""><img src=""images/demo_images/choice_trial_2.png"" style=""width: 408px; height: 417px;""></div></div>",f,delaylearn,learning,trial,VBWkO9W60aNEOjxBq3p6UyQsCky1,VBWkO9W60aNEOjxBq3p6UyQsCky1,1.0,images/demo_images/choice_trial_1.png,images/demo_images/choice_trial_2.png,images/demo_images/pattern_1.png,j,f,3000.0,1.0,2.0,20.0,0.0,3.0,1.0,0.0,1.0,10.0,,,,,,6173c5b0aa4bc2370fd2c1f2,09:09:30,27/02/2024
html-keyboard-response,13,23114,0.0-6.0-1.0,,"<div style=""display: flex; flex-direction: column; align-items: center; margin-top: -40px;""><img src=""images/demo_images/pattern_1.png"" style=""width: 234px; height: 230px; margin-top: -50px;""><div style=""display: flex; justify-content: space-between; margin-top: 33px;""><img src=""images/demo_images/choice_trial_1.png"" style=""width: 408px; height: 417px; margin-right: 608px;""></div></div>",,delaylearn,learning,display_response,VBWkO9W60aNEOjxBq3p6UyQsCky1,VBWkO9W60aNEOjxBq3p6UyQsCky1,,,,,,,,,,,,,,,,,chosen stimuli: images/demo_images/choice_trial_1.png,,,,,6173c5b0aa4bc2370fd2c1f2,09:09:30,27/02/2024
html-keyboard-response,14,26116,0.0-6.0-2.0,,,,delaylearn,learning,feedback_duration_window,VBWkO9W60aNEOjxBq3p6UyQsCky1,VBWkO9W60aNEOjxBq3p6UyQsCky1,,,,,,,,,,,,,,,,,,3000.0,,,,6173c5b0aa4bc2370fd2c1f2,09:09:30,27/02/2024
html-keyboard-response,15,27618,0.0-6.0-3.0,,<div style='margin:auto;width: auto; font-size: 150%'><span style='font-weight: bold; font-size: 100px; color: red;'>0 points!</span><br><br></div>,,delaylearn,learning,feedback_image_window,VBWkO9W60aNEOjxBq3p6UyQsCky1,VBWkO9W60aNEOjxBq3p6UyQsCky1,,,,,,,,,,,,,,,,,,,,,,6173c5b0aa4bc2370fd2c1f2,09:09:30,27/02/2024
html-keyboard-response,16,29840,0.0-7.0,,"<div style=""font-size:100px;"">+</div>",,delaylearn,learning,ITI,VBWkO9W60aNEOjxBq3p6UyQsCky1,VBWkO9W60aNEOjxBq3p6UyQsCky1,,,,,,,,,,,,,,,,,,,2211.0,,,6173c5b0aa4bc2370fd2c1f2,09:09:30,27/02/2024
html-keyboard-response,17,30886,0.0-8.0-0.0,1043.800000011921,"<div style=""display: flex; flex-direction: column; align-items: center; margin-top: -40px;""><img src=""images/demo_images/pattern_1.png"" style=""width: 234px; height: 230px; margin-top: -50px;""><div style=""display: flex; justify-content: space-between; margin-top: 33px;""><img src=""images/demo_images/choice_trial_1.png"" style=""width: 408px; height: 417px; margin-right: 200px;""><img src=""images/demo_images/choice_trial_2.png"" style=""width: 408px; height: 417px;""></div></div>",f,delaylearn,learning,trial,VBWkO9W60aNEOjxBq3p6UyQsCky1,VBWkO9W60aNEOjxBq3p6UyQsCky1,1.0,images/demo_images/choice_trial_1.png,images/demo_images/choice_trial_2.png,images/demo_images/pattern_1.png,f,f,3000.0,1.0,2.0,20.0,0.0,4.0,1.0,1.0,1.0,20.0,,,,,,6173c5b0aa4bc2370fd2c1f2,09:09:30,27/02/2024
html-keyboard-response,18,31895,0.0-8.0-1.0,,"<div style=""display: flex; flex-direction: column; align-items: center; margin-top: -40px;""><img src=""images/demo_images/pattern_1.png"" style=""width: 234px; height: 230px; margin-top: -50px;""><div style=""display: flex; justify-content: space-between; margin-top: 33px;""><img src=""images/demo_images/choice_trial_1.png"" style=""width: 408px; height: 417px; margin-right: 608px;""></div></div>",,delaylearn,learning,display_response,VBWkO9W60aNEOjxBq3p6UyQsCky1,VBWkO9W60aNEOjxBq3p6UyQsCky1,,,,,,,,,,,,,,,,,chosen stimuli: images/demo_images/choice_trial_1.png,,,,,6173c5b0aa4bc2370fd2c1f2,09:09:30,27/02/2024
html-keyboard-response,19,34904,0.0-8.0-2.0,,,,delaylearn,learning,feedback_duration_window,VBWkO9W60aNEOjxBq3p6UyQsCky1,VBWkO9W60aNEOjxBq3p6UyQsCky1,,,,,,,,,,,,,,,,,,3000.0,,,,6173c5b0aa4bc2370fd2c1f2,09:09:30,27/02/2024
html-keyboard-response,20,36407,0.0-8.0-3.0,,<div style='margin:auto;width: auto; font-size: 150%'><span style='font-weight: bold; font-size: 100px; color: green;'>+10 points!</span><br><br></div>,,delaylearn,learning,feedback_image_window,VBWkO9W60aNEOjxBq3p6UyQsCky1,VBWkO9W60aNEOjxBq3p6UyQsCky1,,,,,,,,,,,,,,,,,,,,,,6173c5b0aa4bc2370fd2c1f2,09:09:30,27/02/2024
html-keyboard-response,21,36910,0.0-9.0-0.0,,,,,,mood_trial_fixation,VBWkO9W60aNEOjxBq3p6UyQsCky1,,,,,,,,,,,,,,,,,,,,,,,6173c5b0aa4bc2370fd2c1f2,09:09:30,27/02/2024
lmdlab-html-vas-response,22,40425,0.0-9.0-1.0,2500.0,How happy are you right now?,0.7025703640892893,delaylearn,learning,mood_trial,VBWkO9W60aNEOjxBq3p6UyQsCky1,VBWkO9W60aNEOjxBq3p6UyQsCky1,,,,,,,,,,,,,,,,,,,,"['Very unhappy', 'Very happy']",,6173c5b0aa4bc2370fd2c1f2,09:09:30,27/02/2024
html-keyboard-response,23,42605,0.0-10.0,,"<div style=""font-size:100px;"">+</div>",,delaylearn,learning,ITI,VBWkO9W60aNEOjxBq3p6UyQsCky1,VBWkO9W60aNEOjxBq3p6UyQsCky1,,,,,,,,,,,,,,,,,,,2158.0,,,6173c5b0aa4bc2370fd2c1f2,09:09:30,27/02/2024
html-keyboard-response,24,43840,0.0-11.0-0.0,1232.699999988079,"<div style=""display: flex; flex-direction: column; align-items: center; margin-top: -40px;""><img src=""images/demo_images/pattern_1.png"" style=""width: 234px; height: 230px; margin-top: -50px;""><div style=""display: flex; justify-content: space-between; margin-top: 33px;""><img src=""images/demo_images/choice_trial_2.png"" style=""width: 408px; height: 417px; margin-right: 200px;""><img src=""images/demo_images/choice_trial_1.png"" style=""width: 408px; height: 417px;""></div></div>",j,delaylearn,learning,trial,VBWkO9W60aNEOjxBq3p6UyQsCky1,VBWkO9W60aNEOjxBq3p6UyQsCky1,1.0,images/demo_images/choice_trial_2.png,images/demo_images/choice_trial_1.png,images/demo_images/pattern_1.png,j,j,3000.0,2.0,1.0,20.0,1.0,5.0,1.0,1.0,1.0,30.0,,,,,,6173c5b0aa4bc2370fd2c1f2,09:09:30,27/02/2024
html-keyboard-response,25,44858,0.0-11.0-1.0,,"<div style=""display: flex; flex-direction: column; align-items: center; margin-top: -40px;""><img src=""images/demo_images/pattern_1.png"" style=""width: 234px; height: 230px; margin-top: -50px;""><div style=""display: flex; justify-content: space-between; margin-top: 33px;""><img src=""images/demo_images/choice_trial_1.png"" style=""width: 408px; height: 417px; margin-left:608px;""></div></div>",,delaylearn,learning,display_response,VBWkO9W60aNEOjxBq3p6UyQsCky1,VBWkO9W60aNEOjxBq3p6UyQsCky1,,,,,,,,,,,,,,,,,chosen stimuli: images/demo_images/choice_trial_1.png,,,,,6173c5b0aa4bc2370fd2c1f2,09:09:30,27/02/2024
html-keyboard-response,26,47869,0.0-11.0-2.0,,,,delaylearn,learning,feedback_duration_window,VBWkO9W60aNEOjxBq3p6UyQsCky1,VBWkO9W60aNEOjxBq3p6UyQsCky1,,,,,,,,,,,,,,,,,,3000.0,,,,6173c5b0aa4bc2370fd2c1f2,09:09:30,27/02/2024
html-keyboard-response,27,49380,0.0-11.0-3.0,,<div style='margin:auto;width: auto; font-size: 150%'><span style='font-weight: bold; font-size: 100px; color: green;'>+10 points!</span><br><br></div>,,delaylearn,learning,feedback_image_window,VBWkO9W60aNEOjxBq3p6UyQsCky1,VBWkO9W60aNEOjxBq3p6UyQsCky1,,,,,,,,,,,,,,,,,,,,,,6173c5b0aa4bc2370fd2c1f2,09:09:30,27/02/2024
html-keyboard-response,28,51286,0.0-12.0,,"<div style=""font-size:100px;"">+</div>",,delaylearn,learning,ITI,VBWkO9W60aNEOjxBq3p6UyQsCky1,VBWkO9W60aNEOjxBq3p6UyQsCky1,,,,,,,,,,,,,,,,,,,1900.0,,,6173c5b0aa4bc2370fd2c1f2,09:09:30,27/02/2024
html-keyboard-response,29,53270,0.0-13.0-0.0,1981.0999999642372,"<div style=""display: flex; flex-direction: column; align-items: center; margin-top: -40px;""><img src=""images/demo_images/pattern_1.png"" style=""width: 234px; height: 230px; margin-top: -50px;""><div style=""display: flex; justify-content: space-between; margin-top: 33px;""><img src=""images/demo_images/choice_trial_1.png"" style=""width: 408px; height: 417px; margin-right: 200px;""><img src=""images/demo_images/choice_trial_2.png"" style=""width: 408px; height: 417px;""></div></div>",j,delaylearn,learning,trial,VBWkO9W60aNEOjxBq3p6UyQsCky1,VBWkO9W60aNEOjxBq3p6UyQsCky1,1.0,images/demo_images/choice_trial_1.png,images/demo_images/choice_trial_2.png,images/demo_images/pattern_1.png,f,f,3000.0,1.0,2.0,20.0,0.0,6.0,0.0,0.0,2.0,30.0,,,,,,6173c5b0aa4bc2370fd2c1f2,09:09:30,27/02/2024
html-keyboard-response,30,54284,0.0-13.0-1.0,,"<div style=""display: flex; flex-direction: column; align-items: center; margin-top: -40px;""><img src=""images/demo_images/pattern_1.png"" style=""width: 234px; height: 230px; margin-top: -50px;""><div style=""display: flex; justify-content: space-between; margin-top: 33px;""><img src=""images/demo_images/choice_trial_2.png"" style=""width: 408px; height: 417px; margin-left:608px;""></div></div>",,delaylearn,learning,display_response,VBWkO9W60aNEOjxBq3p6UyQsCky1,VBWkO9W60aNEOjxBq3p6UyQsCky1,,,,,,,,,,,,,,,,,chosen stimuli: images/demo_images/choice_trial_2.png,,,,,6173c5b0aa4bc2370fd2c1f2,09:09:30,27/02/2024
html-keyboard-response,31,57298,0.0-13.0-2.0,,,,delaylearn,learning,feedback_duration_window,VBWkO9W60aNEOjxBq3p6UyQsCky1,VBWkO9W60aNEOjxBq3p6UyQsCky1,,,,,,,,,,,,,,,,,,3000.0,,,,6173c5b0aa4bc2370fd2c1f2,09:09:30,27/02/2024
html-keyboard-response,32,58803,0.0-13.0-3.0,,<div style='margin:auto;width: auto; font-size: 150%'><span style='font-weight: bold; font-size: 100px; color: red;'>0 points!</span><br><br></div>,,delaylearn,learning,feedback_image_window,VBWkO9W60aNEOjxBq3p6UyQsCky1,VBWkO9W60aNEOjxBq3p6UyQsCky1,,,,,,,,,,,,,,,,,,,,,,6173c5b0aa4bc2370fd2c1f2,09:09:30,27/02/2024
html-button-response,33,60901,0.0-14.0,2096.899999976158,"
  <div style=""display: flex; align-items: center; justify-content: center; height: 80vh;"">
  <div>
          <img src=""images/inst_demo_finish.png"" style=""width: 80vw; height:auto;"">
          <br><br>
      </div>
      <br><br>
  </div>",0,,,,VBWkO9W60aNEOjxBq3p6UyQsCky1,,,,,,,,,,,,,,,,,,,,,,,6173c5b0aa4bc2370fd2c1f2,09:09:30,27/02/2024
html-keyboard-response,34,63504,0.0-15.0,2601.300000011921,"
  <div style=""display: flex; align-items: center; justify-content: center; height: 80vh;"">
  <div>
          <img src=""images/inst_6.png"" style=""width: 80vw; height:auto;"">
          <br><br>
      </div>
      <br><br>
  </div>",f,,,,VBWkO9W60aNEOjxBq3p6UyQsCky1,,,,,,,,,,,,,,,,,,,,,,,6173c5b0aa4bc2370fd2c1f2,09:09:30,27/02/2024
html-keyboard-response,35,66520,0.0-16.0,,"<div style=""font-size:100px;"">+</div>",,delaylearn,learning,pre_fixation,VBWkO9W60aNEOjxBq3p6UyQsCky1,,,,,,,,,,,,,,,,,,,,,,,6173c5b0aa4bc2370fd2c1f2,09:09:30,27/02/2024
html-keyboard-response,36,68658,0.0-17.0,,"<div style=""font-size:100px;"">+</div>",,delaylearn,learning,ITI,VBWkO9W60aNEOjxBq3p6UyQsCky1,VBWkO9W60aNEOjxBq3p6UyQsCky1,,,,,,,,,,,,,,,,,,,2125.0,,,6173c5b0aa4bc2370fd2c1f2,09:09:30,27/02/2024
html-keyboard-response,37,69753,0.0-18.0-0.0,1093.0999999642372,"<div style=""display: flex; flex-direction: column; align-items: center; margin-top: -40px;""><img src=""images/pattern_3.png"" style=""width: 234px; height: 230px; margin-top: -50px;""><div style=""display: flex; justify-content: space-between; margin-top: 33px;""><img src=""images/choice_trial_5.png"" style=""width: 408px; height: 417px; margin-right: 200px;""><img src=""images/choice_trial_6.png"" style=""width: 408px; height: 417px;""></div></div>",f,delaylearn,learning,trial,VBWkO9W60aNEOjxBq3p6UyQsCky1,VBWkO9W60aNEOjxBq3p6UyQsCky1,1.0,images/choice_trial_5.png,images/choice_trial_6.png,images/pattern_3.png,f,f,7000.0,5.0,6.0,2.0,0.0,7.0,1.0,1.0,5.0,40.0,,,,,,6173c5b0aa4bc2370fd2c1f2,09:09:30,27/02/2024
html-keyboard-response,38,70760,0.0-18.0-1.0,,"<div style=""display: flex; flex-direction: column; align-items: center; margin-top: -40px;""><img src=""images/pattern_3.png"" style=""width: 234px; height: 230px; margin-top: -50px;""><div style=""display: flex; justify-content: space-between; margin-top: 33px;""><img src=""images/choice_trial_5.png"" style=""width: 408px; height: 417px; margin-right: 608px;""></div></div>",,delaylearn,learning,display_response,VBWkO9W60aNEOjxBq3p6UyQsCky1,VBWkO9W60aNEOjxBq3p6UyQsCky1,,,,,,,,,,,,,,,,,chosen stimuli: images/choice_trial_5.png,,,,,6173c5b0aa4bc2370fd2c1f2,09:09:30,27/02/2024
html-keyboard-response,39,77766,0.0-18.0-2.0,,,,delaylearn,learning,feedback_duration_window,VBWkO9W60aNEOjxBq3p6UyQsCky1,VBWkO9W60aNEOjxBq3p6UyQsCky1,,,,,,,,,,,,,,,,,,7000.0,,,,6173c5b0aa4bc2370fd2c1f2,09:09:30,27/02/2024
html-keyboard-response,40,79279,0.0-18.0-3.0,,<div style='margin:auto;width: auto; font-size: 150%'><span style='font-weight: bold; font-size: 100px; color: green;'>+10 points!</span><br><br></div>,,delaylearn,learning,feedback_image_window,VBWkO9W60aNEOjxBq3p6UyQsCky1,VBWkO9W60aNEOjxBq3p6UyQsCky1,,,,,,,,,,,,,,,,,,,,,,6173c5b0aa4bc2370fd2c1f2,09:09:30,27/02/2024
html-keyboard-response,41,81787,0.0-19.0,,"<div style=""font-size:100px;"">+</div>",,delaylearn,learning,ITI,VBWkO9W60aNEOjxBq3p6UyQsCky1,VBWkO9W60aNEOjxBq3p6UyQsCky1,,,,,,,,,,,,,,,,,,,2495.0,,,6173c5b0aa4bc2370fd2c1f2,09:09:30,27/02/2024
html-keyboard-response,42,82761,0.0-20.0-0.0,971.6999999880791,"<div style=""display: flex; flex-direction: column; align-items: center; margin-top: -40px;""><img src=""images/pattern_7.png"" style=""width: 234px; height: 230px; margin-top: -50px;""><div style=""display: flex; justify-content: space-between; margin-top: 33px;""><img src=""images/choice_trial_14.png"" style=""width: 408px; height: 417px; margin-right: 200px;""><img src=""images/choice_trial_13.png"" style=""width: 408px; height: 417px;""></div></div>",j,delaylearn,learning,trial,VBWkO9W60aNEOjxBq3p6UyQsCky1,VBWkO9W60aNEOjxBq3p6UyQsCky1,1.0,images/choice_trial_14.png,images/choice_trial_13.png,images/pattern_7.png,j,j,750.0,14.0,13.0,6.0,1.0,8.0,1.0,1.0,13.0,50.0,,,,,,6173c5b0aa4bc2370fd2c1f2,09:09:30,27/02/2024
html-keyboard-response,43,83763,0.0-20.0-1.0,,"<div style=""display: flex; flex-direction: column; align-items: center; margin-top: -40px;""><img src=""images/pattern_7.png"" style=""width: 234px; height: 230px; margin-top: -50px;""><div style=""display: flex; justify-content: space-between; margin-top: 33px;""><img src=""images/choice_trial_13.png"" style=""width: 408px; height: 417px; margin-left:608px;""></div></div>",,delaylearn,learning,display_response,VBWkO9W60aNEOjxBq3p6UyQsCky1,VBWkO9W60aNEOjxBq3p6UyQsCky1,,,,,,,,,,,,,,,,,chosen stimuli: images/choice_trial_13.png,,,,,6173c5b0aa4bc2370fd2c1f2,09:09:30,27/02/2024
html-keyboard-response,44,84532,0.0-20.0-2.0,,,,delaylearn,learning,feedback_duration_window,VBWkO9W60aNEOjxBq3p6UyQsCky1,VBWkO9W60aNEOjxBq3p6UyQsCky1,,,,,,,,,,,,,,,,,,750.0,,,,6173c5b0aa4bc2370fd2c1f2,09:09:30,27/02/2024
html-keyboard-response,45,86037,0.0-20.0-3.0,,<div style='margin:auto;width: auto; font-size: 150%'><span style='font-weight: bold; font-size: 100px; color: green;'>+10 points!</span><br><br></div>,,delaylearn,learning,feedback_image_window,VBWkO9W60aNEOjxBq3p6UyQsCky1,VBWkO9W60aNEOjxBq3p6UyQsCky1,,,,,,,,,,,,,,,,,,,,,,6173c5b0aa4bc2370fd2c1f2,09:09:30,27/02/2024
html-keyboard-response,46,87789,0.0-21.0,,"<div style=""font-size:100px;"">+</div>",,delaylearn,learning,ITI,VBWkO9W60aNEOjxBq3p6UyQsCky1,VBWkO9W60aNEOjxBq3p6UyQsCky1,,,,,,,,,,,,,,,,,,,1740.0,,,6173c5b0aa4bc2370fd2c1f2,09:09:30,27/02/2024
html-keyboard-response,47,88752,0.0-22.0-0.0,961.4000000357628,"<div style=""display: flex; flex-direction: column; align-items: center; margin-top: -40px;""><img src=""images/pattern_4.png"" style=""width: 234px; height: 230px; margin-top: -50px;""><div style=""display: flex; justify-content: space-between; margin-top: 33px;""><img src=""images/choice_trial_7.png"" style=""width: 408px; height: 417px; margin-right: 200px;""><img src=""images/choice_trial_8.png"" style=""width: 408px; height: 417px;""></div></div>",f,delaylearn,learning,trial,VBWkO9W60aNEOjxBq3p6UyQsCky1,VBWkO9W60aNEOjxBq3p6UyQsCky1,1.0,images/choice_trial_7.png,images/choice_trial_8.png,images/pattern_4.png,f,f,7000.0,7.0,8.0,3.0,0.0,9.0,1.0,1.0,7.0,60.0,,,,,,6173c5b0aa4bc2370fd2c1f2,09:09:30,27/02/2024
html-keyboard-response,48,89762,0.0-22.0-1.0,,"<div style=""display: flex; flex-direction: column; align-items: center; margin-top: -40px;""><img src=""images/pattern_4.png"" style=""width: 234px; height: 230px; margin-top: -50px;""><div style=""display: flex; justify-content: space-between; margin-top: 33px;""><img src=""images/choice_trial_7.png"" style=""width: 408px; height: 417px; margin-right: 608px;""></div></div>",,delaylearn,learning,display_response,VBWkO9W60aNEOjxBq3p6UyQsCky1,VBWkO9W60aNEOjxBq3p6UyQsCky1,,,,,,,,,,,,,,,,,chosen stimuli: images/choice_trial_7.png,,,,,6173c5b0aa4bc2370fd2c1f2,09:09:30,27/02/2024
html-keyboard-response,49,96768,0.0-22.0-2.0,,,,delaylearn,learning,feedback_duration_window,VBWkO9W60aNEOjxBq3p6UyQsCky1,VBWkO9W60aNEOjxBq3p6UyQsCky1,,,,,,,,,,,,,,,,,,7000.0,,,,6173c5b0aa4bc2370fd2c1f2,09:09:30,27/02/2024
html-keyboard-response,50,98272,0.0-22.0-3.0,,<div style='margin:auto;width: auto; font-size: 150%'><span style='font-weight: bold; font-size: 100px; color: green;'>+10 points!</span><br><br></div>,,delaylearn,learning,feedback_image_window,VBWkO9W60aNEOjxBq3p6UyQsCky1,VBWkO9W60aNEOjxBq3p6UyQsCky1,,,,,,,,,,,,,,,,,,,,,,6173c5b0aa4bc2370fd2c1f2,09:09:30,27/02/2024
html-keyboard-response,51,100426,0.0-23.0,,"<div style=""font-size:100px;"">+</div>",,delaylearn,learning,ITI,VBWkO9W60aNEOjxBq3p6UyQsCky1,VBWkO9W60aNEOjxBq3p6UyQsCky1,,,,,,,,,,,,,,,,,,,2141.0,,,6173c5b0aa4bc2370fd2c1f2,09:09:30,27/02/2024
html-keyboard-response,52,100861,0.0-24.0-0.0,433.4000000357628,"<div style=""display: flex; flex-direction: column; align-items: center; margin-top: -40px;""><img src=""images/pattern_5.png"" style=""width: 234px; height: 230px; margin-top: -50px;""><div style=""display: flex; justify-content: space-between; margin-top: 33px;""><img src=""images/choice_trial_10.png"" style=""width: 408px; height: 417px; margin-right: 200px;""><img src=""images/choice_trial_9.png"" style=""width: 408px; height: 417px;""></div></div>",j,delaylearn,learning,trial,VBWkO9W60aNEOjxBq3p6UyQsCky1,VBWkO9W60aNEOjxBq3p6UyQsCky1,1.0,images/choice_trial_10.png,images/choice_trial_9.png,images/pattern_5.png,j,j,750.0,10.0,9.0,4.0,1.0,10.0,1.0,1.0,9.0,70.0,,,,,,6173c5b0aa4bc2370fd2c1f2,09:09:30,27/02/2024
html-keyboard-response,53,101883,0.0-24.0-1.0,,"<div style=""display: flex; flex-direction: column; align-items: center; margin-top: -40px;""><img src=""images/pattern_5.png"" style=""width: 234px; height: 230px; margin-top: -50px;""><div style=""display: flex; justify-content: space-between; margin-top: 33px;""><img src=""images/choice_trial_9.png"" style=""width: 408px; height: 417px; margin-left:608px;""></div></div>",,delaylearn,learning,display_response,VBWkO9W60aNEOjxBq3p6UyQsCky1,VBWkO9W60aNEOjxBq3p6UyQsCky1,,,,,,,,,,,,,,,,,chosen stimuli: images/choice_trial_9.png,,,,,6173c5b0aa4bc2370fd2c1f2,09:09:30,27/02/2024
html-keyboard-response,54,102648,0.0-24.0-2.0,,,,delaylearn,learning,feedback_duration_window,VBWkO9W60aNEOjxBq3p6UyQsCky1,VBWkO9W60aNEOjxBq3p6UyQsCky1,,,,,,,,,,,,,,,,,,750.0,,,,6173c5b0aa4bc2370fd2c1f2,09:09:30,27/02/2024
html-keyboard-response,55,104152,0.0-24.0-3.0,,<div style='margin:auto;width: auto; font-size: 150%'><span style='font-weight: bold; font-size: 100px; color: green;'>+10 points!</span><br><br></div>,,delaylearn,learning,feedback_image_window,VBWkO9W60aNEOjxBq3p6UyQsCky1,VBWkO9W60aNEOjxBq3p6UyQsCky1,,,,,,,,,,,,,,,,,,,,,,6173c5b0aa4bc2370fd2c1f2,09:09:30,27/02/2024
html-keyboard-response,56,106143,0.0-25.0,,"<div style=""font-size:100px;"">+</div>",,delaylearn,learning,ITI,VBWkO9W60aNEOjxBq3p6UyQsCky1,VBWkO9W60aNEOjxBq3p6UyQsCky1,,,,,,,,,,,,,,,,,,,1985.0,,,6173c5b0aa4bc2370fd2c1f2,09:09:30,27/02/2024
html-keyboard-response,57,106858,0.0-26.0-0.0,712.8000000119209,"<div style=""display: flex; flex-direction: column; align-items: center; margin-top: -40px;""><img src=""images/pattern_6.png"" style=""width: 234px; height: 230px; margin-top: -50px;""><div style=""display: flex; justify-content: space-between; margin-top: 33px;""><img src=""images/choice_trial_11.png"" style=""width: 408px; height: 417px; margin-right: 200px;""><img src=""images/choice_trial_12.png"" style=""width: 408px; height: 417px;""></div></div>",j,delaylearn,learning,trial,VBWkO9W60aNEOjxBq3p6UyQsCky1,VBWkO9W60aNEOjxBq3p6UyQsCky1,1.0,images/choice_trial_11.png,images/choice_trial_12.png,images/pattern_6.png,j,f,750.0,11.0,12.0,5.0,0.0,11.0,0.0,1.0,12.0,80.0,,,,,,6173c5b0aa4bc2370fd2c1f2,09:09:30,27/02/2024
html-keyboard-response,58,107864,0.0-26.0-1.0,,"<div style=""display: flex; flex-direction: column; align-items: center; margin-top: -40px;""><img src=""images/pattern_6.png"" style=""width: 234px; height: 230px; margin-top: -50px;""><div style=""display: flex; justify-content: space-between; margin-top: 33px;""><img src=""images/choice_trial_12.png"" style=""width: 408px; height: 417px; margin-left:608px;""></div></div>",,delaylearn,learning,display_response,VBWkO9W60aNEOjxBq3p6UyQsCky1,VBWkO9W60aNEOjxBq3p6UyQsCky1,,,,,,,,,,,,,,,,,chosen stimuli: images/choice_trial_12.png,,,,,6173c5b0aa4bc2370fd2c1f2,09:09:30,27/02/2024
html-keyboard-response,59,108619,0.0-26.0-2.0,,,,delaylearn,learning,feedback_duration_window,VBWkO9W60aNEOjxBq3p6UyQsCky1,VBWkO9W60aNEOjxBq3p6UyQsCky1,,,,,,,,,,,,,,,,,,750.0,,,,6173c5b0aa4bc2370fd2c1f2,09:09:30,27/02/2024
html-keyboard-response,60,110122,0.0-26.0-3.0,,<div style='margin:auto;width: auto; font-size: 150%'><span style='font-weight: bold; font-size: 100px; color: green;'>+10 points!</span><br><br></div>,,delaylearn,learning,feedback_image_window,VBWkO9W60aNEOjxBq3p6UyQsCky1,VBWkO9W60aNEOjxBq3p6UyQsCky1,,,,,,,,,,,,,,,,,,,,,,6173c5b0aa4bc2370fd2c1f2,09:09:30,27/02/2024
html-keyboard-response,61,110639,0.0-27.0-0.0,,,,,,mood_trial_fixation,VBWkO9W60aNEOjxBq3p6UyQsCky1,,,,,,,,,,,,,,,,,,,,,,,6173c5b0aa4bc2370fd2c1f2,09:09:30,27/02/2024
lmdlab-html-vas-response,62,113735,0.0-27.0-1.0,2090.0,How happy are you right now?,0.7507956704600925,delaylearn,learning,mood_trial,VBWkO9W60aNEOjxBq3p6UyQsCky1,VBWkO9W60aNEOjxBq3p6UyQsCky1,,,,,,,,,,,,,,,,,,,,"['Very unhappy', 'Very happy']",,6173c5b0aa4bc2370fd2c1f2,09:09:30,27/02/2024
html-keyboard-response,63,115852,0.0-28.0,,"<div style=""font-size:100px;"">+</div>",,delaylearn,learning,ITI,VBWkO9W60aNEOjxBq3p6UyQsCky1,VBWkO9W60aNEOjxBq3p6UyQsCky1,,,,,,,,,,,,,,,,,,,2110.0,,,6173c5b0aa4bc2370fd2c1f2,09:09:30,27/02/2024
html-keyboard-response,64,116632,0.0-29.0-0.0,776.7999999523163,"<div style=""display: flex; flex-direction: column; align-items: center; margin-top: -40px;""><img src=""images/pattern_1.png"" style=""width: 234px; height: 230px; margin-top: -50px;""><div style=""display: flex; justify-content: space-between; margin-top: 33px;""><img src=""images/choice_trial_2.png"" style=""width: 408px; height: 417px; margin-right: 200px;""><img src=""images/choice_trial_1.png"" style=""width: 408px; height: 417px;""></div></div>",f,delaylearn,learning,trial,VBWkO9W60aNEOjxBq3p6UyQsCky1,VBWkO9W60aNEOjxBq3p6UyQsCky1,1.0,images/choice_trial_2.png,images/choice_trial_1.png,images/pattern_1.png,j,j,7000.0,2.0,1.0,1.0,1.0,12.0,0.0,0.0,2.0,80.0,,,,,,6173c5b0aa4bc2370fd2c1f2,09:09:30,27/02/2024
html-keyboard-response,65,117644,0.0-29.0-1.0,,"<div style=""display: flex; flex-direction: column; align-items: center; margin-top: -40px;""><img src=""images/pattern_1.png"" style=""width: 234px; height: 230px; margin-top: -50px;""><div style=""display: flex; justify-content: space-between; margin-top: 33px;""><img src=""images/choice_trial_2.png"" style=""width: 408px; height: 417px; margin-right: 608px;""></div></div>",,delaylearn,learning,display_response,VBWkO9W60aNEOjxBq3p6UyQsCky1,VBWkO9W60aNEOjxBq3p6UyQsCky1,,,,,,,,,,,,,,,,,chosen stimuli: images/choice_trial_2.png,,,,,6173c5b0aa4bc2370fd2c1f2,09:09:30,27/02/2024
html-keyboard-response,66,124649,0.0-29.0-2.0,,,,delaylearn,learning,feedback_duration_window,VBWkO9W60aNEOjxBq3p6UyQsCky1,VBWkO9W60aNEOjxBq3p6UyQsCky1,,,,,,,,,,,,,,,,,,7000.0,,,,6173c5b0aa4bc2370fd2c1f2,09:09:30,27/02/2024
html-keyboard-response,67,126154,0.0-29.0-3.0,,<div style='margin:auto;width: auto; font-size: 150%'><span style='font-weight: bold; font-size: 100px; color: red;'>0 points!</span><br><br></div>,,delaylearn,learning,feedback_image_window,VBWkO9W60aNEOjxBq3p6UyQsCky1,VBWkO9W60aNEOjxBq3p6UyQsCky1,,,,,,,,,,,,,,,,,,,,,,6173c5b0aa4bc2370fd2c1f2,09:09:30,27/02/2024
html-keyboard-response,68,128222,0.0-30.0,,"<div style=""font-size:100px;"">+</div>",,delaylearn,learning,ITI,VBWkO9W60aNEOjxBq3p6UyQsCky1,VBWkO9W60aNEOjxBq3p6UyQsCky1,,,,,,,,,,,,,,,,,,,2065.0,,,6173c5b0aa4bc2370fd2c1f2,09:09:30,27/02/2024
html-keyboard-response,69,128517,0.0-31.0-0.0,292.4000000357628,"<div style=""display: flex; flex-direction: column; align-items: center; margin-top: -40px;""><img src=""images/pattern_3.png"" style=""width: 234px; height: 230px; margin-top: -50px;""><div style=""display: flex; justify-content: space-between; margin-top: 33px;""><img src=""images/choice_trial_6.png"" style=""width: 408px; height: 417px; margin-right: 200px;""><img src=""images/choice_trial_5.png"" style=""width: 408px; height: 417px;""></div></div>",f,delaylearn,learning,trial,VBWkO9W60aNEOjxBq3p6UyQsCky1,VBWkO9W60aNEOjxBq3p6UyQsCky1,1.0,images/choice_trial_6.png,images/choice_trial_5.png,images/pattern_3.png,f,j,7000.0,6.0,5.0,2.0,1.0,13.0,0.0,1.0,6.0,90.0,,,,,,6173c5b0aa4bc2370fd2c1f2,09:09:30,27/02/2024
html-keyboard-response,70,129526,0.0-31.0-1.0,,"<div style=""display: flex; flex-direction: column; align-items: center; margin-top: -40px;""><img src=""images/pattern_3.png"" style=""width: 234px; height: 230px; margin-top: -50px;""><div style=""display: flex; justify-content: space-between; margin-top: 33px;""><img src=""images/choice_trial_6.png"" style=""width: 408px; height: 417px; margin-right: 608px;""></div></div>",,delaylearn,learning,display_response,VBWkO9W60aNEOjxBq3p6UyQsCky1,VBWkO9W60aNEOjxBq3p6UyQsCky1,,,,,,,,,,,,,,,,,chosen stimuli: images/choice_trial_6.png,,,,,6173c5b0aa4bc2370fd2c1f2,09:09:30,27/02/2024
html-keyboard-response,71,136528,0.0-31.0-2.0,,,,delaylearn,learning,feedback_duration_window,VBWkO9W60aNEOjxBq3p6UyQsCky1,VBWkO9W60aNEOjxBq3p6UyQsCky1,,,,,,,,,,,,,,,,,,7000.0,,,,6173c5b0aa4bc2370fd2c1f2,09:09:30,27/02/2024
html-keyboard-response,72,138042,0.0-31.0-3.0,,<div style='margin:auto;width: auto; font-size: 150%'><span style='font-weight: bold; font-size: 100px; color: green;'>+10 points!</span><br><br></div>,,delaylearn,learning,feedback_image_window,VBWkO9W60aNEOjxBq3p6UyQsCky1,VBWkO9W60aNEOjxBq3p6UyQsCky1,,,,,,,,,,,,,,,,,,,,,,6173c5b0aa4bc2370fd2c1f2,09:09:30,27/02/2024
html-keyboard-response,73,139858,0.0-32.0,,"<div style=""font-size:100px;"">+</div>",,delaylearn,learning,ITI,VBWkO9W60aNEOjxBq3p6UyQsCky1,VBWkO9W60aNEOjxBq3p6UyQsCky1,,,,,,,,,,,,,,,,,,,1811.0,,,6173c5b0aa4bc2370fd2c1f2,09:09:30,27/02/2024
html-keyboard-response,74,140231,0.0-33.0-0.0,370.7000000476837,"<div style=""display: flex; flex-direction: column; align-items: center; margin-top: -40px;""><img src=""images/pattern_5.png"" style=""width: 234px; height: 230px; margin-top: -50px;""><div style=""display: flex; justify-content: space-between; margin-top: 33px;""><img src=""images/choice_trial_9.png"" style=""width: 408px; height: 417px; margin-right: 200px;""><img src=""images/choice_trial_10.png"" style=""width: 408px; height: 417px;""></div></div>",j,delaylearn,learning,trial,VBWkO9W60aNEOjxBq3p6UyQsCky1,VBWkO9W60aNEOjxBq3p6UyQsCky1,1.0,images/choice_trial_9.png,images/choice_trial_10.png,images/pattern_5.png,f,f,750.0,9.0,10.0,4.0,0.0,14.0,0.0,0.0,10.0,90.0,,,,,,6173c5b0aa4bc2370fd2c1f2,09:09:30,27/02/2024
html-keyboard-response,75,141247,0.0-33.0-1.0,,"<div style=""display: flex; flex-direction: column; align-items: center; margin-top: -40px;""><img src=""images/pattern_5.png"" style=""width: 234px; height: 230px; margin-top: -50px;""><div style=""display: flex; justify-content: space-between; margin-top: 33px;""><img src=""images/choice_trial_10.png"" style=""width: 408px; height: 417px; margin-left:608px;""></div></div>",,delaylearn,learning,display_response,VBWkO9W60aNEOjxBq3p6UyQsCky1,VBWkO9W60aNEOjxBq3p6UyQsCky1,,,,,,,,,,,,,,,,,chosen stimuli: images/choice_trial_10.png,,,,,6173c5b0aa4bc2370fd2c1f2,09:09:30,27/02/2024
html-keyboard-response,76,142003,0.0-33.0-2.0,,,,delaylearn,learning,feedback_duration_window,VBWkO9W60aNEOjxBq3p6UyQsCky1,VBWkO9W60aNEOjxBq3p6UyQsCky1,,,,,,,,,,,,,,,,,,750.0,,,,6173c5b0aa4bc2370fd2c1f2,09:09:30,27/02/2024
html-keyboard-response,77,143508,0.0-33.0-3.0,,<div style='margin:auto;width: auto; font-size: 150%'><span style='font-weight: bold; font-size: 100px; color: red;'>0 points!</span><br><br></div>,,delaylearn,learning,feedback_image_window,VBWkO9W60aNEOjxBq3p6UyQsCky1,VBWkO9W60aNEOjxBq3p6UyQsCky1,,,,,,,,,,,,,,,,,,,,,,6173c5b0aa4bc2370fd2c1f2,09:09:30,27/02/2024
html-keyboard-response,78,144011,0.0-34.0-0.0,,,,,,mood_trial_fixation,VBWkO9W60aNEOjxBq3p6UyQsCky1,,,,,,,,,,,,,,,,,,,,,,,6173c5b0aa4bc2370fd2c1f2,09:09:30,27/02/2024
lmdlab-html-vas-response,79,147814,0.0-34.0-1.0,2784.0,How happy are you right now?,0.804808013595392,delaylearn,learning,mood_trial,VBWkO9W60aNEOjxBq3p6UyQsCky1,VBWkO9W60aNEOjxBq3p6UyQsCky1,,,,,,,,,,,,,,,,,,,,"['Very unhappy', 'Very happy']",,6173c5b0aa4bc2370fd2c1f2,09:09:30,27/02/2024
html-keyboard-response,80,150000,0.0-35.0,,"<div style=""font-size:100px;"">+</div>",,delaylearn,learning,ITI,VBWkO9W60aNEOjxBq3p6UyQsCky1,VBWkO9W60aNEOjxBq3p6UyQsCky1,,,,,,,,,,,,,,,,,,,2172.0,,,6173c5b0aa4bc2370fd2c1f2,09:09:30,27/02/2024
html-keyboard-response,81,150479,0.0-36.0-0.0,477.0,"<div style=""display: flex; flex-direction: column; align-items: center; margin-top: -40px;""><img src=""images/pattern_6.png"" style=""width: 234px; height: 230px; margin-top: -50px;""><div style=""display: flex; justify-content: space-between; margin-top: 33px;""><img src=""images/choice_trial_11.png"" style=""width: 408px; height: 417px; margin-right: 200px;""><img src=""images/choice_trial_12.png"" style=""width: 408px; height: 417px;""></div></div>",j,delaylearn,learning,trial,VBWkO9W60aNEOjxBq3p6UyQsCky1,VBWkO9W60aNEOjxBq3p6UyQsCky1,1.0,images/choice_trial_11.png,images/choice_trial_12.png,images/pattern_6.png,f,f,750.0,11.0,12.0,5.0,0.0,15.0,0.0,0.0,12.0,90.0,,,,,,6173c5b0aa4bc2370fd2c1f2,09:09:30,27/02/2024
html-keyboard-response,82,151495,0.0-36.0-1.0,,"<div style=""display: flex; flex-direction: column; align-items: center; margin-top: -40px;""><img src=""images/pattern_6.png"" style=""width: 234px; height: 230px; margin-top: -50px;""><div style=""display: flex; justify-content: space-between; margin-top: 33px;""><img src=""images/choice_trial_12.png"" style=""width: 408px; height: 417px; margin-left:608px;""></div></div>",,delaylearn,learning,display_response,VBWkO9W60aNEOjxBq3p6UyQsCky1,VBWkO9W60aNEOjxBq3p6UyQsCky1,,,,,,,,,,,,,,,,,chosen stimuli: images/choice_trial_12.png,,,,,6173c5b0aa4bc2370fd2c1f2,09:09:30,27/02/2024
html-keyboard-response,83,152250,0.0-36.0-2.0,,,,delaylearn,learning,feedback_duration_window,VBWkO9W60aNEOjxBq3p6UyQsCky1,VBWkO9W60aNEOjxBq3p6UyQsCky1,,,,,,,,,,,,,,,,,,750.0,,,,6173c5b0aa4bc2370fd2c1f2,09:09:30,27/02/2024
html-keyboard-response,84,153755,0.0-36.0-3.0,,<div style='margin:auto;width: auto; font-size: 150%'><span style='font-weight: bold; font-size: 100px; color: red;'>0 points!</span><br><br></div>,,delaylearn,learning,feedback_image_window,VBWkO9W60aNEOjxBq3p6UyQsCky1,VBWkO9W60aNEOjxBq3p6UyQsCky1,,,,,,,,,,,,,,,,,,,,,,6173c5b0aa4bc2370fd2c1f2,09:09:30,27/02/2024
html-keyboard-response,85,156045,0.0-37.0,,"<div style=""font-size:100px;"">+</div>",,delaylearn,learning,ITI,VBWkO9W60aNEOjxBq3p6UyQsCky1,VBWkO9W60aNEOjxBq3p6UyQsCky1,,,,,,,,,,,,,,,,,,,2279.0,,,6173c5b0aa4bc2370fd2c1f2,09:09:30,27/02/2024
html-keyboard-response,86,156407,0.0-38.0-0.0,359.80000001192093,"<div style=""display: flex; flex-direction: column; align-items: center; margin-top: -40px;""><img src=""images/pattern_4.png"" style=""width: 234px; height: 230px; margin-top: -50px;""><div style=""display: flex; justify-content: space-between; margin-top: 33px;""><img src=""images/choice_trial_8.png"" style=""width: 408px; height: 417px; margin-right: 200px;""><img src=""images/choice_trial_7.png"" style=""width: 408px; height: 417px;""></div></div>",f,delaylearn,learning,trial,VBWkO9W60aNEOjxBq3p6UyQsCky1,VBWkO9W60aNEOjxBq3p6UyQsCky1,1.0,images/choice_trial_8.png,images/choice_trial_7.png,images/pattern_4.png,j,j,7000.0,8.0,7.0,3.0,1.0,16.0,0.0,0.0,8.0,90.0,,,,,,6173c5b0aa4bc2370fd2c1f2,09:09:30,27/02/2024
html-keyboard-response,87,157410,0.0-38.0-1.0,,"<div style=""display: flex; flex-direction: column; align-items: center; margin-top: -40px;""><img src=""images/pattern_4.png"" style=""width: 234px; height: 230px; margin-top: -50px;""><div style=""display: flex; justify-content: space-between; margin-top: 33px;""><img src=""images/choice_trial_8.png"" style=""width: 408px; height: 417px; margin-right: 608px;""></div></div>",,delaylearn,learning,display_response,VBWkO9W60aNEOjxBq3p6UyQsCky1,VBWkO9W60aNEOjxBq3p6UyQsCky1,,,,,,,,,,,,,,,,,chosen stimuli: images/choice_trial_8.png,,,,,6173c5b0aa4bc2370fd2c1f2,09:09:30,27/02/2024
html-keyboard-response,88,164424,0.0-38.0-2.0,,,,delaylearn,learning,feedback_duration_window,VBWkO9W60aNEOjxBq3p6UyQsCky1,VBWkO9W60aNEOjxBq3p6UyQsCky1,,,,,,,,,,,,,,,,,,7000.0,,,,6173c5b0aa4bc2370fd2c1f2,09:09:30,27/02/2024
html-keyboard-response,89,165928,0.0-38.0-3.0,,<div style='margin:auto;width: auto; font-size: 150%'><span style='font-weight: bold; font-size: 100px; color: red;'>0 points!</span><br><br></div>,,delaylearn,learning,feedback_image_window,VBWkO9W60aNEOjxBq3p6UyQsCky1,VBWkO9W60aNEOjxBq3p6UyQsCky1,,,,,,,,,,,,,,,,,,,,,,6173c5b0aa4bc2370fd2c1f2,09:09:30,27/02/2024
html-keyboard-response,90,167899,0.0-39.0,,"<div style=""font-size:100px;"">+</div>",,delaylearn,learning,ITI,VBWkO9W60aNEOjxBq3p6UyQsCky1,VBWkO9W60aNEOjxBq3p6UyQsCky1,,,,,,,,,,,,,,,,,,,1959.0,,,6173c5b0aa4bc2370fd2c1f2,09:09:30,27/02/2024
html-keyboard-response,91,167960,0.0-40.0-0.0,57.69999998807907,"<div style=""display: flex; flex-direction: column; align-items: center; margin-top: -40px;""><img src=""images/pattern_7.png"" style=""width: 234px; height: 230px; margin-top: -50px;""><div style=""display: flex; justify-content: space-between; margin-top: 33px;""><img src=""images/choice_trial_13.png"" style=""width: 408px; height: 417px; margin-right: 200px;""><img src=""images/choice_trial_14.png"" style=""width: 408px; height: 417px;""></div></div>",f,delaylearn,learning,trial,VBWkO9W60aNEOjxBq3p6UyQsCky1,VBWkO9W60aNEOjxBq3p6UyQsCky1,1.0,images/choice_trial_13.png,images/choice_trial_14.png,images/pattern_7.png,j,f,750.0,13.0,14.0,6.0,0.0,17.0,1.0,0.0,13.0,90.0,,,,,,6173c5b0aa4bc2370fd2c1f2,09:09:30,27/02/2024
html-keyboard-response,92,168971,0.0-40.0-1.0,,"<div style=""display: flex; flex-direction: column; align-items: center; margin-top: -40px;""><img src=""images/pattern_7.png"" style=""width: 234px; height: 230px; margin-top: -50px;""><div style=""display: flex; justify-content: space-between; margin-top: 33px;""><img src=""images/choice_trial_13.png"" style=""width: 408px; height: 417px; margin-right: 608px;""></div></div>",,delaylearn,learning,display_response,VBWkO9W60aNEOjxBq3p6UyQsCky1,VBWkO9W60aNEOjxBq3p6UyQsCky1,,,,,,,,,,,,,,,,,chosen stimuli: images/choice_trial_13.png,,,,,6173c5b0aa4bc2370fd2c1f2,09:09:30,27/02/2024
html-keyboard-response,93,169747,0.0-40.0-2.0,,,,delaylearn,learning,feedback_duration_window,VBWkO9W60aNEOjxBq3p6UyQsCky1,VBWkO9W60aNEOjxBq3p6UyQsCky1,,,,,,,,,,,,,,,,,,750.0,,,,6173c5b0aa4bc2370fd2c1f2,09:09:30,27/02/2024
html-keyboard-response,94,171256,0.0-40.0-3.0,,<div style='margin:auto;width: auto; font-size: 150%'><span style='font-weight: bold; font-size: 100px; color: red;'>0 points!</span><br><br></div>,,delaylearn,learning,feedback_image_window,VBWkO9W60aNEOjxBq3p6UyQsCky1,VBWkO9W60aNEOjxBq3p6UyQsCky1,,,,,,,,,,,,,,,,,,,,,,6173c5b0aa4bc2370fd2c1f2,09:09:30,27/02/2024
html-keyboard-response,95,173347,0.0-41.0,,"<div style=""font-size:100px;"">+</div>",,delaylearn,learning,ITI,VBWkO9W60aNEOjxBq3p6UyQsCky1,VBWkO9W60aNEOjxBq3p6UyQsCky1,,,,,,,,,,,,,,,,,,,2084.0,,,6173c5b0aa4bc2370fd2c1f2,09:09:30,27/02/2024
html-keyboard-response,96,173610,0.0-42.0-0.0,260.5,"<div style=""display: flex; flex-direction: column; align-items: center; margin-top: -40px;""><img src=""images/pattern_1.png"" style=""width: 234px; height: 230px; margin-top: -50px;""><div style=""display: flex; justify-content: space-between; margin-top: 33px;""><img src=""images/choice_trial_1.png"" style=""width: 408px; height: 417px; margin-right: 200px;""><img src=""images/choice_trial_2.png"" style=""width: 408px; height: 417px;""></div></div>",j,delaylearn,learning,trial,VBWkO9W60aNEOjxBq3p6UyQsCky1,VBWkO9W60aNEOjxBq3p6UyQsCky1,1.0,images/choice_trial_1.png,images/choice_trial_2.png,images/pattern_1.png,f,f,7000.0,1.0,2.0,1.0,0.0,18.0,0.0,0.0,2.0,90.0,,,,,,6173c5b0aa4bc2370fd2c1f2,09:09:30,27/02/2024
html-keyboard-response,97,174625,0.0-42.0-1.0,,"<div style=""display: flex; flex-direction: column; align-items: center; margin-top: -40px;""><img src=""images/pattern_1.png"" style=""width: 234px; height: 230px; margin-top: -50px;""><div style=""display: flex; justify-content: space-between; margin-top: 33px;""><img src=""images/choice_trial_2.png"" style=""width: 408px; height: 417px; margin-left:608px;""></div></div>",,delaylearn,learning,display_response,VBWkO9W60aNEOjxBq3p6UyQsCky1,VBWkO9W60aNEOjxBq3p6UyQsCky1,,,,,,,,,,,,,,,,,chosen stimuli: images/choice_trial_2.png,,,,,6173c5b0aa4bc2370fd2c1f2,09:09:30,27/02/2024
html-keyboard-response,98,181640,0.0-42.0-2.0,,,,delaylearn,learning,feedback_duration_window,VBWkO9W60aNEOjxBq3p6UyQsCky1,VBWkO9W60aNEOjxBq3p6UyQsCky1,,,,,,,,,,,,,,,,,,7000.0,,,,6173c5b0aa4bc2370fd2c1f2,09:09:30,27/02/2024
html-keyboard-response,99,183143,0.0-42.0-3.0,,<div style='margin:auto;width: auto; font-size: 150%'><span style='font-weight: bold; font-size: 100px; color: red;'>0 points!</span><br><br></div>,,delaylearn,learning,feedback_image_window,VBWkO9W60aNEOjxBq3p6UyQsCky1,VBWkO9W60aNEOjxBq3p6UyQsCky1,,,,,,,,,,,,,,,,,,,,,,6173c5b0aa4bc2370fd2c1f2,09:09:30,27/02/2024
html-keyboard-response,100,185387,0.0-43.0,,"<div style=""font-size:100px;"">+</div>",,delaylearn,learning,ITI,VBWkO9W60aNEOjxBq3p6UyQsCky1,VBWkO9W60aNEOjxBq3p6UyQsCky1,,,,,,,,,,,,,,,,,,,2223.0,,,6173c5b0aa4bc2370fd2c1f2,09:09:30,27/02/2024
html-keyboard-response,101,185756,0.0-44.0-0.0,367.5,"<div style=""display: flex; flex-direction: column; align-items: center; margin-top: -40px;""><img src=""images/pattern_6.png"" style=""width: 234px; height: 230px; margin-top: -50px;""><div style=""display: flex; justify-content: space-between; margin-top: 33px;""><img src=""images/choice_trial_12.png"" style=""width: 408px; height: 417px; margin-right: 200px;""><img src=""images/choice_trial_11.png"" style=""width: 408px; height: 417px;""></div></div>",j,delaylearn,learning,trial,VBWkO9W60aNEOjxBq3p6UyQsCky1,VBWkO9W60aNEOjxBq3p6UyQsCky1,1.0,images/choice_trial_12.png,images/choice_trial_11.png,images/pattern_6.png,j,j,750.0,12.0,11.0,5.0,1.0,19.0,1.0,1.0,11.0,100.0,,,,,,6173c5b0aa4bc2370fd2c1f2,09:09:30,27/02/2024
html-keyboard-response,102,186773,0.0-44.0-1.0,,"<div style=""display: flex; flex-direction: column; align-items: center; margin-top: -40px;""><img src=""images/pattern_6.png"" style=""width: 234px; height: 230px; margin-top: -50px;""><div style=""display: flex; justify-content: space-between; margin-top: 33px;""><img src=""images/choice_trial_11.png"" style=""width: 408px; height: 417px; margin-left:608px;""></div></div>",,delaylearn,learning,display_response,VBWkO9W60aNEOjxBq3p6UyQsCky1,VBWkO9W60aNEOjxBq3p6UyQsCky1,,,,,,,,,,,,,,,,,chosen stimuli: images/choice_trial_11.png,,,,,6173c5b0aa4bc2370fd2c1f2,09:09:30,27/02/2024
html-keyboard-response,103,187526,0.0-44.0-2.0,,,,delaylearn,learning,feedback_duration_window,VBWkO9W60aNEOjxBq3p6UyQsCky1,VBWkO9W60aNEOjxBq3p6UyQsCky1,,,,,,,,,,,,,,,,,,750.0,,,,6173c5b0aa4bc2370fd2c1f2,09:09:30,27/02/2024
html-keyboard-response,104,189033,0.0-44.0-3.0,,<div style='margin:auto;width: auto; font-size: 150%'><span style='font-weight: bold; font-size: 100px; color: green;'>+10 points!</span><br><br></div>,,delaylearn,learning,feedback_image_window,VBWkO9W60aNEOjxBq3p6UyQsCky1,VBWkO9W60aNEOjxBq3p6UyQsCky1,,,,,,,,,,,,,,,,,,,,,,6173c5b0aa4bc2370fd2c1f2,09:09:30,27/02/2024
html-keyboard-response,105,191471,0.0-45.0,,"<div style=""font-size:100px;"">+</div>",,delaylearn,learning,ITI,VBWkO9W60aNEOjxBq3p6UyQsCky1,VBWkO9W60aNEOjxBq3p6UyQsCky1,,,,,,,,,,,,,,,,,,,2431.0,,,6173c5b0aa4bc2370fd2c1f2,09:09:30,27/02/2024
html-keyboard-response,106,191801,0.0-46.0-0.0,327.9000000357628,"<div style=""display: flex; flex-direction: column; align-items: center; margin-top: -40px;""><img src=""images/pattern_4.png"" style=""width: 234px; height: 230px; margin-top: -50px;""><div style=""display: flex; justify-content: space-between; margin-top: 33px;""><img src=""images/choice_trial_7.png"" style=""width: 408px; height: 417px; margin-right: 200px;""><img src=""images/choice_trial_8.png"" style=""width: 408px; height: 417px;""></div></div>",j,delaylearn,learning,trial,VBWkO9W60aNEOjxBq3p6UyQsCky1,VBWkO9W60aNEOjxBq3p6UyQsCky1,1.0,images/choice_trial_7.png,images/choice_trial_8.png,images/pattern_4.png,f,f,7000.0,7.0,8.0,3.0,0.0,20.0,0.0,0.0,8.0,100.0,,,,,,6173c5b0aa4bc2370fd2c1f2,09:09:30,27/02/2024
html-keyboard-response,107,192807,0.0-46.0-1.0,,"<div style=""display: flex; flex-direction: column; align-items: center; margin-top: -40px;""><img src=""images/pattern_4.png"" style=""width: 234px; height: 230px; margin-top: -50px;""><div style=""display: flex; justify-content: space-between; margin-top: 33px;""><img src=""images/choice_trial_8.png"" style=""width: 408px; height: 417px; margin-left:608px;""></div></div>",,delaylearn,learning,display_response,VBWkO9W60aNEOjxBq3p6UyQsCky1,VBWkO9W60aNEOjxBq3p6UyQsCky1,,,,,,,,,,,,,,,,,chosen stimuli: images/choice_trial_8.png,,,,,6173c5b0aa4bc2370fd2c1f2,09:09:30,27/02/2024
html-keyboard-response,108,199809,0.0-46.0-2.0,,,,delaylearn,learning,feedback_duration_window,VBWkO9W60aNEOjxBq3p6UyQsCky1,VBWkO9W60aNEOjxBq3p6UyQsCky1,,,,,,,,,,,,,,,,,,7000.0,,,,6173c5b0aa4bc2370fd2c1f2,09:09:30,27/02/2024
html-keyboard-response,109,201318,0.0-46.0-3.0,,<div style='margin:auto;width: auto; font-size: 150%'><span style='font-weight: bold; font-size: 100px; color: red;'>0 points!</span><br><br></div>,,delaylearn,learning,feedback_image_window,VBWkO9W60aNEOjxBq3p6UyQsCky1,VBWkO9W60aNEOjxBq3p6UyQsCky1,,,,,,,,,,,,,,,,,,,,,,6173c5b0aa4bc2370fd2c1f2,09:09:30,27/02/2024
html-keyboard-response,110,201826,0.0-47.0-0.0,,,,,,mood_trial_fixation,VBWkO9W60aNEOjxBq3p6UyQsCky1,,,,,,,,,,,,,,,,,,,,,,,6173c5b0aa4bc2370fd2c1f2,09:09:30,27/02/2024
lmdlab-html-vas-response,111,204718,0.0-47.0-1.0,1888.0,How happy are you right now?,0.6697771557571432,delaylearn,learning,mood_trial,VBWkO9W60aNEOjxBq3p6UyQsCky1,VBWkO9W60aNEOjxBq3p6UyQsCky1,,,,,,,,,,,,,,,,,,,,"['Very unhappy', 'Very happy']",,6173c5b0aa4bc2370fd2c1f2,09:09:30,27/02/2024
html-keyboard-response,112,206507,0.0-48.0,,"<div style=""font-size:100px;"">+</div>",,delaylearn,learning,ITI,VBWkO9W60aNEOjxBq3p6UyQsCky1,VBWkO9W60aNEOjxBq3p6UyQsCky1,,,,,,,,,,,,,,,,,,,1782.0,,,6173c5b0aa4bc2370fd2c1f2,09:09:30,27/02/2024
html-keyboard-response,113,207132,0.0-49.0-0.0,621.8999999761581,"<div style=""display: flex; flex-direction: column; align-items: center; margin-top: -40px;""><img src=""images/pattern_7.png"" style=""width: 234px; height: 230px; margin-top: -50px;""><div style=""display: flex; justify-content: space-between; margin-top: 33px;""><img src=""images/choice_trial_14.png"" style=""width: 408px; height: 417px; margin-right: 200px;""><img src=""images/choice_trial_13.png"" style=""width: 408px; height: 417px;""></div></div>",j,delaylearn,learning,trial,VBWkO9W60aNEOjxBq3p6UyQsCky1,VBWkO9W60aNEOjxBq3p6UyQsCky1,1.0,images/choice_trial_14.png,images/choice_trial_13.png,images/pattern_7.png,j,j,750.0,14.0,13.0,6.0,1.0,21.0,1.0,1.0,13.0,110.0,,,,,,6173c5b0aa4bc2370fd2c1f2,09:09:30,27/02/2024
html-keyboard-response,114,208141,0.0-49.0-1.0,,"<div style=""display: flex; flex-direction: column; align-items: center; margin-top: -40px;""><img src=""images/pattern_7.png"" style=""width: 234px; height: 230px; margin-top: -50px;""><div style=""display: flex; justify-content: space-between; margin-top: 33px;""><img src=""images/choice_trial_13.png"" style=""width: 408px; height: 417px; margin-left:608px;""></div></div>",,delaylearn,learning,display_response,VBWkO9W60aNEOjxBq3p6UyQsCky1,VBWkO9W60aNEOjxBq3p6UyQsCky1,,,,,,,,,,,,,,,,,chosen stimuli: images/choice_trial_13.png,,,,,6173c5b0aa4bc2370fd2c1f2,09:09:30,27/02/2024
html-keyboard-response,115,208896,0.0-49.0-2.0,,,,delaylearn,learning,feedback_duration_window,VBWkO9W60aNEOjxBq3p6UyQsCky1,VBWkO9W60aNEOjxBq3p6UyQsCky1,,,,,,,,,,,,,,,,,,750.0,,,,6173c5b0aa4bc2370fd2c1f2,09:09:30,27/02/2024
html-keyboard-response,116,210414,0.0-49.0-3.0,,<div style='margin:auto;width: auto; font-size: 150%'><span style='font-weight: bold; font-size: 100px; color: green;'>+10 points!</span><br><br></div>,,delaylearn,learning,feedback_image_window,VBWkO9W60aNEOjxBq3p6UyQsCky1,VBWkO9W60aNEOjxBq3p6UyQsCky1,,,,,,,,,,,,,,,,,,,,,,6173c5b0aa4bc2370fd2c1f2,09:09:30,27/02/2024
html-keyboard-response,117,212664,0.0-50.0,,"<div style=""font-size:100px;"">+</div>",,delaylearn,learning,ITI,VBWkO9W60aNEOjxBq3p6UyQsCky1,VBWkO9W60aNEOjxBq3p6UyQsCky1,,,,,,,,,,,,,,,,,,,2246.0,,,6173c5b0aa4bc2370fd2c1f2,09:09:30,27/02/2024
html-keyboard-response,118,213332,0.0-51.0-0.0,665.6999999880791,"<div style=""display: flex; flex-direction: column; align-items: center; margin-top: -40px;""><img src=""images/pattern_1.png"" style=""width: 234px; height: 230px; margin-top: -50px;""><div style=""display: flex; justify-content: space-between; margin-top: 33px;""><img src=""images/choice_trial_2.png"" style=""width: 408px; height: 417px; margin-right: 200px;""><img src=""images/choice_trial_1.png"" style=""width: 408px; height: 417px;""></div></div>",f,delaylearn,learning,trial,VBWkO9W60aNEOjxBq3p6UyQsCky1,VBWkO9W60aNEOjxBq3p6UyQsCky1,1.0,images/choice_trial_2.png,images/choice_trial_1.png,images/pattern_1.png,f,j,7000.0,2.0,1.0,1.0,1.0,22.0,0.0,1.0,2.0,120.0,,,,,,6173c5b0aa4bc2370fd2c1f2,09:09:30,27/02/2024
html-keyboard-response,119,214336,0.0-51.0-1.0,,"<div style=""display: flex; flex-direction: column; align-items: center; margin-top: -40px;""><img src=""images/pattern_1.png"" style=""width: 234px; height: 230px; margin-top: -50px;""><div style=""display: flex; justify-content: space-between; margin-top: 33px;""><img src=""images/choice_trial_2.png"" style=""width: 408px; height: 417px; margin-right: 608px;""></div></div>",,delaylearn,learning,display_response,VBWkO9W60aNEOjxBq3p6UyQsCky1,VBWkO9W60aNEOjxBq3p6UyQsCky1,,,,,,,,,,,,,,,,,chosen stimuli: images/choice_trial_2.png,,,,,6173c5b0aa4bc2370fd2c1f2,09:09:30,27/02/2024
html-keyboard-response,120,221343,0.0-51.0-2.0,,,,delaylearn,learning,feedback_duration_window,VBWkO9W60aNEOjxBq3p6UyQsCky1,VBWkO9W60aNEOjxBq3p6UyQsCky1,,,,,,,,,,,,,,,,,,7000.0,,,,6173c5b0aa4bc2370fd2c1f2,09:09:30,27/02/2024
html-keyboard-response,121,222847,0.0-51.0-3.0,,<div style='margin:auto;width: auto; font-size: 150%'><span style='font-weight: bold; font-size: 100px; color: green;'>+10 points!</span><br><br></div>,,delaylearn,learning,feedback_image_window,VBWkO9W60aNEOjxBq3p6UyQsCky1,VBWkO9W60aNEOjxBq3p6UyQsCky1,,,,,,,,,,,,,,,,,,,,,,6173c5b0aa4bc2370fd2c1f2,09:09:30,27/02/2024
html-keyboard-response,122,224722,0.0-52.0,,"<div style=""font-size:100px;"">+</div>",,delaylearn,learning,ITI,VBWkO9W60aNEOjxBq3p6UyQsCky1,VBWkO9W60aNEOjxBq3p6UyQsCky1,,,,,,,,,,,,,,,,,,,1873.0,,,6173c5b0aa4bc2370fd2c1f2,09:09:30,27/02/2024
html-keyboard-response,123,225012,0.0-53.0-0.0,287.10000002384186,"<div style=""display: flex; flex-direction: column; align-items: center; margin-top: -40px;""><img src=""images/pattern_5.png"" style=""width: 234px; height: 230px; margin-top: -50px;""><div style=""display: flex; justify-content: space-between; margin-top: 33px;""><img src=""images/choice_trial_10.png"" style=""width: 408px; height: 417px; margin-right: 200px;""><img src=""images/choice_trial_9.png"" style=""width: 408px; height: 417px;""></div></div>",f,delaylearn,learning,trial,VBWkO9W60aNEOjxBq3p6UyQsCky1,VBWkO9W60aNEOjxBq3p6UyQsCky1,1.0,images/choice_trial_10.png,images/choice_trial_9.png,images/pattern_5.png,j,j,750.0,10.0,9.0,4.0,1.0,23.0,0.0,0.0,10.0,120.0,,,,,,6173c5b0aa4bc2370fd2c1f2,09:09:30,27/02/2024
html-keyboard-response,124,226026,0.0-53.0-1.0,,"<div style=""display: flex; flex-direction: column; align-items: center; margin-top: -40px;""><img src=""images/pattern_5.png"" style=""width: 234px; height: 230px; margin-top: -50px;""><div style=""display: flex; justify-content: space-between; margin-top: 33px;""><img src=""images/choice_trial_10.png"" style=""width: 408px; height: 417px; margin-right: 608px;""></div></div>",,delaylearn,learning,display_response,VBWkO9W60aNEOjxBq3p6UyQsCky1,VBWkO9W60aNEOjxBq3p6UyQsCky1,,,,,,,,,,,,,,,,,chosen stimuli: images/choice_trial_10.png,,,,,6173c5b0aa4bc2370fd2c1f2,09:09:30,27/02/2024
html-keyboard-response,125,226791,0.0-53.0-2.0,,,,delaylearn,learning,feedback_duration_window,VBWkO9W60aNEOjxBq3p6UyQsCky1,VBWkO9W60aNEOjxBq3p6UyQsCky1,,,,,,,,,,,,,,,,,,750.0,,,,6173c5b0aa4bc2370fd2c1f2,09:09:30,27/02/2024
html-keyboard-response,126,228297,0.0-53.0-3.0,,<div style='margin:auto;width: auto; font-size: 150%'><span style='font-weight: bold; font-size: 100px; color: red;'>0 points!</span><br><br></div>,,delaylearn,learning,feedback_image_window,VBWkO9W60aNEOjxBq3p6UyQsCky1,VBWkO9W60aNEOjxBq3p6UyQsCky1,,,,,,,,,,,,,,,,,,,,,,6173c5b0aa4bc2370fd2c1f2,09:09:30,27/02/2024
html-keyboard-response,127,229818,0.0-54.0,,"<div style=""font-size:100px;"">+</div>",,delaylearn,learning,ITI,VBWkO9W60aNEOjxBq3p6UyQsCky1,VBWkO9W60aNEOjxBq3p6UyQsCky1,,,,,,,,,,,,,,,,,,,1514.0,,,6173c5b0aa4bc2370fd2c1f2,09:09:30,27/02/2024
html-keyboard-response,128,230376,0.0-55.0-0.0,555.0,"<div style=""display: flex; flex-direction: column; align-items: center; margin-top: -40px;""><img src=""images/pattern_3.png"" style=""width: 234px; height: 230px; margin-top: -50px;""><div style=""display: flex; justify-content: space-between; margin-top: 33px;""><img src=""images/choice_trial_6.png"" style=""width: 408px; height: 417px; margin-right: 200px;""><img src=""images/choice_trial_5.png"" style=""width: 408px; height: 417px;""></div></div>",j,delaylearn,learning,trial,VBWkO9W60aNEOjxBq3p6UyQsCky1,VBWkO9W60aNEOjxBq3p6UyQsCky1,1.0,images/choice_trial_6.png,images/choice_trial_5.png,images/pattern_3.png,j,j,7000.0,6.0,5.0,2.0,1.0,24.0,1.0,1.0,5.0,130.0,,,,,,6173c5b0aa4bc2370fd2c1f2,09:09:30,27/02/2024
html-keyboard-response,129,231389,0.0-55.0-1.0,,"<div style=""display: flex; flex-direction: column; align-items: center; margin-top: -40px;""><img src=""images/pattern_3.png"" style=""width: 234px; height: 230px; margin-top: -50px;""><div style=""display: flex; justify-content: space-between; margin-top: 33px;""><img src=""images/choice_trial_5.png"" style=""width: 408px; height: 417px; margin-left:608px;""></div></div>",,delaylearn,learning,display_response,VBWkO9W60aNEOjxBq3p6UyQsCky1,VBWkO9W60aNEOjxBq3p6UyQsCky1,,,,,,,,,,,,,,,,,chosen stimuli: images/choice_trial_5.png,,,,,6173c5b0aa4bc2370fd2c1f2,09:09:30,27/02/2024
html-keyboard-response,130,238403,0.0-55.0-2.0,,,,delaylearn,learning,feedback_duration_window,VBWkO9W60aNEOjxBq3p6UyQsCky1,VBWkO9W60aNEOjxBq3p6UyQsCky1,,,,,,,,,,,,,,,,,,7000.0,,,,6173c5b0aa4bc2370fd2c1f2,09:09:30,27/02/2024
html-keyboard-response,131,239914,0.0-55.0-3.0,,<div style='margin:auto;width: auto; font-size: 150%'><span style='font-weight: bold; font-size: 100px; color: green;'>+10 points!</span><br><br></div>,,delaylearn,learning,feedback_image_window,VBWkO9W60aNEOjxBq3p6UyQsCky1,VBWkO9W60aNEOjxBq3p6UyQsCky1,,,,,,,,,,,,,,,,,,,,,,6173c5b0aa4bc2370fd2c1f2,09:09:30,27/02/2024
lmdlab-html-vas-response,132,244347,0.0-56.0-0.0,2913.0,*How <b><u>confident</u></b> are you feeling about your answers at this moment?*,0.6504628970081237,rewlearn,rate_confidence,,VBWkO9W60aNEOjxBq3p6UyQsCky1,VBWkO9W60aNEOjxBq3p6UyQsCky1,,,,,,,,,,,,,,,,,,,,"['No confidence', 'Complete confidence']",,6173c5b0aa4bc2370fd2c1f2,09:09:30,27/02/2024
lmdlab-rest-trial-limit,133,249086,0.0-56.0-1.0,3223.600000023842,"<div style=""font-size:40px;""><b>Please take a break!</b><br><br><br><br><p>Great work: you earned undefined points.<br><br><br><p>You have completed part(s) 1 of 6.<br><br><br><br>When you are ready to continue<br><br><br>please click the button.</p><br><br>",0,delaylearn,learning,break,VBWkO9W60aNEOjxBq3p6UyQsCky1,VBWkO9W60aNEOjxBq3p6UyQsCky1,,,,,,,,,,,,,,,,,,,,,0.0,6173c5b0aa4bc2370fd2c1f2,09:09:30,27/02/2024
html-keyboard-response,134,252094,0.0-56.0-2.0,,"<div style=""font-size:100px;"">+</div>",,delaylearn,learning,pre_fixation,VBWkO9W60aNEOjxBq3p6UyQsCky1,,,,,,,,,,,,,,,,,,,,,,,6173c5b0aa4bc2370fd2c1f2,09:09:30,27/02/2024
lmdlab-html-vas-response,135,255198,0.0-56.0-3.0-0.0,2099.0,How happy are you right now?,0.8240981361437133,delaylearn,learning,mood_baseline,VBWkO9W60aNEOjxBq3p6UyQsCky1,VBWkO9W60aNEOjxBq3p6UyQsCky1,,,,,,,,,,,,,,,,,,,,"['Very unhappy', 'Very happy']",,6173c5b0aa4bc2370fd2c1f2,09:09:30,27/02/2024
html-keyboard-response,136,256709,0.0-56.0-3.0-1.0,,,,,,mood_baseline_fixation,VBWkO9W60aNEOjxBq3p6UyQsCky1,,,,,,,,,,,,,,,,,,,,,,,6173c5b0aa4bc2370fd2c1f2,09:09:30,27/02/2024
html-keyboard-response,137,258264,0.0-57.0,,"<div style=""font-size:100px;"">+</div>",,delaylearn,learning,ITI,VBWkO9W60aNEOjxBq3p6UyQsCky1,VBWkO9W60aNEOjxBq3p6UyQsCky1,,,,,,,,,,,,,,,,,,,1553.0,,,6173c5b0aa4bc2370fd2c1f2,09:09:30,27/02/2024
html-keyboard-response,138,258580,0.0-58.0-0.0,312.5999999642372,"<div style=""display: flex; flex-direction: column; align-items: center; margin-top: -40px;""><img src=""images/pattern_7.png"" style=""width: 234px; height: 230px; margin-top: -50px;""><div style=""display: flex; justify-content: space-between; margin-top: 33px;""><img src=""images/choice_trial_14.png"" style=""width: 408px; height: 417px; margin-right: 200px;""><img src=""images/choice_trial_13.png"" style=""width: 408px; height: 417px;""></div></div>",j,delaylearn,learning,trial,VBWkO9W60aNEOjxBq3p6UyQsCky1,VBWkO9W60aNEOjxBq3p6UyQsCky1,1.0,images/choice_trial_14.png,images/choice_trial_13.png,images/pattern_7.png,j,j,750.0,14.0,13.0,6.0,1.0,25.0,1.0,1.0,13.0,140.0,,,,,,6173c5b0aa4bc2370fd2c1f2,09:09:30,27/02/2024
html-keyboard-response,139,259589,0.0-58.0-1.0,,"<div style=""display: flex; flex-direction: column; align-items: center; margin-top: -40px;""><img src=""images/pattern_7.png"" style=""width: 234px; height: 230px; margin-top: -50px;""><div style=""display: flex; justify-content: space-between; margin-top: 33px;""><img src=""images/choice_trial_13.png"" style=""width: 408px; height: 417px; margin-left:608px;""></div></div>",,delaylearn,learning,display_response,VBWkO9W60aNEOjxBq3p6UyQsCky1,VBWkO9W60aNEOjxBq3p6UyQsCky1,,,,,,,,,,,,,,,,,chosen stimuli: images/choice_trial_13.png,,,,,6173c5b0aa4bc2370fd2c1f2,09:09:30,27/02/2024
html-keyboard-response,140,260360,0.0-58.0-2.0,,,,delaylearn,learning,feedback_duration_window,VBWkO9W60aNEOjxBq3p6UyQsCky1,VBWkO9W60aNEOjxBq3p6UyQsCky1,,,,,,,,,,,,,,,,,,750.0,,,,6173c5b0aa4bc2370fd2c1f2,09:09:30,27/02/2024
html-keyboard-response,141,261877,0.0-58.0-3.0,,<div style='margin:auto;width: auto; font-size: 150%'><span style='font-weight: bold; font-size: 100px; color: green;'>+10 points!</span><br><br></div>,,delaylearn,learning,feedback_image_window,VBWkO9W60aNEOjxBq3p6UyQsCky1,VBWkO9W60aNEOjxBq3p6UyQsCky1,,,,,,,,,,,,,,,,,,,,,,6173c5b0aa4bc2370fd2c1f2,09:09:30,27/02/2024
html-keyboard-response,142,262379,0.0-59.0-0.0,,,,,,mood_trial_fixation,VBWkO9W60aNEOjxBq3p6UyQsCky1,,,,,,,,,,,,,,,,,,,,,,,6173c5b0aa4bc2370fd2c1f2,09:09:30,27/02/2024
lmdlab-html-vas-response,143,265334,0.0-59.0-1.0,1951.0,How happy are you right now?,0.6717061680119754,delaylearn,learning,mood_trial,VBWkO9W60aNEOjxBq3p6UyQsCky1,VBWkO9W60aNEOjxBq3p6UyQsCky1,,,,,,,,,,,,,,,,,,,,"['Very unhappy', 'Very happy']",,6173c5b0aa4bc2370fd2c1f2,09:09:30,27/02/2024
html-keyboard-response,144,266974,0.0-60.0,,"<div style=""font-size:100px;"">+</div>",,delaylearn,learning,ITI,VBWkO9W60aNEOjxBq3p6UyQsCky1,VBWkO9W60aNEOjxBq3p6UyQsCky1,,,,,,,,,,,,,,,,,,,1637.0,,,6173c5b0aa4bc2370fd2c1f2,09:09:30,27/02/2024
html-keyboard-response,145,267671,0.0-61.0-0.0,694.5,"<div style=""display: flex; flex-direction: column; align-items: center; margin-top: -40px;""><img src=""images/pattern_1.png"" style=""width: 234px; height: 230px; margin-top: -50px;""><div style=""display: flex; justify-content: space-between; margin-top: 33px;""><img src=""images/choice_trial_1.png"" style=""width: 408px; height: 417px; margin-right: 200px;""><img src=""images/choice_trial_2.png"" style=""width: 408px; height: 417px;""></div></div>",j,delaylearn,learning,trial,VBWkO9W60aNEOjxBq3p6UyQsCky1,VBWkO9W60aNEOjxBq3p6UyQsCky1,1.0,images/choice_trial_1.png,images/choice_trial_2.png,images/pattern_1.png,f,f,7000.0,1.0,2.0,1.0,0.0,26.0,0.0,0.0,2.0,140.0,,,,,,6173c5b0aa4bc2370fd2c1f2,09:09:30,27/02/2024
html-keyboard-response,146,268679,0.0-61.0-1.0,,"<div style=""display: flex; flex-direction: column; align-items: center; margin-top: -40px;""><img src=""images/pattern_1.png"" style=""width: 234px; height: 230px; margin-top: -50px;""><div style=""display: flex; justify-content: space-between; margin-top: 33px;""><img src=""images/choice_trial_2.png"" style=""width: 408px; height: 417px; margin-left:608px;""></div></div>",,delaylearn,learning,display_response,VBWkO9W60aNEOjxBq3p6UyQsCky1,VBWkO9W60aNEOjxBq3p6UyQsCky1,,,,,,,,,,,,,,,,,chosen stimuli: images/choice_trial_2.png,,,,,6173c5b0aa4bc2370fd2c1f2,09:09:30,27/02/2024
html-keyboard-response,147,275682,0.0-61.0-2.0,,,,delaylearn,learning,feedback_duration_window,VBWkO9W60aNEOjxBq3p6UyQsCky1,VBWkO9W60aNEOjxBq3p6UyQsCky1,,,,,,,,,,,,,,,,,,7000.0,,,,6173c5b0aa4bc2370fd2c1f2,09:09:30,27/02/2024
html-keyboard-response,148,277186,0.0-61.0-3.0,,<div style='margin:auto;width: auto; font-size: 150%'><span style='font-weight: bold; font-size: 100px; color: red;'>0 points!</span><br><br></div>,,delaylearn,learning,feedback_image_window,VBWkO9W60aNEOjxBq3p6UyQsCky1,VBWkO9W60aNEOjxBq3p6UyQsCky1,,,,,,,,,,,,,,,,,,,,,,6173c5b0aa4bc2370fd2c1f2,09:09:30,27/02/2024
html-keyboard-response,149,279061,0.0-62.0,,"<div style=""font-size:100px;"">+</div>",,delaylearn,learning,ITI,VBWkO9W60aNEOjxBq3p6UyQsCky1,VBWkO9W60aNEOjxBq3p6UyQsCky1,,,,,,,,,,,,,,,,,,,1859.0,,,6173c5b0aa4bc2370fd2c1f2,09:09:30,27/02/2024
html-keyboard-response,150,279360,0.0-63.0-0.0,296.5,"<div style=""display: flex; flex-direction: column; align-items: center; margin-top: -40px;""><img src=""images/pattern_5.png"" style=""width: 234px; height: 230px; margin-top: -50px;""><div style=""display: flex; justify-content: space-between; margin-top: 33px;""><img src=""images/choice_trial_9.png"" style=""width: 408px; height: 417px; margin-right: 200px;""><img src=""images/choice_trial_10.png"" style=""width: 408px; height: 417px;""></div></div>",j,delaylearn,learning,trial,VBWkO9W60aNEOjxBq3p6UyQsCky1,VBWkO9W60aNEOjxBq3p6UyQsCky1,1.0,images/choice_trial_9.png,images/choice_trial_10.png,images/pattern_5.png,f,f,750.0,9.0,10.0,4.0,0.0,27.0,0.0,0.0,10.0,140.0,,,,,,6173c5b0aa4bc2370fd2c1f2,09:09:30,27/02/2024
html-keyboard-response,151,280371,0.0-63.0-1.0,,"<div style=""display: flex; flex-direction: column; align-items: center; margin-top: -40px;""><img src=""images/pattern_5.png"" style=""width: 234px; height: 230px; margin-top: -50px;""><div style=""display: flex; justify-content: space-between; margin-top: 33px;""><img src=""images/choice_trial_10.png"" style=""width: 408px; height: 417px; margin-left:608px;""></div></div>",,delaylearn,learning,display_response,VBWkO9W60aNEOjxBq3p6UyQsCky1,VBWkO9W60aNEOjxBq3p6UyQsCky1,,,,,,,,,,,,,,,,,chosen stimuli: images/choice_trial_10.png,,,,,6173c5b0aa4bc2370fd2c1f2,09:09:30,27/02/2024
html-keyboard-response,152,281127,0.0-63.0-2.0,,,,delaylearn,learning,feedback_duration_window,VBWkO9W60aNEOjxBq3p6UyQsCky1,VBWkO9W60aNEOjxBq3p6UyQsCky1,,,,,,,,,,,,,,,,,,750.0,,,,6173c5b0aa4bc2370fd2c1f2,09:09:30,27/02/2024
html-keyboard-response,153,282631,0.0-63.0-3.0,,<div style='margin:auto;width: auto; font-size: 150%'><span style='font-weight: bold; font-size: 100px; color: red;'>0 points!</span><br><br></div>,,delaylearn,learning,feedback_image_window,VBWkO9W60aNEOjxBq3p6UyQsCky1,VBWkO9W60aNEOjxBq3p6UyQsCky1,,,,,,,,,,,,,,,,,,,,,,6173c5b0aa4bc2370fd2c1f2,09:09:30,27/02/2024
html-keyboard-response,154,284553,0.0-64.0,,"<div style=""font-size:100px;"">+</div>",,delaylearn,learning,ITI,VBWkO9W60aNEOjxBq3p6UyQsCky1,VBWkO9W60aNEOjxBq3p6UyQsCky1,,,,,,,,,,,,,,,,,,,1908.0,,,6173c5b0aa4bc2370fd2c1f2,09:09:30,27/02/2024
html-keyboard-response,155,285188,0.0-65.0-0.0,632.0999999642372,"<div style=""display: flex; flex-direction: column; align-items: center; margin-top: -40px;""><img src=""images/pattern_6.png"" style=""width: 234px; height: 230px; margin-top: -50px;""><div style=""display: flex; justify-content: space-between; margin-top: 33px;""><img src=""images/choice_trial_12.png"" style=""width: 408px; height: 417px; margin-right: 200px;""><img src=""images/choice_trial_11.png"" style=""width: 408px; height: 417px;""></div></div>",f,delaylearn,learning,trial,VBWkO9W60aNEOjxBq3p6UyQsCky1,VBWkO9W60aNEOjxBq3p6UyQsCky1,1.0,images/choice_trial_12.png,images/choice_trial_11.png,images/pattern_6.png,j,j,750.0,12.0,11.0,5.0,1.0,28.0,0.0,0.0,12.0,140.0,,,,,,6173c5b0aa4bc2370fd2c1f2,09:09:30,27/02/2024
html-keyboard-response,156,286204,0.0-65.0-1.0,,"<div style=""display: flex; flex-direction: column; align-items: center; margin-top: -40px;""><img src=""images/pattern_6.png"" style=""width: 234px; height: 230px; margin-top: -50px;""><div style=""display: flex; justify-content: space-between; margin-top: 33px;""><img src=""images/choice_trial_12.png"" style=""width: 408px; height: 417px; margin-right: 608px;""></div></div>",,delaylearn,learning,display_response,VBWkO9W60aNEOjxBq3p6UyQsCky1,VBWkO9W60aNEOjxBq3p6UyQsCky1,,,,,,,,,,,,,,,,,chosen stimuli: images/choice_trial_12.png,,,,,6173c5b0aa4bc2370fd2c1f2,09:09:30,27/02/2024
html-keyboard-response,157,286960,0.0-65.0-2.0,,,,delaylearn,learning,feedback_duration_window,VBWkO9W60aNEOjxBq3p6UyQsCky1,VBWkO9W60aNEOjxBq3p6UyQsCky1,,,,,,,,,,,,,,,,,,750.0,,,,6173c5b0aa4bc2370fd2c1f2,09:09:30,27/02/2024
html-keyboard-response,158,288464,0.0-65.0-3.0,,<div style='margin:auto;width: auto; font-size: 150%'><span style='font-weight: bold; font-size: 100px; color: red;'>0 points!</span><br><br></div>,,delaylearn,learning,feedback_image_window,VBWkO9W60aNEOjxBq3p6UyQsCky1,VBWkO9W60aNEOjxBq3p6UyQsCky1,,,,,,,,,,,,,,,,,,,,,,6173c5b0aa4bc2370fd2c1f2,09:09:30,27/02/2024
html-keyboard-response,159,288980,0.0-66.0-0.0,,,,,,mood_trial_fixation,VBWkO9W60aNEOjxBq3p6UyQsCky1,,,,,,,,,,,,,,,,,,,,,,,6173c5b0aa4bc2370fd2c1f2,09:09:30,27/02/2024
lmdlab-html-vas-response,160,292750,0.0-66.0-1.0,2765.0,How happy are you right now?,0.6890672783054644,delaylearn,learning,mood_trial,VBWkO9W60aNEOjxBq3p6UyQsCky1,VBWkO9W60aNEOjxBq3p6UyQsCky1,,,,,,,,,,,,,,,,,,,,"['Very unhappy', 'Very happy']",,6173c5b0aa4bc2370fd2c1f2,09:09:30,27/02/2024
html-keyboard-response,161,294307,0.0-67.0,,"<div style=""font-size:100px;"">+</div>",,delaylearn,learning,ITI,VBWkO9W60aNEOjxBq3p6UyQsCky1,VBWkO9W60aNEOjxBq3p6UyQsCky1,,,,,,,,,,,,,,,,,,,1542.0,,,6173c5b0aa4bc2370fd2c1f2,09:09:30,27/02/2024
html-keyboard-response,162,294694,0.0-68.0-0.0,384.10000002384186,"<div style=""display: flex; flex-direction: column; align-items: center; margin-top: -40px;""><img src=""images/pattern_4.png"" style=""width: 234px; height: 230px; margin-top: -50px;""><div style=""display: flex; justify-content: space-between; margin-top: 33px;""><img src=""images/choice_trial_8.png"" style=""width: 408px; height: 417px; margin-right: 200px;""><img src=""images/choice_trial_7.png"" style=""width: 408px; height: 417px;""></div></div>",j,delaylearn,learning,trial,VBWkO9W60aNEOjxBq3p6UyQsCky1,VBWkO9W60aNEOjxBq3p6UyQsCky1,1.0,images/choice_trial_8.png,images/choice_trial_7.png,images/pattern_4.png,j,j,7000.0,8.0,7.0,3.0,1.0,29.0,1.0,1.0,7.0,150.0,,,,,,6173c5b0aa4bc2370fd2c1f2,09:09:30,27/02/2024
html-keyboard-response,163,295712,0.0-68.0-1.0,,"<div style=""display: flex; flex-direction: column; align-items: center; margin-top: -40px;""><img src=""images/pattern_4.png"" style=""width: 234px; height: 230px; margin-top: -50px;""><div style=""display: flex; justify-content: space-between; margin-top: 33px;""><img src=""images/choice_trial_7.png"" style=""width: 408px; height: 417px; margin-left:608px;""></div></div>",,delaylearn,learning,display_response,VBWkO9W60aNEOjxBq3p6UyQsCky1,VBWkO9W60aNEOjxBq3p6UyQsCky1,,,,,,,,,,,,,,,,,chosen stimuli: images/choice_trial_7.png,,,,,6173c5b0aa4bc2370fd2c1f2,09:09:30,27/02/2024
html-keyboard-response,164,302719,0.0-68.0-2.0,,,,delaylearn,learning,feedback_duration_window,VBWkO9W60aNEOjxBq3p6UyQsCky1,VBWkO9W60aNEOjxBq3p6UyQsCky1,,,,,,,,,,,,,,,,,,7000.0,,,,6173c5b0aa4bc2370fd2c1f2,09:09:30,27/02/2024
html-keyboard-response,165,304234,0.0-68.0-3.0,,<div style='margin:auto;width: auto; font-size: 150%'><span style='font-weight: bold; font-size: 100px; color: green;'>+10 points!</span><br><br></div>,,delaylearn,learning,feedback_image_window,VBWkO9W60aNEOjxBq3p6UyQsCky1,VBWkO9W60aNEOjxBq3p6UyQsCky1,,,,,,,,,,,,,,,,,,,,,,6173c5b0aa4bc2370fd2c1f2,09:09:30,27/02/2024
html-keyboard-response,166,306571,0.0-69.0,,"<div style=""font-size:100px;"">+</div>",,delaylearn,learning,ITI,VBWkO9W60aNEOjxBq3p6UyQsCky1,VBWkO9W60aNEOjxBq3p6UyQsCky1,,,,,,,,,,,,,,,,,,,2324.0,,,6173c5b0aa4bc2370fd2c1f2,09:09:30,27/02/2024
html-keyboard-response,167,307209,0.0-70.0-0.0,635.6999999880791,"<div style=""display: flex; flex-direction: column; align-items: center; margin-top: -40px;""><img src=""images/pattern_3.png"" style=""width: 234px; height: 230px; margin-top: -50px;""><div style=""display: flex; justify-content: space-between; margin-top: 33px;""><img src=""images/choice_trial_6.png"" style=""width: 408px; height: 417px; margin-right: 200px;""><img src=""images/choice_trial_5.png"" style=""width: 408px; height: 417px;""></div></div>",j,delaylearn,learning,trial,VBWkO9W60aNEOjxBq3p6UyQsCky1,VBWkO9W60aNEOjxBq3p6UyQsCky1,1.0,images/choice_trial_6.png,images/choice_trial_5.png,images/pattern_3.png,j,j,7000.0,6.0,5.0,2.0,1.0,30.0,1.0,1.0,5.0,160.0,,,,,,6173c5b0aa4bc2370fd2c1f2,09:09:30,27/02/2024
html-keyboard-response,168,308211,0.0-70.0-1.0,,"<div style=""display: flex; flex-direction: column; align-items: center; margin-top: -40px;""><img src=""images/pattern_3.png"" style=""width: 234px; height: 230px; margin-top: -50px;""><div style=""display: flex; justify-content: space-between; margin-top: 33px;""><img src=""images/choice_trial_5.png"" style=""width: 408px; height: 417px; margin-left:608px;""></div></div>",,delaylearn,learning,display_response,VBWkO9W60aNEOjxBq3p6UyQsCky1,VBWkO9W60aNEOjxBq3p6UyQsCky1,,,,,,,,,,,,,,,,,chosen stimuli: images/choice_trial_5.png,,,,,6173c5b0aa4bc2370fd2c1f2,09:09:30,27/02/2024
html-keyboard-response,169,315216,0.0-70.0-2.0,,,,delaylearn,learning,feedback_duration_window,VBWkO9W60aNEOjxBq3p6UyQsCky1,VBWkO9W60aNEOjxBq3p6UyQsCky1,,,,,,,,,,,,,,,,,,7000.0,,,,6173c5b0aa4bc2370fd2c1f2,09:09:30,27/02/2024
html-keyboard-response,170,316734,0.0-70.0-3.0,,<div style='margin:auto;width: auto; font-size: 150%'><span style='font-weight: bold; font-size: 100px; color: green;'>+10 points!</span><br><br></div>,,delaylearn,learning,feedback_image_window,VBWkO9W60aNEOjxBq3p6UyQsCky1,VBWkO9W60aNEOjxBq3p6UyQsCky1,,,,,,,,,,,,,,,,,,,,,,6173c5b0aa4bc2370fd2c1f2,09:09:30,27/02/2024
html-keyboard-response,171,318973,0.0-71.0,,"<div style=""font-size:100px;"">+</div>",,delaylearn,learning,ITI,VBWkO9W60aNEOjxBq3p6UyQsCky1,VBWkO9W60aNEOjxBq3p6UyQsCky1,,,,,,,,,,,,,,,,,,,2224.0,,,6173c5b0aa4bc2370fd2c1f2,09:09:30,27/02/2024
html-keyboard-response,172,319187,0.0-72.0-0.0,210.5,"<div style=""display: flex; flex-direction: column; align-items: center; margin-top: -40px;""><img src=""images/pattern_5.png"" style=""width: 234px; height: 230px; margin-top: -50px;""><div style=""display: flex; justify-content: space-between; margin-top: 33px;""><img src=""images/choice_trial_9.png"" style=""width: 408px; height: 417px; margin-right: 200px;""><img src=""images/choice_trial_10.png"" style=""width: 408px; height: 417px;""></div></div>",j,delaylearn,learning,trial,VBWkO9W60aNEOjxBq3p6UyQsCky1,VBWkO9W60aNEOjxBq3p6UyQsCky1,1.0,images/choice_trial_9.png,images/choice_trial_10.png,images/pattern_5.png,j,f,750.0,9.0,10.0,4.0,0.0,31.0,0.0,1.0,10.0,170.0,,,,,,6173c5b0aa4bc2370fd2c1f2,09:09:30,27/02/2024
html-keyboard-response,173,320208,0.0-72.0-1.0,,"<div style=""display: flex; flex-direction: column; align-items: center; margin-top: -40px;""><img src=""images/pattern_5.png"" style=""width: 234px; height: 230px; margin-top: -50px;""><div style=""display: flex; justify-content: space-between; margin-top: 33px;""><img src=""images/choice_trial_10.png"" style=""width: 408px; height: 417px; margin-left:608px;""></div></div>",,delaylearn,learning,display_response,VBWkO9W60aNEOjxBq3p6UyQsCky1,VBWkO9W60aNEOjxBq3p6UyQsCky1,,,,,,,,,,,,,,,,,chosen stimuli: images/choice_trial_10.png,,,,,6173c5b0aa4bc2370fd2c1f2,09:09:30,27/02/2024
html-keyboard-response,174,320971,0.0-72.0-2.0,,,,delaylearn,learning,feedback_duration_window,VBWkO9W60aNEOjxBq3p6UyQsCky1,VBWkO9W60aNEOjxBq3p6UyQsCky1,,,,,,,,,,,,,,,,,,750.0,,,,6173c5b0aa4bc2370fd2c1f2,09:09:30,27/02/2024
html-keyboard-response,175,322477,0.0-72.0-3.0,,<div style='margin:auto;width: auto; font-size: 150%'><span style='font-weight: bold; font-size: 100px; color: green;'>+10 points!</span><br><br></div>,,delaylearn,learning,feedback_image_window,VBWkO9W60aNEOjxBq3p6UyQsCky1,VBWkO9W60aNEOjxBq3p6UyQsCky1,,,,,,,,,,,,,,,,,,,,,,6173c5b0aa4bc2370fd2c1f2,09:09:30,27/02/2024
html-keyboard-response,176,324909,0.0-73.0,,"<div style=""font-size:100px;"">+</div>",,delaylearn,learning,ITI,VBWkO9W60aNEOjxBq3p6UyQsCky1,VBWkO9W60aNEOjxBq3p6UyQsCky1,,,,,,,,,,,,,,,,,,,2425.0,,,6173c5b0aa4bc2370fd2c1f2,09:09:30,27/02/2024
html-keyboard-response,177,325324,0.0-74.0-0.0,412.19999998807907,"<div style=""display: flex; flex-direction: column; align-items: center; margin-top: -40px;""><img src=""images/pattern_1.png"" style=""width: 234px; height: 230px; margin-top: -50px;""><div style=""display: flex; justify-content: space-between; margin-top: 33px;""><img src=""images/choice_trial_1.png"" style=""width: 408px; height: 417px; margin-right: 200px;""><img src=""images/choice_trial_2.png"" style=""width: 408px; height: 417px;""></div></div>",f,delaylearn,learning,trial,VBWkO9W60aNEOjxBq3p6UyQsCky1,VBWkO9W60aNEOjxBq3p6UyQsCky1,1.0,images/choice_trial_1.png,images/choice_trial_2.png,images/pattern_1.png,f,f,7000.0,1.0,2.0,1.0,0.0,32.0,1.0,1.0,1.0,180.0,,,,,,6173c5b0aa4bc2370fd2c1f2,09:09:30,27/02/2024
html-keyboard-response,178,326335,0.0-74.0-1.0,,"<div style=""display: flex; flex-direction: column; align-items: center; margin-top: -40px;""><img src=""images/pattern_1.png"" style=""width: 234px; height: 230px; margin-top: -50px;""><div style=""display: flex; justify-content: space-between; margin-top: 33px;""><img src=""images/choice_trial_1.png"" style=""width: 408px; height: 417px; margin-right: 608px;""></div></div>",,delaylearn,learning,display_response,VBWkO9W60aNEOjxBq3p6UyQsCky1,VBWkO9W60aNEOjxBq3p6UyQsCky1,,,,,,,,,,,,,,,,,chosen stimuli: images/choice_trial_1.png,,,,,6173c5b0aa4bc2370fd2c1f2,09:09:30,27/02/2024
html-keyboard-response,179,333343,0.0-74.0-2.0,,,,delaylearn,learning,feedback_duration_window,VBWkO9W60aNEOjxBq3p6UyQsCky1,VBWkO9W60aNEOjxBq3p6UyQsCky1,,,,,,,,,,,,,,,,,,7000.0,,,,6173c5b0aa4bc2370fd2c1f2,09:09:30,27/02/2024
html-keyboard-response,180,334849,0.0-74.0-3.0,,<div style='margin:auto;width: auto; font-size: 150%'><span style='font-weight: bold; font-size: 100px; color: green;'>+10 points!</span><br><br></div>,,delaylearn,learning,feedback_image_window,VBWkO9W60aNEOjxBq3p6UyQsCky1,VBWkO9W60aNEOjxBq3p6UyQsCky1,,,,,,,,,,,,,,,,,,,,,,6173c5b0aa4bc2370fd2c1f2,09:09:30,27/02/2024
html-keyboard-response,181,335350,0.0-75.0-0.0,,,,,,mood_trial_fixation,VBWkO9W60aNEOjxBq3p6UyQsCky1,,,,,,,,,,,,,,,,,,,,,,,6173c5b0aa4bc2370fd2c1f2,09:09:30,27/02/2024
lmdlab-html-vas-response,182,338530,0.0-75.0-1.0,2174.0,How happy are you right now?,0.7006413518344572,delaylearn,learning,mood_trial,VBWkO9W60aNEOjxBq3p6UyQsCky1,VBWkO9W60aNEOjxBq3p6UyQsCky1,,,,,,,,,,,,,,,,,,,,"['Very unhappy', 'Very happy']",,6173c5b0aa4bc2370fd2c1f2,09:09:30,27/02/2024
html-keyboard-response,183,340877,0.0-76.0,,"<div style=""font-size:100px;"">+</div>",,delaylearn,learning,ITI,VBWkO9W60aNEOjxBq3p6UyQsCky1,VBWkO9W60aNEOjxBq3p6UyQsCky1,,,,,,,,,,,,,,,,,,,2344.0,,,6173c5b0aa4bc2370fd2c1f2,09:09:30,27/02/2024
html-keyboard-response,184,341332,0.0-77.0-0.0,451.60000002384186,"<div style=""display: flex; flex-direction: column; align-items: center; margin-top: -40px;""><img src=""images/pattern_6.png"" style=""width: 234px; height: 230px; margin-top: -50px;""><div style=""display: flex; justify-content: space-between; margin-top: 33px;""><img src=""images/choice_trial_11.png"" style=""width: 408px; height: 417px; margin-right: 200px;""><img src=""images/choice_trial_12.png"" style=""width: 408px; height: 417px;""></div></div>",j,delaylearn,learning,trial,VBWkO9W60aNEOjxBq3p6UyQsCky1,VBWkO9W60aNEOjxBq3p6UyQsCky1,1.0,images/choice_trial_11.png,images/choice_trial_12.png,images/pattern_6.png,j,f,750.0,11.0,12.0,5.0,0.0,33.0,0.0,1.0,12.0,190.0,,,,,,6173c5b0aa4bc2370fd2c1f2,09:09:30,27/02/2024
html-keyboard-response,185,342337,0.0-77.0-1.0,,"<div style=""display: flex; flex-direction: column; align-items: center; margin-top: -40px;""><img src=""images/pattern_6.png"" style=""width: 234px; height: 230px; margin-top: -50px;""><div style=""display: flex; justify-content: space-between; margin-top: 33px;""><img src=""images/choice_trial_12.png"" style=""width: 408px; height: 417px; margin-left:608px;""></div></div>",,delaylearn,learning,display_response,VBWkO9W60aNEOjxBq3p6UyQsCky1,VBWkO9W60aNEOjxBq3p6UyQsCky1,,,,,,,,,,,,,,,,,chosen stimuli: images/choice_trial_12.png,,,,,6173c5b0aa4bc2370fd2c1f2,09:09:30,27/02/2024
html-keyboard-response,186,343088,0.0-77.0-2.0,,,,delaylearn,learning,feedback_duration_window,VBWkO9W60aNEOjxBq3p6UyQsCky1,VBWkO9W60aNEOjxBq3p6UyQsCky1,,,,,,,,,,,,,,,,,,750.0,,,,6173c5b0aa4bc2370fd2c1f2,09:09:30,27/02/2024
html-keyboard-response,187,344600,0.0-77.0-3.0,,<div style='margin:auto;width: auto; font-size: 150%'><span style='font-weight: bold; font-size: 100px; color: green;'>+10 points!</span><br><br></div>,,delaylearn,learning,feedback_image_window,VBWkO9W60aNEOjxBq3p6UyQsCky1,VBWkO9W60aNEOjxBq3p6UyQsCky1,,,,,,,,,,,,,,,,,,,,,,6173c5b0aa4bc2370fd2c1f2,09:09:30,27/02/2024
html-keyboard-response,188,346167,0.0-78.0,,"<div style=""font-size:100px;"">+</div>",,delaylearn,learning,ITI,VBWkO9W60aNEOjxBq3p6UyQsCky1,VBWkO9W60aNEOjxBq3p6UyQsCky1,,,,,,,,,,,,,,,,,,,1552.0,,,6173c5b0aa4bc2370fd2c1f2,09:09:30,27/02/2024
html-keyboard-response,189,346518,0.0-79.0-0.0,348.19999998807907,"<div style=""display: flex; flex-direction: column; align-items: center; margin-top: -40px;""><img src=""images/pattern_3.png"" style=""width: 234px; height: 230px; margin-top: -50px;""><div style=""display: flex; justify-content: space-between; margin-top: 33px;""><img src=""images/choice_trial_6.png"" style=""width: 408px; height: 417px; margin-right: 200px;""><img src=""images/choice_trial_5.png"" style=""width: 408px; height: 417px;""></div></div>",f,delaylearn,learning,trial,VBWkO9W60aNEOjxBq3p6UyQsCky1,VBWkO9W60aNEOjxBq3p6UyQsCky1,1.0,images/choice_trial_6.png,images/choice_trial_5.png,images/pattern_3.png,j,j,7000.0,6.0,5.0,2.0,1.0,34.0,0.0,0.0,6.0,190.0,,,,,,6173c5b0aa4bc2370fd2c1f2,09:09:30,27/02/2024
html-keyboard-response,190,347523,0.0-79.0-1.0,,"<div style=""display: flex; flex-direction: column; align-items: center; margin-top: -40px;""><img src=""images/pattern_3.png"" style=""width: 234px; height: 230px; margin-top: -50px;""><div style=""display: flex; justify-content: space-between; margin-top: 33px;""><img src=""images/choice_trial_6.png"" style=""width: 408px; height: 417px; margin-right: 608px;""></div></div>",,delaylearn,learning,display_response,VBWkO9W60aNEOjxBq3p6UyQsCky1,VBWkO9W60aNEOjxBq3p6UyQsCky1,,,,,,,,,,,,,,,,,chosen stimuli: images/choice_trial_6.png,,,,,6173c5b0aa4bc2370fd2c1f2,09:09:30,27/02/2024
html-keyboard-response,191,354531,0.0-79.0-2.0,,,,delaylearn,learning,feedback_duration_window,VBWkO9W60aNEOjxBq3p6UyQsCky1,VBWkO9W60aNEOjxBq3p6UyQsCky1,,,,,,,,,,,,,,,,,,7000.0,,,,6173c5b0aa4bc2370fd2c1f2,09:09:30,27/02/2024
html-keyboard-response,192,356036,0.0-79.0-3.0,,<div style='margin:auto;width: auto; font-size: 150%'><span style='font-weight: bold; font-size: 100px; color: red;'>0 points!</span><br><br></div>,,delaylearn,learning,feedback_image_window,VBWkO9W60aNEOjxBq3p6UyQsCky1,VBWkO9W60aNEOjxBq3p6UyQsCky1,,,,,,,,,,,,,,,,,,,,,,6173c5b0aa4bc2370fd2c1f2,09:09:30,27/02/2024
html-keyboard-response,193,357688,0.0-80.0,,"<div style=""font-size:100px;"">+</div>",,delaylearn,learning,ITI,VBWkO9W60aNEOjxBq3p6UyQsCky1,VBWkO9W60aNEOjxBq3p6UyQsCky1,,,,,,,,,,,,,,,,,,,1646.0,,,6173c5b0aa4bc2370fd2c1f2,09:09:30,27/02/2024
html-keyboard-response,194,358279,0.0-81.0-0.0,588.3999999761581,"<div style=""display: flex; flex-direction: column; align-items: center; margin-top: -40px;""><img src=""images/pattern_4.png"" style=""width: 234px; height: 230px; margin-top: -50px;""><div style=""display: flex; justify-content: space-between; margin-top: 33px;""><img src=""images/choice_trial_8.png"" style=""width: 408px; height: 417px; margin-right: 200px;""><img src=""images/choice_trial_7.png"" style=""width: 408px; height: 417px;""></div></div>",j,delaylearn,learning,trial,VBWkO9W60aNEOjxBq3p6UyQsCky1,VBWkO9W60aNEOjxBq3p6UyQsCky1,1.0,images/choice_trial_8.png,images/choice_trial_7.png,images/pattern_4.png,f,j,7000.0,8.0,7.0,3.0,1.0,35.0,1.0,0.0,7.0,190.0,,,,,,6173c5b0aa4bc2370fd2c1f2,09:09:30,27/02/2024
html-keyboard-response,195,359292,0.0-81.0-1.0,,"<div style=""display: flex; flex-direction: column; align-items: center; margin-top: -40px;""><img src=""images/pattern_4.png"" style=""width: 234px; height: 230px; margin-top: -50px;""><div style=""display: flex; justify-content: space-between; margin-top: 33px;""><img src=""images/choice_trial_7.png"" style=""width: 408px; height: 417px; margin-left:608px;""></div></div>",,delaylearn,learning,display_response,VBWkO9W60aNEOjxBq3p6UyQsCky1,VBWkO9W60aNEOjxBq3p6UyQsCky1,,,,,,,,,,,,,,,,,chosen stimuli: images/choice_trial_7.png,,,,,6173c5b0aa4bc2370fd2c1f2,09:09:30,27/02/2024
html-keyboard-response,196,366299,0.0-81.0-2.0,,,,delaylearn,learning,feedback_duration_window,VBWkO9W60aNEOjxBq3p6UyQsCky1,VBWkO9W60aNEOjxBq3p6UyQsCky1,,,,,,,,,,,,,,,,,,7000.0,,,,6173c5b0aa4bc2370fd2c1f2,09:09:30,27/02/2024
html-keyboard-response,197,367805,0.0-81.0-3.0,,<div style='margin:auto;width: auto; font-size: 150%'><span style='font-weight: bold; font-size: 100px; color: red;'>0 points!</span><br><br></div>,,delaylearn,learning,feedback_image_window,VBWkO9W60aNEOjxBq3p6UyQsCky1,VBWkO9W60aNEOjxBq3p6UyQsCky1,,,,,,,,,,,,,,,,,,,,,,6173c5b0aa4bc2370fd2c1f2,09:09:30,27/02/2024
html-keyboard-response,198,370225,0.0-82.0,,"<div style=""font-size:100px;"">+</div>",,delaylearn,learning,ITI,VBWkO9W60aNEOjxBq3p6UyQsCky1,VBWkO9W60aNEOjxBq3p6UyQsCky1,,,,,,,,,,,,,,,,,,,2410.0,,,6173c5b0aa4bc2370fd2c1f2,09:09:30,27/02/2024
html-keyboard-response,199,370728,0.0-83.0-0.0,499.4000000357628,"<div style=""display: flex; flex-direction: column; align-items: center; margin-top: -40px;""><img src=""images/pattern_7.png"" style=""width: 234px; height: 230px; margin-top: -50px;""><div style=""display: flex; justify-content: space-between; margin-top: 33px;""><img src=""images/choice_trial_13.png"" style=""width: 408px; height: 417px; margin-right: 200px;""><img src=""images/choice_trial_14.png"" style=""width: 408px; height: 417px;""></div></div>",f,delaylearn,learning,trial,VBWkO9W60aNEOjxBq3p6UyQsCky1,VBWkO9W60aNEOjxBq3p6UyQsCky1,1.0,images/choice_trial_13.png,images/choice_trial_14.png,images/pattern_7.png,f,f,750.0,13.0,14.0,6.0,0.0,36.0,1.0,1.0,13.0,200.0,,,,,,6173c5b0aa4bc2370fd2c1f2,09:09:30,27/02/2024
html-keyboard-response,200,371733,0.0-83.0-1.0,,"<div style=""display: flex; flex-direction: column; align-items: center; margin-top: -40px;""><img src=""images/pattern_7.png"" style=""width: 234px; height: 230px; margin-top: -50px;""><div style=""display: flex; justify-content: space-between; margin-top: 33px;""><img src=""images/choice_trial_13.png"" style=""width: 408px; height: 417px; margin-right: 608px;""></div></div>",,delaylearn,learning,display_response,VBWkO9W60aNEOjxBq3p6UyQsCky1,VBWkO9W60aNEOjxBq3p6UyQsCky1,,,,,,,,,,,,,,,,,chosen stimuli: images/choice_trial_13.png,,,,,6173c5b0aa4bc2370fd2c1f2,09:09:30,27/02/2024
html-keyboard-response,201,372487,0.0-83.0-2.0,,,,delaylearn,learning,feedback_duration_window,VBWkO9W60aNEOjxBq3p6UyQsCky1,VBWkO9W60aNEOjxBq3p6UyQsCky1,,,,,,,,,,,,,,,,,,750.0,,,,6173c5b0aa4bc2370fd2c1f2,09:09:30,27/02/2024
html-keyboard-response,202,373992,0.0-83.0-3.0,,<div style='margin:auto;width: auto; font-size: 150%'><span style='font-weight: bold; font-size: 100px; color: green;'>+10 points!</span><br><br></div>,,delaylearn,learning,feedback_image_window,VBWkO9W60aNEOjxBq3p6UyQsCky1,VBWkO9W60aNEOjxBq3p6UyQsCky1,,,,,,,,,,,,,,,,,,,,,,6173c5b0aa4bc2370fd2c1f2,09:09:30,27/02/2024
html-keyboard-response,203,376183,0.0-84.0,,"<div style=""font-size:100px;"">+</div>",,delaylearn,learning,ITI,VBWkO9W60aNEOjxBq3p6UyQsCky1,VBWkO9W60aNEOjxBq3p6UyQsCky1,,,,,,,,,,,,,,,,,,,2183.0,,,6173c5b0aa4bc2370fd2c1f2,09:09:30,27/02/2024
html-keyboard-response,204,376661,0.0-85.0-0.0,473.60000002384186,"<div style=""display: flex; flex-direction: column; align-items: center; margin-top: -40px;""><img src=""images/pattern_1.png"" style=""width: 234px; height: 230px; margin-top: -50px;""><div style=""display: flex; justify-content: space-between; margin-top: 33px;""><img src=""images/choice_trial_1.png"" style=""width: 408px; height: 417px; margin-right: 200px;""><img src=""images/choice_trial_2.png"" style=""width: 408px; height: 417px;""></div></div>",j,delaylearn,learning,trial,VBWkO9W60aNEOjxBq3p6UyQsCky1,VBWkO9W60aNEOjxBq3p6UyQsCky1,1.0,images/choice_trial_1.png,images/choice_trial_2.png,images/pattern_1.png,f,f,7000.0,1.0,2.0,1.0,0.0,37.0,0.0,0.0,2.0,200.0,,,,,,6173c5b0aa4bc2370fd2c1f2,09:09:30,27/02/2024
html-keyboard-response,205,377669,0.0-85.0-1.0,,"<div style=""display: flex; flex-direction: column; align-items: center; margin-top: -40px;""><img src=""images/pattern_1.png"" style=""width: 234px; height: 230px; margin-top: -50px;""><div style=""display: flex; justify-content: space-between; margin-top: 33px;""><img src=""images/choice_trial_2.png"" style=""width: 408px; height: 417px; margin-left:608px;""></div></div>",,delaylearn,learning,display_response,VBWkO9W60aNEOjxBq3p6UyQsCky1,VBWkO9W60aNEOjxBq3p6UyQsCky1,,,,,,,,,,,,,,,,,chosen stimuli: images/choice_trial_2.png,,,,,6173c5b0aa4bc2370fd2c1f2,09:09:30,27/02/2024
html-keyboard-response,206,384686,0.0-85.0-2.0,,,,delaylearn,learning,feedback_duration_window,VBWkO9W60aNEOjxBq3p6UyQsCky1,VBWkO9W60aNEOjxBq3p6UyQsCky1,,,,,,,,,,,,,,,,,,7000.0,,,,6173c5b0aa4bc2370fd2c1f2,09:09:30,27/02/2024
html-keyboard-response,207,386200,0.0-85.0-3.0,,<div style='margin:auto;width: auto; font-size: 150%'><span style='font-weight: bold; font-size: 100px; color: red;'>0 points!</span><br><br></div>,,delaylearn,learning,feedback_image_window,VBWkO9W60aNEOjxBq3p6UyQsCky1,VBWkO9W60aNEOjxBq3p6UyQsCky1,,,,,,,,,,,,,,,,,,,,,,6173c5b0aa4bc2370fd2c1f2,09:09:30,27/02/2024
html-keyboard-response,208,386702,0.0-86.0-0.0,,,,,,mood_trial_fixation,VBWkO9W60aNEOjxBq3p6UyQsCky1,,,,,,,,,,,,,,,,,,,,,,,6173c5b0aa4bc2370fd2c1f2,09:09:30,27/02/2024
lmdlab-html-vas-response,209,390153,0.0-86.0-1.0,2445.0,How happy are you right now?,0.8163820871243848,delaylearn,learning,mood_trial,VBWkO9W60aNEOjxBq3p6UyQsCky1,VBWkO9W60aNEOjxBq3p6UyQsCky1,,,,,,,,,,,,,,,,,,,,"['Very unhappy', 'Very happy']",,6173c5b0aa4bc2370fd2c1f2,09:09:30,27/02/2024
html-keyboard-response,210,391700,0.0-87.0,,"<div style=""font-size:100px;"">+</div>",,delaylearn,learning,ITI,VBWkO9W60aNEOjxBq3p6UyQsCky1,VBWkO9W60aNEOjxBq3p6UyQsCky1,,,,,,,,,,,,,,,,,,,1542.0,,,6173c5b0aa4bc2370fd2c1f2,09:09:30,27/02/2024
html-keyboard-response,211,393381,0.0-88.0-0.0,1677.4000000357628,"<div style=""display: flex; flex-direction: column; align-items: center; margin-top: -40px;""><img src=""images/pattern_3.png"" style=""width: 234px; height: 230px; margin-top: -50px;""><div style=""display: flex; justify-content: space-between; margin-top: 33px;""><img src=""images/choice_trial_5.png"" style=""width: 408px; height: 417px; margin-right: 200px;""><img src=""images/choice_trial_6.png"" style=""width: 408px; height: 417px;""></div></div>",j,delaylearn,learning,trial,VBWkO9W60aNEOjxBq3p6UyQsCky1,VBWkO9W60aNEOjxBq3p6UyQsCky1,1.0,images/choice_trial_5.png,images/choice_trial_6.png,images/pattern_3.png,j,f,7000.0,5.0,6.0,2.0,0.0,38.0,0.0,1.0,6.0,210.0,,,,,,6173c5b0aa4bc2370fd2c1f2,09:09:30,27/02/2024
html-keyboard-response,212,394391,0.0-88.0-1.0,,"<div style=""display: flex; flex-direction: column; align-items: center; margin-top: -40px;""><img src=""images/pattern_3.png"" style=""width: 234px; height: 230px; margin-top: -50px;""><div style=""display: flex; justify-content: space-between; margin-top: 33px;""><img src=""images/choice_trial_6.png"" style=""width: 408px; height: 417px; margin-left:608px;""></div></div>",,delaylearn,learning,display_response,VBWkO9W60aNEOjxBq3p6UyQsCky1,VBWkO9W60aNEOjxBq3p6UyQsCky1,,,,,,,,,,,,,,,,,chosen stimuli: images/choice_trial_6.png,,,,,6173c5b0aa4bc2370fd2c1f2,09:09:30,27/02/2024
html-keyboard-response,213,401394,0.0-88.0-2.0,,,,delaylearn,learning,feedback_duration_window,VBWkO9W60aNEOjxBq3p6UyQsCky1,VBWkO9W60aNEOjxBq3p6UyQsCky1,,,,,,,,,,,,,,,,,,7000.0,,,,6173c5b0aa4bc2370fd2c1f2,09:09:30,27/02/2024
html-keyboard-response,214,402898,0.0-88.0-3.0,,<div style='margin:auto;width: auto; font-size: 150%'><span style='font-weight: bold; font-size: 100px; color: green;'>+10 points!</span><br><br></div>,,delaylearn,learning,feedback_image_window,VBWkO9W60aNEOjxBq3p6UyQsCky1,VBWkO9W60aNEOjxBq3p6UyQsCky1,,,,,,,,,,,,,,,,,,,,,,6173c5b0aa4bc2370fd2c1f2,09:09:30,27/02/2024
html-keyboard-response,215,404886,0.0-89.0,,"<div style=""font-size:100px;"">+</div>",,delaylearn,learning,ITI,VBWkO9W60aNEOjxBq3p6UyQsCky1,VBWkO9W60aNEOjxBq3p6UyQsCky1,,,,,,,,,,,,,,,,,,,1986.0,,,6173c5b0aa4bc2370fd2c1f2,09:09:30,27/02/2024
html-keyboard-response,216,405792,0.0-90.0-0.0,903.0,"<div style=""display: flex; flex-direction: column; align-items: center; margin-top: -40px;""><img src=""images/pattern_7.png"" style=""width: 234px; height: 230px; margin-top: -50px;""><div style=""display: flex; justify-content: space-between; margin-top: 33px;""><img src=""images/choice_trial_14.png"" style=""width: 408px; height: 417px; margin-right: 200px;""><img src=""images/choice_trial_13.png"" style=""width: 408px; height: 417px;""></div></div>",j,delaylearn,learning,trial,VBWkO9W60aNEOjxBq3p6UyQsCky1,VBWkO9W60aNEOjxBq3p6UyQsCky1,1.0,images/choice_trial_14.png,images/choice_trial_13.png,images/pattern_7.png,j,j,750.0,14.0,13.0,6.0,1.0,39.0,1.0,1.0,13.0,220.0,,,,,,6173c5b0aa4bc2370fd2c1f2,09:09:30,27/02/2024
html-keyboard-response,217,406808,0.0-90.0-1.0,,"<div style=""display: flex; flex-direction: column; align-items: center; margin-top: -40px;""><img src=""images/pattern_7.png"" style=""width: 234px; height: 230px; margin-top: -50px;""><div style=""display: flex; justify-content: space-between; margin-top: 33px;""><img src=""images/choice_trial_13.png"" style=""width: 408px; height: 417px; margin-left:608px;""></div></div>",,delaylearn,learning,display_response,VBWkO9W60aNEOjxBq3p6UyQsCky1,VBWkO9W60aNEOjxBq3p6UyQsCky1,,,,,,,,,,,,,,,,,chosen stimuli: images/choice_trial_13.png,,,,,6173c5b0aa4bc2370fd2c1f2,09:09:30,27/02/2024
html-keyboard-response,218,407564,0.0-90.0-2.0,,,,delaylearn,learning,feedback_duration_window,VBWkO9W60aNEOjxBq3p6UyQsCky1,VBWkO9W60aNEOjxBq3p6UyQsCky1,,,,,,,,,,,,,,,,,,750.0,,,,6173c5b0aa4bc2370fd2c1f2,09:09:30,27/02/2024
html-keyboard-response,219,409069,0.0-90.0-3.0,,<div style='margin:auto;width: auto; font-size: 150%'><span style='font-weight: bold; font-size: 100px; color: green;'>+10 points!</span><br><br></div>,,delaylearn,learning,feedback_image_window,VBWkO9W60aNEOjxBq3p6UyQsCky1,VBWkO9W60aNEOjxBq3p6UyQsCky1,,,,,,,,,,,,,,,,,,,,,,6173c5b0aa4bc2370fd2c1f2,09:09:30,27/02/2024
html-keyboard-response,220,411476,0.0-91.0,,"<div style=""font-size:100px;"">+</div>",,delaylearn,learning,ITI,VBWkO9W60aNEOjxBq3p6UyQsCky1,VBWkO9W60aNEOjxBq3p6UyQsCky1,,,,,,,,,,,,,,,,,,,2400.0,,,6173c5b0aa4bc2370fd2c1f2,09:09:30,27/02/2024
html-keyboard-response,221,414487,0.0-92.0-0.0,,"<div style=""display: flex; flex-direction: column; align-items: center; margin-top: -40px;""><img src=""images/pattern_5.png"" style=""width: 234px; height: 230px; margin-top: -50px;""><div style=""display: flex; justify-content: space-between; margin-top: 33px;""><img src=""images/choice_trial_10.png"" style=""width: 408px; height: 417px; margin-right: 200px;""><img src=""images/choice_trial_9.png"" style=""width: 408px; height: 417px;""></div></div>",,delaylearn,learning,trial,VBWkO9W60aNEOjxBq3p6UyQsCky1,VBWkO9W60aNEOjxBq3p6UyQsCky1,1.0,images/choice_trial_10.png,images/choice_trial_9.png,images/pattern_5.png,j,j,750.0,10.0,9.0,4.0,1.0,40.0,0.0,0.0,0.0,220.0,,,,,,6173c5b0aa4bc2370fd2c1f2,09:09:30,27/02/2024
html-keyboard-response,222,415489,0.0-92.0-1.0,,<div style='font-weight: bold; font-size: 75px; color: red;'>Missed Trial <br><br><br><br> Please respond faster</div>,,delaylearn,learning,display_response,VBWkO9W60aNEOjxBq3p6UyQsCky1,VBWkO9W60aNEOjxBq3p6UyQsCky1,,,,,,,,,,,,,,,,,Missed trial,,,,,6173c5b0aa4bc2370fd2c1f2,09:09:30,27/02/2024
html-keyboard-response,223,415500,0.0-92.0-2.0,,,,delaylearn,learning,feedback_duration_window,VBWkO9W60aNEOjxBq3p6UyQsCky1,VBWkO9W60aNEOjxBq3p6UyQsCky1,,,,,,,,,,,,,,,,,,0.0,,,,6173c5b0aa4bc2370fd2c1f2,09:09:30,27/02/2024
html-keyboard-response,224,415511,0.0-92.0-3.0,,,,delaylearn,learning,feedback_image_window,VBWkO9W60aNEOjxBq3p6UyQsCky1,VBWkO9W60aNEOjxBq3p6UyQsCky1,,,,,,,,,,,,,,,,,,,,,,6173c5b0aa4bc2370fd2c1f2,09:09:30,27/02/2024
html-keyboard-response,225,416013,0.0-93.0-0.0,,,,,,mood_trial_fixation,VBWkO9W60aNEOjxBq3p6UyQsCky1,,,,,,,,,,,,,,,,,,,,,,,6173c5b0aa4bc2370fd2c1f2,09:09:30,27/02/2024
lmdlab-html-vas-response,226,419047,0.0-93.0-1.0,2021.0,How happy are you right now?,0.7006413518344572,delaylearn,learning,mood_trial,VBWkO9W60aNEOjxBq3p6UyQsCky1,VBWkO9W60aNEOjxBq3p6UyQsCky1,,,,,,,,,,,,,,,,,,,,"['Very unhappy', 'Very happy']",,6173c5b0aa4bc2370fd2c1f2,09:09:30,27/02/2024
html-keyboard-response,227,421487,0.0-94.0,,"<div style=""font-size:100px;"">+</div>",,delaylearn,learning,ITI,VBWkO9W60aNEOjxBq3p6UyQsCky1,VBWkO9W60aNEOjxBq3p6UyQsCky1,,,,,,,,,,,,,,,,,,,2434.0,,,6173c5b0aa4bc2370fd2c1f2,09:09:30,27/02/2024
html-keyboard-response,228,421895,0.0-95.0-0.0,403.89999997615814,"<div style=""display: flex; flex-direction: column; align-items: center; margin-top: -40px;""><img src=""images/pattern_4.png"" style=""width: 234px; height: 230px; margin-top: -50px;""><div style=""display: flex; justify-content: space-between; margin-top: 33px;""><img src=""images/choice_trial_7.png"" style=""width: 408px; height: 417px; margin-right: 200px;""><img src=""images/choice_trial_8.png"" style=""width: 408px; height: 417px;""></div></div>",j,delaylearn,learning,trial,VBWkO9W60aNEOjxBq3p6UyQsCky1,VBWkO9W60aNEOjxBq3p6UyQsCky1,1.0,images/choice_trial_7.png,images/choice_trial_8.png,images/pattern_4.png,f,f,7000.0,7.0,8.0,3.0,0.0,41.0,0.0,0.0,8.0,220.0,,,,,,6173c5b0aa4bc2370fd2c1f2,09:09:30,27/02/2024
html-keyboard-response,229,422908,0.0-95.0-1.0,,"<div style=""display: flex; flex-direction: column; align-items: center; margin-top: -40px;""><img src=""images/pattern_4.png"" style=""width: 234px; height: 230px; margin-top: -50px;""><div style=""display: flex; justify-content: space-between; margin-top: 33px;""><img src=""images/choice_trial_8.png"" style=""width: 408px; height: 417px; margin-left:608px;""></div></div>",,delaylearn,learning,display_response,VBWkO9W60aNEOjxBq3p6UyQsCky1,VBWkO9W60aNEOjxBq3p6UyQsCky1,,,,,,,,,,,,,,,,,chosen stimuli: images/choice_trial_8.png,,,,,6173c5b0aa4bc2370fd2c1f2,09:09:30,27/02/2024
html-keyboard-response,230,429912,0.0-95.0-2.0,,,,delaylearn,learning,feedback_duration_window,VBWkO9W60aNEOjxBq3p6UyQsCky1,VBWkO9W60aNEOjxBq3p6UyQsCky1,,,,,,,,,,,,,,,,,,7000.0,,,,6173c5b0aa4bc2370fd2c1f2,09:09:30,27/02/2024
html-keyboard-response,231,431416,0.0-95.0-3.0,,<div style='margin:auto;width: auto; font-size: 150%'><span style='font-weight: bold; font-size: 100px; color: red;'>0 points!</span><br><br></div>,,delaylearn,learning,feedback_image_window,VBWkO9W60aNEOjxBq3p6UyQsCky1,VBWkO9W60aNEOjxBq3p6UyQsCky1,,,,,,,,,,,,,,,,,,,,,,6173c5b0aa4bc2370fd2c1f2,09:09:30,27/02/2024
html-keyboard-response,232,433886,0.0-96.0,,"<div style=""font-size:100px;"">+</div>",,delaylearn,learning,ITI,VBWkO9W60aNEOjxBq3p6UyQsCky1,VBWkO9W60aNEOjxBq3p6UyQsCky1,,,,,,,,,,,,,,,,,,,2453.0,,,6173c5b0aa4bc2370fd2c1f2,09:09:30,27/02/2024
