trial_type,trial_index,time_elapsed,internal_node_id,rt,stimulus,response,exp_name,exp_stage,test_part,subjectID,databaseID,counterbal,choice_stimuli_1,choice_stimuli_2,pattern_stimuli,rewarded_answer,correct_answer,feedback_duration_times,stim_left,stim_right,pair,leftright_counter,trial,response_correct,response_rewarded,chosen_stim,counter,displayed_choice,feedback_durations,ITI_duration,labels,rest_warning,prolificID,start_time,date
pavlovia,0,488,0.0-0.0,,,,,,,kFUJWrep1TZjcr9WTJE4iLonYul2,,,,,,,,,,,,,,,,,,,,,,,5cb59c9e4c39f300173efd41,09:09:00,27/02/2024
html-keyboard-response,1,3493,0.0-1.0,,"<div style=""font-size:100px;"">+</div>",,delaylearn,learning,pre_fixation,kFUJWrep1TZjcr9WTJE4iLonYul2,,,,,,,,,,,,,,,,,,,,,,,5cb59c9e4c39f300173efd41,09:09:00,27/02/2024
html-keyboard-response,2,4821,0.0-2.0-0.0,1324.2000000476837,"<div style=""display: flex; flex-direction: column; align-items: center; margin-top: -40px;""><img src=""images/demo_images/pattern_1.png"" style=""width: 234px; height: 230px; margin-top: -50px;""><div style=""display: flex; justify-content: space-between; margin-top: 33px;""><img src=""images/demo_images/choice_trial_2.png"" style=""width: 408px; height: 417px; margin-right: 200px;""><img src=""images/demo_images/choice_trial_1.png"" style=""width: 408px; height: 417px;""></div></div>",f,delaylearn,learning,trial,kFUJWrep1TZjcr9WTJE4iLonYul2,kFUJWrep1TZjcr9WTJE4iLonYul2,5.0,images/demo_images/choice_trial_2.png,images/demo_images/choice_trial_1.png,images/demo_images/pattern_1.png,j,j,3000.0,2.0,1.0,20.0,1.0,1.0,0.0,0.0,2.0,0.0,,,,,,5cb59c9e4c39f300173efd41,09:09:00,27/02/2024
html-keyboard-response,3,5833,0.0-2.0-1.0,,"<div style=""display: flex; flex-direction: column; align-items: center; margin-top: -40px;""><img src=""images/demo_images/pattern_1.png"" style=""width: 234px; height: 230px; margin-top: -50px;""><div style=""display: flex; justify-content: space-between; margin-top: 33px;""><img src=""images/demo_images/choice_trial_2.png"" style=""width: 408px; height: 417px; margin-right: 608px;""></div></div>",,delaylearn,learning,display_response,kFUJWrep1TZjcr9WTJE4iLonYul2,kFUJWrep1TZjcr9WTJE4iLonYul2,,,,,,,,,,,,,,,,,chosen stimuli: images/demo_images/choice_trial_2.png,,,,,5cb59c9e4c39f300173efd41,09:09:00,27/02/2024
html-keyboard-response,4,8851,0.0-2.0-2.0,,,,delaylearn,learning,feedback_duration_window,kFUJWrep1TZjcr9WTJE4iLonYul2,kFUJWrep1TZjcr9WTJE4iLonYul2,,,,,,,,,,,,,,,,,,3000.0,,,,5cb59c9e4c39f300173efd41,09:09:00,27/02/2024
html-keyboard-response,5,10359,0.0-2.0-3.0,,<div style='margin:auto;width: auto; font-size: 150%'><span style='font-weight: bold; font-size: 100px; color: red;'>0 points!</span><br><br></div>,,delaylearn,learning,feedback_image_window,kFUJWrep1TZjcr9WTJE4iLonYul2,kFUJWrep1TZjcr9WTJE4iLonYul2,,,,,,,,,,,,,,,,,,,,,,5cb59c9e4c39f300173efd41,09:09:00,27/02/2024
html-keyboard-response,6,12599,0.0-3.0,,"<div style=""font-size:100px;"">+</div>",,delaylearn,learning,ITI,kFUJWrep1TZjcr9WTJE4iLonYul2,kFUJWrep1TZjcr9WTJE4iLonYul2,,,,,,,,,,,,,,,,,,,2232.0,,,5cb59c9e4c39f300173efd41,09:09:00,27/02/2024
html-keyboard-response,7,13452,0.0-4.0-0.0,847.7000000476837,"<div style=""display: flex; flex-direction: column; align-items: center; margin-top: -40px;""><img src=""images/demo_images/pattern_1.png"" style=""width: 234px; height: 230px; margin-top: -50px;""><div style=""display: flex; justify-content: space-between; margin-top: 33px;""><img src=""images/demo_images/choice_trial_2.png"" style=""width: 408px; height: 417px; margin-right: 200px;""><img src=""images/demo_images/choice_trial_1.png"" style=""width: 408px; height: 417px;""></div></div>",j,delaylearn,learning,trial,kFUJWrep1TZjcr9WTJE4iLonYul2,kFUJWrep1TZjcr9WTJE4iLonYul2,5.0,images/demo_images/choice_trial_2.png,images/demo_images/choice_trial_1.png,images/demo_images/pattern_1.png,j,j,3000.0,2.0,1.0,20.0,1.0,2.0,1.0,1.0,1.0,10.0,,,,,,5cb59c9e4c39f300173efd41,09:09:00,27/02/2024
html-keyboard-response,8,14460,0.0-4.0-1.0,,"<div style=""display: flex; flex-direction: column; align-items: center; margin-top: -40px;""><img src=""images/demo_images/pattern_1.png"" style=""width: 234px; height: 230px; margin-top: -50px;""><div style=""display: flex; justify-content: space-between; margin-top: 33px;""><img src=""images/demo_images/choice_trial_1.png"" style=""width: 408px; height: 417px; margin-left:608px;""></div></div>",,delaylearn,learning,display_response,kFUJWrep1TZjcr9WTJE4iLonYul2,kFUJWrep1TZjcr9WTJE4iLonYul2,,,,,,,,,,,,,,,,,chosen stimuli: images/demo_images/choice_trial_1.png,,,,,5cb59c9e4c39f300173efd41,09:09:00,27/02/2024
html-keyboard-response,9,17477,0.0-4.0-2.0,,,,delaylearn,learning,feedback_duration_window,kFUJWrep1TZjcr9WTJE4iLonYul2,kFUJWrep1TZjcr9WTJE4iLonYul2,,,,,,,,,,,,,,,,,,3000.0,,,,5cb59c9e4c39f300173efd41,09:09:00,27/02/2024
html-keyboard-response,10,18984,0.0-4.0-3.0,,<div style='margin:auto;width: auto; font-size: 150%'><span style='font-weight: bold; font-size: 100px; color: green;'>+10 points!</span><br><br></div>,,delaylearn,learning,feedback_image_window,kFUJWrep1TZjcr9WTJE4iLonYul2,kFUJWrep1TZjcr9WTJE4iLonYul2,,,,,,,,,,,,,,,,,,,,,,5cb59c9e4c39f300173efd41,09:09:00,27/02/2024
html-keyboard-response,11,21168,0.0-5.0,,"<div style=""font-size:100px;"">+</div>",,delaylearn,learning,ITI,kFUJWrep1TZjcr9WTJE4iLonYul2,kFUJWrep1TZjcr9WTJE4iLonYul2,,,,,,,,,,,,,,,,,,,2180.0,,,5cb59c9e4c39f300173efd41,09:09:00,27/02/2024
html-keyboard-response,12,22700,0.0-6.0-0.0,1528.1000000238419,"<div style=""display: flex; flex-direction: column; align-items: center; margin-top: -40px;""><img src=""images/demo_images/pattern_1.png"" style=""width: 234px; height: 230px; margin-top: -50px;""><div style=""display: flex; justify-content: space-between; margin-top: 33px;""><img src=""images/demo_images/choice_trial_1.png"" style=""width: 408px; height: 417px; margin-right: 200px;""><img src=""images/demo_images/choice_trial_2.png"" style=""width: 408px; height: 417px;""></div></div>",j,delaylearn,learning,trial,kFUJWrep1TZjcr9WTJE4iLonYul2,kFUJWrep1TZjcr9WTJE4iLonYul2,5.0,images/demo_images/choice_trial_1.png,images/demo_images/choice_trial_2.png,images/demo_images/pattern_1.png,j,f,3000.0,1.0,2.0,20.0,0.0,3.0,0.0,1.0,2.0,20.0,,,,,,5cb59c9e4c39f300173efd41,09:09:00,27/02/2024
html-keyboard-response,13,23710,0.0-6.0-1.0,,"<div style=""display: flex; flex-direction: column; align-items: center; margin-top: -40px;""><img src=""images/demo_images/pattern_1.png"" style=""width: 234px; height: 230px; margin-top: -50px;""><div style=""display: flex; justify-content: space-between; margin-top: 33px;""><img src=""images/demo_images/choice_trial_2.png"" style=""width: 408px; height: 417px; margin-left:608px;""></div></div>",,delaylearn,learning,display_response,kFUJWrep1TZjcr9WTJE4iLonYul2,kFUJWrep1TZjcr9WTJE4iLonYul2,,,,,,,,,,,,,,,,,chosen stimuli: images/demo_images/choice_trial_2.png,,,,,5cb59c9e4c39f300173efd41,09:09:00,27/02/2024
html-keyboard-response,14,26725,0.0-6.0-2.0,,,,delaylearn,learning,feedback_duration_window,kFUJWrep1TZjcr9WTJE4iLonYul2,kFUJWrep1TZjcr9WTJE4iLonYul2,,,,,,,,,,,,,,,,,,3000.0,,,,5cb59c9e4c39f300173efd41,09:09:00,27/02/2024
html-keyboard-response,15,28243,0.0-6.0-3.0,,<div style='margin:auto;width: auto; font-size: 150%'><span style='font-weight: bold; font-size: 100px; color: green;'>+10 points!</span><br><br></div>,,delaylearn,learning,feedback_image_window,kFUJWrep1TZjcr9WTJE4iLonYul2,kFUJWrep1TZjcr9WTJE4iLonYul2,,,,,,,,,,,,,,,,,,,,,,5cb59c9e4c39f300173efd41,09:09:00,27/02/2024
html-keyboard-response,16,30346,0.0-7.0,,"<div style=""font-size:100px;"">+</div>",,delaylearn,learning,ITI,kFUJWrep1TZjcr9WTJE4iLonYul2,kFUJWrep1TZjcr9WTJE4iLonYul2,,,,,,,,,,,,,,,,,,,2100.0,,,5cb59c9e4c39f300173efd41,09:09:00,27/02/2024
html-keyboard-response,17,31736,0.0-8.0-0.0,1385.6000000238419,"<div style=""display: flex; flex-direction: column; align-items: center; margin-top: -40px;""><img src=""images/demo_images/pattern_1.png"" style=""width: 234px; height: 230px; margin-top: -50px;""><div style=""display: flex; justify-content: space-between; margin-top: 33px;""><img src=""images/demo_images/choice_trial_1.png"" style=""width: 408px; height: 417px; margin-right: 200px;""><img src=""images/demo_images/choice_trial_2.png"" style=""width: 408px; height: 417px;""></div></div>",j,delaylearn,learning,trial,kFUJWrep1TZjcr9WTJE4iLonYul2,kFUJWrep1TZjcr9WTJE4iLonYul2,5.0,images/demo_images/choice_trial_1.png,images/demo_images/choice_trial_2.png,images/demo_images/pattern_1.png,f,f,3000.0,1.0,2.0,20.0,0.0,4.0,0.0,0.0,2.0,20.0,,,,,,5cb59c9e4c39f300173efd41,09:09:00,27/02/2024
html-keyboard-response,18,32742,0.0-8.0-1.0,,"<div style=""display: flex; flex-direction: column; align-items: center; margin-top: -40px;""><img src=""images/demo_images/pattern_1.png"" style=""width: 234px; height: 230px; margin-top: -50px;""><div style=""display: flex; justify-content: space-between; margin-top: 33px;""><img src=""images/demo_images/choice_trial_2.png"" style=""width: 408px; height: 417px; margin-left:608px;""></div></div>",,delaylearn,learning,display_response,kFUJWrep1TZjcr9WTJE4iLonYul2,kFUJWrep1TZjcr9WTJE4iLonYul2,,,,,,,,,,,,,,,,,chosen stimuli: images/demo_images/choice_trial_2.png,,,,,5cb59c9e4c39f300173efd41,09:09:00,27/02/2024
html-keyboard-response,19,35743,0.0-8.0-2.0,,,,delaylearn,learning,feedback_duration_window,kFUJWrep1TZjcr9WTJE4iLonYul2,kFUJWrep1TZjcr9WTJE4iLonYul2,,,,,,,,,,,,,,,,,,3000.0,,,,5cb59c9e4c39f300173efd41,09:09:00,27/02/2024
html-keyboard-response,20,37255,0.0-8.0-3.0,,<div style='margin:auto;width: auto; font-size: 150%'><span style='font-weight: bold; font-size: 100px; color: red;'>0 points!</span><br><br></div>,,delaylearn,learning,feedback_image_window,kFUJWrep1TZjcr9WTJE4iLonYul2,kFUJWrep1TZjcr9WTJE4iLonYul2,,,,,,,,,,,,,,,,,,,,,,5cb59c9e4c39f300173efd41,09:09:00,27/02/2024
html-keyboard-response,21,37768,0.0-9.0-0.0,,,,,,mood_trial_fixation,kFUJWrep1TZjcr9WTJE4iLonYul2,,,,,,,,,,,,,,,,,,,,,,,5cb59c9e4c39f300173efd41,09:09:00,27/02/2024
lmdlab-html-vas-response,22,42055,0.0-9.0-1.0,3258.0,How happy are you right now?,0.7407407407407407,delaylearn,learning,mood_trial,kFUJWrep1TZjcr9WTJE4iLonYul2,kFUJWrep1TZjcr9WTJE4iLonYul2,,,,,,,,,,,,,,,,,,,,"['Very unhappy', 'Very happy']",,5cb59c9e4c39f300173efd41,09:09:00,27/02/2024
html-keyboard-response,23,43697,0.0-10.0,,"<div style=""font-size:100px;"">+</div>",,delaylearn,learning,ITI,kFUJWrep1TZjcr9WTJE4iLonYul2,kFUJWrep1TZjcr9WTJE4iLonYul2,,,,,,,,,,,,,,,,,,,1629.0,,,5cb59c9e4c39f300173efd41,09:09:00,27/02/2024
html-keyboard-response,24,44965,0.0-11.0-0.0,1265.2999999523163,"<div style=""display: flex; flex-direction: column; align-items: center; margin-top: -40px;""><img src=""images/demo_images/pattern_1.png"" style=""width: 234px; height: 230px; margin-top: -50px;""><div style=""display: flex; justify-content: space-between; margin-top: 33px;""><img src=""images/demo_images/choice_trial_2.png"" style=""width: 408px; height: 417px; margin-right: 200px;""><img src=""images/demo_images/choice_trial_1.png"" style=""width: 408px; height: 417px;""></div></div>",j,delaylearn,learning,trial,kFUJWrep1TZjcr9WTJE4iLonYul2,kFUJWrep1TZjcr9WTJE4iLonYul2,5.0,images/demo_images/choice_trial_2.png,images/demo_images/choice_trial_1.png,images/demo_images/pattern_1.png,j,j,3000.0,2.0,1.0,20.0,1.0,5.0,1.0,1.0,1.0,30.0,,,,,,5cb59c9e4c39f300173efd41,09:09:00,27/02/2024
html-keyboard-response,25,45978,0.0-11.0-1.0,,"<div style=""display: flex; flex-direction: column; align-items: center; margin-top: -40px;""><img src=""images/demo_images/pattern_1.png"" style=""width: 234px; height: 230px; margin-top: -50px;""><div style=""display: flex; justify-content: space-between; margin-top: 33px;""><img src=""images/demo_images/choice_trial_1.png"" style=""width: 408px; height: 417px; margin-left:608px;""></div></div>",,delaylearn,learning,display_response,kFUJWrep1TZjcr9WTJE4iLonYul2,kFUJWrep1TZjcr9WTJE4iLonYul2,,,,,,,,,,,,,,,,,chosen stimuli: images/demo_images/choice_trial_1.png,,,,,5cb59c9e4c39f300173efd41,09:09:00,27/02/2024
html-keyboard-response,26,48994,0.0-11.0-2.0,,,,delaylearn,learning,feedback_duration_window,kFUJWrep1TZjcr9WTJE4iLonYul2,kFUJWrep1TZjcr9WTJE4iLonYul2,,,,,,,,,,,,,,,,,,3000.0,,,,5cb59c9e4c39f300173efd41,09:09:00,27/02/2024
html-keyboard-response,27,50496,0.0-11.0-3.0,,<div style='margin:auto;width: auto; font-size: 150%'><span style='font-weight: bold; font-size: 100px; color: green;'>+10 points!</span><br><br></div>,,delaylearn,learning,feedback_image_window,kFUJWrep1TZjcr9WTJE4iLonYul2,kFUJWrep1TZjcr9WTJE4iLonYul2,,,,,,,,,,,,,,,,,,,,,,5cb59c9e4c39f300173efd41,09:09:00,27/02/2024
html-keyboard-response,28,52943,0.0-12.0,,"<div style=""font-size:100px;"">+</div>",,delaylearn,learning,ITI,kFUJWrep1TZjcr9WTJE4iLonYul2,kFUJWrep1TZjcr9WTJE4iLonYul2,,,,,,,,,,,,,,,,,,,2445.0,,,5cb59c9e4c39f300173efd41,09:09:00,27/02/2024
html-keyboard-response,29,53443,0.0-13.0-0.0,495.80000001192093,"<div style=""display: flex; flex-direction: column; align-items: center; margin-top: -40px;""><img src=""images/demo_images/pattern_1.png"" style=""width: 234px; height: 230px; margin-top: -50px;""><div style=""display: flex; justify-content: space-between; margin-top: 33px;""><img src=""images/demo_images/choice_trial_1.png"" style=""width: 408px; height: 417px; margin-right: 200px;""><img src=""images/demo_images/choice_trial_2.png"" style=""width: 408px; height: 417px;""></div></div>",f,delaylearn,learning,trial,kFUJWrep1TZjcr9WTJE4iLonYul2,kFUJWrep1TZjcr9WTJE4iLonYul2,5.0,images/demo_images/choice_trial_1.png,images/demo_images/choice_trial_2.png,images/demo_images/pattern_1.png,f,f,3000.0,1.0,2.0,20.0,0.0,6.0,1.0,1.0,1.0,40.0,,,,,,5cb59c9e4c39f300173efd41,09:09:00,27/02/2024
html-keyboard-response,30,54445,0.0-13.0-1.0,,"<div style=""display: flex; flex-direction: column; align-items: center; margin-top: -40px;""><img src=""images/demo_images/pattern_1.png"" style=""width: 234px; height: 230px; margin-top: -50px;""><div style=""display: flex; justify-content: space-between; margin-top: 33px;""><img src=""images/demo_images/choice_trial_1.png"" style=""width: 408px; height: 417px; margin-right: 608px;""></div></div>",,delaylearn,learning,display_response,kFUJWrep1TZjcr9WTJE4iLonYul2,kFUJWrep1TZjcr9WTJE4iLonYul2,,,,,,,,,,,,,,,,,chosen stimuli: images/demo_images/choice_trial_1.png,,,,,5cb59c9e4c39f300173efd41,09:09:00,27/02/2024
html-keyboard-response,31,57459,0.0-13.0-2.0,,,,delaylearn,learning,feedback_duration_window,kFUJWrep1TZjcr9WTJE4iLonYul2,kFUJWrep1TZjcr9WTJE4iLonYul2,,,,,,,,,,,,,,,,,,3000.0,,,,5cb59c9e4c39f300173efd41,09:09:00,27/02/2024
html-keyboard-response,32,58972,0.0-13.0-3.0,,<div style='margin:auto;width: auto; font-size: 150%'><span style='font-weight: bold; font-size: 100px; color: green;'>+10 points!</span><br><br></div>,,delaylearn,learning,feedback_image_window,kFUJWrep1TZjcr9WTJE4iLonYul2,kFUJWrep1TZjcr9WTJE4iLonYul2,,,,,,,,,,,,,,,,,,,,,,5cb59c9e4c39f300173efd41,09:09:00,27/02/2024
html-button-response,33,66320,0.0-14.0,7345.199999988079,"
  <div style=""display: flex; align-items: center; justify-content: center; height: 80vh;"">
  <div>
          <img src=""images/inst_demo_finish.png"" style=""width: 80vw; height:auto;"">
          <br><br>
      </div>
      <br><br>
  </div>",0,,,,kFUJWrep1TZjcr9WTJE4iLonYul2,,,,,,,,,,,,,,,,,,,,,,,5cb59c9e4c39f300173efd41,09:09:00,27/02/2024
html-keyboard-response,34,74313,0.0-15.0,7991.199999988079,"
  <div style=""display: flex; align-items: center; justify-content: center; height: 80vh;"">
  <div>
          <img src=""images/inst_6.png"" style=""width: 80vw; height:auto;"">
          <br><br>
      </div>
      <br><br>
  </div>",f,,,,kFUJWrep1TZjcr9WTJE4iLonYul2,,,,,,,,,,,,,,,,,,,,,,,5cb59c9e4c39f300173efd41,09:09:00,27/02/2024
html-keyboard-response,35,77330,0.0-16.0,,"<div style=""font-size:100px;"">+</div>",,delaylearn,learning,pre_fixation,kFUJWrep1TZjcr9WTJE4iLonYul2,,,,,,,,,,,,,,,,,,,,,,,5cb59c9e4c39f300173efd41,09:09:00,27/02/2024
html-keyboard-response,36,79081,0.0-17.0,,"<div style=""font-size:100px;"">+</div>",,delaylearn,learning,ITI,kFUJWrep1TZjcr9WTJE4iLonYul2,kFUJWrep1TZjcr9WTJE4iLonYul2,,,,,,,,,,,,,,,,,,,1741.0,,,5cb59c9e4c39f300173efd41,09:09:00,27/02/2024
html-keyboard-response,37,80004,0.0-18.0-0.0,921.7999999523163,"<div style=""display: flex; flex-direction: column; align-items: center; margin-top: -40px;""><img src=""images/pattern_3.png"" style=""width: 234px; height: 230px; margin-top: -50px;""><div style=""display: flex; justify-content: space-between; margin-top: 33px;""><img src=""images/choice_trial_16.png"" style=""width: 408px; height: 417px; margin-right: 200px;""><img src=""images/choice_trial_2.png"" style=""width: 408px; height: 417px;""></div></div>",f,delaylearn,learning,trial,kFUJWrep1TZjcr9WTJE4iLonYul2,kFUJWrep1TZjcr9WTJE4iLonYul2,5.0,images/choice_trial_16.png,images/choice_trial_2.png,images/pattern_3.png,f,f,7000.0,16.0,2.0,2.0,0.0,7.0,1.0,1.0,16.0,50.0,,,,,,5cb59c9e4c39f300173efd41,09:09:00,27/02/2024
html-keyboard-response,38,81014,0.0-18.0-1.0,,"<div style=""display: flex; flex-direction: column; align-items: center; margin-top: -40px;""><img src=""images/pattern_3.png"" style=""width: 234px; height: 230px; margin-top: -50px;""><div style=""display: flex; justify-content: space-between; margin-top: 33px;""><img src=""images/choice_trial_16.png"" style=""width: 408px; height: 417px; margin-right: 608px;""></div></div>",,delaylearn,learning,display_response,kFUJWrep1TZjcr9WTJE4iLonYul2,kFUJWrep1TZjcr9WTJE4iLonYul2,,,,,,,,,,,,,,,,,chosen stimuli: images/choice_trial_16.png,,,,,5cb59c9e4c39f300173efd41,09:09:00,27/02/2024
html-keyboard-response,39,88018,0.0-18.0-2.0,,,,delaylearn,learning,feedback_duration_window,kFUJWrep1TZjcr9WTJE4iLonYul2,kFUJWrep1TZjcr9WTJE4iLonYul2,,,,,,,,,,,,,,,,,,7000.0,,,,5cb59c9e4c39f300173efd41,09:09:00,27/02/2024
html-keyboard-response,40,89528,0.0-18.0-3.0,,<div style='margin:auto;width: auto; font-size: 150%'><span style='font-weight: bold; font-size: 100px; color: green;'>+10 points!</span><br><br></div>,,delaylearn,learning,feedback_image_window,kFUJWrep1TZjcr9WTJE4iLonYul2,kFUJWrep1TZjcr9WTJE4iLonYul2,,,,,,,,,,,,,,,,,,,,,,5cb59c9e4c39f300173efd41,09:09:00,27/02/2024
html-keyboard-response,41,91838,0.0-19.0,,"<div style=""font-size:100px;"">+</div>",,delaylearn,learning,ITI,kFUJWrep1TZjcr9WTJE4iLonYul2,kFUJWrep1TZjcr9WTJE4iLonYul2,,,,,,,,,,,,,,,,,,,2306.0,,,5cb59c9e4c39f300173efd41,09:09:00,27/02/2024
html-keyboard-response,42,92913,0.0-20.0-0.0,1073.9000000357628,"<div style=""display: flex; flex-direction: column; align-items: center; margin-top: -40px;""><img src=""images/pattern_7.png"" style=""width: 234px; height: 230px; margin-top: -50px;""><div style=""display: flex; justify-content: space-between; margin-top: 33px;""><img src=""images/choice_trial_10.png"" style=""width: 408px; height: 417px; margin-right: 200px;""><img src=""images/choice_trial_8.png"" style=""width: 408px; height: 417px;""></div></div>",f,delaylearn,learning,trial,kFUJWrep1TZjcr9WTJE4iLonYul2,kFUJWrep1TZjcr9WTJE4iLonYul2,5.0,images/choice_trial_10.png,images/choice_trial_8.png,images/pattern_7.png,j,j,750.0,10.0,8.0,6.0,1.0,8.0,0.0,0.0,10.0,50.0,,,,,,5cb59c9e4c39f300173efd41,09:09:00,27/02/2024
html-keyboard-response,43,93924,0.0-20.0-1.0,,"<div style=""display: flex; flex-direction: column; align-items: center; margin-top: -40px;""><img src=""images/pattern_7.png"" style=""width: 234px; height: 230px; margin-top: -50px;""><div style=""display: flex; justify-content: space-between; margin-top: 33px;""><img src=""images/choice_trial_10.png"" style=""width: 408px; height: 417px; margin-right: 608px;""></div></div>",,delaylearn,learning,display_response,kFUJWrep1TZjcr9WTJE4iLonYul2,kFUJWrep1TZjcr9WTJE4iLonYul2,,,,,,,,,,,,,,,,,chosen stimuli: images/choice_trial_10.png,,,,,5cb59c9e4c39f300173efd41,09:09:00,27/02/2024
html-keyboard-response,44,94688,0.0-20.0-2.0,,,,delaylearn,learning,feedback_duration_window,kFUJWrep1TZjcr9WTJE4iLonYul2,kFUJWrep1TZjcr9WTJE4iLonYul2,,,,,,,,,,,,,,,,,,750.0,,,,5cb59c9e4c39f300173efd41,09:09:00,27/02/2024
html-keyboard-response,45,96192,0.0-20.0-3.0,,<div style='margin:auto;width: auto; font-size: 150%'><span style='font-weight: bold; font-size: 100px; color: red;'>0 points!</span><br><br></div>,,delaylearn,learning,feedback_image_window,kFUJWrep1TZjcr9WTJE4iLonYul2,kFUJWrep1TZjcr9WTJE4iLonYul2,,,,,,,,,,,,,,,,,,,,,,5cb59c9e4c39f300173efd41,09:09:00,27/02/2024
html-keyboard-response,46,98382,0.0-21.0,,"<div style=""font-size:100px;"">+</div>",,delaylearn,learning,ITI,kFUJWrep1TZjcr9WTJE4iLonYul2,kFUJWrep1TZjcr9WTJE4iLonYul2,,,,,,,,,,,,,,,,,,,2176.0,,,5cb59c9e4c39f300173efd41,09:09:00,27/02/2024
html-keyboard-response,47,99392,0.0-22.0-0.0,1008.5,"<div style=""display: flex; flex-direction: column; align-items: center; margin-top: -40px;""><img src=""images/pattern_4.png"" style=""width: 234px; height: 230px; margin-top: -50px;""><div style=""display: flex; justify-content: space-between; margin-top: 33px;""><img src=""images/choice_trial_11.png"" style=""width: 408px; height: 417px; margin-right: 200px;""><img src=""images/choice_trial_4.png"" style=""width: 408px; height: 417px;""></div></div>",j,delaylearn,learning,trial,kFUJWrep1TZjcr9WTJE4iLonYul2,kFUJWrep1TZjcr9WTJE4iLonYul2,5.0,images/choice_trial_11.png,images/choice_trial_4.png,images/pattern_4.png,f,f,7000.0,11.0,4.0,3.0,0.0,9.0,0.0,0.0,4.0,50.0,,,,,,5cb59c9e4c39f300173efd41,09:09:00,27/02/2024
html-keyboard-response,48,100404,0.0-22.0-1.0,,"<div style=""display: flex; flex-direction: column; align-items: center; margin-top: -40px;""><img src=""images/pattern_4.png"" style=""width: 234px; height: 230px; margin-top: -50px;""><div style=""display: flex; justify-content: space-between; margin-top: 33px;""><img src=""images/choice_trial_4.png"" style=""width: 408px; height: 417px; margin-left:608px;""></div></div>",,delaylearn,learning,display_response,kFUJWrep1TZjcr9WTJE4iLonYul2,kFUJWrep1TZjcr9WTJE4iLonYul2,,,,,,,,,,,,,,,,,chosen stimuli: images/choice_trial_4.png,,,,,5cb59c9e4c39f300173efd41,09:09:00,27/02/2024
html-keyboard-response,49,107410,0.0-22.0-2.0,,,,delaylearn,learning,feedback_duration_window,kFUJWrep1TZjcr9WTJE4iLonYul2,kFUJWrep1TZjcr9WTJE4iLonYul2,,,,,,,,,,,,,,,,,,7000.0,,,,5cb59c9e4c39f300173efd41,09:09:00,27/02/2024
html-keyboard-response,50,108920,0.0-22.0-3.0,,<div style='margin:auto;width: auto; font-size: 150%'><span style='font-weight: bold; font-size: 100px; color: red;'>0 points!</span><br><br></div>,,delaylearn,learning,feedback_image_window,kFUJWrep1TZjcr9WTJE4iLonYul2,kFUJWrep1TZjcr9WTJE4iLonYul2,,,,,,,,,,,,,,,,,,,,,,5cb59c9e4c39f300173efd41,09:09:00,27/02/2024
html-keyboard-response,51,111313,0.0-23.0,,"<div style=""font-size:100px;"">+</div>",,delaylearn,learning,ITI,kFUJWrep1TZjcr9WTJE4iLonYul2,kFUJWrep1TZjcr9WTJE4iLonYul2,,,,,,,,,,,,,,,,,,,2390.0,,,5cb59c9e4c39f300173efd41,09:09:00,27/02/2024
html-keyboard-response,52,112376,0.0-24.0-0.0,1061.300000011921,"<div style=""display: flex; flex-direction: column; align-items: center; margin-top: -40px;""><img src=""images/pattern_5.png"" style=""width: 234px; height: 230px; margin-top: -50px;""><div style=""display: flex; justify-content: space-between; margin-top: 33px;""><img src=""images/choice_trial_13.png"" style=""width: 408px; height: 417px; margin-right: 200px;""><img src=""images/choice_trial_7.png"" style=""width: 408px; height: 417px;""></div></div>",f,delaylearn,learning,trial,kFUJWrep1TZjcr9WTJE4iLonYul2,kFUJWrep1TZjcr9WTJE4iLonYul2,5.0,images/choice_trial_13.png,images/choice_trial_7.png,images/pattern_5.png,j,j,750.0,13.0,7.0,4.0,1.0,10.0,0.0,0.0,13.0,50.0,,,,,,5cb59c9e4c39f300173efd41,09:09:00,27/02/2024
html-keyboard-response,53,113388,0.0-24.0-1.0,,"<div style=""display: flex; flex-direction: column; align-items: center; margin-top: -40px;""><img src=""images/pattern_5.png"" style=""width: 234px; height: 230px; margin-top: -50px;""><div style=""display: flex; justify-content: space-between; margin-top: 33px;""><img src=""images/choice_trial_13.png"" style=""width: 408px; height: 417px; margin-right: 608px;""></div></div>",,delaylearn,learning,display_response,kFUJWrep1TZjcr9WTJE4iLonYul2,kFUJWrep1TZjcr9WTJE4iLonYul2,,,,,,,,,,,,,,,,,chosen stimuli: images/choice_trial_13.png,,,,,5cb59c9e4c39f300173efd41,09:09:00,27/02/2024
html-keyboard-response,54,114153,0.0-24.0-2.0,,,,delaylearn,learning,feedback_duration_window,kFUJWrep1TZjcr9WTJE4iLonYul2,kFUJWrep1TZjcr9WTJE4iLonYul2,,,,,,,,,,,,,,,,,,750.0,,,,5cb59c9e4c39f300173efd41,09:09:00,27/02/2024
html-keyboard-response,55,115668,0.0-24.0-3.0,,<div style='margin:auto;width: auto; font-size: 150%'><span style='font-weight: bold; font-size: 100px; color: red;'>0 points!</span><br><br></div>,,delaylearn,learning,feedback_image_window,kFUJWrep1TZjcr9WTJE4iLonYul2,kFUJWrep1TZjcr9WTJE4iLonYul2,,,,,,,,,,,,,,,,,,,,,,5cb59c9e4c39f300173efd41,09:09:00,27/02/2024
html-keyboard-response,56,118029,0.0-25.0,,"<div style=""font-size:100px;"">+</div>",,delaylearn,learning,ITI,kFUJWrep1TZjcr9WTJE4iLonYul2,kFUJWrep1TZjcr9WTJE4iLonYul2,,,,,,,,,,,,,,,,,,,2347.0,,,5cb59c9e4c39f300173efd41,09:09:00,27/02/2024
html-keyboard-response,57,118944,0.0-26.0-0.0,913.3000000119209,"<div style=""display: flex; flex-direction: column; align-items: center; margin-top: -40px;""><img src=""images/pattern_6.png"" style=""width: 234px; height: 230px; margin-top: -50px;""><div style=""display: flex; justify-content: space-between; margin-top: 33px;""><img src=""images/choice_trial_14.png"" style=""width: 408px; height: 417px; margin-right: 200px;""><img src=""images/choice_trial_9.png"" style=""width: 408px; height: 417px;""></div></div>",j,delaylearn,learning,trial,kFUJWrep1TZjcr9WTJE4iLonYul2,kFUJWrep1TZjcr9WTJE4iLonYul2,5.0,images/choice_trial_14.png,images/choice_trial_9.png,images/pattern_6.png,j,f,750.0,14.0,9.0,5.0,0.0,11.0,0.0,1.0,9.0,60.0,,,,,,5cb59c9e4c39f300173efd41,09:09:00,27/02/2024
html-keyboard-response,58,119954,0.0-26.0-1.0,,"<div style=""display: flex; flex-direction: column; align-items: center; margin-top: -40px;""><img src=""images/pattern_6.png"" style=""width: 234px; height: 230px; margin-top: -50px;""><div style=""display: flex; justify-content: space-between; margin-top: 33px;""><img src=""images/choice_trial_9.png"" style=""width: 408px; height: 417px; margin-left:608px;""></div></div>",,delaylearn,learning,display_response,kFUJWrep1TZjcr9WTJE4iLonYul2,kFUJWrep1TZjcr9WTJE4iLonYul2,,,,,,,,,,,,,,,,,chosen stimuli: images/choice_trial_9.png,,,,,5cb59c9e4c39f300173efd41,09:09:00,27/02/2024
html-keyboard-response,59,120718,0.0-26.0-2.0,,,,delaylearn,learning,feedback_duration_window,kFUJWrep1TZjcr9WTJE4iLonYul2,kFUJWrep1TZjcr9WTJE4iLonYul2,,,,,,,,,,,,,,,,,,750.0,,,,5cb59c9e4c39f300173efd41,09:09:00,27/02/2024
html-keyboard-response,60,122219,0.0-26.0-3.0,,<div style='margin:auto;width: auto; font-size: 150%'><span style='font-weight: bold; font-size: 100px; color: green;'>+10 points!</span><br><br></div>,,delaylearn,learning,feedback_image_window,kFUJWrep1TZjcr9WTJE4iLonYul2,kFUJWrep1TZjcr9WTJE4iLonYul2,,,,,,,,,,,,,,,,,,,,,,5cb59c9e4c39f300173efd41,09:09:00,27/02/2024
html-keyboard-response,61,122733,0.0-27.0-0.0,,,,,,mood_trial_fixation,kFUJWrep1TZjcr9WTJE4iLonYul2,,,,,,,,,,,,,,,,,,,,,,,5cb59c9e4c39f300173efd41,09:09:00,27/02/2024
lmdlab-html-vas-response,62,126456,0.0-27.0-1.0,2720.0,How happy are you right now?,0.6759259259259259,delaylearn,learning,mood_trial,kFUJWrep1TZjcr9WTJE4iLonYul2,kFUJWrep1TZjcr9WTJE4iLonYul2,,,,,,,,,,,,,,,,,,,,"['Very unhappy', 'Very happy']",,5cb59c9e4c39f300173efd41,09:09:00,27/02/2024
html-keyboard-response,63,127969,0.0-28.0,,"<div style=""font-size:100px;"">+</div>",,delaylearn,learning,ITI,kFUJWrep1TZjcr9WTJE4iLonYul2,kFUJWrep1TZjcr9WTJE4iLonYul2,,,,,,,,,,,,,,,,,,,1505.0,,,5cb59c9e4c39f300173efd41,09:09:00,27/02/2024
html-keyboard-response,64,129364,0.0-29.0-0.0,1393.5,"<div style=""display: flex; flex-direction: column; align-items: center; margin-top: -40px;""><img src=""images/pattern_1.png"" style=""width: 234px; height: 230px; margin-top: -50px;""><div style=""display: flex; justify-content: space-between; margin-top: 33px;""><img src=""images/choice_trial_15.png"" style=""width: 408px; height: 417px; margin-right: 200px;""><img src=""images/choice_trial_6.png"" style=""width: 408px; height: 417px;""></div></div>",f,delaylearn,learning,trial,kFUJWrep1TZjcr9WTJE4iLonYul2,kFUJWrep1TZjcr9WTJE4iLonYul2,5.0,images/choice_trial_15.png,images/choice_trial_6.png,images/pattern_1.png,j,j,7000.0,15.0,6.0,1.0,1.0,12.0,0.0,0.0,15.0,60.0,,,,,,5cb59c9e4c39f300173efd41,09:09:00,27/02/2024
html-keyboard-response,65,130367,0.0-29.0-1.0,,"<div style=""display: flex; flex-direction: column; align-items: center; margin-top: -40px;""><img src=""images/pattern_1.png"" style=""width: 234px; height: 230px; margin-top: -50px;""><div style=""display: flex; justify-content: space-between; margin-top: 33px;""><img src=""images/choice_trial_15.png"" style=""width: 408px; height: 417px; margin-right: 608px;""></div></div>",,delaylearn,learning,display_response,kFUJWrep1TZjcr9WTJE4iLonYul2,kFUJWrep1TZjcr9WTJE4iLonYul2,,,,,,,,,,,,,,,,,chosen stimuli: images/choice_trial_15.png,,,,,5cb59c9e4c39f300173efd41,09:09:00,27/02/2024
html-keyboard-response,66,137379,0.0-29.0-2.0,,,,delaylearn,learning,feedback_duration_window,kFUJWrep1TZjcr9WTJE4iLonYul2,kFUJWrep1TZjcr9WTJE4iLonYul2,,,,,,,,,,,,,,,,,,7000.0,,,,5cb59c9e4c39f300173efd41,09:09:00,27/02/2024
html-keyboard-response,67,138890,0.0-29.0-3.0,,<div style='margin:auto;width: auto; font-size: 150%'><span style='font-weight: bold; font-size: 100px; color: red;'>0 points!</span><br><br></div>,,delaylearn,learning,feedback_image_window,kFUJWrep1TZjcr9WTJE4iLonYul2,kFUJWrep1TZjcr9WTJE4iLonYul2,,,,,,,,,,,,,,,,,,,,,,5cb59c9e4c39f300173efd41,09:09:00,27/02/2024
html-keyboard-response,68,141379,0.0-30.0,,"<div style=""font-size:100px;"">+</div>",,delaylearn,learning,ITI,kFUJWrep1TZjcr9WTJE4iLonYul2,kFUJWrep1TZjcr9WTJE4iLonYul2,,,,,,,,,,,,,,,,,,,2473.0,,,5cb59c9e4c39f300173efd41,09:09:00,27/02/2024
html-keyboard-response,69,142088,0.0-31.0-0.0,704.6999999880791,"<div style=""display: flex; flex-direction: column; align-items: center; margin-top: -40px;""><img src=""images/pattern_3.png"" style=""width: 234px; height: 230px; margin-top: -50px;""><div style=""display: flex; justify-content: space-between; margin-top: 33px;""><img src=""images/choice_trial_2.png"" style=""width: 408px; height: 417px; margin-right: 200px;""><img src=""images/choice_trial_16.png"" style=""width: 408px; height: 417px;""></div></div>",j,delaylearn,learning,trial,kFUJWrep1TZjcr9WTJE4iLonYul2,kFUJWrep1TZjcr9WTJE4iLonYul2,5.0,images/choice_trial_2.png,images/choice_trial_16.png,images/pattern_3.png,f,j,7000.0,2.0,16.0,2.0,1.0,13.0,1.0,0.0,16.0,60.0,,,,,,5cb59c9e4c39f300173efd41,09:09:00,27/02/2024
html-keyboard-response,70,143102,0.0-31.0-1.0,,"<div style=""display: flex; flex-direction: column; align-items: center; margin-top: -40px;""><img src=""images/pattern_3.png"" style=""width: 234px; height: 230px; margin-top: -50px;""><div style=""display: flex; justify-content: space-between; margin-top: 33px;""><img src=""images/choice_trial_16.png"" style=""width: 408px; height: 417px; margin-left:608px;""></div></div>",,delaylearn,learning,display_response,kFUJWrep1TZjcr9WTJE4iLonYul2,kFUJWrep1TZjcr9WTJE4iLonYul2,,,,,,,,,,,,,,,,,chosen stimuli: images/choice_trial_16.png,,,,,5cb59c9e4c39f300173efd41,09:09:00,27/02/2024
html-keyboard-response,71,150111,0.0-31.0-2.0,,,,delaylearn,learning,feedback_duration_window,kFUJWrep1TZjcr9WTJE4iLonYul2,kFUJWrep1TZjcr9WTJE4iLonYul2,,,,,,,,,,,,,,,,,,7000.0,,,,5cb59c9e4c39f300173efd41,09:09:00,27/02/2024
html-keyboard-response,72,151620,0.0-31.0-3.0,,<div style='margin:auto;width: auto; font-size: 150%'><span style='font-weight: bold; font-size: 100px; color: red;'>0 points!</span><br><br></div>,,delaylearn,learning,feedback_image_window,kFUJWrep1TZjcr9WTJE4iLonYul2,kFUJWrep1TZjcr9WTJE4iLonYul2,,,,,,,,,,,,,,,,,,,,,,5cb59c9e4c39f300173efd41,09:09:00,27/02/2024
html-keyboard-response,73,153469,0.0-32.0,,"<div style=""font-size:100px;"">+</div>",,delaylearn,learning,ITI,kFUJWrep1TZjcr9WTJE4iLonYul2,kFUJWrep1TZjcr9WTJE4iLonYul2,,,,,,,,,,,,,,,,,,,1837.0,,,5cb59c9e4c39f300173efd41,09:09:00,27/02/2024
html-keyboard-response,74,154808,0.0-33.0-0.0,1335.199999988079,"<div style=""display: flex; flex-direction: column; align-items: center; margin-top: -40px;""><img src=""images/pattern_5.png"" style=""width: 234px; height: 230px; margin-top: -50px;""><div style=""display: flex; justify-content: space-between; margin-top: 33px;""><img src=""images/choice_trial_7.png"" style=""width: 408px; height: 417px; margin-right: 200px;""><img src=""images/choice_trial_13.png"" style=""width: 408px; height: 417px;""></div></div>",f,delaylearn,learning,trial,kFUJWrep1TZjcr9WTJE4iLonYul2,kFUJWrep1TZjcr9WTJE4iLonYul2,5.0,images/choice_trial_7.png,images/choice_trial_13.png,images/pattern_5.png,f,f,750.0,7.0,13.0,4.0,0.0,14.0,1.0,1.0,7.0,70.0,,,,,,5cb59c9e4c39f300173efd41,09:09:00,27/02/2024
html-keyboard-response,75,155817,0.0-33.0-1.0,,"<div style=""display: flex; flex-direction: column; align-items: center; margin-top: -40px;""><img src=""images/pattern_5.png"" style=""width: 234px; height: 230px; margin-top: -50px;""><div style=""display: flex; justify-content: space-between; margin-top: 33px;""><img src=""images/choice_trial_7.png"" style=""width: 408px; height: 417px; margin-right: 608px;""></div></div>",,delaylearn,learning,display_response,kFUJWrep1TZjcr9WTJE4iLonYul2,kFUJWrep1TZjcr9WTJE4iLonYul2,,,,,,,,,,,,,,,,,chosen stimuli: images/choice_trial_7.png,,,,,5cb59c9e4c39f300173efd41,09:09:00,27/02/2024
html-keyboard-response,76,156585,0.0-33.0-2.0,,,,delaylearn,learning,feedback_duration_window,kFUJWrep1TZjcr9WTJE4iLonYul2,kFUJWrep1TZjcr9WTJE4iLonYul2,,,,,,,,,,,,,,,,,,750.0,,,,5cb59c9e4c39f300173efd41,09:09:00,27/02/2024
html-keyboard-response,77,158092,0.0-33.0-3.0,,<div style='margin:auto;width: auto; font-size: 150%'><span style='font-weight: bold; font-size: 100px; color: green;'>+10 points!</span><br><br></div>,,delaylearn,learning,feedback_image_window,kFUJWrep1TZjcr9WTJE4iLonYul2,kFUJWrep1TZjcr9WTJE4iLonYul2,,,,,,,,,,,,,,,,,,,,,,5cb59c9e4c39f300173efd41,09:09:00,27/02/2024
html-keyboard-response,78,158602,0.0-34.0-0.0,,,,,,mood_trial_fixation,kFUJWrep1TZjcr9WTJE4iLonYul2,,,,,,,,,,,,,,,,,,,,,,,5cb59c9e4c39f300173efd41,09:09:00,27/02/2024
lmdlab-html-vas-response,79,162267,0.0-34.0-1.0,2648.0,How happy are you right now?,0.7129629629629629,delaylearn,learning,mood_trial,kFUJWrep1TZjcr9WTJE4iLonYul2,kFUJWrep1TZjcr9WTJE4iLonYul2,,,,,,,,,,,,,,,,,,,,"['Very unhappy', 'Very happy']",,5cb59c9e4c39f300173efd41,09:09:00,27/02/2024
html-keyboard-response,80,164429,0.0-35.0,,"<div style=""font-size:100px;"">+</div>",,delaylearn,learning,ITI,kFUJWrep1TZjcr9WTJE4iLonYul2,kFUJWrep1TZjcr9WTJE4iLonYul2,,,,,,,,,,,,,,,,,,,2145.0,,,5cb59c9e4c39f300173efd41,09:09:00,27/02/2024
html-keyboard-response,81,165689,0.0-36.0-0.0,1256.0,"<div style=""display: flex; flex-direction: column; align-items: center; margin-top: -40px;""><img src=""images/pattern_6.png"" style=""width: 234px; height: 230px; margin-top: -50px;""><div style=""display: flex; justify-content: space-between; margin-top: 33px;""><img src=""images/choice_trial_14.png"" style=""width: 408px; height: 417px; margin-right: 200px;""><img src=""images/choice_trial_9.png"" style=""width: 408px; height: 417px;""></div></div>",j,delaylearn,learning,trial,kFUJWrep1TZjcr9WTJE4iLonYul2,kFUJWrep1TZjcr9WTJE4iLonYul2,5.0,images/choice_trial_14.png,images/choice_trial_9.png,images/pattern_6.png,f,f,750.0,14.0,9.0,5.0,0.0,15.0,0.0,0.0,9.0,70.0,,,,,,5cb59c9e4c39f300173efd41,09:09:00,27/02/2024
html-keyboard-response,82,166692,0.0-36.0-1.0,,"<div style=""display: flex; flex-direction: column; align-items: center; margin-top: -40px;""><img src=""images/pattern_6.png"" style=""width: 234px; height: 230px; margin-top: -50px;""><div style=""display: flex; justify-content: space-between; margin-top: 33px;""><img src=""images/choice_trial_9.png"" style=""width: 408px; height: 417px; margin-left:608px;""></div></div>",,delaylearn,learning,display_response,kFUJWrep1TZjcr9WTJE4iLonYul2,kFUJWrep1TZjcr9WTJE4iLonYul2,,,,,,,,,,,,,,,,,chosen stimuli: images/choice_trial_9.png,,,,,5cb59c9e4c39f300173efd41,09:09:00,27/02/2024
html-keyboard-response,83,167449,0.0-36.0-2.0,,,,delaylearn,learning,feedback_duration_window,kFUJWrep1TZjcr9WTJE4iLonYul2,kFUJWrep1TZjcr9WTJE4iLonYul2,,,,,,,,,,,,,,,,,,750.0,,,,5cb59c9e4c39f300173efd41,09:09:00,27/02/2024
html-keyboard-response,84,168966,0.0-36.0-3.0,,<div style='margin:auto;width: auto; font-size: 150%'><span style='font-weight: bold; font-size: 100px; color: red;'>0 points!</span><br><br></div>,,delaylearn,learning,feedback_image_window,kFUJWrep1TZjcr9WTJE4iLonYul2,kFUJWrep1TZjcr9WTJE4iLonYul2,,,,,,,,,,,,,,,,,,,,,,5cb59c9e4c39f300173efd41,09:09:00,27/02/2024
html-keyboard-response,85,170678,0.0-37.0,,"<div style=""font-size:100px;"">+</div>",,delaylearn,learning,ITI,kFUJWrep1TZjcr9WTJE4iLonYul2,kFUJWrep1TZjcr9WTJE4iLonYul2,,,,,,,,,,,,,,,,,,,1707.0,,,5cb59c9e4c39f300173efd41,09:09:00,27/02/2024
html-keyboard-response,86,171990,0.0-38.0-0.0,1310.3999999761581,"<div style=""display: flex; flex-direction: column; align-items: center; margin-top: -40px;""><img src=""images/pattern_4.png"" style=""width: 234px; height: 230px; margin-top: -50px;""><div style=""display: flex; justify-content: space-between; margin-top: 33px;""><img src=""images/choice_trial_4.png"" style=""width: 408px; height: 417px; margin-right: 200px;""><img src=""images/choice_trial_11.png"" style=""width: 408px; height: 417px;""></div></div>",j,delaylearn,learning,trial,kFUJWrep1TZjcr9WTJE4iLonYul2,kFUJWrep1TZjcr9WTJE4iLonYul2,5.0,images/choice_trial_4.png,images/choice_trial_11.png,images/pattern_4.png,j,j,7000.0,4.0,11.0,3.0,1.0,16.0,1.0,1.0,11.0,80.0,,,,,,5cb59c9e4c39f300173efd41,09:09:00,27/02/2024
html-keyboard-response,87,172997,0.0-38.0-1.0,,"<div style=""display: flex; flex-direction: column; align-items: center; margin-top: -40px;""><img src=""images/pattern_4.png"" style=""width: 234px; height: 230px; margin-top: -50px;""><div style=""display: flex; justify-content: space-between; margin-top: 33px;""><img src=""images/choice_trial_11.png"" style=""width: 408px; height: 417px; margin-left:608px;""></div></div>",,delaylearn,learning,display_response,kFUJWrep1TZjcr9WTJE4iLonYul2,kFUJWrep1TZjcr9WTJE4iLonYul2,,,,,,,,,,,,,,,,,chosen stimuli: images/choice_trial_11.png,,,,,5cb59c9e4c39f300173efd41,09:09:00,27/02/2024
html-keyboard-response,88,180010,0.0-38.0-2.0,,,,delaylearn,learning,feedback_duration_window,kFUJWrep1TZjcr9WTJE4iLonYul2,kFUJWrep1TZjcr9WTJE4iLonYul2,,,,,,,,,,,,,,,,,,7000.0,,,,5cb59c9e4c39f300173efd41,09:09:00,27/02/2024
html-keyboard-response,89,181521,0.0-38.0-3.0,,<div style='margin:auto;width: auto; font-size: 150%'><span style='font-weight: bold; font-size: 100px; color: green;'>+10 points!</span><br><br></div>,,delaylearn,learning,feedback_image_window,kFUJWrep1TZjcr9WTJE4iLonYul2,kFUJWrep1TZjcr9WTJE4iLonYul2,,,,,,,,,,,,,,,,,,,,,,5cb59c9e4c39f300173efd41,09:09:00,27/02/2024
html-keyboard-response,90,183395,0.0-39.0,,"<div style=""font-size:100px;"">+</div>",,delaylearn,learning,ITI,kFUJWrep1TZjcr9WTJE4iLonYul2,kFUJWrep1TZjcr9WTJE4iLonYul2,,,,,,,,,,,,,,,,,,,1868.0,,,5cb59c9e4c39f300173efd41,09:09:00,27/02/2024
html-keyboard-response,91,184706,0.0-40.0-0.0,1306.5999999642372,"<div style=""display: flex; flex-direction: column; align-items: center; margin-top: -40px;""><img src=""images/pattern_7.png"" style=""width: 234px; height: 230px; margin-top: -50px;""><div style=""display: flex; justify-content: space-between; margin-top: 33px;""><img src=""images/choice_trial_8.png"" style=""width: 408px; height: 417px; margin-right: 200px;""><img src=""images/choice_trial_10.png"" style=""width: 408px; height: 417px;""></div></div>",f,delaylearn,learning,trial,kFUJWrep1TZjcr9WTJE4iLonYul2,kFUJWrep1TZjcr9WTJE4iLonYul2,5.0,images/choice_trial_8.png,images/choice_trial_10.png,images/pattern_7.png,j,f,750.0,8.0,10.0,6.0,0.0,17.0,1.0,0.0,8.0,80.0,,,,,,5cb59c9e4c39f300173efd41,09:09:00,27/02/2024
html-keyboard-response,92,185723,0.0-40.0-1.0,,"<div style=""display: flex; flex-direction: column; align-items: center; margin-top: -40px;""><img src=""images/pattern_7.png"" style=""width: 234px; height: 230px; margin-top: -50px;""><div style=""display: flex; justify-content: space-between; margin-top: 33px;""><img src=""images/choice_trial_8.png"" style=""width: 408px; height: 417px; margin-right: 608px;""></div></div>",,delaylearn,learning,display_response,kFUJWrep1TZjcr9WTJE4iLonYul2,kFUJWrep1TZjcr9WTJE4iLonYul2,,,,,,,,,,,,,,,,,chosen stimuli: images/choice_trial_8.png,,,,,5cb59c9e4c39f300173efd41,09:09:00,27/02/2024
html-keyboard-response,93,186488,0.0-40.0-2.0,,,,delaylearn,learning,feedback_duration_window,kFUJWrep1TZjcr9WTJE4iLonYul2,kFUJWrep1TZjcr9WTJE4iLonYul2,,,,,,,,,,,,,,,,,,750.0,,,,5cb59c9e4c39f300173efd41,09:09:00,27/02/2024
html-keyboard-response,94,188005,0.0-40.0-3.0,,<div style='margin:auto;width: auto; font-size: 150%'><span style='font-weight: bold; font-size: 100px; color: red;'>0 points!</span><br><br></div>,,delaylearn,learning,feedback_image_window,kFUJWrep1TZjcr9WTJE4iLonYul2,kFUJWrep1TZjcr9WTJE4iLonYul2,,,,,,,,,,,,,,,,,,,,,,5cb59c9e4c39f300173efd41,09:09:00,27/02/2024
html-keyboard-response,95,189705,0.0-41.0,,"<div style=""font-size:100px;"">+</div>",,delaylearn,learning,ITI,kFUJWrep1TZjcr9WTJE4iLonYul2,kFUJWrep1TZjcr9WTJE4iLonYul2,,,,,,,,,,,,,,,,,,,1695.0,,,5cb59c9e4c39f300173efd41,09:09:00,27/02/2024
html-keyboard-response,96,191315,0.0-42.0-0.0,1605.699999988079,"<div style=""display: flex; flex-direction: column; align-items: center; margin-top: -40px;""><img src=""images/pattern_1.png"" style=""width: 234px; height: 230px; margin-top: -50px;""><div style=""display: flex; justify-content: space-between; margin-top: 33px;""><img src=""images/choice_trial_6.png"" style=""width: 408px; height: 417px; margin-right: 200px;""><img src=""images/choice_trial_15.png"" style=""width: 408px; height: 417px;""></div></div>",j,delaylearn,learning,trial,kFUJWrep1TZjcr9WTJE4iLonYul2,kFUJWrep1TZjcr9WTJE4iLonYul2,5.0,images/choice_trial_6.png,images/choice_trial_15.png,images/pattern_1.png,f,f,7000.0,6.0,15.0,1.0,0.0,18.0,0.0,0.0,15.0,80.0,,,,,,5cb59c9e4c39f300173efd41,09:09:00,27/02/2024
html-keyboard-response,97,192329,0.0-42.0-1.0,,"<div style=""display: flex; flex-direction: column; align-items: center; margin-top: -40px;""><img src=""images/pattern_1.png"" style=""width: 234px; height: 230px; margin-top: -50px;""><div style=""display: flex; justify-content: space-between; margin-top: 33px;""><img src=""images/choice_trial_15.png"" style=""width: 408px; height: 417px; margin-left:608px;""></div></div>",,delaylearn,learning,display_response,kFUJWrep1TZjcr9WTJE4iLonYul2,kFUJWrep1TZjcr9WTJE4iLonYul2,,,,,,,,,,,,,,,,,chosen stimuli: images/choice_trial_15.png,,,,,5cb59c9e4c39f300173efd41,09:09:00,27/02/2024
html-keyboard-response,98,199333,0.0-42.0-2.0,,,,delaylearn,learning,feedback_duration_window,kFUJWrep1TZjcr9WTJE4iLonYul2,kFUJWrep1TZjcr9WTJE4iLonYul2,,,,,,,,,,,,,,,,,,7000.0,,,,5cb59c9e4c39f300173efd41,09:09:00,27/02/2024
html-keyboard-response,99,200847,0.0-42.0-3.0,,<div style='margin:auto;width: auto; font-size: 150%'><span style='font-weight: bold; font-size: 100px; color: red;'>0 points!</span><br><br></div>,,delaylearn,learning,feedback_image_window,kFUJWrep1TZjcr9WTJE4iLonYul2,kFUJWrep1TZjcr9WTJE4iLonYul2,,,,,,,,,,,,,,,,,,,,,,5cb59c9e4c39f300173efd41,09:09:00,27/02/2024
html-keyboard-response,100,202514,0.0-43.0,,"<div style=""font-size:100px;"">+</div>",,delaylearn,learning,ITI,kFUJWrep1TZjcr9WTJE4iLonYul2,kFUJWrep1TZjcr9WTJE4iLonYul2,,,,,,,,,,,,,,,,,,,1665.0,,,5cb59c9e4c39f300173efd41,09:09:00,27/02/2024
html-keyboard-response,101,204172,0.0-44.0-0.0,1653.2000000476837,"<div style=""display: flex; flex-direction: column; align-items: center; margin-top: -40px;""><img src=""images/pattern_6.png"" style=""width: 234px; height: 230px; margin-top: -50px;""><div style=""display: flex; justify-content: space-between; margin-top: 33px;""><img src=""images/choice_trial_9.png"" style=""width: 408px; height: 417px; margin-right: 200px;""><img src=""images/choice_trial_14.png"" style=""width: 408px; height: 417px;""></div></div>",j,delaylearn,learning,trial,kFUJWrep1TZjcr9WTJE4iLonYul2,kFUJWrep1TZjcr9WTJE4iLonYul2,5.0,images/choice_trial_9.png,images/choice_trial_14.png,images/pattern_6.png,j,j,750.0,9.0,14.0,5.0,1.0,19.0,1.0,1.0,14.0,90.0,,,,,,5cb59c9e4c39f300173efd41,09:09:00,27/02/2024
html-keyboard-response,102,205175,0.0-44.0-1.0,,"<div style=""display: flex; flex-direction: column; align-items: center; margin-top: -40px;""><img src=""images/pattern_6.png"" style=""width: 234px; height: 230px; margin-top: -50px;""><div style=""display: flex; justify-content: space-between; margin-top: 33px;""><img src=""images/choice_trial_14.png"" style=""width: 408px; height: 417px; margin-left:608px;""></div></div>",,delaylearn,learning,display_response,kFUJWrep1TZjcr9WTJE4iLonYul2,kFUJWrep1TZjcr9WTJE4iLonYul2,,,,,,,,,,,,,,,,,chosen stimuli: images/choice_trial_14.png,,,,,5cb59c9e4c39f300173efd41,09:09:00,27/02/2024
html-keyboard-response,103,205942,0.0-44.0-2.0,,,,delaylearn,learning,feedback_duration_window,kFUJWrep1TZjcr9WTJE4iLonYul2,kFUJWrep1TZjcr9WTJE4iLonYul2,,,,,,,,,,,,,,,,,,750.0,,,,5cb59c9e4c39f300173efd41,09:09:00,27/02/2024
html-keyboard-response,104,207457,0.0-44.0-3.0,,<div style='margin:auto;width: auto; font-size: 150%'><span style='font-weight: bold; font-size: 100px; color: green;'>+10 points!</span><br><br></div>,,delaylearn,learning,feedback_image_window,kFUJWrep1TZjcr9WTJE4iLonYul2,kFUJWrep1TZjcr9WTJE4iLonYul2,,,,,,,,,,,,,,,,,,,,,,5cb59c9e4c39f300173efd41,09:09:00,27/02/2024
html-keyboard-response,105,209048,0.0-45.0,,"<div style=""font-size:100px;"">+</div>",,delaylearn,learning,ITI,kFUJWrep1TZjcr9WTJE4iLonYul2,kFUJWrep1TZjcr9WTJE4iLonYul2,,,,,,,,,,,,,,,,,,,1577.0,,,5cb59c9e4c39f300173efd41,09:09:00,27/02/2024
html-keyboard-response,106,210706,0.0-46.0-0.0,1653.6000000238419,"<div style=""display: flex; flex-direction: column; align-items: center; margin-top: -40px;""><img src=""images/pattern_4.png"" style=""width: 234px; height: 230px; margin-top: -50px;""><div style=""display: flex; justify-content: space-between; margin-top: 33px;""><img src=""images/choice_trial_11.png"" style=""width: 408px; height: 417px; margin-right: 200px;""><img src=""images/choice_trial_4.png"" style=""width: 408px; height: 417px;""></div></div>",j,delaylearn,learning,trial,kFUJWrep1TZjcr9WTJE4iLonYul2,kFUJWrep1TZjcr9WTJE4iLonYul2,5.0,images/choice_trial_11.png,images/choice_trial_4.png,images/pattern_4.png,f,f,7000.0,11.0,4.0,3.0,0.0,20.0,0.0,0.0,4.0,90.0,,,,,,5cb59c9e4c39f300173efd41,09:09:00,27/02/2024
html-keyboard-response,107,211714,0.0-46.0-1.0,,"<div style=""display: flex; flex-direction: column; align-items: center; margin-top: -40px;""><img src=""images/pattern_4.png"" style=""width: 234px; height: 230px; margin-top: -50px;""><div style=""display: flex; justify-content: space-between; margin-top: 33px;""><img src=""images/choice_trial_4.png"" style=""width: 408px; height: 417px; margin-left:608px;""></div></div>",,delaylearn,learning,display_response,kFUJWrep1TZjcr9WTJE4iLonYul2,kFUJWrep1TZjcr9WTJE4iLonYul2,,,,,,,,,,,,,,,,,chosen stimuli: images/choice_trial_4.png,,,,,5cb59c9e4c39f300173efd41,09:09:00,27/02/2024
html-keyboard-response,108,218731,0.0-46.0-2.0,,,,delaylearn,learning,feedback_duration_window,kFUJWrep1TZjcr9WTJE4iLonYul2,kFUJWrep1TZjcr9WTJE4iLonYul2,,,,,,,,,,,,,,,,,,7000.0,,,,5cb59c9e4c39f300173efd41,09:09:00,27/02/2024
html-keyboard-response,109,220243,0.0-46.0-3.0,,<div style='margin:auto;width: auto; font-size: 150%'><span style='font-weight: bold; font-size: 100px; color: red;'>0 points!</span><br><br></div>,,delaylearn,learning,feedback_image_window,kFUJWrep1TZjcr9WTJE4iLonYul2,kFUJWrep1TZjcr9WTJE4iLonYul2,,,,,,,,,,,,,,,,,,,,,,5cb59c9e4c39f300173efd41,09:09:00,27/02/2024
html-keyboard-response,110,220757,0.0-47.0-0.0,,,,,,mood_trial_fixation,kFUJWrep1TZjcr9WTJE4iLonYul2,,,,,,,,,,,,,,,,,,,,,,,5cb59c9e4c39f300173efd41,09:09:00,27/02/2024
lmdlab-html-vas-response,111,225417,0.0-47.0-1.0,3637.0,How happy are you right now?,0.8078703703703703,delaylearn,learning,mood_trial,kFUJWrep1TZjcr9WTJE4iLonYul2,kFUJWrep1TZjcr9WTJE4iLonYul2,,,,,,,,,,,,,,,,,,,,"['Very unhappy', 'Very happy']",,5cb59c9e4c39f300173efd41,09:09:00,27/02/2024
html-keyboard-response,112,227835,0.0-48.0,,"<div style=""font-size:100px;"">+</div>",,delaylearn,learning,ITI,kFUJWrep1TZjcr9WTJE4iLonYul2,kFUJWrep1TZjcr9WTJE4iLonYul2,,,,,,,,,,,,,,,,,,,2405.0,,,5cb59c9e4c39f300173efd41,09:09:00,27/02/2024
html-keyboard-response,113,229327,0.0-49.0-0.0,1487.0999999642372,"<div style=""display: flex; flex-direction: column; align-items: center; margin-top: -40px;""><img src=""images/pattern_7.png"" style=""width: 234px; height: 230px; margin-top: -50px;""><div style=""display: flex; justify-content: space-between; margin-top: 33px;""><img src=""images/choice_trial_10.png"" style=""width: 408px; height: 417px; margin-right: 200px;""><img src=""images/choice_trial_8.png"" style=""width: 408px; height: 417px;""></div></div>",j,delaylearn,learning,trial,kFUJWrep1TZjcr9WTJE4iLonYul2,kFUJWrep1TZjcr9WTJE4iLonYul2,5.0,images/choice_trial_10.png,images/choice_trial_8.png,images/pattern_7.png,j,j,750.0,10.0,8.0,6.0,1.0,21.0,1.0,1.0,8.0,100.0,,,,,,5cb59c9e4c39f300173efd41,09:09:00,27/02/2024
html-keyboard-response,114,230343,0.0-49.0-1.0,,"<div style=""display: flex; flex-direction: column; align-items: center; margin-top: -40px;""><img src=""images/pattern_7.png"" style=""width: 234px; height: 230px; margin-top: -50px;""><div style=""display: flex; justify-content: space-between; margin-top: 33px;""><img src=""images/choice_trial_8.png"" style=""width: 408px; height: 417px; margin-left:608px;""></div></div>",,delaylearn,learning,display_response,kFUJWrep1TZjcr9WTJE4iLonYul2,kFUJWrep1TZjcr9WTJE4iLonYul2,,,,,,,,,,,,,,,,,chosen stimuli: images/choice_trial_8.png,,,,,5cb59c9e4c39f300173efd41,09:09:00,27/02/2024
html-keyboard-response,115,231105,0.0-49.0-2.0,,,,delaylearn,learning,feedback_duration_window,kFUJWrep1TZjcr9WTJE4iLonYul2,kFUJWrep1TZjcr9WTJE4iLonYul2,,,,,,,,,,,,,,,,,,750.0,,,,5cb59c9e4c39f300173efd41,09:09:00,27/02/2024
html-keyboard-response,116,232612,0.0-49.0-3.0,,<div style='margin:auto;width: auto; font-size: 150%'><span style='font-weight: bold; font-size: 100px; color: green;'>+10 points!</span><br><br></div>,,delaylearn,learning,feedback_image_window,kFUJWrep1TZjcr9WTJE4iLonYul2,kFUJWrep1TZjcr9WTJE4iLonYul2,,,,,,,,,,,,,,,,,,,,,,5cb59c9e4c39f300173efd41,09:09:00,27/02/2024
html-keyboard-response,117,234990,0.0-50.0,,"<div style=""font-size:100px;"">+</div>",,delaylearn,learning,ITI,kFUJWrep1TZjcr9WTJE4iLonYul2,kFUJWrep1TZjcr9WTJE4iLonYul2,,,,,,,,,,,,,,,,,,,2360.0,,,5cb59c9e4c39f300173efd41,09:09:00,27/02/2024
html-keyboard-response,118,237732,0.0-51.0-0.0,2736.7999999523163,"<div style=""display: flex; flex-direction: column; align-items: center; margin-top: -40px;""><img src=""images/pattern_1.png"" style=""width: 234px; height: 230px; margin-top: -50px;""><div style=""display: flex; justify-content: space-between; margin-top: 33px;""><img src=""images/choice_trial_15.png"" style=""width: 408px; height: 417px; margin-right: 200px;""><img src=""images/choice_trial_6.png"" style=""width: 408px; height: 417px;""></div></div>",f,delaylearn,learning,trial,kFUJWrep1TZjcr9WTJE4iLonYul2,kFUJWrep1TZjcr9WTJE4iLonYul2,5.0,images/choice_trial_15.png,images/choice_trial_6.png,images/pattern_1.png,f,j,7000.0,15.0,6.0,1.0,1.0,22.0,0.0,1.0,15.0,110.0,,,,,,5cb59c9e4c39f300173efd41,09:09:00,27/02/2024
html-keyboard-response,119,238736,0.0-51.0-1.0,,"<div style=""display: flex; flex-direction: column; align-items: center; margin-top: -40px;""><img src=""images/pattern_1.png"" style=""width: 234px; height: 230px; margin-top: -50px;""><div style=""display: flex; justify-content: space-between; margin-top: 33px;""><img src=""images/choice_trial_15.png"" style=""width: 408px; height: 417px; margin-right: 608px;""></div></div>",,delaylearn,learning,display_response,kFUJWrep1TZjcr9WTJE4iLonYul2,kFUJWrep1TZjcr9WTJE4iLonYul2,,,,,,,,,,,,,,,,,chosen stimuli: images/choice_trial_15.png,,,,,5cb59c9e4c39f300173efd41,09:09:00,27/02/2024
html-keyboard-response,120,245747,0.0-51.0-2.0,,,,delaylearn,learning,feedback_duration_window,kFUJWrep1TZjcr9WTJE4iLonYul2,kFUJWrep1TZjcr9WTJE4iLonYul2,,,,,,,,,,,,,,,,,,7000.0,,,,5cb59c9e4c39f300173efd41,09:09:00,27/02/2024
html-keyboard-response,121,247264,0.0-51.0-3.0,,<div style='margin:auto;width: auto; font-size: 150%'><span style='font-weight: bold; font-size: 100px; color: green;'>+10 points!</span><br><br></div>,,delaylearn,learning,feedback_image_window,kFUJWrep1TZjcr9WTJE4iLonYul2,kFUJWrep1TZjcr9WTJE4iLonYul2,,,,,,,,,,,,,,,,,,,,,,5cb59c9e4c39f300173efd41,09:09:00,27/02/2024
html-keyboard-response,122,249413,0.0-52.0,,"<div style=""font-size:100px;"">+</div>",,delaylearn,learning,ITI,kFUJWrep1TZjcr9WTJE4iLonYul2,kFUJWrep1TZjcr9WTJE4iLonYul2,,,,,,,,,,,,,,,,,,,2134.0,,,5cb59c9e4c39f300173efd41,09:09:00,27/02/2024
html-keyboard-response,123,250701,0.0-53.0-0.0,1282.199999988079,"<div style=""display: flex; flex-direction: column; align-items: center; margin-top: -40px;""><img src=""images/pattern_5.png"" style=""width: 234px; height: 230px; margin-top: -50px;""><div style=""display: flex; justify-content: space-between; margin-top: 33px;""><img src=""images/choice_trial_13.png"" style=""width: 408px; height: 417px; margin-right: 200px;""><img src=""images/choice_trial_7.png"" style=""width: 408px; height: 417px;""></div></div>",j,delaylearn,learning,trial,kFUJWrep1TZjcr9WTJE4iLonYul2,kFUJWrep1TZjcr9WTJE4iLonYul2,5.0,images/choice_trial_13.png,images/choice_trial_7.png,images/pattern_5.png,j,j,750.0,13.0,7.0,4.0,1.0,23.0,1.0,1.0,7.0,120.0,,,,,,5cb59c9e4c39f300173efd41,09:09:00,27/02/2024
html-keyboard-response,124,251719,0.0-53.0-1.0,,"<div style=""display: flex; flex-direction: column; align-items: center; margin-top: -40px;""><img src=""images/pattern_5.png"" style=""width: 234px; height: 230px; margin-top: -50px;""><div style=""display: flex; justify-content: space-between; margin-top: 33px;""><img src=""images/choice_trial_7.png"" style=""width: 408px; height: 417px; margin-left:608px;""></div></div>",,delaylearn,learning,display_response,kFUJWrep1TZjcr9WTJE4iLonYul2,kFUJWrep1TZjcr9WTJE4iLonYul2,,,,,,,,,,,,,,,,,chosen stimuli: images/choice_trial_7.png,,,,,5cb59c9e4c39f300173efd41,09:09:00,27/02/2024
html-keyboard-response,125,252486,0.0-53.0-2.0,,,,delaylearn,learning,feedback_duration_window,kFUJWrep1TZjcr9WTJE4iLonYul2,kFUJWrep1TZjcr9WTJE4iLonYul2,,,,,,,,,,,,,,,,,,750.0,,,,5cb59c9e4c39f300173efd41,09:09:00,27/02/2024
html-keyboard-response,126,253989,0.0-53.0-3.0,,<div style='margin:auto;width: auto; font-size: 150%'><span style='font-weight: bold; font-size: 100px; color: green;'>+10 points!</span><br><br></div>,,delaylearn,learning,feedback_image_window,kFUJWrep1TZjcr9WTJE4iLonYul2,kFUJWrep1TZjcr9WTJE4iLonYul2,,,,,,,,,,,,,,,,,,,,,,5cb59c9e4c39f300173efd41,09:09:00,27/02/2024
html-keyboard-response,127,255875,0.0-54.0,,"<div style=""font-size:100px;"">+</div>",,delaylearn,learning,ITI,kFUJWrep1TZjcr9WTJE4iLonYul2,kFUJWrep1TZjcr9WTJE4iLonYul2,,,,,,,,,,,,,,,,,,,1877.0,,,5cb59c9e4c39f300173efd41,09:09:00,27/02/2024
html-keyboard-response,128,257095,0.0-55.0-0.0,1214.699999988079,"<div style=""display: flex; flex-direction: column; align-items: center; margin-top: -40px;""><img src=""images/pattern_3.png"" style=""width: 234px; height: 230px; margin-top: -50px;""><div style=""display: flex; justify-content: space-between; margin-top: 33px;""><img src=""images/choice_trial_2.png"" style=""width: 408px; height: 417px; margin-right: 200px;""><img src=""images/choice_trial_16.png"" style=""width: 408px; height: 417px;""></div></div>",f,delaylearn,learning,trial,kFUJWrep1TZjcr9WTJE4iLonYul2,kFUJWrep1TZjcr9WTJE4iLonYul2,5.0,images/choice_trial_2.png,images/choice_trial_16.png,images/pattern_3.png,j,j,7000.0,2.0,16.0,2.0,1.0,24.0,0.0,0.0,2.0,120.0,,,,,,5cb59c9e4c39f300173efd41,09:09:00,27/02/2024
html-keyboard-response,129,258105,0.0-55.0-1.0,,"<div style=""display: flex; flex-direction: column; align-items: center; margin-top: -40px;""><img src=""images/pattern_3.png"" style=""width: 234px; height: 230px; margin-top: -50px;""><div style=""display: flex; justify-content: space-between; margin-top: 33px;""><img src=""images/choice_trial_2.png"" style=""width: 408px; height: 417px; margin-right: 608px;""></div></div>",,delaylearn,learning,display_response,kFUJWrep1TZjcr9WTJE4iLonYul2,kFUJWrep1TZjcr9WTJE4iLonYul2,,,,,,,,,,,,,,,,,chosen stimuli: images/choice_trial_2.png,,,,,5cb59c9e4c39f300173efd41,09:09:00,27/02/2024
html-keyboard-response,130,265108,0.0-55.0-2.0,,,,delaylearn,learning,feedback_duration_window,kFUJWrep1TZjcr9WTJE4iLonYul2,kFUJWrep1TZjcr9WTJE4iLonYul2,,,,,,,,,,,,,,,,,,7000.0,,,,5cb59c9e4c39f300173efd41,09:09:00,27/02/2024
html-keyboard-response,131,266619,0.0-55.0-3.0,,<div style='margin:auto;width: auto; font-size: 150%'><span style='font-weight: bold; font-size: 100px; color: red;'>0 points!</span><br><br></div>,,delaylearn,learning,feedback_image_window,kFUJWrep1TZjcr9WTJE4iLonYul2,kFUJWrep1TZjcr9WTJE4iLonYul2,,,,,,,,,,,,,,,,,,,,,,5cb59c9e4c39f300173efd41,09:09:00,27/02/2024
lmdlab-html-vas-response,132,272876,0.0-56.0-0.0,4732.0,*How <b><u>confident</u></b> are you feeling about your answers at this moment?*,0.2777777777777778,rewlearn,rate_confidence,,kFUJWrep1TZjcr9WTJE4iLonYul2,kFUJWrep1TZjcr9WTJE4iLonYul2,,,,,,,,,,,,,,,,,,,,"['No confidence', 'Complete confidence']",,5cb59c9e4c39f300173efd41,09:09:00,27/02/2024
lmdlab-rest-trial-limit,133,282509,0.0-56.0-1.0,8125.399999976158,"<div style=""font-size:40px;""><b>Please take a break!</b><br><br><br><br><p>Great work: you earned undefined points.<br><br><br><p>You have completed part(s) 1 of 6.<br><br><br><br>When you are ready to continue<br><br><br>please click the button.</p><br><br>",0,delaylearn,learning,break,kFUJWrep1TZjcr9WTJE4iLonYul2,kFUJWrep1TZjcr9WTJE4iLonYul2,,,,,,,,,,,,,,,,,,,,,0.0,5cb59c9e4c39f300173efd41,09:09:00,27/02/2024
html-keyboard-response,134,285519,0.0-56.0-2.0,,"<div style=""font-size:100px;"">+</div>",,delaylearn,learning,pre_fixation,kFUJWrep1TZjcr9WTJE4iLonYul2,,,,,,,,,,,,,,,,,,,,,,,5cb59c9e4c39f300173efd41,09:09:00,27/02/2024
lmdlab-html-vas-response,135,289934,0.0-56.0-3.0-0.0,3405.0,How happy are you right now?,0.7037037037037037,delaylearn,learning,mood_baseline,kFUJWrep1TZjcr9WTJE4iLonYul2,kFUJWrep1TZjcr9WTJE4iLonYul2,,,,,,,,,,,,,,,,,,,,"['Very unhappy', 'Very happy']",,5cb59c9e4c39f300173efd41,09:09:00,27/02/2024
html-keyboard-response,136,291449,0.0-56.0-3.0-1.0,,,,,,mood_baseline_fixation,kFUJWrep1TZjcr9WTJE4iLonYul2,,,,,,,,,,,,,,,,,,,,,,,5cb59c9e4c39f300173efd41,09:09:00,27/02/2024
html-keyboard-response,137,293491,0.0-57.0,,"<div style=""font-size:100px;"">+</div>",,delaylearn,learning,ITI,kFUJWrep1TZjcr9WTJE4iLonYul2,kFUJWrep1TZjcr9WTJE4iLonYul2,,,,,,,,,,,,,,,,,,,2031.0,,,5cb59c9e4c39f300173efd41,09:09:00,27/02/2024
html-keyboard-response,138,294525,0.0-58.0-0.0,1028.5,"<div style=""display: flex; flex-direction: column; align-items: center; margin-top: -40px;""><img src=""images/pattern_7.png"" style=""width: 234px; height: 230px; margin-top: -50px;""><div style=""display: flex; justify-content: space-between; margin-top: 33px;""><img src=""images/choice_trial_10.png"" style=""width: 408px; height: 417px; margin-right: 200px;""><img src=""images/choice_trial_8.png"" style=""width: 408px; height: 417px;""></div></div>",j,delaylearn,learning,trial,kFUJWrep1TZjcr9WTJE4iLonYul2,kFUJWrep1TZjcr9WTJE4iLonYul2,5.0,images/choice_trial_10.png,images/choice_trial_8.png,images/pattern_7.png,j,j,750.0,10.0,8.0,6.0,1.0,25.0,1.0,1.0,8.0,130.0,,,,,,5cb59c9e4c39f300173efd41,09:09:00,27/02/2024
html-keyboard-response,139,295532,0.0-58.0-1.0,,"<div style=""display: flex; flex-direction: column; align-items: center; margin-top: -40px;""><img src=""images/pattern_7.png"" style=""width: 234px; height: 230px; margin-top: -50px;""><div style=""display: flex; justify-content: space-between; margin-top: 33px;""><img src=""images/choice_trial_8.png"" style=""width: 408px; height: 417px; margin-left:608px;""></div></div>",,delaylearn,learning,display_response,kFUJWrep1TZjcr9WTJE4iLonYul2,kFUJWrep1TZjcr9WTJE4iLonYul2,,,,,,,,,,,,,,,,,chosen stimuli: images/choice_trial_8.png,,,,,5cb59c9e4c39f300173efd41,09:09:00,27/02/2024
html-keyboard-response,140,296284,0.0-58.0-2.0,,,,delaylearn,learning,feedback_duration_window,kFUJWrep1TZjcr9WTJE4iLonYul2,kFUJWrep1TZjcr9WTJE4iLonYul2,,,,,,,,,,,,,,,,,,750.0,,,,5cb59c9e4c39f300173efd41,09:09:00,27/02/2024
html-keyboard-response,141,297801,0.0-58.0-3.0,,<div style='margin:auto;width: auto; font-size: 150%'><span style='font-weight: bold; font-size: 100px; color: green;'>+10 points!</span><br><br></div>,,delaylearn,learning,feedback_image_window,kFUJWrep1TZjcr9WTJE4iLonYul2,kFUJWrep1TZjcr9WTJE4iLonYul2,,,,,,,,,,,,,,,,,,,,,,5cb59c9e4c39f300173efd41,09:09:00,27/02/2024
html-keyboard-response,142,298310,0.0-59.0-0.0,,,,,,mood_trial_fixation,kFUJWrep1TZjcr9WTJE4iLonYul2,,,,,,,,,,,,,,,,,,,,,,,5cb59c9e4c39f300173efd41,09:09:00,27/02/2024
lmdlab-html-vas-response,143,306455,0.0-59.0-1.0,7131.0,How happy are you right now?,0.7268518518518519,delaylearn,learning,mood_trial,kFUJWrep1TZjcr9WTJE4iLonYul2,kFUJWrep1TZjcr9WTJE4iLonYul2,,,,,,,,,,,,,,,,,,,,"['Very unhappy', 'Very happy']",,5cb59c9e4c39f300173efd41,09:09:00,27/02/2024
html-keyboard-response,144,308721,0.0-60.0,,"<div style=""font-size:100px;"">+</div>",,delaylearn,learning,ITI,kFUJWrep1TZjcr9WTJE4iLonYul2,kFUJWrep1TZjcr9WTJE4iLonYul2,,,,,,,,,,,,,,,,,,,2251.0,,,5cb59c9e4c39f300173efd41,09:09:00,27/02/2024
html-keyboard-response,145,310269,0.0-61.0-0.0,1544.800000011921,"<div style=""display: flex; flex-direction: column; align-items: center; margin-top: -40px;""><img src=""images/pattern_1.png"" style=""width: 234px; height: 230px; margin-top: -50px;""><div style=""display: flex; justify-content: space-between; margin-top: 33px;""><img src=""images/choice_trial_6.png"" style=""width: 408px; height: 417px; margin-right: 200px;""><img src=""images/choice_trial_15.png"" style=""width: 408px; height: 417px;""></div></div>",j,delaylearn,learning,trial,kFUJWrep1TZjcr9WTJE4iLonYul2,kFUJWrep1TZjcr9WTJE4iLonYul2,5.0,images/choice_trial_6.png,images/choice_trial_15.png,images/pattern_1.png,f,f,7000.0,6.0,15.0,1.0,0.0,26.0,0.0,0.0,15.0,130.0,,,,,,5cb59c9e4c39f300173efd41,09:09:00,27/02/2024
html-keyboard-response,146,311284,0.0-61.0-1.0,,"<div style=""display: flex; flex-direction: column; align-items: center; margin-top: -40px;""><img src=""images/pattern_1.png"" style=""width: 234px; height: 230px; margin-top: -50px;""><div style=""display: flex; justify-content: space-between; margin-top: 33px;""><img src=""images/choice_trial_15.png"" style=""width: 408px; height: 417px; margin-left:608px;""></div></div>",,delaylearn,learning,display_response,kFUJWrep1TZjcr9WTJE4iLonYul2,kFUJWrep1TZjcr9WTJE4iLonYul2,,,,,,,,,,,,,,,,,chosen stimuli: images/choice_trial_15.png,,,,,5cb59c9e4c39f300173efd41,09:09:00,27/02/2024
html-keyboard-response,147,318298,0.0-61.0-2.0,,,,delaylearn,learning,feedback_duration_window,kFUJWrep1TZjcr9WTJE4iLonYul2,kFUJWrep1TZjcr9WTJE4iLonYul2,,,,,,,,,,,,,,,,,,7000.0,,,,5cb59c9e4c39f300173efd41,09:09:00,27/02/2024
html-keyboard-response,148,319813,0.0-61.0-3.0,,<div style='margin:auto;width: auto; font-size: 150%'><span style='font-weight: bold; font-size: 100px; color: red;'>0 points!</span><br><br></div>,,delaylearn,learning,feedback_image_window,kFUJWrep1TZjcr9WTJE4iLonYul2,kFUJWrep1TZjcr9WTJE4iLonYul2,,,,,,,,,,,,,,,,,,,,,,5cb59c9e4c39f300173efd41,09:09:00,27/02/2024
html-keyboard-response,149,321943,0.0-62.0,,"<div style=""font-size:100px;"">+</div>",,delaylearn,learning,ITI,kFUJWrep1TZjcr9WTJE4iLonYul2,kFUJWrep1TZjcr9WTJE4iLonYul2,,,,,,,,,,,,,,,,,,,2128.0,,,5cb59c9e4c39f300173efd41,09:09:00,27/02/2024
html-keyboard-response,150,323278,0.0-63.0-0.0,1332.5,"<div style=""display: flex; flex-direction: column; align-items: center; margin-top: -40px;""><img src=""images/pattern_5.png"" style=""width: 234px; height: 230px; margin-top: -50px;""><div style=""display: flex; justify-content: space-between; margin-top: 33px;""><img src=""images/choice_trial_7.png"" style=""width: 408px; height: 417px; margin-right: 200px;""><img src=""images/choice_trial_13.png"" style=""width: 408px; height: 417px;""></div></div>",j,delaylearn,learning,trial,kFUJWrep1TZjcr9WTJE4iLonYul2,kFUJWrep1TZjcr9WTJE4iLonYul2,5.0,images/choice_trial_7.png,images/choice_trial_13.png,images/pattern_5.png,f,f,750.0,7.0,13.0,4.0,0.0,27.0,0.0,0.0,13.0,130.0,,,,,,5cb59c9e4c39f300173efd41,09:09:00,27/02/2024
html-keyboard-response,151,324282,0.0-63.0-1.0,,"<div style=""display: flex; flex-direction: column; align-items: center; margin-top: -40px;""><img src=""images/pattern_5.png"" style=""width: 234px; height: 230px; margin-top: -50px;""><div style=""display: flex; justify-content: space-between; margin-top: 33px;""><img src=""images/choice_trial_13.png"" style=""width: 408px; height: 417px; margin-left:608px;""></div></div>",,delaylearn,learning,display_response,kFUJWrep1TZjcr9WTJE4iLonYul2,kFUJWrep1TZjcr9WTJE4iLonYul2,,,,,,,,,,,,,,,,,chosen stimuli: images/choice_trial_13.png,,,,,5cb59c9e4c39f300173efd41,09:09:00,27/02/2024
html-keyboard-response,152,325043,0.0-63.0-2.0,,,,delaylearn,learning,feedback_duration_window,kFUJWrep1TZjcr9WTJE4iLonYul2,kFUJWrep1TZjcr9WTJE4iLonYul2,,,,,,,,,,,,,,,,,,750.0,,,,5cb59c9e4c39f300173efd41,09:09:00,27/02/2024
html-keyboard-response,153,326551,0.0-63.0-3.0,,<div style='margin:auto;width: auto; font-size: 150%'><span style='font-weight: bold; font-size: 100px; color: red;'>0 points!</span><br><br></div>,,delaylearn,learning,feedback_image_window,kFUJWrep1TZjcr9WTJE4iLonYul2,kFUJWrep1TZjcr9WTJE4iLonYul2,,,,,,,,,,,,,,,,,,,,,,5cb59c9e4c39f300173efd41,09:09:00,27/02/2024
html-keyboard-response,154,328298,0.0-64.0,,"<div style=""font-size:100px;"">+</div>",,delaylearn,learning,ITI,kFUJWrep1TZjcr9WTJE4iLonYul2,kFUJWrep1TZjcr9WTJE4iLonYul2,,,,,,,,,,,,,,,,,,,1739.0,,,5cb59c9e4c39f300173efd41,09:09:00,27/02/2024
html-keyboard-response,155,329251,0.0-65.0-0.0,951.6000000238419,"<div style=""display: flex; flex-direction: column; align-items: center; margin-top: -40px;""><img src=""images/pattern_6.png"" style=""width: 234px; height: 230px; margin-top: -50px;""><div style=""display: flex; justify-content: space-between; margin-top: 33px;""><img src=""images/choice_trial_9.png"" style=""width: 408px; height: 417px; margin-right: 200px;""><img src=""images/choice_trial_14.png"" style=""width: 408px; height: 417px;""></div></div>",f,delaylearn,learning,trial,kFUJWrep1TZjcr9WTJE4iLonYul2,kFUJWrep1TZjcr9WTJE4iLonYul2,5.0,images/choice_trial_9.png,images/choice_trial_14.png,images/pattern_6.png,j,j,750.0,9.0,14.0,5.0,1.0,28.0,0.0,0.0,9.0,130.0,,,,,,5cb59c9e4c39f300173efd41,09:09:00,27/02/2024
html-keyboard-response,156,330259,0.0-65.0-1.0,,"<div style=""display: flex; flex-direction: column; align-items: center; margin-top: -40px;""><img src=""images/pattern_6.png"" style=""width: 234px; height: 230px; margin-top: -50px;""><div style=""display: flex; justify-content: space-between; margin-top: 33px;""><img src=""images/choice_trial_9.png"" style=""width: 408px; height: 417px; margin-right: 608px;""></div></div>",,delaylearn,learning,display_response,kFUJWrep1TZjcr9WTJE4iLonYul2,kFUJWrep1TZjcr9WTJE4iLonYul2,,,,,,,,,,,,,,,,,chosen stimuli: images/choice_trial_9.png,,,,,5cb59c9e4c39f300173efd41,09:09:00,27/02/2024
html-keyboard-response,157,331024,0.0-65.0-2.0,,,,delaylearn,learning,feedback_duration_window,kFUJWrep1TZjcr9WTJE4iLonYul2,kFUJWrep1TZjcr9WTJE4iLonYul2,,,,,,,,,,,,,,,,,,750.0,,,,5cb59c9e4c39f300173efd41,09:09:00,27/02/2024
html-keyboard-response,158,332526,0.0-65.0-3.0,,<div style='margin:auto;width: auto; font-size: 150%'><span style='font-weight: bold; font-size: 100px; color: red;'>0 points!</span><br><br></div>,,delaylearn,learning,feedback_image_window,kFUJWrep1TZjcr9WTJE4iLonYul2,kFUJWrep1TZjcr9WTJE4iLonYul2,,,,,,,,,,,,,,,,,,,,,,5cb59c9e4c39f300173efd41,09:09:00,27/02/2024
html-keyboard-response,159,333040,0.0-66.0-0.0,,,,,,mood_trial_fixation,kFUJWrep1TZjcr9WTJE4iLonYul2,,,,,,,,,,,,,,,,,,,,,,,5cb59c9e4c39f300173efd41,09:09:00,27/02/2024
lmdlab-html-vas-response,160,338213,0.0-66.0-1.0,4168.0,How happy are you right now?,0.6296296296296297,delaylearn,learning,mood_trial,kFUJWrep1TZjcr9WTJE4iLonYul2,kFUJWrep1TZjcr9WTJE4iLonYul2,,,,,,,,,,,,,,,,,,,,"['Very unhappy', 'Very happy']",,5cb59c9e4c39f300173efd41,09:09:00,27/02/2024
html-keyboard-response,161,340224,0.0-67.0,,"<div style=""font-size:100px;"">+</div>",,delaylearn,learning,ITI,kFUJWrep1TZjcr9WTJE4iLonYul2,kFUJWrep1TZjcr9WTJE4iLonYul2,,,,,,,,,,,,,,,,,,,1998.0,,,5cb59c9e4c39f300173efd41,09:09:00,27/02/2024
html-keyboard-response,162,341413,0.0-68.0-0.0,1194.3999999761581,"<div style=""display: flex; flex-direction: column; align-items: center; margin-top: -40px;""><img src=""images/pattern_4.png"" style=""width: 234px; height: 230px; margin-top: -50px;""><div style=""display: flex; justify-content: space-between; margin-top: 33px;""><img src=""images/choice_trial_4.png"" style=""width: 408px; height: 417px; margin-right: 200px;""><img src=""images/choice_trial_11.png"" style=""width: 408px; height: 417px;""></div></div>",j,delaylearn,learning,trial,kFUJWrep1TZjcr9WTJE4iLonYul2,kFUJWrep1TZjcr9WTJE4iLonYul2,5.0,images/choice_trial_4.png,images/choice_trial_11.png,images/pattern_4.png,j,j,7000.0,4.0,11.0,3.0,1.0,29.0,1.0,1.0,11.0,140.0,,,,,,5cb59c9e4c39f300173efd41,09:09:00,27/02/2024
html-keyboard-response,163,342421,0.0-68.0-1.0,,"<div style=""display: flex; flex-direction: column; align-items: center; margin-top: -40px;""><img src=""images/pattern_4.png"" style=""width: 234px; height: 230px; margin-top: -50px;""><div style=""display: flex; justify-content: space-between; margin-top: 33px;""><img src=""images/choice_trial_11.png"" style=""width: 408px; height: 417px; margin-left:608px;""></div></div>",,delaylearn,learning,display_response,kFUJWrep1TZjcr9WTJE4iLonYul2,kFUJWrep1TZjcr9WTJE4iLonYul2,,,,,,,,,,,,,,,,,chosen stimuli: images/choice_trial_11.png,,,,,5cb59c9e4c39f300173efd41,09:09:00,27/02/2024
html-keyboard-response,164,349426,0.0-68.0-2.0,,,,delaylearn,learning,feedback_duration_window,kFUJWrep1TZjcr9WTJE4iLonYul2,kFUJWrep1TZjcr9WTJE4iLonYul2,,,,,,,,,,,,,,,,,,7000.0,,,,5cb59c9e4c39f300173efd41,09:09:00,27/02/2024
html-keyboard-response,165,350937,0.0-68.0-3.0,,<div style='margin:auto;width: auto; font-size: 150%'><span style='font-weight: bold; font-size: 100px; color: green;'>+10 points!</span><br><br></div>,,delaylearn,learning,feedback_image_window,kFUJWrep1TZjcr9WTJE4iLonYul2,kFUJWrep1TZjcr9WTJE4iLonYul2,,,,,,,,,,,,,,,,,,,,,,5cb59c9e4c39f300173efd41,09:09:00,27/02/2024
html-keyboard-response,166,352514,0.0-69.0,,"<div style=""font-size:100px;"">+</div>",,delaylearn,learning,ITI,kFUJWrep1TZjcr9WTJE4iLonYul2,kFUJWrep1TZjcr9WTJE4iLonYul2,,,,,,,,,,,,,,,,,,,1570.0,,,5cb59c9e4c39f300173efd41,09:09:00,27/02/2024
html-keyboard-response,167,354115,0.0-70.0-0.0,1596.6000000238419,"<div style=""display: flex; flex-direction: column; align-items: center; margin-top: -40px;""><img src=""images/pattern_3.png"" style=""width: 234px; height: 230px; margin-top: -50px;""><div style=""display: flex; justify-content: space-between; margin-top: 33px;""><img src=""images/choice_trial_2.png"" style=""width: 408px; height: 417px; margin-right: 200px;""><img src=""images/choice_trial_16.png"" style=""width: 408px; height: 417px;""></div></div>",j,delaylearn,learning,trial,kFUJWrep1TZjcr9WTJE4iLonYul2,kFUJWrep1TZjcr9WTJE4iLonYul2,5.0,images/choice_trial_2.png,images/choice_trial_16.png,images/pattern_3.png,j,j,7000.0,2.0,16.0,2.0,1.0,30.0,1.0,1.0,16.0,150.0,,,,,,5cb59c9e4c39f300173efd41,09:09:00,27/02/2024
html-keyboard-response,168,355118,0.0-70.0-1.0,,"<div style=""display: flex; flex-direction: column; align-items: center; margin-top: -40px;""><img src=""images/pattern_3.png"" style=""width: 234px; height: 230px; margin-top: -50px;""><div style=""display: flex; justify-content: space-between; margin-top: 33px;""><img src=""images/choice_trial_16.png"" style=""width: 408px; height: 417px; margin-left:608px;""></div></div>",,delaylearn,learning,display_response,kFUJWrep1TZjcr9WTJE4iLonYul2,kFUJWrep1TZjcr9WTJE4iLonYul2,,,,,,,,,,,,,,,,,chosen stimuli: images/choice_trial_16.png,,,,,5cb59c9e4c39f300173efd41,09:09:00,27/02/2024
html-keyboard-response,169,362124,0.0-70.0-2.0,,,,delaylearn,learning,feedback_duration_window,kFUJWrep1TZjcr9WTJE4iLonYul2,kFUJWrep1TZjcr9WTJE4iLonYul2,,,,,,,,,,,,,,,,,,7000.0,,,,5cb59c9e4c39f300173efd41,09:09:00,27/02/2024
html-keyboard-response,170,363642,0.0-70.0-3.0,,<div style='margin:auto;width: auto; font-size: 150%'><span style='font-weight: bold; font-size: 100px; color: green;'>+10 points!</span><br><br></div>,,delaylearn,learning,feedback_image_window,kFUJWrep1TZjcr9WTJE4iLonYul2,kFUJWrep1TZjcr9WTJE4iLonYul2,,,,,,,,,,,,,,,,,,,,,,5cb59c9e4c39f300173efd41,09:09:00,27/02/2024
html-keyboard-response,171,365638,0.0-71.0,,"<div style=""font-size:100px;"">+</div>",,delaylearn,learning,ITI,kFUJWrep1TZjcr9WTJE4iLonYul2,kFUJWrep1TZjcr9WTJE4iLonYul2,,,,,,,,,,,,,,,,,,,1979.0,,,5cb59c9e4c39f300173efd41,09:09:00,27/02/2024
html-keyboard-response,172,366534,0.0-72.0-0.0,891.0,"<div style=""display: flex; flex-direction: column; align-items: center; margin-top: -40px;""><img src=""images/pattern_5.png"" style=""width: 234px; height: 230px; margin-top: -50px;""><div style=""display: flex; justify-content: space-between; margin-top: 33px;""><img src=""images/choice_trial_7.png"" style=""width: 408px; height: 417px; margin-right: 200px;""><img src=""images/choice_trial_13.png"" style=""width: 408px; height: 417px;""></div></div>",j,delaylearn,learning,trial,kFUJWrep1TZjcr9WTJE4iLonYul2,kFUJWrep1TZjcr9WTJE4iLonYul2,5.0,images/choice_trial_7.png,images/choice_trial_13.png,images/pattern_5.png,j,f,750.0,7.0,13.0,4.0,0.0,31.0,0.0,1.0,13.0,160.0,,,,,,5cb59c9e4c39f300173efd41,09:09:00,27/02/2024
html-keyboard-response,173,367541,0.0-72.0-1.0,,"<div style=""display: flex; flex-direction: column; align-items: center; margin-top: -40px;""><img src=""images/pattern_5.png"" style=""width: 234px; height: 230px; margin-top: -50px;""><div style=""display: flex; justify-content: space-between; margin-top: 33px;""><img src=""images/choice_trial_13.png"" style=""width: 408px; height: 417px; margin-left:608px;""></div></div>",,delaylearn,learning,display_response,kFUJWrep1TZjcr9WTJE4iLonYul2,kFUJWrep1TZjcr9WTJE4iLonYul2,,,,,,,,,,,,,,,,,chosen stimuli: images/choice_trial_13.png,,,,,5cb59c9e4c39f300173efd41,09:09:00,27/02/2024
html-keyboard-response,174,368305,0.0-72.0-2.0,,,,delaylearn,learning,feedback_duration_window,kFUJWrep1TZjcr9WTJE4iLonYul2,kFUJWrep1TZjcr9WTJE4iLonYul2,,,,,,,,,,,,,,,,,,750.0,,,,5cb59c9e4c39f300173efd41,09:09:00,27/02/2024
html-keyboard-response,175,369821,0.0-72.0-3.0,,<div style='margin:auto;width: auto; font-size: 150%'><span style='font-weight: bold; font-size: 100px; color: green;'>+10 points!</span><br><br></div>,,delaylearn,learning,feedback_image_window,kFUJWrep1TZjcr9WTJE4iLonYul2,kFUJWrep1TZjcr9WTJE4iLonYul2,,,,,,,,,,,,,,,,,,,,,,5cb59c9e4c39f300173efd41,09:09:00,27/02/2024
html-keyboard-response,176,371559,0.0-73.0,,"<div style=""font-size:100px;"">+</div>",,delaylearn,learning,ITI,kFUJWrep1TZjcr9WTJE4iLonYul2,kFUJWrep1TZjcr9WTJE4iLonYul2,,,,,,,,,,,,,,,,,,,1732.0,,,5cb59c9e4c39f300173efd41,09:09:00,27/02/2024
html-keyboard-response,177,373444,0.0-74.0-0.0,1878.6000000238419,"<div style=""display: flex; flex-direction: column; align-items: center; margin-top: -40px;""><img src=""images/pattern_1.png"" style=""width: 234px; height: 230px; margin-top: -50px;""><div style=""display: flex; justify-content: space-between; margin-top: 33px;""><img src=""images/choice_trial_6.png"" style=""width: 408px; height: 417px; margin-right: 200px;""><img src=""images/choice_trial_15.png"" style=""width: 408px; height: 417px;""></div></div>",f,delaylearn,learning,trial,kFUJWrep1TZjcr9WTJE4iLonYul2,kFUJWrep1TZjcr9WTJE4iLonYul2,5.0,images/choice_trial_6.png,images/choice_trial_15.png,images/pattern_1.png,f,f,7000.0,6.0,15.0,1.0,0.0,32.0,1.0,1.0,6.0,170.0,,,,,,5cb59c9e4c39f300173efd41,09:09:00,27/02/2024
html-keyboard-response,178,374453,0.0-74.0-1.0,,"<div style=""display: flex; flex-direction: column; align-items: center; margin-top: -40px;""><img src=""images/pattern_1.png"" style=""width: 234px; height: 230px; margin-top: -50px;""><div style=""display: flex; justify-content: space-between; margin-top: 33px;""><img src=""images/choice_trial_6.png"" style=""width: 408px; height: 417px; margin-right: 608px;""></div></div>",,delaylearn,learning,display_response,kFUJWrep1TZjcr9WTJE4iLonYul2,kFUJWrep1TZjcr9WTJE4iLonYul2,,,,,,,,,,,,,,,,,chosen stimuli: images/choice_trial_6.png,,,,,5cb59c9e4c39f300173efd41,09:09:00,27/02/2024
html-keyboard-response,179,381464,0.0-74.0-2.0,,,,delaylearn,learning,feedback_duration_window,kFUJWrep1TZjcr9WTJE4iLonYul2,kFUJWrep1TZjcr9WTJE4iLonYul2,,,,,,,,,,,,,,,,,,7000.0,,,,5cb59c9e4c39f300173efd41,09:09:00,27/02/2024
html-keyboard-response,180,382978,0.0-74.0-3.0,,<div style='margin:auto;width: auto; font-size: 150%'><span style='font-weight: bold; font-size: 100px; color: green;'>+10 points!</span><br><br></div>,,delaylearn,learning,feedback_image_window,kFUJWrep1TZjcr9WTJE4iLonYul2,kFUJWrep1TZjcr9WTJE4iLonYul2,,,,,,,,,,,,,,,,,,,,,,5cb59c9e4c39f300173efd41,09:09:00,27/02/2024
html-keyboard-response,181,383482,0.0-75.0-0.0,,,,,,mood_trial_fixation,kFUJWrep1TZjcr9WTJE4iLonYul2,,,,,,,,,,,,,,,,,,,,,,,5cb59c9e4c39f300173efd41,09:09:00,27/02/2024
lmdlab-html-vas-response,182,388816,0.0-75.0-1.0,4314.0,How happy are you right now?,0.7476851851851852,delaylearn,learning,mood_trial,kFUJWrep1TZjcr9WTJE4iLonYul2,kFUJWrep1TZjcr9WTJE4iLonYul2,,,,,,,,,,,,,,,,,,,,"['Very unhappy', 'Very happy']",,5cb59c9e4c39f300173efd41,09:09:00,27/02/2024
html-keyboard-response,183,391231,0.0-76.0,,"<div style=""font-size:100px;"">+</div>",,delaylearn,learning,ITI,kFUJWrep1TZjcr9WTJE4iLonYul2,kFUJWrep1TZjcr9WTJE4iLonYul2,,,,,,,,,,,,,,,,,,,2407.0,,,5cb59c9e4c39f300173efd41,09:09:00,27/02/2024
html-keyboard-response,184,393191,0.0-77.0-0.0,1955.0999999642372,"<div style=""display: flex; flex-direction: column; align-items: center; margin-top: -40px;""><img src=""images/pattern_6.png"" style=""width: 234px; height: 230px; margin-top: -50px;""><div style=""display: flex; justify-content: space-between; margin-top: 33px;""><img src=""images/choice_trial_14.png"" style=""width: 408px; height: 417px; margin-right: 200px;""><img src=""images/choice_trial_9.png"" style=""width: 408px; height: 417px;""></div></div>",f,delaylearn,learning,trial,kFUJWrep1TZjcr9WTJE4iLonYul2,kFUJWrep1TZjcr9WTJE4iLonYul2,5.0,images/choice_trial_14.png,images/choice_trial_9.png,images/pattern_6.png,j,f,750.0,14.0,9.0,5.0,0.0,33.0,1.0,0.0,14.0,170.0,,,,,,5cb59c9e4c39f300173efd41,09:09:00,27/02/2024
html-keyboard-response,185,394199,0.0-77.0-1.0,,"<div style=""display: flex; flex-direction: column; align-items: center; margin-top: -40px;""><img src=""images/pattern_6.png"" style=""width: 234px; height: 230px; margin-top: -50px;""><div style=""display: flex; justify-content: space-between; margin-top: 33px;""><img src=""images/choice_trial_14.png"" style=""width: 408px; height: 417px; margin-right: 608px;""></div></div>",,delaylearn,learning,display_response,kFUJWrep1TZjcr9WTJE4iLonYul2,kFUJWrep1TZjcr9WTJE4iLonYul2,,,,,,,,,,,,,,,,,chosen stimuli: images/choice_trial_14.png,,,,,5cb59c9e4c39f300173efd41,09:09:00,27/02/2024
html-keyboard-response,186,394953,0.0-77.0-2.0,,,,delaylearn,learning,feedback_duration_window,kFUJWrep1TZjcr9WTJE4iLonYul2,kFUJWrep1TZjcr9WTJE4iLonYul2,,,,,,,,,,,,,,,,,,750.0,,,,5cb59c9e4c39f300173efd41,09:09:00,27/02/2024
html-keyboard-response,187,396464,0.0-77.0-3.0,,<div style='margin:auto;width: auto; font-size: 150%'><span style='font-weight: bold; font-size: 100px; color: red;'>0 points!</span><br><br></div>,,delaylearn,learning,feedback_image_window,kFUJWrep1TZjcr9WTJE4iLonYul2,kFUJWrep1TZjcr9WTJE4iLonYul2,,,,,,,,,,,,,,,,,,,,,,5cb59c9e4c39f300173efd41,09:09:00,27/02/2024
html-keyboard-response,188,398633,0.0-78.0,,"<div style=""font-size:100px;"">+</div>",,delaylearn,learning,ITI,kFUJWrep1TZjcr9WTJE4iLonYul2,kFUJWrep1TZjcr9WTJE4iLonYul2,,,,,,,,,,,,,,,,,,,2161.0,,,5cb59c9e4c39f300173efd41,09:09:00,27/02/2024
html-keyboard-response,189,399765,0.0-79.0-0.0,1126.8999999761581,"<div style=""display: flex; flex-direction: column; align-items: center; margin-top: -40px;""><img src=""images/pattern_3.png"" style=""width: 234px; height: 230px; margin-top: -50px;""><div style=""display: flex; justify-content: space-between; margin-top: 33px;""><img src=""images/choice_trial_2.png"" style=""width: 408px; height: 417px; margin-right: 200px;""><img src=""images/choice_trial_16.png"" style=""width: 408px; height: 417px;""></div></div>",j,delaylearn,learning,trial,kFUJWrep1TZjcr9WTJE4iLonYul2,kFUJWrep1TZjcr9WTJE4iLonYul2,5.0,images/choice_trial_2.png,images/choice_trial_16.png,images/pattern_3.png,j,j,7000.0,2.0,16.0,2.0,1.0,34.0,1.0,1.0,16.0,180.0,,,,,,5cb59c9e4c39f300173efd41,09:09:00,27/02/2024
html-keyboard-response,190,400770,0.0-79.0-1.0,,"<div style=""display: flex; flex-direction: column; align-items: center; margin-top: -40px;""><img src=""images/pattern_3.png"" style=""width: 234px; height: 230px; margin-top: -50px;""><div style=""display: flex; justify-content: space-between; margin-top: 33px;""><img src=""images/choice_trial_16.png"" style=""width: 408px; height: 417px; margin-left:608px;""></div></div>",,delaylearn,learning,display_response,kFUJWrep1TZjcr9WTJE4iLonYul2,kFUJWrep1TZjcr9WTJE4iLonYul2,,,,,,,,,,,,,,,,,chosen stimuli: images/choice_trial_16.png,,,,,5cb59c9e4c39f300173efd41,09:09:00,27/02/2024
html-keyboard-response,191,407785,0.0-79.0-2.0,,,,delaylearn,learning,feedback_duration_window,kFUJWrep1TZjcr9WTJE4iLonYul2,kFUJWrep1TZjcr9WTJE4iLonYul2,,,,,,,,,,,,,,,,,,7000.0,,,,5cb59c9e4c39f300173efd41,09:09:00,27/02/2024
html-keyboard-response,192,409302,0.0-79.0-3.0,,<div style='margin:auto;width: auto; font-size: 150%'><span style='font-weight: bold; font-size: 100px; color: green;'>+10 points!</span><br><br></div>,,delaylearn,learning,feedback_image_window,kFUJWrep1TZjcr9WTJE4iLonYul2,kFUJWrep1TZjcr9WTJE4iLonYul2,,,,,,,,,,,,,,,,,,,,,,5cb59c9e4c39f300173efd41,09:09:00,27/02/2024
html-keyboard-response,193,411786,0.0-80.0,,"<div style=""font-size:100px;"">+</div>",,delaylearn,learning,ITI,kFUJWrep1TZjcr9WTJE4iLonYul2,kFUJWrep1TZjcr9WTJE4iLonYul2,,,,,,,,,,,,,,,,,,,2470.0,,,5cb59c9e4c39f300173efd41,09:09:00,27/02/2024
html-keyboard-response,194,412824,0.0-81.0-0.0,1032.800000011921,"<div style=""display: flex; flex-direction: column; align-items: center; margin-top: -40px;""><img src=""images/pattern_4.png"" style=""width: 234px; height: 230px; margin-top: -50px;""><div style=""display: flex; justify-content: space-between; margin-top: 33px;""><img src=""images/choice_trial_4.png"" style=""width: 408px; height: 417px; margin-right: 200px;""><img src=""images/choice_trial_11.png"" style=""width: 408px; height: 417px;""></div></div>",j,delaylearn,learning,trial,kFUJWrep1TZjcr9WTJE4iLonYul2,kFUJWrep1TZjcr9WTJE4iLonYul2,5.0,images/choice_trial_4.png,images/choice_trial_11.png,images/pattern_4.png,f,j,7000.0,4.0,11.0,3.0,1.0,35.0,1.0,0.0,11.0,180.0,,,,,,5cb59c9e4c39f300173efd41,09:09:00,27/02/2024
html-keyboard-response,195,413830,0.0-81.0-1.0,,"<div style=""display: flex; flex-direction: column; align-items: center; margin-top: -40px;""><img src=""images/pattern_4.png"" style=""width: 234px; height: 230px; margin-top: -50px;""><div style=""display: flex; justify-content: space-between; margin-top: 33px;""><img src=""images/choice_trial_11.png"" style=""width: 408px; height: 417px; margin-left:608px;""></div></div>",,delaylearn,learning,display_response,kFUJWrep1TZjcr9WTJE4iLonYul2,kFUJWrep1TZjcr9WTJE4iLonYul2,,,,,,,,,,,,,,,,,chosen stimuli: images/choice_trial_11.png,,,,,5cb59c9e4c39f300173efd41,09:09:00,27/02/2024
html-keyboard-response,196,420837,0.0-81.0-2.0,,,,delaylearn,learning,feedback_duration_window,kFUJWrep1TZjcr9WTJE4iLonYul2,kFUJWrep1TZjcr9WTJE4iLonYul2,,,,,,,,,,,,,,,,,,7000.0,,,,5cb59c9e4c39f300173efd41,09:09:00,27/02/2024
html-keyboard-response,197,422347,0.0-81.0-3.0,,<div style='margin:auto;width: auto; font-size: 150%'><span style='font-weight: bold; font-size: 100px; color: red;'>0 points!</span><br><br></div>,,delaylearn,learning,feedback_image_window,kFUJWrep1TZjcr9WTJE4iLonYul2,kFUJWrep1TZjcr9WTJE4iLonYul2,,,,,,,,,,,,,,,,,,,,,,5cb59c9e4c39f300173efd41,09:09:00,27/02/2024
html-keyboard-response,198,424306,0.0-82.0,,"<div style=""font-size:100px;"">+</div>",,delaylearn,learning,ITI,kFUJWrep1TZjcr9WTJE4iLonYul2,kFUJWrep1TZjcr9WTJE4iLonYul2,,,,,,,,,,,,,,,,,,,1953.0,,,5cb59c9e4c39f300173efd41,09:09:00,27/02/2024
html-keyboard-response,199,425727,0.0-83.0-0.0,1415.800000011921,"<div style=""display: flex; flex-direction: column; align-items: center; margin-top: -40px;""><img src=""images/pattern_7.png"" style=""width: 234px; height: 230px; margin-top: -50px;""><div style=""display: flex; justify-content: space-between; margin-top: 33px;""><img src=""images/choice_trial_8.png"" style=""width: 408px; height: 417px; margin-right: 200px;""><img src=""images/choice_trial_10.png"" style=""width: 408px; height: 417px;""></div></div>",f,delaylearn,learning,trial,kFUJWrep1TZjcr9WTJE4iLonYul2,kFUJWrep1TZjcr9WTJE4iLonYul2,5.0,images/choice_trial_8.png,images/choice_trial_10.png,images/pattern_7.png,f,f,750.0,8.0,10.0,6.0,0.0,36.0,1.0,1.0,8.0,190.0,,,,,,5cb59c9e4c39f300173efd41,09:09:00,27/02/2024
html-keyboard-response,200,426731,0.0-83.0-1.0,,"<div style=""display: flex; flex-direction: column; align-items: center; margin-top: -40px;""><img src=""images/pattern_7.png"" style=""width: 234px; height: 230px; margin-top: -50px;""><div style=""display: flex; justify-content: space-between; margin-top: 33px;""><img src=""images/choice_trial_8.png"" style=""width: 408px; height: 417px; margin-right: 608px;""></div></div>",,delaylearn,learning,display_response,kFUJWrep1TZjcr9WTJE4iLonYul2,kFUJWrep1TZjcr9WTJE4iLonYul2,,,,,,,,,,,,,,,,,chosen stimuli: images/choice_trial_8.png,,,,,5cb59c9e4c39f300173efd41,09:09:00,27/02/2024
html-keyboard-response,201,427488,0.0-83.0-2.0,,,,delaylearn,learning,feedback_duration_window,kFUJWrep1TZjcr9WTJE4iLonYul2,kFUJWrep1TZjcr9WTJE4iLonYul2,,,,,,,,,,,,,,,,,,750.0,,,,5cb59c9e4c39f300173efd41,09:09:00,27/02/2024
html-keyboard-response,202,429000,0.0-83.0-3.0,,<div style='margin:auto;width: auto; font-size: 150%'><span style='font-weight: bold; font-size: 100px; color: green;'>+10 points!</span><br><br></div>,,delaylearn,learning,feedback_image_window,kFUJWrep1TZjcr9WTJE4iLonYul2,kFUJWrep1TZjcr9WTJE4iLonYul2,,,,,,,,,,,,,,,,,,,,,,5cb59c9e4c39f300173efd41,09:09:00,27/02/2024
html-keyboard-response,203,431164,0.0-84.0,,"<div style=""font-size:100px;"">+</div>",,delaylearn,learning,ITI,kFUJWrep1TZjcr9WTJE4iLonYul2,kFUJWrep1TZjcr9WTJE4iLonYul2,,,,,,,,,,,,,,,,,,,2160.0,,,5cb59c9e4c39f300173efd41,09:09:00,27/02/2024
html-keyboard-response,204,432237,0.0-85.0-0.0,1067.5999999642372,"<div style=""display: flex; flex-direction: column; align-items: center; margin-top: -40px;""><img src=""images/pattern_1.png"" style=""width: 234px; height: 230px; margin-top: -50px;""><div style=""display: flex; justify-content: space-between; margin-top: 33px;""><img src=""images/choice_trial_6.png"" style=""width: 408px; height: 417px; margin-right: 200px;""><img src=""images/choice_trial_15.png"" style=""width: 408px; height: 417px;""></div></div>",f,delaylearn,learning,trial,kFUJWrep1TZjcr9WTJE4iLonYul2,kFUJWrep1TZjcr9WTJE4iLonYul2,5.0,images/choice_trial_6.png,images/choice_trial_15.png,images/pattern_1.png,f,f,7000.0,6.0,15.0,1.0,0.0,37.0,1.0,1.0,6.0,200.0,,,,,,5cb59c9e4c39f300173efd41,09:09:00,27/02/2024
html-keyboard-response,205,433257,0.0-85.0-1.0,,"<div style=""display: flex; flex-direction: column; align-items: center; margin-top: -40px;""><img src=""images/pattern_1.png"" style=""width: 234px; height: 230px; margin-top: -50px;""><div style=""display: flex; justify-content: space-between; margin-top: 33px;""><img src=""images/choice_trial_6.png"" style=""width: 408px; height: 417px; margin-right: 608px;""></div></div>",,delaylearn,learning,display_response,kFUJWrep1TZjcr9WTJE4iLonYul2,kFUJWrep1TZjcr9WTJE4iLonYul2,,,,,,,,,,,,,,,,,chosen stimuli: images/choice_trial_6.png,,,,,5cb59c9e4c39f300173efd41,09:09:00,27/02/2024
html-keyboard-response,206,440269,0.0-85.0-2.0,,,,delaylearn,learning,feedback_duration_window,kFUJWrep1TZjcr9WTJE4iLonYul2,kFUJWrep1TZjcr9WTJE4iLonYul2,,,,,,,,,,,,,,,,,,7000.0,,,,5cb59c9e4c39f300173efd41,09:09:00,27/02/2024
html-keyboard-response,207,441782,0.0-85.0-3.0,,<div style='margin:auto;width: auto; font-size: 150%'><span style='font-weight: bold; font-size: 100px; color: green;'>+10 points!</span><br><br></div>,,delaylearn,learning,feedback_image_window,kFUJWrep1TZjcr9WTJE4iLonYul2,kFUJWrep1TZjcr9WTJE4iLonYul2,,,,,,,,,,,,,,,,,,,,,,5cb59c9e4c39f300173efd41,09:09:00,27/02/2024
html-keyboard-response,208,442300,0.0-86.0-0.0,,,,,,mood_trial_fixation,kFUJWrep1TZjcr9WTJE4iLonYul2,,,,,,,,,,,,,,,,,,,,,,,5cb59c9e4c39f300173efd41,09:09:00,27/02/2024
lmdlab-html-vas-response,209,446136,0.0-86.0-1.0,2824.0,How happy are you right now?,0.6921296296296297,delaylearn,learning,mood_trial,kFUJWrep1TZjcr9WTJE4iLonYul2,kFUJWrep1TZjcr9WTJE4iLonYul2,,,,,,,,,,,,,,,,,,,,"['Very unhappy', 'Very happy']",,5cb59c9e4c39f300173efd41,09:09:00,27/02/2024
html-keyboard-response,210,448636,0.0-87.0,,"<div style=""font-size:100px;"">+</div>",,delaylearn,learning,ITI,kFUJWrep1TZjcr9WTJE4iLonYul2,kFUJWrep1TZjcr9WTJE4iLonYul2,,,,,,,,,,,,,,,,,,,2494.0,,,5cb59c9e4c39f300173efd41,09:09:00,27/02/2024
html-keyboard-response,211,450021,0.0-88.0-0.0,1380.300000011921,"<div style=""display: flex; flex-direction: column; align-items: center; margin-top: -40px;""><img src=""images/pattern_3.png"" style=""width: 234px; height: 230px; margin-top: -50px;""><div style=""display: flex; justify-content: space-between; margin-top: 33px;""><img src=""images/choice_trial_16.png"" style=""width: 408px; height: 417px; margin-right: 200px;""><img src=""images/choice_trial_2.png"" style=""width: 408px; height: 417px;""></div></div>",f,delaylearn,learning,trial,kFUJWrep1TZjcr9WTJE4iLonYul2,kFUJWrep1TZjcr9WTJE4iLonYul2,5.0,images/choice_trial_16.png,images/choice_trial_2.png,images/pattern_3.png,j,f,7000.0,16.0,2.0,2.0,0.0,38.0,1.0,0.0,16.0,200.0,,,,,,5cb59c9e4c39f300173efd41,09:09:00,27/02/2024
html-keyboard-response,212,451027,0.0-88.0-1.0,,"<div style=""display: flex; flex-direction: column; align-items: center; margin-top: -40px;""><img src=""images/pattern_3.png"" style=""width: 234px; height: 230px; margin-top: -50px;""><div style=""display: flex; justify-content: space-between; margin-top: 33px;""><img src=""images/choice_trial_16.png"" style=""width: 408px; height: 417px; margin-right: 608px;""></div></div>",,delaylearn,learning,display_response,kFUJWrep1TZjcr9WTJE4iLonYul2,kFUJWrep1TZjcr9WTJE4iLonYul2,,,,,,,,,,,,,,,,,chosen stimuli: images/choice_trial_16.png,,,,,5cb59c9e4c39f300173efd41,09:09:00,27/02/2024
html-keyboard-response,213,458042,0.0-88.0-2.0,,,,delaylearn,learning,feedback_duration_window,kFUJWrep1TZjcr9WTJE4iLonYul2,kFUJWrep1TZjcr9WTJE4iLonYul2,,,,,,,,,,,,,,,,,,7000.0,,,,5cb59c9e4c39f300173efd41,09:09:00,27/02/2024
html-keyboard-response,214,459559,0.0-88.0-3.0,,<div style='margin:auto;width: auto; font-size: 150%'><span style='font-weight: bold; font-size: 100px; color: red;'>0 points!</span><br><br></div>,,delaylearn,learning,feedback_image_window,kFUJWrep1TZjcr9WTJE4iLonYul2,kFUJWrep1TZjcr9WTJE4iLonYul2,,,,,,,,,,,,,,,,,,,,,,5cb59c9e4c39f300173efd41,09:09:00,27/02/2024
html-keyboard-response,215,461145,0.0-89.0,,"<div style=""font-size:100px;"">+</div>",,delaylearn,learning,ITI,kFUJWrep1TZjcr9WTJE4iLonYul2,kFUJWrep1TZjcr9WTJE4iLonYul2,,,,,,,,,,,,,,,,,,,1571.0,,,5cb59c9e4c39f300173efd41,09:09:00,27/02/2024
html-keyboard-response,216,462664,0.0-90.0-0.0,1513.300000011921,"<div style=""display: flex; flex-direction: column; align-items: center; margin-top: -40px;""><img src=""images/pattern_7.png"" style=""width: 234px; height: 230px; margin-top: -50px;""><div style=""display: flex; justify-content: space-between; margin-top: 33px;""><img src=""images/choice_trial_10.png"" style=""width: 408px; height: 417px; margin-right: 200px;""><img src=""images/choice_trial_8.png"" style=""width: 408px; height: 417px;""></div></div>",j,delaylearn,learning,trial,kFUJWrep1TZjcr9WTJE4iLonYul2,kFUJWrep1TZjcr9WTJE4iLonYul2,5.0,images/choice_trial_10.png,images/choice_trial_8.png,images/pattern_7.png,j,j,750.0,10.0,8.0,6.0,1.0,39.0,1.0,1.0,8.0,210.0,,,,,,5cb59c9e4c39f300173efd41,09:09:00,27/02/2024
html-keyboard-response,217,463673,0.0-90.0-1.0,,"<div style=""display: flex; flex-direction: column; align-items: center; margin-top: -40px;""><img src=""images/pattern_7.png"" style=""width: 234px; height: 230px; margin-top: -50px;""><div style=""display: flex; justify-content: space-between; margin-top: 33px;""><img src=""images/choice_trial_8.png"" style=""width: 408px; height: 417px; margin-left:608px;""></div></div>",,delaylearn,learning,display_response,kFUJWrep1TZjcr9WTJE4iLonYul2,kFUJWrep1TZjcr9WTJE4iLonYul2,,,,,,,,,,,,,,,,,chosen stimuli: images/choice_trial_8.png,,,,,5cb59c9e4c39f300173efd41,09:09:00,27/02/2024
html-keyboard-response,218,464436,0.0-90.0-2.0,,,,delaylearn,learning,feedback_duration_window,kFUJWrep1TZjcr9WTJE4iLonYul2,kFUJWrep1TZjcr9WTJE4iLonYul2,,,,,,,,,,,,,,,,,,750.0,,,,5cb59c9e4c39f300173efd41,09:09:00,27/02/2024
html-keyboard-response,219,465953,0.0-90.0-3.0,,<div style='margin:auto;width: auto; font-size: 150%'><span style='font-weight: bold; font-size: 100px; color: green;'>+10 points!</span><br><br></div>,,delaylearn,learning,feedback_image_window,kFUJWrep1TZjcr9WTJE4iLonYul2,kFUJWrep1TZjcr9WTJE4iLonYul2,,,,,,,,,,,,,,,,,,,,,,5cb59c9e4c39f300173efd41,09:09:00,27/02/2024
html-keyboard-response,220,468325,0.0-91.0,,"<div style=""font-size:100px;"">+</div>",,delaylearn,learning,ITI,kFUJWrep1TZjcr9WTJE4iLonYul2,kFUJWrep1TZjcr9WTJE4iLonYul2,,,,,,,,,,,,,,,,,,,2358.0,,,5cb59c9e4c39f300173efd41,09:09:00,27/02/2024
html-keyboard-response,221,469258,0.0-92.0-0.0,927.0,"<div style=""display: flex; flex-direction: column; align-items: center; margin-top: -40px;""><img src=""images/pattern_5.png"" style=""width: 234px; height: 230px; margin-top: -50px;""><div style=""display: flex; justify-content: space-between; margin-top: 33px;""><img src=""images/choice_trial_13.png"" style=""width: 408px; height: 417px; margin-right: 200px;""><img src=""images/choice_trial_7.png"" style=""width: 408px; height: 417px;""></div></div>",f,delaylearn,learning,trial,kFUJWrep1TZjcr9WTJE4iLonYul2,kFUJWrep1TZjcr9WTJE4iLonYul2,5.0,images/choice_trial_13.png,images/choice_trial_7.png,images/pattern_5.png,j,j,750.0,13.0,7.0,4.0,1.0,40.0,0.0,0.0,13.0,210.0,,,,,,5cb59c9e4c39f300173efd41,09:09:00,27/02/2024
html-keyboard-response,222,470273,0.0-92.0-1.0,,"<div style=""display: flex; flex-direction: column; align-items: center; margin-top: -40px;""><img src=""images/pattern_5.png"" style=""width: 234px; height: 230px; margin-top: -50px;""><div style=""display: flex; justify-content: space-between; margin-top: 33px;""><img src=""images/choice_trial_13.png"" style=""width: 408px; height: 417px; margin-right: 608px;""></div></div>",,delaylearn,learning,display_response,kFUJWrep1TZjcr9WTJE4iLonYul2,kFUJWrep1TZjcr9WTJE4iLonYul2,,,,,,,,,,,,,,,,,chosen stimuli: images/choice_trial_13.png,,,,,5cb59c9e4c39f300173efd41,09:09:00,27/02/2024
html-keyboard-response,223,471031,0.0-92.0-2.0,,,,delaylearn,learning,feedback_duration_window,kFUJWrep1TZjcr9WTJE4iLonYul2,kFUJWrep1TZjcr9WTJE4iLonYul2,,,,,,,,,,,,,,,,,,750.0,,,,5cb59c9e4c39f300173efd41,09:09:00,27/02/2024
html-keyboard-response,224,472545,0.0-92.0-3.0,,<div style='margin:auto;width: auto; font-size: 150%'><span style='font-weight: bold; font-size: 100px; color: red;'>0 points!</span><br><br></div>,,delaylearn,learning,feedback_image_window,kFUJWrep1TZjcr9WTJE4iLonYul2,kFUJWrep1TZjcr9WTJE4iLonYul2,,,,,,,,,,,,,,,,,,,,,,5cb59c9e4c39f300173efd41,09:09:00,27/02/2024
html-keyboard-response,225,473057,0.0-93.0-0.0,,,,,,mood_trial_fixation,kFUJWrep1TZjcr9WTJE4iLonYul2,,,,,,,,,,,,,,,,,,,,,,,5cb59c9e4c39f300173efd41,09:09:00,27/02/2024
lmdlab-html-vas-response,226,478581,0.0-93.0-1.0,4507.0,How happy are you right now?,0.7453703703703703,delaylearn,learning,mood_trial,kFUJWrep1TZjcr9WTJE4iLonYul2,kFUJWrep1TZjcr9WTJE4iLonYul2,,,,,,,,,,,,,,,,,,,,"['Very unhappy', 'Very happy']",,5cb59c9e4c39f300173efd41,09:09:00,27/02/2024
html-keyboard-response,227,480366,0.0-94.0,,"<div style=""font-size:100px;"">+</div>",,delaylearn,learning,ITI,kFUJWrep1TZjcr9WTJE4iLonYul2,kFUJWrep1TZjcr9WTJE4iLonYul2,,,,,,,,,,,,,,,,,,,1778.0,,,5cb59c9e4c39f300173efd41,09:09:00,27/02/2024
html-keyboard-response,228,481938,0.0-95.0-0.0,1566.4000000357628,"<div style=""display: flex; flex-direction: column; align-items: center; margin-top: -40px;""><img src=""images/pattern_4.png"" style=""width: 234px; height: 230px; margin-top: -50px;""><div style=""display: flex; justify-content: space-between; margin-top: 33px;""><img src=""images/choice_trial_11.png"" style=""width: 408px; height: 417px; margin-right: 200px;""><img src=""images/choice_trial_4.png"" style=""width: 408px; height: 417px;""></div></div>",j,delaylearn,learning,trial,kFUJWrep1TZjcr9WTJE4iLonYul2,kFUJWrep1TZjcr9WTJE4iLonYul2,5.0,images/choice_trial_11.png,images/choice_trial_4.png,images/pattern_4.png,f,f,7000.0,11.0,4.0,3.0,0.0,41.0,0.0,0.0,4.0,210.0,,,,,,5cb59c9e4c39f300173efd41,09:09:00,27/02/2024
html-keyboard-response,229,482952,0.0-95.0-1.0,,"<div style=""display: flex; flex-direction: column; align-items: center; margin-top: -40px;""><img src=""images/pattern_4.png"" style=""width: 234px; height: 230px; margin-top: -50px;""><div style=""display: flex; justify-content: space-between; margin-top: 33px;""><img src=""images/choice_trial_4.png"" style=""width: 408px; height: 417px; margin-left:608px;""></div></div>",,delaylearn,learning,display_response,kFUJWrep1TZjcr9WTJE4iLonYul2,kFUJWrep1TZjcr9WTJE4iLonYul2,,,,,,,,,,,,,,,,,chosen stimuli: images/choice_trial_4.png,,,,,5cb59c9e4c39f300173efd41,09:09:00,27/02/2024
html-keyboard-response,230,489966,0.0-95.0-2.0,,,,delaylearn,learning,feedback_duration_window,kFUJWrep1TZjcr9WTJE4iLonYul2,kFUJWrep1TZjcr9WTJE4iLonYul2,,,,,,,,,,,,,,,,,,7000.0,,,,5cb59c9e4c39f300173efd41,09:09:00,27/02/2024
html-keyboard-response,231,491478,0.0-95.0-3.0,,<div style='margin:auto;width: auto; font-size: 150%'><span style='font-weight: bold; font-size: 100px; color: red;'>0 points!</span><br><br></div>,,delaylearn,learning,feedback_image_window,kFUJWrep1TZjcr9WTJE4iLonYul2,kFUJWrep1TZjcr9WTJE4iLonYul2,,,,,,,,,,,,,,,,,,,,,,5cb59c9e4c39f300173efd41,09:09:00,27/02/2024
