trial_type,trial_index,time_elapsed,internal_node_id,rt,stimulus,response,exp_name,exp_stage,test_part,subjectID,databaseID,counterbal,choice_stimuli_1,choice_stimuli_2,pattern_stimuli,rewarded_answer,correct_answer,feedback_duration_times,stim_left,stim_right,pair,leftright_counter,trial,response_correct,response_rewarded,chosen_stim,counter,displayed_choice,feedback_durations,ITI_duration,labels,rest_warning,prolificID,start_time,date
pavlovia,0,690,0.0-0.0,,,,,,,PEEVLBeufbRL6wXzFlew5v9sOgB2,,,,,,,,,,,,,,,,,,,,,,,614b90050a269c27f4746a37,09:06:58,27/02/2024
html-keyboard-response,1,3693,0.0-1.0,,"<div style=""font-size:100px;"">+</div>",,delaylearn,learning,pre_fixation,PEEVLBeufbRL6wXzFlew5v9sOgB2,,,,,,,,,,,,,,,,,,,,,,,614b90050a269c27f4746a37,09:06:58,27/02/2024
html-keyboard-response,2,5656,0.0-2.0-0.0,1958.800000000745,"<div style=""display: flex; flex-direction: column; align-items: center; margin-top: -40px;""><img src=""images/demo_images/pattern_1.png"" style=""width: 234px; height: 230px; margin-top: -50px;""><div style=""display: flex; justify-content: space-between; margin-top: 33px;""><img src=""images/demo_images/choice_trial_2.png"" style=""width: 408px; height: 417px; margin-right: 200px;""><img src=""images/demo_images/choice_trial_1.png"" style=""width: 408px; height: 417px;""></div></div>",f,delaylearn,learning,trial,PEEVLBeufbRL6wXzFlew5v9sOgB2,PEEVLBeufbRL6wXzFlew5v9sOgB2,1.0,images/demo_images/choice_trial_2.png,images/demo_images/choice_trial_1.png,images/demo_images/pattern_1.png,j,j,3000.0,2.0,1.0,20.0,1.0,1.0,0.0,0.0,2.0,0.0,,,,,,614b90050a269c27f4746a37,09:06:58,27/02/2024
html-keyboard-response,3,6659,0.0-2.0-1.0,,"<div style=""display: flex; flex-direction: column; align-items: center; margin-top: -40px;""><img src=""images/demo_images/pattern_1.png"" style=""width: 234px; height: 230px; margin-top: -50px;""><div style=""display: flex; justify-content: space-between; margin-top: 33px;""><img src=""images/demo_images/choice_trial_2.png"" style=""width: 408px; height: 417px; margin-right: 608px;""></div></div>",,delaylearn,learning,display_response,PEEVLBeufbRL6wXzFlew5v9sOgB2,PEEVLBeufbRL6wXzFlew5v9sOgB2,,,,,,,,,,,,,,,,,chosen stimuli: images/demo_images/choice_trial_2.png,,,,,614b90050a269c27f4746a37,09:06:58,27/02/2024
html-keyboard-response,4,9661,0.0-2.0-2.0,,,,delaylearn,learning,feedback_duration_window,PEEVLBeufbRL6wXzFlew5v9sOgB2,PEEVLBeufbRL6wXzFlew5v9sOgB2,,,,,,,,,,,,,,,,,,3000.0,,,,614b90050a269c27f4746a37,09:06:58,27/02/2024
html-keyboard-response,5,11164,0.0-2.0-3.0,,<div style='margin:auto;width: auto; font-size: 150%'><span style='font-weight: bold; font-size: 100px; color: red;'>0 points!</span><br><br></div>,,delaylearn,learning,feedback_image_window,PEEVLBeufbRL6wXzFlew5v9sOgB2,PEEVLBeufbRL6wXzFlew5v9sOgB2,,,,,,,,,,,,,,,,,,,,,,614b90050a269c27f4746a37,09:06:58,27/02/2024
html-keyboard-response,6,13418,0.0-3.0,,"<div style=""font-size:100px;"">+</div>",,delaylearn,learning,ITI,PEEVLBeufbRL6wXzFlew5v9sOgB2,PEEVLBeufbRL6wXzFlew5v9sOgB2,,,,,,,,,,,,,,,,,,,2253.0,,,614b90050a269c27f4746a37,09:06:58,27/02/2024
html-keyboard-response,7,14743,0.0-4.0-0.0,1320.2000000029802,"<div style=""display: flex; flex-direction: column; align-items: center; margin-top: -40px;""><img src=""images/demo_images/pattern_1.png"" style=""width: 234px; height: 230px; margin-top: -50px;""><div style=""display: flex; justify-content: space-between; margin-top: 33px;""><img src=""images/demo_images/choice_trial_2.png"" style=""width: 408px; height: 417px; margin-right: 200px;""><img src=""images/demo_images/choice_trial_1.png"" style=""width: 408px; height: 417px;""></div></div>",j,delaylearn,learning,trial,PEEVLBeufbRL6wXzFlew5v9sOgB2,PEEVLBeufbRL6wXzFlew5v9sOgB2,1.0,images/demo_images/choice_trial_2.png,images/demo_images/choice_trial_1.png,images/demo_images/pattern_1.png,j,j,3000.0,2.0,1.0,20.0,1.0,2.0,1.0,1.0,1.0,10.0,,,,,,614b90050a269c27f4746a37,09:06:58,27/02/2024
html-keyboard-response,8,15746,0.0-4.0-1.0,,"<div style=""display: flex; flex-direction: column; align-items: center; margin-top: -40px;""><img src=""images/demo_images/pattern_1.png"" style=""width: 234px; height: 230px; margin-top: -50px;""><div style=""display: flex; justify-content: space-between; margin-top: 33px;""><img src=""images/demo_images/choice_trial_1.png"" style=""width: 408px; height: 417px; margin-left:608px;""></div></div>",,delaylearn,learning,display_response,PEEVLBeufbRL6wXzFlew5v9sOgB2,PEEVLBeufbRL6wXzFlew5v9sOgB2,,,,,,,,,,,,,,,,,chosen stimuli: images/demo_images/choice_trial_1.png,,,,,614b90050a269c27f4746a37,09:06:58,27/02/2024
html-keyboard-response,9,18748,0.0-4.0-2.0,,,,delaylearn,learning,feedback_duration_window,PEEVLBeufbRL6wXzFlew5v9sOgB2,PEEVLBeufbRL6wXzFlew5v9sOgB2,,,,,,,,,,,,,,,,,,3000.0,,,,614b90050a269c27f4746a37,09:06:58,27/02/2024
html-keyboard-response,10,20250,0.0-4.0-3.0,,<div style='margin:auto;width: auto; font-size: 150%'><span style='font-weight: bold; font-size: 100px; color: green;'>+10 points!</span><br><br></div>,,delaylearn,learning,feedback_image_window,PEEVLBeufbRL6wXzFlew5v9sOgB2,PEEVLBeufbRL6wXzFlew5v9sOgB2,,,,,,,,,,,,,,,,,,,,,,614b90050a269c27f4746a37,09:06:58,27/02/2024
html-keyboard-response,11,22515,0.0-5.0,,"<div style=""font-size:100px;"">+</div>",,delaylearn,learning,ITI,PEEVLBeufbRL6wXzFlew5v9sOgB2,PEEVLBeufbRL6wXzFlew5v9sOgB2,,,,,,,,,,,,,,,,,,,2264.0,,,614b90050a269c27f4746a37,09:06:58,27/02/2024
html-keyboard-response,12,24609,0.0-6.0-0.0,2090.300000000745,"<div style=""display: flex; flex-direction: column; align-items: center; margin-top: -40px;""><img src=""images/demo_images/pattern_1.png"" style=""width: 234px; height: 230px; margin-top: -50px;""><div style=""display: flex; justify-content: space-between; margin-top: 33px;""><img src=""images/demo_images/choice_trial_1.png"" style=""width: 408px; height: 417px; margin-right: 200px;""><img src=""images/demo_images/choice_trial_2.png"" style=""width: 408px; height: 417px;""></div></div>",f,delaylearn,learning,trial,PEEVLBeufbRL6wXzFlew5v9sOgB2,PEEVLBeufbRL6wXzFlew5v9sOgB2,1.0,images/demo_images/choice_trial_1.png,images/demo_images/choice_trial_2.png,images/demo_images/pattern_1.png,j,f,3000.0,1.0,2.0,20.0,0.0,3.0,1.0,0.0,1.0,10.0,,,,,,614b90050a269c27f4746a37,09:06:58,27/02/2024
html-keyboard-response,13,25611,0.0-6.0-1.0,,"<div style=""display: flex; flex-direction: column; align-items: center; margin-top: -40px;""><img src=""images/demo_images/pattern_1.png"" style=""width: 234px; height: 230px; margin-top: -50px;""><div style=""display: flex; justify-content: space-between; margin-top: 33px;""><img src=""images/demo_images/choice_trial_1.png"" style=""width: 408px; height: 417px; margin-right: 608px;""></div></div>",,delaylearn,learning,display_response,PEEVLBeufbRL6wXzFlew5v9sOgB2,PEEVLBeufbRL6wXzFlew5v9sOgB2,,,,,,,,,,,,,,,,,chosen stimuli: images/demo_images/choice_trial_1.png,,,,,614b90050a269c27f4746a37,09:06:58,27/02/2024
html-keyboard-response,14,28613,0.0-6.0-2.0,,,,delaylearn,learning,feedback_duration_window,PEEVLBeufbRL6wXzFlew5v9sOgB2,PEEVLBeufbRL6wXzFlew5v9sOgB2,,,,,,,,,,,,,,,,,,3000.0,,,,614b90050a269c27f4746a37,09:06:58,27/02/2024
html-keyboard-response,15,30116,0.0-6.0-3.0,,<div style='margin:auto;width: auto; font-size: 150%'><span style='font-weight: bold; font-size: 100px; color: red;'>0 points!</span><br><br></div>,,delaylearn,learning,feedback_image_window,PEEVLBeufbRL6wXzFlew5v9sOgB2,PEEVLBeufbRL6wXzFlew5v9sOgB2,,,,,,,,,,,,,,,,,,,,,,614b90050a269c27f4746a37,09:06:58,27/02/2024
html-keyboard-response,16,32217,0.0-7.0,,"<div style=""font-size:100px;"">+</div>",,delaylearn,learning,ITI,PEEVLBeufbRL6wXzFlew5v9sOgB2,PEEVLBeufbRL6wXzFlew5v9sOgB2,,,,,,,,,,,,,,,,,,,2100.0,,,614b90050a269c27f4746a37,09:06:58,27/02/2024
html-keyboard-response,17,34499,0.0-8.0-0.0,2278.400000002235,"<div style=""display: flex; flex-direction: column; align-items: center; margin-top: -40px;""><img src=""images/demo_images/pattern_1.png"" style=""width: 234px; height: 230px; margin-top: -50px;""><div style=""display: flex; justify-content: space-between; margin-top: 33px;""><img src=""images/demo_images/choice_trial_1.png"" style=""width: 408px; height: 417px; margin-right: 200px;""><img src=""images/demo_images/choice_trial_2.png"" style=""width: 408px; height: 417px;""></div></div>",f,delaylearn,learning,trial,PEEVLBeufbRL6wXzFlew5v9sOgB2,PEEVLBeufbRL6wXzFlew5v9sOgB2,1.0,images/demo_images/choice_trial_1.png,images/demo_images/choice_trial_2.png,images/demo_images/pattern_1.png,f,f,3000.0,1.0,2.0,20.0,0.0,4.0,1.0,1.0,1.0,20.0,,,,,,614b90050a269c27f4746a37,09:06:58,27/02/2024
html-keyboard-response,18,35501,0.0-8.0-1.0,,"<div style=""display: flex; flex-direction: column; align-items: center; margin-top: -40px;""><img src=""images/demo_images/pattern_1.png"" style=""width: 234px; height: 230px; margin-top: -50px;""><div style=""display: flex; justify-content: space-between; margin-top: 33px;""><img src=""images/demo_images/choice_trial_1.png"" style=""width: 408px; height: 417px; margin-right: 608px;""></div></div>",,delaylearn,learning,display_response,PEEVLBeufbRL6wXzFlew5v9sOgB2,PEEVLBeufbRL6wXzFlew5v9sOgB2,,,,,,,,,,,,,,,,,chosen stimuli: images/demo_images/choice_trial_1.png,,,,,614b90050a269c27f4746a37,09:06:58,27/02/2024
html-keyboard-response,19,38502,0.0-8.0-2.0,,,,delaylearn,learning,feedback_duration_window,PEEVLBeufbRL6wXzFlew5v9sOgB2,PEEVLBeufbRL6wXzFlew5v9sOgB2,,,,,,,,,,,,,,,,,,3000.0,,,,614b90050a269c27f4746a37,09:06:58,27/02/2024
html-keyboard-response,20,40005,0.0-8.0-3.0,,<div style='margin:auto;width: auto; font-size: 150%'><span style='font-weight: bold; font-size: 100px; color: green;'>+10 points!</span><br><br></div>,,delaylearn,learning,feedback_image_window,PEEVLBeufbRL6wXzFlew5v9sOgB2,PEEVLBeufbRL6wXzFlew5v9sOgB2,,,,,,,,,,,,,,,,,,,,,,614b90050a269c27f4746a37,09:06:58,27/02/2024
html-keyboard-response,21,40506,0.0-9.0-0.0,,,,,,mood_trial_fixation,PEEVLBeufbRL6wXzFlew5v9sOgB2,,,,,,,,,,,,,,,,,,,,,,,614b90050a269c27f4746a37,09:06:58,27/02/2024
lmdlab-html-vas-response,22,45410,0.0-9.0-1.0,3883.0,How happy are you right now?,0.4653055396916048,delaylearn,learning,mood_trial,PEEVLBeufbRL6wXzFlew5v9sOgB2,PEEVLBeufbRL6wXzFlew5v9sOgB2,,,,,,,,,,,,,,,,,,,,"['Very unhappy', 'Very happy']",,614b90050a269c27f4746a37,09:06:58,27/02/2024
html-keyboard-response,23,47164,0.0-10.0,,"<div style=""font-size:100px;"">+</div>",,delaylearn,learning,ITI,PEEVLBeufbRL6wXzFlew5v9sOgB2,PEEVLBeufbRL6wXzFlew5v9sOgB2,,,,,,,,,,,,,,,,,,,1752.0,,,614b90050a269c27f4746a37,09:06:58,27/02/2024
html-keyboard-response,24,49314,0.0-11.0-0.0,2146.599999997765,"<div style=""display: flex; flex-direction: column; align-items: center; margin-top: -40px;""><img src=""images/demo_images/pattern_1.png"" style=""width: 234px; height: 230px; margin-top: -50px;""><div style=""display: flex; justify-content: space-between; margin-top: 33px;""><img src=""images/demo_images/choice_trial_2.png"" style=""width: 408px; height: 417px; margin-right: 200px;""><img src=""images/demo_images/choice_trial_1.png"" style=""width: 408px; height: 417px;""></div></div>",j,delaylearn,learning,trial,PEEVLBeufbRL6wXzFlew5v9sOgB2,PEEVLBeufbRL6wXzFlew5v9sOgB2,1.0,images/demo_images/choice_trial_2.png,images/demo_images/choice_trial_1.png,images/demo_images/pattern_1.png,j,j,3000.0,2.0,1.0,20.0,1.0,5.0,1.0,1.0,1.0,30.0,,,,,,614b90050a269c27f4746a37,09:06:58,27/02/2024
html-keyboard-response,25,50317,0.0-11.0-1.0,,"<div style=""display: flex; flex-direction: column; align-items: center; margin-top: -40px;""><img src=""images/demo_images/pattern_1.png"" style=""width: 234px; height: 230px; margin-top: -50px;""><div style=""display: flex; justify-content: space-between; margin-top: 33px;""><img src=""images/demo_images/choice_trial_1.png"" style=""width: 408px; height: 417px; margin-left:608px;""></div></div>",,delaylearn,learning,display_response,PEEVLBeufbRL6wXzFlew5v9sOgB2,PEEVLBeufbRL6wXzFlew5v9sOgB2,,,,,,,,,,,,,,,,,chosen stimuli: images/demo_images/choice_trial_1.png,,,,,614b90050a269c27f4746a37,09:06:58,27/02/2024
html-keyboard-response,26,53318,0.0-11.0-2.0,,,,delaylearn,learning,feedback_duration_window,PEEVLBeufbRL6wXzFlew5v9sOgB2,PEEVLBeufbRL6wXzFlew5v9sOgB2,,,,,,,,,,,,,,,,,,3000.0,,,,614b90050a269c27f4746a37,09:06:58,27/02/2024
html-keyboard-response,27,54820,0.0-11.0-3.0,,<div style='margin:auto;width: auto; font-size: 150%'><span style='font-weight: bold; font-size: 100px; color: green;'>+10 points!</span><br><br></div>,,delaylearn,learning,feedback_image_window,PEEVLBeufbRL6wXzFlew5v9sOgB2,PEEVLBeufbRL6wXzFlew5v9sOgB2,,,,,,,,,,,,,,,,,,,,,,614b90050a269c27f4746a37,09:06:58,27/02/2024
html-keyboard-response,28,56421,0.0-12.0,,"<div style=""font-size:100px;"">+</div>",,delaylearn,learning,ITI,PEEVLBeufbRL6wXzFlew5v9sOgB2,PEEVLBeufbRL6wXzFlew5v9sOgB2,,,,,,,,,,,,,,,,,,,1599.0,,,614b90050a269c27f4746a37,09:06:58,27/02/2024
html-keyboard-response,29,57701,0.0-13.0-0.0,1278.2000000029802,"<div style=""display: flex; flex-direction: column; align-items: center; margin-top: -40px;""><img src=""images/demo_images/pattern_1.png"" style=""width: 234px; height: 230px; margin-top: -50px;""><div style=""display: flex; justify-content: space-between; margin-top: 33px;""><img src=""images/demo_images/choice_trial_1.png"" style=""width: 408px; height: 417px; margin-right: 200px;""><img src=""images/demo_images/choice_trial_2.png"" style=""width: 408px; height: 417px;""></div></div>",f,delaylearn,learning,trial,PEEVLBeufbRL6wXzFlew5v9sOgB2,PEEVLBeufbRL6wXzFlew5v9sOgB2,1.0,images/demo_images/choice_trial_1.png,images/demo_images/choice_trial_2.png,images/demo_images/pattern_1.png,f,f,3000.0,1.0,2.0,20.0,0.0,6.0,1.0,1.0,1.0,40.0,,,,,,614b90050a269c27f4746a37,09:06:58,27/02/2024
html-keyboard-response,30,58703,0.0-13.0-1.0,,"<div style=""display: flex; flex-direction: column; align-items: center; margin-top: -40px;""><img src=""images/demo_images/pattern_1.png"" style=""width: 234px; height: 230px; margin-top: -50px;""><div style=""display: flex; justify-content: space-between; margin-top: 33px;""><img src=""images/demo_images/choice_trial_1.png"" style=""width: 408px; height: 417px; margin-right: 608px;""></div></div>",,delaylearn,learning,display_response,PEEVLBeufbRL6wXzFlew5v9sOgB2,PEEVLBeufbRL6wXzFlew5v9sOgB2,,,,,,,,,,,,,,,,,chosen stimuli: images/demo_images/choice_trial_1.png,,,,,614b90050a269c27f4746a37,09:06:58,27/02/2024
html-keyboard-response,31,61705,0.0-13.0-2.0,,,,delaylearn,learning,feedback_duration_window,PEEVLBeufbRL6wXzFlew5v9sOgB2,PEEVLBeufbRL6wXzFlew5v9sOgB2,,,,,,,,,,,,,,,,,,3000.0,,,,614b90050a269c27f4746a37,09:06:58,27/02/2024
html-keyboard-response,32,63207,0.0-13.0-3.0,,<div style='margin:auto;width: auto; font-size: 150%'><span style='font-weight: bold; font-size: 100px; color: green;'>+10 points!</span><br><br></div>,,delaylearn,learning,feedback_image_window,PEEVLBeufbRL6wXzFlew5v9sOgB2,PEEVLBeufbRL6wXzFlew5v9sOgB2,,,,,,,,,,,,,,,,,,,,,,614b90050a269c27f4746a37,09:06:58,27/02/2024
html-button-response,33,65597,0.0-14.0,2385.89999999851,"
  <div style=""display: flex; align-items: center; justify-content: center; height: 80vh;"">
  <div>
          <img src=""images/inst_demo_finish.png"" style=""width: 80vw; height:auto;"">
          <br><br>
      </div>
      <br><br>
  </div>",0,,,,PEEVLBeufbRL6wXzFlew5v9sOgB2,,,,,,,,,,,,,,,,,,,,,,,614b90050a269c27f4746a37,09:06:58,27/02/2024
html-keyboard-response,34,68915,0.0-15.0,3314.199999999255,"
  <div style=""display: flex; align-items: center; justify-content: center; height: 80vh;"">
  <div>
          <img src=""images/inst_6.png"" style=""width: 80vw; height:auto;"">
          <br><br>
      </div>
      <br><br>
  </div>",f,,,,PEEVLBeufbRL6wXzFlew5v9sOgB2,,,,,,,,,,,,,,,,,,,,,,,614b90050a269c27f4746a37,09:06:58,27/02/2024
html-keyboard-response,35,71917,0.0-16.0,,"<div style=""font-size:100px;"">+</div>",,delaylearn,learning,pre_fixation,PEEVLBeufbRL6wXzFlew5v9sOgB2,,,,,,,,,,,,,,,,,,,,,,,614b90050a269c27f4746a37,09:06:58,27/02/2024
html-keyboard-response,36,73626,0.0-17.0,,"<div style=""font-size:100px;"">+</div>",,delaylearn,learning,ITI,PEEVLBeufbRL6wXzFlew5v9sOgB2,PEEVLBeufbRL6wXzFlew5v9sOgB2,,,,,,,,,,,,,,,,,,,1706.0,,,614b90050a269c27f4746a37,09:06:58,27/02/2024
html-keyboard-response,37,76451,0.0-18.0-0.0,2821.39999999851,"<div style=""display: flex; flex-direction: column; align-items: center; margin-top: -40px;""><img src=""images/pattern_3.png"" style=""width: 234px; height: 230px; margin-top: -50px;""><div style=""display: flex; justify-content: space-between; margin-top: 33px;""><img src=""images/choice_trial_5.png"" style=""width: 408px; height: 417px; margin-right: 200px;""><img src=""images/choice_trial_6.png"" style=""width: 408px; height: 417px;""></div></div>",j,delaylearn,learning,trial,PEEVLBeufbRL6wXzFlew5v9sOgB2,PEEVLBeufbRL6wXzFlew5v9sOgB2,1.0,images/choice_trial_5.png,images/choice_trial_6.png,images/pattern_3.png,f,f,7000.0,5.0,6.0,2.0,0.0,7.0,0.0,0.0,6.0,40.0,,,,,,614b90050a269c27f4746a37,09:06:58,27/02/2024
html-keyboard-response,38,77453,0.0-18.0-1.0,,"<div style=""display: flex; flex-direction: column; align-items: center; margin-top: -40px;""><img src=""images/pattern_3.png"" style=""width: 234px; height: 230px; margin-top: -50px;""><div style=""display: flex; justify-content: space-between; margin-top: 33px;""><img src=""images/choice_trial_6.png"" style=""width: 408px; height: 417px; margin-left:608px;""></div></div>",,delaylearn,learning,display_response,PEEVLBeufbRL6wXzFlew5v9sOgB2,PEEVLBeufbRL6wXzFlew5v9sOgB2,,,,,,,,,,,,,,,,,chosen stimuli: images/choice_trial_6.png,,,,,614b90050a269c27f4746a37,09:06:58,27/02/2024
html-keyboard-response,39,84455,0.0-18.0-2.0,,,,delaylearn,learning,feedback_duration_window,PEEVLBeufbRL6wXzFlew5v9sOgB2,PEEVLBeufbRL6wXzFlew5v9sOgB2,,,,,,,,,,,,,,,,,,7000.0,,,,614b90050a269c27f4746a37,09:06:58,27/02/2024
html-keyboard-response,40,85957,0.0-18.0-3.0,,<div style='margin:auto;width: auto; font-size: 150%'><span style='font-weight: bold; font-size: 100px; color: red;'>0 points!</span><br><br></div>,,delaylearn,learning,feedback_image_window,PEEVLBeufbRL6wXzFlew5v9sOgB2,PEEVLBeufbRL6wXzFlew5v9sOgB2,,,,,,,,,,,,,,,,,,,,,,614b90050a269c27f4746a37,09:06:58,27/02/2024
html-keyboard-response,41,87519,0.0-19.0,,"<div style=""font-size:100px;"">+</div>",,delaylearn,learning,ITI,PEEVLBeufbRL6wXzFlew5v9sOgB2,PEEVLBeufbRL6wXzFlew5v9sOgB2,,,,,,,,,,,,,,,,,,,1560.0,,,614b90050a269c27f4746a37,09:06:58,27/02/2024
html-keyboard-response,42,89023,0.0-20.0-0.0,1500.2000000029802,"<div style=""display: flex; flex-direction: column; align-items: center; margin-top: -40px;""><img src=""images/pattern_7.png"" style=""width: 234px; height: 230px; margin-top: -50px;""><div style=""display: flex; justify-content: space-between; margin-top: 33px;""><img src=""images/choice_trial_14.png"" style=""width: 408px; height: 417px; margin-right: 200px;""><img src=""images/choice_trial_13.png"" style=""width: 408px; height: 417px;""></div></div>",f,delaylearn,learning,trial,PEEVLBeufbRL6wXzFlew5v9sOgB2,PEEVLBeufbRL6wXzFlew5v9sOgB2,1.0,images/choice_trial_14.png,images/choice_trial_13.png,images/pattern_7.png,j,j,750.0,14.0,13.0,6.0,1.0,8.0,0.0,0.0,14.0,40.0,,,,,,614b90050a269c27f4746a37,09:06:58,27/02/2024
html-keyboard-response,43,90025,0.0-20.0-1.0,,"<div style=""display: flex; flex-direction: column; align-items: center; margin-top: -40px;""><img src=""images/pattern_7.png"" style=""width: 234px; height: 230px; margin-top: -50px;""><div style=""display: flex; justify-content: space-between; margin-top: 33px;""><img src=""images/choice_trial_14.png"" style=""width: 408px; height: 417px; margin-right: 608px;""></div></div>",,delaylearn,learning,display_response,PEEVLBeufbRL6wXzFlew5v9sOgB2,PEEVLBeufbRL6wXzFlew5v9sOgB2,,,,,,,,,,,,,,,,,chosen stimuli: images/choice_trial_14.png,,,,,614b90050a269c27f4746a37,09:06:58,27/02/2024
html-keyboard-response,44,90777,0.0-20.0-2.0,,,,delaylearn,learning,feedback_duration_window,PEEVLBeufbRL6wXzFlew5v9sOgB2,PEEVLBeufbRL6wXzFlew5v9sOgB2,,,,,,,,,,,,,,,,,,750.0,,,,614b90050a269c27f4746a37,09:06:58,27/02/2024
html-keyboard-response,45,92279,0.0-20.0-3.0,,<div style='margin:auto;width: auto; font-size: 150%'><span style='font-weight: bold; font-size: 100px; color: red;'>0 points!</span><br><br></div>,,delaylearn,learning,feedback_image_window,PEEVLBeufbRL6wXzFlew5v9sOgB2,PEEVLBeufbRL6wXzFlew5v9sOgB2,,,,,,,,,,,,,,,,,,,,,,614b90050a269c27f4746a37,09:06:58,27/02/2024
html-keyboard-response,46,94672,0.0-21.0,,"<div style=""font-size:100px;"">+</div>",,delaylearn,learning,ITI,PEEVLBeufbRL6wXzFlew5v9sOgB2,PEEVLBeufbRL6wXzFlew5v9sOgB2,,,,,,,,,,,,,,,,,,,2392.0,,,614b90050a269c27f4746a37,09:06:58,27/02/2024
html-keyboard-response,47,96464,0.0-22.0-0.0,1788.1000000014901,"<div style=""display: flex; flex-direction: column; align-items: center; margin-top: -40px;""><img src=""images/pattern_4.png"" style=""width: 234px; height: 230px; margin-top: -50px;""><div style=""display: flex; justify-content: space-between; margin-top: 33px;""><img src=""images/choice_trial_7.png"" style=""width: 408px; height: 417px; margin-right: 200px;""><img src=""images/choice_trial_8.png"" style=""width: 408px; height: 417px;""></div></div>",f,delaylearn,learning,trial,PEEVLBeufbRL6wXzFlew5v9sOgB2,PEEVLBeufbRL6wXzFlew5v9sOgB2,1.0,images/choice_trial_7.png,images/choice_trial_8.png,images/pattern_4.png,f,f,7000.0,7.0,8.0,3.0,0.0,9.0,1.0,1.0,7.0,50.0,,,,,,614b90050a269c27f4746a37,09:06:58,27/02/2024
html-keyboard-response,48,97466,0.0-22.0-1.0,,"<div style=""display: flex; flex-direction: column; align-items: center; margin-top: -40px;""><img src=""images/pattern_4.png"" style=""width: 234px; height: 230px; margin-top: -50px;""><div style=""display: flex; justify-content: space-between; margin-top: 33px;""><img src=""images/choice_trial_7.png"" style=""width: 408px; height: 417px; margin-right: 608px;""></div></div>",,delaylearn,learning,display_response,PEEVLBeufbRL6wXzFlew5v9sOgB2,PEEVLBeufbRL6wXzFlew5v9sOgB2,,,,,,,,,,,,,,,,,chosen stimuli: images/choice_trial_7.png,,,,,614b90050a269c27f4746a37,09:06:58,27/02/2024
html-keyboard-response,49,104468,0.0-22.0-2.0,,,,delaylearn,learning,feedback_duration_window,PEEVLBeufbRL6wXzFlew5v9sOgB2,PEEVLBeufbRL6wXzFlew5v9sOgB2,,,,,,,,,,,,,,,,,,7000.0,,,,614b90050a269c27f4746a37,09:06:58,27/02/2024
html-keyboard-response,50,105970,0.0-22.0-3.0,,<div style='margin:auto;width: auto; font-size: 150%'><span style='font-weight: bold; font-size: 100px; color: green;'>+10 points!</span><br><br></div>,,delaylearn,learning,feedback_image_window,PEEVLBeufbRL6wXzFlew5v9sOgB2,PEEVLBeufbRL6wXzFlew5v9sOgB2,,,,,,,,,,,,,,,,,,,,,,614b90050a269c27f4746a37,09:06:58,27/02/2024
html-keyboard-response,51,107978,0.0-23.0,,"<div style=""font-size:100px;"">+</div>",,delaylearn,learning,ITI,PEEVLBeufbRL6wXzFlew5v9sOgB2,PEEVLBeufbRL6wXzFlew5v9sOgB2,,,,,,,,,,,,,,,,,,,2007.0,,,614b90050a269c27f4746a37,09:06:58,27/02/2024
html-keyboard-response,52,109791,0.0-24.0-0.0,1808.5999999977648,"<div style=""display: flex; flex-direction: column; align-items: center; margin-top: -40px;""><img src=""images/pattern_5.png"" style=""width: 234px; height: 230px; margin-top: -50px;""><div style=""display: flex; justify-content: space-between; margin-top: 33px;""><img src=""images/choice_trial_10.png"" style=""width: 408px; height: 417px; margin-right: 200px;""><img src=""images/choice_trial_9.png"" style=""width: 408px; height: 417px;""></div></div>",j,delaylearn,learning,trial,PEEVLBeufbRL6wXzFlew5v9sOgB2,PEEVLBeufbRL6wXzFlew5v9sOgB2,1.0,images/choice_trial_10.png,images/choice_trial_9.png,images/pattern_5.png,j,j,750.0,10.0,9.0,4.0,1.0,10.0,1.0,1.0,9.0,60.0,,,,,,614b90050a269c27f4746a37,09:06:58,27/02/2024
html-keyboard-response,53,110793,0.0-24.0-1.0,,"<div style=""display: flex; flex-direction: column; align-items: center; margin-top: -40px;""><img src=""images/pattern_5.png"" style=""width: 234px; height: 230px; margin-top: -50px;""><div style=""display: flex; justify-content: space-between; margin-top: 33px;""><img src=""images/choice_trial_9.png"" style=""width: 408px; height: 417px; margin-left:608px;""></div></div>",,delaylearn,learning,display_response,PEEVLBeufbRL6wXzFlew5v9sOgB2,PEEVLBeufbRL6wXzFlew5v9sOgB2,,,,,,,,,,,,,,,,,chosen stimuli: images/choice_trial_9.png,,,,,614b90050a269c27f4746a37,09:06:58,27/02/2024
html-keyboard-response,54,111544,0.0-24.0-2.0,,,,delaylearn,learning,feedback_duration_window,PEEVLBeufbRL6wXzFlew5v9sOgB2,PEEVLBeufbRL6wXzFlew5v9sOgB2,,,,,,,,,,,,,,,,,,750.0,,,,614b90050a269c27f4746a37,09:06:58,27/02/2024
html-keyboard-response,55,113046,0.0-24.0-3.0,,<div style='margin:auto;width: auto; font-size: 150%'><span style='font-weight: bold; font-size: 100px; color: green;'>+10 points!</span><br><br></div>,,delaylearn,learning,feedback_image_window,PEEVLBeufbRL6wXzFlew5v9sOgB2,PEEVLBeufbRL6wXzFlew5v9sOgB2,,,,,,,,,,,,,,,,,,,,,,614b90050a269c27f4746a37,09:06:58,27/02/2024
html-keyboard-response,56,115341,0.0-25.0,,"<div style=""font-size:100px;"">+</div>",,delaylearn,learning,ITI,PEEVLBeufbRL6wXzFlew5v9sOgB2,PEEVLBeufbRL6wXzFlew5v9sOgB2,,,,,,,,,,,,,,,,,,,2293.0,,,614b90050a269c27f4746a37,09:06:58,27/02/2024
html-keyboard-response,57,117503,0.0-26.0-0.0,2158.300000000745,"<div style=""display: flex; flex-direction: column; align-items: center; margin-top: -40px;""><img src=""images/pattern_6.png"" style=""width: 234px; height: 230px; margin-top: -50px;""><div style=""display: flex; justify-content: space-between; margin-top: 33px;""><img src=""images/choice_trial_11.png"" style=""width: 408px; height: 417px; margin-right: 200px;""><img src=""images/choice_trial_12.png"" style=""width: 408px; height: 417px;""></div></div>",f,delaylearn,learning,trial,PEEVLBeufbRL6wXzFlew5v9sOgB2,PEEVLBeufbRL6wXzFlew5v9sOgB2,1.0,images/choice_trial_11.png,images/choice_trial_12.png,images/pattern_6.png,j,f,750.0,11.0,12.0,5.0,0.0,11.0,1.0,0.0,11.0,60.0,,,,,,614b90050a269c27f4746a37,09:06:58,27/02/2024
html-keyboard-response,58,118505,0.0-26.0-1.0,,"<div style=""display: flex; flex-direction: column; align-items: center; margin-top: -40px;""><img src=""images/pattern_6.png"" style=""width: 234px; height: 230px; margin-top: -50px;""><div style=""display: flex; justify-content: space-between; margin-top: 33px;""><img src=""images/choice_trial_11.png"" style=""width: 408px; height: 417px; margin-right: 608px;""></div></div>",,delaylearn,learning,display_response,PEEVLBeufbRL6wXzFlew5v9sOgB2,PEEVLBeufbRL6wXzFlew5v9sOgB2,,,,,,,,,,,,,,,,,chosen stimuli: images/choice_trial_11.png,,,,,614b90050a269c27f4746a37,09:06:58,27/02/2024
html-keyboard-response,59,119256,0.0-26.0-2.0,,,,delaylearn,learning,feedback_duration_window,PEEVLBeufbRL6wXzFlew5v9sOgB2,PEEVLBeufbRL6wXzFlew5v9sOgB2,,,,,,,,,,,,,,,,,,750.0,,,,614b90050a269c27f4746a37,09:06:58,27/02/2024
html-keyboard-response,60,120758,0.0-26.0-3.0,,<div style='margin:auto;width: auto; font-size: 150%'><span style='font-weight: bold; font-size: 100px; color: red;'>0 points!</span><br><br></div>,,delaylearn,learning,feedback_image_window,PEEVLBeufbRL6wXzFlew5v9sOgB2,PEEVLBeufbRL6wXzFlew5v9sOgB2,,,,,,,,,,,,,,,,,,,,,,614b90050a269c27f4746a37,09:06:58,27/02/2024
html-keyboard-response,61,121259,0.0-27.0-0.0,,,,,,mood_trial_fixation,PEEVLBeufbRL6wXzFlew5v9sOgB2,,,,,,,,,,,,,,,,,,,,,,,614b90050a269c27f4746a37,09:06:58,27/02/2024
lmdlab-html-vas-response,62,125397,0.0-27.0-1.0,3131.0,How happy are you right now?,0.39403198172472875,delaylearn,learning,mood_trial,PEEVLBeufbRL6wXzFlew5v9sOgB2,PEEVLBeufbRL6wXzFlew5v9sOgB2,,,,,,,,,,,,,,,,,,,,"['Very unhappy', 'Very happy']",,614b90050a269c27f4746a37,09:06:58,27/02/2024
html-keyboard-response,63,127786,0.0-28.0,,"<div style=""font-size:100px;"">+</div>",,delaylearn,learning,ITI,PEEVLBeufbRL6wXzFlew5v9sOgB2,PEEVLBeufbRL6wXzFlew5v9sOgB2,,,,,,,,,,,,,,,,,,,2387.0,,,614b90050a269c27f4746a37,09:06:58,27/02/2024
html-keyboard-response,64,129711,0.0-29.0-0.0,1922.199999999255,"<div style=""display: flex; flex-direction: column; align-items: center; margin-top: -40px;""><img src=""images/pattern_1.png"" style=""width: 234px; height: 230px; margin-top: -50px;""><div style=""display: flex; justify-content: space-between; margin-top: 33px;""><img src=""images/choice_trial_2.png"" style=""width: 408px; height: 417px; margin-right: 200px;""><img src=""images/choice_trial_1.png"" style=""width: 408px; height: 417px;""></div></div>",f,delaylearn,learning,trial,PEEVLBeufbRL6wXzFlew5v9sOgB2,PEEVLBeufbRL6wXzFlew5v9sOgB2,1.0,images/choice_trial_2.png,images/choice_trial_1.png,images/pattern_1.png,j,j,7000.0,2.0,1.0,1.0,1.0,12.0,0.0,0.0,2.0,60.0,,,,,,614b90050a269c27f4746a37,09:06:58,27/02/2024
html-keyboard-response,65,130714,0.0-29.0-1.0,,"<div style=""display: flex; flex-direction: column; align-items: center; margin-top: -40px;""><img src=""images/pattern_1.png"" style=""width: 234px; height: 230px; margin-top: -50px;""><div style=""display: flex; justify-content: space-between; margin-top: 33px;""><img src=""images/choice_trial_2.png"" style=""width: 408px; height: 417px; margin-right: 608px;""></div></div>",,delaylearn,learning,display_response,PEEVLBeufbRL6wXzFlew5v9sOgB2,PEEVLBeufbRL6wXzFlew5v9sOgB2,,,,,,,,,,,,,,,,,chosen stimuli: images/choice_trial_2.png,,,,,614b90050a269c27f4746a37,09:06:58,27/02/2024
html-keyboard-response,66,137715,0.0-29.0-2.0,,,,delaylearn,learning,feedback_duration_window,PEEVLBeufbRL6wXzFlew5v9sOgB2,PEEVLBeufbRL6wXzFlew5v9sOgB2,,,,,,,,,,,,,,,,,,7000.0,,,,614b90050a269c27f4746a37,09:06:58,27/02/2024
html-keyboard-response,67,139218,0.0-29.0-3.0,,<div style='margin:auto;width: auto; font-size: 150%'><span style='font-weight: bold; font-size: 100px; color: red;'>0 points!</span><br><br></div>,,delaylearn,learning,feedback_image_window,PEEVLBeufbRL6wXzFlew5v9sOgB2,PEEVLBeufbRL6wXzFlew5v9sOgB2,,,,,,,,,,,,,,,,,,,,,,614b90050a269c27f4746a37,09:06:58,27/02/2024
html-keyboard-response,68,141348,0.0-30.0,,"<div style=""font-size:100px;"">+</div>",,delaylearn,learning,ITI,PEEVLBeufbRL6wXzFlew5v9sOgB2,PEEVLBeufbRL6wXzFlew5v9sOgB2,,,,,,,,,,,,,,,,,,,2129.0,,,614b90050a269c27f4746a37,09:06:58,27/02/2024
html-keyboard-response,69,143796,0.0-31.0-0.0,2444.900000002235,"<div style=""display: flex; flex-direction: column; align-items: center; margin-top: -40px;""><img src=""images/pattern_3.png"" style=""width: 234px; height: 230px; margin-top: -50px;""><div style=""display: flex; justify-content: space-between; margin-top: 33px;""><img src=""images/choice_trial_6.png"" style=""width: 408px; height: 417px; margin-right: 200px;""><img src=""images/choice_trial_5.png"" style=""width: 408px; height: 417px;""></div></div>",j,delaylearn,learning,trial,PEEVLBeufbRL6wXzFlew5v9sOgB2,PEEVLBeufbRL6wXzFlew5v9sOgB2,1.0,images/choice_trial_6.png,images/choice_trial_5.png,images/pattern_3.png,f,j,7000.0,6.0,5.0,2.0,1.0,13.0,1.0,0.0,5.0,60.0,,,,,,614b90050a269c27f4746a37,09:06:58,27/02/2024
html-keyboard-response,70,144799,0.0-31.0-1.0,,"<div style=""display: flex; flex-direction: column; align-items: center; margin-top: -40px;""><img src=""images/pattern_3.png"" style=""width: 234px; height: 230px; margin-top: -50px;""><div style=""display: flex; justify-content: space-between; margin-top: 33px;""><img src=""images/choice_trial_5.png"" style=""width: 408px; height: 417px; margin-left:608px;""></div></div>",,delaylearn,learning,display_response,PEEVLBeufbRL6wXzFlew5v9sOgB2,PEEVLBeufbRL6wXzFlew5v9sOgB2,,,,,,,,,,,,,,,,,chosen stimuli: images/choice_trial_5.png,,,,,614b90050a269c27f4746a37,09:06:58,27/02/2024
html-keyboard-response,71,151800,0.0-31.0-2.0,,,,delaylearn,learning,feedback_duration_window,PEEVLBeufbRL6wXzFlew5v9sOgB2,PEEVLBeufbRL6wXzFlew5v9sOgB2,,,,,,,,,,,,,,,,,,7000.0,,,,614b90050a269c27f4746a37,09:06:58,27/02/2024
html-keyboard-response,72,153303,0.0-31.0-3.0,,<div style='margin:auto;width: auto; font-size: 150%'><span style='font-weight: bold; font-size: 100px; color: red;'>0 points!</span><br><br></div>,,delaylearn,learning,feedback_image_window,PEEVLBeufbRL6wXzFlew5v9sOgB2,PEEVLBeufbRL6wXzFlew5v9sOgB2,,,,,,,,,,,,,,,,,,,,,,614b90050a269c27f4746a37,09:06:58,27/02/2024
html-keyboard-response,73,155796,0.0-32.0,,"<div style=""font-size:100px;"">+</div>",,delaylearn,learning,ITI,PEEVLBeufbRL6wXzFlew5v9sOgB2,PEEVLBeufbRL6wXzFlew5v9sOgB2,,,,,,,,,,,,,,,,,,,2491.0,,,614b90050a269c27f4746a37,09:06:58,27/02/2024
html-keyboard-response,74,157038,0.0-33.0-0.0,1238.699999999255,"<div style=""display: flex; flex-direction: column; align-items: center; margin-top: -40px;""><img src=""images/pattern_5.png"" style=""width: 234px; height: 230px; margin-top: -50px;""><div style=""display: flex; justify-content: space-between; margin-top: 33px;""><img src=""images/choice_trial_9.png"" style=""width: 408px; height: 417px; margin-right: 200px;""><img src=""images/choice_trial_10.png"" style=""width: 408px; height: 417px;""></div></div>",f,delaylearn,learning,trial,PEEVLBeufbRL6wXzFlew5v9sOgB2,PEEVLBeufbRL6wXzFlew5v9sOgB2,1.0,images/choice_trial_9.png,images/choice_trial_10.png,images/pattern_5.png,f,f,750.0,9.0,10.0,4.0,0.0,14.0,1.0,1.0,9.0,70.0,,,,,,614b90050a269c27f4746a37,09:06:58,27/02/2024
html-keyboard-response,75,158040,0.0-33.0-1.0,,"<div style=""display: flex; flex-direction: column; align-items: center; margin-top: -40px;""><img src=""images/pattern_5.png"" style=""width: 234px; height: 230px; margin-top: -50px;""><div style=""display: flex; justify-content: space-between; margin-top: 33px;""><img src=""images/choice_trial_9.png"" style=""width: 408px; height: 417px; margin-right: 608px;""></div></div>",,delaylearn,learning,display_response,PEEVLBeufbRL6wXzFlew5v9sOgB2,PEEVLBeufbRL6wXzFlew5v9sOgB2,,,,,,,,,,,,,,,,,chosen stimuli: images/choice_trial_9.png,,,,,614b90050a269c27f4746a37,09:06:58,27/02/2024
html-keyboard-response,76,158791,0.0-33.0-2.0,,,,delaylearn,learning,feedback_duration_window,PEEVLBeufbRL6wXzFlew5v9sOgB2,PEEVLBeufbRL6wXzFlew5v9sOgB2,,,,,,,,,,,,,,,,,,750.0,,,,614b90050a269c27f4746a37,09:06:58,27/02/2024
html-keyboard-response,77,160293,0.0-33.0-3.0,,<div style='margin:auto;width: auto; font-size: 150%'><span style='font-weight: bold; font-size: 100px; color: green;'>+10 points!</span><br><br></div>,,delaylearn,learning,feedback_image_window,PEEVLBeufbRL6wXzFlew5v9sOgB2,PEEVLBeufbRL6wXzFlew5v9sOgB2,,,,,,,,,,,,,,,,,,,,,,614b90050a269c27f4746a37,09:06:58,27/02/2024
html-keyboard-response,78,160795,0.0-34.0-0.0,,,,,,mood_trial_fixation,PEEVLBeufbRL6wXzFlew5v9sOgB2,,,,,,,,,,,,,,,,,,,,,,,614b90050a269c27f4746a37,09:06:58,27/02/2024
lmdlab-html-vas-response,79,165504,0.0-34.0-1.0,3703.0,How happy are you right now?,0.509166190748144,delaylearn,learning,mood_trial,PEEVLBeufbRL6wXzFlew5v9sOgB2,PEEVLBeufbRL6wXzFlew5v9sOgB2,,,,,,,,,,,,,,,,,,,,"['Very unhappy', 'Very happy']",,614b90050a269c27f4746a37,09:06:58,27/02/2024
html-keyboard-response,80,167987,0.0-35.0,,"<div style=""font-size:100px;"">+</div>",,delaylearn,learning,ITI,PEEVLBeufbRL6wXzFlew5v9sOgB2,PEEVLBeufbRL6wXzFlew5v9sOgB2,,,,,,,,,,,,,,,,,,,2481.0,,,614b90050a269c27f4746a37,09:06:58,27/02/2024
html-keyboard-response,81,169487,0.0-36.0-0.0,1498.699999999255,"<div style=""display: flex; flex-direction: column; align-items: center; margin-top: -40px;""><img src=""images/pattern_6.png"" style=""width: 234px; height: 230px; margin-top: -50px;""><div style=""display: flex; justify-content: space-between; margin-top: 33px;""><img src=""images/choice_trial_11.png"" style=""width: 408px; height: 417px; margin-right: 200px;""><img src=""images/choice_trial_12.png"" style=""width: 408px; height: 417px;""></div></div>",j,delaylearn,learning,trial,PEEVLBeufbRL6wXzFlew5v9sOgB2,PEEVLBeufbRL6wXzFlew5v9sOgB2,1.0,images/choice_trial_11.png,images/choice_trial_12.png,images/pattern_6.png,f,f,750.0,11.0,12.0,5.0,0.0,15.0,0.0,0.0,12.0,70.0,,,,,,614b90050a269c27f4746a37,09:06:58,27/02/2024
html-keyboard-response,82,170490,0.0-36.0-1.0,,"<div style=""display: flex; flex-direction: column; align-items: center; margin-top: -40px;""><img src=""images/pattern_6.png"" style=""width: 234px; height: 230px; margin-top: -50px;""><div style=""display: flex; justify-content: space-between; margin-top: 33px;""><img src=""images/choice_trial_12.png"" style=""width: 408px; height: 417px; margin-left:608px;""></div></div>",,delaylearn,learning,display_response,PEEVLBeufbRL6wXzFlew5v9sOgB2,PEEVLBeufbRL6wXzFlew5v9sOgB2,,,,,,,,,,,,,,,,,chosen stimuli: images/choice_trial_12.png,,,,,614b90050a269c27f4746a37,09:06:58,27/02/2024
html-keyboard-response,83,171241,0.0-36.0-2.0,,,,delaylearn,learning,feedback_duration_window,PEEVLBeufbRL6wXzFlew5v9sOgB2,PEEVLBeufbRL6wXzFlew5v9sOgB2,,,,,,,,,,,,,,,,,,750.0,,,,614b90050a269c27f4746a37,09:06:58,27/02/2024
html-keyboard-response,84,172744,0.0-36.0-3.0,,<div style='margin:auto;width: auto; font-size: 150%'><span style='font-weight: bold; font-size: 100px; color: red;'>0 points!</span><br><br></div>,,delaylearn,learning,feedback_image_window,PEEVLBeufbRL6wXzFlew5v9sOgB2,PEEVLBeufbRL6wXzFlew5v9sOgB2,,,,,,,,,,,,,,,,,,,,,,614b90050a269c27f4746a37,09:06:58,27/02/2024
html-keyboard-response,85,174314,0.0-37.0,,"<div style=""font-size:100px;"">+</div>",,delaylearn,learning,ITI,PEEVLBeufbRL6wXzFlew5v9sOgB2,PEEVLBeufbRL6wXzFlew5v9sOgB2,,,,,,,,,,,,,,,,,,,1569.0,,,614b90050a269c27f4746a37,09:06:58,27/02/2024
html-keyboard-response,86,176806,0.0-38.0-0.0,2487.699999999255,"<div style=""display: flex; flex-direction: column; align-items: center; margin-top: -40px;""><img src=""images/pattern_4.png"" style=""width: 234px; height: 230px; margin-top: -50px;""><div style=""display: flex; justify-content: space-between; margin-top: 33px;""><img src=""images/choice_trial_8.png"" style=""width: 408px; height: 417px; margin-right: 200px;""><img src=""images/choice_trial_7.png"" style=""width: 408px; height: 417px;""></div></div>",j,delaylearn,learning,trial,PEEVLBeufbRL6wXzFlew5v9sOgB2,PEEVLBeufbRL6wXzFlew5v9sOgB2,1.0,images/choice_trial_8.png,images/choice_trial_7.png,images/pattern_4.png,j,j,7000.0,8.0,7.0,3.0,1.0,16.0,1.0,1.0,7.0,80.0,,,,,,614b90050a269c27f4746a37,09:06:58,27/02/2024
html-keyboard-response,87,177808,0.0-38.0-1.0,,"<div style=""display: flex; flex-direction: column; align-items: center; margin-top: -40px;""><img src=""images/pattern_4.png"" style=""width: 234px; height: 230px; margin-top: -50px;""><div style=""display: flex; justify-content: space-between; margin-top: 33px;""><img src=""images/choice_trial_7.png"" style=""width: 408px; height: 417px; margin-left:608px;""></div></div>",,delaylearn,learning,display_response,PEEVLBeufbRL6wXzFlew5v9sOgB2,PEEVLBeufbRL6wXzFlew5v9sOgB2,,,,,,,,,,,,,,,,,chosen stimuli: images/choice_trial_7.png,,,,,614b90050a269c27f4746a37,09:06:58,27/02/2024
html-keyboard-response,88,184810,0.0-38.0-2.0,,,,delaylearn,learning,feedback_duration_window,PEEVLBeufbRL6wXzFlew5v9sOgB2,PEEVLBeufbRL6wXzFlew5v9sOgB2,,,,,,,,,,,,,,,,,,7000.0,,,,614b90050a269c27f4746a37,09:06:58,27/02/2024
html-keyboard-response,89,186313,0.0-38.0-3.0,,<div style='margin:auto;width: auto; font-size: 150%'><span style='font-weight: bold; font-size: 100px; color: green;'>+10 points!</span><br><br></div>,,delaylearn,learning,feedback_image_window,PEEVLBeufbRL6wXzFlew5v9sOgB2,PEEVLBeufbRL6wXzFlew5v9sOgB2,,,,,,,,,,,,,,,,,,,,,,614b90050a269c27f4746a37,09:06:58,27/02/2024
html-keyboard-response,90,188554,0.0-39.0,,"<div style=""font-size:100px;"">+</div>",,delaylearn,learning,ITI,PEEVLBeufbRL6wXzFlew5v9sOgB2,PEEVLBeufbRL6wXzFlew5v9sOgB2,,,,,,,,,,,,,,,,,,,2240.0,,,614b90050a269c27f4746a37,09:06:58,27/02/2024
html-keyboard-response,91,191558,0.0-40.0-0.0,,"<div style=""display: flex; flex-direction: column; align-items: center; margin-top: -40px;""><img src=""images/pattern_7.png"" style=""width: 234px; height: 230px; margin-top: -50px;""><div style=""display: flex; justify-content: space-between; margin-top: 33px;""><img src=""images/choice_trial_13.png"" style=""width: 408px; height: 417px; margin-right: 200px;""><img src=""images/choice_trial_14.png"" style=""width: 408px; height: 417px;""></div></div>",,delaylearn,learning,trial,PEEVLBeufbRL6wXzFlew5v9sOgB2,PEEVLBeufbRL6wXzFlew5v9sOgB2,1.0,images/choice_trial_13.png,images/choice_trial_14.png,images/pattern_7.png,j,f,750.0,13.0,14.0,6.0,0.0,17.0,0.0,0.0,0.0,80.0,,,,,,614b90050a269c27f4746a37,09:06:58,27/02/2024
html-keyboard-response,92,192560,0.0-40.0-1.0,,<div style='font-weight: bold; font-size: 75px; color: red;'>Missed Trial <br><br><br><br> Please respond faster</div>,,delaylearn,learning,display_response,PEEVLBeufbRL6wXzFlew5v9sOgB2,PEEVLBeufbRL6wXzFlew5v9sOgB2,,,,,,,,,,,,,,,,,Missed trial,,,,,614b90050a269c27f4746a37,09:06:58,27/02/2024
html-keyboard-response,93,192566,0.0-40.0-2.0,,,,delaylearn,learning,feedback_duration_window,PEEVLBeufbRL6wXzFlew5v9sOgB2,PEEVLBeufbRL6wXzFlew5v9sOgB2,,,,,,,,,,,,,,,,,,0.0,,,,614b90050a269c27f4746a37,09:06:58,27/02/2024
html-keyboard-response,94,192571,0.0-40.0-3.0,,,,delaylearn,learning,feedback_image_window,PEEVLBeufbRL6wXzFlew5v9sOgB2,PEEVLBeufbRL6wXzFlew5v9sOgB2,,,,,,,,,,,,,,,,,,,,,,614b90050a269c27f4746a37,09:06:58,27/02/2024
html-keyboard-response,95,194977,0.0-41.0,,"<div style=""font-size:100px;"">+</div>",,delaylearn,learning,ITI,PEEVLBeufbRL6wXzFlew5v9sOgB2,PEEVLBeufbRL6wXzFlew5v9sOgB2,,,,,,,,,,,,,,,,,,,2405.0,,,614b90050a269c27f4746a37,09:06:58,27/02/2024
html-keyboard-response,96,196503,0.0-42.0-0.0,1522.0,"<div style=""display: flex; flex-direction: column; align-items: center; margin-top: -40px;""><img src=""images/pattern_1.png"" style=""width: 234px; height: 230px; margin-top: -50px;""><div style=""display: flex; justify-content: space-between; margin-top: 33px;""><img src=""images/choice_trial_1.png"" style=""width: 408px; height: 417px; margin-right: 200px;""><img src=""images/choice_trial_2.png"" style=""width: 408px; height: 417px;""></div></div>",j,delaylearn,learning,trial,PEEVLBeufbRL6wXzFlew5v9sOgB2,PEEVLBeufbRL6wXzFlew5v9sOgB2,1.0,images/choice_trial_1.png,images/choice_trial_2.png,images/pattern_1.png,f,f,7000.0,1.0,2.0,1.0,0.0,18.0,0.0,0.0,2.0,80.0,,,,,,614b90050a269c27f4746a37,09:06:58,27/02/2024
html-keyboard-response,97,197505,0.0-42.0-1.0,,"<div style=""display: flex; flex-direction: column; align-items: center; margin-top: -40px;""><img src=""images/pattern_1.png"" style=""width: 234px; height: 230px; margin-top: -50px;""><div style=""display: flex; justify-content: space-between; margin-top: 33px;""><img src=""images/choice_trial_2.png"" style=""width: 408px; height: 417px; margin-left:608px;""></div></div>",,delaylearn,learning,display_response,PEEVLBeufbRL6wXzFlew5v9sOgB2,PEEVLBeufbRL6wXzFlew5v9sOgB2,,,,,,,,,,,,,,,,,chosen stimuli: images/choice_trial_2.png,,,,,614b90050a269c27f4746a37,09:06:58,27/02/2024
html-keyboard-response,98,204507,0.0-42.0-2.0,,,,delaylearn,learning,feedback_duration_window,PEEVLBeufbRL6wXzFlew5v9sOgB2,PEEVLBeufbRL6wXzFlew5v9sOgB2,,,,,,,,,,,,,,,,,,7000.0,,,,614b90050a269c27f4746a37,09:06:58,27/02/2024
html-keyboard-response,99,206009,0.0-42.0-3.0,,<div style='margin:auto;width: auto; font-size: 150%'><span style='font-weight: bold; font-size: 100px; color: red;'>0 points!</span><br><br></div>,,delaylearn,learning,feedback_image_window,PEEVLBeufbRL6wXzFlew5v9sOgB2,PEEVLBeufbRL6wXzFlew5v9sOgB2,,,,,,,,,,,,,,,,,,,,,,614b90050a269c27f4746a37,09:06:58,27/02/2024
html-keyboard-response,100,208121,0.0-43.0,,"<div style=""font-size:100px;"">+</div>",,delaylearn,learning,ITI,PEEVLBeufbRL6wXzFlew5v9sOgB2,PEEVLBeufbRL6wXzFlew5v9sOgB2,,,,,,,,,,,,,,,,,,,2110.0,,,614b90050a269c27f4746a37,09:06:58,27/02/2024
html-keyboard-response,101,209946,0.0-44.0-0.0,1821.199999999255,"<div style=""display: flex; flex-direction: column; align-items: center; margin-top: -40px;""><img src=""images/pattern_6.png"" style=""width: 234px; height: 230px; margin-top: -50px;""><div style=""display: flex; justify-content: space-between; margin-top: 33px;""><img src=""images/choice_trial_12.png"" style=""width: 408px; height: 417px; margin-right: 200px;""><img src=""images/choice_trial_11.png"" style=""width: 408px; height: 417px;""></div></div>",j,delaylearn,learning,trial,PEEVLBeufbRL6wXzFlew5v9sOgB2,PEEVLBeufbRL6wXzFlew5v9sOgB2,1.0,images/choice_trial_12.png,images/choice_trial_11.png,images/pattern_6.png,j,j,750.0,12.0,11.0,5.0,1.0,19.0,1.0,1.0,11.0,90.0,,,,,,614b90050a269c27f4746a37,09:06:58,27/02/2024
html-keyboard-response,102,210948,0.0-44.0-1.0,,"<div style=""display: flex; flex-direction: column; align-items: center; margin-top: -40px;""><img src=""images/pattern_6.png"" style=""width: 234px; height: 230px; margin-top: -50px;""><div style=""display: flex; justify-content: space-between; margin-top: 33px;""><img src=""images/choice_trial_11.png"" style=""width: 408px; height: 417px; margin-left:608px;""></div></div>",,delaylearn,learning,display_response,PEEVLBeufbRL6wXzFlew5v9sOgB2,PEEVLBeufbRL6wXzFlew5v9sOgB2,,,,,,,,,,,,,,,,,chosen stimuli: images/choice_trial_11.png,,,,,614b90050a269c27f4746a37,09:06:58,27/02/2024
html-keyboard-response,103,211700,0.0-44.0-2.0,,,,delaylearn,learning,feedback_duration_window,PEEVLBeufbRL6wXzFlew5v9sOgB2,PEEVLBeufbRL6wXzFlew5v9sOgB2,,,,,,,,,,,,,,,,,,750.0,,,,614b90050a269c27f4746a37,09:06:58,27/02/2024
html-keyboard-response,104,213202,0.0-44.0-3.0,,<div style='margin:auto;width: auto; font-size: 150%'><span style='font-weight: bold; font-size: 100px; color: green;'>+10 points!</span><br><br></div>,,delaylearn,learning,feedback_image_window,PEEVLBeufbRL6wXzFlew5v9sOgB2,PEEVLBeufbRL6wXzFlew5v9sOgB2,,,,,,,,,,,,,,,,,,,,,,614b90050a269c27f4746a37,09:06:58,27/02/2024
html-keyboard-response,105,215422,0.0-45.0,,"<div style=""font-size:100px;"">+</div>",,delaylearn,learning,ITI,PEEVLBeufbRL6wXzFlew5v9sOgB2,PEEVLBeufbRL6wXzFlew5v9sOgB2,,,,,,,,,,,,,,,,,,,2219.0,,,614b90050a269c27f4746a37,09:06:58,27/02/2024
html-keyboard-response,106,216835,0.0-46.0-0.0,1409.4000000022352,"<div style=""display: flex; flex-direction: column; align-items: center; margin-top: -40px;""><img src=""images/pattern_4.png"" style=""width: 234px; height: 230px; margin-top: -50px;""><div style=""display: flex; justify-content: space-between; margin-top: 33px;""><img src=""images/choice_trial_7.png"" style=""width: 408px; height: 417px; margin-right: 200px;""><img src=""images/choice_trial_8.png"" style=""width: 408px; height: 417px;""></div></div>",f,delaylearn,learning,trial,PEEVLBeufbRL6wXzFlew5v9sOgB2,PEEVLBeufbRL6wXzFlew5v9sOgB2,1.0,images/choice_trial_7.png,images/choice_trial_8.png,images/pattern_4.png,f,f,7000.0,7.0,8.0,3.0,0.0,20.0,1.0,1.0,7.0,100.0,,,,,,614b90050a269c27f4746a37,09:06:58,27/02/2024
html-keyboard-response,107,217838,0.0-46.0-1.0,,"<div style=""display: flex; flex-direction: column; align-items: center; margin-top: -40px;""><img src=""images/pattern_4.png"" style=""width: 234px; height: 230px; margin-top: -50px;""><div style=""display: flex; justify-content: space-between; margin-top: 33px;""><img src=""images/choice_trial_7.png"" style=""width: 408px; height: 417px; margin-right: 608px;""></div></div>",,delaylearn,learning,display_response,PEEVLBeufbRL6wXzFlew5v9sOgB2,PEEVLBeufbRL6wXzFlew5v9sOgB2,,,,,,,,,,,,,,,,,chosen stimuli: images/choice_trial_7.png,,,,,614b90050a269c27f4746a37,09:06:58,27/02/2024
html-keyboard-response,108,224839,0.0-46.0-2.0,,,,delaylearn,learning,feedback_duration_window,PEEVLBeufbRL6wXzFlew5v9sOgB2,PEEVLBeufbRL6wXzFlew5v9sOgB2,,,,,,,,,,,,,,,,,,7000.0,,,,614b90050a269c27f4746a37,09:06:58,27/02/2024
html-keyboard-response,109,226342,0.0-46.0-3.0,,<div style='margin:auto;width: auto; font-size: 150%'><span style='font-weight: bold; font-size: 100px; color: green;'>+10 points!</span><br><br></div>,,delaylearn,learning,feedback_image_window,PEEVLBeufbRL6wXzFlew5v9sOgB2,PEEVLBeufbRL6wXzFlew5v9sOgB2,,,,,,,,,,,,,,,,,,,,,,614b90050a269c27f4746a37,09:06:58,27/02/2024
html-keyboard-response,110,226843,0.0-47.0-0.0,,,,,,mood_trial_fixation,PEEVLBeufbRL6wXzFlew5v9sOgB2,,,,,,,,,,,,,,,,,,,,,,,614b90050a269c27f4746a37,09:06:58,27/02/2024
lmdlab-html-vas-response,111,232134,0.0-47.0-1.0,4284.0,How happy are you right now?,0.4890633923472302,delaylearn,learning,mood_trial,PEEVLBeufbRL6wXzFlew5v9sOgB2,PEEVLBeufbRL6wXzFlew5v9sOgB2,,,,,,,,,,,,,,,,,,,,"['Very unhappy', 'Very happy']",,614b90050a269c27f4746a37,09:06:58,27/02/2024
html-keyboard-response,112,233807,0.0-48.0,,"<div style=""font-size:100px;"">+</div>",,delaylearn,learning,ITI,PEEVLBeufbRL6wXzFlew5v9sOgB2,PEEVLBeufbRL6wXzFlew5v9sOgB2,,,,,,,,,,,,,,,,,,,1671.0,,,614b90050a269c27f4746a37,09:06:58,27/02/2024
html-keyboard-response,113,235306,0.0-49.0-0.0,1495.1000000014901,"<div style=""display: flex; flex-direction: column; align-items: center; margin-top: -40px;""><img src=""images/pattern_7.png"" style=""width: 234px; height: 230px; margin-top: -50px;""><div style=""display: flex; justify-content: space-between; margin-top: 33px;""><img src=""images/choice_trial_14.png"" style=""width: 408px; height: 417px; margin-right: 200px;""><img src=""images/choice_trial_13.png"" style=""width: 408px; height: 417px;""></div></div>",j,delaylearn,learning,trial,PEEVLBeufbRL6wXzFlew5v9sOgB2,PEEVLBeufbRL6wXzFlew5v9sOgB2,1.0,images/choice_trial_14.png,images/choice_trial_13.png,images/pattern_7.png,j,j,750.0,14.0,13.0,6.0,1.0,21.0,1.0,1.0,13.0,110.0,,,,,,614b90050a269c27f4746a37,09:06:58,27/02/2024
html-keyboard-response,114,236308,0.0-49.0-1.0,,"<div style=""display: flex; flex-direction: column; align-items: center; margin-top: -40px;""><img src=""images/pattern_7.png"" style=""width: 234px; height: 230px; margin-top: -50px;""><div style=""display: flex; justify-content: space-between; margin-top: 33px;""><img src=""images/choice_trial_13.png"" style=""width: 408px; height: 417px; margin-left:608px;""></div></div>",,delaylearn,learning,display_response,PEEVLBeufbRL6wXzFlew5v9sOgB2,PEEVLBeufbRL6wXzFlew5v9sOgB2,,,,,,,,,,,,,,,,,chosen stimuli: images/choice_trial_13.png,,,,,614b90050a269c27f4746a37,09:06:58,27/02/2024
html-keyboard-response,115,237060,0.0-49.0-2.0,,,,delaylearn,learning,feedback_duration_window,PEEVLBeufbRL6wXzFlew5v9sOgB2,PEEVLBeufbRL6wXzFlew5v9sOgB2,,,,,,,,,,,,,,,,,,750.0,,,,614b90050a269c27f4746a37,09:06:58,27/02/2024
html-keyboard-response,116,238562,0.0-49.0-3.0,,<div style='margin:auto;width: auto; font-size: 150%'><span style='font-weight: bold; font-size: 100px; color: green;'>+10 points!</span><br><br></div>,,delaylearn,learning,feedback_image_window,PEEVLBeufbRL6wXzFlew5v9sOgB2,PEEVLBeufbRL6wXzFlew5v9sOgB2,,,,,,,,,,,,,,,,,,,,,,614b90050a269c27f4746a37,09:06:58,27/02/2024
html-keyboard-response,117,240701,0.0-50.0,,"<div style=""font-size:100px;"">+</div>",,delaylearn,learning,ITI,PEEVLBeufbRL6wXzFlew5v9sOgB2,PEEVLBeufbRL6wXzFlew5v9sOgB2,,,,,,,,,,,,,,,,,,,2138.0,,,614b90050a269c27f4746a37,09:06:58,27/02/2024
html-keyboard-response,118,242803,0.0-51.0-0.0,2097.099999997765,"<div style=""display: flex; flex-direction: column; align-items: center; margin-top: -40px;""><img src=""images/pattern_1.png"" style=""width: 234px; height: 230px; margin-top: -50px;""><div style=""display: flex; justify-content: space-between; margin-top: 33px;""><img src=""images/choice_trial_2.png"" style=""width: 408px; height: 417px; margin-right: 200px;""><img src=""images/choice_trial_1.png"" style=""width: 408px; height: 417px;""></div></div>",f,delaylearn,learning,trial,PEEVLBeufbRL6wXzFlew5v9sOgB2,PEEVLBeufbRL6wXzFlew5v9sOgB2,1.0,images/choice_trial_2.png,images/choice_trial_1.png,images/pattern_1.png,f,j,7000.0,2.0,1.0,1.0,1.0,22.0,0.0,1.0,2.0,120.0,,,,,,614b90050a269c27f4746a37,09:06:58,27/02/2024
html-keyboard-response,119,243805,0.0-51.0-1.0,,"<div style=""display: flex; flex-direction: column; align-items: center; margin-top: -40px;""><img src=""images/pattern_1.png"" style=""width: 234px; height: 230px; margin-top: -50px;""><div style=""display: flex; justify-content: space-between; margin-top: 33px;""><img src=""images/choice_trial_2.png"" style=""width: 408px; height: 417px; margin-right: 608px;""></div></div>",,delaylearn,learning,display_response,PEEVLBeufbRL6wXzFlew5v9sOgB2,PEEVLBeufbRL6wXzFlew5v9sOgB2,,,,,,,,,,,,,,,,,chosen stimuli: images/choice_trial_2.png,,,,,614b90050a269c27f4746a37,09:06:58,27/02/2024
html-keyboard-response,120,250806,0.0-51.0-2.0,,,,delaylearn,learning,feedback_duration_window,PEEVLBeufbRL6wXzFlew5v9sOgB2,PEEVLBeufbRL6wXzFlew5v9sOgB2,,,,,,,,,,,,,,,,,,7000.0,,,,614b90050a269c27f4746a37,09:06:58,27/02/2024
html-keyboard-response,121,252309,0.0-51.0-3.0,,<div style='margin:auto;width: auto; font-size: 150%'><span style='font-weight: bold; font-size: 100px; color: green;'>+10 points!</span><br><br></div>,,delaylearn,learning,feedback_image_window,PEEVLBeufbRL6wXzFlew5v9sOgB2,PEEVLBeufbRL6wXzFlew5v9sOgB2,,,,,,,,,,,,,,,,,,,,,,614b90050a269c27f4746a37,09:06:58,27/02/2024
html-keyboard-response,122,253812,0.0-52.0,,"<div style=""font-size:100px;"">+</div>",,delaylearn,learning,ITI,PEEVLBeufbRL6wXzFlew5v9sOgB2,PEEVLBeufbRL6wXzFlew5v9sOgB2,,,,,,,,,,,,,,,,,,,1502.0,,,614b90050a269c27f4746a37,09:06:58,27/02/2024
html-keyboard-response,123,254799,0.0-53.0-0.0,983.3000000007451,"<div style=""display: flex; flex-direction: column; align-items: center; margin-top: -40px;""><img src=""images/pattern_5.png"" style=""width: 234px; height: 230px; margin-top: -50px;""><div style=""display: flex; justify-content: space-between; margin-top: 33px;""><img src=""images/choice_trial_10.png"" style=""width: 408px; height: 417px; margin-right: 200px;""><img src=""images/choice_trial_9.png"" style=""width: 408px; height: 417px;""></div></div>",j,delaylearn,learning,trial,PEEVLBeufbRL6wXzFlew5v9sOgB2,PEEVLBeufbRL6wXzFlew5v9sOgB2,1.0,images/choice_trial_10.png,images/choice_trial_9.png,images/pattern_5.png,j,j,750.0,10.0,9.0,4.0,1.0,23.0,1.0,1.0,9.0,130.0,,,,,,614b90050a269c27f4746a37,09:06:58,27/02/2024
html-keyboard-response,124,255801,0.0-53.0-1.0,,"<div style=""display: flex; flex-direction: column; align-items: center; margin-top: -40px;""><img src=""images/pattern_5.png"" style=""width: 234px; height: 230px; margin-top: -50px;""><div style=""display: flex; justify-content: space-between; margin-top: 33px;""><img src=""images/choice_trial_9.png"" style=""width: 408px; height: 417px; margin-left:608px;""></div></div>",,delaylearn,learning,display_response,PEEVLBeufbRL6wXzFlew5v9sOgB2,PEEVLBeufbRL6wXzFlew5v9sOgB2,,,,,,,,,,,,,,,,,chosen stimuli: images/choice_trial_9.png,,,,,614b90050a269c27f4746a37,09:06:58,27/02/2024
html-keyboard-response,125,256553,0.0-53.0-2.0,,,,delaylearn,learning,feedback_duration_window,PEEVLBeufbRL6wXzFlew5v9sOgB2,PEEVLBeufbRL6wXzFlew5v9sOgB2,,,,,,,,,,,,,,,,,,750.0,,,,614b90050a269c27f4746a37,09:06:58,27/02/2024
html-keyboard-response,126,258055,0.0-53.0-3.0,,<div style='margin:auto;width: auto; font-size: 150%'><span style='font-weight: bold; font-size: 100px; color: green;'>+10 points!</span><br><br></div>,,delaylearn,learning,feedback_image_window,PEEVLBeufbRL6wXzFlew5v9sOgB2,PEEVLBeufbRL6wXzFlew5v9sOgB2,,,,,,,,,,,,,,,,,,,,,,614b90050a269c27f4746a37,09:06:58,27/02/2024
html-keyboard-response,127,259658,0.0-54.0,,"<div style=""font-size:100px;"">+</div>",,delaylearn,learning,ITI,PEEVLBeufbRL6wXzFlew5v9sOgB2,PEEVLBeufbRL6wXzFlew5v9sOgB2,,,,,,,,,,,,,,,,,,,1601.0,,,614b90050a269c27f4746a37,09:06:58,27/02/2024
html-keyboard-response,128,261363,0.0-55.0-0.0,1701.5999999977648,"<div style=""display: flex; flex-direction: column; align-items: center; margin-top: -40px;""><img src=""images/pattern_3.png"" style=""width: 234px; height: 230px; margin-top: -50px;""><div style=""display: flex; justify-content: space-between; margin-top: 33px;""><img src=""images/choice_trial_6.png"" style=""width: 408px; height: 417px; margin-right: 200px;""><img src=""images/choice_trial_5.png"" style=""width: 408px; height: 417px;""></div></div>",j,delaylearn,learning,trial,PEEVLBeufbRL6wXzFlew5v9sOgB2,PEEVLBeufbRL6wXzFlew5v9sOgB2,1.0,images/choice_trial_6.png,images/choice_trial_5.png,images/pattern_3.png,j,j,7000.0,6.0,5.0,2.0,1.0,24.0,1.0,1.0,5.0,140.0,,,,,,614b90050a269c27f4746a37,09:06:58,27/02/2024
html-keyboard-response,129,262365,0.0-55.0-1.0,,"<div style=""display: flex; flex-direction: column; align-items: center; margin-top: -40px;""><img src=""images/pattern_3.png"" style=""width: 234px; height: 230px; margin-top: -50px;""><div style=""display: flex; justify-content: space-between; margin-top: 33px;""><img src=""images/choice_trial_5.png"" style=""width: 408px; height: 417px; margin-left:608px;""></div></div>",,delaylearn,learning,display_response,PEEVLBeufbRL6wXzFlew5v9sOgB2,PEEVLBeufbRL6wXzFlew5v9sOgB2,,,,,,,,,,,,,,,,,chosen stimuli: images/choice_trial_5.png,,,,,614b90050a269c27f4746a37,09:06:58,27/02/2024
html-keyboard-response,130,269367,0.0-55.0-2.0,,,,delaylearn,learning,feedback_duration_window,PEEVLBeufbRL6wXzFlew5v9sOgB2,PEEVLBeufbRL6wXzFlew5v9sOgB2,,,,,,,,,,,,,,,,,,7000.0,,,,614b90050a269c27f4746a37,09:06:58,27/02/2024
html-keyboard-response,131,270870,0.0-55.0-3.0,,<div style='margin:auto;width: auto; font-size: 150%'><span style='font-weight: bold; font-size: 100px; color: green;'>+10 points!</span><br><br></div>,,delaylearn,learning,feedback_image_window,PEEVLBeufbRL6wXzFlew5v9sOgB2,PEEVLBeufbRL6wXzFlew5v9sOgB2,,,,,,,,,,,,,,,,,,,,,,614b90050a269c27f4746a37,09:06:58,27/02/2024
lmdlab-html-vas-response,132,278836,0.0-56.0-0.0,6455.0,*How <b><u>confident</u></b> are you feeling about your answers at this moment?*,0.4616219303255283,rewlearn,rate_confidence,,PEEVLBeufbRL6wXzFlew5v9sOgB2,PEEVLBeufbRL6wXzFlew5v9sOgB2,,,,,,,,,,,,,,,,,,,,"['No confidence', 'Complete confidence']",,614b90050a269c27f4746a37,09:06:58,27/02/2024
lmdlab-rest-trial-limit,133,583991,0.0-56.0-1.0,303650.0,"<div style=""font-size:40px;""><b>Please take a break!</b><br><br><br><br><p>Great work: you earned undefined points.<br><br><br><p>You have completed part(s) 1 of 6.<br><br><br><br>When you are ready to continue<br><br><br>please click the button.</p><br><br>",0,delaylearn,learning,break,PEEVLBeufbRL6wXzFlew5v9sOgB2,PEEVLBeufbRL6wXzFlew5v9sOgB2,,,,,,,,,,,,,,,,,,,,,1.0,614b90050a269c27f4746a37,09:06:58,27/02/2024
html-keyboard-response,134,586994,0.0-56.0-2.0,,"<div style=""font-size:100px;"">+</div>",,delaylearn,learning,pre_fixation,PEEVLBeufbRL6wXzFlew5v9sOgB2,,,,,,,,,,,,,,,,,,,,,,,614b90050a269c27f4746a37,09:06:58,27/02/2024
lmdlab-html-vas-response,135,594063,0.0-56.0-3.0-0.0,6062.0,How happy are you right now?,0.45434037692747004,delaylearn,learning,mood_baseline,PEEVLBeufbRL6wXzFlew5v9sOgB2,PEEVLBeufbRL6wXzFlew5v9sOgB2,,,,,,,,,,,,,,,,,,,,"['Very unhappy', 'Very happy']",,614b90050a269c27f4746a37,09:06:58,27/02/2024
html-keyboard-response,136,595565,0.0-56.0-3.0-1.0,,,,,,mood_baseline_fixation,PEEVLBeufbRL6wXzFlew5v9sOgB2,,,,,,,,,,,,,,,,,,,,,,,614b90050a269c27f4746a37,09:06:58,27/02/2024
html-keyboard-response,137,597798,0.0-57.0,,"<div style=""font-size:100px;"">+</div>",,delaylearn,learning,ITI,PEEVLBeufbRL6wXzFlew5v9sOgB2,PEEVLBeufbRL6wXzFlew5v9sOgB2,,,,,,,,,,,,,,,,,,,2231.0,,,614b90050a269c27f4746a37,09:06:58,27/02/2024
html-keyboard-response,138,599208,0.0-58.0-0.0,1405.6000000014901,"<div style=""display: flex; flex-direction: column; align-items: center; margin-top: -40px;""><img src=""images/pattern_7.png"" style=""width: 234px; height: 230px; margin-top: -50px;""><div style=""display: flex; justify-content: space-between; margin-top: 33px;""><img src=""images/choice_trial_14.png"" style=""width: 408px; height: 417px; margin-right: 200px;""><img src=""images/choice_trial_13.png"" style=""width: 408px; height: 417px;""></div></div>",j,delaylearn,learning,trial,PEEVLBeufbRL6wXzFlew5v9sOgB2,PEEVLBeufbRL6wXzFlew5v9sOgB2,1.0,images/choice_trial_14.png,images/choice_trial_13.png,images/pattern_7.png,j,j,750.0,14.0,13.0,6.0,1.0,25.0,1.0,1.0,13.0,150.0,,,,,,614b90050a269c27f4746a37,09:06:58,27/02/2024
html-keyboard-response,139,600210,0.0-58.0-1.0,,"<div style=""display: flex; flex-direction: column; align-items: center; margin-top: -40px;""><img src=""images/pattern_7.png"" style=""width: 234px; height: 230px; margin-top: -50px;""><div style=""display: flex; justify-content: space-between; margin-top: 33px;""><img src=""images/choice_trial_13.png"" style=""width: 408px; height: 417px; margin-left:608px;""></div></div>",,delaylearn,learning,display_response,PEEVLBeufbRL6wXzFlew5v9sOgB2,PEEVLBeufbRL6wXzFlew5v9sOgB2,,,,,,,,,,,,,,,,,chosen stimuli: images/choice_trial_13.png,,,,,614b90050a269c27f4746a37,09:06:58,27/02/2024
html-keyboard-response,140,600961,0.0-58.0-2.0,,,,delaylearn,learning,feedback_duration_window,PEEVLBeufbRL6wXzFlew5v9sOgB2,PEEVLBeufbRL6wXzFlew5v9sOgB2,,,,,,,,,,,,,,,,,,750.0,,,,614b90050a269c27f4746a37,09:06:58,27/02/2024
html-keyboard-response,141,602464,0.0-58.0-3.0,,<div style='margin:auto;width: auto; font-size: 150%'><span style='font-weight: bold; font-size: 100px; color: green;'>+10 points!</span><br><br></div>,,delaylearn,learning,feedback_image_window,PEEVLBeufbRL6wXzFlew5v9sOgB2,PEEVLBeufbRL6wXzFlew5v9sOgB2,,,,,,,,,,,,,,,,,,,,,,614b90050a269c27f4746a37,09:06:58,27/02/2024
html-keyboard-response,142,602965,0.0-59.0-0.0,,,,,,mood_trial_fixation,PEEVLBeufbRL6wXzFlew5v9sOgB2,,,,,,,,,,,,,,,,,,,,,,,614b90050a269c27f4746a37,09:06:58,27/02/2024
lmdlab-html-vas-response,143,608280,0.0-59.0-1.0,4309.0,How happy are you right now?,0.4982010279840091,delaylearn,learning,mood_trial,PEEVLBeufbRL6wXzFlew5v9sOgB2,PEEVLBeufbRL6wXzFlew5v9sOgB2,,,,,,,,,,,,,,,,,,,,"['Very unhappy', 'Very happy']",,614b90050a269c27f4746a37,09:06:58,27/02/2024
html-keyboard-response,144,609984,0.0-60.0,,"<div style=""font-size:100px;"">+</div>",,delaylearn,learning,ITI,PEEVLBeufbRL6wXzFlew5v9sOgB2,PEEVLBeufbRL6wXzFlew5v9sOgB2,,,,,,,,,,,,,,,,,,,1702.0,,,614b90050a269c27f4746a37,09:06:58,27/02/2024
html-keyboard-response,145,611313,0.0-61.0-0.0,1325.0,"<div style=""display: flex; flex-direction: column; align-items: center; margin-top: -40px;""><img src=""images/pattern_1.png"" style=""width: 234px; height: 230px; margin-top: -50px;""><div style=""display: flex; justify-content: space-between; margin-top: 33px;""><img src=""images/choice_trial_1.png"" style=""width: 408px; height: 417px; margin-right: 200px;""><img src=""images/choice_trial_2.png"" style=""width: 408px; height: 417px;""></div></div>",j,delaylearn,learning,trial,PEEVLBeufbRL6wXzFlew5v9sOgB2,PEEVLBeufbRL6wXzFlew5v9sOgB2,1.0,images/choice_trial_1.png,images/choice_trial_2.png,images/pattern_1.png,f,f,7000.0,1.0,2.0,1.0,0.0,26.0,0.0,0.0,2.0,150.0,,,,,,614b90050a269c27f4746a37,09:06:58,27/02/2024
html-keyboard-response,146,612315,0.0-61.0-1.0,,"<div style=""display: flex; flex-direction: column; align-items: center; margin-top: -40px;""><img src=""images/pattern_1.png"" style=""width: 234px; height: 230px; margin-top: -50px;""><div style=""display: flex; justify-content: space-between; margin-top: 33px;""><img src=""images/choice_trial_2.png"" style=""width: 408px; height: 417px; margin-left:608px;""></div></div>",,delaylearn,learning,display_response,PEEVLBeufbRL6wXzFlew5v9sOgB2,PEEVLBeufbRL6wXzFlew5v9sOgB2,,,,,,,,,,,,,,,,,chosen stimuli: images/choice_trial_2.png,,,,,614b90050a269c27f4746a37,09:06:58,27/02/2024
html-keyboard-response,147,619317,0.0-61.0-2.0,,,,delaylearn,learning,feedback_duration_window,PEEVLBeufbRL6wXzFlew5v9sOgB2,PEEVLBeufbRL6wXzFlew5v9sOgB2,,,,,,,,,,,,,,,,,,7000.0,,,,614b90050a269c27f4746a37,09:06:58,27/02/2024
html-keyboard-response,148,620820,0.0-61.0-3.0,,<div style='margin:auto;width: auto; font-size: 150%'><span style='font-weight: bold; font-size: 100px; color: red;'>0 points!</span><br><br></div>,,delaylearn,learning,feedback_image_window,PEEVLBeufbRL6wXzFlew5v9sOgB2,PEEVLBeufbRL6wXzFlew5v9sOgB2,,,,,,,,,,,,,,,,,,,,,,614b90050a269c27f4746a37,09:06:58,27/02/2024
html-keyboard-response,149,622430,0.0-62.0,,"<div style=""font-size:100px;"">+</div>",,delaylearn,learning,ITI,PEEVLBeufbRL6wXzFlew5v9sOgB2,PEEVLBeufbRL6wXzFlew5v9sOgB2,,,,,,,,,,,,,,,,,,,1609.0,,,614b90050a269c27f4746a37,09:06:58,27/02/2024
html-keyboard-response,150,623397,0.0-63.0-0.0,962.5,"<div style=""display: flex; flex-direction: column; align-items: center; margin-top: -40px;""><img src=""images/pattern_5.png"" style=""width: 234px; height: 230px; margin-top: -50px;""><div style=""display: flex; justify-content: space-between; margin-top: 33px;""><img src=""images/choice_trial_9.png"" style=""width: 408px; height: 417px; margin-right: 200px;""><img src=""images/choice_trial_10.png"" style=""width: 408px; height: 417px;""></div></div>",f,delaylearn,learning,trial,PEEVLBeufbRL6wXzFlew5v9sOgB2,PEEVLBeufbRL6wXzFlew5v9sOgB2,1.0,images/choice_trial_9.png,images/choice_trial_10.png,images/pattern_5.png,f,f,750.0,9.0,10.0,4.0,0.0,27.0,1.0,1.0,9.0,160.0,,,,,,614b90050a269c27f4746a37,09:06:58,27/02/2024
html-keyboard-response,151,624399,0.0-63.0-1.0,,"<div style=""display: flex; flex-direction: column; align-items: center; margin-top: -40px;""><img src=""images/pattern_5.png"" style=""width: 234px; height: 230px; margin-top: -50px;""><div style=""display: flex; justify-content: space-between; margin-top: 33px;""><img src=""images/choice_trial_9.png"" style=""width: 408px; height: 417px; margin-right: 608px;""></div></div>",,delaylearn,learning,display_response,PEEVLBeufbRL6wXzFlew5v9sOgB2,PEEVLBeufbRL6wXzFlew5v9sOgB2,,,,,,,,,,,,,,,,,chosen stimuli: images/choice_trial_9.png,,,,,614b90050a269c27f4746a37,09:06:58,27/02/2024
html-keyboard-response,152,625151,0.0-63.0-2.0,,,,delaylearn,learning,feedback_duration_window,PEEVLBeufbRL6wXzFlew5v9sOgB2,PEEVLBeufbRL6wXzFlew5v9sOgB2,,,,,,,,,,,,,,,,,,750.0,,,,614b90050a269c27f4746a37,09:06:58,27/02/2024
html-keyboard-response,153,626653,0.0-63.0-3.0,,<div style='margin:auto;width: auto; font-size: 150%'><span style='font-weight: bold; font-size: 100px; color: green;'>+10 points!</span><br><br></div>,,delaylearn,learning,feedback_image_window,PEEVLBeufbRL6wXzFlew5v9sOgB2,PEEVLBeufbRL6wXzFlew5v9sOgB2,,,,,,,,,,,,,,,,,,,,,,614b90050a269c27f4746a37,09:06:58,27/02/2024
html-keyboard-response,154,628698,0.0-64.0,,"<div style=""font-size:100px;"">+</div>",,delaylearn,learning,ITI,PEEVLBeufbRL6wXzFlew5v9sOgB2,PEEVLBeufbRL6wXzFlew5v9sOgB2,,,,,,,,,,,,,,,,,,,2044.0,,,614b90050a269c27f4746a37,09:06:58,27/02/2024
html-keyboard-response,155,631703,0.0-65.0-0.0,,"<div style=""display: flex; flex-direction: column; align-items: center; margin-top: -40px;""><img src=""images/pattern_6.png"" style=""width: 234px; height: 230px; margin-top: -50px;""><div style=""display: flex; justify-content: space-between; margin-top: 33px;""><img src=""images/choice_trial_12.png"" style=""width: 408px; height: 417px; margin-right: 200px;""><img src=""images/choice_trial_11.png"" style=""width: 408px; height: 417px;""></div></div>",,delaylearn,learning,trial,PEEVLBeufbRL6wXzFlew5v9sOgB2,PEEVLBeufbRL6wXzFlew5v9sOgB2,1.0,images/choice_trial_12.png,images/choice_trial_11.png,images/pattern_6.png,j,j,750.0,12.0,11.0,5.0,1.0,28.0,0.0,0.0,0.0,160.0,,,,,,614b90050a269c27f4746a37,09:06:58,27/02/2024
html-keyboard-response,156,632705,0.0-65.0-1.0,,<div style='font-weight: bold; font-size: 75px; color: red;'>Missed Trial <br><br><br><br> Please respond faster</div>,,delaylearn,learning,display_response,PEEVLBeufbRL6wXzFlew5v9sOgB2,PEEVLBeufbRL6wXzFlew5v9sOgB2,,,,,,,,,,,,,,,,,Missed trial,,,,,614b90050a269c27f4746a37,09:06:58,27/02/2024
html-keyboard-response,157,632711,0.0-65.0-2.0,,,,delaylearn,learning,feedback_duration_window,PEEVLBeufbRL6wXzFlew5v9sOgB2,PEEVLBeufbRL6wXzFlew5v9sOgB2,,,,,,,,,,,,,,,,,,0.0,,,,614b90050a269c27f4746a37,09:06:58,27/02/2024
html-keyboard-response,158,632717,0.0-65.0-3.0,,,,delaylearn,learning,feedback_image_window,PEEVLBeufbRL6wXzFlew5v9sOgB2,PEEVLBeufbRL6wXzFlew5v9sOgB2,,,,,,,,,,,,,,,,,,,,,,614b90050a269c27f4746a37,09:06:58,27/02/2024
html-keyboard-response,159,633218,0.0-66.0-0.0,,,,,,mood_trial_fixation,PEEVLBeufbRL6wXzFlew5v9sOgB2,,,,,,,,,,,,,,,,,,,,,,,614b90050a269c27f4746a37,09:06:58,27/02/2024
lmdlab-html-vas-response,160,639261,0.0-66.0-1.0,5037.0,How happy are you right now?,0.4031696173615077,delaylearn,learning,mood_trial,PEEVLBeufbRL6wXzFlew5v9sOgB2,PEEVLBeufbRL6wXzFlew5v9sOgB2,,,,,,,,,,,,,,,,,,,,"['Very unhappy', 'Very happy']",,614b90050a269c27f4746a37,09:06:58,27/02/2024
html-keyboard-response,161,640948,0.0-67.0,,"<div style=""font-size:100px;"">+</div>",,delaylearn,learning,ITI,PEEVLBeufbRL6wXzFlew5v9sOgB2,PEEVLBeufbRL6wXzFlew5v9sOgB2,,,,,,,,,,,,,,,,,,,1685.0,,,614b90050a269c27f4746a37,09:06:58,27/02/2024
html-keyboard-response,162,643806,0.0-68.0-0.0,2853.2000000029802,"<div style=""display: flex; flex-direction: column; align-items: center; margin-top: -40px;""><img src=""images/pattern_4.png"" style=""width: 234px; height: 230px; margin-top: -50px;""><div style=""display: flex; justify-content: space-between; margin-top: 33px;""><img src=""images/choice_trial_8.png"" style=""width: 408px; height: 417px; margin-right: 200px;""><img src=""images/choice_trial_7.png"" style=""width: 408px; height: 417px;""></div></div>",j,delaylearn,learning,trial,PEEVLBeufbRL6wXzFlew5v9sOgB2,PEEVLBeufbRL6wXzFlew5v9sOgB2,1.0,images/choice_trial_8.png,images/choice_trial_7.png,images/pattern_4.png,j,j,7000.0,8.0,7.0,3.0,1.0,29.0,1.0,1.0,7.0,170.0,,,,,,614b90050a269c27f4746a37,09:06:58,27/02/2024
html-keyboard-response,163,644808,0.0-68.0-1.0,,"<div style=""display: flex; flex-direction: column; align-items: center; margin-top: -40px;""><img src=""images/pattern_4.png"" style=""width: 234px; height: 230px; margin-top: -50px;""><div style=""display: flex; justify-content: space-between; margin-top: 33px;""><img src=""images/choice_trial_7.png"" style=""width: 408px; height: 417px; margin-left:608px;""></div></div>",,delaylearn,learning,display_response,PEEVLBeufbRL6wXzFlew5v9sOgB2,PEEVLBeufbRL6wXzFlew5v9sOgB2,,,,,,,,,,,,,,,,,chosen stimuli: images/choice_trial_7.png,,,,,614b90050a269c27f4746a37,09:06:58,27/02/2024
html-keyboard-response,164,651810,0.0-68.0-2.0,,,,delaylearn,learning,feedback_duration_window,PEEVLBeufbRL6wXzFlew5v9sOgB2,PEEVLBeufbRL6wXzFlew5v9sOgB2,,,,,,,,,,,,,,,,,,7000.0,,,,614b90050a269c27f4746a37,09:06:58,27/02/2024
html-keyboard-response,165,653312,0.0-68.0-3.0,,<div style='margin:auto;width: auto; font-size: 150%'><span style='font-weight: bold; font-size: 100px; color: green;'>+10 points!</span><br><br></div>,,delaylearn,learning,feedback_image_window,PEEVLBeufbRL6wXzFlew5v9sOgB2,PEEVLBeufbRL6wXzFlew5v9sOgB2,,,,,,,,,,,,,,,,,,,,,,614b90050a269c27f4746a37,09:06:58,27/02/2024
html-keyboard-response,166,655542,0.0-69.0,,"<div style=""font-size:100px;"">+</div>",,delaylearn,learning,ITI,PEEVLBeufbRL6wXzFlew5v9sOgB2,PEEVLBeufbRL6wXzFlew5v9sOgB2,,,,,,,,,,,,,,,,,,,2228.0,,,614b90050a269c27f4746a37,09:06:58,27/02/2024
html-keyboard-response,167,656939,0.0-70.0-0.0,1392.5,"<div style=""display: flex; flex-direction: column; align-items: center; margin-top: -40px;""><img src=""images/pattern_3.png"" style=""width: 234px; height: 230px; margin-top: -50px;""><div style=""display: flex; justify-content: space-between; margin-top: 33px;""><img src=""images/choice_trial_6.png"" style=""width: 408px; height: 417px; margin-right: 200px;""><img src=""images/choice_trial_5.png"" style=""width: 408px; height: 417px;""></div></div>",j,delaylearn,learning,trial,PEEVLBeufbRL6wXzFlew5v9sOgB2,PEEVLBeufbRL6wXzFlew5v9sOgB2,1.0,images/choice_trial_6.png,images/choice_trial_5.png,images/pattern_3.png,j,j,7000.0,6.0,5.0,2.0,1.0,30.0,1.0,1.0,5.0,180.0,,,,,,614b90050a269c27f4746a37,09:06:58,27/02/2024
html-keyboard-response,168,657941,0.0-70.0-1.0,,"<div style=""display: flex; flex-direction: column; align-items: center; margin-top: -40px;""><img src=""images/pattern_3.png"" style=""width: 234px; height: 230px; margin-top: -50px;""><div style=""display: flex; justify-content: space-between; margin-top: 33px;""><img src=""images/choice_trial_5.png"" style=""width: 408px; height: 417px; margin-left:608px;""></div></div>",,delaylearn,learning,display_response,PEEVLBeufbRL6wXzFlew5v9sOgB2,PEEVLBeufbRL6wXzFlew5v9sOgB2,,,,,,,,,,,,,,,,,chosen stimuli: images/choice_trial_5.png,,,,,614b90050a269c27f4746a37,09:06:58,27/02/2024
html-keyboard-response,169,664943,0.0-70.0-2.0,,,,delaylearn,learning,feedback_duration_window,PEEVLBeufbRL6wXzFlew5v9sOgB2,PEEVLBeufbRL6wXzFlew5v9sOgB2,,,,,,,,,,,,,,,,,,7000.0,,,,614b90050a269c27f4746a37,09:06:58,27/02/2024
html-keyboard-response,170,666445,0.0-70.0-3.0,,<div style='margin:auto;width: auto; font-size: 150%'><span style='font-weight: bold; font-size: 100px; color: green;'>+10 points!</span><br><br></div>,,delaylearn,learning,feedback_image_window,PEEVLBeufbRL6wXzFlew5v9sOgB2,PEEVLBeufbRL6wXzFlew5v9sOgB2,,,,,,,,,,,,,,,,,,,,,,614b90050a269c27f4746a37,09:06:58,27/02/2024
html-keyboard-response,171,668002,0.0-71.0,,"<div style=""font-size:100px;"">+</div>",,delaylearn,learning,ITI,PEEVLBeufbRL6wXzFlew5v9sOgB2,PEEVLBeufbRL6wXzFlew5v9sOgB2,,,,,,,,,,,,,,,,,,,1555.0,,,614b90050a269c27f4746a37,09:06:58,27/02/2024
html-keyboard-response,172,669183,0.0-72.0-0.0,1177.199999999255,"<div style=""display: flex; flex-direction: column; align-items: center; margin-top: -40px;""><img src=""images/pattern_5.png"" style=""width: 234px; height: 230px; margin-top: -50px;""><div style=""display: flex; justify-content: space-between; margin-top: 33px;""><img src=""images/choice_trial_9.png"" style=""width: 408px; height: 417px; margin-right: 200px;""><img src=""images/choice_trial_10.png"" style=""width: 408px; height: 417px;""></div></div>",f,delaylearn,learning,trial,PEEVLBeufbRL6wXzFlew5v9sOgB2,PEEVLBeufbRL6wXzFlew5v9sOgB2,1.0,images/choice_trial_9.png,images/choice_trial_10.png,images/pattern_5.png,j,f,750.0,9.0,10.0,4.0,0.0,31.0,1.0,0.0,9.0,180.0,,,,,,614b90050a269c27f4746a37,09:06:58,27/02/2024
html-keyboard-response,173,670185,0.0-72.0-1.0,,"<div style=""display: flex; flex-direction: column; align-items: center; margin-top: -40px;""><img src=""images/pattern_5.png"" style=""width: 234px; height: 230px; margin-top: -50px;""><div style=""display: flex; justify-content: space-between; margin-top: 33px;""><img src=""images/choice_trial_9.png"" style=""width: 408px; height: 417px; margin-right: 608px;""></div></div>",,delaylearn,learning,display_response,PEEVLBeufbRL6wXzFlew5v9sOgB2,PEEVLBeufbRL6wXzFlew5v9sOgB2,,,,,,,,,,,,,,,,,chosen stimuli: images/choice_trial_9.png,,,,,614b90050a269c27f4746a37,09:06:58,27/02/2024
html-keyboard-response,174,670937,0.0-72.0-2.0,,,,delaylearn,learning,feedback_duration_window,PEEVLBeufbRL6wXzFlew5v9sOgB2,PEEVLBeufbRL6wXzFlew5v9sOgB2,,,,,,,,,,,,,,,,,,750.0,,,,614b90050a269c27f4746a37,09:06:58,27/02/2024
html-keyboard-response,175,672439,0.0-72.0-3.0,,<div style='margin:auto;width: auto; font-size: 150%'><span style='font-weight: bold; font-size: 100px; color: red;'>0 points!</span><br><br></div>,,delaylearn,learning,feedback_image_window,PEEVLBeufbRL6wXzFlew5v9sOgB2,PEEVLBeufbRL6wXzFlew5v9sOgB2,,,,,,,,,,,,,,,,,,,,,,614b90050a269c27f4746a37,09:06:58,27/02/2024
html-keyboard-response,176,674672,0.0-73.0,,"<div style=""font-size:100px;"">+</div>",,delaylearn,learning,ITI,PEEVLBeufbRL6wXzFlew5v9sOgB2,PEEVLBeufbRL6wXzFlew5v9sOgB2,,,,,,,,,,,,,,,,,,,2231.0,,,614b90050a269c27f4746a37,09:06:58,27/02/2024
html-keyboard-response,177,675882,0.0-74.0-0.0,1206.800000000745,"<div style=""display: flex; flex-direction: column; align-items: center; margin-top: -40px;""><img src=""images/pattern_1.png"" style=""width: 234px; height: 230px; margin-top: -50px;""><div style=""display: flex; justify-content: space-between; margin-top: 33px;""><img src=""images/choice_trial_1.png"" style=""width: 408px; height: 417px; margin-right: 200px;""><img src=""images/choice_trial_2.png"" style=""width: 408px; height: 417px;""></div></div>",j,delaylearn,learning,trial,PEEVLBeufbRL6wXzFlew5v9sOgB2,PEEVLBeufbRL6wXzFlew5v9sOgB2,1.0,images/choice_trial_1.png,images/choice_trial_2.png,images/pattern_1.png,f,f,7000.0,1.0,2.0,1.0,0.0,32.0,0.0,0.0,2.0,180.0,,,,,,614b90050a269c27f4746a37,09:06:58,27/02/2024
html-keyboard-response,178,676884,0.0-74.0-1.0,,"<div style=""display: flex; flex-direction: column; align-items: center; margin-top: -40px;""><img src=""images/pattern_1.png"" style=""width: 234px; height: 230px; margin-top: -50px;""><div style=""display: flex; justify-content: space-between; margin-top: 33px;""><img src=""images/choice_trial_2.png"" style=""width: 408px; height: 417px; margin-left:608px;""></div></div>",,delaylearn,learning,display_response,PEEVLBeufbRL6wXzFlew5v9sOgB2,PEEVLBeufbRL6wXzFlew5v9sOgB2,,,,,,,,,,,,,,,,,chosen stimuli: images/choice_trial_2.png,,,,,614b90050a269c27f4746a37,09:06:58,27/02/2024
html-keyboard-response,179,683886,0.0-74.0-2.0,,,,delaylearn,learning,feedback_duration_window,PEEVLBeufbRL6wXzFlew5v9sOgB2,PEEVLBeufbRL6wXzFlew5v9sOgB2,,,,,,,,,,,,,,,,,,7000.0,,,,614b90050a269c27f4746a37,09:06:58,27/02/2024
html-keyboard-response,180,685388,0.0-74.0-3.0,,<div style='margin:auto;width: auto; font-size: 150%'><span style='font-weight: bold; font-size: 100px; color: red;'>0 points!</span><br><br></div>,,delaylearn,learning,feedback_image_window,PEEVLBeufbRL6wXzFlew5v9sOgB2,PEEVLBeufbRL6wXzFlew5v9sOgB2,,,,,,,,,,,,,,,,,,,,,,614b90050a269c27f4746a37,09:06:58,27/02/2024
html-keyboard-response,181,685890,0.0-75.0-0.0,,,,,,mood_trial_fixation,PEEVLBeufbRL6wXzFlew5v9sOgB2,,,,,,,,,,,,,,,,,,,,,,,614b90050a269c27f4746a37,09:06:58,27/02/2024
lmdlab-html-vas-response,182,689884,0.0-75.0-1.0,2988.0,How happy are you right now?,0.3044831524842947,delaylearn,learning,mood_trial,PEEVLBeufbRL6wXzFlew5v9sOgB2,PEEVLBeufbRL6wXzFlew5v9sOgB2,,,,,,,,,,,,,,,,,,,,"['Very unhappy', 'Very happy']",,614b90050a269c27f4746a37,09:06:58,27/02/2024
html-keyboard-response,183,691573,0.0-76.0,,"<div style=""font-size:100px;"">+</div>",,delaylearn,learning,ITI,PEEVLBeufbRL6wXzFlew5v9sOgB2,PEEVLBeufbRL6wXzFlew5v9sOgB2,,,,,,,,,,,,,,,,,,,1687.0,,,614b90050a269c27f4746a37,09:06:58,27/02/2024
html-keyboard-response,184,693231,0.0-77.0-0.0,1653.0,"<div style=""display: flex; flex-direction: column; align-items: center; margin-top: -40px;""><img src=""images/pattern_6.png"" style=""width: 234px; height: 230px; margin-top: -50px;""><div style=""display: flex; justify-content: space-between; margin-top: 33px;""><img src=""images/choice_trial_11.png"" style=""width: 408px; height: 417px; margin-right: 200px;""><img src=""images/choice_trial_12.png"" style=""width: 408px; height: 417px;""></div></div>",f,delaylearn,learning,trial,PEEVLBeufbRL6wXzFlew5v9sOgB2,PEEVLBeufbRL6wXzFlew5v9sOgB2,1.0,images/choice_trial_11.png,images/choice_trial_12.png,images/pattern_6.png,j,f,750.0,11.0,12.0,5.0,0.0,33.0,1.0,0.0,11.0,180.0,,,,,,614b90050a269c27f4746a37,09:06:58,27/02/2024
html-keyboard-response,185,694233,0.0-77.0-1.0,,"<div style=""display: flex; flex-direction: column; align-items: center; margin-top: -40px;""><img src=""images/pattern_6.png"" style=""width: 234px; height: 230px; margin-top: -50px;""><div style=""display: flex; justify-content: space-between; margin-top: 33px;""><img src=""images/choice_trial_11.png"" style=""width: 408px; height: 417px; margin-right: 608px;""></div></div>",,delaylearn,learning,display_response,PEEVLBeufbRL6wXzFlew5v9sOgB2,PEEVLBeufbRL6wXzFlew5v9sOgB2,,,,,,,,,,,,,,,,,chosen stimuli: images/choice_trial_11.png,,,,,614b90050a269c27f4746a37,09:06:58,27/02/2024
html-keyboard-response,186,694985,0.0-77.0-2.0,,,,delaylearn,learning,feedback_duration_window,PEEVLBeufbRL6wXzFlew5v9sOgB2,PEEVLBeufbRL6wXzFlew5v9sOgB2,,,,,,,,,,,,,,,,,,750.0,,,,614b90050a269c27f4746a37,09:06:58,27/02/2024
html-keyboard-response,187,696487,0.0-77.0-3.0,,<div style='margin:auto;width: auto; font-size: 150%'><span style='font-weight: bold; font-size: 100px; color: red;'>0 points!</span><br><br></div>,,delaylearn,learning,feedback_image_window,PEEVLBeufbRL6wXzFlew5v9sOgB2,PEEVLBeufbRL6wXzFlew5v9sOgB2,,,,,,,,,,,,,,,,,,,,,,614b90050a269c27f4746a37,09:06:58,27/02/2024
html-keyboard-response,188,698029,0.0-78.0,,"<div style=""font-size:100px;"">+</div>",,delaylearn,learning,ITI,PEEVLBeufbRL6wXzFlew5v9sOgB2,PEEVLBeufbRL6wXzFlew5v9sOgB2,,,,,,,,,,,,,,,,,,,1541.0,,,614b90050a269c27f4746a37,09:06:58,27/02/2024
html-keyboard-response,189,699309,0.0-79.0-0.0,1275.5,"<div style=""display: flex; flex-direction: column; align-items: center; margin-top: -40px;""><img src=""images/pattern_3.png"" style=""width: 234px; height: 230px; margin-top: -50px;""><div style=""display: flex; justify-content: space-between; margin-top: 33px;""><img src=""images/choice_trial_6.png"" style=""width: 408px; height: 417px; margin-right: 200px;""><img src=""images/choice_trial_5.png"" style=""width: 408px; height: 417px;""></div></div>",j,delaylearn,learning,trial,PEEVLBeufbRL6wXzFlew5v9sOgB2,PEEVLBeufbRL6wXzFlew5v9sOgB2,1.0,images/choice_trial_6.png,images/choice_trial_5.png,images/pattern_3.png,j,j,7000.0,6.0,5.0,2.0,1.0,34.0,1.0,1.0,5.0,190.0,,,,,,614b90050a269c27f4746a37,09:06:58,27/02/2024
html-keyboard-response,190,700311,0.0-79.0-1.0,,"<div style=""display: flex; flex-direction: column; align-items: center; margin-top: -40px;""><img src=""images/pattern_3.png"" style=""width: 234px; height: 230px; margin-top: -50px;""><div style=""display: flex; justify-content: space-between; margin-top: 33px;""><img src=""images/choice_trial_5.png"" style=""width: 408px; height: 417px; margin-left:608px;""></div></div>",,delaylearn,learning,display_response,PEEVLBeufbRL6wXzFlew5v9sOgB2,PEEVLBeufbRL6wXzFlew5v9sOgB2,,,,,,,,,,,,,,,,,chosen stimuli: images/choice_trial_5.png,,,,,614b90050a269c27f4746a37,09:06:58,27/02/2024
html-keyboard-response,191,707312,0.0-79.0-2.0,,,,delaylearn,learning,feedback_duration_window,PEEVLBeufbRL6wXzFlew5v9sOgB2,PEEVLBeufbRL6wXzFlew5v9sOgB2,,,,,,,,,,,,,,,,,,7000.0,,,,614b90050a269c27f4746a37,09:06:58,27/02/2024
html-keyboard-response,192,708815,0.0-79.0-3.0,,<div style='margin:auto;width: auto; font-size: 150%'><span style='font-weight: bold; font-size: 100px; color: green;'>+10 points!</span><br><br></div>,,delaylearn,learning,feedback_image_window,PEEVLBeufbRL6wXzFlew5v9sOgB2,PEEVLBeufbRL6wXzFlew5v9sOgB2,,,,,,,,,,,,,,,,,,,,,,614b90050a269c27f4746a37,09:06:58,27/02/2024
html-keyboard-response,193,710913,0.0-80.0,,"<div style=""font-size:100px;"">+</div>",,delaylearn,learning,ITI,PEEVLBeufbRL6wXzFlew5v9sOgB2,PEEVLBeufbRL6wXzFlew5v9sOgB2,,,,,,,,,,,,,,,,,,,2097.0,,,614b90050a269c27f4746a37,09:06:58,27/02/2024
html-keyboard-response,194,711709,0.0-81.0-0.0,791.5,"<div style=""display: flex; flex-direction: column; align-items: center; margin-top: -40px;""><img src=""images/pattern_4.png"" style=""width: 234px; height: 230px; margin-top: -50px;""><div style=""display: flex; justify-content: space-between; margin-top: 33px;""><img src=""images/choice_trial_8.png"" style=""width: 408px; height: 417px; margin-right: 200px;""><img src=""images/choice_trial_7.png"" style=""width: 408px; height: 417px;""></div></div>",j,delaylearn,learning,trial,PEEVLBeufbRL6wXzFlew5v9sOgB2,PEEVLBeufbRL6wXzFlew5v9sOgB2,1.0,images/choice_trial_8.png,images/choice_trial_7.png,images/pattern_4.png,f,j,7000.0,8.0,7.0,3.0,1.0,35.0,1.0,0.0,7.0,190.0,,,,,,614b90050a269c27f4746a37,09:06:58,27/02/2024
html-keyboard-response,195,712711,0.0-81.0-1.0,,"<div style=""display: flex; flex-direction: column; align-items: center; margin-top: -40px;""><img src=""images/pattern_4.png"" style=""width: 234px; height: 230px; margin-top: -50px;""><div style=""display: flex; justify-content: space-between; margin-top: 33px;""><img src=""images/choice_trial_7.png"" style=""width: 408px; height: 417px; margin-left:608px;""></div></div>",,delaylearn,learning,display_response,PEEVLBeufbRL6wXzFlew5v9sOgB2,PEEVLBeufbRL6wXzFlew5v9sOgB2,,,,,,,,,,,,,,,,,chosen stimuli: images/choice_trial_7.png,,,,,614b90050a269c27f4746a37,09:06:58,27/02/2024
html-keyboard-response,196,719713,0.0-81.0-2.0,,,,delaylearn,learning,feedback_duration_window,PEEVLBeufbRL6wXzFlew5v9sOgB2,PEEVLBeufbRL6wXzFlew5v9sOgB2,,,,,,,,,,,,,,,,,,7000.0,,,,614b90050a269c27f4746a37,09:06:58,27/02/2024
html-keyboard-response,197,721216,0.0-81.0-3.0,,<div style='margin:auto;width: auto; font-size: 150%'><span style='font-weight: bold; font-size: 100px; color: red;'>0 points!</span><br><br></div>,,delaylearn,learning,feedback_image_window,PEEVLBeufbRL6wXzFlew5v9sOgB2,PEEVLBeufbRL6wXzFlew5v9sOgB2,,,,,,,,,,,,,,,,,,,,,,614b90050a269c27f4746a37,09:06:58,27/02/2024
html-keyboard-response,198,723353,0.0-82.0,,"<div style=""font-size:100px;"">+</div>",,delaylearn,learning,ITI,PEEVLBeufbRL6wXzFlew5v9sOgB2,PEEVLBeufbRL6wXzFlew5v9sOgB2,,,,,,,,,,,,,,,,,,,2136.0,,,614b90050a269c27f4746a37,09:06:58,27/02/2024
html-keyboard-response,199,724877,0.0-83.0-0.0,1521.3999999985099,"<div style=""display: flex; flex-direction: column; align-items: center; margin-top: -40px;""><img src=""images/pattern_7.png"" style=""width: 234px; height: 230px; margin-top: -50px;""><div style=""display: flex; justify-content: space-between; margin-top: 33px;""><img src=""images/choice_trial_13.png"" style=""width: 408px; height: 417px; margin-right: 200px;""><img src=""images/choice_trial_14.png"" style=""width: 408px; height: 417px;""></div></div>",f,delaylearn,learning,trial,PEEVLBeufbRL6wXzFlew5v9sOgB2,PEEVLBeufbRL6wXzFlew5v9sOgB2,1.0,images/choice_trial_13.png,images/choice_trial_14.png,images/pattern_7.png,f,f,750.0,13.0,14.0,6.0,0.0,36.0,1.0,1.0,13.0,200.0,,,,,,614b90050a269c27f4746a37,09:06:58,27/02/2024
html-keyboard-response,200,725879,0.0-83.0-1.0,,"<div style=""display: flex; flex-direction: column; align-items: center; margin-top: -40px;""><img src=""images/pattern_7.png"" style=""width: 234px; height: 230px; margin-top: -50px;""><div style=""display: flex; justify-content: space-between; margin-top: 33px;""><img src=""images/choice_trial_13.png"" style=""width: 408px; height: 417px; margin-right: 608px;""></div></div>",,delaylearn,learning,display_response,PEEVLBeufbRL6wXzFlew5v9sOgB2,PEEVLBeufbRL6wXzFlew5v9sOgB2,,,,,,,,,,,,,,,,,chosen stimuli: images/choice_trial_13.png,,,,,614b90050a269c27f4746a37,09:06:58,27/02/2024
html-keyboard-response,201,726630,0.0-83.0-2.0,,,,delaylearn,learning,feedback_duration_window,PEEVLBeufbRL6wXzFlew5v9sOgB2,PEEVLBeufbRL6wXzFlew5v9sOgB2,,,,,,,,,,,,,,,,,,750.0,,,,614b90050a269c27f4746a37,09:06:58,27/02/2024
html-keyboard-response,202,728133,0.0-83.0-3.0,,<div style='margin:auto;width: auto; font-size: 150%'><span style='font-weight: bold; font-size: 100px; color: green;'>+10 points!</span><br><br></div>,,delaylearn,learning,feedback_image_window,PEEVLBeufbRL6wXzFlew5v9sOgB2,PEEVLBeufbRL6wXzFlew5v9sOgB2,,,,,,,,,,,,,,,,,,,,,,614b90050a269c27f4746a37,09:06:58,27/02/2024
html-keyboard-response,203,730376,0.0-84.0,,"<div style=""font-size:100px;"">+</div>",,delaylearn,learning,ITI,PEEVLBeufbRL6wXzFlew5v9sOgB2,PEEVLBeufbRL6wXzFlew5v9sOgB2,,,,,,,,,,,,,,,,,,,2242.0,,,614b90050a269c27f4746a37,09:06:58,27/02/2024
html-keyboard-response,204,732909,0.0-85.0-0.0,2526.699999999255,"<div style=""display: flex; flex-direction: column; align-items: center; margin-top: -40px;""><img src=""images/pattern_1.png"" style=""width: 234px; height: 230px; margin-top: -50px;""><div style=""display: flex; justify-content: space-between; margin-top: 33px;""><img src=""images/choice_trial_1.png"" style=""width: 408px; height: 417px; margin-right: 200px;""><img src=""images/choice_trial_2.png"" style=""width: 408px; height: 417px;""></div></div>",j,delaylearn,learning,trial,PEEVLBeufbRL6wXzFlew5v9sOgB2,PEEVLBeufbRL6wXzFlew5v9sOgB2,1.0,images/choice_trial_1.png,images/choice_trial_2.png,images/pattern_1.png,f,f,7000.0,1.0,2.0,1.0,0.0,37.0,0.0,0.0,2.0,200.0,,,,,,614b90050a269c27f4746a37,09:06:58,27/02/2024
html-keyboard-response,205,733911,0.0-85.0-1.0,,"<div style=""display: flex; flex-direction: column; align-items: center; margin-top: -40px;""><img src=""images/pattern_1.png"" style=""width: 234px; height: 230px; margin-top: -50px;""><div style=""display: flex; justify-content: space-between; margin-top: 33px;""><img src=""images/choice_trial_2.png"" style=""width: 408px; height: 417px; margin-left:608px;""></div></div>",,delaylearn,learning,display_response,PEEVLBeufbRL6wXzFlew5v9sOgB2,PEEVLBeufbRL6wXzFlew5v9sOgB2,,,,,,,,,,,,,,,,,chosen stimuli: images/choice_trial_2.png,,,,,614b90050a269c27f4746a37,09:06:58,27/02/2024
html-keyboard-response,206,740913,0.0-85.0-2.0,,,,delaylearn,learning,feedback_duration_window,PEEVLBeufbRL6wXzFlew5v9sOgB2,PEEVLBeufbRL6wXzFlew5v9sOgB2,,,,,,,,,,,,,,,,,,7000.0,,,,614b90050a269c27f4746a37,09:06:58,27/02/2024
html-keyboard-response,207,742416,0.0-85.0-3.0,,<div style='margin:auto;width: auto; font-size: 150%'><span style='font-weight: bold; font-size: 100px; color: red;'>0 points!</span><br><br></div>,,delaylearn,learning,feedback_image_window,PEEVLBeufbRL6wXzFlew5v9sOgB2,PEEVLBeufbRL6wXzFlew5v9sOgB2,,,,,,,,,,,,,,,,,,,,,,614b90050a269c27f4746a37,09:06:58,27/02/2024
html-keyboard-response,208,742917,0.0-86.0-0.0,,,,,,mood_trial_fixation,PEEVLBeufbRL6wXzFlew5v9sOgB2,,,,,,,,,,,,,,,,,,,,,,,614b90050a269c27f4746a37,09:06:58,27/02/2024
lmdlab-html-vas-response,209,749617,0.0-86.0-1.0,5694.0,How happy are you right now?,0.3008280982295831,delaylearn,learning,mood_trial,PEEVLBeufbRL6wXzFlew5v9sOgB2,PEEVLBeufbRL6wXzFlew5v9sOgB2,,,,,,,,,,,,,,,,,,,,"['Very unhappy', 'Very happy']",,614b90050a269c27f4746a37,09:06:58,27/02/2024
html-keyboard-response,210,751460,0.0-87.0,,"<div style=""font-size:100px;"">+</div>",,delaylearn,learning,ITI,PEEVLBeufbRL6wXzFlew5v9sOgB2,PEEVLBeufbRL6wXzFlew5v9sOgB2,,,,,,,,,,,,,,,,,,,1841.0,,,614b90050a269c27f4746a37,09:06:58,27/02/2024
html-keyboard-response,211,752882,0.0-88.0-0.0,1416.8999999985099,"<div style=""display: flex; flex-direction: column; align-items: center; margin-top: -40px;""><img src=""images/pattern_3.png"" style=""width: 234px; height: 230px; margin-top: -50px;""><div style=""display: flex; justify-content: space-between; margin-top: 33px;""><img src=""images/choice_trial_5.png"" style=""width: 408px; height: 417px; margin-right: 200px;""><img src=""images/choice_trial_6.png"" style=""width: 408px; height: 417px;""></div></div>",f,delaylearn,learning,trial,PEEVLBeufbRL6wXzFlew5v9sOgB2,PEEVLBeufbRL6wXzFlew5v9sOgB2,1.0,images/choice_trial_5.png,images/choice_trial_6.png,images/pattern_3.png,j,f,7000.0,5.0,6.0,2.0,0.0,38.0,1.0,0.0,5.0,200.0,,,,,,614b90050a269c27f4746a37,09:06:58,27/02/2024
html-keyboard-response,212,753884,0.0-88.0-1.0,,"<div style=""display: flex; flex-direction: column; align-items: center; margin-top: -40px;""><img src=""images/pattern_3.png"" style=""width: 234px; height: 230px; margin-top: -50px;""><div style=""display: flex; justify-content: space-between; margin-top: 33px;""><img src=""images/choice_trial_5.png"" style=""width: 408px; height: 417px; margin-right: 608px;""></div></div>",,delaylearn,learning,display_response,PEEVLBeufbRL6wXzFlew5v9sOgB2,PEEVLBeufbRL6wXzFlew5v9sOgB2,,,,,,,,,,,,,,,,,chosen stimuli: images/choice_trial_5.png,,,,,614b90050a269c27f4746a37,09:06:58,27/02/2024
html-keyboard-response,213,760886,0.0-88.0-2.0,,,,delaylearn,learning,feedback_duration_window,PEEVLBeufbRL6wXzFlew5v9sOgB2,PEEVLBeufbRL6wXzFlew5v9sOgB2,,,,,,,,,,,,,,,,,,7000.0,,,,614b90050a269c27f4746a37,09:06:58,27/02/2024
html-keyboard-response,214,762388,0.0-88.0-3.0,,<div style='margin:auto;width: auto; font-size: 150%'><span style='font-weight: bold; font-size: 100px; color: red;'>0 points!</span><br><br></div>,,delaylearn,learning,feedback_image_window,PEEVLBeufbRL6wXzFlew5v9sOgB2,PEEVLBeufbRL6wXzFlew5v9sOgB2,,,,,,,,,,,,,,,,,,,,,,614b90050a269c27f4746a37,09:06:58,27/02/2024
html-keyboard-response,215,764129,0.0-89.0,,"<div style=""font-size:100px;"">+</div>",,delaylearn,learning,ITI,PEEVLBeufbRL6wXzFlew5v9sOgB2,PEEVLBeufbRL6wXzFlew5v9sOgB2,,,,,,,,,,,,,,,,,,,1739.0,,,614b90050a269c27f4746a37,09:06:58,27/02/2024
html-keyboard-response,216,765332,0.0-90.0-0.0,1198.199999999255,"<div style=""display: flex; flex-direction: column; align-items: center; margin-top: -40px;""><img src=""images/pattern_7.png"" style=""width: 234px; height: 230px; margin-top: -50px;""><div style=""display: flex; justify-content: space-between; margin-top: 33px;""><img src=""images/choice_trial_14.png"" style=""width: 408px; height: 417px; margin-right: 200px;""><img src=""images/choice_trial_13.png"" style=""width: 408px; height: 417px;""></div></div>",j,delaylearn,learning,trial,PEEVLBeufbRL6wXzFlew5v9sOgB2,PEEVLBeufbRL6wXzFlew5v9sOgB2,1.0,images/choice_trial_14.png,images/choice_trial_13.png,images/pattern_7.png,j,j,750.0,14.0,13.0,6.0,1.0,39.0,1.0,1.0,13.0,210.0,,,,,,614b90050a269c27f4746a37,09:06:58,27/02/2024
html-keyboard-response,217,766334,0.0-90.0-1.0,,"<div style=""display: flex; flex-direction: column; align-items: center; margin-top: -40px;""><img src=""images/pattern_7.png"" style=""width: 234px; height: 230px; margin-top: -50px;""><div style=""display: flex; justify-content: space-between; margin-top: 33px;""><img src=""images/choice_trial_13.png"" style=""width: 408px; height: 417px; margin-left:608px;""></div></div>",,delaylearn,learning,display_response,PEEVLBeufbRL6wXzFlew5v9sOgB2,PEEVLBeufbRL6wXzFlew5v9sOgB2,,,,,,,,,,,,,,,,,chosen stimuli: images/choice_trial_13.png,,,,,614b90050a269c27f4746a37,09:06:58,27/02/2024
html-keyboard-response,218,767085,0.0-90.0-2.0,,,,delaylearn,learning,feedback_duration_window,PEEVLBeufbRL6wXzFlew5v9sOgB2,PEEVLBeufbRL6wXzFlew5v9sOgB2,,,,,,,,,,,,,,,,,,750.0,,,,614b90050a269c27f4746a37,09:06:58,27/02/2024
html-keyboard-response,219,768588,0.0-90.0-3.0,,<div style='margin:auto;width: auto; font-size: 150%'><span style='font-weight: bold; font-size: 100px; color: green;'>+10 points!</span><br><br></div>,,delaylearn,learning,feedback_image_window,PEEVLBeufbRL6wXzFlew5v9sOgB2,PEEVLBeufbRL6wXzFlew5v9sOgB2,,,,,,,,,,,,,,,,,,,,,,614b90050a269c27f4746a37,09:06:58,27/02/2024
html-keyboard-response,220,770623,0.0-91.0,,"<div style=""font-size:100px;"">+</div>",,delaylearn,learning,ITI,PEEVLBeufbRL6wXzFlew5v9sOgB2,PEEVLBeufbRL6wXzFlew5v9sOgB2,,,,,,,,,,,,,,,,,,,2034.0,,,614b90050a269c27f4746a37,09:06:58,27/02/2024
html-keyboard-response,221,771698,0.0-92.0-0.0,1068.300000000745,"<div style=""display: flex; flex-direction: column; align-items: center; margin-top: -40px;""><img src=""images/pattern_5.png"" style=""width: 234px; height: 230px; margin-top: -50px;""><div style=""display: flex; justify-content: space-between; margin-top: 33px;""><img src=""images/choice_trial_10.png"" style=""width: 408px; height: 417px; margin-right: 200px;""><img src=""images/choice_trial_9.png"" style=""width: 408px; height: 417px;""></div></div>",j,delaylearn,learning,trial,PEEVLBeufbRL6wXzFlew5v9sOgB2,PEEVLBeufbRL6wXzFlew5v9sOgB2,1.0,images/choice_trial_10.png,images/choice_trial_9.png,images/pattern_5.png,j,j,750.0,10.0,9.0,4.0,1.0,40.0,1.0,1.0,9.0,220.0,,,,,,614b90050a269c27f4746a37,09:06:58,27/02/2024
html-keyboard-response,222,772700,0.0-92.0-1.0,,"<div style=""display: flex; flex-direction: column; align-items: center; margin-top: -40px;""><img src=""images/pattern_5.png"" style=""width: 234px; height: 230px; margin-top: -50px;""><div style=""display: flex; justify-content: space-between; margin-top: 33px;""><img src=""images/choice_trial_9.png"" style=""width: 408px; height: 417px; margin-left:608px;""></div></div>",,delaylearn,learning,display_response,PEEVLBeufbRL6wXzFlew5v9sOgB2,PEEVLBeufbRL6wXzFlew5v9sOgB2,,,,,,,,,,,,,,,,,chosen stimuli: images/choice_trial_9.png,,,,,614b90050a269c27f4746a37,09:06:58,27/02/2024
html-keyboard-response,223,773452,0.0-92.0-2.0,,,,delaylearn,learning,feedback_duration_window,PEEVLBeufbRL6wXzFlew5v9sOgB2,PEEVLBeufbRL6wXzFlew5v9sOgB2,,,,,,,,,,,,,,,,,,750.0,,,,614b90050a269c27f4746a37,09:06:58,27/02/2024
html-keyboard-response,224,774954,0.0-92.0-3.0,,<div style='margin:auto;width: auto; font-size: 150%'><span style='font-weight: bold; font-size: 100px; color: green;'>+10 points!</span><br><br></div>,,delaylearn,learning,feedback_image_window,PEEVLBeufbRL6wXzFlew5v9sOgB2,PEEVLBeufbRL6wXzFlew5v9sOgB2,,,,,,,,,,,,,,,,,,,,,,614b90050a269c27f4746a37,09:06:58,27/02/2024
html-keyboard-response,225,775455,0.0-93.0-0.0,,,,,,mood_trial_fixation,PEEVLBeufbRL6wXzFlew5v9sOgB2,,,,,,,,,,,,,,,,,,,,,,,614b90050a269c27f4746a37,09:06:58,27/02/2024
lmdlab-html-vas-response,226,779939,0.0-93.0-1.0,3477.0,How happy are you right now?,0.44337521416333525,delaylearn,learning,mood_trial,PEEVLBeufbRL6wXzFlew5v9sOgB2,PEEVLBeufbRL6wXzFlew5v9sOgB2,,,,,,,,,,,,,,,,,,,,"['Very unhappy', 'Very happy']",,614b90050a269c27f4746a37,09:06:58,27/02/2024
html-keyboard-response,227,781997,0.0-94.0,,"<div style=""font-size:100px;"">+</div>",,delaylearn,learning,ITI,PEEVLBeufbRL6wXzFlew5v9sOgB2,PEEVLBeufbRL6wXzFlew5v9sOgB2,,,,,,,,,,,,,,,,,,,2056.0,,,614b90050a269c27f4746a37,09:06:58,27/02/2024
html-keyboard-response,228,783158,0.0-95.0-0.0,1156.300000000745,"<div style=""display: flex; flex-direction: column; align-items: center; margin-top: -40px;""><img src=""images/pattern_4.png"" style=""width: 234px; height: 230px; margin-top: -50px;""><div style=""display: flex; justify-content: space-between; margin-top: 33px;""><img src=""images/choice_trial_7.png"" style=""width: 408px; height: 417px; margin-right: 200px;""><img src=""images/choice_trial_8.png"" style=""width: 408px; height: 417px;""></div></div>",f,delaylearn,learning,trial,PEEVLBeufbRL6wXzFlew5v9sOgB2,PEEVLBeufbRL6wXzFlew5v9sOgB2,1.0,images/choice_trial_7.png,images/choice_trial_8.png,images/pattern_4.png,f,f,7000.0,7.0,8.0,3.0,0.0,41.0,1.0,1.0,7.0,230.0,,,,,,614b90050a269c27f4746a37,09:06:58,27/02/2024
html-keyboard-response,229,784160,0.0-95.0-1.0,,"<div style=""display: flex; flex-direction: column; align-items: center; margin-top: -40px;""><img src=""images/pattern_4.png"" style=""width: 234px; height: 230px; margin-top: -50px;""><div style=""display: flex; justify-content: space-between; margin-top: 33px;""><img src=""images/choice_trial_7.png"" style=""width: 408px; height: 417px; margin-right: 608px;""></div></div>",,delaylearn,learning,display_response,PEEVLBeufbRL6wXzFlew5v9sOgB2,PEEVLBeufbRL6wXzFlew5v9sOgB2,,,,,,,,,,,,,,,,,chosen stimuli: images/choice_trial_7.png,,,,,614b90050a269c27f4746a37,09:06:58,27/02/2024
html-keyboard-response,230,791162,0.0-95.0-2.0,,,,delaylearn,learning,feedback_duration_window,PEEVLBeufbRL6wXzFlew5v9sOgB2,PEEVLBeufbRL6wXzFlew5v9sOgB2,,,,,,,,,,,,,,,,,,7000.0,,,,614b90050a269c27f4746a37,09:06:58,27/02/2024
html-keyboard-response,231,792665,0.0-95.0-3.0,,<div style='margin:auto;width: auto; font-size: 150%'><span style='font-weight: bold; font-size: 100px; color: green;'>+10 points!</span><br><br></div>,,delaylearn,learning,feedback_image_window,PEEVLBeufbRL6wXzFlew5v9sOgB2,PEEVLBeufbRL6wXzFlew5v9sOgB2,,,,,,,,,,,,,,,,,,,,,,614b90050a269c27f4746a37,09:06:58,27/02/2024
html-keyboard-response,232,794521,0.0-96.0,,"<div style=""font-size:100px;"">+</div>",,delaylearn,learning,ITI,PEEVLBeufbRL6wXzFlew5v9sOgB2,PEEVLBeufbRL6wXzFlew5v9sOgB2,,,,,,,,,,,,,,,,,,,1855.0,,,614b90050a269c27f4746a37,09:06:58,27/02/2024
html-keyboard-response,233,797527,0.0-97.0-0.0,,"<div style=""display: flex; flex-direction: column; align-items: center; margin-top: -40px;""><img src=""images/pattern_6.png"" style=""width: 234px; height: 230px; margin-top: -50px;""><div style=""display: flex; justify-content: space-between; margin-top: 33px;""><img src=""images/choice_trial_12.png"" style=""width: 408px; height: 417px; margin-right: 200px;""><img src=""images/choice_trial_11.png"" style=""width: 408px; height: 417px;""></div></div>",,delaylearn,learning,trial,PEEVLBeufbRL6wXzFlew5v9sOgB2,PEEVLBeufbRL6wXzFlew5v9sOgB2,1.0,images/choice_trial_12.png,images/choice_trial_11.png,images/pattern_6.png,j,j,750.0,12.0,11.0,5.0,1.0,42.0,0.0,0.0,0.0,230.0,,,,,,614b90050a269c27f4746a37,09:06:58,27/02/2024
