trial_type,trial_index,time_elapsed,internal_node_id,rt,stimulus,response,exp_name,exp_stage,test_part,subjectID,databaseID,counterbal,choice_stimuli_1,choice_stimuli_2,pattern_stimuli,rewarded_answer,correct_answer,feedback_duration_times,stim_left,stim_right,pair,leftright_counter,trial,response_correct,response_rewarded,chosen_stim,counter,displayed_choice,feedback_durations,ITI_duration,labels,rest_warning,prolificID,start_time,date
pavlovia,0,493,0.0-0.0,,,,,,,kI4gm6nOBxgUXIDGZlHkqGXQsmv2,,,,,,,,,,,,,,,,,,,,,,,61598cba874ca07729d42b2a,16:44:47,27/03/2024
html-keyboard-response,1,3505,0.0-1.0,,"<div style=""font-size:100px;"">+</div>",,delaylearn,learning,pre_fixation,kI4gm6nOBxgUXIDGZlHkqGXQsmv2,,,,,,,,,,,,,,,,,,,,,,,61598cba874ca07729d42b2a,16:44:47,27/03/2024
html-keyboard-response,2,3553,0.0-2.0-0.0,43.39999985694885,"<div style=""display: flex; flex-direction: column; align-items: center; margin-top: -40px;""><img src=""images/demo_images/pattern_1.png"" style=""width: 234px; height: 230px; margin-top: -50px;""><div style=""display: flex; justify-content: space-between; margin-top: 33px;""><img src=""images/demo_images/choice_trial_2.png"" style=""width: 408px; height: 417px; margin-right: 200px;""><img src=""images/demo_images/choice_trial_1.png"" style=""width: 408px; height: 417px;""></div></div>",j,delaylearn,learning,trial,kI4gm6nOBxgUXIDGZlHkqGXQsmv2,kI4gm6nOBxgUXIDGZlHkqGXQsmv2,3.0,images/demo_images/choice_trial_2.png,images/demo_images/choice_trial_1.png,images/demo_images/pattern_1.png,j,j,3000.0,2.0,1.0,20.0,1.0,1.0,1.0,1.0,1.0,10.0,,,,,,61598cba874ca07729d42b2a,16:44:47,27/03/2024
html-keyboard-response,3,4567,0.0-2.0-1.0,,"<div style=""display: flex; flex-direction: column; align-items: center; margin-top: -40px;""><img src=""images/demo_images/pattern_1.png"" style=""width: 234px; height: 230px; margin-top: -50px;""><div style=""display: flex; justify-content: space-between; margin-top: 33px;""><img src=""images/demo_images/choice_trial_1.png"" style=""width: 408px; height: 417px; margin-left:608px;""></div></div>",,delaylearn,learning,display_response,kI4gm6nOBxgUXIDGZlHkqGXQsmv2,kI4gm6nOBxgUXIDGZlHkqGXQsmv2,,,,,,,,,,,,,,,,,chosen stimuli: images/demo_images/choice_trial_1.png,,,,,61598cba874ca07729d42b2a,16:44:47,27/03/2024
html-keyboard-response,4,7576,0.0-2.0-2.0,,,,delaylearn,learning,feedback_duration_window,kI4gm6nOBxgUXIDGZlHkqGXQsmv2,kI4gm6nOBxgUXIDGZlHkqGXQsmv2,,,,,,,,,,,,,,,,,,3000.0,,,,61598cba874ca07729d42b2a,16:44:47,27/03/2024
html-keyboard-response,5,9089,0.0-2.0-3.0,,<div style='margin:auto;width: auto; font-size: 150%'><span style='font-weight: bold; font-size: 100px; color: green;'>+10 points!</span><br><br></div>,,delaylearn,learning,feedback_image_window,kI4gm6nOBxgUXIDGZlHkqGXQsmv2,kI4gm6nOBxgUXIDGZlHkqGXQsmv2,,,,,,,,,,,,,,,,,,,,,,61598cba874ca07729d42b2a,16:44:47,27/03/2024
html-keyboard-response,6,11288,0.0-3.0,,"<div style=""font-size:100px;"">+</div>",,delaylearn,learning,ITI,kI4gm6nOBxgUXIDGZlHkqGXQsmv2,kI4gm6nOBxgUXIDGZlHkqGXQsmv2,,,,,,,,,,,,,,,,,,,2184.0,,,61598cba874ca07729d42b2a,16:44:47,27/03/2024
html-keyboard-response,7,11957,0.0-4.0-0.0,659.9000000953674,"<div style=""display: flex; flex-direction: column; align-items: center; margin-top: -40px;""><img src=""images/demo_images/pattern_1.png"" style=""width: 234px; height: 230px; margin-top: -50px;""><div style=""display: flex; justify-content: space-between; margin-top: 33px;""><img src=""images/demo_images/choice_trial_2.png"" style=""width: 408px; height: 417px; margin-right: 200px;""><img src=""images/demo_images/choice_trial_1.png"" style=""width: 408px; height: 417px;""></div></div>",j,delaylearn,learning,trial,kI4gm6nOBxgUXIDGZlHkqGXQsmv2,kI4gm6nOBxgUXIDGZlHkqGXQsmv2,3.0,images/demo_images/choice_trial_2.png,images/demo_images/choice_trial_1.png,images/demo_images/pattern_1.png,j,j,3000.0,2.0,1.0,20.0,1.0,2.0,1.0,1.0,1.0,20.0,,,,,,61598cba874ca07729d42b2a,16:44:47,27/03/2024
html-keyboard-response,8,12971,0.0-4.0-1.0,,"<div style=""display: flex; flex-direction: column; align-items: center; margin-top: -40px;""><img src=""images/demo_images/pattern_1.png"" style=""width: 234px; height: 230px; margin-top: -50px;""><div style=""display: flex; justify-content: space-between; margin-top: 33px;""><img src=""images/demo_images/choice_trial_1.png"" style=""width: 408px; height: 417px; margin-left:608px;""></div></div>",,delaylearn,learning,display_response,kI4gm6nOBxgUXIDGZlHkqGXQsmv2,kI4gm6nOBxgUXIDGZlHkqGXQsmv2,,,,,,,,,,,,,,,,,chosen stimuli: images/demo_images/choice_trial_1.png,,,,,61598cba874ca07729d42b2a,16:44:47,27/03/2024
html-keyboard-response,9,15985,0.0-4.0-2.0,,,,delaylearn,learning,feedback_duration_window,kI4gm6nOBxgUXIDGZlHkqGXQsmv2,kI4gm6nOBxgUXIDGZlHkqGXQsmv2,,,,,,,,,,,,,,,,,,3000.0,,,,61598cba874ca07729d42b2a,16:44:47,27/03/2024
html-keyboard-response,10,17497,0.0-4.0-3.0,,<div style='margin:auto;width: auto; font-size: 150%'><span style='font-weight: bold; font-size: 100px; color: green;'>+10 points!</span><br><br></div>,,delaylearn,learning,feedback_image_window,kI4gm6nOBxgUXIDGZlHkqGXQsmv2,kI4gm6nOBxgUXIDGZlHkqGXQsmv2,,,,,,,,,,,,,,,,,,,,,,61598cba874ca07729d42b2a,16:44:47,27/03/2024
html-keyboard-response,11,19966,0.0-5.0,,"<div style=""font-size:100px;"">+</div>",,delaylearn,learning,ITI,kI4gm6nOBxgUXIDGZlHkqGXQsmv2,kI4gm6nOBxgUXIDGZlHkqGXQsmv2,,,,,,,,,,,,,,,,,,,2456.0,,,61598cba874ca07729d42b2a,16:44:47,27/03/2024
html-keyboard-response,12,21592,0.0-6.0-0.0,1621.1000001430511,"<div style=""display: flex; flex-direction: column; align-items: center; margin-top: -40px;""><img src=""images/demo_images/pattern_1.png"" style=""width: 234px; height: 230px; margin-top: -50px;""><div style=""display: flex; justify-content: space-between; margin-top: 33px;""><img src=""images/demo_images/choice_trial_1.png"" style=""width: 408px; height: 417px; margin-right: 200px;""><img src=""images/demo_images/choice_trial_2.png"" style=""width: 408px; height: 417px;""></div></div>",f,delaylearn,learning,trial,kI4gm6nOBxgUXIDGZlHkqGXQsmv2,kI4gm6nOBxgUXIDGZlHkqGXQsmv2,3.0,images/demo_images/choice_trial_1.png,images/demo_images/choice_trial_2.png,images/demo_images/pattern_1.png,j,f,3000.0,1.0,2.0,20.0,0.0,3.0,1.0,0.0,1.0,20.0,,,,,,61598cba874ca07729d42b2a,16:44:47,27/03/2024
html-keyboard-response,13,22600,0.0-6.0-1.0,,"<div style=""display: flex; flex-direction: column; align-items: center; margin-top: -40px;""><img src=""images/demo_images/pattern_1.png"" style=""width: 234px; height: 230px; margin-top: -50px;""><div style=""display: flex; justify-content: space-between; margin-top: 33px;""><img src=""images/demo_images/choice_trial_1.png"" style=""width: 408px; height: 417px; margin-right: 608px;""></div></div>",,delaylearn,learning,display_response,kI4gm6nOBxgUXIDGZlHkqGXQsmv2,kI4gm6nOBxgUXIDGZlHkqGXQsmv2,,,,,,,,,,,,,,,,,chosen stimuli: images/demo_images/choice_trial_1.png,,,,,61598cba874ca07729d42b2a,16:44:47,27/03/2024
html-keyboard-response,14,25612,0.0-6.0-2.0,,,,delaylearn,learning,feedback_duration_window,kI4gm6nOBxgUXIDGZlHkqGXQsmv2,kI4gm6nOBxgUXIDGZlHkqGXQsmv2,,,,,,,,,,,,,,,,,,3000.0,,,,61598cba874ca07729d42b2a,16:44:47,27/03/2024
html-keyboard-response,15,27123,0.0-6.0-3.0,,<div style='margin:auto;width: auto; font-size: 150%'><span style='font-weight: bold; font-size: 100px; color: red;'>0 points!</span><br><br></div>,,delaylearn,learning,feedback_image_window,kI4gm6nOBxgUXIDGZlHkqGXQsmv2,kI4gm6nOBxgUXIDGZlHkqGXQsmv2,,,,,,,,,,,,,,,,,,,,,,61598cba874ca07729d42b2a,16:44:47,27/03/2024
html-keyboard-response,16,29401,0.0-7.0,,"<div style=""font-size:100px;"">+</div>",,delaylearn,learning,ITI,kI4gm6nOBxgUXIDGZlHkqGXQsmv2,kI4gm6nOBxgUXIDGZlHkqGXQsmv2,,,,,,,,,,,,,,,,,,,2274.0,,,61598cba874ca07729d42b2a,16:44:47,27/03/2024
html-keyboard-response,17,30928,0.0-8.0-0.0,1521.2999999523163,"<div style=""display: flex; flex-direction: column; align-items: center; margin-top: -40px;""><img src=""images/demo_images/pattern_1.png"" style=""width: 234px; height: 230px; margin-top: -50px;""><div style=""display: flex; justify-content: space-between; margin-top: 33px;""><img src=""images/demo_images/choice_trial_1.png"" style=""width: 408px; height: 417px; margin-right: 200px;""><img src=""images/demo_images/choice_trial_2.png"" style=""width: 408px; height: 417px;""></div></div>",j,delaylearn,learning,trial,kI4gm6nOBxgUXIDGZlHkqGXQsmv2,kI4gm6nOBxgUXIDGZlHkqGXQsmv2,3.0,images/demo_images/choice_trial_1.png,images/demo_images/choice_trial_2.png,images/demo_images/pattern_1.png,f,f,3000.0,1.0,2.0,20.0,0.0,4.0,0.0,0.0,2.0,20.0,,,,,,61598cba874ca07729d42b2a,16:44:47,27/03/2024
html-keyboard-response,18,31933,0.0-8.0-1.0,,"<div style=""display: flex; flex-direction: column; align-items: center; margin-top: -40px;""><img src=""images/demo_images/pattern_1.png"" style=""width: 234px; height: 230px; margin-top: -50px;""><div style=""display: flex; justify-content: space-between; margin-top: 33px;""><img src=""images/demo_images/choice_trial_2.png"" style=""width: 408px; height: 417px; margin-left:608px;""></div></div>",,delaylearn,learning,display_response,kI4gm6nOBxgUXIDGZlHkqGXQsmv2,kI4gm6nOBxgUXIDGZlHkqGXQsmv2,,,,,,,,,,,,,,,,,chosen stimuli: images/demo_images/choice_trial_2.png,,,,,61598cba874ca07729d42b2a,16:44:47,27/03/2024
html-keyboard-response,19,34947,0.0-8.0-2.0,,,,delaylearn,learning,feedback_duration_window,kI4gm6nOBxgUXIDGZlHkqGXQsmv2,kI4gm6nOBxgUXIDGZlHkqGXQsmv2,,,,,,,,,,,,,,,,,,3000.0,,,,61598cba874ca07729d42b2a,16:44:47,27/03/2024
html-keyboard-response,20,36453,0.0-8.0-3.0,,<div style='margin:auto;width: auto; font-size: 150%'><span style='font-weight: bold; font-size: 100px; color: red;'>0 points!</span><br><br></div>,,delaylearn,learning,feedback_image_window,kI4gm6nOBxgUXIDGZlHkqGXQsmv2,kI4gm6nOBxgUXIDGZlHkqGXQsmv2,,,,,,,,,,,,,,,,,,,,,,61598cba874ca07729d42b2a,16:44:47,27/03/2024
html-keyboard-response,21,36966,0.0-9.0-0.0,,,,,,mood_trial_fixation,kI4gm6nOBxgUXIDGZlHkqGXQsmv2,,,,,,,,,,,,,,,,,,,,,,,61598cba874ca07729d42b2a,16:44:47,27/03/2024
lmdlab-html-vas-response,22,41234,0.0-9.0-1.0,3216.0,How happy are you right now?,0.5196759259259259,delaylearn,learning,mood_trial,kI4gm6nOBxgUXIDGZlHkqGXQsmv2,kI4gm6nOBxgUXIDGZlHkqGXQsmv2,,,,,,,,,,,,,,,,,,,,"['Very unhappy', 'Very happy']",,61598cba874ca07729d42b2a,16:44:47,27/03/2024
html-keyboard-response,23,43248,0.0-10.0,,"<div style=""font-size:100px;"">+</div>",,delaylearn,learning,ITI,kI4gm6nOBxgUXIDGZlHkqGXQsmv2,kI4gm6nOBxgUXIDGZlHkqGXQsmv2,,,,,,,,,,,,,,,,,,,2001.0,,,61598cba874ca07729d42b2a,16:44:47,27/03/2024
html-keyboard-response,24,46162,0.0-11.0-0.0,2908.5999999046326,"<div style=""display: flex; flex-direction: column; align-items: center; margin-top: -40px;""><img src=""images/demo_images/pattern_1.png"" style=""width: 234px; height: 230px; margin-top: -50px;""><div style=""display: flex; justify-content: space-between; margin-top: 33px;""><img src=""images/demo_images/choice_trial_2.png"" style=""width: 408px; height: 417px; margin-right: 200px;""><img src=""images/demo_images/choice_trial_1.png"" style=""width: 408px; height: 417px;""></div></div>",j,delaylearn,learning,trial,kI4gm6nOBxgUXIDGZlHkqGXQsmv2,kI4gm6nOBxgUXIDGZlHkqGXQsmv2,3.0,images/demo_images/choice_trial_2.png,images/demo_images/choice_trial_1.png,images/demo_images/pattern_1.png,j,j,3000.0,2.0,1.0,20.0,1.0,5.0,1.0,1.0,1.0,30.0,,,,,,61598cba874ca07729d42b2a,16:44:47,27/03/2024
html-keyboard-response,25,47171,0.0-11.0-1.0,,"<div style=""display: flex; flex-direction: column; align-items: center; margin-top: -40px;""><img src=""images/demo_images/pattern_1.png"" style=""width: 234px; height: 230px; margin-top: -50px;""><div style=""display: flex; justify-content: space-between; margin-top: 33px;""><img src=""images/demo_images/choice_trial_1.png"" style=""width: 408px; height: 417px; margin-left:608px;""></div></div>",,delaylearn,learning,display_response,kI4gm6nOBxgUXIDGZlHkqGXQsmv2,kI4gm6nOBxgUXIDGZlHkqGXQsmv2,,,,,,,,,,,,,,,,,chosen stimuli: images/demo_images/choice_trial_1.png,,,,,61598cba874ca07729d42b2a,16:44:47,27/03/2024
html-keyboard-response,26,50187,0.0-11.0-2.0,,,,delaylearn,learning,feedback_duration_window,kI4gm6nOBxgUXIDGZlHkqGXQsmv2,kI4gm6nOBxgUXIDGZlHkqGXQsmv2,,,,,,,,,,,,,,,,,,3000.0,,,,61598cba874ca07729d42b2a,16:44:47,27/03/2024
html-keyboard-response,27,51699,0.0-11.0-3.0,,<div style='margin:auto;width: auto; font-size: 150%'><span style='font-weight: bold; font-size: 100px; color: green;'>+10 points!</span><br><br></div>,,delaylearn,learning,feedback_image_window,kI4gm6nOBxgUXIDGZlHkqGXQsmv2,kI4gm6nOBxgUXIDGZlHkqGXQsmv2,,,,,,,,,,,,,,,,,,,,,,61598cba874ca07729d42b2a,16:44:47,27/03/2024
html-keyboard-response,28,53956,0.0-12.0,,"<div style=""font-size:100px;"">+</div>",,delaylearn,learning,ITI,kI4gm6nOBxgUXIDGZlHkqGXQsmv2,kI4gm6nOBxgUXIDGZlHkqGXQsmv2,,,,,,,,,,,,,,,,,,,2240.0,,,61598cba874ca07729d42b2a,16:44:47,27/03/2024
html-keyboard-response,29,55341,0.0-13.0-0.0,1377.0,"<div style=""display: flex; flex-direction: column; align-items: center; margin-top: -40px;""><img src=""images/demo_images/pattern_1.png"" style=""width: 234px; height: 230px; margin-top: -50px;""><div style=""display: flex; justify-content: space-between; margin-top: 33px;""><img src=""images/demo_images/choice_trial_1.png"" style=""width: 408px; height: 417px; margin-right: 200px;""><img src=""images/demo_images/choice_trial_2.png"" style=""width: 408px; height: 417px;""></div></div>",f,delaylearn,learning,trial,kI4gm6nOBxgUXIDGZlHkqGXQsmv2,kI4gm6nOBxgUXIDGZlHkqGXQsmv2,3.0,images/demo_images/choice_trial_1.png,images/demo_images/choice_trial_2.png,images/demo_images/pattern_1.png,f,f,3000.0,1.0,2.0,20.0,0.0,6.0,1.0,1.0,1.0,40.0,,,,,,61598cba874ca07729d42b2a,16:44:47,27/03/2024
html-keyboard-response,30,56346,0.0-13.0-1.0,,"<div style=""display: flex; flex-direction: column; align-items: center; margin-top: -40px;""><img src=""images/demo_images/pattern_1.png"" style=""width: 234px; height: 230px; margin-top: -50px;""><div style=""display: flex; justify-content: space-between; margin-top: 33px;""><img src=""images/demo_images/choice_trial_1.png"" style=""width: 408px; height: 417px; margin-right: 608px;""></div></div>",,delaylearn,learning,display_response,kI4gm6nOBxgUXIDGZlHkqGXQsmv2,kI4gm6nOBxgUXIDGZlHkqGXQsmv2,,,,,,,,,,,,,,,,,chosen stimuli: images/demo_images/choice_trial_1.png,,,,,61598cba874ca07729d42b2a,16:44:47,27/03/2024
html-keyboard-response,31,59352,0.0-13.0-2.0,,,,delaylearn,learning,feedback_duration_window,kI4gm6nOBxgUXIDGZlHkqGXQsmv2,kI4gm6nOBxgUXIDGZlHkqGXQsmv2,,,,,,,,,,,,,,,,,,3000.0,,,,61598cba874ca07729d42b2a,16:44:47,27/03/2024
html-keyboard-response,32,60861,0.0-13.0-3.0,,<div style='margin:auto;width: auto; font-size: 150%'><span style='font-weight: bold; font-size: 100px; color: green;'>+10 points!</span><br><br></div>,,delaylearn,learning,feedback_image_window,kI4gm6nOBxgUXIDGZlHkqGXQsmv2,kI4gm6nOBxgUXIDGZlHkqGXQsmv2,,,,,,,,,,,,,,,,,,,,,,61598cba874ca07729d42b2a,16:44:47,27/03/2024
html-keyboard-response,33,62446,0.0-14.0,,"<div style=""font-size:100px;"">+</div>",,delaylearn,learning,ITI,kI4gm6nOBxgUXIDGZlHkqGXQsmv2,kI4gm6nOBxgUXIDGZlHkqGXQsmv2,,,,,,,,,,,,,,,,,,,1568.0,,,61598cba874ca07729d42b2a,16:44:47,27/03/2024
html-keyboard-response,34,63515,0.0-15.0-0.0,1064.0,"<div style=""display: flex; flex-direction: column; align-items: center; margin-top: -40px;""><img src=""images/demo_images/pattern_1.png"" style=""width: 234px; height: 230px; margin-top: -50px;""><div style=""display: flex; justify-content: space-between; margin-top: 33px;""><img src=""images/demo_images/choice_trial_2.png"" style=""width: 408px; height: 417px; margin-right: 200px;""><img src=""images/demo_images/choice_trial_1.png"" style=""width: 408px; height: 417px;""></div></div>",j,delaylearn,learning,trial,kI4gm6nOBxgUXIDGZlHkqGXQsmv2,kI4gm6nOBxgUXIDGZlHkqGXQsmv2,3.0,images/demo_images/choice_trial_2.png,images/demo_images/choice_trial_1.png,images/demo_images/pattern_1.png,j,j,3000.0,2.0,1.0,20.0,1.0,7.0,1.0,1.0,1.0,50.0,,,,,,61598cba874ca07729d42b2a,16:44:47,27/03/2024
html-keyboard-response,35,64533,0.0-15.0-1.0,,"<div style=""display: flex; flex-direction: column; align-items: center; margin-top: -40px;""><img src=""images/demo_images/pattern_1.png"" style=""width: 234px; height: 230px; margin-top: -50px;""><div style=""display: flex; justify-content: space-between; margin-top: 33px;""><img src=""images/demo_images/choice_trial_1.png"" style=""width: 408px; height: 417px; margin-left:608px;""></div></div>",,delaylearn,learning,display_response,kI4gm6nOBxgUXIDGZlHkqGXQsmv2,kI4gm6nOBxgUXIDGZlHkqGXQsmv2,,,,,,,,,,,,,,,,,chosen stimuli: images/demo_images/choice_trial_1.png,,,,,61598cba874ca07729d42b2a,16:44:47,27/03/2024
html-keyboard-response,36,67539,0.0-15.0-2.0,,,,delaylearn,learning,feedback_duration_window,kI4gm6nOBxgUXIDGZlHkqGXQsmv2,kI4gm6nOBxgUXIDGZlHkqGXQsmv2,,,,,,,,,,,,,,,,,,3000.0,,,,61598cba874ca07729d42b2a,16:44:47,27/03/2024
html-keyboard-response,37,69048,0.0-15.0-3.0,,<div style='margin:auto;width: auto; font-size: 150%'><span style='font-weight: bold; font-size: 100px; color: green;'>+10 points!</span><br><br></div>,,delaylearn,learning,feedback_image_window,kI4gm6nOBxgUXIDGZlHkqGXQsmv2,kI4gm6nOBxgUXIDGZlHkqGXQsmv2,,,,,,,,,,,,,,,,,,,,,,61598cba874ca07729d42b2a,16:44:47,27/03/2024
html-keyboard-response,38,71198,0.0-16.0,,"<div style=""font-size:100px;"">+</div>",,delaylearn,learning,ITI,kI4gm6nOBxgUXIDGZlHkqGXQsmv2,kI4gm6nOBxgUXIDGZlHkqGXQsmv2,,,,,,,,,,,,,,,,,,,2138.0,,,61598cba874ca07729d42b2a,16:44:47,27/03/2024
html-keyboard-response,39,73401,0.0-17.0-0.0,2198.2999999523163,"<div style=""display: flex; flex-direction: column; align-items: center; margin-top: -40px;""><img src=""images/demo_images/pattern_1.png"" style=""width: 234px; height: 230px; margin-top: -50px;""><div style=""display: flex; justify-content: space-between; margin-top: 33px;""><img src=""images/demo_images/choice_trial_1.png"" style=""width: 408px; height: 417px; margin-right: 200px;""><img src=""images/demo_images/choice_trial_2.png"" style=""width: 408px; height: 417px;""></div></div>",f,delaylearn,learning,trial,kI4gm6nOBxgUXIDGZlHkqGXQsmv2,kI4gm6nOBxgUXIDGZlHkqGXQsmv2,3.0,images/demo_images/choice_trial_1.png,images/demo_images/choice_trial_2.png,images/demo_images/pattern_1.png,f,f,3000.0,1.0,2.0,20.0,0.0,8.0,1.0,1.0,1.0,60.0,,,,,,61598cba874ca07729d42b2a,16:44:47,27/03/2024
html-keyboard-response,40,74409,0.0-17.0-1.0,,"<div style=""display: flex; flex-direction: column; align-items: center; margin-top: -40px;""><img src=""images/demo_images/pattern_1.png"" style=""width: 234px; height: 230px; margin-top: -50px;""><div style=""display: flex; justify-content: space-between; margin-top: 33px;""><img src=""images/demo_images/choice_trial_1.png"" style=""width: 408px; height: 417px; margin-right: 608px;""></div></div>",,delaylearn,learning,display_response,kI4gm6nOBxgUXIDGZlHkqGXQsmv2,kI4gm6nOBxgUXIDGZlHkqGXQsmv2,,,,,,,,,,,,,,,,,chosen stimuli: images/demo_images/choice_trial_1.png,,,,,61598cba874ca07729d42b2a,16:44:47,27/03/2024
html-keyboard-response,41,77417,0.0-17.0-2.0,,,,delaylearn,learning,feedback_duration_window,kI4gm6nOBxgUXIDGZlHkqGXQsmv2,kI4gm6nOBxgUXIDGZlHkqGXQsmv2,,,,,,,,,,,,,,,,,,3000.0,,,,61598cba874ca07729d42b2a,16:44:47,27/03/2024
html-keyboard-response,42,78929,0.0-17.0-3.0,,<div style='margin:auto;width: auto; font-size: 150%'><span style='font-weight: bold; font-size: 100px; color: green;'>+10 points!</span><br><br></div>,,delaylearn,learning,feedback_image_window,kI4gm6nOBxgUXIDGZlHkqGXQsmv2,kI4gm6nOBxgUXIDGZlHkqGXQsmv2,,,,,,,,,,,,,,,,,,,,,,61598cba874ca07729d42b2a,16:44:47,27/03/2024
html-button-response,43,82433,0.0-18.0,3501.2999999523163,"
  <div style=""display: flex; align-items: center; justify-content: center; height: 80vh;"">
  <div>
          <img src=""images/inst_demo_finish.png"" style=""width: 80vw; height:auto;"">
          <br><br>
      </div>
      <br><br>
  </div>",0,,,,kI4gm6nOBxgUXIDGZlHkqGXQsmv2,,,,,,,,,,,,,,,,,,,,,,,61598cba874ca07729d42b2a,16:44:47,27/03/2024
html-keyboard-response,44,88133,0.0-19.0,5699.099999904633,"
  <div style=""display: flex; align-items: center; justify-content: center; height: 80vh;"">
  <div>
          <img src=""images/inst_6.png"" style=""width: 80vw; height:auto;"">
          <br><br>
      </div>
      <br><br>
  </div>",j,,,,kI4gm6nOBxgUXIDGZlHkqGXQsmv2,,,,,,,,,,,,,,,,,,,,,,,61598cba874ca07729d42b2a,16:44:47,27/03/2024
html-keyboard-response,45,91142,0.0-20.0,,"<div style=""font-size:100px;"">+</div>",,delaylearn,learning,pre_fixation,kI4gm6nOBxgUXIDGZlHkqGXQsmv2,,,,,,,,,,,,,,,,,,,,,,,61598cba874ca07729d42b2a,16:44:47,27/03/2024
html-keyboard-response,46,92686,0.0-21.0,,"<div style=""font-size:100px;"">+</div>",,delaylearn,learning,ITI,kI4gm6nOBxgUXIDGZlHkqGXQsmv2,kI4gm6nOBxgUXIDGZlHkqGXQsmv2,,,,,,,,,,,,,,,,,,,1528.0,,,61598cba874ca07729d42b2a,16:44:47,27/03/2024
html-keyboard-response,47,95243,0.0-22.0-0.0,2553.7000000476837,"<div style=""display: flex; flex-direction: column; align-items: center; margin-top: -40px;""><img src=""images/pattern_3.png"" style=""width: 234px; height: 230px; margin-top: -50px;""><div style=""display: flex; justify-content: space-between; margin-top: 33px;""><img src=""images/choice_trial_13.png"" style=""width: 408px; height: 417px; margin-right: 200px;""><img src=""images/choice_trial_10.png"" style=""width: 408px; height: 417px;""></div></div>",f,delaylearn,learning,trial,kI4gm6nOBxgUXIDGZlHkqGXQsmv2,kI4gm6nOBxgUXIDGZlHkqGXQsmv2,3.0,images/choice_trial_13.png,images/choice_trial_10.png,images/pattern_3.png,f,f,7000.0,13.0,10.0,2.0,0.0,9.0,1.0,1.0,13.0,70.0,,,,,,61598cba874ca07729d42b2a,16:44:47,27/03/2024
html-keyboard-response,48,96254,0.0-22.0-1.0,,"<div style=""display: flex; flex-direction: column; align-items: center; margin-top: -40px;""><img src=""images/pattern_3.png"" style=""width: 234px; height: 230px; margin-top: -50px;""><div style=""display: flex; justify-content: space-between; margin-top: 33px;""><img src=""images/choice_trial_13.png"" style=""width: 408px; height: 417px; margin-right: 608px;""></div></div>",,delaylearn,learning,display_response,kI4gm6nOBxgUXIDGZlHkqGXQsmv2,kI4gm6nOBxgUXIDGZlHkqGXQsmv2,,,,,,,,,,,,,,,,,chosen stimuli: images/choice_trial_13.png,,,,,61598cba874ca07729d42b2a,16:44:47,27/03/2024
html-keyboard-response,49,103267,0.0-22.0-2.0,,,,delaylearn,learning,feedback_duration_window,kI4gm6nOBxgUXIDGZlHkqGXQsmv2,kI4gm6nOBxgUXIDGZlHkqGXQsmv2,,,,,,,,,,,,,,,,,,7000.0,,,,61598cba874ca07729d42b2a,16:44:47,27/03/2024
html-keyboard-response,50,104780,0.0-22.0-3.0,,<div style='margin:auto;width: auto; font-size: 150%'><span style='font-weight: bold; font-size: 100px; color: green;'>+10 points!</span><br><br></div>,,delaylearn,learning,feedback_image_window,kI4gm6nOBxgUXIDGZlHkqGXQsmv2,kI4gm6nOBxgUXIDGZlHkqGXQsmv2,,,,,,,,,,,,,,,,,,,,,,61598cba874ca07729d42b2a,16:44:47,27/03/2024
html-keyboard-response,51,106395,0.0-23.0,,"<div style=""font-size:100px;"">+</div>",,delaylearn,learning,ITI,kI4gm6nOBxgUXIDGZlHkqGXQsmv2,kI4gm6nOBxgUXIDGZlHkqGXQsmv2,,,,,,,,,,,,,,,,,,,1611.0,,,61598cba874ca07729d42b2a,16:44:47,27/03/2024
html-keyboard-response,52,109402,0.0-24.0-0.0,,"<div style=""display: flex; flex-direction: column; align-items: center; margin-top: -40px;""><img src=""images/pattern_7.png"" style=""width: 234px; height: 230px; margin-top: -50px;""><div style=""display: flex; justify-content: space-between; margin-top: 33px;""><img src=""images/choice_trial_12.png"" style=""width: 408px; height: 417px; margin-right: 200px;""><img src=""images/choice_trial_6.png"" style=""width: 408px; height: 417px;""></div></div>",,delaylearn,learning,trial,kI4gm6nOBxgUXIDGZlHkqGXQsmv2,kI4gm6nOBxgUXIDGZlHkqGXQsmv2,3.0,images/choice_trial_12.png,images/choice_trial_6.png,images/pattern_7.png,j,j,750.0,12.0,6.0,6.0,1.0,10.0,0.0,0.0,0.0,70.0,,,,,,61598cba874ca07729d42b2a,16:44:47,27/03/2024
html-keyboard-response,53,110414,0.0-24.0-1.0,,<div style='font-weight: bold; font-size: 75px; color: red;'>Missed Trial <br><br><br><br> Please respond faster</div>,,delaylearn,learning,display_response,kI4gm6nOBxgUXIDGZlHkqGXQsmv2,kI4gm6nOBxgUXIDGZlHkqGXQsmv2,,,,,,,,,,,,,,,,,Missed trial,,,,,61598cba874ca07729d42b2a,16:44:47,27/03/2024
html-keyboard-response,54,110423,0.0-24.0-2.0,,,,delaylearn,learning,feedback_duration_window,kI4gm6nOBxgUXIDGZlHkqGXQsmv2,kI4gm6nOBxgUXIDGZlHkqGXQsmv2,,,,,,,,,,,,,,,,,,0.0,,,,61598cba874ca07729d42b2a,16:44:47,27/03/2024
html-keyboard-response,55,110430,0.0-24.0-3.0,,,,delaylearn,learning,feedback_image_window,kI4gm6nOBxgUXIDGZlHkqGXQsmv2,kI4gm6nOBxgUXIDGZlHkqGXQsmv2,,,,,,,,,,,,,,,,,,,,,,61598cba874ca07729d42b2a,16:44:47,27/03/2024
html-keyboard-response,56,111986,0.0-25.0,,"<div style=""font-size:100px;"">+</div>",,delaylearn,learning,ITI,kI4gm6nOBxgUXIDGZlHkqGXQsmv2,kI4gm6nOBxgUXIDGZlHkqGXQsmv2,,,,,,,,,,,,,,,,,,,1540.0,,,61598cba874ca07729d42b2a,16:44:47,27/03/2024
html-keyboard-response,57,112970,0.0-26.0-0.0,981.2999999523163,"<div style=""display: flex; flex-direction: column; align-items: center; margin-top: -40px;""><img src=""images/pattern_4.png"" style=""width: 234px; height: 230px; margin-top: -50px;""><div style=""display: flex; justify-content: space-between; margin-top: 33px;""><img src=""images/choice_trial_15.png"" style=""width: 408px; height: 417px; margin-right: 200px;""><img src=""images/choice_trial_9.png"" style=""width: 408px; height: 417px;""></div></div>",f,delaylearn,learning,trial,kI4gm6nOBxgUXIDGZlHkqGXQsmv2,kI4gm6nOBxgUXIDGZlHkqGXQsmv2,3.0,images/choice_trial_15.png,images/choice_trial_9.png,images/pattern_4.png,f,f,7000.0,15.0,9.0,3.0,0.0,11.0,1.0,1.0,15.0,80.0,,,,,,61598cba874ca07729d42b2a,16:44:47,27/03/2024
html-keyboard-response,58,113976,0.0-26.0-1.0,,"<div style=""display: flex; flex-direction: column; align-items: center; margin-top: -40px;""><img src=""images/pattern_4.png"" style=""width: 234px; height: 230px; margin-top: -50px;""><div style=""display: flex; justify-content: space-between; margin-top: 33px;""><img src=""images/choice_trial_15.png"" style=""width: 408px; height: 417px; margin-right: 608px;""></div></div>",,delaylearn,learning,display_response,kI4gm6nOBxgUXIDGZlHkqGXQsmv2,kI4gm6nOBxgUXIDGZlHkqGXQsmv2,,,,,,,,,,,,,,,,,chosen stimuli: images/choice_trial_15.png,,,,,61598cba874ca07729d42b2a,16:44:47,27/03/2024
html-keyboard-response,59,120985,0.0-26.0-2.0,,,,delaylearn,learning,feedback_duration_window,kI4gm6nOBxgUXIDGZlHkqGXQsmv2,kI4gm6nOBxgUXIDGZlHkqGXQsmv2,,,,,,,,,,,,,,,,,,7000.0,,,,61598cba874ca07729d42b2a,16:44:47,27/03/2024
html-keyboard-response,60,122494,0.0-26.0-3.0,,<div style='margin:auto;width: auto; font-size: 150%'><span style='font-weight: bold; font-size: 100px; color: green;'>+10 points!</span><br><br></div>,,delaylearn,learning,feedback_image_window,kI4gm6nOBxgUXIDGZlHkqGXQsmv2,kI4gm6nOBxgUXIDGZlHkqGXQsmv2,,,,,,,,,,,,,,,,,,,,,,61598cba874ca07729d42b2a,16:44:47,27/03/2024
html-keyboard-response,61,124967,0.0-27.0,,"<div style=""font-size:100px;"">+</div>",,delaylearn,learning,ITI,kI4gm6nOBxgUXIDGZlHkqGXQsmv2,kI4gm6nOBxgUXIDGZlHkqGXQsmv2,,,,,,,,,,,,,,,,,,,2467.0,,,61598cba874ca07729d42b2a,16:44:47,27/03/2024
html-keyboard-response,62,126210,0.0-28.0-0.0,1236.5999999046326,"<div style=""display: flex; flex-direction: column; align-items: center; margin-top: -40px;""><img src=""images/pattern_5.png"" style=""width: 234px; height: 230px; margin-top: -50px;""><div style=""display: flex; justify-content: space-between; margin-top: 33px;""><img src=""images/choice_trial_2.png"" style=""width: 408px; height: 417px; margin-right: 200px;""><img src=""images/choice_trial_11.png"" style=""width: 408px; height: 417px;""></div></div>",f,delaylearn,learning,trial,kI4gm6nOBxgUXIDGZlHkqGXQsmv2,kI4gm6nOBxgUXIDGZlHkqGXQsmv2,3.0,images/choice_trial_2.png,images/choice_trial_11.png,images/pattern_5.png,j,j,750.0,2.0,11.0,4.0,1.0,12.0,0.0,0.0,2.0,80.0,,,,,,61598cba874ca07729d42b2a,16:44:47,27/03/2024
html-keyboard-response,63,127215,0.0-28.0-1.0,,"<div style=""display: flex; flex-direction: column; align-items: center; margin-top: -40px;""><img src=""images/pattern_5.png"" style=""width: 234px; height: 230px; margin-top: -50px;""><div style=""display: flex; justify-content: space-between; margin-top: 33px;""><img src=""images/choice_trial_2.png"" style=""width: 408px; height: 417px; margin-right: 608px;""></div></div>",,delaylearn,learning,display_response,kI4gm6nOBxgUXIDGZlHkqGXQsmv2,kI4gm6nOBxgUXIDGZlHkqGXQsmv2,,,,,,,,,,,,,,,,,chosen stimuli: images/choice_trial_2.png,,,,,61598cba874ca07729d42b2a,16:44:47,27/03/2024
html-keyboard-response,64,127970,0.0-28.0-2.0,,,,delaylearn,learning,feedback_duration_window,kI4gm6nOBxgUXIDGZlHkqGXQsmv2,kI4gm6nOBxgUXIDGZlHkqGXQsmv2,,,,,,,,,,,,,,,,,,750.0,,,,61598cba874ca07729d42b2a,16:44:47,27/03/2024
html-keyboard-response,65,129483,0.0-28.0-3.0,,<div style='margin:auto;width: auto; font-size: 150%'><span style='font-weight: bold; font-size: 100px; color: red;'>0 points!</span><br><br></div>,,delaylearn,learning,feedback_image_window,kI4gm6nOBxgUXIDGZlHkqGXQsmv2,kI4gm6nOBxgUXIDGZlHkqGXQsmv2,,,,,,,,,,,,,,,,,,,,,,61598cba874ca07729d42b2a,16:44:47,27/03/2024
html-keyboard-response,66,131219,0.0-29.0,,"<div style=""font-size:100px;"">+</div>",,delaylearn,learning,ITI,kI4gm6nOBxgUXIDGZlHkqGXQsmv2,kI4gm6nOBxgUXIDGZlHkqGXQsmv2,,,,,,,,,,,,,,,,,,,1729.0,,,61598cba874ca07729d42b2a,16:44:47,27/03/2024
html-keyboard-response,67,132729,0.0-30.0-0.0,1504.7000000476837,"<div style=""display: flex; flex-direction: column; align-items: center; margin-top: -40px;""><img src=""images/pattern_6.png"" style=""width: 234px; height: 230px; margin-top: -50px;""><div style=""display: flex; justify-content: space-between; margin-top: 33px;""><img src=""images/choice_trial_16.png"" style=""width: 408px; height: 417px; margin-right: 200px;""><img src=""images/choice_trial_3.png"" style=""width: 408px; height: 417px;""></div></div>",j,delaylearn,learning,trial,kI4gm6nOBxgUXIDGZlHkqGXQsmv2,kI4gm6nOBxgUXIDGZlHkqGXQsmv2,3.0,images/choice_trial_16.png,images/choice_trial_3.png,images/pattern_6.png,j,f,750.0,16.0,3.0,5.0,0.0,13.0,0.0,1.0,3.0,90.0,,,,,,61598cba874ca07729d42b2a,16:44:47,27/03/2024
html-keyboard-response,68,133738,0.0-30.0-1.0,,"<div style=""display: flex; flex-direction: column; align-items: center; margin-top: -40px;""><img src=""images/pattern_6.png"" style=""width: 234px; height: 230px; margin-top: -50px;""><div style=""display: flex; justify-content: space-between; margin-top: 33px;""><img src=""images/choice_trial_3.png"" style=""width: 408px; height: 417px; margin-left:608px;""></div></div>",,delaylearn,learning,display_response,kI4gm6nOBxgUXIDGZlHkqGXQsmv2,kI4gm6nOBxgUXIDGZlHkqGXQsmv2,,,,,,,,,,,,,,,,,chosen stimuli: images/choice_trial_3.png,,,,,61598cba874ca07729d42b2a,16:44:47,27/03/2024
html-keyboard-response,69,134491,0.0-30.0-2.0,,,,delaylearn,learning,feedback_duration_window,kI4gm6nOBxgUXIDGZlHkqGXQsmv2,kI4gm6nOBxgUXIDGZlHkqGXQsmv2,,,,,,,,,,,,,,,,,,750.0,,,,61598cba874ca07729d42b2a,16:44:47,27/03/2024
html-keyboard-response,70,135994,0.0-30.0-3.0,,<div style='margin:auto;width: auto; font-size: 150%'><span style='font-weight: bold; font-size: 100px; color: green;'>+10 points!</span><br><br></div>,,delaylearn,learning,feedback_image_window,kI4gm6nOBxgUXIDGZlHkqGXQsmv2,kI4gm6nOBxgUXIDGZlHkqGXQsmv2,,,,,,,,,,,,,,,,,,,,,,61598cba874ca07729d42b2a,16:44:47,27/03/2024
html-keyboard-response,71,136508,0.0-31.0-0.0,,,,,,mood_trial_fixation,kI4gm6nOBxgUXIDGZlHkqGXQsmv2,,,,,,,,,,,,,,,,,,,,,,,61598cba874ca07729d42b2a,16:44:47,27/03/2024
lmdlab-html-vas-response,72,141225,0.0-31.0-1.0,3706.0,How happy are you right now?,0.5,delaylearn,learning,mood_trial,kI4gm6nOBxgUXIDGZlHkqGXQsmv2,kI4gm6nOBxgUXIDGZlHkqGXQsmv2,,,,,,,,,,,,,,,,,,,,"['Very unhappy', 'Very happy']",,61598cba874ca07729d42b2a,16:44:47,27/03/2024
html-keyboard-response,73,143082,0.0-32.0,,"<div style=""font-size:100px;"">+</div>",,delaylearn,learning,ITI,kI4gm6nOBxgUXIDGZlHkqGXQsmv2,kI4gm6nOBxgUXIDGZlHkqGXQsmv2,,,,,,,,,,,,,,,,,,,1852.0,,,61598cba874ca07729d42b2a,16:44:47,27/03/2024
html-keyboard-response,74,144426,0.0-33.0-0.0,1337.0999999046326,"<div style=""display: flex; flex-direction: column; align-items: center; margin-top: -40px;""><img src=""images/pattern_1.png"" style=""width: 234px; height: 230px; margin-top: -50px;""><div style=""display: flex; justify-content: space-between; margin-top: 33px;""><img src=""images/choice_trial_8.png"" style=""width: 408px; height: 417px; margin-right: 200px;""><img src=""images/choice_trial_14.png"" style=""width: 408px; height: 417px;""></div></div>",j,delaylearn,learning,trial,kI4gm6nOBxgUXIDGZlHkqGXQsmv2,kI4gm6nOBxgUXIDGZlHkqGXQsmv2,3.0,images/choice_trial_8.png,images/choice_trial_14.png,images/pattern_1.png,j,j,7000.0,8.0,14.0,1.0,1.0,14.0,1.0,1.0,14.0,100.0,,,,,,61598cba874ca07729d42b2a,16:44:47,27/03/2024
html-keyboard-response,75,145435,0.0-33.0-1.0,,"<div style=""display: flex; flex-direction: column; align-items: center; margin-top: -40px;""><img src=""images/pattern_1.png"" style=""width: 234px; height: 230px; margin-top: -50px;""><div style=""display: flex; justify-content: space-between; margin-top: 33px;""><img src=""images/choice_trial_14.png"" style=""width: 408px; height: 417px; margin-left:608px;""></div></div>",,delaylearn,learning,display_response,kI4gm6nOBxgUXIDGZlHkqGXQsmv2,kI4gm6nOBxgUXIDGZlHkqGXQsmv2,,,,,,,,,,,,,,,,,chosen stimuli: images/choice_trial_14.png,,,,,61598cba874ca07729d42b2a,16:44:47,27/03/2024
html-keyboard-response,76,152446,0.0-33.0-2.0,,,,delaylearn,learning,feedback_duration_window,kI4gm6nOBxgUXIDGZlHkqGXQsmv2,kI4gm6nOBxgUXIDGZlHkqGXQsmv2,,,,,,,,,,,,,,,,,,7000.0,,,,61598cba874ca07729d42b2a,16:44:47,27/03/2024
html-keyboard-response,77,153966,0.0-33.0-3.0,,<div style='margin:auto;width: auto; font-size: 150%'><span style='font-weight: bold; font-size: 100px; color: green;'>+10 points!</span><br><br></div>,,delaylearn,learning,feedback_image_window,kI4gm6nOBxgUXIDGZlHkqGXQsmv2,kI4gm6nOBxgUXIDGZlHkqGXQsmv2,,,,,,,,,,,,,,,,,,,,,,61598cba874ca07729d42b2a,16:44:47,27/03/2024
html-keyboard-response,78,156147,0.0-34.0,,"<div style=""font-size:100px;"">+</div>",,delaylearn,learning,ITI,kI4gm6nOBxgUXIDGZlHkqGXQsmv2,kI4gm6nOBxgUXIDGZlHkqGXQsmv2,,,,,,,,,,,,,,,,,,,2169.0,,,61598cba874ca07729d42b2a,16:44:47,27/03/2024
html-keyboard-response,79,157701,0.0-35.0-0.0,1549.9000000953674,"<div style=""display: flex; flex-direction: column; align-items: center; margin-top: -40px;""><img src=""images/pattern_3.png"" style=""width: 234px; height: 230px; margin-top: -50px;""><div style=""display: flex; justify-content: space-between; margin-top: 33px;""><img src=""images/choice_trial_10.png"" style=""width: 408px; height: 417px; margin-right: 200px;""><img src=""images/choice_trial_13.png"" style=""width: 408px; height: 417px;""></div></div>",j,delaylearn,learning,trial,kI4gm6nOBxgUXIDGZlHkqGXQsmv2,kI4gm6nOBxgUXIDGZlHkqGXQsmv2,3.0,images/choice_trial_10.png,images/choice_trial_13.png,images/pattern_3.png,f,j,7000.0,10.0,13.0,2.0,1.0,15.0,1.0,0.0,13.0,100.0,,,,,,61598cba874ca07729d42b2a,16:44:47,27/03/2024
html-keyboard-response,80,158720,0.0-35.0-1.0,,"<div style=""display: flex; flex-direction: column; align-items: center; margin-top: -40px;""><img src=""images/pattern_3.png"" style=""width: 234px; height: 230px; margin-top: -50px;""><div style=""display: flex; justify-content: space-between; margin-top: 33px;""><img src=""images/choice_trial_13.png"" style=""width: 408px; height: 417px; margin-left:608px;""></div></div>",,delaylearn,learning,display_response,kI4gm6nOBxgUXIDGZlHkqGXQsmv2,kI4gm6nOBxgUXIDGZlHkqGXQsmv2,,,,,,,,,,,,,,,,,chosen stimuli: images/choice_trial_13.png,,,,,61598cba874ca07729d42b2a,16:44:47,27/03/2024
html-keyboard-response,81,165732,0.0-35.0-2.0,,,,delaylearn,learning,feedback_duration_window,kI4gm6nOBxgUXIDGZlHkqGXQsmv2,kI4gm6nOBxgUXIDGZlHkqGXQsmv2,,,,,,,,,,,,,,,,,,7000.0,,,,61598cba874ca07729d42b2a,16:44:47,27/03/2024
html-keyboard-response,82,167243,0.0-35.0-3.0,,<div style='margin:auto;width: auto; font-size: 150%'><span style='font-weight: bold; font-size: 100px; color: red;'>0 points!</span><br><br></div>,,delaylearn,learning,feedback_image_window,kI4gm6nOBxgUXIDGZlHkqGXQsmv2,kI4gm6nOBxgUXIDGZlHkqGXQsmv2,,,,,,,,,,,,,,,,,,,,,,61598cba874ca07729d42b2a,16:44:47,27/03/2024
html-keyboard-response,83,169638,0.0-36.0,,"<div style=""font-size:100px;"">+</div>",,delaylearn,learning,ITI,kI4gm6nOBxgUXIDGZlHkqGXQsmv2,kI4gm6nOBxgUXIDGZlHkqGXQsmv2,,,,,,,,,,,,,,,,,,,2392.0,,,61598cba874ca07729d42b2a,16:44:47,27/03/2024
html-keyboard-response,84,171221,0.0-37.0-0.0,1580.2000000476837,"<div style=""display: flex; flex-direction: column; align-items: center; margin-top: -40px;""><img src=""images/pattern_5.png"" style=""width: 234px; height: 230px; margin-top: -50px;""><div style=""display: flex; justify-content: space-between; margin-top: 33px;""><img src=""images/choice_trial_11.png"" style=""width: 408px; height: 417px; margin-right: 200px;""><img src=""images/choice_trial_2.png"" style=""width: 408px; height: 417px;""></div></div>",f,delaylearn,learning,trial,kI4gm6nOBxgUXIDGZlHkqGXQsmv2,kI4gm6nOBxgUXIDGZlHkqGXQsmv2,3.0,images/choice_trial_11.png,images/choice_trial_2.png,images/pattern_5.png,f,f,750.0,11.0,2.0,4.0,0.0,16.0,1.0,1.0,11.0,110.0,,,,,,61598cba874ca07729d42b2a,16:44:47,27/03/2024
html-keyboard-response,85,172227,0.0-37.0-1.0,,"<div style=""display: flex; flex-direction: column; align-items: center; margin-top: -40px;""><img src=""images/pattern_5.png"" style=""width: 234px; height: 230px; margin-top: -50px;""><div style=""display: flex; justify-content: space-between; margin-top: 33px;""><img src=""images/choice_trial_11.png"" style=""width: 408px; height: 417px; margin-right: 608px;""></div></div>",,delaylearn,learning,display_response,kI4gm6nOBxgUXIDGZlHkqGXQsmv2,kI4gm6nOBxgUXIDGZlHkqGXQsmv2,,,,,,,,,,,,,,,,,chosen stimuli: images/choice_trial_11.png,,,,,61598cba874ca07729d42b2a,16:44:47,27/03/2024
html-keyboard-response,86,172989,0.0-37.0-2.0,,,,delaylearn,learning,feedback_duration_window,kI4gm6nOBxgUXIDGZlHkqGXQsmv2,kI4gm6nOBxgUXIDGZlHkqGXQsmv2,,,,,,,,,,,,,,,,,,750.0,,,,61598cba874ca07729d42b2a,16:44:47,27/03/2024
html-keyboard-response,87,174499,0.0-37.0-3.0,,<div style='margin:auto;width: auto; font-size: 150%'><span style='font-weight: bold; font-size: 100px; color: green;'>+10 points!</span><br><br></div>,,delaylearn,learning,feedback_image_window,kI4gm6nOBxgUXIDGZlHkqGXQsmv2,kI4gm6nOBxgUXIDGZlHkqGXQsmv2,,,,,,,,,,,,,,,,,,,,,,61598cba874ca07729d42b2a,16:44:47,27/03/2024
html-keyboard-response,88,175012,0.0-38.0-0.0,,,,,,mood_trial_fixation,kI4gm6nOBxgUXIDGZlHkqGXQsmv2,,,,,,,,,,,,,,,,,,,,,,,61598cba874ca07729d42b2a,16:44:47,27/03/2024
lmdlab-html-vas-response,89,179161,0.0-38.0-1.0,3131.0,How happy are you right now?,0.5127314814814815,delaylearn,learning,mood_trial,kI4gm6nOBxgUXIDGZlHkqGXQsmv2,kI4gm6nOBxgUXIDGZlHkqGXQsmv2,,,,,,,,,,,,,,,,,,,,"['Very unhappy', 'Very happy']",,61598cba874ca07729d42b2a,16:44:47,27/03/2024
html-keyboard-response,90,181403,0.0-39.0,,"<div style=""font-size:100px;"">+</div>",,delaylearn,learning,ITI,kI4gm6nOBxgUXIDGZlHkqGXQsmv2,kI4gm6nOBxgUXIDGZlHkqGXQsmv2,,,,,,,,,,,,,,,,,,,2226.0,,,61598cba874ca07729d42b2a,16:44:47,27/03/2024
html-keyboard-response,91,182591,0.0-40.0-0.0,1183.0,"<div style=""display: flex; flex-direction: column; align-items: center; margin-top: -40px;""><img src=""images/pattern_6.png"" style=""width: 234px; height: 230px; margin-top: -50px;""><div style=""display: flex; justify-content: space-between; margin-top: 33px;""><img src=""images/choice_trial_16.png"" style=""width: 408px; height: 417px; margin-right: 200px;""><img src=""images/choice_trial_3.png"" style=""width: 408px; height: 417px;""></div></div>",j,delaylearn,learning,trial,kI4gm6nOBxgUXIDGZlHkqGXQsmv2,kI4gm6nOBxgUXIDGZlHkqGXQsmv2,3.0,images/choice_trial_16.png,images/choice_trial_3.png,images/pattern_6.png,f,f,750.0,16.0,3.0,5.0,0.0,17.0,0.0,0.0,3.0,110.0,,,,,,61598cba874ca07729d42b2a,16:44:47,27/03/2024
html-keyboard-response,92,183600,0.0-40.0-1.0,,"<div style=""display: flex; flex-direction: column; align-items: center; margin-top: -40px;""><img src=""images/pattern_6.png"" style=""width: 234px; height: 230px; margin-top: -50px;""><div style=""display: flex; justify-content: space-between; margin-top: 33px;""><img src=""images/choice_trial_3.png"" style=""width: 408px; height: 417px; margin-left:608px;""></div></div>",,delaylearn,learning,display_response,kI4gm6nOBxgUXIDGZlHkqGXQsmv2,kI4gm6nOBxgUXIDGZlHkqGXQsmv2,,,,,,,,,,,,,,,,,chosen stimuli: images/choice_trial_3.png,,,,,61598cba874ca07729d42b2a,16:44:47,27/03/2024
html-keyboard-response,93,184362,0.0-40.0-2.0,,,,delaylearn,learning,feedback_duration_window,kI4gm6nOBxgUXIDGZlHkqGXQsmv2,kI4gm6nOBxgUXIDGZlHkqGXQsmv2,,,,,,,,,,,,,,,,,,750.0,,,,61598cba874ca07729d42b2a,16:44:47,27/03/2024
html-keyboard-response,94,185871,0.0-40.0-3.0,,<div style='margin:auto;width: auto; font-size: 150%'><span style='font-weight: bold; font-size: 100px; color: red;'>0 points!</span><br><br></div>,,delaylearn,learning,feedback_image_window,kI4gm6nOBxgUXIDGZlHkqGXQsmv2,kI4gm6nOBxgUXIDGZlHkqGXQsmv2,,,,,,,,,,,,,,,,,,,,,,61598cba874ca07729d42b2a,16:44:47,27/03/2024
html-keyboard-response,95,188032,0.0-41.0,,"<div style=""font-size:100px;"">+</div>",,delaylearn,learning,ITI,kI4gm6nOBxgUXIDGZlHkqGXQsmv2,kI4gm6nOBxgUXIDGZlHkqGXQsmv2,,,,,,,,,,,,,,,,,,,2149.0,,,61598cba874ca07729d42b2a,16:44:47,27/03/2024
html-keyboard-response,96,189291,0.0-42.0-0.0,1252.5,"<div style=""display: flex; flex-direction: column; align-items: center; margin-top: -40px;""><img src=""images/pattern_4.png"" style=""width: 234px; height: 230px; margin-top: -50px;""><div style=""display: flex; justify-content: space-between; margin-top: 33px;""><img src=""images/choice_trial_9.png"" style=""width: 408px; height: 417px; margin-right: 200px;""><img src=""images/choice_trial_15.png"" style=""width: 408px; height: 417px;""></div></div>",f,delaylearn,learning,trial,kI4gm6nOBxgUXIDGZlHkqGXQsmv2,kI4gm6nOBxgUXIDGZlHkqGXQsmv2,3.0,images/choice_trial_9.png,images/choice_trial_15.png,images/pattern_4.png,j,j,7000.0,9.0,15.0,3.0,1.0,18.0,0.0,0.0,9.0,110.0,,,,,,61598cba874ca07729d42b2a,16:44:47,27/03/2024
html-keyboard-response,97,190310,0.0-42.0-1.0,,"<div style=""display: flex; flex-direction: column; align-items: center; margin-top: -40px;""><img src=""images/pattern_4.png"" style=""width: 234px; height: 230px; margin-top: -50px;""><div style=""display: flex; justify-content: space-between; margin-top: 33px;""><img src=""images/choice_trial_9.png"" style=""width: 408px; height: 417px; margin-right: 608px;""></div></div>",,delaylearn,learning,display_response,kI4gm6nOBxgUXIDGZlHkqGXQsmv2,kI4gm6nOBxgUXIDGZlHkqGXQsmv2,,,,,,,,,,,,,,,,,chosen stimuli: images/choice_trial_9.png,,,,,61598cba874ca07729d42b2a,16:44:47,27/03/2024
html-keyboard-response,98,197322,0.0-42.0-2.0,,,,delaylearn,learning,feedback_duration_window,kI4gm6nOBxgUXIDGZlHkqGXQsmv2,kI4gm6nOBxgUXIDGZlHkqGXQsmv2,,,,,,,,,,,,,,,,,,7000.0,,,,61598cba874ca07729d42b2a,16:44:47,27/03/2024
html-keyboard-response,99,198833,0.0-42.0-3.0,,<div style='margin:auto;width: auto; font-size: 150%'><span style='font-weight: bold; font-size: 100px; color: red;'>0 points!</span><br><br></div>,,delaylearn,learning,feedback_image_window,kI4gm6nOBxgUXIDGZlHkqGXQsmv2,kI4gm6nOBxgUXIDGZlHkqGXQsmv2,,,,,,,,,,,,,,,,,,,,,,61598cba874ca07729d42b2a,16:44:47,27/03/2024
html-keyboard-response,100,200688,0.0-43.0,,"<div style=""font-size:100px;"">+</div>",,delaylearn,learning,ITI,kI4gm6nOBxgUXIDGZlHkqGXQsmv2,kI4gm6nOBxgUXIDGZlHkqGXQsmv2,,,,,,,,,,,,,,,,,,,1837.0,,,61598cba874ca07729d42b2a,16:44:47,27/03/2024
html-keyboard-response,101,202118,0.0-44.0-0.0,1423.7999999523163,"<div style=""display: flex; flex-direction: column; align-items: center; margin-top: -40px;""><img src=""images/pattern_7.png"" style=""width: 234px; height: 230px; margin-top: -50px;""><div style=""display: flex; justify-content: space-between; margin-top: 33px;""><img src=""images/choice_trial_6.png"" style=""width: 408px; height: 417px; margin-right: 200px;""><img src=""images/choice_trial_12.png"" style=""width: 408px; height: 417px;""></div></div>",f,delaylearn,learning,trial,kI4gm6nOBxgUXIDGZlHkqGXQsmv2,kI4gm6nOBxgUXIDGZlHkqGXQsmv2,3.0,images/choice_trial_6.png,images/choice_trial_12.png,images/pattern_7.png,j,f,750.0,6.0,12.0,6.0,0.0,19.0,1.0,0.0,6.0,110.0,,,,,,61598cba874ca07729d42b2a,16:44:47,27/03/2024
html-keyboard-response,102,203126,0.0-44.0-1.0,,"<div style=""display: flex; flex-direction: column; align-items: center; margin-top: -40px;""><img src=""images/pattern_7.png"" style=""width: 234px; height: 230px; margin-top: -50px;""><div style=""display: flex; justify-content: space-between; margin-top: 33px;""><img src=""images/choice_trial_6.png"" style=""width: 408px; height: 417px; margin-right: 608px;""></div></div>",,delaylearn,learning,display_response,kI4gm6nOBxgUXIDGZlHkqGXQsmv2,kI4gm6nOBxgUXIDGZlHkqGXQsmv2,,,,,,,,,,,,,,,,,chosen stimuli: images/choice_trial_6.png,,,,,61598cba874ca07729d42b2a,16:44:47,27/03/2024
html-keyboard-response,103,203888,0.0-44.0-2.0,,,,delaylearn,learning,feedback_duration_window,kI4gm6nOBxgUXIDGZlHkqGXQsmv2,kI4gm6nOBxgUXIDGZlHkqGXQsmv2,,,,,,,,,,,,,,,,,,750.0,,,,61598cba874ca07729d42b2a,16:44:47,27/03/2024
html-keyboard-response,104,205400,0.0-44.0-3.0,,<div style='margin:auto;width: auto; font-size: 150%'><span style='font-weight: bold; font-size: 100px; color: red;'>0 points!</span><br><br></div>,,delaylearn,learning,feedback_image_window,kI4gm6nOBxgUXIDGZlHkqGXQsmv2,kI4gm6nOBxgUXIDGZlHkqGXQsmv2,,,,,,,,,,,,,,,,,,,,,,61598cba874ca07729d42b2a,16:44:47,27/03/2024
html-keyboard-response,105,207459,0.0-45.0,,"<div style=""font-size:100px;"">+</div>",,delaylearn,learning,ITI,kI4gm6nOBxgUXIDGZlHkqGXQsmv2,kI4gm6nOBxgUXIDGZlHkqGXQsmv2,,,,,,,,,,,,,,,,,,,2043.0,,,61598cba874ca07729d42b2a,16:44:47,27/03/2024
html-keyboard-response,106,208712,0.0-46.0-0.0,1250.3999998569489,"<div style=""display: flex; flex-direction: column; align-items: center; margin-top: -40px;""><img src=""images/pattern_1.png"" style=""width: 234px; height: 230px; margin-top: -50px;""><div style=""display: flex; justify-content: space-between; margin-top: 33px;""><img src=""images/choice_trial_14.png"" style=""width: 408px; height: 417px; margin-right: 200px;""><img src=""images/choice_trial_8.png"" style=""width: 408px; height: 417px;""></div></div>",f,delaylearn,learning,trial,kI4gm6nOBxgUXIDGZlHkqGXQsmv2,kI4gm6nOBxgUXIDGZlHkqGXQsmv2,3.0,images/choice_trial_14.png,images/choice_trial_8.png,images/pattern_1.png,f,f,7000.0,14.0,8.0,1.0,0.0,20.0,1.0,1.0,14.0,120.0,,,,,,61598cba874ca07729d42b2a,16:44:47,27/03/2024
html-keyboard-response,107,209721,0.0-46.0-1.0,,"<div style=""display: flex; flex-direction: column; align-items: center; margin-top: -40px;""><img src=""images/pattern_1.png"" style=""width: 234px; height: 230px; margin-top: -50px;""><div style=""display: flex; justify-content: space-between; margin-top: 33px;""><img src=""images/choice_trial_14.png"" style=""width: 408px; height: 417px; margin-right: 608px;""></div></div>",,delaylearn,learning,display_response,kI4gm6nOBxgUXIDGZlHkqGXQsmv2,kI4gm6nOBxgUXIDGZlHkqGXQsmv2,,,,,,,,,,,,,,,,,chosen stimuli: images/choice_trial_14.png,,,,,61598cba874ca07729d42b2a,16:44:47,27/03/2024
html-keyboard-response,108,216732,0.0-46.0-2.0,,,,delaylearn,learning,feedback_duration_window,kI4gm6nOBxgUXIDGZlHkqGXQsmv2,kI4gm6nOBxgUXIDGZlHkqGXQsmv2,,,,,,,,,,,,,,,,,,7000.0,,,,61598cba874ca07729d42b2a,16:44:47,27/03/2024
html-keyboard-response,109,218240,0.0-46.0-3.0,,<div style='margin:auto;width: auto; font-size: 150%'><span style='font-weight: bold; font-size: 100px; color: green;'>+10 points!</span><br><br></div>,,delaylearn,learning,feedback_image_window,kI4gm6nOBxgUXIDGZlHkqGXQsmv2,kI4gm6nOBxgUXIDGZlHkqGXQsmv2,,,,,,,,,,,,,,,,,,,,,,61598cba874ca07729d42b2a,16:44:47,27/03/2024
html-keyboard-response,110,220071,0.0-47.0,,"<div style=""font-size:100px;"">+</div>",,delaylearn,learning,ITI,kI4gm6nOBxgUXIDGZlHkqGXQsmv2,kI4gm6nOBxgUXIDGZlHkqGXQsmv2,,,,,,,,,,,,,,,,,,,1821.0,,,61598cba874ca07729d42b2a,16:44:47,27/03/2024
html-keyboard-response,111,221269,0.0-48.0-0.0,1194.5,"<div style=""display: flex; flex-direction: column; align-items: center; margin-top: -40px;""><img src=""images/pattern_6.png"" style=""width: 234px; height: 230px; margin-top: -50px;""><div style=""display: flex; justify-content: space-between; margin-top: 33px;""><img src=""images/choice_trial_3.png"" style=""width: 408px; height: 417px; margin-right: 200px;""><img src=""images/choice_trial_16.png"" style=""width: 408px; height: 417px;""></div></div>",f,delaylearn,learning,trial,kI4gm6nOBxgUXIDGZlHkqGXQsmv2,kI4gm6nOBxgUXIDGZlHkqGXQsmv2,3.0,images/choice_trial_3.png,images/choice_trial_16.png,images/pattern_6.png,j,j,750.0,3.0,16.0,5.0,1.0,21.0,0.0,0.0,3.0,120.0,,,,,,61598cba874ca07729d42b2a,16:44:47,27/03/2024
html-keyboard-response,112,222282,0.0-48.0-1.0,,"<div style=""display: flex; flex-direction: column; align-items: center; margin-top: -40px;""><img src=""images/pattern_6.png"" style=""width: 234px; height: 230px; margin-top: -50px;""><div style=""display: flex; justify-content: space-between; margin-top: 33px;""><img src=""images/choice_trial_3.png"" style=""width: 408px; height: 417px; margin-right: 608px;""></div></div>",,delaylearn,learning,display_response,kI4gm6nOBxgUXIDGZlHkqGXQsmv2,kI4gm6nOBxgUXIDGZlHkqGXQsmv2,,,,,,,,,,,,,,,,,chosen stimuli: images/choice_trial_3.png,,,,,61598cba874ca07729d42b2a,16:44:47,27/03/2024
html-keyboard-response,113,223038,0.0-48.0-2.0,,,,delaylearn,learning,feedback_duration_window,kI4gm6nOBxgUXIDGZlHkqGXQsmv2,kI4gm6nOBxgUXIDGZlHkqGXQsmv2,,,,,,,,,,,,,,,,,,750.0,,,,61598cba874ca07729d42b2a,16:44:47,27/03/2024
html-keyboard-response,114,224548,0.0-48.0-3.0,,<div style='margin:auto;width: auto; font-size: 150%'><span style='font-weight: bold; font-size: 100px; color: red;'>0 points!</span><br><br></div>,,delaylearn,learning,feedback_image_window,kI4gm6nOBxgUXIDGZlHkqGXQsmv2,kI4gm6nOBxgUXIDGZlHkqGXQsmv2,,,,,,,,,,,,,,,,,,,,,,61598cba874ca07729d42b2a,16:44:47,27/03/2024
html-keyboard-response,115,226263,0.0-49.0,,"<div style=""font-size:100px;"">+</div>",,delaylearn,learning,ITI,kI4gm6nOBxgUXIDGZlHkqGXQsmv2,kI4gm6nOBxgUXIDGZlHkqGXQsmv2,,,,,,,,,,,,,,,,,,,1700.0,,,61598cba874ca07729d42b2a,16:44:47,27/03/2024
html-keyboard-response,116,227507,0.0-50.0-0.0,1235.5,"<div style=""display: flex; flex-direction: column; align-items: center; margin-top: -40px;""><img src=""images/pattern_4.png"" style=""width: 234px; height: 230px; margin-top: -50px;""><div style=""display: flex; justify-content: space-between; margin-top: 33px;""><img src=""images/choice_trial_15.png"" style=""width: 408px; height: 417px; margin-right: 200px;""><img src=""images/choice_trial_9.png"" style=""width: 408px; height: 417px;""></div></div>",j,delaylearn,learning,trial,kI4gm6nOBxgUXIDGZlHkqGXQsmv2,kI4gm6nOBxgUXIDGZlHkqGXQsmv2,3.0,images/choice_trial_15.png,images/choice_trial_9.png,images/pattern_4.png,f,f,7000.0,15.0,9.0,3.0,0.0,22.0,0.0,0.0,9.0,120.0,,,,,,61598cba874ca07729d42b2a,16:44:47,27/03/2024
html-keyboard-response,117,228519,0.0-50.0-1.0,,"<div style=""display: flex; flex-direction: column; align-items: center; margin-top: -40px;""><img src=""images/pattern_4.png"" style=""width: 234px; height: 230px; margin-top: -50px;""><div style=""display: flex; justify-content: space-between; margin-top: 33px;""><img src=""images/choice_trial_9.png"" style=""width: 408px; height: 417px; margin-left:608px;""></div></div>",,delaylearn,learning,display_response,kI4gm6nOBxgUXIDGZlHkqGXQsmv2,kI4gm6nOBxgUXIDGZlHkqGXQsmv2,,,,,,,,,,,,,,,,,chosen stimuli: images/choice_trial_9.png,,,,,61598cba874ca07729d42b2a,16:44:47,27/03/2024
html-keyboard-response,118,235531,0.0-50.0-2.0,,,,delaylearn,learning,feedback_duration_window,kI4gm6nOBxgUXIDGZlHkqGXQsmv2,kI4gm6nOBxgUXIDGZlHkqGXQsmv2,,,,,,,,,,,,,,,,,,7000.0,,,,61598cba874ca07729d42b2a,16:44:47,27/03/2024
html-keyboard-response,119,237042,0.0-50.0-3.0,,<div style='margin:auto;width: auto; font-size: 150%'><span style='font-weight: bold; font-size: 100px; color: red;'>0 points!</span><br><br></div>,,delaylearn,learning,feedback_image_window,kI4gm6nOBxgUXIDGZlHkqGXQsmv2,kI4gm6nOBxgUXIDGZlHkqGXQsmv2,,,,,,,,,,,,,,,,,,,,,,61598cba874ca07729d42b2a,16:44:47,27/03/2024
html-keyboard-response,120,237556,0.0-51.0-0.0,,,,,,mood_trial_fixation,kI4gm6nOBxgUXIDGZlHkqGXQsmv2,,,,,,,,,,,,,,,,,,,,,,,61598cba874ca07729d42b2a,16:44:47,27/03/2024
lmdlab-html-vas-response,121,241306,0.0-51.0-1.0,2737.0,How happy are you right now?,0.4085648148148148,delaylearn,learning,mood_trial,kI4gm6nOBxgUXIDGZlHkqGXQsmv2,kI4gm6nOBxgUXIDGZlHkqGXQsmv2,,,,,,,,,,,,,,,,,,,,"['Very unhappy', 'Very happy']",,61598cba874ca07729d42b2a,16:44:47,27/03/2024
html-keyboard-response,122,243732,0.0-52.0,,"<div style=""font-size:100px;"">+</div>",,delaylearn,learning,ITI,kI4gm6nOBxgUXIDGZlHkqGXQsmv2,kI4gm6nOBxgUXIDGZlHkqGXQsmv2,,,,,,,,,,,,,,,,,,,2415.0,,,61598cba874ca07729d42b2a,16:44:47,27/03/2024
html-keyboard-response,123,245482,0.0-53.0-0.0,1743.5,"<div style=""display: flex; flex-direction: column; align-items: center; margin-top: -40px;""><img src=""images/pattern_7.png"" style=""width: 234px; height: 230px; margin-top: -50px;""><div style=""display: flex; justify-content: space-between; margin-top: 33px;""><img src=""images/choice_trial_12.png"" style=""width: 408px; height: 417px; margin-right: 200px;""><img src=""images/choice_trial_6.png"" style=""width: 408px; height: 417px;""></div></div>",j,delaylearn,learning,trial,kI4gm6nOBxgUXIDGZlHkqGXQsmv2,kI4gm6nOBxgUXIDGZlHkqGXQsmv2,3.0,images/choice_trial_12.png,images/choice_trial_6.png,images/pattern_7.png,j,j,750.0,12.0,6.0,6.0,1.0,23.0,1.0,1.0,6.0,130.0,,,,,,61598cba874ca07729d42b2a,16:44:47,27/03/2024
html-keyboard-response,124,246489,0.0-53.0-1.0,,"<div style=""display: flex; flex-direction: column; align-items: center; margin-top: -40px;""><img src=""images/pattern_7.png"" style=""width: 234px; height: 230px; margin-top: -50px;""><div style=""display: flex; justify-content: space-between; margin-top: 33px;""><img src=""images/choice_trial_6.png"" style=""width: 408px; height: 417px; margin-left:608px;""></div></div>",,delaylearn,learning,display_response,kI4gm6nOBxgUXIDGZlHkqGXQsmv2,kI4gm6nOBxgUXIDGZlHkqGXQsmv2,,,,,,,,,,,,,,,,,chosen stimuli: images/choice_trial_6.png,,,,,61598cba874ca07729d42b2a,16:44:47,27/03/2024
html-keyboard-response,125,247254,0.0-53.0-2.0,,,,delaylearn,learning,feedback_duration_window,kI4gm6nOBxgUXIDGZlHkqGXQsmv2,kI4gm6nOBxgUXIDGZlHkqGXQsmv2,,,,,,,,,,,,,,,,,,750.0,,,,61598cba874ca07729d42b2a,16:44:47,27/03/2024
html-keyboard-response,126,248764,0.0-53.0-3.0,,<div style='margin:auto;width: auto; font-size: 150%'><span style='font-weight: bold; font-size: 100px; color: green;'>+10 points!</span><br><br></div>,,delaylearn,learning,feedback_image_window,kI4gm6nOBxgUXIDGZlHkqGXQsmv2,kI4gm6nOBxgUXIDGZlHkqGXQsmv2,,,,,,,,,,,,,,,,,,,,,,61598cba874ca07729d42b2a,16:44:47,27/03/2024
html-keyboard-response,127,250603,0.0-54.0,,"<div style=""font-size:100px;"">+</div>",,delaylearn,learning,ITI,kI4gm6nOBxgUXIDGZlHkqGXQsmv2,kI4gm6nOBxgUXIDGZlHkqGXQsmv2,,,,,,,,,,,,,,,,,,,1825.0,,,61598cba874ca07729d42b2a,16:44:47,27/03/2024
html-keyboard-response,128,251412,0.0-55.0-0.0,802.9000000953674,"<div style=""display: flex; flex-direction: column; align-items: center; margin-top: -40px;""><img src=""images/pattern_1.png"" style=""width: 234px; height: 230px; margin-top: -50px;""><div style=""display: flex; justify-content: space-between; margin-top: 33px;""><img src=""images/choice_trial_8.png"" style=""width: 408px; height: 417px; margin-right: 200px;""><img src=""images/choice_trial_14.png"" style=""width: 408px; height: 417px;""></div></div>",j,delaylearn,learning,trial,kI4gm6nOBxgUXIDGZlHkqGXQsmv2,kI4gm6nOBxgUXIDGZlHkqGXQsmv2,3.0,images/choice_trial_8.png,images/choice_trial_14.png,images/pattern_1.png,f,j,7000.0,8.0,14.0,1.0,1.0,24.0,1.0,0.0,14.0,130.0,,,,,,61598cba874ca07729d42b2a,16:44:47,27/03/2024
html-keyboard-response,129,252424,0.0-55.0-1.0,,"<div style=""display: flex; flex-direction: column; align-items: center; margin-top: -40px;""><img src=""images/pattern_1.png"" style=""width: 234px; height: 230px; margin-top: -50px;""><div style=""display: flex; justify-content: space-between; margin-top: 33px;""><img src=""images/choice_trial_14.png"" style=""width: 408px; height: 417px; margin-left:608px;""></div></div>",,delaylearn,learning,display_response,kI4gm6nOBxgUXIDGZlHkqGXQsmv2,kI4gm6nOBxgUXIDGZlHkqGXQsmv2,,,,,,,,,,,,,,,,,chosen stimuli: images/choice_trial_14.png,,,,,61598cba874ca07729d42b2a,16:44:47,27/03/2024
html-keyboard-response,130,259429,0.0-55.0-2.0,,,,delaylearn,learning,feedback_duration_window,kI4gm6nOBxgUXIDGZlHkqGXQsmv2,kI4gm6nOBxgUXIDGZlHkqGXQsmv2,,,,,,,,,,,,,,,,,,7000.0,,,,61598cba874ca07729d42b2a,16:44:47,27/03/2024
html-keyboard-response,131,260944,0.0-55.0-3.0,,<div style='margin:auto;width: auto; font-size: 150%'><span style='font-weight: bold; font-size: 100px; color: red;'>0 points!</span><br><br></div>,,delaylearn,learning,feedback_image_window,kI4gm6nOBxgUXIDGZlHkqGXQsmv2,kI4gm6nOBxgUXIDGZlHkqGXQsmv2,,,,,,,,,,,,,,,,,,,,,,61598cba874ca07729d42b2a,16:44:47,27/03/2024
html-keyboard-response,132,263073,0.0-56.0,,"<div style=""font-size:100px;"">+</div>",,delaylearn,learning,ITI,kI4gm6nOBxgUXIDGZlHkqGXQsmv2,kI4gm6nOBxgUXIDGZlHkqGXQsmv2,,,,,,,,,,,,,,,,,,,2112.0,,,61598cba874ca07729d42b2a,16:44:47,27/03/2024
html-keyboard-response,133,264693,0.0-57.0-0.0,1612.7000000476837,"<div style=""display: flex; flex-direction: column; align-items: center; margin-top: -40px;""><img src=""images/pattern_5.png"" style=""width: 234px; height: 230px; margin-top: -50px;""><div style=""display: flex; justify-content: space-between; margin-top: 33px;""><img src=""images/choice_trial_2.png"" style=""width: 408px; height: 417px; margin-right: 200px;""><img src=""images/choice_trial_11.png"" style=""width: 408px; height: 417px;""></div></div>",f,delaylearn,learning,trial,kI4gm6nOBxgUXIDGZlHkqGXQsmv2,kI4gm6nOBxgUXIDGZlHkqGXQsmv2,3.0,images/choice_trial_2.png,images/choice_trial_11.png,images/pattern_5.png,j,j,750.0,2.0,11.0,4.0,1.0,25.0,0.0,0.0,2.0,130.0,,,,,,61598cba874ca07729d42b2a,16:44:47,27/03/2024
html-keyboard-response,134,265707,0.0-57.0-1.0,,"<div style=""display: flex; flex-direction: column; align-items: center; margin-top: -40px;""><img src=""images/pattern_5.png"" style=""width: 234px; height: 230px; margin-top: -50px;""><div style=""display: flex; justify-content: space-between; margin-top: 33px;""><img src=""images/choice_trial_2.png"" style=""width: 408px; height: 417px; margin-right: 608px;""></div></div>",,delaylearn,learning,display_response,kI4gm6nOBxgUXIDGZlHkqGXQsmv2,kI4gm6nOBxgUXIDGZlHkqGXQsmv2,,,,,,,,,,,,,,,,,chosen stimuli: images/choice_trial_2.png,,,,,61598cba874ca07729d42b2a,16:44:47,27/03/2024
html-keyboard-response,135,266468,0.0-57.0-2.0,,,,delaylearn,learning,feedback_duration_window,kI4gm6nOBxgUXIDGZlHkqGXQsmv2,kI4gm6nOBxgUXIDGZlHkqGXQsmv2,,,,,,,,,,,,,,,,,,750.0,,,,61598cba874ca07729d42b2a,16:44:47,27/03/2024
html-keyboard-response,136,267977,0.0-57.0-3.0,,<div style='margin:auto;width: auto; font-size: 150%'><span style='font-weight: bold; font-size: 100px; color: red;'>0 points!</span><br><br></div>,,delaylearn,learning,feedback_image_window,kI4gm6nOBxgUXIDGZlHkqGXQsmv2,kI4gm6nOBxgUXIDGZlHkqGXQsmv2,,,,,,,,,,,,,,,,,,,,,,61598cba874ca07729d42b2a,16:44:47,27/03/2024
html-keyboard-response,137,270406,0.0-58.0,,"<div style=""font-size:100px;"">+</div>",,delaylearn,learning,ITI,kI4gm6nOBxgUXIDGZlHkqGXQsmv2,kI4gm6nOBxgUXIDGZlHkqGXQsmv2,,,,,,,,,,,,,,,,,,,2422.0,,,61598cba874ca07729d42b2a,16:44:47,27/03/2024
html-keyboard-response,138,271571,0.0-59.0-0.0,1157.0,"<div style=""display: flex; flex-direction: column; align-items: center; margin-top: -40px;""><img src=""images/pattern_3.png"" style=""width: 234px; height: 230px; margin-top: -50px;""><div style=""display: flex; justify-content: space-between; margin-top: 33px;""><img src=""images/choice_trial_10.png"" style=""width: 408px; height: 417px; margin-right: 200px;""><img src=""images/choice_trial_13.png"" style=""width: 408px; height: 417px;""></div></div>",j,delaylearn,learning,trial,kI4gm6nOBxgUXIDGZlHkqGXQsmv2,kI4gm6nOBxgUXIDGZlHkqGXQsmv2,3.0,images/choice_trial_10.png,images/choice_trial_13.png,images/pattern_3.png,j,j,7000.0,10.0,13.0,2.0,1.0,26.0,1.0,1.0,13.0,140.0,,,,,,61598cba874ca07729d42b2a,16:44:47,27/03/2024
html-keyboard-response,139,272575,0.0-59.0-1.0,,"<div style=""display: flex; flex-direction: column; align-items: center; margin-top: -40px;""><img src=""images/pattern_3.png"" style=""width: 234px; height: 230px; margin-top: -50px;""><div style=""display: flex; justify-content: space-between; margin-top: 33px;""><img src=""images/choice_trial_13.png"" style=""width: 408px; height: 417px; margin-left:608px;""></div></div>",,delaylearn,learning,display_response,kI4gm6nOBxgUXIDGZlHkqGXQsmv2,kI4gm6nOBxgUXIDGZlHkqGXQsmv2,,,,,,,,,,,,,,,,,chosen stimuli: images/choice_trial_13.png,,,,,61598cba874ca07729d42b2a,16:44:47,27/03/2024
html-keyboard-response,140,279587,0.0-59.0-2.0,,,,delaylearn,learning,feedback_duration_window,kI4gm6nOBxgUXIDGZlHkqGXQsmv2,kI4gm6nOBxgUXIDGZlHkqGXQsmv2,,,,,,,,,,,,,,,,,,7000.0,,,,61598cba874ca07729d42b2a,16:44:47,27/03/2024
html-keyboard-response,141,281095,0.0-59.0-3.0,,<div style='margin:auto;width: auto; font-size: 150%'><span style='font-weight: bold; font-size: 100px; color: green;'>+10 points!</span><br><br></div>,,delaylearn,learning,feedback_image_window,kI4gm6nOBxgUXIDGZlHkqGXQsmv2,kI4gm6nOBxgUXIDGZlHkqGXQsmv2,,,,,,,,,,,,,,,,,,,,,,61598cba874ca07729d42b2a,16:44:47,27/03/2024
lmdlab-html-vas-response,142,289205,0.0-60.0-0.0,6578.0,*How <b><u>confident</u></b> are you feeling about your answers at this moment?*,0.29976851851851855,rewlearn,rate_confidence,,kI4gm6nOBxgUXIDGZlHkqGXQsmv2,kI4gm6nOBxgUXIDGZlHkqGXQsmv2,,,,,,,,,,,,,,,,,,,,"['No confidence', 'Complete confidence']",,61598cba874ca07729d42b2a,16:44:47,27/03/2024
lmdlab-rest-trial-limit,143,297842,0.0-60.0-1.0,7121.199999809265,"<div style=""font-size:40px;""><b>Please take a break!</b><br><br><br><br><p>Great work: you earned 140 points.<br><br><br><p>You have completed part(s) 1 of 5.<br><br><br><br>When you are ready to continue<br><br><br>please click the button.</p><br><br>",0,delaylearn,learning,break,kI4gm6nOBxgUXIDGZlHkqGXQsmv2,kI4gm6nOBxgUXIDGZlHkqGXQsmv2,,,,,,,,,,,,,,,,,,,,,0.0,61598cba874ca07729d42b2a,16:44:47,27/03/2024
html-keyboard-response,144,300862,0.0-60.0-2.0,,"<div style=""font-size:100px;"">+</div>",,delaylearn,learning,pre_fixation,kI4gm6nOBxgUXIDGZlHkqGXQsmv2,,,,,,,,,,,,,,,,,,,,,,,61598cba874ca07729d42b2a,16:44:47,27/03/2024
lmdlab-html-vas-response,145,306281,0.0-60.0-3.0-0.0,4412.0,How happy are you right now?,0.5428240740740741,delaylearn,learning,mood_baseline,kI4gm6nOBxgUXIDGZlHkqGXQsmv2,kI4gm6nOBxgUXIDGZlHkqGXQsmv2,,,,,,,,,,,,,,,,,,,,"['Very unhappy', 'Very happy']",,61598cba874ca07729d42b2a,16:44:47,27/03/2024
html-keyboard-response,146,307790,0.0-60.0-3.0-1.0,,,,,,mood_baseline_fixation,kI4gm6nOBxgUXIDGZlHkqGXQsmv2,,,,,,,,,,,,,,,,,,,,,,,61598cba874ca07729d42b2a,16:44:47,27/03/2024
html-keyboard-response,147,310198,0.0-61.0,,"<div style=""font-size:100px;"">+</div>",,delaylearn,learning,ITI,kI4gm6nOBxgUXIDGZlHkqGXQsmv2,kI4gm6nOBxgUXIDGZlHkqGXQsmv2,,,,,,,,,,,,,,,,,,,2394.0,,,61598cba874ca07729d42b2a,16:44:47,27/03/2024
html-keyboard-response,148,311317,0.0-62.0-0.0,1113.5999999046326,"<div style=""display: flex; flex-direction: column; align-items: center; margin-top: -40px;""><img src=""images/pattern_7.png"" style=""width: 234px; height: 230px; margin-top: -50px;""><div style=""display: flex; justify-content: space-between; margin-top: 33px;""><img src=""images/choice_trial_12.png"" style=""width: 408px; height: 417px; margin-right: 200px;""><img src=""images/choice_trial_6.png"" style=""width: 408px; height: 417px;""></div></div>",j,delaylearn,learning,trial,kI4gm6nOBxgUXIDGZlHkqGXQsmv2,kI4gm6nOBxgUXIDGZlHkqGXQsmv2,3.0,images/choice_trial_12.png,images/choice_trial_6.png,images/pattern_7.png,j,j,750.0,12.0,6.0,6.0,1.0,27.0,1.0,1.0,6.0,150.0,,,,,,61598cba874ca07729d42b2a,16:44:47,27/03/2024
html-keyboard-response,149,312336,0.0-62.0-1.0,,"<div style=""display: flex; flex-direction: column; align-items: center; margin-top: -40px;""><img src=""images/pattern_7.png"" style=""width: 234px; height: 230px; margin-top: -50px;""><div style=""display: flex; justify-content: space-between; margin-top: 33px;""><img src=""images/choice_trial_6.png"" style=""width: 408px; height: 417px; margin-left:608px;""></div></div>",,delaylearn,learning,display_response,kI4gm6nOBxgUXIDGZlHkqGXQsmv2,kI4gm6nOBxgUXIDGZlHkqGXQsmv2,,,,,,,,,,,,,,,,,chosen stimuli: images/choice_trial_6.png,,,,,61598cba874ca07729d42b2a,16:44:47,27/03/2024
html-keyboard-response,150,313101,0.0-62.0-2.0,,,,delaylearn,learning,feedback_duration_window,kI4gm6nOBxgUXIDGZlHkqGXQsmv2,kI4gm6nOBxgUXIDGZlHkqGXQsmv2,,,,,,,,,,,,,,,,,,750.0,,,,61598cba874ca07729d42b2a,16:44:47,27/03/2024
html-keyboard-response,151,314613,0.0-62.0-3.0,,<div style='margin:auto;width: auto; font-size: 150%'><span style='font-weight: bold; font-size: 100px; color: green;'>+10 points!</span><br><br></div>,,delaylearn,learning,feedback_image_window,kI4gm6nOBxgUXIDGZlHkqGXQsmv2,kI4gm6nOBxgUXIDGZlHkqGXQsmv2,,,,,,,,,,,,,,,,,,,,,,61598cba874ca07729d42b2a,16:44:47,27/03/2024
html-keyboard-response,152,315130,0.0-63.0-0.0,,,,,,mood_trial_fixation,kI4gm6nOBxgUXIDGZlHkqGXQsmv2,,,,,,,,,,,,,,,,,,,,,,,61598cba874ca07729d42b2a,16:44:47,27/03/2024
lmdlab-html-vas-response,153,319537,0.0-63.0-1.0,3391.0,How happy are you right now?,0.5509259259259259,delaylearn,learning,mood_trial,kI4gm6nOBxgUXIDGZlHkqGXQsmv2,kI4gm6nOBxgUXIDGZlHkqGXQsmv2,,,,,,,,,,,,,,,,,,,,"['Very unhappy', 'Very happy']",,61598cba874ca07729d42b2a,16:44:47,27/03/2024
html-keyboard-response,154,321101,0.0-64.0,,"<div style=""font-size:100px;"">+</div>",,delaylearn,learning,ITI,kI4gm6nOBxgUXIDGZlHkqGXQsmv2,kI4gm6nOBxgUXIDGZlHkqGXQsmv2,,,,,,,,,,,,,,,,,,,1547.0,,,61598cba874ca07729d42b2a,16:44:47,27/03/2024
html-keyboard-response,155,322170,0.0-65.0-0.0,1061.3000001907349,"<div style=""display: flex; flex-direction: column; align-items: center; margin-top: -40px;""><img src=""images/pattern_1.png"" style=""width: 234px; height: 230px; margin-top: -50px;""><div style=""display: flex; justify-content: space-between; margin-top: 33px;""><img src=""images/choice_trial_14.png"" style=""width: 408px; height: 417px; margin-right: 200px;""><img src=""images/choice_trial_8.png"" style=""width: 408px; height: 417px;""></div></div>",f,delaylearn,learning,trial,kI4gm6nOBxgUXIDGZlHkqGXQsmv2,kI4gm6nOBxgUXIDGZlHkqGXQsmv2,3.0,images/choice_trial_14.png,images/choice_trial_8.png,images/pattern_1.png,f,f,7000.0,14.0,8.0,1.0,0.0,28.0,1.0,1.0,14.0,160.0,,,,,,61598cba874ca07729d42b2a,16:44:47,27/03/2024
html-keyboard-response,156,323188,0.0-65.0-1.0,,"<div style=""display: flex; flex-direction: column; align-items: center; margin-top: -40px;""><img src=""images/pattern_1.png"" style=""width: 234px; height: 230px; margin-top: -50px;""><div style=""display: flex; justify-content: space-between; margin-top: 33px;""><img src=""images/choice_trial_14.png"" style=""width: 408px; height: 417px; margin-right: 608px;""></div></div>",,delaylearn,learning,display_response,kI4gm6nOBxgUXIDGZlHkqGXQsmv2,kI4gm6nOBxgUXIDGZlHkqGXQsmv2,,,,,,,,,,,,,,,,,chosen stimuli: images/choice_trial_14.png,,,,,61598cba874ca07729d42b2a,16:44:47,27/03/2024
html-keyboard-response,157,330203,0.0-65.0-2.0,,,,delaylearn,learning,feedback_duration_window,kI4gm6nOBxgUXIDGZlHkqGXQsmv2,kI4gm6nOBxgUXIDGZlHkqGXQsmv2,,,,,,,,,,,,,,,,,,7000.0,,,,61598cba874ca07729d42b2a,16:44:47,27/03/2024
html-keyboard-response,158,331714,0.0-65.0-3.0,,<div style='margin:auto;width: auto; font-size: 150%'><span style='font-weight: bold; font-size: 100px; color: green;'>+10 points!</span><br><br></div>,,delaylearn,learning,feedback_image_window,kI4gm6nOBxgUXIDGZlHkqGXQsmv2,kI4gm6nOBxgUXIDGZlHkqGXQsmv2,,,,,,,,,,,,,,,,,,,,,,61598cba874ca07729d42b2a,16:44:47,27/03/2024
html-keyboard-response,159,334020,0.0-66.0,,"<div style=""font-size:100px;"">+</div>",,delaylearn,learning,ITI,kI4gm6nOBxgUXIDGZlHkqGXQsmv2,kI4gm6nOBxgUXIDGZlHkqGXQsmv2,,,,,,,,,,,,,,,,,,,2295.0,,,61598cba874ca07729d42b2a,16:44:47,27/03/2024
html-keyboard-response,160,335877,0.0-67.0-0.0,1848.2000000476837,"<div style=""display: flex; flex-direction: column; align-items: center; margin-top: -40px;""><img src=""images/pattern_5.png"" style=""width: 234px; height: 230px; margin-top: -50px;""><div style=""display: flex; justify-content: space-between; margin-top: 33px;""><img src=""images/choice_trial_11.png"" style=""width: 408px; height: 417px; margin-right: 200px;""><img src=""images/choice_trial_2.png"" style=""width: 408px; height: 417px;""></div></div>",f,delaylearn,learning,trial,kI4gm6nOBxgUXIDGZlHkqGXQsmv2,kI4gm6nOBxgUXIDGZlHkqGXQsmv2,3.0,images/choice_trial_11.png,images/choice_trial_2.png,images/pattern_5.png,f,f,750.0,11.0,2.0,4.0,0.0,29.0,1.0,1.0,11.0,170.0,,,,,,61598cba874ca07729d42b2a,16:44:47,27/03/2024
html-keyboard-response,161,336888,0.0-67.0-1.0,,"<div style=""display: flex; flex-direction: column; align-items: center; margin-top: -40px;""><img src=""images/pattern_5.png"" style=""width: 234px; height: 230px; margin-top: -50px;""><div style=""display: flex; justify-content: space-between; margin-top: 33px;""><img src=""images/choice_trial_11.png"" style=""width: 408px; height: 417px; margin-right: 608px;""></div></div>",,delaylearn,learning,display_response,kI4gm6nOBxgUXIDGZlHkqGXQsmv2,kI4gm6nOBxgUXIDGZlHkqGXQsmv2,,,,,,,,,,,,,,,,,chosen stimuli: images/choice_trial_11.png,,,,,61598cba874ca07729d42b2a,16:44:47,27/03/2024
html-keyboard-response,162,337651,0.0-67.0-2.0,,,,delaylearn,learning,feedback_duration_window,kI4gm6nOBxgUXIDGZlHkqGXQsmv2,kI4gm6nOBxgUXIDGZlHkqGXQsmv2,,,,,,,,,,,,,,,,,,750.0,,,,61598cba874ca07729d42b2a,16:44:47,27/03/2024
html-keyboard-response,163,339162,0.0-67.0-3.0,,<div style='margin:auto;width: auto; font-size: 150%'><span style='font-weight: bold; font-size: 100px; color: green;'>+10 points!</span><br><br></div>,,delaylearn,learning,feedback_image_window,kI4gm6nOBxgUXIDGZlHkqGXQsmv2,kI4gm6nOBxgUXIDGZlHkqGXQsmv2,,,,,,,,,,,,,,,,,,,,,,61598cba874ca07729d42b2a,16:44:47,27/03/2024
html-keyboard-response,164,340875,0.0-68.0,,"<div style=""font-size:100px;"">+</div>",,delaylearn,learning,ITI,kI4gm6nOBxgUXIDGZlHkqGXQsmv2,kI4gm6nOBxgUXIDGZlHkqGXQsmv2,,,,,,,,,,,,,,,,,,,1705.0,,,61598cba874ca07729d42b2a,16:44:47,27/03/2024
html-keyboard-response,165,343027,0.0-69.0-0.0,2145.4000000953674,"<div style=""display: flex; flex-direction: column; align-items: center; margin-top: -40px;""><img src=""images/pattern_6.png"" style=""width: 234px; height: 230px; margin-top: -50px;""><div style=""display: flex; justify-content: space-between; margin-top: 33px;""><img src=""images/choice_trial_3.png"" style=""width: 408px; height: 417px; margin-right: 200px;""><img src=""images/choice_trial_16.png"" style=""width: 408px; height: 417px;""></div></div>",j,delaylearn,learning,trial,kI4gm6nOBxgUXIDGZlHkqGXQsmv2,kI4gm6nOBxgUXIDGZlHkqGXQsmv2,3.0,images/choice_trial_3.png,images/choice_trial_16.png,images/pattern_6.png,j,j,750.0,3.0,16.0,5.0,1.0,30.0,1.0,1.0,16.0,180.0,,,,,,61598cba874ca07729d42b2a,16:44:47,27/03/2024
html-keyboard-response,166,344036,0.0-69.0-1.0,,"<div style=""display: flex; flex-direction: column; align-items: center; margin-top: -40px;""><img src=""images/pattern_6.png"" style=""width: 234px; height: 230px; margin-top: -50px;""><div style=""display: flex; justify-content: space-between; margin-top: 33px;""><img src=""images/choice_trial_16.png"" style=""width: 408px; height: 417px; margin-left:608px;""></div></div>",,delaylearn,learning,display_response,kI4gm6nOBxgUXIDGZlHkqGXQsmv2,kI4gm6nOBxgUXIDGZlHkqGXQsmv2,,,,,,,,,,,,,,,,,chosen stimuli: images/choice_trial_16.png,,,,,61598cba874ca07729d42b2a,16:44:47,27/03/2024
html-keyboard-response,167,344799,0.0-69.0-2.0,,,,delaylearn,learning,feedback_duration_window,kI4gm6nOBxgUXIDGZlHkqGXQsmv2,kI4gm6nOBxgUXIDGZlHkqGXQsmv2,,,,,,,,,,,,,,,,,,750.0,,,,61598cba874ca07729d42b2a,16:44:47,27/03/2024
html-keyboard-response,168,346314,0.0-69.0-3.0,,<div style='margin:auto;width: auto; font-size: 150%'><span style='font-weight: bold; font-size: 100px; color: green;'>+10 points!</span><br><br></div>,,delaylearn,learning,feedback_image_window,kI4gm6nOBxgUXIDGZlHkqGXQsmv2,kI4gm6nOBxgUXIDGZlHkqGXQsmv2,,,,,,,,,,,,,,,,,,,,,,61598cba874ca07729d42b2a,16:44:47,27/03/2024
html-keyboard-response,169,346830,0.0-70.0-0.0,,,,,,mood_trial_fixation,kI4gm6nOBxgUXIDGZlHkqGXQsmv2,,,,,,,,,,,,,,,,,,,,,,,61598cba874ca07729d42b2a,16:44:47,27/03/2024
lmdlab-html-vas-response,170,351105,0.0-70.0-1.0,3257.0,How happy are you right now?,0.6527777777777778,delaylearn,learning,mood_trial,kI4gm6nOBxgUXIDGZlHkqGXQsmv2,kI4gm6nOBxgUXIDGZlHkqGXQsmv2,,,,,,,,,,,,,,,,,,,,"['Very unhappy', 'Very happy']",,61598cba874ca07729d42b2a,16:44:47,27/03/2024
html-keyboard-response,171,352644,0.0-71.0,,"<div style=""font-size:100px;"">+</div>",,delaylearn,learning,ITI,kI4gm6nOBxgUXIDGZlHkqGXQsmv2,kI4gm6nOBxgUXIDGZlHkqGXQsmv2,,,,,,,,,,,,,,,,,,,1532.0,,,61598cba874ca07729d42b2a,16:44:47,27/03/2024
html-keyboard-response,172,354665,0.0-72.0-0.0,2018.4000000953674,"<div style=""display: flex; flex-direction: column; align-items: center; margin-top: -40px;""><img src=""images/pattern_4.png"" style=""width: 234px; height: 230px; margin-top: -50px;""><div style=""display: flex; justify-content: space-between; margin-top: 33px;""><img src=""images/choice_trial_9.png"" style=""width: 408px; height: 417px; margin-right: 200px;""><img src=""images/choice_trial_15.png"" style=""width: 408px; height: 417px;""></div></div>",f,delaylearn,learning,trial,kI4gm6nOBxgUXIDGZlHkqGXQsmv2,kI4gm6nOBxgUXIDGZlHkqGXQsmv2,3.0,images/choice_trial_9.png,images/choice_trial_15.png,images/pattern_4.png,j,j,7000.0,9.0,15.0,3.0,1.0,31.0,0.0,0.0,9.0,180.0,,,,,,61598cba874ca07729d42b2a,16:44:47,27/03/2024
html-keyboard-response,173,355677,0.0-72.0-1.0,,"<div style=""display: flex; flex-direction: column; align-items: center; margin-top: -40px;""><img src=""images/pattern_4.png"" style=""width: 234px; height: 230px; margin-top: -50px;""><div style=""display: flex; justify-content: space-between; margin-top: 33px;""><img src=""images/choice_trial_9.png"" style=""width: 408px; height: 417px; margin-right: 608px;""></div></div>",,delaylearn,learning,display_response,kI4gm6nOBxgUXIDGZlHkqGXQsmv2,kI4gm6nOBxgUXIDGZlHkqGXQsmv2,,,,,,,,,,,,,,,,,chosen stimuli: images/choice_trial_9.png,,,,,61598cba874ca07729d42b2a,16:44:47,27/03/2024
html-keyboard-response,174,362683,0.0-72.0-2.0,,,,delaylearn,learning,feedback_duration_window,kI4gm6nOBxgUXIDGZlHkqGXQsmv2,kI4gm6nOBxgUXIDGZlHkqGXQsmv2,,,,,,,,,,,,,,,,,,7000.0,,,,61598cba874ca07729d42b2a,16:44:47,27/03/2024
html-keyboard-response,175,364198,0.0-72.0-3.0,,<div style='margin:auto;width: auto; font-size: 150%'><span style='font-weight: bold; font-size: 100px; color: red;'>0 points!</span><br><br></div>,,delaylearn,learning,feedback_image_window,kI4gm6nOBxgUXIDGZlHkqGXQsmv2,kI4gm6nOBxgUXIDGZlHkqGXQsmv2,,,,,,,,,,,,,,,,,,,,,,61598cba874ca07729d42b2a,16:44:47,27/03/2024
html-keyboard-response,176,365902,0.0-73.0,,"<div style=""font-size:100px;"">+</div>",,delaylearn,learning,ITI,kI4gm6nOBxgUXIDGZlHkqGXQsmv2,kI4gm6nOBxgUXIDGZlHkqGXQsmv2,,,,,,,,,,,,,,,,,,,1693.0,,,61598cba874ca07729d42b2a,16:44:47,27/03/2024
html-keyboard-response,177,367066,0.0-74.0-0.0,1156.2999999523163,"<div style=""display: flex; flex-direction: column; align-items: center; margin-top: -40px;""><img src=""images/pattern_3.png"" style=""width: 234px; height: 230px; margin-top: -50px;""><div style=""display: flex; justify-content: space-between; margin-top: 33px;""><img src=""images/choice_trial_10.png"" style=""width: 408px; height: 417px; margin-right: 200px;""><img src=""images/choice_trial_13.png"" style=""width: 408px; height: 417px;""></div></div>",j,delaylearn,learning,trial,kI4gm6nOBxgUXIDGZlHkqGXQsmv2,kI4gm6nOBxgUXIDGZlHkqGXQsmv2,3.0,images/choice_trial_10.png,images/choice_trial_13.png,images/pattern_3.png,j,j,7000.0,10.0,13.0,2.0,1.0,32.0,1.0,1.0,13.0,190.0,,,,,,61598cba874ca07729d42b2a,16:44:47,27/03/2024
html-keyboard-response,178,368082,0.0-74.0-1.0,,"<div style=""display: flex; flex-direction: column; align-items: center; margin-top: -40px;""><img src=""images/pattern_3.png"" style=""width: 234px; height: 230px; margin-top: -50px;""><div style=""display: flex; justify-content: space-between; margin-top: 33px;""><img src=""images/choice_trial_13.png"" style=""width: 408px; height: 417px; margin-left:608px;""></div></div>",,delaylearn,learning,display_response,kI4gm6nOBxgUXIDGZlHkqGXQsmv2,kI4gm6nOBxgUXIDGZlHkqGXQsmv2,,,,,,,,,,,,,,,,,chosen stimuli: images/choice_trial_13.png,,,,,61598cba874ca07729d42b2a,16:44:47,27/03/2024
html-keyboard-response,179,375094,0.0-74.0-2.0,,,,delaylearn,learning,feedback_duration_window,kI4gm6nOBxgUXIDGZlHkqGXQsmv2,kI4gm6nOBxgUXIDGZlHkqGXQsmv2,,,,,,,,,,,,,,,,,,7000.0,,,,61598cba874ca07729d42b2a,16:44:47,27/03/2024
html-keyboard-response,180,376603,0.0-74.0-3.0,,<div style='margin:auto;width: auto; font-size: 150%'><span style='font-weight: bold; font-size: 100px; color: green;'>+10 points!</span><br><br></div>,,delaylearn,learning,feedback_image_window,kI4gm6nOBxgUXIDGZlHkqGXQsmv2,kI4gm6nOBxgUXIDGZlHkqGXQsmv2,,,,,,,,,,,,,,,,,,,,,,61598cba874ca07729d42b2a,16:44:47,27/03/2024
html-keyboard-response,181,378501,0.0-75.0,,"<div style=""font-size:100px;"">+</div>",,delaylearn,learning,ITI,kI4gm6nOBxgUXIDGZlHkqGXQsmv2,kI4gm6nOBxgUXIDGZlHkqGXQsmv2,,,,,,,,,,,,,,,,,,,1887.0,,,61598cba874ca07729d42b2a,16:44:47,27/03/2024
html-keyboard-response,182,380101,0.0-76.0-0.0,1591.8999998569489,"<div style=""display: flex; flex-direction: column; align-items: center; margin-top: -40px;""><img src=""images/pattern_5.png"" style=""width: 234px; height: 230px; margin-top: -50px;""><div style=""display: flex; justify-content: space-between; margin-top: 33px;""><img src=""images/choice_trial_11.png"" style=""width: 408px; height: 417px; margin-right: 200px;""><img src=""images/choice_trial_2.png"" style=""width: 408px; height: 417px;""></div></div>",f,delaylearn,learning,trial,kI4gm6nOBxgUXIDGZlHkqGXQsmv2,kI4gm6nOBxgUXIDGZlHkqGXQsmv2,3.0,images/choice_trial_11.png,images/choice_trial_2.png,images/pattern_5.png,j,f,750.0,11.0,2.0,4.0,0.0,33.0,1.0,0.0,11.0,190.0,,,,,,61598cba874ca07729d42b2a,16:44:47,27/03/2024
html-keyboard-response,183,381107,0.0-76.0-1.0,,"<div style=""display: flex; flex-direction: column; align-items: center; margin-top: -40px;""><img src=""images/pattern_5.png"" style=""width: 234px; height: 230px; margin-top: -50px;""><div style=""display: flex; justify-content: space-between; margin-top: 33px;""><img src=""images/choice_trial_11.png"" style=""width: 408px; height: 417px; margin-right: 608px;""></div></div>",,delaylearn,learning,display_response,kI4gm6nOBxgUXIDGZlHkqGXQsmv2,kI4gm6nOBxgUXIDGZlHkqGXQsmv2,,,,,,,,,,,,,,,,,chosen stimuli: images/choice_trial_11.png,,,,,61598cba874ca07729d42b2a,16:44:47,27/03/2024
html-keyboard-response,184,381867,0.0-76.0-2.0,,,,delaylearn,learning,feedback_duration_window,kI4gm6nOBxgUXIDGZlHkqGXQsmv2,kI4gm6nOBxgUXIDGZlHkqGXQsmv2,,,,,,,,,,,,,,,,,,750.0,,,,61598cba874ca07729d42b2a,16:44:47,27/03/2024
html-keyboard-response,185,383381,0.0-76.0-3.0,,<div style='margin:auto;width: auto; font-size: 150%'><span style='font-weight: bold; font-size: 100px; color: red;'>0 points!</span><br><br></div>,,delaylearn,learning,feedback_image_window,kI4gm6nOBxgUXIDGZlHkqGXQsmv2,kI4gm6nOBxgUXIDGZlHkqGXQsmv2,,,,,,,,,,,,,,,,,,,,,,61598cba874ca07729d42b2a,16:44:47,27/03/2024
html-keyboard-response,186,384898,0.0-77.0,,"<div style=""font-size:100px;"">+</div>",,delaylearn,learning,ITI,kI4gm6nOBxgUXIDGZlHkqGXQsmv2,kI4gm6nOBxgUXIDGZlHkqGXQsmv2,,,,,,,,,,,,,,,,,,,1511.0,,,61598cba874ca07729d42b2a,16:44:47,27/03/2024
html-keyboard-response,187,385719,0.0-78.0-0.0,817.9000000953674,"<div style=""display: flex; flex-direction: column; align-items: center; margin-top: -40px;""><img src=""images/pattern_1.png"" style=""width: 234px; height: 230px; margin-top: -50px;""><div style=""display: flex; justify-content: space-between; margin-top: 33px;""><img src=""images/choice_trial_14.png"" style=""width: 408px; height: 417px; margin-right: 200px;""><img src=""images/choice_trial_8.png"" style=""width: 408px; height: 417px;""></div></div>",f,delaylearn,learning,trial,kI4gm6nOBxgUXIDGZlHkqGXQsmv2,kI4gm6nOBxgUXIDGZlHkqGXQsmv2,3.0,images/choice_trial_14.png,images/choice_trial_8.png,images/pattern_1.png,f,f,7000.0,14.0,8.0,1.0,0.0,34.0,1.0,1.0,14.0,200.0,,,,,,61598cba874ca07729d42b2a,16:44:47,27/03/2024
html-keyboard-response,188,386732,0.0-78.0-1.0,,"<div style=""display: flex; flex-direction: column; align-items: center; margin-top: -40px;""><img src=""images/pattern_1.png"" style=""width: 234px; height: 230px; margin-top: -50px;""><div style=""display: flex; justify-content: space-between; margin-top: 33px;""><img src=""images/choice_trial_14.png"" style=""width: 408px; height: 417px; margin-right: 608px;""></div></div>",,delaylearn,learning,display_response,kI4gm6nOBxgUXIDGZlHkqGXQsmv2,kI4gm6nOBxgUXIDGZlHkqGXQsmv2,,,,,,,,,,,,,,,,,chosen stimuli: images/choice_trial_14.png,,,,,61598cba874ca07729d42b2a,16:44:47,27/03/2024
html-keyboard-response,189,393742,0.0-78.0-2.0,,,,delaylearn,learning,feedback_duration_window,kI4gm6nOBxgUXIDGZlHkqGXQsmv2,kI4gm6nOBxgUXIDGZlHkqGXQsmv2,,,,,,,,,,,,,,,,,,7000.0,,,,61598cba874ca07729d42b2a,16:44:47,27/03/2024
html-keyboard-response,190,395255,0.0-78.0-3.0,,<div style='margin:auto;width: auto; font-size: 150%'><span style='font-weight: bold; font-size: 100px; color: green;'>+10 points!</span><br><br></div>,,delaylearn,learning,feedback_image_window,kI4gm6nOBxgUXIDGZlHkqGXQsmv2,kI4gm6nOBxgUXIDGZlHkqGXQsmv2,,,,,,,,,,,,,,,,,,,,,,61598cba874ca07729d42b2a,16:44:47,27/03/2024
html-keyboard-response,191,395772,0.0-79.0-0.0,,,,,,mood_trial_fixation,kI4gm6nOBxgUXIDGZlHkqGXQsmv2,,,,,,,,,,,,,,,,,,,,,,,61598cba874ca07729d42b2a,16:44:47,27/03/2024
lmdlab-html-vas-response,192,399929,0.0-79.0-1.0,3143.0,How happy are you right now?,0.49421296296296297,delaylearn,learning,mood_trial,kI4gm6nOBxgUXIDGZlHkqGXQsmv2,kI4gm6nOBxgUXIDGZlHkqGXQsmv2,,,,,,,,,,,,,,,,,,,,"['Very unhappy', 'Very happy']",,61598cba874ca07729d42b2a,16:44:47,27/03/2024
html-keyboard-response,193,402358,0.0-80.0,,"<div style=""font-size:100px;"">+</div>",,delaylearn,learning,ITI,kI4gm6nOBxgUXIDGZlHkqGXQsmv2,kI4gm6nOBxgUXIDGZlHkqGXQsmv2,,,,,,,,,,,,,,,,,,,2420.0,,,61598cba874ca07729d42b2a,16:44:47,27/03/2024
html-keyboard-response,194,404010,0.0-81.0-0.0,1648.6000001430511,"<div style=""display: flex; flex-direction: column; align-items: center; margin-top: -40px;""><img src=""images/pattern_6.png"" style=""width: 234px; height: 230px; margin-top: -50px;""><div style=""display: flex; justify-content: space-between; margin-top: 33px;""><img src=""images/choice_trial_16.png"" style=""width: 408px; height: 417px; margin-right: 200px;""><img src=""images/choice_trial_3.png"" style=""width: 408px; height: 417px;""></div></div>",f,delaylearn,learning,trial,kI4gm6nOBxgUXIDGZlHkqGXQsmv2,kI4gm6nOBxgUXIDGZlHkqGXQsmv2,3.0,images/choice_trial_16.png,images/choice_trial_3.png,images/pattern_6.png,j,f,750.0,16.0,3.0,5.0,0.0,35.0,1.0,0.0,16.0,200.0,,,,,,61598cba874ca07729d42b2a,16:44:47,27/03/2024
html-keyboard-response,195,405023,0.0-81.0-1.0,,"<div style=""display: flex; flex-direction: column; align-items: center; margin-top: -40px;""><img src=""images/pattern_6.png"" style=""width: 234px; height: 230px; margin-top: -50px;""><div style=""display: flex; justify-content: space-between; margin-top: 33px;""><img src=""images/choice_trial_16.png"" style=""width: 408px; height: 417px; margin-right: 608px;""></div></div>",,delaylearn,learning,display_response,kI4gm6nOBxgUXIDGZlHkqGXQsmv2,kI4gm6nOBxgUXIDGZlHkqGXQsmv2,,,,,,,,,,,,,,,,,chosen stimuli: images/choice_trial_16.png,,,,,61598cba874ca07729d42b2a,16:44:47,27/03/2024
html-keyboard-response,196,405782,0.0-81.0-2.0,,,,delaylearn,learning,feedback_duration_window,kI4gm6nOBxgUXIDGZlHkqGXQsmv2,kI4gm6nOBxgUXIDGZlHkqGXQsmv2,,,,,,,,,,,,,,,,,,750.0,,,,61598cba874ca07729d42b2a,16:44:47,27/03/2024
html-keyboard-response,197,407297,0.0-81.0-3.0,,<div style='margin:auto;width: auto; font-size: 150%'><span style='font-weight: bold; font-size: 100px; color: red;'>0 points!</span><br><br></div>,,delaylearn,learning,feedback_image_window,kI4gm6nOBxgUXIDGZlHkqGXQsmv2,kI4gm6nOBxgUXIDGZlHkqGXQsmv2,,,,,,,,,,,,,,,,,,,,,,61598cba874ca07729d42b2a,16:44:47,27/03/2024
html-keyboard-response,198,408933,0.0-82.0,,"<div style=""font-size:100px;"">+</div>",,delaylearn,learning,ITI,kI4gm6nOBxgUXIDGZlHkqGXQsmv2,kI4gm6nOBxgUXIDGZlHkqGXQsmv2,,,,,,,,,,,,,,,,,,,1624.0,,,61598cba874ca07729d42b2a,16:44:47,27/03/2024
html-keyboard-response,199,409957,0.0-83.0-0.0,1016.1000001430511,"<div style=""display: flex; flex-direction: column; align-items: center; margin-top: -40px;""><img src=""images/pattern_3.png"" style=""width: 234px; height: 230px; margin-top: -50px;""><div style=""display: flex; justify-content: space-between; margin-top: 33px;""><img src=""images/choice_trial_10.png"" style=""width: 408px; height: 417px; margin-right: 200px;""><img src=""images/choice_trial_13.png"" style=""width: 408px; height: 417px;""></div></div>",j,delaylearn,learning,trial,kI4gm6nOBxgUXIDGZlHkqGXQsmv2,kI4gm6nOBxgUXIDGZlHkqGXQsmv2,3.0,images/choice_trial_10.png,images/choice_trial_13.png,images/pattern_3.png,j,j,7000.0,10.0,13.0,2.0,1.0,36.0,1.0,1.0,13.0,210.0,,,,,,61598cba874ca07729d42b2a,16:44:47,27/03/2024
html-keyboard-response,200,410963,0.0-83.0-1.0,,"<div style=""display: flex; flex-direction: column; align-items: center; margin-top: -40px;""><img src=""images/pattern_3.png"" style=""width: 234px; height: 230px; margin-top: -50px;""><div style=""display: flex; justify-content: space-between; margin-top: 33px;""><img src=""images/choice_trial_13.png"" style=""width: 408px; height: 417px; margin-left:608px;""></div></div>",,delaylearn,learning,display_response,kI4gm6nOBxgUXIDGZlHkqGXQsmv2,kI4gm6nOBxgUXIDGZlHkqGXQsmv2,,,,,,,,,,,,,,,,,chosen stimuli: images/choice_trial_13.png,,,,,61598cba874ca07729d42b2a,16:44:47,27/03/2024
html-keyboard-response,201,417971,0.0-83.0-2.0,,,,delaylearn,learning,feedback_duration_window,kI4gm6nOBxgUXIDGZlHkqGXQsmv2,kI4gm6nOBxgUXIDGZlHkqGXQsmv2,,,,,,,,,,,,,,,,,,7000.0,,,,61598cba874ca07729d42b2a,16:44:47,27/03/2024
html-keyboard-response,202,419474,0.0-83.0-3.0,,<div style='margin:auto;width: auto; font-size: 150%'><span style='font-weight: bold; font-size: 100px; color: green;'>+10 points!</span><br><br></div>,,delaylearn,learning,feedback_image_window,kI4gm6nOBxgUXIDGZlHkqGXQsmv2,kI4gm6nOBxgUXIDGZlHkqGXQsmv2,,,,,,,,,,,,,,,,,,,,,,61598cba874ca07729d42b2a,16:44:47,27/03/2024
html-keyboard-response,203,421523,0.0-84.0,,"<div style=""font-size:100px;"">+</div>",,delaylearn,learning,ITI,kI4gm6nOBxgUXIDGZlHkqGXQsmv2,kI4gm6nOBxgUXIDGZlHkqGXQsmv2,,,,,,,,,,,,,,,,,,,2044.0,,,61598cba874ca07729d42b2a,16:44:47,27/03/2024
html-keyboard-response,204,422842,0.0-85.0-0.0,1308.5999999046326,"<div style=""display: flex; flex-direction: column; align-items: center; margin-top: -40px;""><img src=""images/pattern_4.png"" style=""width: 234px; height: 230px; margin-top: -50px;""><div style=""display: flex; justify-content: space-between; margin-top: 33px;""><img src=""images/choice_trial_9.png"" style=""width: 408px; height: 417px; margin-right: 200px;""><img src=""images/choice_trial_15.png"" style=""width: 408px; height: 417px;""></div></div>",j,delaylearn,learning,trial,kI4gm6nOBxgUXIDGZlHkqGXQsmv2,kI4gm6nOBxgUXIDGZlHkqGXQsmv2,3.0,images/choice_trial_9.png,images/choice_trial_15.png,images/pattern_4.png,f,j,7000.0,9.0,15.0,3.0,1.0,37.0,1.0,0.0,15.0,210.0,,,,,,61598cba874ca07729d42b2a,16:44:47,27/03/2024
html-keyboard-response,205,423859,0.0-85.0-1.0,,"<div style=""display: flex; flex-direction: column; align-items: center; margin-top: -40px;""><img src=""images/pattern_4.png"" style=""width: 234px; height: 230px; margin-top: -50px;""><div style=""display: flex; justify-content: space-between; margin-top: 33px;""><img src=""images/choice_trial_15.png"" style=""width: 408px; height: 417px; margin-left:608px;""></div></div>",,delaylearn,learning,display_response,kI4gm6nOBxgUXIDGZlHkqGXQsmv2,kI4gm6nOBxgUXIDGZlHkqGXQsmv2,,,,,,,,,,,,,,,,,chosen stimuli: images/choice_trial_15.png,,,,,61598cba874ca07729d42b2a,16:44:47,27/03/2024
html-keyboard-response,206,430863,0.0-85.0-2.0,,,,delaylearn,learning,feedback_duration_window,kI4gm6nOBxgUXIDGZlHkqGXQsmv2,kI4gm6nOBxgUXIDGZlHkqGXQsmv2,,,,,,,,,,,,,,,,,,7000.0,,,,61598cba874ca07729d42b2a,16:44:47,27/03/2024
html-keyboard-response,207,432373,0.0-85.0-3.0,,<div style='margin:auto;width: auto; font-size: 150%'><span style='font-weight: bold; font-size: 100px; color: red;'>0 points!</span><br><br></div>,,delaylearn,learning,feedback_image_window,kI4gm6nOBxgUXIDGZlHkqGXQsmv2,kI4gm6nOBxgUXIDGZlHkqGXQsmv2,,,,,,,,,,,,,,,,,,,,,,61598cba874ca07729d42b2a,16:44:47,27/03/2024
html-keyboard-response,208,434740,0.0-86.0,,"<div style=""font-size:100px;"">+</div>",,delaylearn,learning,ITI,kI4gm6nOBxgUXIDGZlHkqGXQsmv2,kI4gm6nOBxgUXIDGZlHkqGXQsmv2,,,,,,,,,,,,,,,,,,,2357.0,,,61598cba874ca07729d42b2a,16:44:47,27/03/2024
html-keyboard-response,209,436027,0.0-87.0-0.0,1277.7999999523163,"<div style=""display: flex; flex-direction: column; align-items: center; margin-top: -40px;""><img src=""images/pattern_7.png"" style=""width: 234px; height: 230px; margin-top: -50px;""><div style=""display: flex; justify-content: space-between; margin-top: 33px;""><img src=""images/choice_trial_6.png"" style=""width: 408px; height: 417px; margin-right: 200px;""><img src=""images/choice_trial_12.png"" style=""width: 408px; height: 417px;""></div></div>",f,delaylearn,learning,trial,kI4gm6nOBxgUXIDGZlHkqGXQsmv2,kI4gm6nOBxgUXIDGZlHkqGXQsmv2,3.0,images/choice_trial_6.png,images/choice_trial_12.png,images/pattern_7.png,f,f,750.0,6.0,12.0,6.0,0.0,38.0,1.0,1.0,6.0,220.0,,,,,,61598cba874ca07729d42b2a,16:44:47,27/03/2024
html-keyboard-response,210,437036,0.0-87.0-1.0,,"<div style=""display: flex; flex-direction: column; align-items: center; margin-top: -40px;""><img src=""images/pattern_7.png"" style=""width: 234px; height: 230px; margin-top: -50px;""><div style=""display: flex; justify-content: space-between; margin-top: 33px;""><img src=""images/choice_trial_6.png"" style=""width: 408px; height: 417px; margin-right: 608px;""></div></div>",,delaylearn,learning,display_response,kI4gm6nOBxgUXIDGZlHkqGXQsmv2,kI4gm6nOBxgUXIDGZlHkqGXQsmv2,,,,,,,,,,,,,,,,,chosen stimuli: images/choice_trial_6.png,,,,,61598cba874ca07729d42b2a,16:44:47,27/03/2024
html-keyboard-response,211,437796,0.0-87.0-2.0,,,,delaylearn,learning,feedback_duration_window,kI4gm6nOBxgUXIDGZlHkqGXQsmv2,kI4gm6nOBxgUXIDGZlHkqGXQsmv2,,,,,,,,,,,,,,,,,,750.0,,,,61598cba874ca07729d42b2a,16:44:47,27/03/2024
html-keyboard-response,212,439306,0.0-87.0-3.0,,<div style='margin:auto;width: auto; font-size: 150%'><span style='font-weight: bold; font-size: 100px; color: green;'>+10 points!</span><br><br></div>,,delaylearn,learning,feedback_image_window,kI4gm6nOBxgUXIDGZlHkqGXQsmv2,kI4gm6nOBxgUXIDGZlHkqGXQsmv2,,,,,,,,,,,,,,,,,,,,,,61598cba874ca07729d42b2a,16:44:47,27/03/2024
html-keyboard-response,213,441461,0.0-88.0,,"<div style=""font-size:100px;"">+</div>",,delaylearn,learning,ITI,kI4gm6nOBxgUXIDGZlHkqGXQsmv2,kI4gm6nOBxgUXIDGZlHkqGXQsmv2,,,,,,,,,,,,,,,,,,,2148.0,,,61598cba874ca07729d42b2a,16:44:47,27/03/2024
html-keyboard-response,214,442435,0.0-89.0-0.0,963.5,"<div style=""display: flex; flex-direction: column; align-items: center; margin-top: -40px;""><img src=""images/pattern_1.png"" style=""width: 234px; height: 230px; margin-top: -50px;""><div style=""display: flex; justify-content: space-between; margin-top: 33px;""><img src=""images/choice_trial_14.png"" style=""width: 408px; height: 417px; margin-right: 200px;""><img src=""images/choice_trial_8.png"" style=""width: 408px; height: 417px;""></div></div>",f,delaylearn,learning,trial,kI4gm6nOBxgUXIDGZlHkqGXQsmv2,kI4gm6nOBxgUXIDGZlHkqGXQsmv2,3.0,images/choice_trial_14.png,images/choice_trial_8.png,images/pattern_1.png,f,f,7000.0,14.0,8.0,1.0,0.0,39.0,1.0,1.0,14.0,230.0,,,,,,61598cba874ca07729d42b2a,16:44:47,27/03/2024
html-keyboard-response,215,443449,0.0-89.0-1.0,,"<div style=""display: flex; flex-direction: column; align-items: center; margin-top: -40px;""><img src=""images/pattern_1.png"" style=""width: 234px; height: 230px; margin-top: -50px;""><div style=""display: flex; justify-content: space-between; margin-top: 33px;""><img src=""images/choice_trial_14.png"" style=""width: 408px; height: 417px; margin-right: 608px;""></div></div>",,delaylearn,learning,display_response,kI4gm6nOBxgUXIDGZlHkqGXQsmv2,kI4gm6nOBxgUXIDGZlHkqGXQsmv2,,,,,,,,,,,,,,,,,chosen stimuli: images/choice_trial_14.png,,,,,61598cba874ca07729d42b2a,16:44:47,27/03/2024
html-keyboard-response,216,450456,0.0-89.0-2.0,,,,delaylearn,learning,feedback_duration_window,kI4gm6nOBxgUXIDGZlHkqGXQsmv2,kI4gm6nOBxgUXIDGZlHkqGXQsmv2,,,,,,,,,,,,,,,,,,7000.0,,,,61598cba874ca07729d42b2a,16:44:47,27/03/2024
html-keyboard-response,217,451962,0.0-89.0-3.0,,<div style='margin:auto;width: auto; font-size: 150%'><span style='font-weight: bold; font-size: 100px; color: green;'>+10 points!</span><br><br></div>,,delaylearn,learning,feedback_image_window,kI4gm6nOBxgUXIDGZlHkqGXQsmv2,kI4gm6nOBxgUXIDGZlHkqGXQsmv2,,,,,,,,,,,,,,,,,,,,,,61598cba874ca07729d42b2a,16:44:47,27/03/2024
html-keyboard-response,218,452477,0.0-90.0-0.0,,,,,,mood_trial_fixation,kI4gm6nOBxgUXIDGZlHkqGXQsmv2,,,,,,,,,,,,,,,,,,,,,,,61598cba874ca07729d42b2a,16:44:47,27/03/2024
lmdlab-html-vas-response,219,456777,0.0-90.0-1.0,3285.0,How happy are you right now?,0.45949074074074076,delaylearn,learning,mood_trial,kI4gm6nOBxgUXIDGZlHkqGXQsmv2,kI4gm6nOBxgUXIDGZlHkqGXQsmv2,,,,,,,,,,,,,,,,,,,,"['Very unhappy', 'Very happy']",,61598cba874ca07729d42b2a,16:44:47,27/03/2024
html-keyboard-response,220,458815,0.0-91.0,,"<div style=""font-size:100px;"">+</div>",,delaylearn,learning,ITI,kI4gm6nOBxgUXIDGZlHkqGXQsmv2,kI4gm6nOBxgUXIDGZlHkqGXQsmv2,,,,,,,,,,,,,,,,,,,2032.0,,,61598cba874ca07729d42b2a,16:44:47,27/03/2024
html-keyboard-response,221,460015,0.0-92.0-0.0,1198.2000000476837,"<div style=""display: flex; flex-direction: column; align-items: center; margin-top: -40px;""><img src=""images/pattern_3.png"" style=""width: 234px; height: 230px; margin-top: -50px;""><div style=""display: flex; justify-content: space-between; margin-top: 33px;""><img src=""images/choice_trial_13.png"" style=""width: 408px; height: 417px; margin-right: 200px;""><img src=""images/choice_trial_10.png"" style=""width: 408px; height: 417px;""></div></div>",f,delaylearn,learning,trial,kI4gm6nOBxgUXIDGZlHkqGXQsmv2,kI4gm6nOBxgUXIDGZlHkqGXQsmv2,3.0,images/choice_trial_13.png,images/choice_trial_10.png,images/pattern_3.png,j,f,7000.0,13.0,10.0,2.0,0.0,40.0,1.0,0.0,13.0,230.0,,,,,,61598cba874ca07729d42b2a,16:44:47,27/03/2024
html-keyboard-response,222,461023,0.0-92.0-1.0,,"<div style=""display: flex; flex-direction: column; align-items: center; margin-top: -40px;""><img src=""images/pattern_3.png"" style=""width: 234px; height: 230px; margin-top: -50px;""><div style=""display: flex; justify-content: space-between; margin-top: 33px;""><img src=""images/choice_trial_13.png"" style=""width: 408px; height: 417px; margin-right: 608px;""></div></div>",,delaylearn,learning,display_response,kI4gm6nOBxgUXIDGZlHkqGXQsmv2,kI4gm6nOBxgUXIDGZlHkqGXQsmv2,,,,,,,,,,,,,,,,,chosen stimuli: images/choice_trial_13.png,,,,,61598cba874ca07729d42b2a,16:44:47,27/03/2024
html-keyboard-response,223,468032,0.0-92.0-2.0,,,,delaylearn,learning,feedback_duration_window,kI4gm6nOBxgUXIDGZlHkqGXQsmv2,kI4gm6nOBxgUXIDGZlHkqGXQsmv2,,,,,,,,,,,,,,,,,,7000.0,,,,61598cba874ca07729d42b2a,16:44:47,27/03/2024
html-keyboard-response,224,469539,0.0-92.0-3.0,,<div style='margin:auto;width: auto; font-size: 150%'><span style='font-weight: bold; font-size: 100px; color: red;'>0 points!</span><br><br></div>,,delaylearn,learning,feedback_image_window,kI4gm6nOBxgUXIDGZlHkqGXQsmv2,kI4gm6nOBxgUXIDGZlHkqGXQsmv2,,,,,,,,,,,,,,,,,,,,,,61598cba874ca07729d42b2a,16:44:47,27/03/2024
html-keyboard-response,225,471241,0.0-93.0,,"<div style=""font-size:100px;"">+</div>",,delaylearn,learning,ITI,kI4gm6nOBxgUXIDGZlHkqGXQsmv2,kI4gm6nOBxgUXIDGZlHkqGXQsmv2,,,,,,,,,,,,,,,,,,,1697.0,,,61598cba874ca07729d42b2a,16:44:47,27/03/2024
html-keyboard-response,226,472177,0.0-94.0-0.0,929.5,"<div style=""display: flex; flex-direction: column; align-items: center; margin-top: -40px;""><img src=""images/pattern_7.png"" style=""width: 234px; height: 230px; margin-top: -50px;""><div style=""display: flex; justify-content: space-between; margin-top: 33px;""><img src=""images/choice_trial_12.png"" style=""width: 408px; height: 417px; margin-right: 200px;""><img src=""images/choice_trial_6.png"" style=""width: 408px; height: 417px;""></div></div>",j,delaylearn,learning,trial,kI4gm6nOBxgUXIDGZlHkqGXQsmv2,kI4gm6nOBxgUXIDGZlHkqGXQsmv2,3.0,images/choice_trial_12.png,images/choice_trial_6.png,images/pattern_7.png,j,j,750.0,12.0,6.0,6.0,1.0,41.0,1.0,1.0,6.0,240.0,,,,,,61598cba874ca07729d42b2a,16:44:47,27/03/2024
html-keyboard-response,227,473193,0.0-94.0-1.0,,"<div style=""display: flex; flex-direction: column; align-items: center; margin-top: -40px;""><img src=""images/pattern_7.png"" style=""width: 234px; height: 230px; margin-top: -50px;""><div style=""display: flex; justify-content: space-between; margin-top: 33px;""><img src=""images/choice_trial_6.png"" style=""width: 408px; height: 417px; margin-left:608px;""></div></div>",,delaylearn,learning,display_response,kI4gm6nOBxgUXIDGZlHkqGXQsmv2,kI4gm6nOBxgUXIDGZlHkqGXQsmv2,,,,,,,,,,,,,,,,,chosen stimuli: images/choice_trial_6.png,,,,,61598cba874ca07729d42b2a,16:44:47,27/03/2024
html-keyboard-response,228,473956,0.0-94.0-2.0,,,,delaylearn,learning,feedback_duration_window,kI4gm6nOBxgUXIDGZlHkqGXQsmv2,kI4gm6nOBxgUXIDGZlHkqGXQsmv2,,,,,,,,,,,,,,,,,,750.0,,,,61598cba874ca07729d42b2a,16:44:47,27/03/2024
html-keyboard-response,229,475466,0.0-94.0-3.0,,<div style='margin:auto;width: auto; font-size: 150%'><span style='font-weight: bold; font-size: 100px; color: green;'>+10 points!</span><br><br></div>,,delaylearn,learning,feedback_image_window,kI4gm6nOBxgUXIDGZlHkqGXQsmv2,kI4gm6nOBxgUXIDGZlHkqGXQsmv2,,,,,,,,,,,,,,,,,,,,,,61598cba874ca07729d42b2a,16:44:47,27/03/2024
html-keyboard-response,230,477054,0.0-95.0,,"<div style=""font-size:100px;"">+</div>",,delaylearn,learning,ITI,kI4gm6nOBxgUXIDGZlHkqGXQsmv2,kI4gm6nOBxgUXIDGZlHkqGXQsmv2,,,,,,,,,,,,,,,,,,,1577.0,,,61598cba874ca07729d42b2a,16:44:47,27/03/2024
