trial_type,trial_index,time_elapsed,internal_node_id,rt,stimulus,response,exp_name,exp_stage,test_part,subjectID,databaseID,counterbal,choice_stimuli_1,choice_stimuli_2,pattern_stimuli,rewarded_answer,correct_answer,feedback_duration_times,stim_left,stim_right,pair,leftright_counter,trial,response_correct,response_rewarded,chosen_stim,counter,displayed_choice,feedback_durations,ITI_duration,labels,rest_warning,prolificID,start_time,date
pavlovia,0,518,0.0-0.0,,,,,,,uWf5fk0seCT5az2jQqZrKINOYOt1,,,,,,,,,,,,,,,,,,,,,,,605772a89b984daa51fb5692,16:53:19,27/03/2024
html-keyboard-response,1,3525,0.0-1.0,,"<div style=""font-size:100px;"">+</div>",,delaylearn,learning,pre_fixation,uWf5fk0seCT5az2jQqZrKINOYOt1,,,,,,,,,,,,,,,,,,,,,,,605772a89b984daa51fb5692,16:53:19,27/03/2024
html-keyboard-response,2,4849,0.0-2.0-0.0,1321.7999999523163,"<div style=""display: flex; flex-direction: column; align-items: center; margin-top: -40px;""><img src=""images/demo_images/pattern_1.png"" style=""width: 234px; height: 230px; margin-top: -50px;""><div style=""display: flex; justify-content: space-between; margin-top: 33px;""><img src=""images/demo_images/choice_trial_2.png"" style=""width: 408px; height: 417px; margin-right: 200px;""><img src=""images/demo_images/choice_trial_1.png"" style=""width: 408px; height: 417px;""></div></div>",f,delaylearn,learning,trial,uWf5fk0seCT5az2jQqZrKINOYOt1,uWf5fk0seCT5az2jQqZrKINOYOt1,1.0,images/demo_images/choice_trial_2.png,images/demo_images/choice_trial_1.png,images/demo_images/pattern_1.png,j,j,3000.0,2.0,1.0,20.0,1.0,1.0,0.0,0.0,2.0,0.0,,,,,,605772a89b984daa51fb5692,16:53:19,27/03/2024
html-keyboard-response,3,5854,0.0-2.0-1.0,,"<div style=""display: flex; flex-direction: column; align-items: center; margin-top: -40px;""><img src=""images/demo_images/pattern_1.png"" style=""width: 234px; height: 230px; margin-top: -50px;""><div style=""display: flex; justify-content: space-between; margin-top: 33px;""><img src=""images/demo_images/choice_trial_2.png"" style=""width: 408px; height: 417px; margin-right: 608px;""></div></div>",,delaylearn,learning,display_response,uWf5fk0seCT5az2jQqZrKINOYOt1,uWf5fk0seCT5az2jQqZrKINOYOt1,,,,,,,,,,,,,,,,,chosen stimuli: images/demo_images/choice_trial_2.png,,,,,605772a89b984daa51fb5692,16:53:19,27/03/2024
html-keyboard-response,4,8857,0.0-2.0-2.0,,,,delaylearn,learning,feedback_duration_window,uWf5fk0seCT5az2jQqZrKINOYOt1,uWf5fk0seCT5az2jQqZrKINOYOt1,,,,,,,,,,,,,,,,,,3000.0,,,,605772a89b984daa51fb5692,16:53:19,27/03/2024
html-keyboard-response,5,10369,0.0-2.0-3.0,,<div style='margin:auto;width: auto; font-size: 150%'><span style='font-weight: bold; font-size: 100px; color: red;'>0 points!</span><br><br></div>,,delaylearn,learning,feedback_image_window,uWf5fk0seCT5az2jQqZrKINOYOt1,uWf5fk0seCT5az2jQqZrKINOYOt1,,,,,,,,,,,,,,,,,,,,,,605772a89b984daa51fb5692,16:53:19,27/03/2024
html-keyboard-response,6,12705,0.0-3.0,,"<div style=""font-size:100px;"">+</div>",,delaylearn,learning,ITI,uWf5fk0seCT5az2jQqZrKINOYOt1,uWf5fk0seCT5az2jQqZrKINOYOt1,,,,,,,,,,,,,,,,,,,2325.0,,,605772a89b984daa51fb5692,16:53:19,27/03/2024
html-keyboard-response,7,13848,0.0-4.0-0.0,1140.2000000476837,"<div style=""display: flex; flex-direction: column; align-items: center; margin-top: -40px;""><img src=""images/demo_images/pattern_1.png"" style=""width: 234px; height: 230px; margin-top: -50px;""><div style=""display: flex; justify-content: space-between; margin-top: 33px;""><img src=""images/demo_images/choice_trial_2.png"" style=""width: 408px; height: 417px; margin-right: 200px;""><img src=""images/demo_images/choice_trial_1.png"" style=""width: 408px; height: 417px;""></div></div>",j,delaylearn,learning,trial,uWf5fk0seCT5az2jQqZrKINOYOt1,uWf5fk0seCT5az2jQqZrKINOYOt1,1.0,images/demo_images/choice_trial_2.png,images/demo_images/choice_trial_1.png,images/demo_images/pattern_1.png,j,j,3000.0,2.0,1.0,20.0,1.0,2.0,1.0,1.0,1.0,10.0,,,,,,605772a89b984daa51fb5692,16:53:19,27/03/2024
html-keyboard-response,8,14855,0.0-4.0-1.0,,"<div style=""display: flex; flex-direction: column; align-items: center; margin-top: -40px;""><img src=""images/demo_images/pattern_1.png"" style=""width: 234px; height: 230px; margin-top: -50px;""><div style=""display: flex; justify-content: space-between; margin-top: 33px;""><img src=""images/demo_images/choice_trial_1.png"" style=""width: 408px; height: 417px; margin-left:608px;""></div></div>",,delaylearn,learning,display_response,uWf5fk0seCT5az2jQqZrKINOYOt1,uWf5fk0seCT5az2jQqZrKINOYOt1,,,,,,,,,,,,,,,,,chosen stimuli: images/demo_images/choice_trial_1.png,,,,,605772a89b984daa51fb5692,16:53:19,27/03/2024
html-keyboard-response,9,17862,0.0-4.0-2.0,,,,delaylearn,learning,feedback_duration_window,uWf5fk0seCT5az2jQqZrKINOYOt1,uWf5fk0seCT5az2jQqZrKINOYOt1,,,,,,,,,,,,,,,,,,3000.0,,,,605772a89b984daa51fb5692,16:53:19,27/03/2024
html-keyboard-response,10,19369,0.0-4.0-3.0,,<div style='margin:auto;width: auto; font-size: 150%'><span style='font-weight: bold; font-size: 100px; color: green;'>+10 points!</span><br><br></div>,,delaylearn,learning,feedback_image_window,uWf5fk0seCT5az2jQqZrKINOYOt1,uWf5fk0seCT5az2jQqZrKINOYOt1,,,,,,,,,,,,,,,,,,,,,,605772a89b984daa51fb5692,16:53:19,27/03/2024
html-keyboard-response,11,21013,0.0-5.0,,"<div style=""font-size:100px;"">+</div>",,delaylearn,learning,ITI,uWf5fk0seCT5az2jQqZrKINOYOt1,uWf5fk0seCT5az2jQqZrKINOYOt1,,,,,,,,,,,,,,,,,,,1636.0,,,605772a89b984daa51fb5692,16:53:19,27/03/2024
html-keyboard-response,12,22367,0.0-6.0-0.0,1352.4000000953674,"<div style=""display: flex; flex-direction: column; align-items: center; margin-top: -40px;""><img src=""images/demo_images/pattern_1.png"" style=""width: 234px; height: 230px; margin-top: -50px;""><div style=""display: flex; justify-content: space-between; margin-top: 33px;""><img src=""images/demo_images/choice_trial_1.png"" style=""width: 408px; height: 417px; margin-right: 200px;""><img src=""images/demo_images/choice_trial_2.png"" style=""width: 408px; height: 417px;""></div></div>",f,delaylearn,learning,trial,uWf5fk0seCT5az2jQqZrKINOYOt1,uWf5fk0seCT5az2jQqZrKINOYOt1,1.0,images/demo_images/choice_trial_1.png,images/demo_images/choice_trial_2.png,images/demo_images/pattern_1.png,j,f,3000.0,1.0,2.0,20.0,0.0,3.0,1.0,0.0,1.0,10.0,,,,,,605772a89b984daa51fb5692,16:53:19,27/03/2024
html-keyboard-response,13,23384,0.0-6.0-1.0,,"<div style=""display: flex; flex-direction: column; align-items: center; margin-top: -40px;""><img src=""images/demo_images/pattern_1.png"" style=""width: 234px; height: 230px; margin-top: -50px;""><div style=""display: flex; justify-content: space-between; margin-top: 33px;""><img src=""images/demo_images/choice_trial_1.png"" style=""width: 408px; height: 417px; margin-right: 608px;""></div></div>",,delaylearn,learning,display_response,uWf5fk0seCT5az2jQqZrKINOYOt1,uWf5fk0seCT5az2jQqZrKINOYOt1,,,,,,,,,,,,,,,,,chosen stimuli: images/demo_images/choice_trial_1.png,,,,,605772a89b984daa51fb5692,16:53:19,27/03/2024
html-keyboard-response,14,26386,0.0-6.0-2.0,,,,delaylearn,learning,feedback_duration_window,uWf5fk0seCT5az2jQqZrKINOYOt1,uWf5fk0seCT5az2jQqZrKINOYOt1,,,,,,,,,,,,,,,,,,3000.0,,,,605772a89b984daa51fb5692,16:53:19,27/03/2024
html-keyboard-response,15,27904,0.0-6.0-3.0,,<div style='margin:auto;width: auto; font-size: 150%'><span style='font-weight: bold; font-size: 100px; color: red;'>0 points!</span><br><br></div>,,delaylearn,learning,feedback_image_window,uWf5fk0seCT5az2jQqZrKINOYOt1,uWf5fk0seCT5az2jQqZrKINOYOt1,,,,,,,,,,,,,,,,,,,,,,605772a89b984daa51fb5692,16:53:19,27/03/2024
html-keyboard-response,16,30078,0.0-7.0,,"<div style=""font-size:100px;"">+</div>",,delaylearn,learning,ITI,uWf5fk0seCT5az2jQqZrKINOYOt1,uWf5fk0seCT5az2jQqZrKINOYOt1,,,,,,,,,,,,,,,,,,,2171.0,,,605772a89b984daa51fb5692,16:53:19,27/03/2024
html-keyboard-response,17,31856,0.0-8.0-0.0,1776.1000001430511,"<div style=""display: flex; flex-direction: column; align-items: center; margin-top: -40px;""><img src=""images/demo_images/pattern_1.png"" style=""width: 234px; height: 230px; margin-top: -50px;""><div style=""display: flex; justify-content: space-between; margin-top: 33px;""><img src=""images/demo_images/choice_trial_1.png"" style=""width: 408px; height: 417px; margin-right: 200px;""><img src=""images/demo_images/choice_trial_2.png"" style=""width: 408px; height: 417px;""></div></div>",j,delaylearn,learning,trial,uWf5fk0seCT5az2jQqZrKINOYOt1,uWf5fk0seCT5az2jQqZrKINOYOt1,1.0,images/demo_images/choice_trial_1.png,images/demo_images/choice_trial_2.png,images/demo_images/pattern_1.png,f,f,3000.0,1.0,2.0,20.0,0.0,4.0,0.0,0.0,2.0,10.0,,,,,,605772a89b984daa51fb5692,16:53:19,27/03/2024
html-keyboard-response,18,32872,0.0-8.0-1.0,,"<div style=""display: flex; flex-direction: column; align-items: center; margin-top: -40px;""><img src=""images/demo_images/pattern_1.png"" style=""width: 234px; height: 230px; margin-top: -50px;""><div style=""display: flex; justify-content: space-between; margin-top: 33px;""><img src=""images/demo_images/choice_trial_2.png"" style=""width: 408px; height: 417px; margin-left:608px;""></div></div>",,delaylearn,learning,display_response,uWf5fk0seCT5az2jQqZrKINOYOt1,uWf5fk0seCT5az2jQqZrKINOYOt1,,,,,,,,,,,,,,,,,chosen stimuli: images/demo_images/choice_trial_2.png,,,,,605772a89b984daa51fb5692,16:53:19,27/03/2024
html-keyboard-response,19,35878,0.0-8.0-2.0,,,,delaylearn,learning,feedback_duration_window,uWf5fk0seCT5az2jQqZrKINOYOt1,uWf5fk0seCT5az2jQqZrKINOYOt1,,,,,,,,,,,,,,,,,,3000.0,,,,605772a89b984daa51fb5692,16:53:19,27/03/2024
html-keyboard-response,20,37388,0.0-8.0-3.0,,<div style='margin:auto;width: auto; font-size: 150%'><span style='font-weight: bold; font-size: 100px; color: red;'>0 points!</span><br><br></div>,,delaylearn,learning,feedback_image_window,uWf5fk0seCT5az2jQqZrKINOYOt1,uWf5fk0seCT5az2jQqZrKINOYOt1,,,,,,,,,,,,,,,,,,,,,,605772a89b984daa51fb5692,16:53:19,27/03/2024
html-keyboard-response,21,37902,0.0-9.0-0.0,,,,,,mood_trial_fixation,uWf5fk0seCT5az2jQqZrKINOYOt1,,,,,,,,,,,,,,,,,,,,,,,605772a89b984daa51fb5692,16:53:19,27/03/2024
lmdlab-html-vas-response,22,43661,0.0-9.0-1.0,4746.0,How happy are you right now?,0.30092592592592593,delaylearn,learning,mood_trial,uWf5fk0seCT5az2jQqZrKINOYOt1,uWf5fk0seCT5az2jQqZrKINOYOt1,,,,,,,,,,,,,,,,,,,,"['Very unhappy', 'Very happy']",,605772a89b984daa51fb5692,16:53:19,27/03/2024
html-keyboard-response,23,45708,0.0-10.0,,"<div style=""font-size:100px;"">+</div>",,delaylearn,learning,ITI,uWf5fk0seCT5az2jQqZrKINOYOt1,uWf5fk0seCT5az2jQqZrKINOYOt1,,,,,,,,,,,,,,,,,,,2033.0,,,605772a89b984daa51fb5692,16:53:19,27/03/2024
html-keyboard-response,24,47160,0.0-11.0-0.0,1449.5,"<div style=""display: flex; flex-direction: column; align-items: center; margin-top: -40px;""><img src=""images/demo_images/pattern_1.png"" style=""width: 234px; height: 230px; margin-top: -50px;""><div style=""display: flex; justify-content: space-between; margin-top: 33px;""><img src=""images/demo_images/choice_trial_2.png"" style=""width: 408px; height: 417px; margin-right: 200px;""><img src=""images/demo_images/choice_trial_1.png"" style=""width: 408px; height: 417px;""></div></div>",j,delaylearn,learning,trial,uWf5fk0seCT5az2jQqZrKINOYOt1,uWf5fk0seCT5az2jQqZrKINOYOt1,1.0,images/demo_images/choice_trial_2.png,images/demo_images/choice_trial_1.png,images/demo_images/pattern_1.png,j,j,3000.0,2.0,1.0,20.0,1.0,5.0,1.0,1.0,1.0,20.0,,,,,,605772a89b984daa51fb5692,16:53:19,27/03/2024
html-keyboard-response,25,48171,0.0-11.0-1.0,,"<div style=""display: flex; flex-direction: column; align-items: center; margin-top: -40px;""><img src=""images/demo_images/pattern_1.png"" style=""width: 234px; height: 230px; margin-top: -50px;""><div style=""display: flex; justify-content: space-between; margin-top: 33px;""><img src=""images/demo_images/choice_trial_1.png"" style=""width: 408px; height: 417px; margin-left:608px;""></div></div>",,delaylearn,learning,display_response,uWf5fk0seCT5az2jQqZrKINOYOt1,uWf5fk0seCT5az2jQqZrKINOYOt1,,,,,,,,,,,,,,,,,chosen stimuli: images/demo_images/choice_trial_1.png,,,,,605772a89b984daa51fb5692,16:53:19,27/03/2024
html-keyboard-response,26,51178,0.0-11.0-2.0,,,,delaylearn,learning,feedback_duration_window,uWf5fk0seCT5az2jQqZrKINOYOt1,uWf5fk0seCT5az2jQqZrKINOYOt1,,,,,,,,,,,,,,,,,,3000.0,,,,605772a89b984daa51fb5692,16:53:19,27/03/2024
html-keyboard-response,27,52682,0.0-11.0-3.0,,<div style='margin:auto;width: auto; font-size: 150%'><span style='font-weight: bold; font-size: 100px; color: green;'>+10 points!</span><br><br></div>,,delaylearn,learning,feedback_image_window,uWf5fk0seCT5az2jQqZrKINOYOt1,uWf5fk0seCT5az2jQqZrKINOYOt1,,,,,,,,,,,,,,,,,,,,,,605772a89b984daa51fb5692,16:53:19,27/03/2024
html-keyboard-response,28,54329,0.0-12.0,,"<div style=""font-size:100px;"">+</div>",,delaylearn,learning,ITI,uWf5fk0seCT5az2jQqZrKINOYOt1,uWf5fk0seCT5az2jQqZrKINOYOt1,,,,,,,,,,,,,,,,,,,1632.0,,,605772a89b984daa51fb5692,16:53:19,27/03/2024
html-keyboard-response,29,56200,0.0-13.0-0.0,1869.5,"<div style=""display: flex; flex-direction: column; align-items: center; margin-top: -40px;""><img src=""images/demo_images/pattern_1.png"" style=""width: 234px; height: 230px; margin-top: -50px;""><div style=""display: flex; justify-content: space-between; margin-top: 33px;""><img src=""images/demo_images/choice_trial_1.png"" style=""width: 408px; height: 417px; margin-right: 200px;""><img src=""images/demo_images/choice_trial_2.png"" style=""width: 408px; height: 417px;""></div></div>",f,delaylearn,learning,trial,uWf5fk0seCT5az2jQqZrKINOYOt1,uWf5fk0seCT5az2jQqZrKINOYOt1,1.0,images/demo_images/choice_trial_1.png,images/demo_images/choice_trial_2.png,images/demo_images/pattern_1.png,f,f,3000.0,1.0,2.0,20.0,0.0,6.0,1.0,1.0,1.0,30.0,,,,,,605772a89b984daa51fb5692,16:53:19,27/03/2024
html-keyboard-response,30,57213,0.0-13.0-1.0,,"<div style=""display: flex; flex-direction: column; align-items: center; margin-top: -40px;""><img src=""images/demo_images/pattern_1.png"" style=""width: 234px; height: 230px; margin-top: -50px;""><div style=""display: flex; justify-content: space-between; margin-top: 33px;""><img src=""images/demo_images/choice_trial_1.png"" style=""width: 408px; height: 417px; margin-right: 608px;""></div></div>",,delaylearn,learning,display_response,uWf5fk0seCT5az2jQqZrKINOYOt1,uWf5fk0seCT5az2jQqZrKINOYOt1,,,,,,,,,,,,,,,,,chosen stimuli: images/demo_images/choice_trial_1.png,,,,,605772a89b984daa51fb5692,16:53:19,27/03/2024
html-keyboard-response,31,60226,0.0-13.0-2.0,,,,delaylearn,learning,feedback_duration_window,uWf5fk0seCT5az2jQqZrKINOYOt1,uWf5fk0seCT5az2jQqZrKINOYOt1,,,,,,,,,,,,,,,,,,3000.0,,,,605772a89b984daa51fb5692,16:53:19,27/03/2024
html-keyboard-response,32,61729,0.0-13.0-3.0,,<div style='margin:auto;width: auto; font-size: 150%'><span style='font-weight: bold; font-size: 100px; color: green;'>+10 points!</span><br><br></div>,,delaylearn,learning,feedback_image_window,uWf5fk0seCT5az2jQqZrKINOYOt1,uWf5fk0seCT5az2jQqZrKINOYOt1,,,,,,,,,,,,,,,,,,,,,,605772a89b984daa51fb5692,16:53:19,27/03/2024
html-keyboard-response,33,64195,0.0-14.0,,"<div style=""font-size:100px;"">+</div>",,delaylearn,learning,ITI,uWf5fk0seCT5az2jQqZrKINOYOt1,uWf5fk0seCT5az2jQqZrKINOYOt1,,,,,,,,,,,,,,,,,,,2453.0,,,605772a89b984daa51fb5692,16:53:19,27/03/2024
html-keyboard-response,34,65872,0.0-15.0-0.0,1675.4000000953674,"<div style=""display: flex; flex-direction: column; align-items: center; margin-top: -40px;""><img src=""images/demo_images/pattern_1.png"" style=""width: 234px; height: 230px; margin-top: -50px;""><div style=""display: flex; justify-content: space-between; margin-top: 33px;""><img src=""images/demo_images/choice_trial_2.png"" style=""width: 408px; height: 417px; margin-right: 200px;""><img src=""images/demo_images/choice_trial_1.png"" style=""width: 408px; height: 417px;""></div></div>",j,delaylearn,learning,trial,uWf5fk0seCT5az2jQqZrKINOYOt1,uWf5fk0seCT5az2jQqZrKINOYOt1,1.0,images/demo_images/choice_trial_2.png,images/demo_images/choice_trial_1.png,images/demo_images/pattern_1.png,j,j,3000.0,2.0,1.0,20.0,1.0,7.0,1.0,1.0,1.0,40.0,,,,,,605772a89b984daa51fb5692,16:53:19,27/03/2024
html-keyboard-response,35,66879,0.0-15.0-1.0,,"<div style=""display: flex; flex-direction: column; align-items: center; margin-top: -40px;""><img src=""images/demo_images/pattern_1.png"" style=""width: 234px; height: 230px; margin-top: -50px;""><div style=""display: flex; justify-content: space-between; margin-top: 33px;""><img src=""images/demo_images/choice_trial_1.png"" style=""width: 408px; height: 417px; margin-left:608px;""></div></div>",,delaylearn,learning,display_response,uWf5fk0seCT5az2jQqZrKINOYOt1,uWf5fk0seCT5az2jQqZrKINOYOt1,,,,,,,,,,,,,,,,,chosen stimuli: images/demo_images/choice_trial_1.png,,,,,605772a89b984daa51fb5692,16:53:19,27/03/2024
html-keyboard-response,36,69894,0.0-15.0-2.0,,,,delaylearn,learning,feedback_duration_window,uWf5fk0seCT5az2jQqZrKINOYOt1,uWf5fk0seCT5az2jQqZrKINOYOt1,,,,,,,,,,,,,,,,,,3000.0,,,,605772a89b984daa51fb5692,16:53:19,27/03/2024
html-keyboard-response,37,71400,0.0-15.0-3.0,,<div style='margin:auto;width: auto; font-size: 150%'><span style='font-weight: bold; font-size: 100px; color: green;'>+10 points!</span><br><br></div>,,delaylearn,learning,feedback_image_window,uWf5fk0seCT5az2jQqZrKINOYOt1,uWf5fk0seCT5az2jQqZrKINOYOt1,,,,,,,,,,,,,,,,,,,,,,605772a89b984daa51fb5692,16:53:19,27/03/2024
html-keyboard-response,38,73052,0.0-16.0,,"<div style=""font-size:100px;"">+</div>",,delaylearn,learning,ITI,uWf5fk0seCT5az2jQqZrKINOYOt1,uWf5fk0seCT5az2jQqZrKINOYOt1,,,,,,,,,,,,,,,,,,,1647.0,,,605772a89b984daa51fb5692,16:53:19,27/03/2024
html-keyboard-response,39,74305,0.0-17.0-0.0,1250.2999999523163,"<div style=""display: flex; flex-direction: column; align-items: center; margin-top: -40px;""><img src=""images/demo_images/pattern_1.png"" style=""width: 234px; height: 230px; margin-top: -50px;""><div style=""display: flex; justify-content: space-between; margin-top: 33px;""><img src=""images/demo_images/choice_trial_1.png"" style=""width: 408px; height: 417px; margin-right: 200px;""><img src=""images/demo_images/choice_trial_2.png"" style=""width: 408px; height: 417px;""></div></div>",f,delaylearn,learning,trial,uWf5fk0seCT5az2jQqZrKINOYOt1,uWf5fk0seCT5az2jQqZrKINOYOt1,1.0,images/demo_images/choice_trial_1.png,images/demo_images/choice_trial_2.png,images/demo_images/pattern_1.png,f,f,3000.0,1.0,2.0,20.0,0.0,8.0,1.0,1.0,1.0,50.0,,,,,,605772a89b984daa51fb5692,16:53:19,27/03/2024
html-keyboard-response,40,75314,0.0-17.0-1.0,,"<div style=""display: flex; flex-direction: column; align-items: center; margin-top: -40px;""><img src=""images/demo_images/pattern_1.png"" style=""width: 234px; height: 230px; margin-top: -50px;""><div style=""display: flex; justify-content: space-between; margin-top: 33px;""><img src=""images/demo_images/choice_trial_1.png"" style=""width: 408px; height: 417px; margin-right: 608px;""></div></div>",,delaylearn,learning,display_response,uWf5fk0seCT5az2jQqZrKINOYOt1,uWf5fk0seCT5az2jQqZrKINOYOt1,,,,,,,,,,,,,,,,,chosen stimuli: images/demo_images/choice_trial_1.png,,,,,605772a89b984daa51fb5692,16:53:19,27/03/2024
html-keyboard-response,41,78325,0.0-17.0-2.0,,,,delaylearn,learning,feedback_duration_window,uWf5fk0seCT5az2jQqZrKINOYOt1,uWf5fk0seCT5az2jQqZrKINOYOt1,,,,,,,,,,,,,,,,,,3000.0,,,,605772a89b984daa51fb5692,16:53:19,27/03/2024
html-keyboard-response,42,79832,0.0-17.0-3.0,,<div style='margin:auto;width: auto; font-size: 150%'><span style='font-weight: bold; font-size: 100px; color: green;'>+10 points!</span><br><br></div>,,delaylearn,learning,feedback_image_window,uWf5fk0seCT5az2jQqZrKINOYOt1,uWf5fk0seCT5az2jQqZrKINOYOt1,,,,,,,,,,,,,,,,,,,,,,605772a89b984daa51fb5692,16:53:19,27/03/2024
html-button-response,43,82886,0.0-18.0,3052.7999999523163,"
  <div style=""display: flex; align-items: center; justify-content: center; height: 80vh;"">
  <div>
          <img src=""images/inst_demo_finish.png"" style=""width: 80vw; height:auto;"">
          <br><br>
      </div>
      <br><br>
  </div>",0,,,,uWf5fk0seCT5az2jQqZrKINOYOt1,,,,,,,,,,,,,,,,,,,,,,,605772a89b984daa51fb5692,16:53:19,27/03/2024
html-keyboard-response,44,87286,0.0-19.0,4400.099999904633,"
  <div style=""display: flex; align-items: center; justify-content: center; height: 80vh;"">
  <div>
          <img src=""images/inst_6.png"" style=""width: 80vw; height:auto;"">
          <br><br>
      </div>
      <br><br>
  </div>",j,,,,uWf5fk0seCT5az2jQqZrKINOYOt1,,,,,,,,,,,,,,,,,,,,,,,605772a89b984daa51fb5692,16:53:19,27/03/2024
html-keyboard-response,45,90289,0.0-20.0,,"<div style=""font-size:100px;"">+</div>",,delaylearn,learning,pre_fixation,uWf5fk0seCT5az2jQqZrKINOYOt1,,,,,,,,,,,,,,,,,,,,,,,605772a89b984daa51fb5692,16:53:19,27/03/2024
html-keyboard-response,46,92495,0.0-21.0,,"<div style=""font-size:100px;"">+</div>",,delaylearn,learning,ITI,uWf5fk0seCT5az2jQqZrKINOYOt1,uWf5fk0seCT5az2jQqZrKINOYOt1,,,,,,,,,,,,,,,,,,,2202.0,,,605772a89b984daa51fb5692,16:53:19,27/03/2024
html-keyboard-response,47,93592,0.0-22.0-0.0,1095.0,"<div style=""display: flex; flex-direction: column; align-items: center; margin-top: -40px;""><img src=""images/pattern_3.png"" style=""width: 234px; height: 230px; margin-top: -50px;""><div style=""display: flex; justify-content: space-between; margin-top: 33px;""><img src=""images/choice_trial_5.png"" style=""width: 408px; height: 417px; margin-right: 200px;""><img src=""images/choice_trial_6.png"" style=""width: 408px; height: 417px;""></div></div>",f,delaylearn,learning,trial,uWf5fk0seCT5az2jQqZrKINOYOt1,uWf5fk0seCT5az2jQqZrKINOYOt1,1.0,images/choice_trial_5.png,images/choice_trial_6.png,images/pattern_3.png,f,f,7000.0,5.0,6.0,2.0,0.0,9.0,1.0,1.0,5.0,60.0,,,,,,605772a89b984daa51fb5692,16:53:19,27/03/2024
html-keyboard-response,48,94607,0.0-22.0-1.0,,"<div style=""display: flex; flex-direction: column; align-items: center; margin-top: -40px;""><img src=""images/pattern_3.png"" style=""width: 234px; height: 230px; margin-top: -50px;""><div style=""display: flex; justify-content: space-between; margin-top: 33px;""><img src=""images/choice_trial_5.png"" style=""width: 408px; height: 417px; margin-right: 608px;""></div></div>",,delaylearn,learning,display_response,uWf5fk0seCT5az2jQqZrKINOYOt1,uWf5fk0seCT5az2jQqZrKINOYOt1,,,,,,,,,,,,,,,,,chosen stimuli: images/choice_trial_5.png,,,,,605772a89b984daa51fb5692,16:53:19,27/03/2024
html-keyboard-response,49,101612,0.0-22.0-2.0,,,,delaylearn,learning,feedback_duration_window,uWf5fk0seCT5az2jQqZrKINOYOt1,uWf5fk0seCT5az2jQqZrKINOYOt1,,,,,,,,,,,,,,,,,,7000.0,,,,605772a89b984daa51fb5692,16:53:19,27/03/2024
html-keyboard-response,50,103121,0.0-22.0-3.0,,<div style='margin:auto;width: auto; font-size: 150%'><span style='font-weight: bold; font-size: 100px; color: green;'>+10 points!</span><br><br></div>,,delaylearn,learning,feedback_image_window,uWf5fk0seCT5az2jQqZrKINOYOt1,uWf5fk0seCT5az2jQqZrKINOYOt1,,,,,,,,,,,,,,,,,,,,,,605772a89b984daa51fb5692,16:53:19,27/03/2024
html-keyboard-response,51,104936,0.0-23.0,,"<div style=""font-size:100px;"">+</div>",,delaylearn,learning,ITI,uWf5fk0seCT5az2jQqZrKINOYOt1,uWf5fk0seCT5az2jQqZrKINOYOt1,,,,,,,,,,,,,,,,,,,1808.0,,,605772a89b984daa51fb5692,16:53:19,27/03/2024
html-keyboard-response,52,106672,0.0-24.0-0.0,1734.0,"<div style=""display: flex; flex-direction: column; align-items: center; margin-top: -40px;""><img src=""images/pattern_7.png"" style=""width: 234px; height: 230px; margin-top: -50px;""><div style=""display: flex; justify-content: space-between; margin-top: 33px;""><img src=""images/choice_trial_14.png"" style=""width: 408px; height: 417px; margin-right: 200px;""><img src=""images/choice_trial_13.png"" style=""width: 408px; height: 417px;""></div></div>",f,delaylearn,learning,trial,uWf5fk0seCT5az2jQqZrKINOYOt1,uWf5fk0seCT5az2jQqZrKINOYOt1,1.0,images/choice_trial_14.png,images/choice_trial_13.png,images/pattern_7.png,j,j,750.0,14.0,13.0,6.0,1.0,10.0,0.0,0.0,14.0,60.0,,,,,,605772a89b984daa51fb5692,16:53:19,27/03/2024
html-keyboard-response,53,107680,0.0-24.0-1.0,,"<div style=""display: flex; flex-direction: column; align-items: center; margin-top: -40px;""><img src=""images/pattern_7.png"" style=""width: 234px; height: 230px; margin-top: -50px;""><div style=""display: flex; justify-content: space-between; margin-top: 33px;""><img src=""images/choice_trial_14.png"" style=""width: 408px; height: 417px; margin-right: 608px;""></div></div>",,delaylearn,learning,display_response,uWf5fk0seCT5az2jQqZrKINOYOt1,uWf5fk0seCT5az2jQqZrKINOYOt1,,,,,,,,,,,,,,,,,chosen stimuli: images/choice_trial_14.png,,,,,605772a89b984daa51fb5692,16:53:19,27/03/2024
html-keyboard-response,54,108437,0.0-24.0-2.0,,,,delaylearn,learning,feedback_duration_window,uWf5fk0seCT5az2jQqZrKINOYOt1,uWf5fk0seCT5az2jQqZrKINOYOt1,,,,,,,,,,,,,,,,,,750.0,,,,605772a89b984daa51fb5692,16:53:19,27/03/2024
html-keyboard-response,55,109945,0.0-24.0-3.0,,<div style='margin:auto;width: auto; font-size: 150%'><span style='font-weight: bold; font-size: 100px; color: red;'>0 points!</span><br><br></div>,,delaylearn,learning,feedback_image_window,uWf5fk0seCT5az2jQqZrKINOYOt1,uWf5fk0seCT5az2jQqZrKINOYOt1,,,,,,,,,,,,,,,,,,,,,,605772a89b984daa51fb5692,16:53:19,27/03/2024
html-keyboard-response,56,111496,0.0-25.0,,"<div style=""font-size:100px;"">+</div>",,delaylearn,learning,ITI,uWf5fk0seCT5az2jQqZrKINOYOt1,uWf5fk0seCT5az2jQqZrKINOYOt1,,,,,,,,,,,,,,,,,,,1549.0,,,605772a89b984daa51fb5692,16:53:19,27/03/2024
html-keyboard-response,57,112872,0.0-26.0-0.0,1374.1000001430511,"<div style=""display: flex; flex-direction: column; align-items: center; margin-top: -40px;""><img src=""images/pattern_4.png"" style=""width: 234px; height: 230px; margin-top: -50px;""><div style=""display: flex; justify-content: space-between; margin-top: 33px;""><img src=""images/choice_trial_7.png"" style=""width: 408px; height: 417px; margin-right: 200px;""><img src=""images/choice_trial_8.png"" style=""width: 408px; height: 417px;""></div></div>",f,delaylearn,learning,trial,uWf5fk0seCT5az2jQqZrKINOYOt1,uWf5fk0seCT5az2jQqZrKINOYOt1,1.0,images/choice_trial_7.png,images/choice_trial_8.png,images/pattern_4.png,f,f,7000.0,7.0,8.0,3.0,0.0,11.0,1.0,1.0,7.0,70.0,,,,,,605772a89b984daa51fb5692,16:53:19,27/03/2024
html-keyboard-response,58,113887,0.0-26.0-1.0,,"<div style=""display: flex; flex-direction: column; align-items: center; margin-top: -40px;""><img src=""images/pattern_4.png"" style=""width: 234px; height: 230px; margin-top: -50px;""><div style=""display: flex; justify-content: space-between; margin-top: 33px;""><img src=""images/choice_trial_7.png"" style=""width: 408px; height: 417px; margin-right: 608px;""></div></div>",,delaylearn,learning,display_response,uWf5fk0seCT5az2jQqZrKINOYOt1,uWf5fk0seCT5az2jQqZrKINOYOt1,,,,,,,,,,,,,,,,,chosen stimuli: images/choice_trial_7.png,,,,,605772a89b984daa51fb5692,16:53:19,27/03/2024
html-keyboard-response,59,120890,0.0-26.0-2.0,,,,delaylearn,learning,feedback_duration_window,uWf5fk0seCT5az2jQqZrKINOYOt1,uWf5fk0seCT5az2jQqZrKINOYOt1,,,,,,,,,,,,,,,,,,7000.0,,,,605772a89b984daa51fb5692,16:53:19,27/03/2024
html-keyboard-response,60,122393,0.0-26.0-3.0,,<div style='margin:auto;width: auto; font-size: 150%'><span style='font-weight: bold; font-size: 100px; color: green;'>+10 points!</span><br><br></div>,,delaylearn,learning,feedback_image_window,uWf5fk0seCT5az2jQqZrKINOYOt1,uWf5fk0seCT5az2jQqZrKINOYOt1,,,,,,,,,,,,,,,,,,,,,,605772a89b984daa51fb5692,16:53:19,27/03/2024
html-keyboard-response,61,124234,0.0-27.0,,"<div style=""font-size:100px;"">+</div>",,delaylearn,learning,ITI,uWf5fk0seCT5az2jQqZrKINOYOt1,uWf5fk0seCT5az2jQqZrKINOYOt1,,,,,,,,,,,,,,,,,,,1827.0,,,605772a89b984daa51fb5692,16:53:19,27/03/2024
html-keyboard-response,62,126232,0.0-28.0-0.0,1995.9000000953674,"<div style=""display: flex; flex-direction: column; align-items: center; margin-top: -40px;""><img src=""images/pattern_5.png"" style=""width: 234px; height: 230px; margin-top: -50px;""><div style=""display: flex; justify-content: space-between; margin-top: 33px;""><img src=""images/choice_trial_10.png"" style=""width: 408px; height: 417px; margin-right: 200px;""><img src=""images/choice_trial_9.png"" style=""width: 408px; height: 417px;""></div></div>",j,delaylearn,learning,trial,uWf5fk0seCT5az2jQqZrKINOYOt1,uWf5fk0seCT5az2jQqZrKINOYOt1,1.0,images/choice_trial_10.png,images/choice_trial_9.png,images/pattern_5.png,j,j,750.0,10.0,9.0,4.0,1.0,12.0,1.0,1.0,9.0,80.0,,,,,,605772a89b984daa51fb5692,16:53:19,27/03/2024
html-keyboard-response,63,127244,0.0-28.0-1.0,,"<div style=""display: flex; flex-direction: column; align-items: center; margin-top: -40px;""><img src=""images/pattern_5.png"" style=""width: 234px; height: 230px; margin-top: -50px;""><div style=""display: flex; justify-content: space-between; margin-top: 33px;""><img src=""images/choice_trial_9.png"" style=""width: 408px; height: 417px; margin-left:608px;""></div></div>",,delaylearn,learning,display_response,uWf5fk0seCT5az2jQqZrKINOYOt1,uWf5fk0seCT5az2jQqZrKINOYOt1,,,,,,,,,,,,,,,,,chosen stimuli: images/choice_trial_9.png,,,,,605772a89b984daa51fb5692,16:53:19,27/03/2024
html-keyboard-response,64,128000,0.0-28.0-2.0,,,,delaylearn,learning,feedback_duration_window,uWf5fk0seCT5az2jQqZrKINOYOt1,uWf5fk0seCT5az2jQqZrKINOYOt1,,,,,,,,,,,,,,,,,,750.0,,,,605772a89b984daa51fb5692,16:53:19,27/03/2024
html-keyboard-response,65,129505,0.0-28.0-3.0,,<div style='margin:auto;width: auto; font-size: 150%'><span style='font-weight: bold; font-size: 100px; color: green;'>+10 points!</span><br><br></div>,,delaylearn,learning,feedback_image_window,uWf5fk0seCT5az2jQqZrKINOYOt1,uWf5fk0seCT5az2jQqZrKINOYOt1,,,,,,,,,,,,,,,,,,,,,,605772a89b984daa51fb5692,16:53:19,27/03/2024
html-keyboard-response,66,131947,0.0-29.0,,"<div style=""font-size:100px;"">+</div>",,delaylearn,learning,ITI,uWf5fk0seCT5az2jQqZrKINOYOt1,uWf5fk0seCT5az2jQqZrKINOYOt1,,,,,,,,,,,,,,,,,,,2425.0,,,605772a89b984daa51fb5692,16:53:19,27/03/2024
html-keyboard-response,67,134424,0.0-30.0-0.0,2474.5,"<div style=""display: flex; flex-direction: column; align-items: center; margin-top: -40px;""><img src=""images/pattern_6.png"" style=""width: 234px; height: 230px; margin-top: -50px;""><div style=""display: flex; justify-content: space-between; margin-top: 33px;""><img src=""images/choice_trial_11.png"" style=""width: 408px; height: 417px; margin-right: 200px;""><img src=""images/choice_trial_12.png"" style=""width: 408px; height: 417px;""></div></div>",j,delaylearn,learning,trial,uWf5fk0seCT5az2jQqZrKINOYOt1,uWf5fk0seCT5az2jQqZrKINOYOt1,1.0,images/choice_trial_11.png,images/choice_trial_12.png,images/pattern_6.png,j,f,750.0,11.0,12.0,5.0,0.0,13.0,0.0,1.0,12.0,90.0,,,,,,605772a89b984daa51fb5692,16:53:19,27/03/2024
html-keyboard-response,68,135434,0.0-30.0-1.0,,"<div style=""display: flex; flex-direction: column; align-items: center; margin-top: -40px;""><img src=""images/pattern_6.png"" style=""width: 234px; height: 230px; margin-top: -50px;""><div style=""display: flex; justify-content: space-between; margin-top: 33px;""><img src=""images/choice_trial_12.png"" style=""width: 408px; height: 417px; margin-left:608px;""></div></div>",,delaylearn,learning,display_response,uWf5fk0seCT5az2jQqZrKINOYOt1,uWf5fk0seCT5az2jQqZrKINOYOt1,,,,,,,,,,,,,,,,,chosen stimuli: images/choice_trial_12.png,,,,,605772a89b984daa51fb5692,16:53:19,27/03/2024
html-keyboard-response,69,136191,0.0-30.0-2.0,,,,delaylearn,learning,feedback_duration_window,uWf5fk0seCT5az2jQqZrKINOYOt1,uWf5fk0seCT5az2jQqZrKINOYOt1,,,,,,,,,,,,,,,,,,750.0,,,,605772a89b984daa51fb5692,16:53:19,27/03/2024
html-keyboard-response,70,137697,0.0-30.0-3.0,,<div style='margin:auto;width: auto; font-size: 150%'><span style='font-weight: bold; font-size: 100px; color: green;'>+10 points!</span><br><br></div>,,delaylearn,learning,feedback_image_window,uWf5fk0seCT5az2jQqZrKINOYOt1,uWf5fk0seCT5az2jQqZrKINOYOt1,,,,,,,,,,,,,,,,,,,,,,605772a89b984daa51fb5692,16:53:19,27/03/2024
html-keyboard-response,71,138211,0.0-31.0-0.0,,,,,,mood_trial_fixation,uWf5fk0seCT5az2jQqZrKINOYOt1,,,,,,,,,,,,,,,,,,,,,,,605772a89b984daa51fb5692,16:53:19,27/03/2024
lmdlab-html-vas-response,72,142421,0.0-31.0-1.0,3195.0,How happy are you right now?,0.7962962962962963,delaylearn,learning,mood_trial,uWf5fk0seCT5az2jQqZrKINOYOt1,uWf5fk0seCT5az2jQqZrKINOYOt1,,,,,,,,,,,,,,,,,,,,"['Very unhappy', 'Very happy']",,605772a89b984daa51fb5692,16:53:19,27/03/2024
html-keyboard-response,73,144521,0.0-32.0,,"<div style=""font-size:100px;"">+</div>",,delaylearn,learning,ITI,uWf5fk0seCT5az2jQqZrKINOYOt1,uWf5fk0seCT5az2jQqZrKINOYOt1,,,,,,,,,,,,,,,,,,,2094.0,,,605772a89b984daa51fb5692,16:53:19,27/03/2024
html-keyboard-response,74,146072,0.0-33.0-0.0,1548.8999998569489,"<div style=""display: flex; flex-direction: column; align-items: center; margin-top: -40px;""><img src=""images/pattern_1.png"" style=""width: 234px; height: 230px; margin-top: -50px;""><div style=""display: flex; justify-content: space-between; margin-top: 33px;""><img src=""images/choice_trial_2.png"" style=""width: 408px; height: 417px; margin-right: 200px;""><img src=""images/choice_trial_1.png"" style=""width: 408px; height: 417px;""></div></div>",f,delaylearn,learning,trial,uWf5fk0seCT5az2jQqZrKINOYOt1,uWf5fk0seCT5az2jQqZrKINOYOt1,1.0,images/choice_trial_2.png,images/choice_trial_1.png,images/pattern_1.png,j,j,7000.0,2.0,1.0,1.0,1.0,14.0,0.0,0.0,2.0,90.0,,,,,,605772a89b984daa51fb5692,16:53:19,27/03/2024
html-keyboard-response,75,147080,0.0-33.0-1.0,,"<div style=""display: flex; flex-direction: column; align-items: center; margin-top: -40px;""><img src=""images/pattern_1.png"" style=""width: 234px; height: 230px; margin-top: -50px;""><div style=""display: flex; justify-content: space-between; margin-top: 33px;""><img src=""images/choice_trial_2.png"" style=""width: 408px; height: 417px; margin-right: 608px;""></div></div>",,delaylearn,learning,display_response,uWf5fk0seCT5az2jQqZrKINOYOt1,uWf5fk0seCT5az2jQqZrKINOYOt1,,,,,,,,,,,,,,,,,chosen stimuli: images/choice_trial_2.png,,,,,605772a89b984daa51fb5692,16:53:19,27/03/2024
html-keyboard-response,76,154083,0.0-33.0-2.0,,,,delaylearn,learning,feedback_duration_window,uWf5fk0seCT5az2jQqZrKINOYOt1,uWf5fk0seCT5az2jQqZrKINOYOt1,,,,,,,,,,,,,,,,,,7000.0,,,,605772a89b984daa51fb5692,16:53:19,27/03/2024
html-keyboard-response,77,155591,0.0-33.0-3.0,,<div style='margin:auto;width: auto; font-size: 150%'><span style='font-weight: bold; font-size: 100px; color: red;'>0 points!</span><br><br></div>,,delaylearn,learning,feedback_image_window,uWf5fk0seCT5az2jQqZrKINOYOt1,uWf5fk0seCT5az2jQqZrKINOYOt1,,,,,,,,,,,,,,,,,,,,,,605772a89b984daa51fb5692,16:53:19,27/03/2024
html-keyboard-response,78,157699,0.0-34.0,,"<div style=""font-size:100px;"">+</div>",,delaylearn,learning,ITI,uWf5fk0seCT5az2jQqZrKINOYOt1,uWf5fk0seCT5az2jQqZrKINOYOt1,,,,,,,,,,,,,,,,,,,2095.0,,,605772a89b984daa51fb5692,16:53:19,27/03/2024
html-keyboard-response,79,159657,0.0-35.0-0.0,1956.0,"<div style=""display: flex; flex-direction: column; align-items: center; margin-top: -40px;""><img src=""images/pattern_3.png"" style=""width: 234px; height: 230px; margin-top: -50px;""><div style=""display: flex; justify-content: space-between; margin-top: 33px;""><img src=""images/choice_trial_6.png"" style=""width: 408px; height: 417px; margin-right: 200px;""><img src=""images/choice_trial_5.png"" style=""width: 408px; height: 417px;""></div></div>",j,delaylearn,learning,trial,uWf5fk0seCT5az2jQqZrKINOYOt1,uWf5fk0seCT5az2jQqZrKINOYOt1,1.0,images/choice_trial_6.png,images/choice_trial_5.png,images/pattern_3.png,f,j,7000.0,6.0,5.0,2.0,1.0,15.0,1.0,0.0,5.0,90.0,,,,,,605772a89b984daa51fb5692,16:53:19,27/03/2024
html-keyboard-response,80,160666,0.0-35.0-1.0,,"<div style=""display: flex; flex-direction: column; align-items: center; margin-top: -40px;""><img src=""images/pattern_3.png"" style=""width: 234px; height: 230px; margin-top: -50px;""><div style=""display: flex; justify-content: space-between; margin-top: 33px;""><img src=""images/choice_trial_5.png"" style=""width: 408px; height: 417px; margin-left:608px;""></div></div>",,delaylearn,learning,display_response,uWf5fk0seCT5az2jQqZrKINOYOt1,uWf5fk0seCT5az2jQqZrKINOYOt1,,,,,,,,,,,,,,,,,chosen stimuli: images/choice_trial_5.png,,,,,605772a89b984daa51fb5692,16:53:19,27/03/2024
html-keyboard-response,81,167675,0.0-35.0-2.0,,,,delaylearn,learning,feedback_duration_window,uWf5fk0seCT5az2jQqZrKINOYOt1,uWf5fk0seCT5az2jQqZrKINOYOt1,,,,,,,,,,,,,,,,,,7000.0,,,,605772a89b984daa51fb5692,16:53:19,27/03/2024
html-keyboard-response,82,169180,0.0-35.0-3.0,,<div style='margin:auto;width: auto; font-size: 150%'><span style='font-weight: bold; font-size: 100px; color: red;'>0 points!</span><br><br></div>,,delaylearn,learning,feedback_image_window,uWf5fk0seCT5az2jQqZrKINOYOt1,uWf5fk0seCT5az2jQqZrKINOYOt1,,,,,,,,,,,,,,,,,,,,,,605772a89b984daa51fb5692,16:53:19,27/03/2024
html-keyboard-response,83,170764,0.0-36.0,,"<div style=""font-size:100px;"">+</div>",,delaylearn,learning,ITI,uWf5fk0seCT5az2jQqZrKINOYOt1,uWf5fk0seCT5az2jQqZrKINOYOt1,,,,,,,,,,,,,,,,,,,1573.0,,,605772a89b984daa51fb5692,16:53:19,27/03/2024
html-keyboard-response,84,172817,0.0-37.0-0.0,2050.7000000476837,"<div style=""display: flex; flex-direction: column; align-items: center; margin-top: -40px;""><img src=""images/pattern_5.png"" style=""width: 234px; height: 230px; margin-top: -50px;""><div style=""display: flex; justify-content: space-between; margin-top: 33px;""><img src=""images/choice_trial_9.png"" style=""width: 408px; height: 417px; margin-right: 200px;""><img src=""images/choice_trial_10.png"" style=""width: 408px; height: 417px;""></div></div>",f,delaylearn,learning,trial,uWf5fk0seCT5az2jQqZrKINOYOt1,uWf5fk0seCT5az2jQqZrKINOYOt1,1.0,images/choice_trial_9.png,images/choice_trial_10.png,images/pattern_5.png,f,f,750.0,9.0,10.0,4.0,0.0,16.0,1.0,1.0,9.0,100.0,,,,,,605772a89b984daa51fb5692,16:53:19,27/03/2024
html-keyboard-response,85,173827,0.0-37.0-1.0,,"<div style=""display: flex; flex-direction: column; align-items: center; margin-top: -40px;""><img src=""images/pattern_5.png"" style=""width: 234px; height: 230px; margin-top: -50px;""><div style=""display: flex; justify-content: space-between; margin-top: 33px;""><img src=""images/choice_trial_9.png"" style=""width: 408px; height: 417px; margin-right: 608px;""></div></div>",,delaylearn,learning,display_response,uWf5fk0seCT5az2jQqZrKINOYOt1,uWf5fk0seCT5az2jQqZrKINOYOt1,,,,,,,,,,,,,,,,,chosen stimuli: images/choice_trial_9.png,,,,,605772a89b984daa51fb5692,16:53:19,27/03/2024
html-keyboard-response,86,174581,0.0-37.0-2.0,,,,delaylearn,learning,feedback_duration_window,uWf5fk0seCT5az2jQqZrKINOYOt1,uWf5fk0seCT5az2jQqZrKINOYOt1,,,,,,,,,,,,,,,,,,750.0,,,,605772a89b984daa51fb5692,16:53:19,27/03/2024
html-keyboard-response,87,176085,0.0-37.0-3.0,,<div style='margin:auto;width: auto; font-size: 150%'><span style='font-weight: bold; font-size: 100px; color: green;'>+10 points!</span><br><br></div>,,delaylearn,learning,feedback_image_window,uWf5fk0seCT5az2jQqZrKINOYOt1,uWf5fk0seCT5az2jQqZrKINOYOt1,,,,,,,,,,,,,,,,,,,,,,605772a89b984daa51fb5692,16:53:19,27/03/2024
html-keyboard-response,88,176596,0.0-38.0-0.0,,,,,,mood_trial_fixation,uWf5fk0seCT5az2jQqZrKINOYOt1,,,,,,,,,,,,,,,,,,,,,,,605772a89b984daa51fb5692,16:53:19,27/03/2024
lmdlab-html-vas-response,89,180816,0.0-38.0-1.0,3214.0,How happy are you right now?,0.43364197530864196,delaylearn,learning,mood_trial,uWf5fk0seCT5az2jQqZrKINOYOt1,uWf5fk0seCT5az2jQqZrKINOYOt1,,,,,,,,,,,,,,,,,,,,"['Very unhappy', 'Very happy']",,605772a89b984daa51fb5692,16:53:19,27/03/2024
html-keyboard-response,90,182645,0.0-39.0,,"<div style=""font-size:100px;"">+</div>",,delaylearn,learning,ITI,uWf5fk0seCT5az2jQqZrKINOYOt1,uWf5fk0seCT5az2jQqZrKINOYOt1,,,,,,,,,,,,,,,,,,,1813.0,,,605772a89b984daa51fb5692,16:53:19,27/03/2024
html-keyboard-response,91,184256,0.0-40.0-0.0,1609.2999999523163,"<div style=""display: flex; flex-direction: column; align-items: center; margin-top: -40px;""><img src=""images/pattern_6.png"" style=""width: 234px; height: 230px; margin-top: -50px;""><div style=""display: flex; justify-content: space-between; margin-top: 33px;""><img src=""images/choice_trial_11.png"" style=""width: 408px; height: 417px; margin-right: 200px;""><img src=""images/choice_trial_12.png"" style=""width: 408px; height: 417px;""></div></div>",j,delaylearn,learning,trial,uWf5fk0seCT5az2jQqZrKINOYOt1,uWf5fk0seCT5az2jQqZrKINOYOt1,1.0,images/choice_trial_11.png,images/choice_trial_12.png,images/pattern_6.png,f,f,750.0,11.0,12.0,5.0,0.0,17.0,0.0,0.0,12.0,100.0,,,,,,605772a89b984daa51fb5692,16:53:19,27/03/2024
html-keyboard-response,92,185262,0.0-40.0-1.0,,"<div style=""display: flex; flex-direction: column; align-items: center; margin-top: -40px;""><img src=""images/pattern_6.png"" style=""width: 234px; height: 230px; margin-top: -50px;""><div style=""display: flex; justify-content: space-between; margin-top: 33px;""><img src=""images/choice_trial_12.png"" style=""width: 408px; height: 417px; margin-left:608px;""></div></div>",,delaylearn,learning,display_response,uWf5fk0seCT5az2jQqZrKINOYOt1,uWf5fk0seCT5az2jQqZrKINOYOt1,,,,,,,,,,,,,,,,,chosen stimuli: images/choice_trial_12.png,,,,,605772a89b984daa51fb5692,16:53:19,27/03/2024
html-keyboard-response,93,186018,0.0-40.0-2.0,,,,delaylearn,learning,feedback_duration_window,uWf5fk0seCT5az2jQqZrKINOYOt1,uWf5fk0seCT5az2jQqZrKINOYOt1,,,,,,,,,,,,,,,,,,750.0,,,,605772a89b984daa51fb5692,16:53:19,27/03/2024
html-keyboard-response,94,187528,0.0-40.0-3.0,,<div style='margin:auto;width: auto; font-size: 150%'><span style='font-weight: bold; font-size: 100px; color: red;'>0 points!</span><br><br></div>,,delaylearn,learning,feedback_image_window,uWf5fk0seCT5az2jQqZrKINOYOt1,uWf5fk0seCT5az2jQqZrKINOYOt1,,,,,,,,,,,,,,,,,,,,,,605772a89b984daa51fb5692,16:53:19,27/03/2024
html-keyboard-response,95,189376,0.0-41.0,,"<div style=""font-size:100px;"">+</div>",,delaylearn,learning,ITI,uWf5fk0seCT5az2jQqZrKINOYOt1,uWf5fk0seCT5az2jQqZrKINOYOt1,,,,,,,,,,,,,,,,,,,1832.0,,,605772a89b984daa51fb5692,16:53:19,27/03/2024
html-keyboard-response,96,191472,0.0-42.0-0.0,2094.0,"<div style=""display: flex; flex-direction: column; align-items: center; margin-top: -40px;""><img src=""images/pattern_4.png"" style=""width: 234px; height: 230px; margin-top: -50px;""><div style=""display: flex; justify-content: space-between; margin-top: 33px;""><img src=""images/choice_trial_8.png"" style=""width: 408px; height: 417px; margin-right: 200px;""><img src=""images/choice_trial_7.png"" style=""width: 408px; height: 417px;""></div></div>",f,delaylearn,learning,trial,uWf5fk0seCT5az2jQqZrKINOYOt1,uWf5fk0seCT5az2jQqZrKINOYOt1,1.0,images/choice_trial_8.png,images/choice_trial_7.png,images/pattern_4.png,j,j,7000.0,8.0,7.0,3.0,1.0,18.0,0.0,0.0,8.0,100.0,,,,,,605772a89b984daa51fb5692,16:53:19,27/03/2024
html-keyboard-response,97,192482,0.0-42.0-1.0,,"<div style=""display: flex; flex-direction: column; align-items: center; margin-top: -40px;""><img src=""images/pattern_4.png"" style=""width: 234px; height: 230px; margin-top: -50px;""><div style=""display: flex; justify-content: space-between; margin-top: 33px;""><img src=""images/choice_trial_8.png"" style=""width: 408px; height: 417px; margin-right: 608px;""></div></div>",,delaylearn,learning,display_response,uWf5fk0seCT5az2jQqZrKINOYOt1,uWf5fk0seCT5az2jQqZrKINOYOt1,,,,,,,,,,,,,,,,,chosen stimuli: images/choice_trial_8.png,,,,,605772a89b984daa51fb5692,16:53:19,27/03/2024
html-keyboard-response,98,199498,0.0-42.0-2.0,,,,delaylearn,learning,feedback_duration_window,uWf5fk0seCT5az2jQqZrKINOYOt1,uWf5fk0seCT5az2jQqZrKINOYOt1,,,,,,,,,,,,,,,,,,7000.0,,,,605772a89b984daa51fb5692,16:53:19,27/03/2024
html-keyboard-response,99,201007,0.0-42.0-3.0,,<div style='margin:auto;width: auto; font-size: 150%'><span style='font-weight: bold; font-size: 100px; color: red;'>0 points!</span><br><br></div>,,delaylearn,learning,feedback_image_window,uWf5fk0seCT5az2jQqZrKINOYOt1,uWf5fk0seCT5az2jQqZrKINOYOt1,,,,,,,,,,,,,,,,,,,,,,605772a89b984daa51fb5692,16:53:19,27/03/2024
html-keyboard-response,100,202763,0.0-43.0,,"<div style=""font-size:100px;"">+</div>",,delaylearn,learning,ITI,uWf5fk0seCT5az2jQqZrKINOYOt1,uWf5fk0seCT5az2jQqZrKINOYOt1,,,,,,,,,,,,,,,,,,,1752.0,,,605772a89b984daa51fb5692,16:53:19,27/03/2024
html-keyboard-response,101,204504,0.0-44.0-0.0,1739.0999999046326,"<div style=""display: flex; flex-direction: column; align-items: center; margin-top: -40px;""><img src=""images/pattern_7.png"" style=""width: 234px; height: 230px; margin-top: -50px;""><div style=""display: flex; justify-content: space-between; margin-top: 33px;""><img src=""images/choice_trial_13.png"" style=""width: 408px; height: 417px; margin-right: 200px;""><img src=""images/choice_trial_14.png"" style=""width: 408px; height: 417px;""></div></div>",f,delaylearn,learning,trial,uWf5fk0seCT5az2jQqZrKINOYOt1,uWf5fk0seCT5az2jQqZrKINOYOt1,1.0,images/choice_trial_13.png,images/choice_trial_14.png,images/pattern_7.png,j,f,750.0,13.0,14.0,6.0,0.0,19.0,1.0,0.0,13.0,100.0,,,,,,605772a89b984daa51fb5692,16:53:19,27/03/2024
html-keyboard-response,102,205509,0.0-44.0-1.0,,"<div style=""display: flex; flex-direction: column; align-items: center; margin-top: -40px;""><img src=""images/pattern_7.png"" style=""width: 234px; height: 230px; margin-top: -50px;""><div style=""display: flex; justify-content: space-between; margin-top: 33px;""><img src=""images/choice_trial_13.png"" style=""width: 408px; height: 417px; margin-right: 608px;""></div></div>",,delaylearn,learning,display_response,uWf5fk0seCT5az2jQqZrKINOYOt1,uWf5fk0seCT5az2jQqZrKINOYOt1,,,,,,,,,,,,,,,,,chosen stimuli: images/choice_trial_13.png,,,,,605772a89b984daa51fb5692,16:53:19,27/03/2024
html-keyboard-response,103,206265,0.0-44.0-2.0,,,,delaylearn,learning,feedback_duration_window,uWf5fk0seCT5az2jQqZrKINOYOt1,uWf5fk0seCT5az2jQqZrKINOYOt1,,,,,,,,,,,,,,,,,,750.0,,,,605772a89b984daa51fb5692,16:53:19,27/03/2024
html-keyboard-response,104,207773,0.0-44.0-3.0,,<div style='margin:auto;width: auto; font-size: 150%'><span style='font-weight: bold; font-size: 100px; color: red;'>0 points!</span><br><br></div>,,delaylearn,learning,feedback_image_window,uWf5fk0seCT5az2jQqZrKINOYOt1,uWf5fk0seCT5az2jQqZrKINOYOt1,,,,,,,,,,,,,,,,,,,,,,605772a89b984daa51fb5692,16:53:19,27/03/2024
html-keyboard-response,105,209578,0.0-45.0,,"<div style=""font-size:100px;"">+</div>",,delaylearn,learning,ITI,uWf5fk0seCT5az2jQqZrKINOYOt1,uWf5fk0seCT5az2jQqZrKINOYOt1,,,,,,,,,,,,,,,,,,,1790.0,,,605772a89b984daa51fb5692,16:53:19,27/03/2024
html-keyboard-response,106,211040,0.0-46.0-0.0,1459.8999998569489,"<div style=""display: flex; flex-direction: column; align-items: center; margin-top: -40px;""><img src=""images/pattern_1.png"" style=""width: 234px; height: 230px; margin-top: -50px;""><div style=""display: flex; justify-content: space-between; margin-top: 33px;""><img src=""images/choice_trial_1.png"" style=""width: 408px; height: 417px; margin-right: 200px;""><img src=""images/choice_trial_2.png"" style=""width: 408px; height: 417px;""></div></div>",j,delaylearn,learning,trial,uWf5fk0seCT5az2jQqZrKINOYOt1,uWf5fk0seCT5az2jQqZrKINOYOt1,1.0,images/choice_trial_1.png,images/choice_trial_2.png,images/pattern_1.png,f,f,7000.0,1.0,2.0,1.0,0.0,20.0,0.0,0.0,2.0,100.0,,,,,,605772a89b984daa51fb5692,16:53:19,27/03/2024
html-keyboard-response,107,212057,0.0-46.0-1.0,,"<div style=""display: flex; flex-direction: column; align-items: center; margin-top: -40px;""><img src=""images/pattern_1.png"" style=""width: 234px; height: 230px; margin-top: -50px;""><div style=""display: flex; justify-content: space-between; margin-top: 33px;""><img src=""images/choice_trial_2.png"" style=""width: 408px; height: 417px; margin-left:608px;""></div></div>",,delaylearn,learning,display_response,uWf5fk0seCT5az2jQqZrKINOYOt1,uWf5fk0seCT5az2jQqZrKINOYOt1,,,,,,,,,,,,,,,,,chosen stimuli: images/choice_trial_2.png,,,,,605772a89b984daa51fb5692,16:53:19,27/03/2024
html-keyboard-response,108,219070,0.0-46.0-2.0,,,,delaylearn,learning,feedback_duration_window,uWf5fk0seCT5az2jQqZrKINOYOt1,uWf5fk0seCT5az2jQqZrKINOYOt1,,,,,,,,,,,,,,,,,,7000.0,,,,605772a89b984daa51fb5692,16:53:19,27/03/2024
html-keyboard-response,109,220574,0.0-46.0-3.0,,<div style='margin:auto;width: auto; font-size: 150%'><span style='font-weight: bold; font-size: 100px; color: red;'>0 points!</span><br><br></div>,,delaylearn,learning,feedback_image_window,uWf5fk0seCT5az2jQqZrKINOYOt1,uWf5fk0seCT5az2jQqZrKINOYOt1,,,,,,,,,,,,,,,,,,,,,,605772a89b984daa51fb5692,16:53:19,27/03/2024
html-keyboard-response,110,222934,0.0-47.0,,"<div style=""font-size:100px;"">+</div>",,delaylearn,learning,ITI,uWf5fk0seCT5az2jQqZrKINOYOt1,uWf5fk0seCT5az2jQqZrKINOYOt1,,,,,,,,,,,,,,,,,,,2351.0,,,605772a89b984daa51fb5692,16:53:19,27/03/2024
html-keyboard-response,111,224416,0.0-48.0-0.0,1480.7999999523163,"<div style=""display: flex; flex-direction: column; align-items: center; margin-top: -40px;""><img src=""images/pattern_6.png"" style=""width: 234px; height: 230px; margin-top: -50px;""><div style=""display: flex; justify-content: space-between; margin-top: 33px;""><img src=""images/choice_trial_12.png"" style=""width: 408px; height: 417px; margin-right: 200px;""><img src=""images/choice_trial_11.png"" style=""width: 408px; height: 417px;""></div></div>",j,delaylearn,learning,trial,uWf5fk0seCT5az2jQqZrKINOYOt1,uWf5fk0seCT5az2jQqZrKINOYOt1,1.0,images/choice_trial_12.png,images/choice_trial_11.png,images/pattern_6.png,j,j,750.0,12.0,11.0,5.0,1.0,21.0,1.0,1.0,11.0,110.0,,,,,,605772a89b984daa51fb5692,16:53:19,27/03/2024
html-keyboard-response,112,225432,0.0-48.0-1.0,,"<div style=""display: flex; flex-direction: column; align-items: center; margin-top: -40px;""><img src=""images/pattern_6.png"" style=""width: 234px; height: 230px; margin-top: -50px;""><div style=""display: flex; justify-content: space-between; margin-top: 33px;""><img src=""images/choice_trial_11.png"" style=""width: 408px; height: 417px; margin-left:608px;""></div></div>",,delaylearn,learning,display_response,uWf5fk0seCT5az2jQqZrKINOYOt1,uWf5fk0seCT5az2jQqZrKINOYOt1,,,,,,,,,,,,,,,,,chosen stimuli: images/choice_trial_11.png,,,,,605772a89b984daa51fb5692,16:53:19,27/03/2024
html-keyboard-response,113,226193,0.0-48.0-2.0,,,,delaylearn,learning,feedback_duration_window,uWf5fk0seCT5az2jQqZrKINOYOt1,uWf5fk0seCT5az2jQqZrKINOYOt1,,,,,,,,,,,,,,,,,,750.0,,,,605772a89b984daa51fb5692,16:53:19,27/03/2024
html-keyboard-response,114,227699,0.0-48.0-3.0,,<div style='margin:auto;width: auto; font-size: 150%'><span style='font-weight: bold; font-size: 100px; color: green;'>+10 points!</span><br><br></div>,,delaylearn,learning,feedback_image_window,uWf5fk0seCT5az2jQqZrKINOYOt1,uWf5fk0seCT5az2jQqZrKINOYOt1,,,,,,,,,,,,,,,,,,,,,,605772a89b984daa51fb5692,16:53:19,27/03/2024
html-keyboard-response,115,229225,0.0-49.0,,"<div style=""font-size:100px;"">+</div>",,delaylearn,learning,ITI,uWf5fk0seCT5az2jQqZrKINOYOt1,uWf5fk0seCT5az2jQqZrKINOYOt1,,,,,,,,,,,,,,,,,,,1510.0,,,605772a89b984daa51fb5692,16:53:19,27/03/2024
html-keyboard-response,116,231176,0.0-50.0-0.0,1948.5999999046326,"<div style=""display: flex; flex-direction: column; align-items: center; margin-top: -40px;""><img src=""images/pattern_4.png"" style=""width: 234px; height: 230px; margin-top: -50px;""><div style=""display: flex; justify-content: space-between; margin-top: 33px;""><img src=""images/choice_trial_7.png"" style=""width: 408px; height: 417px; margin-right: 200px;""><img src=""images/choice_trial_8.png"" style=""width: 408px; height: 417px;""></div></div>",f,delaylearn,learning,trial,uWf5fk0seCT5az2jQqZrKINOYOt1,uWf5fk0seCT5az2jQqZrKINOYOt1,1.0,images/choice_trial_7.png,images/choice_trial_8.png,images/pattern_4.png,f,f,7000.0,7.0,8.0,3.0,0.0,22.0,1.0,1.0,7.0,120.0,,,,,,605772a89b984daa51fb5692,16:53:19,27/03/2024
html-keyboard-response,117,232181,0.0-50.0-1.0,,"<div style=""display: flex; flex-direction: column; align-items: center; margin-top: -40px;""><img src=""images/pattern_4.png"" style=""width: 234px; height: 230px; margin-top: -50px;""><div style=""display: flex; justify-content: space-between; margin-top: 33px;""><img src=""images/choice_trial_7.png"" style=""width: 408px; height: 417px; margin-right: 608px;""></div></div>",,delaylearn,learning,display_response,uWf5fk0seCT5az2jQqZrKINOYOt1,uWf5fk0seCT5az2jQqZrKINOYOt1,,,,,,,,,,,,,,,,,chosen stimuli: images/choice_trial_7.png,,,,,605772a89b984daa51fb5692,16:53:19,27/03/2024
html-keyboard-response,118,239192,0.0-50.0-2.0,,,,delaylearn,learning,feedback_duration_window,uWf5fk0seCT5az2jQqZrKINOYOt1,uWf5fk0seCT5az2jQqZrKINOYOt1,,,,,,,,,,,,,,,,,,7000.0,,,,605772a89b984daa51fb5692,16:53:19,27/03/2024
html-keyboard-response,119,240697,0.0-50.0-3.0,,<div style='margin:auto;width: auto; font-size: 150%'><span style='font-weight: bold; font-size: 100px; color: green;'>+10 points!</span><br><br></div>,,delaylearn,learning,feedback_image_window,uWf5fk0seCT5az2jQqZrKINOYOt1,uWf5fk0seCT5az2jQqZrKINOYOt1,,,,,,,,,,,,,,,,,,,,,,605772a89b984daa51fb5692,16:53:19,27/03/2024
html-keyboard-response,120,241207,0.0-51.0-0.0,,,,,,mood_trial_fixation,uWf5fk0seCT5az2jQqZrKINOYOt1,,,,,,,,,,,,,,,,,,,,,,,605772a89b984daa51fb5692,16:53:19,27/03/2024
lmdlab-html-vas-response,121,245132,0.0-51.0-1.0,2919.0,How happy are you right now?,0.4228395061728395,delaylearn,learning,mood_trial,uWf5fk0seCT5az2jQqZrKINOYOt1,uWf5fk0seCT5az2jQqZrKINOYOt1,,,,,,,,,,,,,,,,,,,,"['Very unhappy', 'Very happy']",,605772a89b984daa51fb5692,16:53:19,27/03/2024
html-keyboard-response,122,247113,0.0-52.0,,"<div style=""font-size:100px;"">+</div>",,delaylearn,learning,ITI,uWf5fk0seCT5az2jQqZrKINOYOt1,uWf5fk0seCT5az2jQqZrKINOYOt1,,,,,,,,,,,,,,,,,,,1975.0,,,605772a89b984daa51fb5692,16:53:19,27/03/2024
html-keyboard-response,123,248736,0.0-53.0-0.0,1620.2000000476837,"<div style=""display: flex; flex-direction: column; align-items: center; margin-top: -40px;""><img src=""images/pattern_7.png"" style=""width: 234px; height: 230px; margin-top: -50px;""><div style=""display: flex; justify-content: space-between; margin-top: 33px;""><img src=""images/choice_trial_14.png"" style=""width: 408px; height: 417px; margin-right: 200px;""><img src=""images/choice_trial_13.png"" style=""width: 408px; height: 417px;""></div></div>",f,delaylearn,learning,trial,uWf5fk0seCT5az2jQqZrKINOYOt1,uWf5fk0seCT5az2jQqZrKINOYOt1,1.0,images/choice_trial_14.png,images/choice_trial_13.png,images/pattern_7.png,j,j,750.0,14.0,13.0,6.0,1.0,23.0,0.0,0.0,14.0,120.0,,,,,,605772a89b984daa51fb5692,16:53:19,27/03/2024
html-keyboard-response,124,249746,0.0-53.0-1.0,,"<div style=""display: flex; flex-direction: column; align-items: center; margin-top: -40px;""><img src=""images/pattern_7.png"" style=""width: 234px; height: 230px; margin-top: -50px;""><div style=""display: flex; justify-content: space-between; margin-top: 33px;""><img src=""images/choice_trial_14.png"" style=""width: 408px; height: 417px; margin-right: 608px;""></div></div>",,delaylearn,learning,display_response,uWf5fk0seCT5az2jQqZrKINOYOt1,uWf5fk0seCT5az2jQqZrKINOYOt1,,,,,,,,,,,,,,,,,chosen stimuli: images/choice_trial_14.png,,,,,605772a89b984daa51fb5692,16:53:19,27/03/2024
html-keyboard-response,125,250505,0.0-53.0-2.0,,,,delaylearn,learning,feedback_duration_window,uWf5fk0seCT5az2jQqZrKINOYOt1,uWf5fk0seCT5az2jQqZrKINOYOt1,,,,,,,,,,,,,,,,,,750.0,,,,605772a89b984daa51fb5692,16:53:19,27/03/2024
html-keyboard-response,126,252013,0.0-53.0-3.0,,<div style='margin:auto;width: auto; font-size: 150%'><span style='font-weight: bold; font-size: 100px; color: red;'>0 points!</span><br><br></div>,,delaylearn,learning,feedback_image_window,uWf5fk0seCT5az2jQqZrKINOYOt1,uWf5fk0seCT5az2jQqZrKINOYOt1,,,,,,,,,,,,,,,,,,,,,,605772a89b984daa51fb5692,16:53:19,27/03/2024
html-keyboard-response,127,253889,0.0-54.0,,"<div style=""font-size:100px;"">+</div>",,delaylearn,learning,ITI,uWf5fk0seCT5az2jQqZrKINOYOt1,uWf5fk0seCT5az2jQqZrKINOYOt1,,,,,,,,,,,,,,,,,,,1863.0,,,605772a89b984daa51fb5692,16:53:19,27/03/2024
html-keyboard-response,128,255304,0.0-55.0-0.0,1412.5999999046326,"<div style=""display: flex; flex-direction: column; align-items: center; margin-top: -40px;""><img src=""images/pattern_1.png"" style=""width: 234px; height: 230px; margin-top: -50px;""><div style=""display: flex; justify-content: space-between; margin-top: 33px;""><img src=""images/choice_trial_2.png"" style=""width: 408px; height: 417px; margin-right: 200px;""><img src=""images/choice_trial_1.png"" style=""width: 408px; height: 417px;""></div></div>",f,delaylearn,learning,trial,uWf5fk0seCT5az2jQqZrKINOYOt1,uWf5fk0seCT5az2jQqZrKINOYOt1,1.0,images/choice_trial_2.png,images/choice_trial_1.png,images/pattern_1.png,f,j,7000.0,2.0,1.0,1.0,1.0,24.0,0.0,1.0,2.0,130.0,,,,,,605772a89b984daa51fb5692,16:53:19,27/03/2024
html-keyboard-response,129,256320,0.0-55.0-1.0,,"<div style=""display: flex; flex-direction: column; align-items: center; margin-top: -40px;""><img src=""images/pattern_1.png"" style=""width: 234px; height: 230px; margin-top: -50px;""><div style=""display: flex; justify-content: space-between; margin-top: 33px;""><img src=""images/choice_trial_2.png"" style=""width: 408px; height: 417px; margin-right: 608px;""></div></div>",,delaylearn,learning,display_response,uWf5fk0seCT5az2jQqZrKINOYOt1,uWf5fk0seCT5az2jQqZrKINOYOt1,,,,,,,,,,,,,,,,,chosen stimuli: images/choice_trial_2.png,,,,,605772a89b984daa51fb5692,16:53:19,27/03/2024
html-keyboard-response,130,263335,0.0-55.0-2.0,,,,delaylearn,learning,feedback_duration_window,uWf5fk0seCT5az2jQqZrKINOYOt1,uWf5fk0seCT5az2jQqZrKINOYOt1,,,,,,,,,,,,,,,,,,7000.0,,,,605772a89b984daa51fb5692,16:53:19,27/03/2024
html-keyboard-response,131,264840,0.0-55.0-3.0,,<div style='margin:auto;width: auto; font-size: 150%'><span style='font-weight: bold; font-size: 100px; color: green;'>+10 points!</span><br><br></div>,,delaylearn,learning,feedback_image_window,uWf5fk0seCT5az2jQqZrKINOYOt1,uWf5fk0seCT5az2jQqZrKINOYOt1,,,,,,,,,,,,,,,,,,,,,,605772a89b984daa51fb5692,16:53:19,27/03/2024
html-keyboard-response,132,266688,0.0-56.0,,"<div style=""font-size:100px;"">+</div>",,delaylearn,learning,ITI,uWf5fk0seCT5az2jQqZrKINOYOt1,uWf5fk0seCT5az2jQqZrKINOYOt1,,,,,,,,,,,,,,,,,,,1844.0,,,605772a89b984daa51fb5692,16:53:19,27/03/2024
html-keyboard-response,133,268024,0.0-57.0-0.0,1334.4000000953674,"<div style=""display: flex; flex-direction: column; align-items: center; margin-top: -40px;""><img src=""images/pattern_5.png"" style=""width: 234px; height: 230px; margin-top: -50px;""><div style=""display: flex; justify-content: space-between; margin-top: 33px;""><img src=""images/choice_trial_10.png"" style=""width: 408px; height: 417px; margin-right: 200px;""><img src=""images/choice_trial_9.png"" style=""width: 408px; height: 417px;""></div></div>",j,delaylearn,learning,trial,uWf5fk0seCT5az2jQqZrKINOYOt1,uWf5fk0seCT5az2jQqZrKINOYOt1,1.0,images/choice_trial_10.png,images/choice_trial_9.png,images/pattern_5.png,j,j,750.0,10.0,9.0,4.0,1.0,25.0,1.0,1.0,9.0,140.0,,,,,,605772a89b984daa51fb5692,16:53:19,27/03/2024
html-keyboard-response,134,269038,0.0-57.0-1.0,,"<div style=""display: flex; flex-direction: column; align-items: center; margin-top: -40px;""><img src=""images/pattern_5.png"" style=""width: 234px; height: 230px; margin-top: -50px;""><div style=""display: flex; justify-content: space-between; margin-top: 33px;""><img src=""images/choice_trial_9.png"" style=""width: 408px; height: 417px; margin-left:608px;""></div></div>",,delaylearn,learning,display_response,uWf5fk0seCT5az2jQqZrKINOYOt1,uWf5fk0seCT5az2jQqZrKINOYOt1,,,,,,,,,,,,,,,,,chosen stimuli: images/choice_trial_9.png,,,,,605772a89b984daa51fb5692,16:53:19,27/03/2024
html-keyboard-response,135,269795,0.0-57.0-2.0,,,,delaylearn,learning,feedback_duration_window,uWf5fk0seCT5az2jQqZrKINOYOt1,uWf5fk0seCT5az2jQqZrKINOYOt1,,,,,,,,,,,,,,,,,,750.0,,,,605772a89b984daa51fb5692,16:53:19,27/03/2024
html-keyboard-response,136,271311,0.0-57.0-3.0,,<div style='margin:auto;width: auto; font-size: 150%'><span style='font-weight: bold; font-size: 100px; color: green;'>+10 points!</span><br><br></div>,,delaylearn,learning,feedback_image_window,uWf5fk0seCT5az2jQqZrKINOYOt1,uWf5fk0seCT5az2jQqZrKINOYOt1,,,,,,,,,,,,,,,,,,,,,,605772a89b984daa51fb5692,16:53:19,27/03/2024
html-keyboard-response,137,273660,0.0-58.0,,"<div style=""font-size:100px;"">+</div>",,delaylearn,learning,ITI,uWf5fk0seCT5az2jQqZrKINOYOt1,uWf5fk0seCT5az2jQqZrKINOYOt1,,,,,,,,,,,,,,,,,,,2344.0,,,605772a89b984daa51fb5692,16:53:19,27/03/2024
html-keyboard-response,138,275320,0.0-59.0-0.0,1657.8999998569489,"<div style=""display: flex; flex-direction: column; align-items: center; margin-top: -40px;""><img src=""images/pattern_3.png"" style=""width: 234px; height: 230px; margin-top: -50px;""><div style=""display: flex; justify-content: space-between; margin-top: 33px;""><img src=""images/choice_trial_6.png"" style=""width: 408px; height: 417px; margin-right: 200px;""><img src=""images/choice_trial_5.png"" style=""width: 408px; height: 417px;""></div></div>",j,delaylearn,learning,trial,uWf5fk0seCT5az2jQqZrKINOYOt1,uWf5fk0seCT5az2jQqZrKINOYOt1,1.0,images/choice_trial_6.png,images/choice_trial_5.png,images/pattern_3.png,j,j,7000.0,6.0,5.0,2.0,1.0,26.0,1.0,1.0,5.0,150.0,,,,,,605772a89b984daa51fb5692,16:53:19,27/03/2024
html-keyboard-response,139,276329,0.0-59.0-1.0,,"<div style=""display: flex; flex-direction: column; align-items: center; margin-top: -40px;""><img src=""images/pattern_3.png"" style=""width: 234px; height: 230px; margin-top: -50px;""><div style=""display: flex; justify-content: space-between; margin-top: 33px;""><img src=""images/choice_trial_5.png"" style=""width: 408px; height: 417px; margin-left:608px;""></div></div>",,delaylearn,learning,display_response,uWf5fk0seCT5az2jQqZrKINOYOt1,uWf5fk0seCT5az2jQqZrKINOYOt1,,,,,,,,,,,,,,,,,chosen stimuli: images/choice_trial_5.png,,,,,605772a89b984daa51fb5692,16:53:19,27/03/2024
html-keyboard-response,140,283333,0.0-59.0-2.0,,,,delaylearn,learning,feedback_duration_window,uWf5fk0seCT5az2jQqZrKINOYOt1,uWf5fk0seCT5az2jQqZrKINOYOt1,,,,,,,,,,,,,,,,,,7000.0,,,,605772a89b984daa51fb5692,16:53:19,27/03/2024
html-keyboard-response,141,284844,0.0-59.0-3.0,,<div style='margin:auto;width: auto; font-size: 150%'><span style='font-weight: bold; font-size: 100px; color: green;'>+10 points!</span><br><br></div>,,delaylearn,learning,feedback_image_window,uWf5fk0seCT5az2jQqZrKINOYOt1,uWf5fk0seCT5az2jQqZrKINOYOt1,,,,,,,,,,,,,,,,,,,,,,605772a89b984daa51fb5692,16:53:19,27/03/2024
lmdlab-html-vas-response,142,290216,0.0-60.0-0.0,3847.0,*How <b><u>confident</u></b> are you feeling about your answers at this moment?*,0.7407407407407407,rewlearn,rate_confidence,,uWf5fk0seCT5az2jQqZrKINOYOt1,uWf5fk0seCT5az2jQqZrKINOYOt1,,,,,,,,,,,,,,,,,,,,"['No confidence', 'Complete confidence']",,605772a89b984daa51fb5692,16:53:19,27/03/2024
lmdlab-rest-trial-limit,143,303691,0.0-60.0-1.0,11958.799999952316,"<div style=""font-size:40px;""><b>Please take a break!</b><br><br><br><br><p>Great work: you earned 150 points.<br><br><br><p>You have completed part(s) 1 of 5.<br><br><br><br>When you are ready to continue<br><br><br>please click the button.</p><br><br>",0,delaylearn,learning,break,uWf5fk0seCT5az2jQqZrKINOYOt1,uWf5fk0seCT5az2jQqZrKINOYOt1,,,,,,,,,,,,,,,,,,,,,0.0,605772a89b984daa51fb5692,16:53:19,27/03/2024
html-keyboard-response,144,306698,0.0-60.0-2.0,,"<div style=""font-size:100px;"">+</div>",,delaylearn,learning,pre_fixation,uWf5fk0seCT5az2jQqZrKINOYOt1,,,,,,,,,,,,,,,,,,,,,,,605772a89b984daa51fb5692,16:53:19,27/03/2024
lmdlab-html-vas-response,145,310713,0.0-60.0-3.0-0.0,3007.0,How happy are you right now?,0.6188271604938271,delaylearn,learning,mood_baseline,uWf5fk0seCT5az2jQqZrKINOYOt1,uWf5fk0seCT5az2jQqZrKINOYOt1,,,,,,,,,,,,,,,,,,,,"['Very unhappy', 'Very happy']",,605772a89b984daa51fb5692,16:53:19,27/03/2024
html-keyboard-response,146,312228,0.0-60.0-3.0-1.0,,,,,,mood_baseline_fixation,uWf5fk0seCT5az2jQqZrKINOYOt1,,,,,,,,,,,,,,,,,,,,,,,605772a89b984daa51fb5692,16:53:19,27/03/2024
html-keyboard-response,147,314383,0.0-61.0,,"<div style=""font-size:100px;"">+</div>",,delaylearn,learning,ITI,uWf5fk0seCT5az2jQqZrKINOYOt1,uWf5fk0seCT5az2jQqZrKINOYOt1,,,,,,,,,,,,,,,,,,,2143.0,,,605772a89b984daa51fb5692,16:53:19,27/03/2024
html-keyboard-response,148,316010,0.0-62.0-0.0,1624.3999998569489,"<div style=""display: flex; flex-direction: column; align-items: center; margin-top: -40px;""><img src=""images/pattern_7.png"" style=""width: 234px; height: 230px; margin-top: -50px;""><div style=""display: flex; justify-content: space-between; margin-top: 33px;""><img src=""images/choice_trial_14.png"" style=""width: 408px; height: 417px; margin-right: 200px;""><img src=""images/choice_trial_13.png"" style=""width: 408px; height: 417px;""></div></div>",f,delaylearn,learning,trial,uWf5fk0seCT5az2jQqZrKINOYOt1,uWf5fk0seCT5az2jQqZrKINOYOt1,1.0,images/choice_trial_14.png,images/choice_trial_13.png,images/pattern_7.png,j,j,750.0,14.0,13.0,6.0,1.0,27.0,0.0,0.0,14.0,150.0,,,,,,605772a89b984daa51fb5692,16:53:19,27/03/2024
html-keyboard-response,149,317014,0.0-62.0-1.0,,"<div style=""display: flex; flex-direction: column; align-items: center; margin-top: -40px;""><img src=""images/pattern_7.png"" style=""width: 234px; height: 230px; margin-top: -50px;""><div style=""display: flex; justify-content: space-between; margin-top: 33px;""><img src=""images/choice_trial_14.png"" style=""width: 408px; height: 417px; margin-right: 608px;""></div></div>",,delaylearn,learning,display_response,uWf5fk0seCT5az2jQqZrKINOYOt1,uWf5fk0seCT5az2jQqZrKINOYOt1,,,,,,,,,,,,,,,,,chosen stimuli: images/choice_trial_14.png,,,,,605772a89b984daa51fb5692,16:53:19,27/03/2024
html-keyboard-response,150,317777,0.0-62.0-2.0,,,,delaylearn,learning,feedback_duration_window,uWf5fk0seCT5az2jQqZrKINOYOt1,uWf5fk0seCT5az2jQqZrKINOYOt1,,,,,,,,,,,,,,,,,,750.0,,,,605772a89b984daa51fb5692,16:53:19,27/03/2024
html-keyboard-response,151,319294,0.0-62.0-3.0,,<div style='margin:auto;width: auto; font-size: 150%'><span style='font-weight: bold; font-size: 100px; color: red;'>0 points!</span><br><br></div>,,delaylearn,learning,feedback_image_window,uWf5fk0seCT5az2jQqZrKINOYOt1,uWf5fk0seCT5az2jQqZrKINOYOt1,,,,,,,,,,,,,,,,,,,,,,605772a89b984daa51fb5692,16:53:19,27/03/2024
html-keyboard-response,152,319807,0.0-63.0-0.0,,,,,,mood_trial_fixation,uWf5fk0seCT5az2jQqZrKINOYOt1,,,,,,,,,,,,,,,,,,,,,,,605772a89b984daa51fb5692,16:53:19,27/03/2024
lmdlab-html-vas-response,153,323253,0.0-63.0-1.0,2434.0,How happy are you right now?,0.30864197530864196,delaylearn,learning,mood_trial,uWf5fk0seCT5az2jQqZrKINOYOt1,uWf5fk0seCT5az2jQqZrKINOYOt1,,,,,,,,,,,,,,,,,,,,"['Very unhappy', 'Very happy']",,605772a89b984daa51fb5692,16:53:19,27/03/2024
html-keyboard-response,154,325477,0.0-64.0,,"<div style=""font-size:100px;"">+</div>",,delaylearn,learning,ITI,uWf5fk0seCT5az2jQqZrKINOYOt1,uWf5fk0seCT5az2jQqZrKINOYOt1,,,,,,,,,,,,,,,,,,,2221.0,,,605772a89b984daa51fb5692,16:53:19,27/03/2024
html-keyboard-response,155,327017,0.0-65.0-0.0,1537.8000001907349,"<div style=""display: flex; flex-direction: column; align-items: center; margin-top: -40px;""><img src=""images/pattern_1.png"" style=""width: 234px; height: 230px; margin-top: -50px;""><div style=""display: flex; justify-content: space-between; margin-top: 33px;""><img src=""images/choice_trial_1.png"" style=""width: 408px; height: 417px; margin-right: 200px;""><img src=""images/choice_trial_2.png"" style=""width: 408px; height: 417px;""></div></div>",j,delaylearn,learning,trial,uWf5fk0seCT5az2jQqZrKINOYOt1,uWf5fk0seCT5az2jQqZrKINOYOt1,1.0,images/choice_trial_1.png,images/choice_trial_2.png,images/pattern_1.png,f,f,7000.0,1.0,2.0,1.0,0.0,28.0,0.0,0.0,2.0,150.0,,,,,,605772a89b984daa51fb5692,16:53:19,27/03/2024
html-keyboard-response,156,328024,0.0-65.0-1.0,,"<div style=""display: flex; flex-direction: column; align-items: center; margin-top: -40px;""><img src=""images/pattern_1.png"" style=""width: 234px; height: 230px; margin-top: -50px;""><div style=""display: flex; justify-content: space-between; margin-top: 33px;""><img src=""images/choice_trial_2.png"" style=""width: 408px; height: 417px; margin-left:608px;""></div></div>",,delaylearn,learning,display_response,uWf5fk0seCT5az2jQqZrKINOYOt1,uWf5fk0seCT5az2jQqZrKINOYOt1,,,,,,,,,,,,,,,,,chosen stimuli: images/choice_trial_2.png,,,,,605772a89b984daa51fb5692,16:53:19,27/03/2024
html-keyboard-response,157,335034,0.0-65.0-2.0,,,,delaylearn,learning,feedback_duration_window,uWf5fk0seCT5az2jQqZrKINOYOt1,uWf5fk0seCT5az2jQqZrKINOYOt1,,,,,,,,,,,,,,,,,,7000.0,,,,605772a89b984daa51fb5692,16:53:19,27/03/2024
html-keyboard-response,158,336539,0.0-65.0-3.0,,<div style='margin:auto;width: auto; font-size: 150%'><span style='font-weight: bold; font-size: 100px; color: red;'>0 points!</span><br><br></div>,,delaylearn,learning,feedback_image_window,uWf5fk0seCT5az2jQqZrKINOYOt1,uWf5fk0seCT5az2jQqZrKINOYOt1,,,,,,,,,,,,,,,,,,,,,,605772a89b984daa51fb5692,16:53:19,27/03/2024
html-keyboard-response,159,338935,0.0-66.0,,"<div style=""font-size:100px;"">+</div>",,delaylearn,learning,ITI,uWf5fk0seCT5az2jQqZrKINOYOt1,uWf5fk0seCT5az2jQqZrKINOYOt1,,,,,,,,,,,,,,,,,,,2387.0,,,605772a89b984daa51fb5692,16:53:19,27/03/2024
html-keyboard-response,160,340577,0.0-67.0-0.0,1639.2999999523163,"<div style=""display: flex; flex-direction: column; align-items: center; margin-top: -40px;""><img src=""images/pattern_5.png"" style=""width: 234px; height: 230px; margin-top: -50px;""><div style=""display: flex; justify-content: space-between; margin-top: 33px;""><img src=""images/choice_trial_9.png"" style=""width: 408px; height: 417px; margin-right: 200px;""><img src=""images/choice_trial_10.png"" style=""width: 408px; height: 417px;""></div></div>",j,delaylearn,learning,trial,uWf5fk0seCT5az2jQqZrKINOYOt1,uWf5fk0seCT5az2jQqZrKINOYOt1,1.0,images/choice_trial_9.png,images/choice_trial_10.png,images/pattern_5.png,f,f,750.0,9.0,10.0,4.0,0.0,29.0,0.0,0.0,10.0,150.0,,,,,,605772a89b984daa51fb5692,16:53:19,27/03/2024
html-keyboard-response,161,341587,0.0-67.0-1.0,,"<div style=""display: flex; flex-direction: column; align-items: center; margin-top: -40px;""><img src=""images/pattern_5.png"" style=""width: 234px; height: 230px; margin-top: -50px;""><div style=""display: flex; justify-content: space-between; margin-top: 33px;""><img src=""images/choice_trial_10.png"" style=""width: 408px; height: 417px; margin-left:608px;""></div></div>",,delaylearn,learning,display_response,uWf5fk0seCT5az2jQqZrKINOYOt1,uWf5fk0seCT5az2jQqZrKINOYOt1,,,,,,,,,,,,,,,,,chosen stimuli: images/choice_trial_10.png,,,,,605772a89b984daa51fb5692,16:53:19,27/03/2024
html-keyboard-response,162,342347,0.0-67.0-2.0,,,,delaylearn,learning,feedback_duration_window,uWf5fk0seCT5az2jQqZrKINOYOt1,uWf5fk0seCT5az2jQqZrKINOYOt1,,,,,,,,,,,,,,,,,,750.0,,,,605772a89b984daa51fb5692,16:53:19,27/03/2024
html-keyboard-response,163,343864,0.0-67.0-3.0,,<div style='margin:auto;width: auto; font-size: 150%'><span style='font-weight: bold; font-size: 100px; color: red;'>0 points!</span><br><br></div>,,delaylearn,learning,feedback_image_window,uWf5fk0seCT5az2jQqZrKINOYOt1,uWf5fk0seCT5az2jQqZrKINOYOt1,,,,,,,,,,,,,,,,,,,,,,605772a89b984daa51fb5692,16:53:19,27/03/2024
html-keyboard-response,164,345910,0.0-68.0,,"<div style=""font-size:100px;"">+</div>",,delaylearn,learning,ITI,uWf5fk0seCT5az2jQqZrKINOYOt1,uWf5fk0seCT5az2jQqZrKINOYOt1,,,,,,,,,,,,,,,,,,,2037.0,,,605772a89b984daa51fb5692,16:53:19,27/03/2024
html-keyboard-response,165,347865,0.0-69.0-0.0,1951.7999999523163,"<div style=""display: flex; flex-direction: column; align-items: center; margin-top: -40px;""><img src=""images/pattern_6.png"" style=""width: 234px; height: 230px; margin-top: -50px;""><div style=""display: flex; justify-content: space-between; margin-top: 33px;""><img src=""images/choice_trial_12.png"" style=""width: 408px; height: 417px; margin-right: 200px;""><img src=""images/choice_trial_11.png"" style=""width: 408px; height: 417px;""></div></div>",f,delaylearn,learning,trial,uWf5fk0seCT5az2jQqZrKINOYOt1,uWf5fk0seCT5az2jQqZrKINOYOt1,1.0,images/choice_trial_12.png,images/choice_trial_11.png,images/pattern_6.png,j,j,750.0,12.0,11.0,5.0,1.0,30.0,0.0,0.0,12.0,150.0,,,,,,605772a89b984daa51fb5692,16:53:19,27/03/2024
html-keyboard-response,166,348870,0.0-69.0-1.0,,"<div style=""display: flex; flex-direction: column; align-items: center; margin-top: -40px;""><img src=""images/pattern_6.png"" style=""width: 234px; height: 230px; margin-top: -50px;""><div style=""display: flex; justify-content: space-between; margin-top: 33px;""><img src=""images/choice_trial_12.png"" style=""width: 408px; height: 417px; margin-right: 608px;""></div></div>",,delaylearn,learning,display_response,uWf5fk0seCT5az2jQqZrKINOYOt1,uWf5fk0seCT5az2jQqZrKINOYOt1,,,,,,,,,,,,,,,,,chosen stimuli: images/choice_trial_12.png,,,,,605772a89b984daa51fb5692,16:53:19,27/03/2024
html-keyboard-response,167,349631,0.0-69.0-2.0,,,,delaylearn,learning,feedback_duration_window,uWf5fk0seCT5az2jQqZrKINOYOt1,uWf5fk0seCT5az2jQqZrKINOYOt1,,,,,,,,,,,,,,,,,,750.0,,,,605772a89b984daa51fb5692,16:53:19,27/03/2024
html-keyboard-response,168,351148,0.0-69.0-3.0,,<div style='margin:auto;width: auto; font-size: 150%'><span style='font-weight: bold; font-size: 100px; color: red;'>0 points!</span><br><br></div>,,delaylearn,learning,feedback_image_window,uWf5fk0seCT5az2jQqZrKINOYOt1,uWf5fk0seCT5az2jQqZrKINOYOt1,,,,,,,,,,,,,,,,,,,,,,605772a89b984daa51fb5692,16:53:19,27/03/2024
html-keyboard-response,169,351660,0.0-70.0-0.0,,,,,,mood_trial_fixation,uWf5fk0seCT5az2jQqZrKINOYOt1,,,,,,,,,,,,,,,,,,,,,,,605772a89b984daa51fb5692,16:53:19,27/03/2024
lmdlab-html-vas-response,170,354917,0.0-70.0-1.0,2244.0,How happy are you right now?,0.1712962962962963,delaylearn,learning,mood_trial,uWf5fk0seCT5az2jQqZrKINOYOt1,uWf5fk0seCT5az2jQqZrKINOYOt1,,,,,,,,,,,,,,,,,,,,"['Very unhappy', 'Very happy']",,605772a89b984daa51fb5692,16:53:19,27/03/2024
html-keyboard-response,171,356455,0.0-71.0,,"<div style=""font-size:100px;"">+</div>",,delaylearn,learning,ITI,uWf5fk0seCT5az2jQqZrKINOYOt1,uWf5fk0seCT5az2jQqZrKINOYOt1,,,,,,,,,,,,,,,,,,,1527.0,,,605772a89b984daa51fb5692,16:53:19,27/03/2024
html-keyboard-response,172,357984,0.0-72.0-0.0,1527.2999999523163,"<div style=""display: flex; flex-direction: column; align-items: center; margin-top: -40px;""><img src=""images/pattern_4.png"" style=""width: 234px; height: 230px; margin-top: -50px;""><div style=""display: flex; justify-content: space-between; margin-top: 33px;""><img src=""images/choice_trial_8.png"" style=""width: 408px; height: 417px; margin-right: 200px;""><img src=""images/choice_trial_7.png"" style=""width: 408px; height: 417px;""></div></div>",f,delaylearn,learning,trial,uWf5fk0seCT5az2jQqZrKINOYOt1,uWf5fk0seCT5az2jQqZrKINOYOt1,1.0,images/choice_trial_8.png,images/choice_trial_7.png,images/pattern_4.png,j,j,7000.0,8.0,7.0,3.0,1.0,31.0,0.0,0.0,8.0,150.0,,,,,,605772a89b984daa51fb5692,16:53:19,27/03/2024
html-keyboard-response,173,358999,0.0-72.0-1.0,,"<div style=""display: flex; flex-direction: column; align-items: center; margin-top: -40px;""><img src=""images/pattern_4.png"" style=""width: 234px; height: 230px; margin-top: -50px;""><div style=""display: flex; justify-content: space-between; margin-top: 33px;""><img src=""images/choice_trial_8.png"" style=""width: 408px; height: 417px; margin-right: 608px;""></div></div>",,delaylearn,learning,display_response,uWf5fk0seCT5az2jQqZrKINOYOt1,uWf5fk0seCT5az2jQqZrKINOYOt1,,,,,,,,,,,,,,,,,chosen stimuli: images/choice_trial_8.png,,,,,605772a89b984daa51fb5692,16:53:19,27/03/2024
html-keyboard-response,174,366007,0.0-72.0-2.0,,,,delaylearn,learning,feedback_duration_window,uWf5fk0seCT5az2jQqZrKINOYOt1,uWf5fk0seCT5az2jQqZrKINOYOt1,,,,,,,,,,,,,,,,,,7000.0,,,,605772a89b984daa51fb5692,16:53:19,27/03/2024
html-keyboard-response,175,367512,0.0-72.0-3.0,,<div style='margin:auto;width: auto; font-size: 150%'><span style='font-weight: bold; font-size: 100px; color: red;'>0 points!</span><br><br></div>,,delaylearn,learning,feedback_image_window,uWf5fk0seCT5az2jQqZrKINOYOt1,uWf5fk0seCT5az2jQqZrKINOYOt1,,,,,,,,,,,,,,,,,,,,,,605772a89b984daa51fb5692,16:53:19,27/03/2024
html-keyboard-response,176,369467,0.0-73.0,,"<div style=""font-size:100px;"">+</div>",,delaylearn,learning,ITI,uWf5fk0seCT5az2jQqZrKINOYOt1,uWf5fk0seCT5az2jQqZrKINOYOt1,,,,,,,,,,,,,,,,,,,1947.0,,,605772a89b984daa51fb5692,16:53:19,27/03/2024
html-keyboard-response,177,371000,0.0-74.0-0.0,1531.5,"<div style=""display: flex; flex-direction: column; align-items: center; margin-top: -40px;""><img src=""images/pattern_3.png"" style=""width: 234px; height: 230px; margin-top: -50px;""><div style=""display: flex; justify-content: space-between; margin-top: 33px;""><img src=""images/choice_trial_6.png"" style=""width: 408px; height: 417px; margin-right: 200px;""><img src=""images/choice_trial_5.png"" style=""width: 408px; height: 417px;""></div></div>",j,delaylearn,learning,trial,uWf5fk0seCT5az2jQqZrKINOYOt1,uWf5fk0seCT5az2jQqZrKINOYOt1,1.0,images/choice_trial_6.png,images/choice_trial_5.png,images/pattern_3.png,j,j,7000.0,6.0,5.0,2.0,1.0,32.0,1.0,1.0,5.0,160.0,,,,,,605772a89b984daa51fb5692,16:53:19,27/03/2024
html-keyboard-response,178,372006,0.0-74.0-1.0,,"<div style=""display: flex; flex-direction: column; align-items: center; margin-top: -40px;""><img src=""images/pattern_3.png"" style=""width: 234px; height: 230px; margin-top: -50px;""><div style=""display: flex; justify-content: space-between; margin-top: 33px;""><img src=""images/choice_trial_5.png"" style=""width: 408px; height: 417px; margin-left:608px;""></div></div>",,delaylearn,learning,display_response,uWf5fk0seCT5az2jQqZrKINOYOt1,uWf5fk0seCT5az2jQqZrKINOYOt1,,,,,,,,,,,,,,,,,chosen stimuli: images/choice_trial_5.png,,,,,605772a89b984daa51fb5692,16:53:19,27/03/2024
html-keyboard-response,179,379022,0.0-74.0-2.0,,,,delaylearn,learning,feedback_duration_window,uWf5fk0seCT5az2jQqZrKINOYOt1,uWf5fk0seCT5az2jQqZrKINOYOt1,,,,,,,,,,,,,,,,,,7000.0,,,,605772a89b984daa51fb5692,16:53:19,27/03/2024
html-keyboard-response,180,380528,0.0-74.0-3.0,,<div style='margin:auto;width: auto; font-size: 150%'><span style='font-weight: bold; font-size: 100px; color: green;'>+10 points!</span><br><br></div>,,delaylearn,learning,feedback_image_window,uWf5fk0seCT5az2jQqZrKINOYOt1,uWf5fk0seCT5az2jQqZrKINOYOt1,,,,,,,,,,,,,,,,,,,,,,605772a89b984daa51fb5692,16:53:19,27/03/2024
html-keyboard-response,181,382339,0.0-75.0,,"<div style=""font-size:100px;"">+</div>",,delaylearn,learning,ITI,uWf5fk0seCT5az2jQqZrKINOYOt1,uWf5fk0seCT5az2jQqZrKINOYOt1,,,,,,,,,,,,,,,,,,,1807.0,,,605772a89b984daa51fb5692,16:53:19,27/03/2024
html-keyboard-response,182,383744,0.0-76.0-0.0,1402.9000000953674,"<div style=""display: flex; flex-direction: column; align-items: center; margin-top: -40px;""><img src=""images/pattern_5.png"" style=""width: 234px; height: 230px; margin-top: -50px;""><div style=""display: flex; justify-content: space-between; margin-top: 33px;""><img src=""images/choice_trial_9.png"" style=""width: 408px; height: 417px; margin-right: 200px;""><img src=""images/choice_trial_10.png"" style=""width: 408px; height: 417px;""></div></div>",f,delaylearn,learning,trial,uWf5fk0seCT5az2jQqZrKINOYOt1,uWf5fk0seCT5az2jQqZrKINOYOt1,1.0,images/choice_trial_9.png,images/choice_trial_10.png,images/pattern_5.png,j,f,750.0,9.0,10.0,4.0,0.0,33.0,1.0,0.0,9.0,160.0,,,,,,605772a89b984daa51fb5692,16:53:19,27/03/2024
html-keyboard-response,183,384760,0.0-76.0-1.0,,"<div style=""display: flex; flex-direction: column; align-items: center; margin-top: -40px;""><img src=""images/pattern_5.png"" style=""width: 234px; height: 230px; margin-top: -50px;""><div style=""display: flex; justify-content: space-between; margin-top: 33px;""><img src=""images/choice_trial_9.png"" style=""width: 408px; height: 417px; margin-right: 608px;""></div></div>",,delaylearn,learning,display_response,uWf5fk0seCT5az2jQqZrKINOYOt1,uWf5fk0seCT5az2jQqZrKINOYOt1,,,,,,,,,,,,,,,,,chosen stimuli: images/choice_trial_9.png,,,,,605772a89b984daa51fb5692,16:53:19,27/03/2024
html-keyboard-response,184,385522,0.0-76.0-2.0,,,,delaylearn,learning,feedback_duration_window,uWf5fk0seCT5az2jQqZrKINOYOt1,uWf5fk0seCT5az2jQqZrKINOYOt1,,,,,,,,,,,,,,,,,,750.0,,,,605772a89b984daa51fb5692,16:53:19,27/03/2024
html-keyboard-response,185,387027,0.0-76.0-3.0,,<div style='margin:auto;width: auto; font-size: 150%'><span style='font-weight: bold; font-size: 100px; color: red;'>0 points!</span><br><br></div>,,delaylearn,learning,feedback_image_window,uWf5fk0seCT5az2jQqZrKINOYOt1,uWf5fk0seCT5az2jQqZrKINOYOt1,,,,,,,,,,,,,,,,,,,,,,605772a89b984daa51fb5692,16:53:19,27/03/2024
html-keyboard-response,186,389236,0.0-77.0,,"<div style=""font-size:100px;"">+</div>",,delaylearn,learning,ITI,uWf5fk0seCT5az2jQqZrKINOYOt1,uWf5fk0seCT5az2jQqZrKINOYOt1,,,,,,,,,,,,,,,,,,,2205.0,,,605772a89b984daa51fb5692,16:53:19,27/03/2024
html-keyboard-response,187,390992,0.0-78.0-0.0,1752.5,"<div style=""display: flex; flex-direction: column; align-items: center; margin-top: -40px;""><img src=""images/pattern_1.png"" style=""width: 234px; height: 230px; margin-top: -50px;""><div style=""display: flex; justify-content: space-between; margin-top: 33px;""><img src=""images/choice_trial_1.png"" style=""width: 408px; height: 417px; margin-right: 200px;""><img src=""images/choice_trial_2.png"" style=""width: 408px; height: 417px;""></div></div>",f,delaylearn,learning,trial,uWf5fk0seCT5az2jQqZrKINOYOt1,uWf5fk0seCT5az2jQqZrKINOYOt1,1.0,images/choice_trial_1.png,images/choice_trial_2.png,images/pattern_1.png,f,f,7000.0,1.0,2.0,1.0,0.0,34.0,1.0,1.0,1.0,170.0,,,,,,605772a89b984daa51fb5692,16:53:19,27/03/2024
html-keyboard-response,188,392003,0.0-78.0-1.0,,"<div style=""display: flex; flex-direction: column; align-items: center; margin-top: -40px;""><img src=""images/pattern_1.png"" style=""width: 234px; height: 230px; margin-top: -50px;""><div style=""display: flex; justify-content: space-between; margin-top: 33px;""><img src=""images/choice_trial_1.png"" style=""width: 408px; height: 417px; margin-right: 608px;""></div></div>",,delaylearn,learning,display_response,uWf5fk0seCT5az2jQqZrKINOYOt1,uWf5fk0seCT5az2jQqZrKINOYOt1,,,,,,,,,,,,,,,,,chosen stimuli: images/choice_trial_1.png,,,,,605772a89b984daa51fb5692,16:53:19,27/03/2024
html-keyboard-response,189,399004,0.0-78.0-2.0,,,,delaylearn,learning,feedback_duration_window,uWf5fk0seCT5az2jQqZrKINOYOt1,uWf5fk0seCT5az2jQqZrKINOYOt1,,,,,,,,,,,,,,,,,,7000.0,,,,605772a89b984daa51fb5692,16:53:19,27/03/2024
html-keyboard-response,190,400509,0.0-78.0-3.0,,<div style='margin:auto;width: auto; font-size: 150%'><span style='font-weight: bold; font-size: 100px; color: green;'>+10 points!</span><br><br></div>,,delaylearn,learning,feedback_image_window,uWf5fk0seCT5az2jQqZrKINOYOt1,uWf5fk0seCT5az2jQqZrKINOYOt1,,,,,,,,,,,,,,,,,,,,,,605772a89b984daa51fb5692,16:53:19,27/03/2024
html-keyboard-response,191,401014,0.0-79.0-0.0,,,,,,mood_trial_fixation,uWf5fk0seCT5az2jQqZrKINOYOt1,,,,,,,,,,,,,,,,,,,,,,,605772a89b984daa51fb5692,16:53:19,27/03/2024
lmdlab-html-vas-response,192,404618,0.0-79.0-1.0,2596.0,How happy are you right now?,0.566358024691358,delaylearn,learning,mood_trial,uWf5fk0seCT5az2jQqZrKINOYOt1,uWf5fk0seCT5az2jQqZrKINOYOt1,,,,,,,,,,,,,,,,,,,,"['Very unhappy', 'Very happy']",,605772a89b984daa51fb5692,16:53:19,27/03/2024
html-keyboard-response,193,407030,0.0-80.0,,"<div style=""font-size:100px;"">+</div>",,delaylearn,learning,ITI,uWf5fk0seCT5az2jQqZrKINOYOt1,uWf5fk0seCT5az2jQqZrKINOYOt1,,,,,,,,,,,,,,,,,,,2396.0,,,605772a89b984daa51fb5692,16:53:19,27/03/2024
html-keyboard-response,194,408888,0.0-81.0-0.0,1855.0,"<div style=""display: flex; flex-direction: column; align-items: center; margin-top: -40px;""><img src=""images/pattern_6.png"" style=""width: 234px; height: 230px; margin-top: -50px;""><div style=""display: flex; justify-content: space-between; margin-top: 33px;""><img src=""images/choice_trial_11.png"" style=""width: 408px; height: 417px; margin-right: 200px;""><img src=""images/choice_trial_12.png"" style=""width: 408px; height: 417px;""></div></div>",f,delaylearn,learning,trial,uWf5fk0seCT5az2jQqZrKINOYOt1,uWf5fk0seCT5az2jQqZrKINOYOt1,1.0,images/choice_trial_11.png,images/choice_trial_12.png,images/pattern_6.png,j,f,750.0,11.0,12.0,5.0,0.0,35.0,1.0,0.0,11.0,170.0,,,,,,605772a89b984daa51fb5692,16:53:19,27/03/2024
html-keyboard-response,195,409894,0.0-81.0-1.0,,"<div style=""display: flex; flex-direction: column; align-items: center; margin-top: -40px;""><img src=""images/pattern_6.png"" style=""width: 234px; height: 230px; margin-top: -50px;""><div style=""display: flex; justify-content: space-between; margin-top: 33px;""><img src=""images/choice_trial_11.png"" style=""width: 408px; height: 417px; margin-right: 608px;""></div></div>",,delaylearn,learning,display_response,uWf5fk0seCT5az2jQqZrKINOYOt1,uWf5fk0seCT5az2jQqZrKINOYOt1,,,,,,,,,,,,,,,,,chosen stimuli: images/choice_trial_11.png,,,,,605772a89b984daa51fb5692,16:53:19,27/03/2024
html-keyboard-response,196,410650,0.0-81.0-2.0,,,,delaylearn,learning,feedback_duration_window,uWf5fk0seCT5az2jQqZrKINOYOt1,uWf5fk0seCT5az2jQqZrKINOYOt1,,,,,,,,,,,,,,,,,,750.0,,,,605772a89b984daa51fb5692,16:53:19,27/03/2024
html-keyboard-response,197,412156,0.0-81.0-3.0,,<div style='margin:auto;width: auto; font-size: 150%'><span style='font-weight: bold; font-size: 100px; color: red;'>0 points!</span><br><br></div>,,delaylearn,learning,feedback_image_window,uWf5fk0seCT5az2jQqZrKINOYOt1,uWf5fk0seCT5az2jQqZrKINOYOt1,,,,,,,,,,,,,,,,,,,,,,605772a89b984daa51fb5692,16:53:19,27/03/2024
html-keyboard-response,198,413797,0.0-82.0,,"<div style=""font-size:100px;"">+</div>",,delaylearn,learning,ITI,uWf5fk0seCT5az2jQqZrKINOYOt1,uWf5fk0seCT5az2jQqZrKINOYOt1,,,,,,,,,,,,,,,,,,,1628.0,,,605772a89b984daa51fb5692,16:53:19,27/03/2024
html-keyboard-response,199,415160,0.0-83.0-0.0,1361.3000001907349,"<div style=""display: flex; flex-direction: column; align-items: center; margin-top: -40px;""><img src=""images/pattern_3.png"" style=""width: 234px; height: 230px; margin-top: -50px;""><div style=""display: flex; justify-content: space-between; margin-top: 33px;""><img src=""images/choice_trial_6.png"" style=""width: 408px; height: 417px; margin-right: 200px;""><img src=""images/choice_trial_5.png"" style=""width: 408px; height: 417px;""></div></div>",j,delaylearn,learning,trial,uWf5fk0seCT5az2jQqZrKINOYOt1,uWf5fk0seCT5az2jQqZrKINOYOt1,1.0,images/choice_trial_6.png,images/choice_trial_5.png,images/pattern_3.png,j,j,7000.0,6.0,5.0,2.0,1.0,36.0,1.0,1.0,5.0,180.0,,,,,,605772a89b984daa51fb5692,16:53:19,27/03/2024
html-keyboard-response,200,416167,0.0-83.0-1.0,,"<div style=""display: flex; flex-direction: column; align-items: center; margin-top: -40px;""><img src=""images/pattern_3.png"" style=""width: 234px; height: 230px; margin-top: -50px;""><div style=""display: flex; justify-content: space-between; margin-top: 33px;""><img src=""images/choice_trial_5.png"" style=""width: 408px; height: 417px; margin-left:608px;""></div></div>",,delaylearn,learning,display_response,uWf5fk0seCT5az2jQqZrKINOYOt1,uWf5fk0seCT5az2jQqZrKINOYOt1,,,,,,,,,,,,,,,,,chosen stimuli: images/choice_trial_5.png,,,,,605772a89b984daa51fb5692,16:53:19,27/03/2024
html-keyboard-response,201,423177,0.0-83.0-2.0,,,,delaylearn,learning,feedback_duration_window,uWf5fk0seCT5az2jQqZrKINOYOt1,uWf5fk0seCT5az2jQqZrKINOYOt1,,,,,,,,,,,,,,,,,,7000.0,,,,605772a89b984daa51fb5692,16:53:19,27/03/2024
html-keyboard-response,202,424680,0.0-83.0-3.0,,<div style='margin:auto;width: auto; font-size: 150%'><span style='font-weight: bold; font-size: 100px; color: green;'>+10 points!</span><br><br></div>,,delaylearn,learning,feedback_image_window,uWf5fk0seCT5az2jQqZrKINOYOt1,uWf5fk0seCT5az2jQqZrKINOYOt1,,,,,,,,,,,,,,,,,,,,,,605772a89b984daa51fb5692,16:53:19,27/03/2024
html-keyboard-response,203,426254,0.0-84.0,,"<div style=""font-size:100px;"">+</div>",,delaylearn,learning,ITI,uWf5fk0seCT5az2jQqZrKINOYOt1,uWf5fk0seCT5az2jQqZrKINOYOt1,,,,,,,,,,,,,,,,,,,1559.0,,,605772a89b984daa51fb5692,16:53:19,27/03/2024
html-keyboard-response,204,428465,0.0-85.0-0.0,2208.2000000476837,"<div style=""display: flex; flex-direction: column; align-items: center; margin-top: -40px;""><img src=""images/pattern_4.png"" style=""width: 234px; height: 230px; margin-top: -50px;""><div style=""display: flex; justify-content: space-between; margin-top: 33px;""><img src=""images/choice_trial_8.png"" style=""width: 408px; height: 417px; margin-right: 200px;""><img src=""images/choice_trial_7.png"" style=""width: 408px; height: 417px;""></div></div>",j,delaylearn,learning,trial,uWf5fk0seCT5az2jQqZrKINOYOt1,uWf5fk0seCT5az2jQqZrKINOYOt1,1.0,images/choice_trial_8.png,images/choice_trial_7.png,images/pattern_4.png,f,j,7000.0,8.0,7.0,3.0,1.0,37.0,1.0,0.0,7.0,180.0,,,,,,605772a89b984daa51fb5692,16:53:19,27/03/2024
html-keyboard-response,205,429467,0.0-85.0-1.0,,"<div style=""display: flex; flex-direction: column; align-items: center; margin-top: -40px;""><img src=""images/pattern_4.png"" style=""width: 234px; height: 230px; margin-top: -50px;""><div style=""display: flex; justify-content: space-between; margin-top: 33px;""><img src=""images/choice_trial_7.png"" style=""width: 408px; height: 417px; margin-left:608px;""></div></div>",,delaylearn,learning,display_response,uWf5fk0seCT5az2jQqZrKINOYOt1,uWf5fk0seCT5az2jQqZrKINOYOt1,,,,,,,,,,,,,,,,,chosen stimuli: images/choice_trial_7.png,,,,,605772a89b984daa51fb5692,16:53:19,27/03/2024
html-keyboard-response,206,436477,0.0-85.0-2.0,,,,delaylearn,learning,feedback_duration_window,uWf5fk0seCT5az2jQqZrKINOYOt1,uWf5fk0seCT5az2jQqZrKINOYOt1,,,,,,,,,,,,,,,,,,7000.0,,,,605772a89b984daa51fb5692,16:53:19,27/03/2024
html-keyboard-response,207,437987,0.0-85.0-3.0,,<div style='margin:auto;width: auto; font-size: 150%'><span style='font-weight: bold; font-size: 100px; color: red;'>0 points!</span><br><br></div>,,delaylearn,learning,feedback_image_window,uWf5fk0seCT5az2jQqZrKINOYOt1,uWf5fk0seCT5az2jQqZrKINOYOt1,,,,,,,,,,,,,,,,,,,,,,605772a89b984daa51fb5692,16:53:19,27/03/2024
html-keyboard-response,208,439503,0.0-86.0,,"<div style=""font-size:100px;"">+</div>",,delaylearn,learning,ITI,uWf5fk0seCT5az2jQqZrKINOYOt1,uWf5fk0seCT5az2jQqZrKINOYOt1,,,,,,,,,,,,,,,,,,,1504.0,,,605772a89b984daa51fb5692,16:53:19,27/03/2024
html-keyboard-response,209,440800,0.0-87.0-0.0,1294.4000000953674,"<div style=""display: flex; flex-direction: column; align-items: center; margin-top: -40px;""><img src=""images/pattern_7.png"" style=""width: 234px; height: 230px; margin-top: -50px;""><div style=""display: flex; justify-content: space-between; margin-top: 33px;""><img src=""images/choice_trial_13.png"" style=""width: 408px; height: 417px; margin-right: 200px;""><img src=""images/choice_trial_14.png"" style=""width: 408px; height: 417px;""></div></div>",j,delaylearn,learning,trial,uWf5fk0seCT5az2jQqZrKINOYOt1,uWf5fk0seCT5az2jQqZrKINOYOt1,1.0,images/choice_trial_13.png,images/choice_trial_14.png,images/pattern_7.png,f,f,750.0,13.0,14.0,6.0,0.0,38.0,0.0,0.0,14.0,180.0,,,,,,605772a89b984daa51fb5692,16:53:19,27/03/2024
html-keyboard-response,210,441803,0.0-87.0-1.0,,"<div style=""display: flex; flex-direction: column; align-items: center; margin-top: -40px;""><img src=""images/pattern_7.png"" style=""width: 234px; height: 230px; margin-top: -50px;""><div style=""display: flex; justify-content: space-between; margin-top: 33px;""><img src=""images/choice_trial_14.png"" style=""width: 408px; height: 417px; margin-left:608px;""></div></div>",,delaylearn,learning,display_response,uWf5fk0seCT5az2jQqZrKINOYOt1,uWf5fk0seCT5az2jQqZrKINOYOt1,,,,,,,,,,,,,,,,,chosen stimuli: images/choice_trial_14.png,,,,,605772a89b984daa51fb5692,16:53:19,27/03/2024
html-keyboard-response,211,442564,0.0-87.0-2.0,,,,delaylearn,learning,feedback_duration_window,uWf5fk0seCT5az2jQqZrKINOYOt1,uWf5fk0seCT5az2jQqZrKINOYOt1,,,,,,,,,,,,,,,,,,750.0,,,,605772a89b984daa51fb5692,16:53:19,27/03/2024
html-keyboard-response,212,444069,0.0-87.0-3.0,,<div style='margin:auto;width: auto; font-size: 150%'><span style='font-weight: bold; font-size: 100px; color: red;'>0 points!</span><br><br></div>,,delaylearn,learning,feedback_image_window,uWf5fk0seCT5az2jQqZrKINOYOt1,uWf5fk0seCT5az2jQqZrKINOYOt1,,,,,,,,,,,,,,,,,,,,,,605772a89b984daa51fb5692,16:53:19,27/03/2024
html-keyboard-response,213,445872,0.0-88.0,,"<div style=""font-size:100px;"">+</div>",,delaylearn,learning,ITI,uWf5fk0seCT5az2jQqZrKINOYOt1,uWf5fk0seCT5az2jQqZrKINOYOt1,,,,,,,,,,,,,,,,,,,1801.0,,,605772a89b984daa51fb5692,16:53:19,27/03/2024
html-keyboard-response,214,448545,0.0-89.0-0.0,2670.300000190735,"<div style=""display: flex; flex-direction: column; align-items: center; margin-top: -40px;""><img src=""images/pattern_1.png"" style=""width: 234px; height: 230px; margin-top: -50px;""><div style=""display: flex; justify-content: space-between; margin-top: 33px;""><img src=""images/choice_trial_1.png"" style=""width: 408px; height: 417px; margin-right: 200px;""><img src=""images/choice_trial_2.png"" style=""width: 408px; height: 417px;""></div></div>",j,delaylearn,learning,trial,uWf5fk0seCT5az2jQqZrKINOYOt1,uWf5fk0seCT5az2jQqZrKINOYOt1,1.0,images/choice_trial_1.png,images/choice_trial_2.png,images/pattern_1.png,f,f,7000.0,1.0,2.0,1.0,0.0,39.0,0.0,0.0,2.0,180.0,,,,,,605772a89b984daa51fb5692,16:53:19,27/03/2024
html-keyboard-response,215,449557,0.0-89.0-1.0,,"<div style=""display: flex; flex-direction: column; align-items: center; margin-top: -40px;""><img src=""images/pattern_1.png"" style=""width: 234px; height: 230px; margin-top: -50px;""><div style=""display: flex; justify-content: space-between; margin-top: 33px;""><img src=""images/choice_trial_2.png"" style=""width: 408px; height: 417px; margin-left:608px;""></div></div>",,delaylearn,learning,display_response,uWf5fk0seCT5az2jQqZrKINOYOt1,uWf5fk0seCT5az2jQqZrKINOYOt1,,,,,,,,,,,,,,,,,chosen stimuli: images/choice_trial_2.png,,,,,605772a89b984daa51fb5692,16:53:19,27/03/2024
html-keyboard-response,216,456560,0.0-89.0-2.0,,,,delaylearn,learning,feedback_duration_window,uWf5fk0seCT5az2jQqZrKINOYOt1,uWf5fk0seCT5az2jQqZrKINOYOt1,,,,,,,,,,,,,,,,,,7000.0,,,,605772a89b984daa51fb5692,16:53:19,27/03/2024
html-keyboard-response,217,458074,0.0-89.0-3.0,,<div style='margin:auto;width: auto; font-size: 150%'><span style='font-weight: bold; font-size: 100px; color: red;'>0 points!</span><br><br></div>,,delaylearn,learning,feedback_image_window,uWf5fk0seCT5az2jQqZrKINOYOt1,uWf5fk0seCT5az2jQqZrKINOYOt1,,,,,,,,,,,,,,,,,,,,,,605772a89b984daa51fb5692,16:53:19,27/03/2024
html-keyboard-response,218,458586,0.0-90.0-0.0,,,,,,mood_trial_fixation,uWf5fk0seCT5az2jQqZrKINOYOt1,,,,,,,,,,,,,,,,,,,,,,,605772a89b984daa51fb5692,16:53:19,27/03/2024
lmdlab-html-vas-response,219,461923,0.0-90.0-1.0,2323.0,How happy are you right now?,0.2978395061728395,delaylearn,learning,mood_trial,uWf5fk0seCT5az2jQqZrKINOYOt1,uWf5fk0seCT5az2jQqZrKINOYOt1,,,,,,,,,,,,,,,,,,,,"['Very unhappy', 'Very happy']",,605772a89b984daa51fb5692,16:53:19,27/03/2024
html-keyboard-response,220,463629,0.0-91.0,,"<div style=""font-size:100px;"">+</div>",,delaylearn,learning,ITI,uWf5fk0seCT5az2jQqZrKINOYOt1,uWf5fk0seCT5az2jQqZrKINOYOt1,,,,,,,,,,,,,,,,,,,1697.0,,,605772a89b984daa51fb5692,16:53:19,27/03/2024
html-keyboard-response,221,465657,0.0-92.0-0.0,2024.7999999523163,"<div style=""display: flex; flex-direction: column; align-items: center; margin-top: -40px;""><img src=""images/pattern_3.png"" style=""width: 234px; height: 230px; margin-top: -50px;""><div style=""display: flex; justify-content: space-between; margin-top: 33px;""><img src=""images/choice_trial_5.png"" style=""width: 408px; height: 417px; margin-right: 200px;""><img src=""images/choice_trial_6.png"" style=""width: 408px; height: 417px;""></div></div>",j,delaylearn,learning,trial,uWf5fk0seCT5az2jQqZrKINOYOt1,uWf5fk0seCT5az2jQqZrKINOYOt1,1.0,images/choice_trial_5.png,images/choice_trial_6.png,images/pattern_3.png,j,f,7000.0,5.0,6.0,2.0,0.0,40.0,0.0,1.0,6.0,190.0,,,,,,605772a89b984daa51fb5692,16:53:19,27/03/2024
html-keyboard-response,222,466672,0.0-92.0-1.0,,"<div style=""display: flex; flex-direction: column; align-items: center; margin-top: -40px;""><img src=""images/pattern_3.png"" style=""width: 234px; height: 230px; margin-top: -50px;""><div style=""display: flex; justify-content: space-between; margin-top: 33px;""><img src=""images/choice_trial_6.png"" style=""width: 408px; height: 417px; margin-left:608px;""></div></div>",,delaylearn,learning,display_response,uWf5fk0seCT5az2jQqZrKINOYOt1,uWf5fk0seCT5az2jQqZrKINOYOt1,,,,,,,,,,,,,,,,,chosen stimuli: images/choice_trial_6.png,,,,,605772a89b984daa51fb5692,16:53:19,27/03/2024
html-keyboard-response,223,473684,0.0-92.0-2.0,,,,delaylearn,learning,feedback_duration_window,uWf5fk0seCT5az2jQqZrKINOYOt1,uWf5fk0seCT5az2jQqZrKINOYOt1,,,,,,,,,,,,,,,,,,7000.0,,,,605772a89b984daa51fb5692,16:53:19,27/03/2024
html-keyboard-response,224,475191,0.0-92.0-3.0,,<div style='margin:auto;width: auto; font-size: 150%'><span style='font-weight: bold; font-size: 100px; color: green;'>+10 points!</span><br><br></div>,,delaylearn,learning,feedback_image_window,uWf5fk0seCT5az2jQqZrKINOYOt1,uWf5fk0seCT5az2jQqZrKINOYOt1,,,,,,,,,,,,,,,,,,,,,,605772a89b984daa51fb5692,16:53:19,27/03/2024
html-keyboard-response,225,476800,0.0-93.0,,"<div style=""font-size:100px;"">+</div>",,delaylearn,learning,ITI,uWf5fk0seCT5az2jQqZrKINOYOt1,uWf5fk0seCT5az2jQqZrKINOYOt1,,,,,,,,,,,,,,,,,,,1607.0,,,605772a89b984daa51fb5692,16:53:19,27/03/2024
html-keyboard-response,226,478473,0.0-94.0-0.0,1669.6999998092651,"<div style=""display: flex; flex-direction: column; align-items: center; margin-top: -40px;""><img src=""images/pattern_7.png"" style=""width: 234px; height: 230px; margin-top: -50px;""><div style=""display: flex; justify-content: space-between; margin-top: 33px;""><img src=""images/choice_trial_14.png"" style=""width: 408px; height: 417px; margin-right: 200px;""><img src=""images/choice_trial_13.png"" style=""width: 408px; height: 417px;""></div></div>",f,delaylearn,learning,trial,uWf5fk0seCT5az2jQqZrKINOYOt1,uWf5fk0seCT5az2jQqZrKINOYOt1,1.0,images/choice_trial_14.png,images/choice_trial_13.png,images/pattern_7.png,j,j,750.0,14.0,13.0,6.0,1.0,41.0,0.0,0.0,14.0,190.0,,,,,,605772a89b984daa51fb5692,16:53:19,27/03/2024
html-keyboard-response,227,479480,0.0-94.0-1.0,,"<div style=""display: flex; flex-direction: column; align-items: center; margin-top: -40px;""><img src=""images/pattern_7.png"" style=""width: 234px; height: 230px; margin-top: -50px;""><div style=""display: flex; justify-content: space-between; margin-top: 33px;""><img src=""images/choice_trial_14.png"" style=""width: 408px; height: 417px; margin-right: 608px;""></div></div>",,delaylearn,learning,display_response,uWf5fk0seCT5az2jQqZrKINOYOt1,uWf5fk0seCT5az2jQqZrKINOYOt1,,,,,,,,,,,,,,,,,chosen stimuli: images/choice_trial_14.png,,,,,605772a89b984daa51fb5692,16:53:19,27/03/2024
html-keyboard-response,228,480237,0.0-94.0-2.0,,,,delaylearn,learning,feedback_duration_window,uWf5fk0seCT5az2jQqZrKINOYOt1,uWf5fk0seCT5az2jQqZrKINOYOt1,,,,,,,,,,,,,,,,,,750.0,,,,605772a89b984daa51fb5692,16:53:19,27/03/2024
html-keyboard-response,229,481742,0.0-94.0-3.0,,<div style='margin:auto;width: auto; font-size: 150%'><span style='font-weight: bold; font-size: 100px; color: red;'>0 points!</span><br><br></div>,,delaylearn,learning,feedback_image_window,uWf5fk0seCT5az2jQqZrKINOYOt1,uWf5fk0seCT5az2jQqZrKINOYOt1,,,,,,,,,,,,,,,,,,,,,,605772a89b984daa51fb5692,16:53:19,27/03/2024
html-keyboard-response,230,484034,0.0-95.0,,"<div style=""font-size:100px;"">+</div>",,delaylearn,learning,ITI,uWf5fk0seCT5az2jQqZrKINOYOt1,uWf5fk0seCT5az2jQqZrKINOYOt1,,,,,,,,,,,,,,,,,,,2281.0,,,605772a89b984daa51fb5692,16:53:19,27/03/2024
