trial_type,trial_index,time_elapsed,internal_node_id,rt,stimulus,response,exp_name,exp_stage,test_part,subjectID,databaseID,counterbal,choice_stimuli_1,choice_stimuli_2,pattern_stimuli,rewarded_answer,correct_answer,feedback_duration_times,stim_left,stim_right,pair,leftright_counter,trial,response_correct,response_rewarded,chosen_stim,counter,displayed_choice,feedback_durations,ITI_duration,labels,rest_warning,prolificID,start_time,date
pavlovia,0,505,0.0-0.0,,,,,,,ntvoXHLKhgOiViEf7YZNx6QoUhG2,,,,,,,,,,,,,,,,,,,,,,,5f3d455fc5a9c209cb8b94b4,16:26:12,27/03/2024
html-keyboard-response,1,3510,0.0-1.0,,"<div style=""font-size:100px;"">+</div>",,delaylearn,learning,pre_fixation,ntvoXHLKhgOiViEf7YZNx6QoUhG2,,,,,,,,,,,,,,,,,,,,,,,5f3d455fc5a9c209cb8b94b4,16:26:12,27/03/2024
html-keyboard-response,2,4453,0.0-2.0-0.0,941.3000000119209,"<div style=""display: flex; flex-direction: column; align-items: center; margin-top: -40px;""><img src=""images/demo_images/pattern_1.png"" style=""width: 234px; height: 230px; margin-top: -50px;""><div style=""display: flex; justify-content: space-between; margin-top: 33px;""><img src=""images/demo_images/choice_trial_2.png"" style=""width: 408px; height: 417px; margin-right: 200px;""><img src=""images/demo_images/choice_trial_1.png"" style=""width: 408px; height: 417px;""></div></div>",f,delaylearn,learning,trial,ntvoXHLKhgOiViEf7YZNx6QoUhG2,ntvoXHLKhgOiViEf7YZNx6QoUhG2,3.0,images/demo_images/choice_trial_2.png,images/demo_images/choice_trial_1.png,images/demo_images/pattern_1.png,j,j,3000.0,2.0,1.0,20.0,1.0,1.0,0.0,0.0,2.0,0.0,,,,,,5f3d455fc5a9c209cb8b94b4,16:26:12,27/03/2024
html-keyboard-response,3,5465,0.0-2.0-1.0,,"<div style=""display: flex; flex-direction: column; align-items: center; margin-top: -40px;""><img src=""images/demo_images/pattern_1.png"" style=""width: 234px; height: 230px; margin-top: -50px;""><div style=""display: flex; justify-content: space-between; margin-top: 33px;""><img src=""images/demo_images/choice_trial_2.png"" style=""width: 408px; height: 417px; margin-right: 608px;""></div></div>",,delaylearn,learning,display_response,ntvoXHLKhgOiViEf7YZNx6QoUhG2,ntvoXHLKhgOiViEf7YZNx6QoUhG2,,,,,,,,,,,,,,,,,chosen stimuli: images/demo_images/choice_trial_2.png,,,,,5f3d455fc5a9c209cb8b94b4,16:26:12,27/03/2024
html-keyboard-response,4,8468,0.0-2.0-2.0,,,,delaylearn,learning,feedback_duration_window,ntvoXHLKhgOiViEf7YZNx6QoUhG2,ntvoXHLKhgOiViEf7YZNx6QoUhG2,,,,,,,,,,,,,,,,,,3000.0,,,,5f3d455fc5a9c209cb8b94b4,16:26:12,27/03/2024
html-keyboard-response,5,9984,0.0-2.0-3.0,,<div style='margin:auto;width: auto; font-size: 150%'><span style='font-weight: bold; font-size: 100px; color: red;'>0 points!</span><br><br></div>,,delaylearn,learning,feedback_image_window,ntvoXHLKhgOiViEf7YZNx6QoUhG2,ntvoXHLKhgOiViEf7YZNx6QoUhG2,,,,,,,,,,,,,,,,,,,,,,5f3d455fc5a9c209cb8b94b4,16:26:12,27/03/2024
html-keyboard-response,6,12274,0.0-3.0,,"<div style=""font-size:100px;"">+</div>",,delaylearn,learning,ITI,ntvoXHLKhgOiViEf7YZNx6QoUhG2,ntvoXHLKhgOiViEf7YZNx6QoUhG2,,,,,,,,,,,,,,,,,,,2283.0,,,5f3d455fc5a9c209cb8b94b4,16:26:12,27/03/2024
html-keyboard-response,7,13239,0.0-4.0-0.0,961.8000000119209,"<div style=""display: flex; flex-direction: column; align-items: center; margin-top: -40px;""><img src=""images/demo_images/pattern_1.png"" style=""width: 234px; height: 230px; margin-top: -50px;""><div style=""display: flex; justify-content: space-between; margin-top: 33px;""><img src=""images/demo_images/choice_trial_2.png"" style=""width: 408px; height: 417px; margin-right: 200px;""><img src=""images/demo_images/choice_trial_1.png"" style=""width: 408px; height: 417px;""></div></div>",j,delaylearn,learning,trial,ntvoXHLKhgOiViEf7YZNx6QoUhG2,ntvoXHLKhgOiViEf7YZNx6QoUhG2,3.0,images/demo_images/choice_trial_2.png,images/demo_images/choice_trial_1.png,images/demo_images/pattern_1.png,j,j,3000.0,2.0,1.0,20.0,1.0,2.0,1.0,1.0,1.0,10.0,,,,,,5f3d455fc5a9c209cb8b94b4,16:26:12,27/03/2024
html-keyboard-response,8,14250,0.0-4.0-1.0,,"<div style=""display: flex; flex-direction: column; align-items: center; margin-top: -40px;""><img src=""images/demo_images/pattern_1.png"" style=""width: 234px; height: 230px; margin-top: -50px;""><div style=""display: flex; justify-content: space-between; margin-top: 33px;""><img src=""images/demo_images/choice_trial_1.png"" style=""width: 408px; height: 417px; margin-left:608px;""></div></div>",,delaylearn,learning,display_response,ntvoXHLKhgOiViEf7YZNx6QoUhG2,ntvoXHLKhgOiViEf7YZNx6QoUhG2,,,,,,,,,,,,,,,,,chosen stimuli: images/demo_images/choice_trial_1.png,,,,,5f3d455fc5a9c209cb8b94b4,16:26:12,27/03/2024
html-keyboard-response,9,17256,0.0-4.0-2.0,,,,delaylearn,learning,feedback_duration_window,ntvoXHLKhgOiViEf7YZNx6QoUhG2,ntvoXHLKhgOiViEf7YZNx6QoUhG2,,,,,,,,,,,,,,,,,,3000.0,,,,5f3d455fc5a9c209cb8b94b4,16:26:12,27/03/2024
html-keyboard-response,10,18759,0.0-4.0-3.0,,<div style='margin:auto;width: auto; font-size: 150%'><span style='font-weight: bold; font-size: 100px; color: green;'>+10 points!</span><br><br></div>,,delaylearn,learning,feedback_image_window,ntvoXHLKhgOiViEf7YZNx6QoUhG2,ntvoXHLKhgOiViEf7YZNx6QoUhG2,,,,,,,,,,,,,,,,,,,,,,5f3d455fc5a9c209cb8b94b4,16:26:12,27/03/2024
html-keyboard-response,11,20626,0.0-5.0,,"<div style=""font-size:100px;"">+</div>",,delaylearn,learning,ITI,ntvoXHLKhgOiViEf7YZNx6QoUhG2,ntvoXHLKhgOiViEf7YZNx6QoUhG2,,,,,,,,,,,,,,,,,,,1860.0,,,5f3d455fc5a9c209cb8b94b4,16:26:12,27/03/2024
html-keyboard-response,12,21462,0.0-6.0-0.0,834.0,"<div style=""display: flex; flex-direction: column; align-items: center; margin-top: -40px;""><img src=""images/demo_images/pattern_1.png"" style=""width: 234px; height: 230px; margin-top: -50px;""><div style=""display: flex; justify-content: space-between; margin-top: 33px;""><img src=""images/demo_images/choice_trial_1.png"" style=""width: 408px; height: 417px; margin-right: 200px;""><img src=""images/demo_images/choice_trial_2.png"" style=""width: 408px; height: 417px;""></div></div>",j,delaylearn,learning,trial,ntvoXHLKhgOiViEf7YZNx6QoUhG2,ntvoXHLKhgOiViEf7YZNx6QoUhG2,3.0,images/demo_images/choice_trial_1.png,images/demo_images/choice_trial_2.png,images/demo_images/pattern_1.png,j,f,3000.0,1.0,2.0,20.0,0.0,3.0,0.0,1.0,2.0,20.0,,,,,,5f3d455fc5a9c209cb8b94b4,16:26:12,27/03/2024
html-keyboard-response,13,22471,0.0-6.0-1.0,,"<div style=""display: flex; flex-direction: column; align-items: center; margin-top: -40px;""><img src=""images/demo_images/pattern_1.png"" style=""width: 234px; height: 230px; margin-top: -50px;""><div style=""display: flex; justify-content: space-between; margin-top: 33px;""><img src=""images/demo_images/choice_trial_2.png"" style=""width: 408px; height: 417px; margin-left:608px;""></div></div>",,delaylearn,learning,display_response,ntvoXHLKhgOiViEf7YZNx6QoUhG2,ntvoXHLKhgOiViEf7YZNx6QoUhG2,,,,,,,,,,,,,,,,,chosen stimuli: images/demo_images/choice_trial_2.png,,,,,5f3d455fc5a9c209cb8b94b4,16:26:12,27/03/2024
html-keyboard-response,14,25477,0.0-6.0-2.0,,,,delaylearn,learning,feedback_duration_window,ntvoXHLKhgOiViEf7YZNx6QoUhG2,ntvoXHLKhgOiViEf7YZNx6QoUhG2,,,,,,,,,,,,,,,,,,3000.0,,,,5f3d455fc5a9c209cb8b94b4,16:26:12,27/03/2024
html-keyboard-response,15,26980,0.0-6.0-3.0,,<div style='margin:auto;width: auto; font-size: 150%'><span style='font-weight: bold; font-size: 100px; color: green;'>+10 points!</span><br><br></div>,,delaylearn,learning,feedback_image_window,ntvoXHLKhgOiViEf7YZNx6QoUhG2,ntvoXHLKhgOiViEf7YZNx6QoUhG2,,,,,,,,,,,,,,,,,,,,,,5f3d455fc5a9c209cb8b94b4,16:26:12,27/03/2024
html-keyboard-response,16,28830,0.0-7.0,,"<div style=""font-size:100px;"">+</div>",,delaylearn,learning,ITI,ntvoXHLKhgOiViEf7YZNx6QoUhG2,ntvoXHLKhgOiViEf7YZNx6QoUhG2,,,,,,,,,,,,,,,,,,,1841.0,,,5f3d455fc5a9c209cb8b94b4,16:26:12,27/03/2024
html-keyboard-response,17,29741,0.0-8.0-0.0,909.5,"<div style=""display: flex; flex-direction: column; align-items: center; margin-top: -40px;""><img src=""images/demo_images/pattern_1.png"" style=""width: 234px; height: 230px; margin-top: -50px;""><div style=""display: flex; justify-content: space-between; margin-top: 33px;""><img src=""images/demo_images/choice_trial_1.png"" style=""width: 408px; height: 417px; margin-right: 200px;""><img src=""images/demo_images/choice_trial_2.png"" style=""width: 408px; height: 417px;""></div></div>",f,delaylearn,learning,trial,ntvoXHLKhgOiViEf7YZNx6QoUhG2,ntvoXHLKhgOiViEf7YZNx6QoUhG2,3.0,images/demo_images/choice_trial_1.png,images/demo_images/choice_trial_2.png,images/demo_images/pattern_1.png,f,f,3000.0,1.0,2.0,20.0,0.0,4.0,1.0,1.0,1.0,30.0,,,,,,5f3d455fc5a9c209cb8b94b4,16:26:12,27/03/2024
html-keyboard-response,18,30752,0.0-8.0-1.0,,"<div style=""display: flex; flex-direction: column; align-items: center; margin-top: -40px;""><img src=""images/demo_images/pattern_1.png"" style=""width: 234px; height: 230px; margin-top: -50px;""><div style=""display: flex; justify-content: space-between; margin-top: 33px;""><img src=""images/demo_images/choice_trial_1.png"" style=""width: 408px; height: 417px; margin-right: 608px;""></div></div>",,delaylearn,learning,display_response,ntvoXHLKhgOiViEf7YZNx6QoUhG2,ntvoXHLKhgOiViEf7YZNx6QoUhG2,,,,,,,,,,,,,,,,,chosen stimuli: images/demo_images/choice_trial_1.png,,,,,5f3d455fc5a9c209cb8b94b4,16:26:12,27/03/2024
html-keyboard-response,19,33760,0.0-8.0-2.0,,,,delaylearn,learning,feedback_duration_window,ntvoXHLKhgOiViEf7YZNx6QoUhG2,ntvoXHLKhgOiViEf7YZNx6QoUhG2,,,,,,,,,,,,,,,,,,3000.0,,,,5f3d455fc5a9c209cb8b94b4,16:26:12,27/03/2024
html-keyboard-response,20,35264,0.0-8.0-3.0,,<div style='margin:auto;width: auto; font-size: 150%'><span style='font-weight: bold; font-size: 100px; color: green;'>+10 points!</span><br><br></div>,,delaylearn,learning,feedback_image_window,ntvoXHLKhgOiViEf7YZNx6QoUhG2,ntvoXHLKhgOiViEf7YZNx6QoUhG2,,,,,,,,,,,,,,,,,,,,,,5f3d455fc5a9c209cb8b94b4,16:26:12,27/03/2024
html-keyboard-response,21,35775,0.0-9.0-0.0,,,,,,mood_trial_fixation,ntvoXHLKhgOiViEf7YZNx6QoUhG2,,,,,,,,,,,,,,,,,,,,,,,5f3d455fc5a9c209cb8b94b4,16:26:12,27/03/2024
lmdlab-html-vas-response,22,42023,0.0-9.0-1.0,5227.0,How happy are you right now?,0.7268518518518519,delaylearn,learning,mood_trial,ntvoXHLKhgOiViEf7YZNx6QoUhG2,ntvoXHLKhgOiViEf7YZNx6QoUhG2,,,,,,,,,,,,,,,,,,,,"['Very unhappy', 'Very happy']",,5f3d455fc5a9c209cb8b94b4,16:26:12,27/03/2024
html-keyboard-response,23,43779,0.0-10.0,,"<div style=""font-size:100px;"">+</div>",,delaylearn,learning,ITI,ntvoXHLKhgOiViEf7YZNx6QoUhG2,ntvoXHLKhgOiViEf7YZNx6QoUhG2,,,,,,,,,,,,,,,,,,,1755.0,,,5f3d455fc5a9c209cb8b94b4,16:26:12,27/03/2024
html-keyboard-response,24,44437,0.0-11.0-0.0,657.0,"<div style=""display: flex; flex-direction: column; align-items: center; margin-top: -40px;""><img src=""images/demo_images/pattern_1.png"" style=""width: 234px; height: 230px; margin-top: -50px;""><div style=""display: flex; justify-content: space-between; margin-top: 33px;""><img src=""images/demo_images/choice_trial_2.png"" style=""width: 408px; height: 417px; margin-right: 200px;""><img src=""images/demo_images/choice_trial_1.png"" style=""width: 408px; height: 417px;""></div></div>",f,delaylearn,learning,trial,ntvoXHLKhgOiViEf7YZNx6QoUhG2,ntvoXHLKhgOiViEf7YZNx6QoUhG2,3.0,images/demo_images/choice_trial_2.png,images/demo_images/choice_trial_1.png,images/demo_images/pattern_1.png,j,j,3000.0,2.0,1.0,20.0,1.0,5.0,0.0,0.0,2.0,30.0,,,,,,5f3d455fc5a9c209cb8b94b4,16:26:12,27/03/2024
html-keyboard-response,25,45439,0.0-11.0-1.0,,"<div style=""display: flex; flex-direction: column; align-items: center; margin-top: -40px;""><img src=""images/demo_images/pattern_1.png"" style=""width: 234px; height: 230px; margin-top: -50px;""><div style=""display: flex; justify-content: space-between; margin-top: 33px;""><img src=""images/demo_images/choice_trial_2.png"" style=""width: 408px; height: 417px; margin-right: 608px;""></div></div>",,delaylearn,learning,display_response,ntvoXHLKhgOiViEf7YZNx6QoUhG2,ntvoXHLKhgOiViEf7YZNx6QoUhG2,,,,,,,,,,,,,,,,,chosen stimuli: images/demo_images/choice_trial_2.png,,,,,5f3d455fc5a9c209cb8b94b4,16:26:12,27/03/2024
html-keyboard-response,26,48451,0.0-11.0-2.0,,,,delaylearn,learning,feedback_duration_window,ntvoXHLKhgOiViEf7YZNx6QoUhG2,ntvoXHLKhgOiViEf7YZNx6QoUhG2,,,,,,,,,,,,,,,,,,3000.0,,,,5f3d455fc5a9c209cb8b94b4,16:26:12,27/03/2024
html-keyboard-response,27,49967,0.0-11.0-3.0,,<div style='margin:auto;width: auto; font-size: 150%'><span style='font-weight: bold; font-size: 100px; color: red;'>0 points!</span><br><br></div>,,delaylearn,learning,feedback_image_window,ntvoXHLKhgOiViEf7YZNx6QoUhG2,ntvoXHLKhgOiViEf7YZNx6QoUhG2,,,,,,,,,,,,,,,,,,,,,,5f3d455fc5a9c209cb8b94b4,16:26:12,27/03/2024
html-keyboard-response,28,52436,0.0-12.0,,"<div style=""font-size:100px;"">+</div>",,delaylearn,learning,ITI,ntvoXHLKhgOiViEf7YZNx6QoUhG2,ntvoXHLKhgOiViEf7YZNx6QoUhG2,,,,,,,,,,,,,,,,,,,2459.0,,,5f3d455fc5a9c209cb8b94b4,16:26:12,27/03/2024
html-keyboard-response,29,53208,0.0-13.0-0.0,770.3999999761581,"<div style=""display: flex; flex-direction: column; align-items: center; margin-top: -40px;""><img src=""images/demo_images/pattern_1.png"" style=""width: 234px; height: 230px; margin-top: -50px;""><div style=""display: flex; justify-content: space-between; margin-top: 33px;""><img src=""images/demo_images/choice_trial_1.png"" style=""width: 408px; height: 417px; margin-right: 200px;""><img src=""images/demo_images/choice_trial_2.png"" style=""width: 408px; height: 417px;""></div></div>",f,delaylearn,learning,trial,ntvoXHLKhgOiViEf7YZNx6QoUhG2,ntvoXHLKhgOiViEf7YZNx6QoUhG2,3.0,images/demo_images/choice_trial_1.png,images/demo_images/choice_trial_2.png,images/demo_images/pattern_1.png,f,f,3000.0,1.0,2.0,20.0,0.0,6.0,1.0,1.0,1.0,40.0,,,,,,5f3d455fc5a9c209cb8b94b4,16:26:12,27/03/2024
html-keyboard-response,30,54216,0.0-13.0-1.0,,"<div style=""display: flex; flex-direction: column; align-items: center; margin-top: -40px;""><img src=""images/demo_images/pattern_1.png"" style=""width: 234px; height: 230px; margin-top: -50px;""><div style=""display: flex; justify-content: space-between; margin-top: 33px;""><img src=""images/demo_images/choice_trial_1.png"" style=""width: 408px; height: 417px; margin-right: 608px;""></div></div>",,delaylearn,learning,display_response,ntvoXHLKhgOiViEf7YZNx6QoUhG2,ntvoXHLKhgOiViEf7YZNx6QoUhG2,,,,,,,,,,,,,,,,,chosen stimuli: images/demo_images/choice_trial_1.png,,,,,5f3d455fc5a9c209cb8b94b4,16:26:12,27/03/2024
html-keyboard-response,31,57218,0.0-13.0-2.0,,,,delaylearn,learning,feedback_duration_window,ntvoXHLKhgOiViEf7YZNx6QoUhG2,ntvoXHLKhgOiViEf7YZNx6QoUhG2,,,,,,,,,,,,,,,,,,3000.0,,,,5f3d455fc5a9c209cb8b94b4,16:26:12,27/03/2024
html-keyboard-response,32,58723,0.0-13.0-3.0,,<div style='margin:auto;width: auto; font-size: 150%'><span style='font-weight: bold; font-size: 100px; color: green;'>+10 points!</span><br><br></div>,,delaylearn,learning,feedback_image_window,ntvoXHLKhgOiViEf7YZNx6QoUhG2,ntvoXHLKhgOiViEf7YZNx6QoUhG2,,,,,,,,,,,,,,,,,,,,,,5f3d455fc5a9c209cb8b94b4,16:26:12,27/03/2024
html-keyboard-response,33,61196,0.0-14.0,,"<div style=""font-size:100px;"">+</div>",,delaylearn,learning,ITI,ntvoXHLKhgOiViEf7YZNx6QoUhG2,ntvoXHLKhgOiViEf7YZNx6QoUhG2,,,,,,,,,,,,,,,,,,,2462.0,,,5f3d455fc5a9c209cb8b94b4,16:26:12,27/03/2024
html-keyboard-response,34,61515,0.0-15.0-0.0,317.60000002384186,"<div style=""display: flex; flex-direction: column; align-items: center; margin-top: -40px;""><img src=""images/demo_images/pattern_1.png"" style=""width: 234px; height: 230px; margin-top: -50px;""><div style=""display: flex; justify-content: space-between; margin-top: 33px;""><img src=""images/demo_images/choice_trial_2.png"" style=""width: 408px; height: 417px; margin-right: 200px;""><img src=""images/demo_images/choice_trial_1.png"" style=""width: 408px; height: 417px;""></div></div>",j,delaylearn,learning,trial,ntvoXHLKhgOiViEf7YZNx6QoUhG2,ntvoXHLKhgOiViEf7YZNx6QoUhG2,3.0,images/demo_images/choice_trial_2.png,images/demo_images/choice_trial_1.png,images/demo_images/pattern_1.png,j,j,3000.0,2.0,1.0,20.0,1.0,7.0,1.0,1.0,1.0,50.0,,,,,,5f3d455fc5a9c209cb8b94b4,16:26:12,27/03/2024
html-keyboard-response,35,62530,0.0-15.0-1.0,,"<div style=""display: flex; flex-direction: column; align-items: center; margin-top: -40px;""><img src=""images/demo_images/pattern_1.png"" style=""width: 234px; height: 230px; margin-top: -50px;""><div style=""display: flex; justify-content: space-between; margin-top: 33px;""><img src=""images/demo_images/choice_trial_1.png"" style=""width: 408px; height: 417px; margin-left:608px;""></div></div>",,delaylearn,learning,display_response,ntvoXHLKhgOiViEf7YZNx6QoUhG2,ntvoXHLKhgOiViEf7YZNx6QoUhG2,,,,,,,,,,,,,,,,,chosen stimuli: images/demo_images/choice_trial_1.png,,,,,5f3d455fc5a9c209cb8b94b4,16:26:12,27/03/2024
html-keyboard-response,36,65543,0.0-15.0-2.0,,,,delaylearn,learning,feedback_duration_window,ntvoXHLKhgOiViEf7YZNx6QoUhG2,ntvoXHLKhgOiViEf7YZNx6QoUhG2,,,,,,,,,,,,,,,,,,3000.0,,,,5f3d455fc5a9c209cb8b94b4,16:26:12,27/03/2024
html-keyboard-response,37,67050,0.0-15.0-3.0,,<div style='margin:auto;width: auto; font-size: 150%'><span style='font-weight: bold; font-size: 100px; color: green;'>+10 points!</span><br><br></div>,,delaylearn,learning,feedback_image_window,ntvoXHLKhgOiViEf7YZNx6QoUhG2,ntvoXHLKhgOiViEf7YZNx6QoUhG2,,,,,,,,,,,,,,,,,,,,,,5f3d455fc5a9c209cb8b94b4,16:26:12,27/03/2024
html-keyboard-response,38,68776,0.0-16.0,,"<div style=""font-size:100px;"">+</div>",,delaylearn,learning,ITI,ntvoXHLKhgOiViEf7YZNx6QoUhG2,ntvoXHLKhgOiViEf7YZNx6QoUhG2,,,,,,,,,,,,,,,,,,,1718.0,,,5f3d455fc5a9c209cb8b94b4,16:26:12,27/03/2024
html-keyboard-response,39,69227,0.0-17.0-0.0,448.80000001192093,"<div style=""display: flex; flex-direction: column; align-items: center; margin-top: -40px;""><img src=""images/demo_images/pattern_1.png"" style=""width: 234px; height: 230px; margin-top: -50px;""><div style=""display: flex; justify-content: space-between; margin-top: 33px;""><img src=""images/demo_images/choice_trial_1.png"" style=""width: 408px; height: 417px; margin-right: 200px;""><img src=""images/demo_images/choice_trial_2.png"" style=""width: 408px; height: 417px;""></div></div>",f,delaylearn,learning,trial,ntvoXHLKhgOiViEf7YZNx6QoUhG2,ntvoXHLKhgOiViEf7YZNx6QoUhG2,3.0,images/demo_images/choice_trial_1.png,images/demo_images/choice_trial_2.png,images/demo_images/pattern_1.png,f,f,3000.0,1.0,2.0,20.0,0.0,8.0,1.0,1.0,1.0,60.0,,,,,,5f3d455fc5a9c209cb8b94b4,16:26:12,27/03/2024
html-keyboard-response,40,70234,0.0-17.0-1.0,,"<div style=""display: flex; flex-direction: column; align-items: center; margin-top: -40px;""><img src=""images/demo_images/pattern_1.png"" style=""width: 234px; height: 230px; margin-top: -50px;""><div style=""display: flex; justify-content: space-between; margin-top: 33px;""><img src=""images/demo_images/choice_trial_1.png"" style=""width: 408px; height: 417px; margin-right: 608px;""></div></div>",,delaylearn,learning,display_response,ntvoXHLKhgOiViEf7YZNx6QoUhG2,ntvoXHLKhgOiViEf7YZNx6QoUhG2,,,,,,,,,,,,,,,,,chosen stimuli: images/demo_images/choice_trial_1.png,,,,,5f3d455fc5a9c209cb8b94b4,16:26:12,27/03/2024
html-keyboard-response,41,73247,0.0-17.0-2.0,,,,delaylearn,learning,feedback_duration_window,ntvoXHLKhgOiViEf7YZNx6QoUhG2,ntvoXHLKhgOiViEf7YZNx6QoUhG2,,,,,,,,,,,,,,,,,,3000.0,,,,5f3d455fc5a9c209cb8b94b4,16:26:12,27/03/2024
html-keyboard-response,42,74750,0.0-17.0-3.0,,<div style='margin:auto;width: auto; font-size: 150%'><span style='font-weight: bold; font-size: 100px; color: green;'>+10 points!</span><br><br></div>,,delaylearn,learning,feedback_image_window,ntvoXHLKhgOiViEf7YZNx6QoUhG2,ntvoXHLKhgOiViEf7YZNx6QoUhG2,,,,,,,,,,,,,,,,,,,,,,5f3d455fc5a9c209cb8b94b4,16:26:12,27/03/2024
html-button-response,43,78079,0.0-18.0,3326.900000035763,"
  <div style=""display: flex; align-items: center; justify-content: center; height: 80vh;"">
  <div>
          <img src=""images/inst_demo_finish.png"" style=""width: 80vw; height:auto;"">
          <br><br>
      </div>
      <br><br>
  </div>",0,,,,ntvoXHLKhgOiViEf7YZNx6QoUhG2,,,,,,,,,,,,,,,,,,,,,,,5f3d455fc5a9c209cb8b94b4,16:26:12,27/03/2024
html-keyboard-response,44,79929,0.0-19.0,1849.8999999761581,"
  <div style=""display: flex; align-items: center; justify-content: center; height: 80vh;"">
  <div>
          <img src=""images/inst_6.png"" style=""width: 80vw; height:auto;"">
          <br><br>
      </div>
      <br><br>
  </div>",j,,,,ntvoXHLKhgOiViEf7YZNx6QoUhG2,,,,,,,,,,,,,,,,,,,,,,,5f3d455fc5a9c209cb8b94b4,16:26:12,27/03/2024
html-keyboard-response,45,82931,0.0-20.0,,"<div style=""font-size:100px;"">+</div>",,delaylearn,learning,pre_fixation,ntvoXHLKhgOiViEf7YZNx6QoUhG2,,,,,,,,,,,,,,,,,,,,,,,5f3d455fc5a9c209cb8b94b4,16:26:12,27/03/2024
html-keyboard-response,46,85123,0.0-21.0,,"<div style=""font-size:100px;"">+</div>",,delaylearn,learning,ITI,ntvoXHLKhgOiViEf7YZNx6QoUhG2,ntvoXHLKhgOiViEf7YZNx6QoUhG2,,,,,,,,,,,,,,,,,,,2182.0,,,5f3d455fc5a9c209cb8b94b4,16:26:12,27/03/2024
html-keyboard-response,47,85705,0.0-22.0-0.0,580.1000000238419,"<div style=""display: flex; flex-direction: column; align-items: center; margin-top: -40px;""><img src=""images/pattern_3.png"" style=""width: 234px; height: 230px; margin-top: -50px;""><div style=""display: flex; justify-content: space-between; margin-top: 33px;""><img src=""images/choice_trial_13.png"" style=""width: 408px; height: 417px; margin-right: 200px;""><img src=""images/choice_trial_10.png"" style=""width: 408px; height: 417px;""></div></div>",f,delaylearn,learning,trial,ntvoXHLKhgOiViEf7YZNx6QoUhG2,ntvoXHLKhgOiViEf7YZNx6QoUhG2,3.0,images/choice_trial_13.png,images/choice_trial_10.png,images/pattern_3.png,f,f,7000.0,13.0,10.0,2.0,0.0,9.0,1.0,1.0,13.0,70.0,,,,,,5f3d455fc5a9c209cb8b94b4,16:26:12,27/03/2024
html-keyboard-response,48,86718,0.0-22.0-1.0,,"<div style=""display: flex; flex-direction: column; align-items: center; margin-top: -40px;""><img src=""images/pattern_3.png"" style=""width: 234px; height: 230px; margin-top: -50px;""><div style=""display: flex; justify-content: space-between; margin-top: 33px;""><img src=""images/choice_trial_13.png"" style=""width: 408px; height: 417px; margin-right: 608px;""></div></div>",,delaylearn,learning,display_response,ntvoXHLKhgOiViEf7YZNx6QoUhG2,ntvoXHLKhgOiViEf7YZNx6QoUhG2,,,,,,,,,,,,,,,,,chosen stimuli: images/choice_trial_13.png,,,,,5f3d455fc5a9c209cb8b94b4,16:26:12,27/03/2024
html-keyboard-response,49,93722,0.0-22.0-2.0,,,,delaylearn,learning,feedback_duration_window,ntvoXHLKhgOiViEf7YZNx6QoUhG2,ntvoXHLKhgOiViEf7YZNx6QoUhG2,,,,,,,,,,,,,,,,,,7000.0,,,,5f3d455fc5a9c209cb8b94b4,16:26:12,27/03/2024
html-keyboard-response,50,95228,0.0-22.0-3.0,,<div style='margin:auto;width: auto; font-size: 150%'><span style='font-weight: bold; font-size: 100px; color: green;'>+10 points!</span><br><br></div>,,delaylearn,learning,feedback_image_window,ntvoXHLKhgOiViEf7YZNx6QoUhG2,ntvoXHLKhgOiViEf7YZNx6QoUhG2,,,,,,,,,,,,,,,,,,,,,,5f3d455fc5a9c209cb8b94b4,16:26:12,27/03/2024
html-keyboard-response,51,97216,0.0-23.0,,"<div style=""font-size:100px;"">+</div>",,delaylearn,learning,ITI,ntvoXHLKhgOiViEf7YZNx6QoUhG2,ntvoXHLKhgOiViEf7YZNx6QoUhG2,,,,,,,,,,,,,,,,,,,1980.0,,,5f3d455fc5a9c209cb8b94b4,16:26:12,27/03/2024
html-keyboard-response,52,97861,0.0-24.0-0.0,643.3000000119209,"<div style=""display: flex; flex-direction: column; align-items: center; margin-top: -40px;""><img src=""images/pattern_7.png"" style=""width: 234px; height: 230px; margin-top: -50px;""><div style=""display: flex; justify-content: space-between; margin-top: 33px;""><img src=""images/choice_trial_12.png"" style=""width: 408px; height: 417px; margin-right: 200px;""><img src=""images/choice_trial_6.png"" style=""width: 408px; height: 417px;""></div></div>",j,delaylearn,learning,trial,ntvoXHLKhgOiViEf7YZNx6QoUhG2,ntvoXHLKhgOiViEf7YZNx6QoUhG2,3.0,images/choice_trial_12.png,images/choice_trial_6.png,images/pattern_7.png,j,j,750.0,12.0,6.0,6.0,1.0,10.0,1.0,1.0,6.0,80.0,,,,,,5f3d455fc5a9c209cb8b94b4,16:26:12,27/03/2024
html-keyboard-response,53,98878,0.0-24.0-1.0,,"<div style=""display: flex; flex-direction: column; align-items: center; margin-top: -40px;""><img src=""images/pattern_7.png"" style=""width: 234px; height: 230px; margin-top: -50px;""><div style=""display: flex; justify-content: space-between; margin-top: 33px;""><img src=""images/choice_trial_6.png"" style=""width: 408px; height: 417px; margin-left:608px;""></div></div>",,delaylearn,learning,display_response,ntvoXHLKhgOiViEf7YZNx6QoUhG2,ntvoXHLKhgOiViEf7YZNx6QoUhG2,,,,,,,,,,,,,,,,,chosen stimuli: images/choice_trial_6.png,,,,,5f3d455fc5a9c209cb8b94b4,16:26:12,27/03/2024
html-keyboard-response,54,99638,0.0-24.0-2.0,,,,delaylearn,learning,feedback_duration_window,ntvoXHLKhgOiViEf7YZNx6QoUhG2,ntvoXHLKhgOiViEf7YZNx6QoUhG2,,,,,,,,,,,,,,,,,,750.0,,,,5f3d455fc5a9c209cb8b94b4,16:26:12,27/03/2024
html-keyboard-response,55,101142,0.0-24.0-3.0,,<div style='margin:auto;width: auto; font-size: 150%'><span style='font-weight: bold; font-size: 100px; color: green;'>+10 points!</span><br><br></div>,,delaylearn,learning,feedback_image_window,ntvoXHLKhgOiViEf7YZNx6QoUhG2,ntvoXHLKhgOiViEf7YZNx6QoUhG2,,,,,,,,,,,,,,,,,,,,,,5f3d455fc5a9c209cb8b94b4,16:26:12,27/03/2024
html-keyboard-response,56,102883,0.0-25.0,,"<div style=""font-size:100px;"">+</div>",,delaylearn,learning,ITI,ntvoXHLKhgOiViEf7YZNx6QoUhG2,ntvoXHLKhgOiViEf7YZNx6QoUhG2,,,,,,,,,,,,,,,,,,,1739.0,,,5f3d455fc5a9c209cb8b94b4,16:26:12,27/03/2024
html-keyboard-response,57,103415,0.0-26.0-0.0,530.2999999523163,"<div style=""display: flex; flex-direction: column; align-items: center; margin-top: -40px;""><img src=""images/pattern_4.png"" style=""width: 234px; height: 230px; margin-top: -50px;""><div style=""display: flex; justify-content: space-between; margin-top: 33px;""><img src=""images/choice_trial_15.png"" style=""width: 408px; height: 417px; margin-right: 200px;""><img src=""images/choice_trial_9.png"" style=""width: 408px; height: 417px;""></div></div>",f,delaylearn,learning,trial,ntvoXHLKhgOiViEf7YZNx6QoUhG2,ntvoXHLKhgOiViEf7YZNx6QoUhG2,3.0,images/choice_trial_15.png,images/choice_trial_9.png,images/pattern_4.png,f,f,7000.0,15.0,9.0,3.0,0.0,11.0,1.0,1.0,15.0,90.0,,,,,,5f3d455fc5a9c209cb8b94b4,16:26:12,27/03/2024
html-keyboard-response,58,104418,0.0-26.0-1.0,,"<div style=""display: flex; flex-direction: column; align-items: center; margin-top: -40px;""><img src=""images/pattern_4.png"" style=""width: 234px; height: 230px; margin-top: -50px;""><div style=""display: flex; justify-content: space-between; margin-top: 33px;""><img src=""images/choice_trial_15.png"" style=""width: 408px; height: 417px; margin-right: 608px;""></div></div>",,delaylearn,learning,display_response,ntvoXHLKhgOiViEf7YZNx6QoUhG2,ntvoXHLKhgOiViEf7YZNx6QoUhG2,,,,,,,,,,,,,,,,,chosen stimuli: images/choice_trial_15.png,,,,,5f3d455fc5a9c209cb8b94b4,16:26:12,27/03/2024
html-keyboard-response,59,111422,0.0-26.0-2.0,,,,delaylearn,learning,feedback_duration_window,ntvoXHLKhgOiViEf7YZNx6QoUhG2,ntvoXHLKhgOiViEf7YZNx6QoUhG2,,,,,,,,,,,,,,,,,,7000.0,,,,5f3d455fc5a9c209cb8b94b4,16:26:12,27/03/2024
html-keyboard-response,60,112938,0.0-26.0-3.0,,<div style='margin:auto;width: auto; font-size: 150%'><span style='font-weight: bold; font-size: 100px; color: green;'>+10 points!</span><br><br></div>,,delaylearn,learning,feedback_image_window,ntvoXHLKhgOiViEf7YZNx6QoUhG2,ntvoXHLKhgOiViEf7YZNx6QoUhG2,,,,,,,,,,,,,,,,,,,,,,5f3d455fc5a9c209cb8b94b4,16:26:12,27/03/2024
html-keyboard-response,61,114567,0.0-27.0,,"<div style=""font-size:100px;"">+</div>",,delaylearn,learning,ITI,ntvoXHLKhgOiViEf7YZNx6QoUhG2,ntvoXHLKhgOiViEf7YZNx6QoUhG2,,,,,,,,,,,,,,,,,,,1626.0,,,5f3d455fc5a9c209cb8b94b4,16:26:12,27/03/2024
html-keyboard-response,62,114989,0.0-28.0-0.0,419.39999997615814,"<div style=""display: flex; flex-direction: column; align-items: center; margin-top: -40px;""><img src=""images/pattern_5.png"" style=""width: 234px; height: 230px; margin-top: -50px;""><div style=""display: flex; justify-content: space-between; margin-top: 33px;""><img src=""images/choice_trial_2.png"" style=""width: 408px; height: 417px; margin-right: 200px;""><img src=""images/choice_trial_11.png"" style=""width: 408px; height: 417px;""></div></div>",j,delaylearn,learning,trial,ntvoXHLKhgOiViEf7YZNx6QoUhG2,ntvoXHLKhgOiViEf7YZNx6QoUhG2,3.0,images/choice_trial_2.png,images/choice_trial_11.png,images/pattern_5.png,j,j,750.0,2.0,11.0,4.0,1.0,12.0,1.0,1.0,11.0,100.0,,,,,,5f3d455fc5a9c209cb8b94b4,16:26:12,27/03/2024
html-keyboard-response,63,115998,0.0-28.0-1.0,,"<div style=""display: flex; flex-direction: column; align-items: center; margin-top: -40px;""><img src=""images/pattern_5.png"" style=""width: 234px; height: 230px; margin-top: -50px;""><div style=""display: flex; justify-content: space-between; margin-top: 33px;""><img src=""images/choice_trial_11.png"" style=""width: 408px; height: 417px; margin-left:608px;""></div></div>",,delaylearn,learning,display_response,ntvoXHLKhgOiViEf7YZNx6QoUhG2,ntvoXHLKhgOiViEf7YZNx6QoUhG2,,,,,,,,,,,,,,,,,chosen stimuli: images/choice_trial_11.png,,,,,5f3d455fc5a9c209cb8b94b4,16:26:12,27/03/2024
html-keyboard-response,64,116755,0.0-28.0-2.0,,,,delaylearn,learning,feedback_duration_window,ntvoXHLKhgOiViEf7YZNx6QoUhG2,ntvoXHLKhgOiViEf7YZNx6QoUhG2,,,,,,,,,,,,,,,,,,750.0,,,,5f3d455fc5a9c209cb8b94b4,16:26:12,27/03/2024
html-keyboard-response,65,118258,0.0-28.0-3.0,,<div style='margin:auto;width: auto; font-size: 150%'><span style='font-weight: bold; font-size: 100px; color: green;'>+10 points!</span><br><br></div>,,delaylearn,learning,feedback_image_window,ntvoXHLKhgOiViEf7YZNx6QoUhG2,ntvoXHLKhgOiViEf7YZNx6QoUhG2,,,,,,,,,,,,,,,,,,,,,,5f3d455fc5a9c209cb8b94b4,16:26:12,27/03/2024
html-keyboard-response,66,120636,0.0-29.0,,"<div style=""font-size:100px;"">+</div>",,delaylearn,learning,ITI,ntvoXHLKhgOiViEf7YZNx6QoUhG2,ntvoXHLKhgOiViEf7YZNx6QoUhG2,,,,,,,,,,,,,,,,,,,2370.0,,,5f3d455fc5a9c209cb8b94b4,16:26:12,27/03/2024
html-keyboard-response,67,121098,0.0-30.0-0.0,459.5999999642372,"<div style=""display: flex; flex-direction: column; align-items: center; margin-top: -40px;""><img src=""images/pattern_6.png"" style=""width: 234px; height: 230px; margin-top: -50px;""><div style=""display: flex; justify-content: space-between; margin-top: 33px;""><img src=""images/choice_trial_16.png"" style=""width: 408px; height: 417px; margin-right: 200px;""><img src=""images/choice_trial_3.png"" style=""width: 408px; height: 417px;""></div></div>",f,delaylearn,learning,trial,ntvoXHLKhgOiViEf7YZNx6QoUhG2,ntvoXHLKhgOiViEf7YZNx6QoUhG2,3.0,images/choice_trial_16.png,images/choice_trial_3.png,images/pattern_6.png,j,f,750.0,16.0,3.0,5.0,0.0,13.0,1.0,0.0,16.0,100.0,,,,,,5f3d455fc5a9c209cb8b94b4,16:26:12,27/03/2024
html-keyboard-response,68,122107,0.0-30.0-1.0,,"<div style=""display: flex; flex-direction: column; align-items: center; margin-top: -40px;""><img src=""images/pattern_6.png"" style=""width: 234px; height: 230px; margin-top: -50px;""><div style=""display: flex; justify-content: space-between; margin-top: 33px;""><img src=""images/choice_trial_16.png"" style=""width: 408px; height: 417px; margin-right: 608px;""></div></div>",,delaylearn,learning,display_response,ntvoXHLKhgOiViEf7YZNx6QoUhG2,ntvoXHLKhgOiViEf7YZNx6QoUhG2,,,,,,,,,,,,,,,,,chosen stimuli: images/choice_trial_16.png,,,,,5f3d455fc5a9c209cb8b94b4,16:26:12,27/03/2024
html-keyboard-response,69,122870,0.0-30.0-2.0,,,,delaylearn,learning,feedback_duration_window,ntvoXHLKhgOiViEf7YZNx6QoUhG2,ntvoXHLKhgOiViEf7YZNx6QoUhG2,,,,,,,,,,,,,,,,,,750.0,,,,5f3d455fc5a9c209cb8b94b4,16:26:12,27/03/2024
html-keyboard-response,70,124378,0.0-30.0-3.0,,<div style='margin:auto;width: auto; font-size: 150%'><span style='font-weight: bold; font-size: 100px; color: red;'>0 points!</span><br><br></div>,,delaylearn,learning,feedback_image_window,ntvoXHLKhgOiViEf7YZNx6QoUhG2,ntvoXHLKhgOiViEf7YZNx6QoUhG2,,,,,,,,,,,,,,,,,,,,,,5f3d455fc5a9c209cb8b94b4,16:26:12,27/03/2024
html-keyboard-response,71,124889,0.0-31.0-0.0,,,,,,mood_trial_fixation,ntvoXHLKhgOiViEf7YZNx6QoUhG2,,,,,,,,,,,,,,,,,,,,,,,5f3d455fc5a9c209cb8b94b4,16:26:12,27/03/2024
lmdlab-html-vas-response,72,129270,0.0-31.0-1.0,3372.0,How happy are you right now?,0.7754629629629629,delaylearn,learning,mood_trial,ntvoXHLKhgOiViEf7YZNx6QoUhG2,ntvoXHLKhgOiViEf7YZNx6QoUhG2,,,,,,,,,,,,,,,,,,,,"['Very unhappy', 'Very happy']",,5f3d455fc5a9c209cb8b94b4,16:26:12,27/03/2024
html-keyboard-response,73,131390,0.0-32.0,,"<div style=""font-size:100px;"">+</div>",,delaylearn,learning,ITI,ntvoXHLKhgOiViEf7YZNx6QoUhG2,ntvoXHLKhgOiViEf7YZNx6QoUhG2,,,,,,,,,,,,,,,,,,,2114.0,,,5f3d455fc5a9c209cb8b94b4,16:26:12,27/03/2024
html-keyboard-response,74,131730,0.0-33.0-0.0,337.7000000476837,"<div style=""display: flex; flex-direction: column; align-items: center; margin-top: -40px;""><img src=""images/pattern_1.png"" style=""width: 234px; height: 230px; margin-top: -50px;""><div style=""display: flex; justify-content: space-between; margin-top: 33px;""><img src=""images/choice_trial_8.png"" style=""width: 408px; height: 417px; margin-right: 200px;""><img src=""images/choice_trial_14.png"" style=""width: 408px; height: 417px;""></div></div>",j,delaylearn,learning,trial,ntvoXHLKhgOiViEf7YZNx6QoUhG2,ntvoXHLKhgOiViEf7YZNx6QoUhG2,3.0,images/choice_trial_8.png,images/choice_trial_14.png,images/pattern_1.png,j,j,7000.0,8.0,14.0,1.0,1.0,14.0,1.0,1.0,14.0,110.0,,,,,,5f3d455fc5a9c209cb8b94b4,16:26:12,27/03/2024
html-keyboard-response,75,132732,0.0-33.0-1.0,,"<div style=""display: flex; flex-direction: column; align-items: center; margin-top: -40px;""><img src=""images/pattern_1.png"" style=""width: 234px; height: 230px; margin-top: -50px;""><div style=""display: flex; justify-content: space-between; margin-top: 33px;""><img src=""images/choice_trial_14.png"" style=""width: 408px; height: 417px; margin-left:608px;""></div></div>",,delaylearn,learning,display_response,ntvoXHLKhgOiViEf7YZNx6QoUhG2,ntvoXHLKhgOiViEf7YZNx6QoUhG2,,,,,,,,,,,,,,,,,chosen stimuli: images/choice_trial_14.png,,,,,5f3d455fc5a9c209cb8b94b4,16:26:12,27/03/2024
html-keyboard-response,76,139742,0.0-33.0-2.0,,,,delaylearn,learning,feedback_duration_window,ntvoXHLKhgOiViEf7YZNx6QoUhG2,ntvoXHLKhgOiViEf7YZNx6QoUhG2,,,,,,,,,,,,,,,,,,7000.0,,,,5f3d455fc5a9c209cb8b94b4,16:26:12,27/03/2024
html-keyboard-response,77,141249,0.0-33.0-3.0,,<div style='margin:auto;width: auto; font-size: 150%'><span style='font-weight: bold; font-size: 100px; color: green;'>+10 points!</span><br><br></div>,,delaylearn,learning,feedback_image_window,ntvoXHLKhgOiViEf7YZNx6QoUhG2,ntvoXHLKhgOiViEf7YZNx6QoUhG2,,,,,,,,,,,,,,,,,,,,,,5f3d455fc5a9c209cb8b94b4,16:26:12,27/03/2024
html-keyboard-response,78,143621,0.0-34.0,,"<div style=""font-size:100px;"">+</div>",,delaylearn,learning,ITI,ntvoXHLKhgOiViEf7YZNx6QoUhG2,ntvoXHLKhgOiViEf7YZNx6QoUhG2,,,,,,,,,,,,,,,,,,,2366.0,,,5f3d455fc5a9c209cb8b94b4,16:26:12,27/03/2024
html-keyboard-response,79,143901,0.0-35.0-0.0,278.5,"<div style=""display: flex; flex-direction: column; align-items: center; margin-top: -40px;""><img src=""images/pattern_3.png"" style=""width: 234px; height: 230px; margin-top: -50px;""><div style=""display: flex; justify-content: space-between; margin-top: 33px;""><img src=""images/choice_trial_10.png"" style=""width: 408px; height: 417px; margin-right: 200px;""><img src=""images/choice_trial_13.png"" style=""width: 408px; height: 417px;""></div></div>",f,delaylearn,learning,trial,ntvoXHLKhgOiViEf7YZNx6QoUhG2,ntvoXHLKhgOiViEf7YZNx6QoUhG2,3.0,images/choice_trial_10.png,images/choice_trial_13.png,images/pattern_3.png,f,j,7000.0,10.0,13.0,2.0,1.0,15.0,0.0,1.0,10.0,120.0,,,,,,5f3d455fc5a9c209cb8b94b4,16:26:12,27/03/2024
html-keyboard-response,80,144908,0.0-35.0-1.0,,"<div style=""display: flex; flex-direction: column; align-items: center; margin-top: -40px;""><img src=""images/pattern_3.png"" style=""width: 234px; height: 230px; margin-top: -50px;""><div style=""display: flex; justify-content: space-between; margin-top: 33px;""><img src=""images/choice_trial_10.png"" style=""width: 408px; height: 417px; margin-right: 608px;""></div></div>",,delaylearn,learning,display_response,ntvoXHLKhgOiViEf7YZNx6QoUhG2,ntvoXHLKhgOiViEf7YZNx6QoUhG2,,,,,,,,,,,,,,,,,chosen stimuli: images/choice_trial_10.png,,,,,5f3d455fc5a9c209cb8b94b4,16:26:12,27/03/2024
html-keyboard-response,81,151910,0.0-35.0-2.0,,,,delaylearn,learning,feedback_duration_window,ntvoXHLKhgOiViEf7YZNx6QoUhG2,ntvoXHLKhgOiViEf7YZNx6QoUhG2,,,,,,,,,,,,,,,,,,7000.0,,,,5f3d455fc5a9c209cb8b94b4,16:26:12,27/03/2024
html-keyboard-response,82,153412,0.0-35.0-3.0,,<div style='margin:auto;width: auto; font-size: 150%'><span style='font-weight: bold; font-size: 100px; color: green;'>+10 points!</span><br><br></div>,,delaylearn,learning,feedback_image_window,ntvoXHLKhgOiViEf7YZNx6QoUhG2,ntvoXHLKhgOiViEf7YZNx6QoUhG2,,,,,,,,,,,,,,,,,,,,,,5f3d455fc5a9c209cb8b94b4,16:26:12,27/03/2024
html-keyboard-response,83,155749,0.0-36.0,,"<div style=""font-size:100px;"">+</div>",,delaylearn,learning,ITI,ntvoXHLKhgOiViEf7YZNx6QoUhG2,ntvoXHLKhgOiViEf7YZNx6QoUhG2,,,,,,,,,,,,,,,,,,,2321.0,,,5f3d455fc5a9c209cb8b94b4,16:26:12,27/03/2024
html-keyboard-response,84,156137,0.0-37.0-0.0,386.4000000357628,"<div style=""display: flex; flex-direction: column; align-items: center; margin-top: -40px;""><img src=""images/pattern_5.png"" style=""width: 234px; height: 230px; margin-top: -50px;""><div style=""display: flex; justify-content: space-between; margin-top: 33px;""><img src=""images/choice_trial_11.png"" style=""width: 408px; height: 417px; margin-right: 200px;""><img src=""images/choice_trial_2.png"" style=""width: 408px; height: 417px;""></div></div>",j,delaylearn,learning,trial,ntvoXHLKhgOiViEf7YZNx6QoUhG2,ntvoXHLKhgOiViEf7YZNx6QoUhG2,3.0,images/choice_trial_11.png,images/choice_trial_2.png,images/pattern_5.png,f,f,750.0,11.0,2.0,4.0,0.0,16.0,0.0,0.0,2.0,120.0,,,,,,5f3d455fc5a9c209cb8b94b4,16:26:12,27/03/2024
html-keyboard-response,85,157139,0.0-37.0-1.0,,"<div style=""display: flex; flex-direction: column; align-items: center; margin-top: -40px;""><img src=""images/pattern_5.png"" style=""width: 234px; height: 230px; margin-top: -50px;""><div style=""display: flex; justify-content: space-between; margin-top: 33px;""><img src=""images/choice_trial_2.png"" style=""width: 408px; height: 417px; margin-left:608px;""></div></div>",,delaylearn,learning,display_response,ntvoXHLKhgOiViEf7YZNx6QoUhG2,ntvoXHLKhgOiViEf7YZNx6QoUhG2,,,,,,,,,,,,,,,,,chosen stimuli: images/choice_trial_2.png,,,,,5f3d455fc5a9c209cb8b94b4,16:26:12,27/03/2024
html-keyboard-response,86,157899,0.0-37.0-2.0,,,,delaylearn,learning,feedback_duration_window,ntvoXHLKhgOiViEf7YZNx6QoUhG2,ntvoXHLKhgOiViEf7YZNx6QoUhG2,,,,,,,,,,,,,,,,,,750.0,,,,5f3d455fc5a9c209cb8b94b4,16:26:12,27/03/2024
html-keyboard-response,87,159403,0.0-37.0-3.0,,<div style='margin:auto;width: auto; font-size: 150%'><span style='font-weight: bold; font-size: 100px; color: red;'>0 points!</span><br><br></div>,,delaylearn,learning,feedback_image_window,ntvoXHLKhgOiViEf7YZNx6QoUhG2,ntvoXHLKhgOiViEf7YZNx6QoUhG2,,,,,,,,,,,,,,,,,,,,,,5f3d455fc5a9c209cb8b94b4,16:26:12,27/03/2024
html-keyboard-response,88,159914,0.0-38.0-0.0,,,,,,mood_trial_fixation,ntvoXHLKhgOiViEf7YZNx6QoUhG2,,,,,,,,,,,,,,,,,,,,,,,5f3d455fc5a9c209cb8b94b4,16:26:12,27/03/2024
lmdlab-html-vas-response,89,164538,0.0-38.0-1.0,3617.0,How happy are you right now?,0.6296296296296297,delaylearn,learning,mood_trial,ntvoXHLKhgOiViEf7YZNx6QoUhG2,ntvoXHLKhgOiViEf7YZNx6QoUhG2,,,,,,,,,,,,,,,,,,,,"['Very unhappy', 'Very happy']",,5f3d455fc5a9c209cb8b94b4,16:26:12,27/03/2024
html-keyboard-response,90,166316,0.0-39.0,,"<div style=""font-size:100px;"">+</div>",,delaylearn,learning,ITI,ntvoXHLKhgOiViEf7YZNx6QoUhG2,ntvoXHLKhgOiViEf7YZNx6QoUhG2,,,,,,,,,,,,,,,,,,,1772.0,,,5f3d455fc5a9c209cb8b94b4,16:26:12,27/03/2024
html-keyboard-response,91,166603,0.0-40.0-0.0,285.0999999642372,"<div style=""display: flex; flex-direction: column; align-items: center; margin-top: -40px;""><img src=""images/pattern_6.png"" style=""width: 234px; height: 230px; margin-top: -50px;""><div style=""display: flex; justify-content: space-between; margin-top: 33px;""><img src=""images/choice_trial_16.png"" style=""width: 408px; height: 417px; margin-right: 200px;""><img src=""images/choice_trial_3.png"" style=""width: 408px; height: 417px;""></div></div>",f,delaylearn,learning,trial,ntvoXHLKhgOiViEf7YZNx6QoUhG2,ntvoXHLKhgOiViEf7YZNx6QoUhG2,3.0,images/choice_trial_16.png,images/choice_trial_3.png,images/pattern_6.png,f,f,750.0,16.0,3.0,5.0,0.0,17.0,1.0,1.0,16.0,130.0,,,,,,5f3d455fc5a9c209cb8b94b4,16:26:12,27/03/2024
html-keyboard-response,92,167616,0.0-40.0-1.0,,"<div style=""display: flex; flex-direction: column; align-items: center; margin-top: -40px;""><img src=""images/pattern_6.png"" style=""width: 234px; height: 230px; margin-top: -50px;""><div style=""display: flex; justify-content: space-between; margin-top: 33px;""><img src=""images/choice_trial_16.png"" style=""width: 408px; height: 417px; margin-right: 608px;""></div></div>",,delaylearn,learning,display_response,ntvoXHLKhgOiViEf7YZNx6QoUhG2,ntvoXHLKhgOiViEf7YZNx6QoUhG2,,,,,,,,,,,,,,,,,chosen stimuli: images/choice_trial_16.png,,,,,5f3d455fc5a9c209cb8b94b4,16:26:12,27/03/2024
html-keyboard-response,93,168379,0.0-40.0-2.0,,,,delaylearn,learning,feedback_duration_window,ntvoXHLKhgOiViEf7YZNx6QoUhG2,ntvoXHLKhgOiViEf7YZNx6QoUhG2,,,,,,,,,,,,,,,,,,750.0,,,,5f3d455fc5a9c209cb8b94b4,16:26:12,27/03/2024
html-keyboard-response,94,169885,0.0-40.0-3.0,,<div style='margin:auto;width: auto; font-size: 150%'><span style='font-weight: bold; font-size: 100px; color: green;'>+10 points!</span><br><br></div>,,delaylearn,learning,feedback_image_window,ntvoXHLKhgOiViEf7YZNx6QoUhG2,ntvoXHLKhgOiViEf7YZNx6QoUhG2,,,,,,,,,,,,,,,,,,,,,,5f3d455fc5a9c209cb8b94b4,16:26:12,27/03/2024
html-keyboard-response,95,171893,0.0-41.0,,"<div style=""font-size:100px;"">+</div>",,delaylearn,learning,ITI,ntvoXHLKhgOiViEf7YZNx6QoUhG2,ntvoXHLKhgOiViEf7YZNx6QoUhG2,,,,,,,,,,,,,,,,,,,2004.0,,,5f3d455fc5a9c209cb8b94b4,16:26:12,27/03/2024
html-keyboard-response,96,172439,0.0-42.0-0.0,544.0999999642372,"<div style=""display: flex; flex-direction: column; align-items: center; margin-top: -40px;""><img src=""images/pattern_4.png"" style=""width: 234px; height: 230px; margin-top: -50px;""><div style=""display: flex; justify-content: space-between; margin-top: 33px;""><img src=""images/choice_trial_9.png"" style=""width: 408px; height: 417px; margin-right: 200px;""><img src=""images/choice_trial_15.png"" style=""width: 408px; height: 417px;""></div></div>",j,delaylearn,learning,trial,ntvoXHLKhgOiViEf7YZNx6QoUhG2,ntvoXHLKhgOiViEf7YZNx6QoUhG2,3.0,images/choice_trial_9.png,images/choice_trial_15.png,images/pattern_4.png,j,j,7000.0,9.0,15.0,3.0,1.0,18.0,1.0,1.0,15.0,140.0,,,,,,5f3d455fc5a9c209cb8b94b4,16:26:12,27/03/2024
html-keyboard-response,97,173441,0.0-42.0-1.0,,"<div style=""display: flex; flex-direction: column; align-items: center; margin-top: -40px;""><img src=""images/pattern_4.png"" style=""width: 234px; height: 230px; margin-top: -50px;""><div style=""display: flex; justify-content: space-between; margin-top: 33px;""><img src=""images/choice_trial_15.png"" style=""width: 408px; height: 417px; margin-left:608px;""></div></div>",,delaylearn,learning,display_response,ntvoXHLKhgOiViEf7YZNx6QoUhG2,ntvoXHLKhgOiViEf7YZNx6QoUhG2,,,,,,,,,,,,,,,,,chosen stimuli: images/choice_trial_15.png,,,,,5f3d455fc5a9c209cb8b94b4,16:26:12,27/03/2024
html-keyboard-response,98,180448,0.0-42.0-2.0,,,,delaylearn,learning,feedback_duration_window,ntvoXHLKhgOiViEf7YZNx6QoUhG2,ntvoXHLKhgOiViEf7YZNx6QoUhG2,,,,,,,,,,,,,,,,,,7000.0,,,,5f3d455fc5a9c209cb8b94b4,16:26:12,27/03/2024
html-keyboard-response,99,181952,0.0-42.0-3.0,,<div style='margin:auto;width: auto; font-size: 150%'><span style='font-weight: bold; font-size: 100px; color: green;'>+10 points!</span><br><br></div>,,delaylearn,learning,feedback_image_window,ntvoXHLKhgOiViEf7YZNx6QoUhG2,ntvoXHLKhgOiViEf7YZNx6QoUhG2,,,,,,,,,,,,,,,,,,,,,,5f3d455fc5a9c209cb8b94b4,16:26:12,27/03/2024
html-keyboard-response,100,184340,0.0-43.0,,"<div style=""font-size:100px;"">+</div>",,delaylearn,learning,ITI,ntvoXHLKhgOiViEf7YZNx6QoUhG2,ntvoXHLKhgOiViEf7YZNx6QoUhG2,,,,,,,,,,,,,,,,,,,2375.0,,,5f3d455fc5a9c209cb8b94b4,16:26:12,27/03/2024
html-keyboard-response,101,184971,0.0-44.0-0.0,629.5,"<div style=""display: flex; flex-direction: column; align-items: center; margin-top: -40px;""><img src=""images/pattern_7.png"" style=""width: 234px; height: 230px; margin-top: -50px;""><div style=""display: flex; justify-content: space-between; margin-top: 33px;""><img src=""images/choice_trial_6.png"" style=""width: 408px; height: 417px; margin-right: 200px;""><img src=""images/choice_trial_12.png"" style=""width: 408px; height: 417px;""></div></div>",f,delaylearn,learning,trial,ntvoXHLKhgOiViEf7YZNx6QoUhG2,ntvoXHLKhgOiViEf7YZNx6QoUhG2,3.0,images/choice_trial_6.png,images/choice_trial_12.png,images/pattern_7.png,j,f,750.0,6.0,12.0,6.0,0.0,19.0,1.0,0.0,6.0,140.0,,,,,,5f3d455fc5a9c209cb8b94b4,16:26:12,27/03/2024
html-keyboard-response,102,185973,0.0-44.0-1.0,,"<div style=""display: flex; flex-direction: column; align-items: center; margin-top: -40px;""><img src=""images/pattern_7.png"" style=""width: 234px; height: 230px; margin-top: -50px;""><div style=""display: flex; justify-content: space-between; margin-top: 33px;""><img src=""images/choice_trial_6.png"" style=""width: 408px; height: 417px; margin-right: 608px;""></div></div>",,delaylearn,learning,display_response,ntvoXHLKhgOiViEf7YZNx6QoUhG2,ntvoXHLKhgOiViEf7YZNx6QoUhG2,,,,,,,,,,,,,,,,,chosen stimuli: images/choice_trial_6.png,,,,,5f3d455fc5a9c209cb8b94b4,16:26:12,27/03/2024
html-keyboard-response,103,186734,0.0-44.0-2.0,,,,delaylearn,learning,feedback_duration_window,ntvoXHLKhgOiViEf7YZNx6QoUhG2,ntvoXHLKhgOiViEf7YZNx6QoUhG2,,,,,,,,,,,,,,,,,,750.0,,,,5f3d455fc5a9c209cb8b94b4,16:26:12,27/03/2024
html-keyboard-response,104,188248,0.0-44.0-3.0,,<div style='margin:auto;width: auto; font-size: 150%'><span style='font-weight: bold; font-size: 100px; color: red;'>0 points!</span><br><br></div>,,delaylearn,learning,feedback_image_window,ntvoXHLKhgOiViEf7YZNx6QoUhG2,ntvoXHLKhgOiViEf7YZNx6QoUhG2,,,,,,,,,,,,,,,,,,,,,,5f3d455fc5a9c209cb8b94b4,16:26:12,27/03/2024
html-keyboard-response,105,190694,0.0-45.0,,"<div style=""font-size:100px;"">+</div>",,delaylearn,learning,ITI,ntvoXHLKhgOiViEf7YZNx6QoUhG2,ntvoXHLKhgOiViEf7YZNx6QoUhG2,,,,,,,,,,,,,,,,,,,2442.0,,,5f3d455fc5a9c209cb8b94b4,16:26:12,27/03/2024
html-keyboard-response,106,191207,0.0-46.0-0.0,511.0,"<div style=""display: flex; flex-direction: column; align-items: center; margin-top: -40px;""><img src=""images/pattern_1.png"" style=""width: 234px; height: 230px; margin-top: -50px;""><div style=""display: flex; justify-content: space-between; margin-top: 33px;""><img src=""images/choice_trial_14.png"" style=""width: 408px; height: 417px; margin-right: 200px;""><img src=""images/choice_trial_8.png"" style=""width: 408px; height: 417px;""></div></div>",j,delaylearn,learning,trial,ntvoXHLKhgOiViEf7YZNx6QoUhG2,ntvoXHLKhgOiViEf7YZNx6QoUhG2,3.0,images/choice_trial_14.png,images/choice_trial_8.png,images/pattern_1.png,f,f,7000.0,14.0,8.0,1.0,0.0,20.0,0.0,0.0,8.0,140.0,,,,,,5f3d455fc5a9c209cb8b94b4,16:26:12,27/03/2024
html-keyboard-response,107,192215,0.0-46.0-1.0,,"<div style=""display: flex; flex-direction: column; align-items: center; margin-top: -40px;""><img src=""images/pattern_1.png"" style=""width: 234px; height: 230px; margin-top: -50px;""><div style=""display: flex; justify-content: space-between; margin-top: 33px;""><img src=""images/choice_trial_8.png"" style=""width: 408px; height: 417px; margin-left:608px;""></div></div>",,delaylearn,learning,display_response,ntvoXHLKhgOiViEf7YZNx6QoUhG2,ntvoXHLKhgOiViEf7YZNx6QoUhG2,,,,,,,,,,,,,,,,,chosen stimuli: images/choice_trial_8.png,,,,,5f3d455fc5a9c209cb8b94b4,16:26:12,27/03/2024
html-keyboard-response,108,199220,0.0-46.0-2.0,,,,delaylearn,learning,feedback_duration_window,ntvoXHLKhgOiViEf7YZNx6QoUhG2,ntvoXHLKhgOiViEf7YZNx6QoUhG2,,,,,,,,,,,,,,,,,,7000.0,,,,5f3d455fc5a9c209cb8b94b4,16:26:12,27/03/2024
html-keyboard-response,109,200726,0.0-46.0-3.0,,<div style='margin:auto;width: auto; font-size: 150%'><span style='font-weight: bold; font-size: 100px; color: red;'>0 points!</span><br><br></div>,,delaylearn,learning,feedback_image_window,ntvoXHLKhgOiViEf7YZNx6QoUhG2,ntvoXHLKhgOiViEf7YZNx6QoUhG2,,,,,,,,,,,,,,,,,,,,,,5f3d455fc5a9c209cb8b94b4,16:26:12,27/03/2024
html-keyboard-response,110,202667,0.0-47.0,,"<div style=""font-size:100px;"">+</div>",,delaylearn,learning,ITI,ntvoXHLKhgOiViEf7YZNx6QoUhG2,ntvoXHLKhgOiViEf7YZNx6QoUhG2,,,,,,,,,,,,,,,,,,,1927.0,,,5f3d455fc5a9c209cb8b94b4,16:26:12,27/03/2024
html-keyboard-response,111,203043,0.0-48.0-0.0,373.89999997615814,"<div style=""display: flex; flex-direction: column; align-items: center; margin-top: -40px;""><img src=""images/pattern_6.png"" style=""width: 234px; height: 230px; margin-top: -50px;""><div style=""display: flex; justify-content: space-between; margin-top: 33px;""><img src=""images/choice_trial_3.png"" style=""width: 408px; height: 417px; margin-right: 200px;""><img src=""images/choice_trial_16.png"" style=""width: 408px; height: 417px;""></div></div>",f,delaylearn,learning,trial,ntvoXHLKhgOiViEf7YZNx6QoUhG2,ntvoXHLKhgOiViEf7YZNx6QoUhG2,3.0,images/choice_trial_3.png,images/choice_trial_16.png,images/pattern_6.png,j,j,750.0,3.0,16.0,5.0,1.0,21.0,0.0,0.0,3.0,140.0,,,,,,5f3d455fc5a9c209cb8b94b4,16:26:12,27/03/2024
html-keyboard-response,112,204052,0.0-48.0-1.0,,"<div style=""display: flex; flex-direction: column; align-items: center; margin-top: -40px;""><img src=""images/pattern_6.png"" style=""width: 234px; height: 230px; margin-top: -50px;""><div style=""display: flex; justify-content: space-between; margin-top: 33px;""><img src=""images/choice_trial_3.png"" style=""width: 408px; height: 417px; margin-right: 608px;""></div></div>",,delaylearn,learning,display_response,ntvoXHLKhgOiViEf7YZNx6QoUhG2,ntvoXHLKhgOiViEf7YZNx6QoUhG2,,,,,,,,,,,,,,,,,chosen stimuli: images/choice_trial_3.png,,,,,5f3d455fc5a9c209cb8b94b4,16:26:12,27/03/2024
html-keyboard-response,113,204810,0.0-48.0-2.0,,,,delaylearn,learning,feedback_duration_window,ntvoXHLKhgOiViEf7YZNx6QoUhG2,ntvoXHLKhgOiViEf7YZNx6QoUhG2,,,,,,,,,,,,,,,,,,750.0,,,,5f3d455fc5a9c209cb8b94b4,16:26:12,27/03/2024
html-keyboard-response,114,206319,0.0-48.0-3.0,,<div style='margin:auto;width: auto; font-size: 150%'><span style='font-weight: bold; font-size: 100px; color: red;'>0 points!</span><br><br></div>,,delaylearn,learning,feedback_image_window,ntvoXHLKhgOiViEf7YZNx6QoUhG2,ntvoXHLKhgOiViEf7YZNx6QoUhG2,,,,,,,,,,,,,,,,,,,,,,5f3d455fc5a9c209cb8b94b4,16:26:12,27/03/2024
html-keyboard-response,115,208572,0.0-49.0,,"<div style=""font-size:100px;"">+</div>",,delaylearn,learning,ITI,ntvoXHLKhgOiViEf7YZNx6QoUhG2,ntvoXHLKhgOiViEf7YZNx6QoUhG2,,,,,,,,,,,,,,,,,,,2247.0,,,5f3d455fc5a9c209cb8b94b4,16:26:12,27/03/2024
html-keyboard-response,116,209177,0.0-50.0-0.0,603.3999999761581,"<div style=""display: flex; flex-direction: column; align-items: center; margin-top: -40px;""><img src=""images/pattern_4.png"" style=""width: 234px; height: 230px; margin-top: -50px;""><div style=""display: flex; justify-content: space-between; margin-top: 33px;""><img src=""images/choice_trial_15.png"" style=""width: 408px; height: 417px; margin-right: 200px;""><img src=""images/choice_trial_9.png"" style=""width: 408px; height: 417px;""></div></div>",j,delaylearn,learning,trial,ntvoXHLKhgOiViEf7YZNx6QoUhG2,ntvoXHLKhgOiViEf7YZNx6QoUhG2,3.0,images/choice_trial_15.png,images/choice_trial_9.png,images/pattern_4.png,f,f,7000.0,15.0,9.0,3.0,0.0,22.0,0.0,0.0,9.0,140.0,,,,,,5f3d455fc5a9c209cb8b94b4,16:26:12,27/03/2024
html-keyboard-response,117,210185,0.0-50.0-1.0,,"<div style=""display: flex; flex-direction: column; align-items: center; margin-top: -40px;""><img src=""images/pattern_4.png"" style=""width: 234px; height: 230px; margin-top: -50px;""><div style=""display: flex; justify-content: space-between; margin-top: 33px;""><img src=""images/choice_trial_9.png"" style=""width: 408px; height: 417px; margin-left:608px;""></div></div>",,delaylearn,learning,display_response,ntvoXHLKhgOiViEf7YZNx6QoUhG2,ntvoXHLKhgOiViEf7YZNx6QoUhG2,,,,,,,,,,,,,,,,,chosen stimuli: images/choice_trial_9.png,,,,,5f3d455fc5a9c209cb8b94b4,16:26:12,27/03/2024
html-keyboard-response,118,217200,0.0-50.0-2.0,,,,delaylearn,learning,feedback_duration_window,ntvoXHLKhgOiViEf7YZNx6QoUhG2,ntvoXHLKhgOiViEf7YZNx6QoUhG2,,,,,,,,,,,,,,,,,,7000.0,,,,5f3d455fc5a9c209cb8b94b4,16:26:12,27/03/2024
html-keyboard-response,119,218703,0.0-50.0-3.0,,<div style='margin:auto;width: auto; font-size: 150%'><span style='font-weight: bold; font-size: 100px; color: red;'>0 points!</span><br><br></div>,,delaylearn,learning,feedback_image_window,ntvoXHLKhgOiViEf7YZNx6QoUhG2,ntvoXHLKhgOiViEf7YZNx6QoUhG2,,,,,,,,,,,,,,,,,,,,,,5f3d455fc5a9c209cb8b94b4,16:26:12,27/03/2024
html-keyboard-response,120,219215,0.0-51.0-0.0,,,,,,mood_trial_fixation,ntvoXHLKhgOiViEf7YZNx6QoUhG2,,,,,,,,,,,,,,,,,,,,,,,5f3d455fc5a9c209cb8b94b4,16:26:12,27/03/2024
lmdlab-html-vas-response,121,223370,0.0-51.0-1.0,3136.0,How happy are you right now?,0.6412037037037037,delaylearn,learning,mood_trial,ntvoXHLKhgOiViEf7YZNx6QoUhG2,ntvoXHLKhgOiViEf7YZNx6QoUhG2,,,,,,,,,,,,,,,,,,,,"['Very unhappy', 'Very happy']",,5f3d455fc5a9c209cb8b94b4,16:26:12,27/03/2024
html-keyboard-response,122,225477,0.0-52.0,,"<div style=""font-size:100px;"">+</div>",,delaylearn,learning,ITI,ntvoXHLKhgOiViEf7YZNx6QoUhG2,ntvoXHLKhgOiViEf7YZNx6QoUhG2,,,,,,,,,,,,,,,,,,,2095.0,,,5f3d455fc5a9c209cb8b94b4,16:26:12,27/03/2024
html-keyboard-response,123,225907,0.0-53.0-0.0,428.39999997615814,"<div style=""display: flex; flex-direction: column; align-items: center; margin-top: -40px;""><img src=""images/pattern_7.png"" style=""width: 234px; height: 230px; margin-top: -50px;""><div style=""display: flex; justify-content: space-between; margin-top: 33px;""><img src=""images/choice_trial_12.png"" style=""width: 408px; height: 417px; margin-right: 200px;""><img src=""images/choice_trial_6.png"" style=""width: 408px; height: 417px;""></div></div>",f,delaylearn,learning,trial,ntvoXHLKhgOiViEf7YZNx6QoUhG2,ntvoXHLKhgOiViEf7YZNx6QoUhG2,3.0,images/choice_trial_12.png,images/choice_trial_6.png,images/pattern_7.png,j,j,750.0,12.0,6.0,6.0,1.0,23.0,0.0,0.0,12.0,140.0,,,,,,5f3d455fc5a9c209cb8b94b4,16:26:12,27/03/2024
html-keyboard-response,124,226926,0.0-53.0-1.0,,"<div style=""display: flex; flex-direction: column; align-items: center; margin-top: -40px;""><img src=""images/pattern_7.png"" style=""width: 234px; height: 230px; margin-top: -50px;""><div style=""display: flex; justify-content: space-between; margin-top: 33px;""><img src=""images/choice_trial_12.png"" style=""width: 408px; height: 417px; margin-right: 608px;""></div></div>",,delaylearn,learning,display_response,ntvoXHLKhgOiViEf7YZNx6QoUhG2,ntvoXHLKhgOiViEf7YZNx6QoUhG2,,,,,,,,,,,,,,,,,chosen stimuli: images/choice_trial_12.png,,,,,5f3d455fc5a9c209cb8b94b4,16:26:12,27/03/2024
html-keyboard-response,125,227687,0.0-53.0-2.0,,,,delaylearn,learning,feedback_duration_window,ntvoXHLKhgOiViEf7YZNx6QoUhG2,ntvoXHLKhgOiViEf7YZNx6QoUhG2,,,,,,,,,,,,,,,,,,750.0,,,,5f3d455fc5a9c209cb8b94b4,16:26:12,27/03/2024
html-keyboard-response,126,229195,0.0-53.0-3.0,,<div style='margin:auto;width: auto; font-size: 150%'><span style='font-weight: bold; font-size: 100px; color: red;'>0 points!</span><br><br></div>,,delaylearn,learning,feedback_image_window,ntvoXHLKhgOiViEf7YZNx6QoUhG2,ntvoXHLKhgOiViEf7YZNx6QoUhG2,,,,,,,,,,,,,,,,,,,,,,5f3d455fc5a9c209cb8b94b4,16:26:12,27/03/2024
html-keyboard-response,127,231590,0.0-54.0,,"<div style=""font-size:100px;"">+</div>",,delaylearn,learning,ITI,ntvoXHLKhgOiViEf7YZNx6QoUhG2,ntvoXHLKhgOiViEf7YZNx6QoUhG2,,,,,,,,,,,,,,,,,,,2386.0,,,5f3d455fc5a9c209cb8b94b4,16:26:12,27/03/2024
html-keyboard-response,128,232078,0.0-55.0-0.0,486.30000001192093,"<div style=""display: flex; flex-direction: column; align-items: center; margin-top: -40px;""><img src=""images/pattern_1.png"" style=""width: 234px; height: 230px; margin-top: -50px;""><div style=""display: flex; justify-content: space-between; margin-top: 33px;""><img src=""images/choice_trial_8.png"" style=""width: 408px; height: 417px; margin-right: 200px;""><img src=""images/choice_trial_14.png"" style=""width: 408px; height: 417px;""></div></div>",j,delaylearn,learning,trial,ntvoXHLKhgOiViEf7YZNx6QoUhG2,ntvoXHLKhgOiViEf7YZNx6QoUhG2,3.0,images/choice_trial_8.png,images/choice_trial_14.png,images/pattern_1.png,f,j,7000.0,8.0,14.0,1.0,1.0,24.0,1.0,0.0,14.0,140.0,,,,,,5f3d455fc5a9c209cb8b94b4,16:26:12,27/03/2024
html-keyboard-response,129,233091,0.0-55.0-1.0,,"<div style=""display: flex; flex-direction: column; align-items: center; margin-top: -40px;""><img src=""images/pattern_1.png"" style=""width: 234px; height: 230px; margin-top: -50px;""><div style=""display: flex; justify-content: space-between; margin-top: 33px;""><img src=""images/choice_trial_14.png"" style=""width: 408px; height: 417px; margin-left:608px;""></div></div>",,delaylearn,learning,display_response,ntvoXHLKhgOiViEf7YZNx6QoUhG2,ntvoXHLKhgOiViEf7YZNx6QoUhG2,,,,,,,,,,,,,,,,,chosen stimuli: images/choice_trial_14.png,,,,,5f3d455fc5a9c209cb8b94b4,16:26:12,27/03/2024
html-keyboard-response,130,240102,0.0-55.0-2.0,,,,delaylearn,learning,feedback_duration_window,ntvoXHLKhgOiViEf7YZNx6QoUhG2,ntvoXHLKhgOiViEf7YZNx6QoUhG2,,,,,,,,,,,,,,,,,,7000.0,,,,5f3d455fc5a9c209cb8b94b4,16:26:12,27/03/2024
html-keyboard-response,131,241611,0.0-55.0-3.0,,<div style='margin:auto;width: auto; font-size: 150%'><span style='font-weight: bold; font-size: 100px; color: red;'>0 points!</span><br><br></div>,,delaylearn,learning,feedback_image_window,ntvoXHLKhgOiViEf7YZNx6QoUhG2,ntvoXHLKhgOiViEf7YZNx6QoUhG2,,,,,,,,,,,,,,,,,,,,,,5f3d455fc5a9c209cb8b94b4,16:26:12,27/03/2024
html-keyboard-response,132,243780,0.0-56.0,,"<div style=""font-size:100px;"">+</div>",,delaylearn,learning,ITI,ntvoXHLKhgOiViEf7YZNx6QoUhG2,ntvoXHLKhgOiViEf7YZNx6QoUhG2,,,,,,,,,,,,,,,,,,,2156.0,,,5f3d455fc5a9c209cb8b94b4,16:26:12,27/03/2024
html-keyboard-response,133,244273,0.0-57.0-0.0,490.2999999523163,"<div style=""display: flex; flex-direction: column; align-items: center; margin-top: -40px;""><img src=""images/pattern_5.png"" style=""width: 234px; height: 230px; margin-top: -50px;""><div style=""display: flex; justify-content: space-between; margin-top: 33px;""><img src=""images/choice_trial_2.png"" style=""width: 408px; height: 417px; margin-right: 200px;""><img src=""images/choice_trial_11.png"" style=""width: 408px; height: 417px;""></div></div>",f,delaylearn,learning,trial,ntvoXHLKhgOiViEf7YZNx6QoUhG2,ntvoXHLKhgOiViEf7YZNx6QoUhG2,3.0,images/choice_trial_2.png,images/choice_trial_11.png,images/pattern_5.png,j,j,750.0,2.0,11.0,4.0,1.0,25.0,0.0,0.0,2.0,140.0,,,,,,5f3d455fc5a9c209cb8b94b4,16:26:12,27/03/2024
html-keyboard-response,134,245283,0.0-57.0-1.0,,"<div style=""display: flex; flex-direction: column; align-items: center; margin-top: -40px;""><img src=""images/pattern_5.png"" style=""width: 234px; height: 230px; margin-top: -50px;""><div style=""display: flex; justify-content: space-between; margin-top: 33px;""><img src=""images/choice_trial_2.png"" style=""width: 408px; height: 417px; margin-right: 608px;""></div></div>",,delaylearn,learning,display_response,ntvoXHLKhgOiViEf7YZNx6QoUhG2,ntvoXHLKhgOiViEf7YZNx6QoUhG2,,,,,,,,,,,,,,,,,chosen stimuli: images/choice_trial_2.png,,,,,5f3d455fc5a9c209cb8b94b4,16:26:12,27/03/2024
html-keyboard-response,135,246042,0.0-57.0-2.0,,,,delaylearn,learning,feedback_duration_window,ntvoXHLKhgOiViEf7YZNx6QoUhG2,ntvoXHLKhgOiViEf7YZNx6QoUhG2,,,,,,,,,,,,,,,,,,750.0,,,,5f3d455fc5a9c209cb8b94b4,16:26:12,27/03/2024
html-keyboard-response,136,247547,0.0-57.0-3.0,,<div style='margin:auto;width: auto; font-size: 150%'><span style='font-weight: bold; font-size: 100px; color: red;'>0 points!</span><br><br></div>,,delaylearn,learning,feedback_image_window,ntvoXHLKhgOiViEf7YZNx6QoUhG2,ntvoXHLKhgOiViEf7YZNx6QoUhG2,,,,,,,,,,,,,,,,,,,,,,5f3d455fc5a9c209cb8b94b4,16:26:12,27/03/2024
html-keyboard-response,137,249516,0.0-58.0,,"<div style=""font-size:100px;"">+</div>",,delaylearn,learning,ITI,ntvoXHLKhgOiViEf7YZNx6QoUhG2,ntvoXHLKhgOiViEf7YZNx6QoUhG2,,,,,,,,,,,,,,,,,,,1965.0,,,5f3d455fc5a9c209cb8b94b4,16:26:12,27/03/2024
html-keyboard-response,138,250224,0.0-59.0-0.0,706.5,"<div style=""display: flex; flex-direction: column; align-items: center; margin-top: -40px;""><img src=""images/pattern_3.png"" style=""width: 234px; height: 230px; margin-top: -50px;""><div style=""display: flex; justify-content: space-between; margin-top: 33px;""><img src=""images/choice_trial_10.png"" style=""width: 408px; height: 417px; margin-right: 200px;""><img src=""images/choice_trial_13.png"" style=""width: 408px; height: 417px;""></div></div>",f,delaylearn,learning,trial,ntvoXHLKhgOiViEf7YZNx6QoUhG2,ntvoXHLKhgOiViEf7YZNx6QoUhG2,3.0,images/choice_trial_10.png,images/choice_trial_13.png,images/pattern_3.png,j,j,7000.0,10.0,13.0,2.0,1.0,26.0,0.0,0.0,10.0,140.0,,,,,,5f3d455fc5a9c209cb8b94b4,16:26:12,27/03/2024
html-keyboard-response,139,251236,0.0-59.0-1.0,,"<div style=""display: flex; flex-direction: column; align-items: center; margin-top: -40px;""><img src=""images/pattern_3.png"" style=""width: 234px; height: 230px; margin-top: -50px;""><div style=""display: flex; justify-content: space-between; margin-top: 33px;""><img src=""images/choice_trial_10.png"" style=""width: 408px; height: 417px; margin-right: 608px;""></div></div>",,delaylearn,learning,display_response,ntvoXHLKhgOiViEf7YZNx6QoUhG2,ntvoXHLKhgOiViEf7YZNx6QoUhG2,,,,,,,,,,,,,,,,,chosen stimuli: images/choice_trial_10.png,,,,,5f3d455fc5a9c209cb8b94b4,16:26:12,27/03/2024
html-keyboard-response,140,258243,0.0-59.0-2.0,,,,delaylearn,learning,feedback_duration_window,ntvoXHLKhgOiViEf7YZNx6QoUhG2,ntvoXHLKhgOiViEf7YZNx6QoUhG2,,,,,,,,,,,,,,,,,,7000.0,,,,5f3d455fc5a9c209cb8b94b4,16:26:12,27/03/2024
html-keyboard-response,141,259749,0.0-59.0-3.0,,<div style='margin:auto;width: auto; font-size: 150%'><span style='font-weight: bold; font-size: 100px; color: red;'>0 points!</span><br><br></div>,,delaylearn,learning,feedback_image_window,ntvoXHLKhgOiViEf7YZNx6QoUhG2,ntvoXHLKhgOiViEf7YZNx6QoUhG2,,,,,,,,,,,,,,,,,,,,,,5f3d455fc5a9c209cb8b94b4,16:26:12,27/03/2024
lmdlab-html-vas-response,142,264543,0.0-60.0-0.0,3285.0,*How <b><u>confident</u></b> are you feeling about your answers at this moment?*,0.48148148148148145,rewlearn,rate_confidence,,ntvoXHLKhgOiViEf7YZNx6QoUhG2,ntvoXHLKhgOiViEf7YZNx6QoUhG2,,,,,,,,,,,,,,,,,,,,"['No confidence', 'Complete confidence']",,5f3d455fc5a9c209cb8b94b4,16:26:12,27/03/2024
lmdlab-rest-trial-limit,143,272984,0.0-60.0-1.0,6937.800000011921,"<div style=""font-size:40px;""><b>Please take a break!</b><br><br><br><br><p>Great work: you earned 140 points.<br><br><br><p>You have completed part(s) 1 of 5.<br><br><br><br>When you are ready to continue<br><br><br>please click the button.</p><br><br>",0,delaylearn,learning,break,ntvoXHLKhgOiViEf7YZNx6QoUhG2,ntvoXHLKhgOiViEf7YZNx6QoUhG2,,,,,,,,,,,,,,,,,,,,,0.0,5f3d455fc5a9c209cb8b94b4,16:26:12,27/03/2024
html-keyboard-response,144,275993,0.0-60.0-2.0,,"<div style=""font-size:100px;"">+</div>",,delaylearn,learning,pre_fixation,ntvoXHLKhgOiViEf7YZNx6QoUhG2,,,,,,,,,,,,,,,,,,,,,,,5f3d455fc5a9c209cb8b94b4,16:26:12,27/03/2024
lmdlab-html-vas-response,145,279530,0.0-60.0-3.0-0.0,2524.0,How happy are you right now?,0.5949074074074074,delaylearn,learning,mood_baseline,ntvoXHLKhgOiViEf7YZNx6QoUhG2,ntvoXHLKhgOiViEf7YZNx6QoUhG2,,,,,,,,,,,,,,,,,,,,"['Very unhappy', 'Very happy']",,5f3d455fc5a9c209cb8b94b4,16:26:12,27/03/2024
html-keyboard-response,146,281045,0.0-60.0-3.0-1.0,,,,,,mood_baseline_fixation,ntvoXHLKhgOiViEf7YZNx6QoUhG2,,,,,,,,,,,,,,,,,,,,,,,5f3d455fc5a9c209cb8b94b4,16:26:12,27/03/2024
html-keyboard-response,147,283235,0.0-61.0,,"<div style=""font-size:100px;"">+</div>",,delaylearn,learning,ITI,ntvoXHLKhgOiViEf7YZNx6QoUhG2,ntvoXHLKhgOiViEf7YZNx6QoUhG2,,,,,,,,,,,,,,,,,,,2183.0,,,5f3d455fc5a9c209cb8b94b4,16:26:12,27/03/2024
html-keyboard-response,148,283900,0.0-62.0-0.0,662.3000000119209,"<div style=""display: flex; flex-direction: column; align-items: center; margin-top: -40px;""><img src=""images/pattern_7.png"" style=""width: 234px; height: 230px; margin-top: -50px;""><div style=""display: flex; justify-content: space-between; margin-top: 33px;""><img src=""images/choice_trial_12.png"" style=""width: 408px; height: 417px; margin-right: 200px;""><img src=""images/choice_trial_6.png"" style=""width: 408px; height: 417px;""></div></div>",j,delaylearn,learning,trial,ntvoXHLKhgOiViEf7YZNx6QoUhG2,ntvoXHLKhgOiViEf7YZNx6QoUhG2,3.0,images/choice_trial_12.png,images/choice_trial_6.png,images/pattern_7.png,j,j,750.0,12.0,6.0,6.0,1.0,27.0,1.0,1.0,6.0,150.0,,,,,,5f3d455fc5a9c209cb8b94b4,16:26:12,27/03/2024
html-keyboard-response,149,284914,0.0-62.0-1.0,,"<div style=""display: flex; flex-direction: column; align-items: center; margin-top: -40px;""><img src=""images/pattern_7.png"" style=""width: 234px; height: 230px; margin-top: -50px;""><div style=""display: flex; justify-content: space-between; margin-top: 33px;""><img src=""images/choice_trial_6.png"" style=""width: 408px; height: 417px; margin-left:608px;""></div></div>",,delaylearn,learning,display_response,ntvoXHLKhgOiViEf7YZNx6QoUhG2,ntvoXHLKhgOiViEf7YZNx6QoUhG2,,,,,,,,,,,,,,,,,chosen stimuli: images/choice_trial_6.png,,,,,5f3d455fc5a9c209cb8b94b4,16:26:12,27/03/2024
html-keyboard-response,150,285675,0.0-62.0-2.0,,,,delaylearn,learning,feedback_duration_window,ntvoXHLKhgOiViEf7YZNx6QoUhG2,ntvoXHLKhgOiViEf7YZNx6QoUhG2,,,,,,,,,,,,,,,,,,750.0,,,,5f3d455fc5a9c209cb8b94b4,16:26:12,27/03/2024
html-keyboard-response,151,287179,0.0-62.0-3.0,,<div style='margin:auto;width: auto; font-size: 150%'><span style='font-weight: bold; font-size: 100px; color: green;'>+10 points!</span><br><br></div>,,delaylearn,learning,feedback_image_window,ntvoXHLKhgOiViEf7YZNx6QoUhG2,ntvoXHLKhgOiViEf7YZNx6QoUhG2,,,,,,,,,,,,,,,,,,,,,,5f3d455fc5a9c209cb8b94b4,16:26:12,27/03/2024
html-keyboard-response,152,287690,0.0-63.0-0.0,,,,,,mood_trial_fixation,ntvoXHLKhgOiViEf7YZNx6QoUhG2,,,,,,,,,,,,,,,,,,,,,,,5f3d455fc5a9c209cb8b94b4,16:26:12,27/03/2024
lmdlab-html-vas-response,153,291113,0.0-63.0-1.0,2416.0,How happy are you right now?,0.5949074074074074,delaylearn,learning,mood_trial,ntvoXHLKhgOiViEf7YZNx6QoUhG2,ntvoXHLKhgOiViEf7YZNx6QoUhG2,,,,,,,,,,,,,,,,,,,,"['Very unhappy', 'Very happy']",,5f3d455fc5a9c209cb8b94b4,16:26:12,27/03/2024
html-keyboard-response,154,292730,0.0-64.0,,"<div style=""font-size:100px;"">+</div>",,delaylearn,learning,ITI,ntvoXHLKhgOiViEf7YZNx6QoUhG2,ntvoXHLKhgOiViEf7YZNx6QoUhG2,,,,,,,,,,,,,,,,,,,1600.0,,,5f3d455fc5a9c209cb8b94b4,16:26:12,27/03/2024
html-keyboard-response,155,293606,0.0-65.0-0.0,873.6000000238419,"<div style=""display: flex; flex-direction: column; align-items: center; margin-top: -40px;""><img src=""images/pattern_1.png"" style=""width: 234px; height: 230px; margin-top: -50px;""><div style=""display: flex; justify-content: space-between; margin-top: 33px;""><img src=""images/choice_trial_14.png"" style=""width: 408px; height: 417px; margin-right: 200px;""><img src=""images/choice_trial_8.png"" style=""width: 408px; height: 417px;""></div></div>",j,delaylearn,learning,trial,ntvoXHLKhgOiViEf7YZNx6QoUhG2,ntvoXHLKhgOiViEf7YZNx6QoUhG2,3.0,images/choice_trial_14.png,images/choice_trial_8.png,images/pattern_1.png,f,f,7000.0,14.0,8.0,1.0,0.0,28.0,0.0,0.0,8.0,150.0,,,,,,5f3d455fc5a9c209cb8b94b4,16:26:12,27/03/2024
html-keyboard-response,156,294609,0.0-65.0-1.0,,"<div style=""display: flex; flex-direction: column; align-items: center; margin-top: -40px;""><img src=""images/pattern_1.png"" style=""width: 234px; height: 230px; margin-top: -50px;""><div style=""display: flex; justify-content: space-between; margin-top: 33px;""><img src=""images/choice_trial_8.png"" style=""width: 408px; height: 417px; margin-left:608px;""></div></div>",,delaylearn,learning,display_response,ntvoXHLKhgOiViEf7YZNx6QoUhG2,ntvoXHLKhgOiViEf7YZNx6QoUhG2,,,,,,,,,,,,,,,,,chosen stimuli: images/choice_trial_8.png,,,,,5f3d455fc5a9c209cb8b94b4,16:26:12,27/03/2024
html-keyboard-response,157,301613,0.0-65.0-2.0,,,,delaylearn,learning,feedback_duration_window,ntvoXHLKhgOiViEf7YZNx6QoUhG2,ntvoXHLKhgOiViEf7YZNx6QoUhG2,,,,,,,,,,,,,,,,,,7000.0,,,,5f3d455fc5a9c209cb8b94b4,16:26:12,27/03/2024
html-keyboard-response,158,303115,0.0-65.0-3.0,,<div style='margin:auto;width: auto; font-size: 150%'><span style='font-weight: bold; font-size: 100px; color: red;'>0 points!</span><br><br></div>,,delaylearn,learning,feedback_image_window,ntvoXHLKhgOiViEf7YZNx6QoUhG2,ntvoXHLKhgOiViEf7YZNx6QoUhG2,,,,,,,,,,,,,,,,,,,,,,5f3d455fc5a9c209cb8b94b4,16:26:12,27/03/2024
html-keyboard-response,159,305602,0.0-66.0,,"<div style=""font-size:100px;"">+</div>",,delaylearn,learning,ITI,ntvoXHLKhgOiViEf7YZNx6QoUhG2,ntvoXHLKhgOiViEf7YZNx6QoUhG2,,,,,,,,,,,,,,,,,,,2481.0,,,5f3d455fc5a9c209cb8b94b4,16:26:12,27/03/2024
html-keyboard-response,160,306325,0.0-67.0-0.0,721.3999999761581,"<div style=""display: flex; flex-direction: column; align-items: center; margin-top: -40px;""><img src=""images/pattern_5.png"" style=""width: 234px; height: 230px; margin-top: -50px;""><div style=""display: flex; justify-content: space-between; margin-top: 33px;""><img src=""images/choice_trial_11.png"" style=""width: 408px; height: 417px; margin-right: 200px;""><img src=""images/choice_trial_2.png"" style=""width: 408px; height: 417px;""></div></div>",f,delaylearn,learning,trial,ntvoXHLKhgOiViEf7YZNx6QoUhG2,ntvoXHLKhgOiViEf7YZNx6QoUhG2,3.0,images/choice_trial_11.png,images/choice_trial_2.png,images/pattern_5.png,f,f,750.0,11.0,2.0,4.0,0.0,29.0,1.0,1.0,11.0,160.0,,,,,,5f3d455fc5a9c209cb8b94b4,16:26:12,27/03/2024
html-keyboard-response,161,307340,0.0-67.0-1.0,,"<div style=""display: flex; flex-direction: column; align-items: center; margin-top: -40px;""><img src=""images/pattern_5.png"" style=""width: 234px; height: 230px; margin-top: -50px;""><div style=""display: flex; justify-content: space-between; margin-top: 33px;""><img src=""images/choice_trial_11.png"" style=""width: 408px; height: 417px; margin-right: 608px;""></div></div>",,delaylearn,learning,display_response,ntvoXHLKhgOiViEf7YZNx6QoUhG2,ntvoXHLKhgOiViEf7YZNx6QoUhG2,,,,,,,,,,,,,,,,,chosen stimuli: images/choice_trial_11.png,,,,,5f3d455fc5a9c209cb8b94b4,16:26:12,27/03/2024
html-keyboard-response,162,308100,0.0-67.0-2.0,,,,delaylearn,learning,feedback_duration_window,ntvoXHLKhgOiViEf7YZNx6QoUhG2,ntvoXHLKhgOiViEf7YZNx6QoUhG2,,,,,,,,,,,,,,,,,,750.0,,,,5f3d455fc5a9c209cb8b94b4,16:26:12,27/03/2024
html-keyboard-response,163,309605,0.0-67.0-3.0,,<div style='margin:auto;width: auto; font-size: 150%'><span style='font-weight: bold; font-size: 100px; color: green;'>+10 points!</span><br><br></div>,,delaylearn,learning,feedback_image_window,ntvoXHLKhgOiViEf7YZNx6QoUhG2,ntvoXHLKhgOiViEf7YZNx6QoUhG2,,,,,,,,,,,,,,,,,,,,,,5f3d455fc5a9c209cb8b94b4,16:26:12,27/03/2024
html-keyboard-response,164,311726,0.0-68.0,,"<div style=""font-size:100px;"">+</div>",,delaylearn,learning,ITI,ntvoXHLKhgOiViEf7YZNx6QoUhG2,ntvoXHLKhgOiViEf7YZNx6QoUhG2,,,,,,,,,,,,,,,,,,,2105.0,,,5f3d455fc5a9c209cb8b94b4,16:26:12,27/03/2024
html-keyboard-response,165,312505,0.0-69.0-0.0,776.3000000119209,"<div style=""display: flex; flex-direction: column; align-items: center; margin-top: -40px;""><img src=""images/pattern_6.png"" style=""width: 234px; height: 230px; margin-top: -50px;""><div style=""display: flex; justify-content: space-between; margin-top: 33px;""><img src=""images/choice_trial_3.png"" style=""width: 408px; height: 417px; margin-right: 200px;""><img src=""images/choice_trial_16.png"" style=""width: 408px; height: 417px;""></div></div>",j,delaylearn,learning,trial,ntvoXHLKhgOiViEf7YZNx6QoUhG2,ntvoXHLKhgOiViEf7YZNx6QoUhG2,3.0,images/choice_trial_3.png,images/choice_trial_16.png,images/pattern_6.png,j,j,750.0,3.0,16.0,5.0,1.0,30.0,1.0,1.0,16.0,170.0,,,,,,5f3d455fc5a9c209cb8b94b4,16:26:12,27/03/2024
html-keyboard-response,166,313516,0.0-69.0-1.0,,"<div style=""display: flex; flex-direction: column; align-items: center; margin-top: -40px;""><img src=""images/pattern_6.png"" style=""width: 234px; height: 230px; margin-top: -50px;""><div style=""display: flex; justify-content: space-between; margin-top: 33px;""><img src=""images/choice_trial_16.png"" style=""width: 408px; height: 417px; margin-left:608px;""></div></div>",,delaylearn,learning,display_response,ntvoXHLKhgOiViEf7YZNx6QoUhG2,ntvoXHLKhgOiViEf7YZNx6QoUhG2,,,,,,,,,,,,,,,,,chosen stimuli: images/choice_trial_16.png,,,,,5f3d455fc5a9c209cb8b94b4,16:26:12,27/03/2024
html-keyboard-response,167,314273,0.0-69.0-2.0,,,,delaylearn,learning,feedback_duration_window,ntvoXHLKhgOiViEf7YZNx6QoUhG2,ntvoXHLKhgOiViEf7YZNx6QoUhG2,,,,,,,,,,,,,,,,,,750.0,,,,5f3d455fc5a9c209cb8b94b4,16:26:12,27/03/2024
html-keyboard-response,168,315785,0.0-69.0-3.0,,<div style='margin:auto;width: auto; font-size: 150%'><span style='font-weight: bold; font-size: 100px; color: green;'>+10 points!</span><br><br></div>,,delaylearn,learning,feedback_image_window,ntvoXHLKhgOiViEf7YZNx6QoUhG2,ntvoXHLKhgOiViEf7YZNx6QoUhG2,,,,,,,,,,,,,,,,,,,,,,5f3d455fc5a9c209cb8b94b4,16:26:12,27/03/2024
html-keyboard-response,169,316297,0.0-70.0-0.0,,,,,,mood_trial_fixation,ntvoXHLKhgOiViEf7YZNx6QoUhG2,,,,,,,,,,,,,,,,,,,,,,,5f3d455fc5a9c209cb8b94b4,16:26:12,27/03/2024
lmdlab-html-vas-response,170,320510,0.0-70.0-1.0,3202.0,How happy are you right now?,0.6990740740740741,delaylearn,learning,mood_trial,ntvoXHLKhgOiViEf7YZNx6QoUhG2,ntvoXHLKhgOiViEf7YZNx6QoUhG2,,,,,,,,,,,,,,,,,,,,"['Very unhappy', 'Very happy']",,5f3d455fc5a9c209cb8b94b4,16:26:12,27/03/2024
html-keyboard-response,171,322224,0.0-71.0,,"<div style=""font-size:100px;"">+</div>",,delaylearn,learning,ITI,ntvoXHLKhgOiViEf7YZNx6QoUhG2,ntvoXHLKhgOiViEf7YZNx6QoUhG2,,,,,,,,,,,,,,,,,,,1709.0,,,5f3d455fc5a9c209cb8b94b4,16:26:12,27/03/2024
html-keyboard-response,172,323048,0.0-72.0-0.0,822.5999999642372,"<div style=""display: flex; flex-direction: column; align-items: center; margin-top: -40px;""><img src=""images/pattern_4.png"" style=""width: 234px; height: 230px; margin-top: -50px;""><div style=""display: flex; justify-content: space-between; margin-top: 33px;""><img src=""images/choice_trial_9.png"" style=""width: 408px; height: 417px; margin-right: 200px;""><img src=""images/choice_trial_15.png"" style=""width: 408px; height: 417px;""></div></div>",j,delaylearn,learning,trial,ntvoXHLKhgOiViEf7YZNx6QoUhG2,ntvoXHLKhgOiViEf7YZNx6QoUhG2,3.0,images/choice_trial_9.png,images/choice_trial_15.png,images/pattern_4.png,j,j,7000.0,9.0,15.0,3.0,1.0,31.0,1.0,1.0,15.0,180.0,,,,,,5f3d455fc5a9c209cb8b94b4,16:26:12,27/03/2024
html-keyboard-response,173,324060,0.0-72.0-1.0,,"<div style=""display: flex; flex-direction: column; align-items: center; margin-top: -40px;""><img src=""images/pattern_4.png"" style=""width: 234px; height: 230px; margin-top: -50px;""><div style=""display: flex; justify-content: space-between; margin-top: 33px;""><img src=""images/choice_trial_15.png"" style=""width: 408px; height: 417px; margin-left:608px;""></div></div>",,delaylearn,learning,display_response,ntvoXHLKhgOiViEf7YZNx6QoUhG2,ntvoXHLKhgOiViEf7YZNx6QoUhG2,,,,,,,,,,,,,,,,,chosen stimuli: images/choice_trial_15.png,,,,,5f3d455fc5a9c209cb8b94b4,16:26:12,27/03/2024
html-keyboard-response,174,331064,0.0-72.0-2.0,,,,delaylearn,learning,feedback_duration_window,ntvoXHLKhgOiViEf7YZNx6QoUhG2,ntvoXHLKhgOiViEf7YZNx6QoUhG2,,,,,,,,,,,,,,,,,,7000.0,,,,5f3d455fc5a9c209cb8b94b4,16:26:12,27/03/2024
html-keyboard-response,175,332580,0.0-72.0-3.0,,<div style='margin:auto;width: auto; font-size: 150%'><span style='font-weight: bold; font-size: 100px; color: green;'>+10 points!</span><br><br></div>,,delaylearn,learning,feedback_image_window,ntvoXHLKhgOiViEf7YZNx6QoUhG2,ntvoXHLKhgOiViEf7YZNx6QoUhG2,,,,,,,,,,,,,,,,,,,,,,5f3d455fc5a9c209cb8b94b4,16:26:12,27/03/2024
html-keyboard-response,176,334552,0.0-73.0,,"<div style=""font-size:100px;"">+</div>",,delaylearn,learning,ITI,ntvoXHLKhgOiViEf7YZNx6QoUhG2,ntvoXHLKhgOiViEf7YZNx6QoUhG2,,,,,,,,,,,,,,,,,,,1962.0,,,5f3d455fc5a9c209cb8b94b4,16:26:12,27/03/2024
html-keyboard-response,177,335423,0.0-74.0-0.0,869.3999999761581,"<div style=""display: flex; flex-direction: column; align-items: center; margin-top: -40px;""><img src=""images/pattern_3.png"" style=""width: 234px; height: 230px; margin-top: -50px;""><div style=""display: flex; justify-content: space-between; margin-top: 33px;""><img src=""images/choice_trial_10.png"" style=""width: 408px; height: 417px; margin-right: 200px;""><img src=""images/choice_trial_13.png"" style=""width: 408px; height: 417px;""></div></div>",j,delaylearn,learning,trial,ntvoXHLKhgOiViEf7YZNx6QoUhG2,ntvoXHLKhgOiViEf7YZNx6QoUhG2,3.0,images/choice_trial_10.png,images/choice_trial_13.png,images/pattern_3.png,j,j,7000.0,10.0,13.0,2.0,1.0,32.0,1.0,1.0,13.0,190.0,,,,,,5f3d455fc5a9c209cb8b94b4,16:26:12,27/03/2024
html-keyboard-response,178,336433,0.0-74.0-1.0,,"<div style=""display: flex; flex-direction: column; align-items: center; margin-top: -40px;""><img src=""images/pattern_3.png"" style=""width: 234px; height: 230px; margin-top: -50px;""><div style=""display: flex; justify-content: space-between; margin-top: 33px;""><img src=""images/choice_trial_13.png"" style=""width: 408px; height: 417px; margin-left:608px;""></div></div>",,delaylearn,learning,display_response,ntvoXHLKhgOiViEf7YZNx6QoUhG2,ntvoXHLKhgOiViEf7YZNx6QoUhG2,,,,,,,,,,,,,,,,,chosen stimuli: images/choice_trial_13.png,,,,,5f3d455fc5a9c209cb8b94b4,16:26:12,27/03/2024
html-keyboard-response,179,343436,0.0-74.0-2.0,,,,delaylearn,learning,feedback_duration_window,ntvoXHLKhgOiViEf7YZNx6QoUhG2,ntvoXHLKhgOiViEf7YZNx6QoUhG2,,,,,,,,,,,,,,,,,,7000.0,,,,5f3d455fc5a9c209cb8b94b4,16:26:12,27/03/2024
html-keyboard-response,180,344945,0.0-74.0-3.0,,<div style='margin:auto;width: auto; font-size: 150%'><span style='font-weight: bold; font-size: 100px; color: green;'>+10 points!</span><br><br></div>,,delaylearn,learning,feedback_image_window,ntvoXHLKhgOiViEf7YZNx6QoUhG2,ntvoXHLKhgOiViEf7YZNx6QoUhG2,,,,,,,,,,,,,,,,,,,,,,5f3d455fc5a9c209cb8b94b4,16:26:12,27/03/2024
html-keyboard-response,181,347179,0.0-75.0,,"<div style=""font-size:100px;"">+</div>",,delaylearn,learning,ITI,ntvoXHLKhgOiViEf7YZNx6QoUhG2,ntvoXHLKhgOiViEf7YZNx6QoUhG2,,,,,,,,,,,,,,,,,,,2222.0,,,5f3d455fc5a9c209cb8b94b4,16:26:12,27/03/2024
html-keyboard-response,182,347911,0.0-76.0-0.0,729.6999999880791,"<div style=""display: flex; flex-direction: column; align-items: center; margin-top: -40px;""><img src=""images/pattern_5.png"" style=""width: 234px; height: 230px; margin-top: -50px;""><div style=""display: flex; justify-content: space-between; margin-top: 33px;""><img src=""images/choice_trial_11.png"" style=""width: 408px; height: 417px; margin-right: 200px;""><img src=""images/choice_trial_2.png"" style=""width: 408px; height: 417px;""></div></div>",f,delaylearn,learning,trial,ntvoXHLKhgOiViEf7YZNx6QoUhG2,ntvoXHLKhgOiViEf7YZNx6QoUhG2,3.0,images/choice_trial_11.png,images/choice_trial_2.png,images/pattern_5.png,j,f,750.0,11.0,2.0,4.0,0.0,33.0,1.0,0.0,11.0,190.0,,,,,,5f3d455fc5a9c209cb8b94b4,16:26:12,27/03/2024
html-keyboard-response,183,348916,0.0-76.0-1.0,,"<div style=""display: flex; flex-direction: column; align-items: center; margin-top: -40px;""><img src=""images/pattern_5.png"" style=""width: 234px; height: 230px; margin-top: -50px;""><div style=""display: flex; justify-content: space-between; margin-top: 33px;""><img src=""images/choice_trial_11.png"" style=""width: 408px; height: 417px; margin-right: 608px;""></div></div>",,delaylearn,learning,display_response,ntvoXHLKhgOiViEf7YZNx6QoUhG2,ntvoXHLKhgOiViEf7YZNx6QoUhG2,,,,,,,,,,,,,,,,,chosen stimuli: images/choice_trial_11.png,,,,,5f3d455fc5a9c209cb8b94b4,16:26:12,27/03/2024
html-keyboard-response,184,349679,0.0-76.0-2.0,,,,delaylearn,learning,feedback_duration_window,ntvoXHLKhgOiViEf7YZNx6QoUhG2,ntvoXHLKhgOiViEf7YZNx6QoUhG2,,,,,,,,,,,,,,,,,,750.0,,,,5f3d455fc5a9c209cb8b94b4,16:26:12,27/03/2024
html-keyboard-response,185,351187,0.0-76.0-3.0,,<div style='margin:auto;width: auto; font-size: 150%'><span style='font-weight: bold; font-size: 100px; color: red;'>0 points!</span><br><br></div>,,delaylearn,learning,feedback_image_window,ntvoXHLKhgOiViEf7YZNx6QoUhG2,ntvoXHLKhgOiViEf7YZNx6QoUhG2,,,,,,,,,,,,,,,,,,,,,,5f3d455fc5a9c209cb8b94b4,16:26:12,27/03/2024
html-keyboard-response,186,352833,0.0-77.0,,"<div style=""font-size:100px;"">+</div>",,delaylearn,learning,ITI,ntvoXHLKhgOiViEf7YZNx6QoUhG2,ntvoXHLKhgOiViEf7YZNx6QoUhG2,,,,,,,,,,,,,,,,,,,1636.0,,,5f3d455fc5a9c209cb8b94b4,16:26:12,27/03/2024
html-keyboard-response,187,353953,0.0-78.0-0.0,1118.0999999642372,"<div style=""display: flex; flex-direction: column; align-items: center; margin-top: -40px;""><img src=""images/pattern_1.png"" style=""width: 234px; height: 230px; margin-top: -50px;""><div style=""display: flex; justify-content: space-between; margin-top: 33px;""><img src=""images/choice_trial_14.png"" style=""width: 408px; height: 417px; margin-right: 200px;""><img src=""images/choice_trial_8.png"" style=""width: 408px; height: 417px;""></div></div>",j,delaylearn,learning,trial,ntvoXHLKhgOiViEf7YZNx6QoUhG2,ntvoXHLKhgOiViEf7YZNx6QoUhG2,3.0,images/choice_trial_14.png,images/choice_trial_8.png,images/pattern_1.png,f,f,7000.0,14.0,8.0,1.0,0.0,34.0,0.0,0.0,8.0,190.0,,,,,,5f3d455fc5a9c209cb8b94b4,16:26:12,27/03/2024
html-keyboard-response,188,354965,0.0-78.0-1.0,,"<div style=""display: flex; flex-direction: column; align-items: center; margin-top: -40px;""><img src=""images/pattern_1.png"" style=""width: 234px; height: 230px; margin-top: -50px;""><div style=""display: flex; justify-content: space-between; margin-top: 33px;""><img src=""images/choice_trial_8.png"" style=""width: 408px; height: 417px; margin-left:608px;""></div></div>",,delaylearn,learning,display_response,ntvoXHLKhgOiViEf7YZNx6QoUhG2,ntvoXHLKhgOiViEf7YZNx6QoUhG2,,,,,,,,,,,,,,,,,chosen stimuli: images/choice_trial_8.png,,,,,5f3d455fc5a9c209cb8b94b4,16:26:12,27/03/2024
html-keyboard-response,189,361978,0.0-78.0-2.0,,,,delaylearn,learning,feedback_duration_window,ntvoXHLKhgOiViEf7YZNx6QoUhG2,ntvoXHLKhgOiViEf7YZNx6QoUhG2,,,,,,,,,,,,,,,,,,7000.0,,,,5f3d455fc5a9c209cb8b94b4,16:26:12,27/03/2024
html-keyboard-response,190,363485,0.0-78.0-3.0,,<div style='margin:auto;width: auto; font-size: 150%'><span style='font-weight: bold; font-size: 100px; color: red;'>0 points!</span><br><br></div>,,delaylearn,learning,feedback_image_window,ntvoXHLKhgOiViEf7YZNx6QoUhG2,ntvoXHLKhgOiViEf7YZNx6QoUhG2,,,,,,,,,,,,,,,,,,,,,,5f3d455fc5a9c209cb8b94b4,16:26:12,27/03/2024
html-keyboard-response,191,363987,0.0-79.0-0.0,,,,,,mood_trial_fixation,ntvoXHLKhgOiViEf7YZNx6QoUhG2,,,,,,,,,,,,,,,,,,,,,,,5f3d455fc5a9c209cb8b94b4,16:26:12,27/03/2024
lmdlab-html-vas-response,192,367840,0.0-79.0-1.0,2843.0,How happy are you right now?,0.6157407407407407,delaylearn,learning,mood_trial,ntvoXHLKhgOiViEf7YZNx6QoUhG2,ntvoXHLKhgOiViEf7YZNx6QoUhG2,,,,,,,,,,,,,,,,,,,,"['Very unhappy', 'Very happy']",,5f3d455fc5a9c209cb8b94b4,16:26:12,27/03/2024
html-keyboard-response,193,369813,0.0-80.0,,"<div style=""font-size:100px;"">+</div>",,delaylearn,learning,ITI,ntvoXHLKhgOiViEf7YZNx6QoUhG2,ntvoXHLKhgOiViEf7YZNx6QoUhG2,,,,,,,,,,,,,,,,,,,1958.0,,,5f3d455fc5a9c209cb8b94b4,16:26:12,27/03/2024
html-keyboard-response,194,371140,0.0-81.0-0.0,1325.5,"<div style=""display: flex; flex-direction: column; align-items: center; margin-top: -40px;""><img src=""images/pattern_6.png"" style=""width: 234px; height: 230px; margin-top: -50px;""><div style=""display: flex; justify-content: space-between; margin-top: 33px;""><img src=""images/choice_trial_16.png"" style=""width: 408px; height: 417px; margin-right: 200px;""><img src=""images/choice_trial_3.png"" style=""width: 408px; height: 417px;""></div></div>",f,delaylearn,learning,trial,ntvoXHLKhgOiViEf7YZNx6QoUhG2,ntvoXHLKhgOiViEf7YZNx6QoUhG2,3.0,images/choice_trial_16.png,images/choice_trial_3.png,images/pattern_6.png,j,f,750.0,16.0,3.0,5.0,0.0,35.0,1.0,0.0,16.0,190.0,,,,,,5f3d455fc5a9c209cb8b94b4,16:26:12,27/03/2024
html-keyboard-response,195,372158,0.0-81.0-1.0,,"<div style=""display: flex; flex-direction: column; align-items: center; margin-top: -40px;""><img src=""images/pattern_6.png"" style=""width: 234px; height: 230px; margin-top: -50px;""><div style=""display: flex; justify-content: space-between; margin-top: 33px;""><img src=""images/choice_trial_16.png"" style=""width: 408px; height: 417px; margin-right: 608px;""></div></div>",,delaylearn,learning,display_response,ntvoXHLKhgOiViEf7YZNx6QoUhG2,ntvoXHLKhgOiViEf7YZNx6QoUhG2,,,,,,,,,,,,,,,,,chosen stimuli: images/choice_trial_16.png,,,,,5f3d455fc5a9c209cb8b94b4,16:26:12,27/03/2024
html-keyboard-response,196,372917,0.0-81.0-2.0,,,,delaylearn,learning,feedback_duration_window,ntvoXHLKhgOiViEf7YZNx6QoUhG2,ntvoXHLKhgOiViEf7YZNx6QoUhG2,,,,,,,,,,,,,,,,,,750.0,,,,5f3d455fc5a9c209cb8b94b4,16:26:12,27/03/2024
html-keyboard-response,197,374426,0.0-81.0-3.0,,<div style='margin:auto;width: auto; font-size: 150%'><span style='font-weight: bold; font-size: 100px; color: red;'>0 points!</span><br><br></div>,,delaylearn,learning,feedback_image_window,ntvoXHLKhgOiViEf7YZNx6QoUhG2,ntvoXHLKhgOiViEf7YZNx6QoUhG2,,,,,,,,,,,,,,,,,,,,,,5f3d455fc5a9c209cb8b94b4,16:26:12,27/03/2024
html-keyboard-response,198,376783,0.0-82.0,,"<div style=""font-size:100px;"">+</div>",,delaylearn,learning,ITI,ntvoXHLKhgOiViEf7YZNx6QoUhG2,ntvoXHLKhgOiViEf7YZNx6QoUhG2,,,,,,,,,,,,,,,,,,,2352.0,,,5f3d455fc5a9c209cb8b94b4,16:26:12,27/03/2024
html-keyboard-response,199,377645,0.0-83.0-0.0,859.3000000119209,"<div style=""display: flex; flex-direction: column; align-items: center; margin-top: -40px;""><img src=""images/pattern_3.png"" style=""width: 234px; height: 230px; margin-top: -50px;""><div style=""display: flex; justify-content: space-between; margin-top: 33px;""><img src=""images/choice_trial_10.png"" style=""width: 408px; height: 417px; margin-right: 200px;""><img src=""images/choice_trial_13.png"" style=""width: 408px; height: 417px;""></div></div>",j,delaylearn,learning,trial,ntvoXHLKhgOiViEf7YZNx6QoUhG2,ntvoXHLKhgOiViEf7YZNx6QoUhG2,3.0,images/choice_trial_10.png,images/choice_trial_13.png,images/pattern_3.png,j,j,7000.0,10.0,13.0,2.0,1.0,36.0,1.0,1.0,13.0,200.0,,,,,,5f3d455fc5a9c209cb8b94b4,16:26:12,27/03/2024
html-keyboard-response,200,378661,0.0-83.0-1.0,,"<div style=""display: flex; flex-direction: column; align-items: center; margin-top: -40px;""><img src=""images/pattern_3.png"" style=""width: 234px; height: 230px; margin-top: -50px;""><div style=""display: flex; justify-content: space-between; margin-top: 33px;""><img src=""images/choice_trial_13.png"" style=""width: 408px; height: 417px; margin-left:608px;""></div></div>",,delaylearn,learning,display_response,ntvoXHLKhgOiViEf7YZNx6QoUhG2,ntvoXHLKhgOiViEf7YZNx6QoUhG2,,,,,,,,,,,,,,,,,chosen stimuli: images/choice_trial_13.png,,,,,5f3d455fc5a9c209cb8b94b4,16:26:12,27/03/2024
html-keyboard-response,201,385666,0.0-83.0-2.0,,,,delaylearn,learning,feedback_duration_window,ntvoXHLKhgOiViEf7YZNx6QoUhG2,ntvoXHLKhgOiViEf7YZNx6QoUhG2,,,,,,,,,,,,,,,,,,7000.0,,,,5f3d455fc5a9c209cb8b94b4,16:26:12,27/03/2024
html-keyboard-response,202,387168,0.0-83.0-3.0,,<div style='margin:auto;width: auto; font-size: 150%'><span style='font-weight: bold; font-size: 100px; color: green;'>+10 points!</span><br><br></div>,,delaylearn,learning,feedback_image_window,ntvoXHLKhgOiViEf7YZNx6QoUhG2,ntvoXHLKhgOiViEf7YZNx6QoUhG2,,,,,,,,,,,,,,,,,,,,,,5f3d455fc5a9c209cb8b94b4,16:26:12,27/03/2024
html-keyboard-response,203,389032,0.0-84.0,,"<div style=""font-size:100px;"">+</div>",,delaylearn,learning,ITI,ntvoXHLKhgOiViEf7YZNx6QoUhG2,ntvoXHLKhgOiViEf7YZNx6QoUhG2,,,,,,,,,,,,,,,,,,,1852.0,,,5f3d455fc5a9c209cb8b94b4,16:26:12,27/03/2024
html-keyboard-response,204,390062,0.0-85.0-0.0,1027.1000000238419,"<div style=""display: flex; flex-direction: column; align-items: center; margin-top: -40px;""><img src=""images/pattern_4.png"" style=""width: 234px; height: 230px; margin-top: -50px;""><div style=""display: flex; justify-content: space-between; margin-top: 33px;""><img src=""images/choice_trial_9.png"" style=""width: 408px; height: 417px; margin-right: 200px;""><img src=""images/choice_trial_15.png"" style=""width: 408px; height: 417px;""></div></div>",f,delaylearn,learning,trial,ntvoXHLKhgOiViEf7YZNx6QoUhG2,ntvoXHLKhgOiViEf7YZNx6QoUhG2,3.0,images/choice_trial_9.png,images/choice_trial_15.png,images/pattern_4.png,f,j,7000.0,9.0,15.0,3.0,1.0,37.0,0.0,1.0,9.0,210.0,,,,,,5f3d455fc5a9c209cb8b94b4,16:26:12,27/03/2024
html-keyboard-response,205,391064,0.0-85.0-1.0,,"<div style=""display: flex; flex-direction: column; align-items: center; margin-top: -40px;""><img src=""images/pattern_4.png"" style=""width: 234px; height: 230px; margin-top: -50px;""><div style=""display: flex; justify-content: space-between; margin-top: 33px;""><img src=""images/choice_trial_9.png"" style=""width: 408px; height: 417px; margin-right: 608px;""></div></div>",,delaylearn,learning,display_response,ntvoXHLKhgOiViEf7YZNx6QoUhG2,ntvoXHLKhgOiViEf7YZNx6QoUhG2,,,,,,,,,,,,,,,,,chosen stimuli: images/choice_trial_9.png,,,,,5f3d455fc5a9c209cb8b94b4,16:26:12,27/03/2024
html-keyboard-response,206,398069,0.0-85.0-2.0,,,,delaylearn,learning,feedback_duration_window,ntvoXHLKhgOiViEf7YZNx6QoUhG2,ntvoXHLKhgOiViEf7YZNx6QoUhG2,,,,,,,,,,,,,,,,,,7000.0,,,,5f3d455fc5a9c209cb8b94b4,16:26:12,27/03/2024
html-keyboard-response,207,399575,0.0-85.0-3.0,,<div style='margin:auto;width: auto; font-size: 150%'><span style='font-weight: bold; font-size: 100px; color: green;'>+10 points!</span><br><br></div>,,delaylearn,learning,feedback_image_window,ntvoXHLKhgOiViEf7YZNx6QoUhG2,ntvoXHLKhgOiViEf7YZNx6QoUhG2,,,,,,,,,,,,,,,,,,,,,,5f3d455fc5a9c209cb8b94b4,16:26:12,27/03/2024
html-keyboard-response,208,401906,0.0-86.0,,"<div style=""font-size:100px;"">+</div>",,delaylearn,learning,ITI,ntvoXHLKhgOiViEf7YZNx6QoUhG2,ntvoXHLKhgOiViEf7YZNx6QoUhG2,,,,,,,,,,,,,,,,,,,2316.0,,,5f3d455fc5a9c209cb8b94b4,16:26:12,27/03/2024
html-keyboard-response,209,403199,0.0-87.0-0.0,1291.199999988079,"<div style=""display: flex; flex-direction: column; align-items: center; margin-top: -40px;""><img src=""images/pattern_7.png"" style=""width: 234px; height: 230px; margin-top: -50px;""><div style=""display: flex; justify-content: space-between; margin-top: 33px;""><img src=""images/choice_trial_6.png"" style=""width: 408px; height: 417px; margin-right: 200px;""><img src=""images/choice_trial_12.png"" style=""width: 408px; height: 417px;""></div></div>",f,delaylearn,learning,trial,ntvoXHLKhgOiViEf7YZNx6QoUhG2,ntvoXHLKhgOiViEf7YZNx6QoUhG2,3.0,images/choice_trial_6.png,images/choice_trial_12.png,images/pattern_7.png,f,f,750.0,6.0,12.0,6.0,0.0,38.0,1.0,1.0,6.0,220.0,,,,,,5f3d455fc5a9c209cb8b94b4,16:26:12,27/03/2024
html-keyboard-response,210,404215,0.0-87.0-1.0,,"<div style=""display: flex; flex-direction: column; align-items: center; margin-top: -40px;""><img src=""images/pattern_7.png"" style=""width: 234px; height: 230px; margin-top: -50px;""><div style=""display: flex; justify-content: space-between; margin-top: 33px;""><img src=""images/choice_trial_6.png"" style=""width: 408px; height: 417px; margin-right: 608px;""></div></div>",,delaylearn,learning,display_response,ntvoXHLKhgOiViEf7YZNx6QoUhG2,ntvoXHLKhgOiViEf7YZNx6QoUhG2,,,,,,,,,,,,,,,,,chosen stimuli: images/choice_trial_6.png,,,,,5f3d455fc5a9c209cb8b94b4,16:26:12,27/03/2024
html-keyboard-response,211,404976,0.0-87.0-2.0,,,,delaylearn,learning,feedback_duration_window,ntvoXHLKhgOiViEf7YZNx6QoUhG2,ntvoXHLKhgOiViEf7YZNx6QoUhG2,,,,,,,,,,,,,,,,,,750.0,,,,5f3d455fc5a9c209cb8b94b4,16:26:12,27/03/2024
html-keyboard-response,212,406482,0.0-87.0-3.0,,<div style='margin:auto;width: auto; font-size: 150%'><span style='font-weight: bold; font-size: 100px; color: green;'>+10 points!</span><br><br></div>,,delaylearn,learning,feedback_image_window,ntvoXHLKhgOiViEf7YZNx6QoUhG2,ntvoXHLKhgOiViEf7YZNx6QoUhG2,,,,,,,,,,,,,,,,,,,,,,5f3d455fc5a9c209cb8b94b4,16:26:12,27/03/2024
html-keyboard-response,213,408286,0.0-88.0,,"<div style=""font-size:100px;"">+</div>",,delaylearn,learning,ITI,ntvoXHLKhgOiViEf7YZNx6QoUhG2,ntvoXHLKhgOiViEf7YZNx6QoUhG2,,,,,,,,,,,,,,,,,,,1799.0,,,5f3d455fc5a9c209cb8b94b4,16:26:12,27/03/2024
html-keyboard-response,214,409357,0.0-89.0-0.0,1068.0999999642372,"<div style=""display: flex; flex-direction: column; align-items: center; margin-top: -40px;""><img src=""images/pattern_1.png"" style=""width: 234px; height: 230px; margin-top: -50px;""><div style=""display: flex; justify-content: space-between; margin-top: 33px;""><img src=""images/choice_trial_14.png"" style=""width: 408px; height: 417px; margin-right: 200px;""><img src=""images/choice_trial_8.png"" style=""width: 408px; height: 417px;""></div></div>",f,delaylearn,learning,trial,ntvoXHLKhgOiViEf7YZNx6QoUhG2,ntvoXHLKhgOiViEf7YZNx6QoUhG2,3.0,images/choice_trial_14.png,images/choice_trial_8.png,images/pattern_1.png,f,f,7000.0,14.0,8.0,1.0,0.0,39.0,1.0,1.0,14.0,230.0,,,,,,5f3d455fc5a9c209cb8b94b4,16:26:12,27/03/2024
html-keyboard-response,215,410363,0.0-89.0-1.0,,"<div style=""display: flex; flex-direction: column; align-items: center; margin-top: -40px;""><img src=""images/pattern_1.png"" style=""width: 234px; height: 230px; margin-top: -50px;""><div style=""display: flex; justify-content: space-between; margin-top: 33px;""><img src=""images/choice_trial_14.png"" style=""width: 408px; height: 417px; margin-right: 608px;""></div></div>",,delaylearn,learning,display_response,ntvoXHLKhgOiViEf7YZNx6QoUhG2,ntvoXHLKhgOiViEf7YZNx6QoUhG2,,,,,,,,,,,,,,,,,chosen stimuli: images/choice_trial_14.png,,,,,5f3d455fc5a9c209cb8b94b4,16:26:12,27/03/2024
html-keyboard-response,216,417380,0.0-89.0-2.0,,,,delaylearn,learning,feedback_duration_window,ntvoXHLKhgOiViEf7YZNx6QoUhG2,ntvoXHLKhgOiViEf7YZNx6QoUhG2,,,,,,,,,,,,,,,,,,7000.0,,,,5f3d455fc5a9c209cb8b94b4,16:26:12,27/03/2024
html-keyboard-response,217,418883,0.0-89.0-3.0,,<div style='margin:auto;width: auto; font-size: 150%'><span style='font-weight: bold; font-size: 100px; color: green;'>+10 points!</span><br><br></div>,,delaylearn,learning,feedback_image_window,ntvoXHLKhgOiViEf7YZNx6QoUhG2,ntvoXHLKhgOiViEf7YZNx6QoUhG2,,,,,,,,,,,,,,,,,,,,,,5f3d455fc5a9c209cb8b94b4,16:26:12,27/03/2024
html-keyboard-response,218,419393,0.0-90.0-0.0,,,,,,mood_trial_fixation,ntvoXHLKhgOiViEf7YZNx6QoUhG2,,,,,,,,,,,,,,,,,,,,,,,5f3d455fc5a9c209cb8b94b4,16:26:12,27/03/2024
lmdlab-html-vas-response,219,423219,0.0-90.0-1.0,2809.0,How happy are you right now?,0.5972222222222222,delaylearn,learning,mood_trial,ntvoXHLKhgOiViEf7YZNx6QoUhG2,ntvoXHLKhgOiViEf7YZNx6QoUhG2,,,,,,,,,,,,,,,,,,,,"['Very unhappy', 'Very happy']",,5f3d455fc5a9c209cb8b94b4,16:26:12,27/03/2024
html-keyboard-response,220,425694,0.0-91.0,,"<div style=""font-size:100px;"">+</div>",,delaylearn,learning,ITI,ntvoXHLKhgOiViEf7YZNx6QoUhG2,ntvoXHLKhgOiViEf7YZNx6QoUhG2,,,,,,,,,,,,,,,,,,,2472.0,,,5f3d455fc5a9c209cb8b94b4,16:26:12,27/03/2024
html-keyboard-response,221,426529,0.0-92.0-0.0,831.2000000476837,"<div style=""display: flex; flex-direction: column; align-items: center; margin-top: -40px;""><img src=""images/pattern_3.png"" style=""width: 234px; height: 230px; margin-top: -50px;""><div style=""display: flex; justify-content: space-between; margin-top: 33px;""><img src=""images/choice_trial_13.png"" style=""width: 408px; height: 417px; margin-right: 200px;""><img src=""images/choice_trial_10.png"" style=""width: 408px; height: 417px;""></div></div>",f,delaylearn,learning,trial,ntvoXHLKhgOiViEf7YZNx6QoUhG2,ntvoXHLKhgOiViEf7YZNx6QoUhG2,3.0,images/choice_trial_13.png,images/choice_trial_10.png,images/pattern_3.png,j,f,7000.0,13.0,10.0,2.0,0.0,40.0,1.0,0.0,13.0,230.0,,,,,,5f3d455fc5a9c209cb8b94b4,16:26:12,27/03/2024
html-keyboard-response,222,427531,0.0-92.0-1.0,,"<div style=""display: flex; flex-direction: column; align-items: center; margin-top: -40px;""><img src=""images/pattern_3.png"" style=""width: 234px; height: 230px; margin-top: -50px;""><div style=""display: flex; justify-content: space-between; margin-top: 33px;""><img src=""images/choice_trial_13.png"" style=""width: 408px; height: 417px; margin-right: 608px;""></div></div>",,delaylearn,learning,display_response,ntvoXHLKhgOiViEf7YZNx6QoUhG2,ntvoXHLKhgOiViEf7YZNx6QoUhG2,,,,,,,,,,,,,,,,,chosen stimuli: images/choice_trial_13.png,,,,,5f3d455fc5a9c209cb8b94b4,16:26:12,27/03/2024
html-keyboard-response,223,434542,0.0-92.0-2.0,,,,delaylearn,learning,feedback_duration_window,ntvoXHLKhgOiViEf7YZNx6QoUhG2,ntvoXHLKhgOiViEf7YZNx6QoUhG2,,,,,,,,,,,,,,,,,,7000.0,,,,5f3d455fc5a9c209cb8b94b4,16:26:12,27/03/2024
html-keyboard-response,224,436046,0.0-92.0-3.0,,<div style='margin:auto;width: auto; font-size: 150%'><span style='font-weight: bold; font-size: 100px; color: red;'>0 points!</span><br><br></div>,,delaylearn,learning,feedback_image_window,ntvoXHLKhgOiViEf7YZNx6QoUhG2,ntvoXHLKhgOiViEf7YZNx6QoUhG2,,,,,,,,,,,,,,,,,,,,,,5f3d455fc5a9c209cb8b94b4,16:26:12,27/03/2024
html-keyboard-response,225,437595,0.0-93.0,,"<div style=""font-size:100px;"">+</div>",,delaylearn,learning,ITI,ntvoXHLKhgOiViEf7YZNx6QoUhG2,ntvoXHLKhgOiViEf7YZNx6QoUhG2,,,,,,,,,,,,,,,,,,,1547.0,,,5f3d455fc5a9c209cb8b94b4,16:26:12,27/03/2024
html-keyboard-response,226,438773,0.0-94.0-0.0,1176.8999999761581,"<div style=""display: flex; flex-direction: column; align-items: center; margin-top: -40px;""><img src=""images/pattern_7.png"" style=""width: 234px; height: 230px; margin-top: -50px;""><div style=""display: flex; justify-content: space-between; margin-top: 33px;""><img src=""images/choice_trial_12.png"" style=""width: 408px; height: 417px; margin-right: 200px;""><img src=""images/choice_trial_6.png"" style=""width: 408px; height: 417px;""></div></div>",j,delaylearn,learning,trial,ntvoXHLKhgOiViEf7YZNx6QoUhG2,ntvoXHLKhgOiViEf7YZNx6QoUhG2,3.0,images/choice_trial_12.png,images/choice_trial_6.png,images/pattern_7.png,j,j,750.0,12.0,6.0,6.0,1.0,41.0,1.0,1.0,6.0,240.0,,,,,,5f3d455fc5a9c209cb8b94b4,16:26:12,27/03/2024
html-keyboard-response,227,439787,0.0-94.0-1.0,,"<div style=""display: flex; flex-direction: column; align-items: center; margin-top: -40px;""><img src=""images/pattern_7.png"" style=""width: 234px; height: 230px; margin-top: -50px;""><div style=""display: flex; justify-content: space-between; margin-top: 33px;""><img src=""images/choice_trial_6.png"" style=""width: 408px; height: 417px; margin-left:608px;""></div></div>",,delaylearn,learning,display_response,ntvoXHLKhgOiViEf7YZNx6QoUhG2,ntvoXHLKhgOiViEf7YZNx6QoUhG2,,,,,,,,,,,,,,,,,chosen stimuli: images/choice_trial_6.png,,,,,5f3d455fc5a9c209cb8b94b4,16:26:12,27/03/2024
html-keyboard-response,228,440542,0.0-94.0-2.0,,,,delaylearn,learning,feedback_duration_window,ntvoXHLKhgOiViEf7YZNx6QoUhG2,ntvoXHLKhgOiViEf7YZNx6QoUhG2,,,,,,,,,,,,,,,,,,750.0,,,,5f3d455fc5a9c209cb8b94b4,16:26:12,27/03/2024
html-keyboard-response,229,442059,0.0-94.0-3.0,,<div style='margin:auto;width: auto; font-size: 150%'><span style='font-weight: bold; font-size: 100px; color: green;'>+10 points!</span><br><br></div>,,delaylearn,learning,feedback_image_window,ntvoXHLKhgOiViEf7YZNx6QoUhG2,ntvoXHLKhgOiViEf7YZNx6QoUhG2,,,,,,,,,,,,,,,,,,,,,,5f3d455fc5a9c209cb8b94b4,16:26:12,27/03/2024
html-keyboard-response,230,443820,0.0-95.0,,"<div style=""font-size:100px;"">+</div>",,delaylearn,learning,ITI,ntvoXHLKhgOiViEf7YZNx6QoUhG2,ntvoXHLKhgOiViEf7YZNx6QoUhG2,,,,,,,,,,,,,,,,,,,1760.0,,,5f3d455fc5a9c209cb8b94b4,16:26:12,27/03/2024
