trial_type,trial_index,time_elapsed,internal_node_id,rt,stimulus,response,exp_name,exp_stage,test_part,subjectID,databaseID,counterbal,choice_stimuli_1,choice_stimuli_2,pattern_stimuli,rewarded_answer,correct_answer,feedback_duration_times,stim_left,stim_right,pair,leftright_counter,trial,response_correct,response_rewarded,chosen_stim,counter,displayed_choice,feedback_durations,ITI_duration,labels,rest_warning,prolificID,start_time,date
pavlovia,0,569,0.0-0.0,,,,,,,ZpYMmcQG7baF9p2JC6P048EAquu2,,,,,,,,,,,,,,,,,,,,,,,6012d4f3e68e2209e7e53679,17:06:40,27/03/2024
html-keyboard-response,1,3570,0.0-1.0,,"<div style=""font-size:100px;"">+</div>",,delaylearn,learning,pre_fixation,ZpYMmcQG7baF9p2JC6P048EAquu2,,,,,,,,,,,,,,,,,,,,,,,6012d4f3e68e2209e7e53679,17:06:40,27/03/2024
html-keyboard-response,2,6581,0.0-2.0-0.0,,"<div style=""display: flex; flex-direction: column; align-items: center; margin-top: -40px;""><img src=""images/demo_images/pattern_1.png"" style=""width: 234px; height: 230px; margin-top: -50px;""><div style=""display: flex; justify-content: space-between; margin-top: 33px;""><img src=""images/demo_images/choice_trial_2.png"" style=""width: 408px; height: 417px; margin-right: 200px;""><img src=""images/demo_images/choice_trial_1.png"" style=""width: 408px; height: 417px;""></div></div>",,delaylearn,learning,trial,ZpYMmcQG7baF9p2JC6P048EAquu2,ZpYMmcQG7baF9p2JC6P048EAquu2,3.0,images/demo_images/choice_trial_2.png,images/demo_images/choice_trial_1.png,images/demo_images/pattern_1.png,j,j,3000.0,2.0,1.0,20.0,1.0,1.0,0.0,0.0,0.0,0.0,,,,,,6012d4f3e68e2209e7e53679,17:06:40,27/03/2024
html-keyboard-response,3,7594,0.0-2.0-1.0,,<div style='font-weight: bold; font-size: 75px; color: red;'>Missed Trial <br><br><br><br> Please respond faster</div>,,delaylearn,learning,display_response,ZpYMmcQG7baF9p2JC6P048EAquu2,ZpYMmcQG7baF9p2JC6P048EAquu2,,,,,,,,,,,,,,,,,Missed trial,,,,,6012d4f3e68e2209e7e53679,17:06:40,27/03/2024
html-keyboard-response,4,7597,0.0-2.0-2.0,,,,delaylearn,learning,feedback_duration_window,ZpYMmcQG7baF9p2JC6P048EAquu2,ZpYMmcQG7baF9p2JC6P048EAquu2,,,,,,,,,,,,,,,,,,0.0,,,,6012d4f3e68e2209e7e53679,17:06:40,27/03/2024
html-keyboard-response,5,7603,0.0-2.0-3.0,,,,delaylearn,learning,feedback_image_window,ZpYMmcQG7baF9p2JC6P048EAquu2,ZpYMmcQG7baF9p2JC6P048EAquu2,,,,,,,,,,,,,,,,,,,,,,6012d4f3e68e2209e7e53679,17:06:40,27/03/2024
html-keyboard-response,6,9386,0.0-3.0,,"<div style=""font-size:100px;"">+</div>",,delaylearn,learning,ITI,ZpYMmcQG7baF9p2JC6P048EAquu2,ZpYMmcQG7baF9p2JC6P048EAquu2,,,,,,,,,,,,,,,,,,,1769.0,,,6012d4f3e68e2209e7e53679,17:06:40,27/03/2024
html-keyboard-response,7,9792,0.0-4.0-0.0,402.5999999642372,"<div style=""display: flex; flex-direction: column; align-items: center; margin-top: -40px;""><img src=""images/demo_images/pattern_1.png"" style=""width: 234px; height: 230px; margin-top: -50px;""><div style=""display: flex; justify-content: space-between; margin-top: 33px;""><img src=""images/demo_images/choice_trial_2.png"" style=""width: 408px; height: 417px; margin-right: 200px;""><img src=""images/demo_images/choice_trial_1.png"" style=""width: 408px; height: 417px;""></div></div>",f,delaylearn,learning,trial,ZpYMmcQG7baF9p2JC6P048EAquu2,ZpYMmcQG7baF9p2JC6P048EAquu2,3.0,images/demo_images/choice_trial_2.png,images/demo_images/choice_trial_1.png,images/demo_images/pattern_1.png,j,j,3000.0,2.0,1.0,20.0,1.0,2.0,0.0,0.0,2.0,0.0,,,,,,6012d4f3e68e2209e7e53679,17:06:40,27/03/2024
html-keyboard-response,8,10802,0.0-4.0-1.0,,"<div style=""display: flex; flex-direction: column; align-items: center; margin-top: -40px;""><img src=""images/demo_images/pattern_1.png"" style=""width: 234px; height: 230px; margin-top: -50px;""><div style=""display: flex; justify-content: space-between; margin-top: 33px;""><img src=""images/demo_images/choice_trial_2.png"" style=""width: 408px; height: 417px; margin-right: 608px;""></div></div>",,delaylearn,learning,display_response,ZpYMmcQG7baF9p2JC6P048EAquu2,ZpYMmcQG7baF9p2JC6P048EAquu2,,,,,,,,,,,,,,,,,chosen stimuli: images/demo_images/choice_trial_2.png,,,,,6012d4f3e68e2209e7e53679,17:06:40,27/03/2024
html-keyboard-response,9,13818,0.0-4.0-2.0,,,,delaylearn,learning,feedback_duration_window,ZpYMmcQG7baF9p2JC6P048EAquu2,ZpYMmcQG7baF9p2JC6P048EAquu2,,,,,,,,,,,,,,,,,,3000.0,,,,6012d4f3e68e2209e7e53679,17:06:40,27/03/2024
html-keyboard-response,10,15329,0.0-4.0-3.0,,<div style='margin:auto;width: auto; font-size: 150%'><span style='font-weight: bold; font-size: 100px; color: red;'>0 points!</span><br><br></div>,,delaylearn,learning,feedback_image_window,ZpYMmcQG7baF9p2JC6P048EAquu2,ZpYMmcQG7baF9p2JC6P048EAquu2,,,,,,,,,,,,,,,,,,,,,,6012d4f3e68e2209e7e53679,17:06:40,27/03/2024
html-keyboard-response,11,17828,0.0-5.0,,"<div style=""font-size:100px;"">+</div>",,delaylearn,learning,ITI,ZpYMmcQG7baF9p2JC6P048EAquu2,ZpYMmcQG7baF9p2JC6P048EAquu2,,,,,,,,,,,,,,,,,,,2488.0,,,6012d4f3e68e2209e7e53679,17:06:40,27/03/2024
html-keyboard-response,12,19022,0.0-6.0-0.0,1191.9000000357628,"<div style=""display: flex; flex-direction: column; align-items: center; margin-top: -40px;""><img src=""images/demo_images/pattern_1.png"" style=""width: 234px; height: 230px; margin-top: -50px;""><div style=""display: flex; justify-content: space-between; margin-top: 33px;""><img src=""images/demo_images/choice_trial_1.png"" style=""width: 408px; height: 417px; margin-right: 200px;""><img src=""images/demo_images/choice_trial_2.png"" style=""width: 408px; height: 417px;""></div></div>",f,delaylearn,learning,trial,ZpYMmcQG7baF9p2JC6P048EAquu2,ZpYMmcQG7baF9p2JC6P048EAquu2,3.0,images/demo_images/choice_trial_1.png,images/demo_images/choice_trial_2.png,images/demo_images/pattern_1.png,j,f,3000.0,1.0,2.0,20.0,0.0,3.0,1.0,0.0,1.0,0.0,,,,,,6012d4f3e68e2209e7e53679,17:06:40,27/03/2024
html-keyboard-response,13,20032,0.0-6.0-1.0,,"<div style=""display: flex; flex-direction: column; align-items: center; margin-top: -40px;""><img src=""images/demo_images/pattern_1.png"" style=""width: 234px; height: 230px; margin-top: -50px;""><div style=""display: flex; justify-content: space-between; margin-top: 33px;""><img src=""images/demo_images/choice_trial_1.png"" style=""width: 408px; height: 417px; margin-right: 608px;""></div></div>",,delaylearn,learning,display_response,ZpYMmcQG7baF9p2JC6P048EAquu2,ZpYMmcQG7baF9p2JC6P048EAquu2,,,,,,,,,,,,,,,,,chosen stimuli: images/demo_images/choice_trial_1.png,,,,,6012d4f3e68e2209e7e53679,17:06:40,27/03/2024
html-keyboard-response,14,23044,0.0-6.0-2.0,,,,delaylearn,learning,feedback_duration_window,ZpYMmcQG7baF9p2JC6P048EAquu2,ZpYMmcQG7baF9p2JC6P048EAquu2,,,,,,,,,,,,,,,,,,3000.0,,,,6012d4f3e68e2209e7e53679,17:06:40,27/03/2024
html-keyboard-response,15,24556,0.0-6.0-3.0,,<div style='margin:auto;width: auto; font-size: 150%'><span style='font-weight: bold; font-size: 100px; color: red;'>0 points!</span><br><br></div>,,delaylearn,learning,feedback_image_window,ZpYMmcQG7baF9p2JC6P048EAquu2,ZpYMmcQG7baF9p2JC6P048EAquu2,,,,,,,,,,,,,,,,,,,,,,6012d4f3e68e2209e7e53679,17:06:40,27/03/2024
html-keyboard-response,16,26295,0.0-7.0,,"<div style=""font-size:100px;"">+</div>",,delaylearn,learning,ITI,ZpYMmcQG7baF9p2JC6P048EAquu2,ZpYMmcQG7baF9p2JC6P048EAquu2,,,,,,,,,,,,,,,,,,,1736.0,,,6012d4f3e68e2209e7e53679,17:06:40,27/03/2024
html-keyboard-response,17,27245,0.0-8.0-0.0,946.0,"<div style=""display: flex; flex-direction: column; align-items: center; margin-top: -40px;""><img src=""images/demo_images/pattern_1.png"" style=""width: 234px; height: 230px; margin-top: -50px;""><div style=""display: flex; justify-content: space-between; margin-top: 33px;""><img src=""images/demo_images/choice_trial_1.png"" style=""width: 408px; height: 417px; margin-right: 200px;""><img src=""images/demo_images/choice_trial_2.png"" style=""width: 408px; height: 417px;""></div></div>",j,delaylearn,learning,trial,ZpYMmcQG7baF9p2JC6P048EAquu2,ZpYMmcQG7baF9p2JC6P048EAquu2,3.0,images/demo_images/choice_trial_1.png,images/demo_images/choice_trial_2.png,images/demo_images/pattern_1.png,f,f,3000.0,1.0,2.0,20.0,0.0,4.0,0.0,0.0,2.0,0.0,,,,,,6012d4f3e68e2209e7e53679,17:06:40,27/03/2024
html-keyboard-response,18,28260,0.0-8.0-1.0,,"<div style=""display: flex; flex-direction: column; align-items: center; margin-top: -40px;""><img src=""images/demo_images/pattern_1.png"" style=""width: 234px; height: 230px; margin-top: -50px;""><div style=""display: flex; justify-content: space-between; margin-top: 33px;""><img src=""images/demo_images/choice_trial_2.png"" style=""width: 408px; height: 417px; margin-left:608px;""></div></div>",,delaylearn,learning,display_response,ZpYMmcQG7baF9p2JC6P048EAquu2,ZpYMmcQG7baF9p2JC6P048EAquu2,,,,,,,,,,,,,,,,,chosen stimuli: images/demo_images/choice_trial_2.png,,,,,6012d4f3e68e2209e7e53679,17:06:40,27/03/2024
html-keyboard-response,19,31277,0.0-8.0-2.0,,,,delaylearn,learning,feedback_duration_window,ZpYMmcQG7baF9p2JC6P048EAquu2,ZpYMmcQG7baF9p2JC6P048EAquu2,,,,,,,,,,,,,,,,,,3000.0,,,,6012d4f3e68e2209e7e53679,17:06:40,27/03/2024
html-keyboard-response,20,32792,0.0-8.0-3.0,,<div style='margin:auto;width: auto; font-size: 150%'><span style='font-weight: bold; font-size: 100px; color: red;'>0 points!</span><br><br></div>,,delaylearn,learning,feedback_image_window,ZpYMmcQG7baF9p2JC6P048EAquu2,ZpYMmcQG7baF9p2JC6P048EAquu2,,,,,,,,,,,,,,,,,,,,,,6012d4f3e68e2209e7e53679,17:06:40,27/03/2024
html-keyboard-response,21,33307,0.0-9.0-0.0,,,,,,mood_trial_fixation,ZpYMmcQG7baF9p2JC6P048EAquu2,,,,,,,,,,,,,,,,,,,,,,,6012d4f3e68e2209e7e53679,17:06:40,27/03/2024
lmdlab-html-vas-response,22,37779,0.0-9.0-1.0,3441.0,How happy are you right now?,0.2724006312617252,delaylearn,learning,mood_trial,ZpYMmcQG7baF9p2JC6P048EAquu2,ZpYMmcQG7baF9p2JC6P048EAquu2,,,,,,,,,,,,,,,,,,,,"['Very unhappy', 'Very happy']",,6012d4f3e68e2209e7e53679,17:06:40,27/03/2024
html-keyboard-response,23,39887,0.0-10.0,,"<div style=""font-size:100px;"">+</div>",,delaylearn,learning,ITI,ZpYMmcQG7baF9p2JC6P048EAquu2,ZpYMmcQG7baF9p2JC6P048EAquu2,,,,,,,,,,,,,,,,,,,2094.0,,,6012d4f3e68e2209e7e53679,17:06:40,27/03/2024
html-keyboard-response,24,41764,0.0-11.0-0.0,1874.300000011921,"<div style=""display: flex; flex-direction: column; align-items: center; margin-top: -40px;""><img src=""images/demo_images/pattern_1.png"" style=""width: 234px; height: 230px; margin-top: -50px;""><div style=""display: flex; justify-content: space-between; margin-top: 33px;""><img src=""images/demo_images/choice_trial_2.png"" style=""width: 408px; height: 417px; margin-right: 200px;""><img src=""images/demo_images/choice_trial_1.png"" style=""width: 408px; height: 417px;""></div></div>",f,delaylearn,learning,trial,ZpYMmcQG7baF9p2JC6P048EAquu2,ZpYMmcQG7baF9p2JC6P048EAquu2,3.0,images/demo_images/choice_trial_2.png,images/demo_images/choice_trial_1.png,images/demo_images/pattern_1.png,j,j,3000.0,2.0,1.0,20.0,1.0,5.0,0.0,0.0,2.0,0.0,,,,,,6012d4f3e68e2209e7e53679,17:06:40,27/03/2024
html-keyboard-response,25,42781,0.0-11.0-1.0,,"<div style=""display: flex; flex-direction: column; align-items: center; margin-top: -40px;""><img src=""images/demo_images/pattern_1.png"" style=""width: 234px; height: 230px; margin-top: -50px;""><div style=""display: flex; justify-content: space-between; margin-top: 33px;""><img src=""images/demo_images/choice_trial_2.png"" style=""width: 408px; height: 417px; margin-right: 608px;""></div></div>",,delaylearn,learning,display_response,ZpYMmcQG7baF9p2JC6P048EAquu2,ZpYMmcQG7baF9p2JC6P048EAquu2,,,,,,,,,,,,,,,,,chosen stimuli: images/demo_images/choice_trial_2.png,,,,,6012d4f3e68e2209e7e53679,17:06:40,27/03/2024
html-keyboard-response,26,45785,0.0-11.0-2.0,,,,delaylearn,learning,feedback_duration_window,ZpYMmcQG7baF9p2JC6P048EAquu2,ZpYMmcQG7baF9p2JC6P048EAquu2,,,,,,,,,,,,,,,,,,3000.0,,,,6012d4f3e68e2209e7e53679,17:06:40,27/03/2024
html-keyboard-response,27,47288,0.0-11.0-3.0,,<div style='margin:auto;width: auto; font-size: 150%'><span style='font-weight: bold; font-size: 100px; color: red;'>0 points!</span><br><br></div>,,delaylearn,learning,feedback_image_window,ZpYMmcQG7baF9p2JC6P048EAquu2,ZpYMmcQG7baF9p2JC6P048EAquu2,,,,,,,,,,,,,,,,,,,,,,6012d4f3e68e2209e7e53679,17:06:40,27/03/2024
html-keyboard-response,28,49435,0.0-12.0,,"<div style=""font-size:100px;"">+</div>",,delaylearn,learning,ITI,ZpYMmcQG7baF9p2JC6P048EAquu2,ZpYMmcQG7baF9p2JC6P048EAquu2,,,,,,,,,,,,,,,,,,,2141.0,,,6012d4f3e68e2209e7e53679,17:06:40,27/03/2024
html-keyboard-response,29,50937,0.0-13.0-0.0,1500.0,"<div style=""display: flex; flex-direction: column; align-items: center; margin-top: -40px;""><img src=""images/demo_images/pattern_1.png"" style=""width: 234px; height: 230px; margin-top: -50px;""><div style=""display: flex; justify-content: space-between; margin-top: 33px;""><img src=""images/demo_images/choice_trial_1.png"" style=""width: 408px; height: 417px; margin-right: 200px;""><img src=""images/demo_images/choice_trial_2.png"" style=""width: 408px; height: 417px;""></div></div>",j,delaylearn,learning,trial,ZpYMmcQG7baF9p2JC6P048EAquu2,ZpYMmcQG7baF9p2JC6P048EAquu2,3.0,images/demo_images/choice_trial_1.png,images/demo_images/choice_trial_2.png,images/demo_images/pattern_1.png,f,f,3000.0,1.0,2.0,20.0,0.0,6.0,0.0,0.0,2.0,0.0,,,,,,6012d4f3e68e2209e7e53679,17:06:40,27/03/2024
html-keyboard-response,30,51946,0.0-13.0-1.0,,"<div style=""display: flex; flex-direction: column; align-items: center; margin-top: -40px;""><img src=""images/demo_images/pattern_1.png"" style=""width: 234px; height: 230px; margin-top: -50px;""><div style=""display: flex; justify-content: space-between; margin-top: 33px;""><img src=""images/demo_images/choice_trial_2.png"" style=""width: 408px; height: 417px; margin-left:608px;""></div></div>",,delaylearn,learning,display_response,ZpYMmcQG7baF9p2JC6P048EAquu2,ZpYMmcQG7baF9p2JC6P048EAquu2,,,,,,,,,,,,,,,,,chosen stimuli: images/demo_images/choice_trial_2.png,,,,,6012d4f3e68e2209e7e53679,17:06:40,27/03/2024
html-keyboard-response,31,54952,0.0-13.0-2.0,,,,delaylearn,learning,feedback_duration_window,ZpYMmcQG7baF9p2JC6P048EAquu2,ZpYMmcQG7baF9p2JC6P048EAquu2,,,,,,,,,,,,,,,,,,3000.0,,,,6012d4f3e68e2209e7e53679,17:06:40,27/03/2024
html-keyboard-response,32,56462,0.0-13.0-3.0,,<div style='margin:auto;width: auto; font-size: 150%'><span style='font-weight: bold; font-size: 100px; color: red;'>0 points!</span><br><br></div>,,delaylearn,learning,feedback_image_window,ZpYMmcQG7baF9p2JC6P048EAquu2,ZpYMmcQG7baF9p2JC6P048EAquu2,,,,,,,,,,,,,,,,,,,,,,6012d4f3e68e2209e7e53679,17:06:40,27/03/2024
html-keyboard-response,33,58578,0.0-14.0,,"<div style=""font-size:100px;"">+</div>",,delaylearn,learning,ITI,ZpYMmcQG7baF9p2JC6P048EAquu2,ZpYMmcQG7baF9p2JC6P048EAquu2,,,,,,,,,,,,,,,,,,,2103.0,,,6012d4f3e68e2209e7e53679,17:06:40,27/03/2024
html-keyboard-response,34,59494,0.0-15.0-0.0,913.4000000357628,"<div style=""display: flex; flex-direction: column; align-items: center; margin-top: -40px;""><img src=""images/demo_images/pattern_1.png"" style=""width: 234px; height: 230px; margin-top: -50px;""><div style=""display: flex; justify-content: space-between; margin-top: 33px;""><img src=""images/demo_images/choice_trial_2.png"" style=""width: 408px; height: 417px; margin-right: 200px;""><img src=""images/demo_images/choice_trial_1.png"" style=""width: 408px; height: 417px;""></div></div>",j,delaylearn,learning,trial,ZpYMmcQG7baF9p2JC6P048EAquu2,ZpYMmcQG7baF9p2JC6P048EAquu2,3.0,images/demo_images/choice_trial_2.png,images/demo_images/choice_trial_1.png,images/demo_images/pattern_1.png,j,j,3000.0,2.0,1.0,20.0,1.0,7.0,1.0,1.0,1.0,10.0,,,,,,6012d4f3e68e2209e7e53679,17:06:40,27/03/2024
html-keyboard-response,35,60509,0.0-15.0-1.0,,"<div style=""display: flex; flex-direction: column; align-items: center; margin-top: -40px;""><img src=""images/demo_images/pattern_1.png"" style=""width: 234px; height: 230px; margin-top: -50px;""><div style=""display: flex; justify-content: space-between; margin-top: 33px;""><img src=""images/demo_images/choice_trial_1.png"" style=""width: 408px; height: 417px; margin-left:608px;""></div></div>",,delaylearn,learning,display_response,ZpYMmcQG7baF9p2JC6P048EAquu2,ZpYMmcQG7baF9p2JC6P048EAquu2,,,,,,,,,,,,,,,,,chosen stimuli: images/demo_images/choice_trial_1.png,,,,,6012d4f3e68e2209e7e53679,17:06:40,27/03/2024
html-keyboard-response,36,63522,0.0-15.0-2.0,,,,delaylearn,learning,feedback_duration_window,ZpYMmcQG7baF9p2JC6P048EAquu2,ZpYMmcQG7baF9p2JC6P048EAquu2,,,,,,,,,,,,,,,,,,3000.0,,,,6012d4f3e68e2209e7e53679,17:06:40,27/03/2024
html-keyboard-response,37,65037,0.0-15.0-3.0,,<div style='margin:auto;width: auto; font-size: 150%'><span style='font-weight: bold; font-size: 100px; color: green;'>+10 points!</span><br><br></div>,,delaylearn,learning,feedback_image_window,ZpYMmcQG7baF9p2JC6P048EAquu2,ZpYMmcQG7baF9p2JC6P048EAquu2,,,,,,,,,,,,,,,,,,,,,,6012d4f3e68e2209e7e53679,17:06:40,27/03/2024
html-keyboard-response,38,67334,0.0-16.0,,"<div style=""font-size:100px;"">+</div>",,delaylearn,learning,ITI,ZpYMmcQG7baF9p2JC6P048EAquu2,ZpYMmcQG7baF9p2JC6P048EAquu2,,,,,,,,,,,,,,,,,,,2290.0,,,6012d4f3e68e2209e7e53679,17:06:40,27/03/2024
html-keyboard-response,39,68854,0.0-17.0-0.0,1518.199999988079,"<div style=""display: flex; flex-direction: column; align-items: center; margin-top: -40px;""><img src=""images/demo_images/pattern_1.png"" style=""width: 234px; height: 230px; margin-top: -50px;""><div style=""display: flex; justify-content: space-between; margin-top: 33px;""><img src=""images/demo_images/choice_trial_1.png"" style=""width: 408px; height: 417px; margin-right: 200px;""><img src=""images/demo_images/choice_trial_2.png"" style=""width: 408px; height: 417px;""></div></div>",f,delaylearn,learning,trial,ZpYMmcQG7baF9p2JC6P048EAquu2,ZpYMmcQG7baF9p2JC6P048EAquu2,3.0,images/demo_images/choice_trial_1.png,images/demo_images/choice_trial_2.png,images/demo_images/pattern_1.png,f,f,3000.0,1.0,2.0,20.0,0.0,8.0,1.0,1.0,1.0,20.0,,,,,,6012d4f3e68e2209e7e53679,17:06:40,27/03/2024
html-keyboard-response,40,69865,0.0-17.0-1.0,,"<div style=""display: flex; flex-direction: column; align-items: center; margin-top: -40px;""><img src=""images/demo_images/pattern_1.png"" style=""width: 234px; height: 230px; margin-top: -50px;""><div style=""display: flex; justify-content: space-between; margin-top: 33px;""><img src=""images/demo_images/choice_trial_1.png"" style=""width: 408px; height: 417px; margin-right: 608px;""></div></div>",,delaylearn,learning,display_response,ZpYMmcQG7baF9p2JC6P048EAquu2,ZpYMmcQG7baF9p2JC6P048EAquu2,,,,,,,,,,,,,,,,,chosen stimuli: images/demo_images/choice_trial_1.png,,,,,6012d4f3e68e2209e7e53679,17:06:40,27/03/2024
html-keyboard-response,41,72875,0.0-17.0-2.0,,,,delaylearn,learning,feedback_duration_window,ZpYMmcQG7baF9p2JC6P048EAquu2,ZpYMmcQG7baF9p2JC6P048EAquu2,,,,,,,,,,,,,,,,,,3000.0,,,,6012d4f3e68e2209e7e53679,17:06:40,27/03/2024
html-keyboard-response,42,74383,0.0-17.0-3.0,,<div style='margin:auto;width: auto; font-size: 150%'><span style='font-weight: bold; font-size: 100px; color: green;'>+10 points!</span><br><br></div>,,delaylearn,learning,feedback_image_window,ZpYMmcQG7baF9p2JC6P048EAquu2,ZpYMmcQG7baF9p2JC6P048EAquu2,,,,,,,,,,,,,,,,,,,,,,6012d4f3e68e2209e7e53679,17:06:40,27/03/2024
html-button-response,43,76319,0.0-18.0,1932.8999999761581,"
  <div style=""display: flex; align-items: center; justify-content: center; height: 80vh;"">
  <div>
          <img src=""images/inst_demo_finish.png"" style=""width: 80vw; height:auto;"">
          <br><br>
      </div>
      <br><br>
  </div>",0,,,,ZpYMmcQG7baF9p2JC6P048EAquu2,,,,,,,,,,,,,,,,,,,,,,,6012d4f3e68e2209e7e53679,17:06:40,27/03/2024
html-keyboard-response,44,78615,0.0-19.0,2295.0,"
  <div style=""display: flex; align-items: center; justify-content: center; height: 80vh;"">
  <div>
          <img src=""images/inst_6.png"" style=""width: 80vw; height:auto;"">
          <br><br>
      </div>
      <br><br>
  </div>",f,,,,ZpYMmcQG7baF9p2JC6P048EAquu2,,,,,,,,,,,,,,,,,,,,,,,6012d4f3e68e2209e7e53679,17:06:40,27/03/2024
html-keyboard-response,45,81628,0.0-20.0,,"<div style=""font-size:100px;"">+</div>",,delaylearn,learning,pre_fixation,ZpYMmcQG7baF9p2JC6P048EAquu2,,,,,,,,,,,,,,,,,,,,,,,6012d4f3e68e2209e7e53679,17:06:40,27/03/2024
html-keyboard-response,46,83612,0.0-21.0,,"<div style=""font-size:100px;"">+</div>",,delaylearn,learning,ITI,ZpYMmcQG7baF9p2JC6P048EAquu2,ZpYMmcQG7baF9p2JC6P048EAquu2,,,,,,,,,,,,,,,,,,,1979.0,,,6012d4f3e68e2209e7e53679,17:06:40,27/03/2024
html-keyboard-response,47,85255,0.0-22.0-0.0,1640.8999999761581,"<div style=""display: flex; flex-direction: column; align-items: center; margin-top: -40px;""><img src=""images/pattern_3.png"" style=""width: 234px; height: 230px; margin-top: -50px;""><div style=""display: flex; justify-content: space-between; margin-top: 33px;""><img src=""images/choice_trial_13.png"" style=""width: 408px; height: 417px; margin-right: 200px;""><img src=""images/choice_trial_10.png"" style=""width: 408px; height: 417px;""></div></div>",j,delaylearn,learning,trial,ZpYMmcQG7baF9p2JC6P048EAquu2,ZpYMmcQG7baF9p2JC6P048EAquu2,3.0,images/choice_trial_13.png,images/choice_trial_10.png,images/pattern_3.png,f,f,7000.0,13.0,10.0,2.0,0.0,9.0,0.0,0.0,10.0,20.0,,,,,,6012d4f3e68e2209e7e53679,17:06:40,27/03/2024
html-keyboard-response,48,86261,0.0-22.0-1.0,,"<div style=""display: flex; flex-direction: column; align-items: center; margin-top: -40px;""><img src=""images/pattern_3.png"" style=""width: 234px; height: 230px; margin-top: -50px;""><div style=""display: flex; justify-content: space-between; margin-top: 33px;""><img src=""images/choice_trial_10.png"" style=""width: 408px; height: 417px; margin-left:608px;""></div></div>",,delaylearn,learning,display_response,ZpYMmcQG7baF9p2JC6P048EAquu2,ZpYMmcQG7baF9p2JC6P048EAquu2,,,,,,,,,,,,,,,,,chosen stimuli: images/choice_trial_10.png,,,,,6012d4f3e68e2209e7e53679,17:06:40,27/03/2024
html-keyboard-response,49,93274,0.0-22.0-2.0,,,,delaylearn,learning,feedback_duration_window,ZpYMmcQG7baF9p2JC6P048EAquu2,ZpYMmcQG7baF9p2JC6P048EAquu2,,,,,,,,,,,,,,,,,,7000.0,,,,6012d4f3e68e2209e7e53679,17:06:40,27/03/2024
html-keyboard-response,50,94785,0.0-22.0-3.0,,<div style='margin:auto;width: auto; font-size: 150%'><span style='font-weight: bold; font-size: 100px; color: red;'>0 points!</span><br><br></div>,,delaylearn,learning,feedback_image_window,ZpYMmcQG7baF9p2JC6P048EAquu2,ZpYMmcQG7baF9p2JC6P048EAquu2,,,,,,,,,,,,,,,,,,,,,,6012d4f3e68e2209e7e53679,17:06:40,27/03/2024
html-keyboard-response,51,97111,0.0-23.0,,"<div style=""font-size:100px;"">+</div>",,delaylearn,learning,ITI,ZpYMmcQG7baF9p2JC6P048EAquu2,ZpYMmcQG7baF9p2JC6P048EAquu2,,,,,,,,,,,,,,,,,,,2322.0,,,6012d4f3e68e2209e7e53679,17:06:40,27/03/2024
html-keyboard-response,52,99344,0.0-24.0-0.0,2230.399999976158,"<div style=""display: flex; flex-direction: column; align-items: center; margin-top: -40px;""><img src=""images/pattern_7.png"" style=""width: 234px; height: 230px; margin-top: -50px;""><div style=""display: flex; justify-content: space-between; margin-top: 33px;""><img src=""images/choice_trial_12.png"" style=""width: 408px; height: 417px; margin-right: 200px;""><img src=""images/choice_trial_6.png"" style=""width: 408px; height: 417px;""></div></div>",f,delaylearn,learning,trial,ZpYMmcQG7baF9p2JC6P048EAquu2,ZpYMmcQG7baF9p2JC6P048EAquu2,3.0,images/choice_trial_12.png,images/choice_trial_6.png,images/pattern_7.png,j,j,750.0,12.0,6.0,6.0,1.0,10.0,0.0,0.0,12.0,20.0,,,,,,6012d4f3e68e2209e7e53679,17:06:40,27/03/2024
html-keyboard-response,53,100361,0.0-24.0-1.0,,"<div style=""display: flex; flex-direction: column; align-items: center; margin-top: -40px;""><img src=""images/pattern_7.png"" style=""width: 234px; height: 230px; margin-top: -50px;""><div style=""display: flex; justify-content: space-between; margin-top: 33px;""><img src=""images/choice_trial_12.png"" style=""width: 408px; height: 417px; margin-right: 608px;""></div></div>",,delaylearn,learning,display_response,ZpYMmcQG7baF9p2JC6P048EAquu2,ZpYMmcQG7baF9p2JC6P048EAquu2,,,,,,,,,,,,,,,,,chosen stimuli: images/choice_trial_12.png,,,,,6012d4f3e68e2209e7e53679,17:06:40,27/03/2024
html-keyboard-response,54,101127,0.0-24.0-2.0,,,,delaylearn,learning,feedback_duration_window,ZpYMmcQG7baF9p2JC6P048EAquu2,ZpYMmcQG7baF9p2JC6P048EAquu2,,,,,,,,,,,,,,,,,,750.0,,,,6012d4f3e68e2209e7e53679,17:06:40,27/03/2024
html-keyboard-response,55,102641,0.0-24.0-3.0,,<div style='margin:auto;width: auto; font-size: 150%'><span style='font-weight: bold; font-size: 100px; color: red;'>0 points!</span><br><br></div>,,delaylearn,learning,feedback_image_window,ZpYMmcQG7baF9p2JC6P048EAquu2,ZpYMmcQG7baF9p2JC6P048EAquu2,,,,,,,,,,,,,,,,,,,,,,6012d4f3e68e2209e7e53679,17:06:40,27/03/2024
html-keyboard-response,56,104724,0.0-25.0,,"<div style=""font-size:100px;"">+</div>",,delaylearn,learning,ITI,ZpYMmcQG7baF9p2JC6P048EAquu2,ZpYMmcQG7baF9p2JC6P048EAquu2,,,,,,,,,,,,,,,,,,,2078.0,,,6012d4f3e68e2209e7e53679,17:06:40,27/03/2024
html-keyboard-response,57,106919,0.0-26.0-0.0,2192.0,"<div style=""display: flex; flex-direction: column; align-items: center; margin-top: -40px;""><img src=""images/pattern_4.png"" style=""width: 234px; height: 230px; margin-top: -50px;""><div style=""display: flex; justify-content: space-between; margin-top: 33px;""><img src=""images/choice_trial_15.png"" style=""width: 408px; height: 417px; margin-right: 200px;""><img src=""images/choice_trial_9.png"" style=""width: 408px; height: 417px;""></div></div>",f,delaylearn,learning,trial,ZpYMmcQG7baF9p2JC6P048EAquu2,ZpYMmcQG7baF9p2JC6P048EAquu2,3.0,images/choice_trial_15.png,images/choice_trial_9.png,images/pattern_4.png,f,f,7000.0,15.0,9.0,3.0,0.0,11.0,1.0,1.0,15.0,30.0,,,,,,6012d4f3e68e2209e7e53679,17:06:40,27/03/2024
html-keyboard-response,58,107923,0.0-26.0-1.0,,"<div style=""display: flex; flex-direction: column; align-items: center; margin-top: -40px;""><img src=""images/pattern_4.png"" style=""width: 234px; height: 230px; margin-top: -50px;""><div style=""display: flex; justify-content: space-between; margin-top: 33px;""><img src=""images/choice_trial_15.png"" style=""width: 408px; height: 417px; margin-right: 608px;""></div></div>",,delaylearn,learning,display_response,ZpYMmcQG7baF9p2JC6P048EAquu2,ZpYMmcQG7baF9p2JC6P048EAquu2,,,,,,,,,,,,,,,,,chosen stimuli: images/choice_trial_15.png,,,,,6012d4f3e68e2209e7e53679,17:06:40,27/03/2024
html-keyboard-response,59,114936,0.0-26.0-2.0,,,,delaylearn,learning,feedback_duration_window,ZpYMmcQG7baF9p2JC6P048EAquu2,ZpYMmcQG7baF9p2JC6P048EAquu2,,,,,,,,,,,,,,,,,,7000.0,,,,6012d4f3e68e2209e7e53679,17:06:40,27/03/2024
html-keyboard-response,60,116438,0.0-26.0-3.0,,<div style='margin:auto;width: auto; font-size: 150%'><span style='font-weight: bold; font-size: 100px; color: green;'>+10 points!</span><br><br></div>,,delaylearn,learning,feedback_image_window,ZpYMmcQG7baF9p2JC6P048EAquu2,ZpYMmcQG7baF9p2JC6P048EAquu2,,,,,,,,,,,,,,,,,,,,,,6012d4f3e68e2209e7e53679,17:06:40,27/03/2024
html-keyboard-response,61,118946,0.0-27.0,,"<div style=""font-size:100px;"">+</div>",,delaylearn,learning,ITI,ZpYMmcQG7baF9p2JC6P048EAquu2,ZpYMmcQG7baF9p2JC6P048EAquu2,,,,,,,,,,,,,,,,,,,2497.0,,,6012d4f3e68e2209e7e53679,17:06:40,27/03/2024
html-keyboard-response,62,121088,0.0-28.0-0.0,2139.100000023842,"<div style=""display: flex; flex-direction: column; align-items: center; margin-top: -40px;""><img src=""images/pattern_5.png"" style=""width: 234px; height: 230px; margin-top: -50px;""><div style=""display: flex; justify-content: space-between; margin-top: 33px;""><img src=""images/choice_trial_2.png"" style=""width: 408px; height: 417px; margin-right: 200px;""><img src=""images/choice_trial_11.png"" style=""width: 408px; height: 417px;""></div></div>",j,delaylearn,learning,trial,ZpYMmcQG7baF9p2JC6P048EAquu2,ZpYMmcQG7baF9p2JC6P048EAquu2,3.0,images/choice_trial_2.png,images/choice_trial_11.png,images/pattern_5.png,j,j,750.0,2.0,11.0,4.0,1.0,12.0,1.0,1.0,11.0,40.0,,,,,,6012d4f3e68e2209e7e53679,17:06:40,27/03/2024
html-keyboard-response,63,122091,0.0-28.0-1.0,,"<div style=""display: flex; flex-direction: column; align-items: center; margin-top: -40px;""><img src=""images/pattern_5.png"" style=""width: 234px; height: 230px; margin-top: -50px;""><div style=""display: flex; justify-content: space-between; margin-top: 33px;""><img src=""images/choice_trial_11.png"" style=""width: 408px; height: 417px; margin-left:608px;""></div></div>",,delaylearn,learning,display_response,ZpYMmcQG7baF9p2JC6P048EAquu2,ZpYMmcQG7baF9p2JC6P048EAquu2,,,,,,,,,,,,,,,,,chosen stimuli: images/choice_trial_11.png,,,,,6012d4f3e68e2209e7e53679,17:06:40,27/03/2024
html-keyboard-response,64,122856,0.0-28.0-2.0,,,,delaylearn,learning,feedback_duration_window,ZpYMmcQG7baF9p2JC6P048EAquu2,ZpYMmcQG7baF9p2JC6P048EAquu2,,,,,,,,,,,,,,,,,,750.0,,,,6012d4f3e68e2209e7e53679,17:06:40,27/03/2024
html-keyboard-response,65,124364,0.0-28.0-3.0,,<div style='margin:auto;width: auto; font-size: 150%'><span style='font-weight: bold; font-size: 100px; color: green;'>+10 points!</span><br><br></div>,,delaylearn,learning,feedback_image_window,ZpYMmcQG7baF9p2JC6P048EAquu2,ZpYMmcQG7baF9p2JC6P048EAquu2,,,,,,,,,,,,,,,,,,,,,,6012d4f3e68e2209e7e53679,17:06:40,27/03/2024
html-keyboard-response,66,126697,0.0-29.0,,"<div style=""font-size:100px;"">+</div>",,delaylearn,learning,ITI,ZpYMmcQG7baF9p2JC6P048EAquu2,ZpYMmcQG7baF9p2JC6P048EAquu2,,,,,,,,,,,,,,,,,,,2322.0,,,6012d4f3e68e2209e7e53679,17:06:40,27/03/2024
html-keyboard-response,67,128786,0.0-30.0-0.0,2086.199999988079,"<div style=""display: flex; flex-direction: column; align-items: center; margin-top: -40px;""><img src=""images/pattern_6.png"" style=""width: 234px; height: 230px; margin-top: -50px;""><div style=""display: flex; justify-content: space-between; margin-top: 33px;""><img src=""images/choice_trial_16.png"" style=""width: 408px; height: 417px; margin-right: 200px;""><img src=""images/choice_trial_3.png"" style=""width: 408px; height: 417px;""></div></div>",f,delaylearn,learning,trial,ZpYMmcQG7baF9p2JC6P048EAquu2,ZpYMmcQG7baF9p2JC6P048EAquu2,3.0,images/choice_trial_16.png,images/choice_trial_3.png,images/pattern_6.png,j,f,750.0,16.0,3.0,5.0,0.0,13.0,1.0,0.0,16.0,40.0,,,,,,6012d4f3e68e2209e7e53679,17:06:40,27/03/2024
html-keyboard-response,68,129791,0.0-30.0-1.0,,"<div style=""display: flex; flex-direction: column; align-items: center; margin-top: -40px;""><img src=""images/pattern_6.png"" style=""width: 234px; height: 230px; margin-top: -50px;""><div style=""display: flex; justify-content: space-between; margin-top: 33px;""><img src=""images/choice_trial_16.png"" style=""width: 408px; height: 417px; margin-right: 608px;""></div></div>",,delaylearn,learning,display_response,ZpYMmcQG7baF9p2JC6P048EAquu2,ZpYMmcQG7baF9p2JC6P048EAquu2,,,,,,,,,,,,,,,,,chosen stimuli: images/choice_trial_16.png,,,,,6012d4f3e68e2209e7e53679,17:06:40,27/03/2024
html-keyboard-response,69,130544,0.0-30.0-2.0,,,,delaylearn,learning,feedback_duration_window,ZpYMmcQG7baF9p2JC6P048EAquu2,ZpYMmcQG7baF9p2JC6P048EAquu2,,,,,,,,,,,,,,,,,,750.0,,,,6012d4f3e68e2209e7e53679,17:06:40,27/03/2024
html-keyboard-response,70,132053,0.0-30.0-3.0,,<div style='margin:auto;width: auto; font-size: 150%'><span style='font-weight: bold; font-size: 100px; color: red;'>0 points!</span><br><br></div>,,delaylearn,learning,feedback_image_window,ZpYMmcQG7baF9p2JC6P048EAquu2,ZpYMmcQG7baF9p2JC6P048EAquu2,,,,,,,,,,,,,,,,,,,,,,6012d4f3e68e2209e7e53679,17:06:40,27/03/2024
html-keyboard-response,71,132567,0.0-31.0-0.0,,,,,,mood_trial_fixation,ZpYMmcQG7baF9p2JC6P048EAquu2,,,,,,,,,,,,,,,,,,,,,,,6012d4f3e68e2209e7e53679,17:06:40,27/03/2024
lmdlab-html-vas-response,72,136271,0.0-31.0-1.0,2680.0,How happy are you right now?,0.4884500038029233,delaylearn,learning,mood_trial,ZpYMmcQG7baF9p2JC6P048EAquu2,ZpYMmcQG7baF9p2JC6P048EAquu2,,,,,,,,,,,,,,,,,,,,"['Very unhappy', 'Very happy']",,6012d4f3e68e2209e7e53679,17:06:40,27/03/2024
html-keyboard-response,73,138307,0.0-32.0,,"<div style=""font-size:100px;"">+</div>",,delaylearn,learning,ITI,ZpYMmcQG7baF9p2JC6P048EAquu2,ZpYMmcQG7baF9p2JC6P048EAquu2,,,,,,,,,,,,,,,,,,,2027.0,,,6012d4f3e68e2209e7e53679,17:06:40,27/03/2024
html-keyboard-response,74,139937,0.0-33.0-0.0,1626.5,"<div style=""display: flex; flex-direction: column; align-items: center; margin-top: -40px;""><img src=""images/pattern_1.png"" style=""width: 234px; height: 230px; margin-top: -50px;""><div style=""display: flex; justify-content: space-between; margin-top: 33px;""><img src=""images/choice_trial_8.png"" style=""width: 408px; height: 417px; margin-right: 200px;""><img src=""images/choice_trial_14.png"" style=""width: 408px; height: 417px;""></div></div>",j,delaylearn,learning,trial,ZpYMmcQG7baF9p2JC6P048EAquu2,ZpYMmcQG7baF9p2JC6P048EAquu2,3.0,images/choice_trial_8.png,images/choice_trial_14.png,images/pattern_1.png,j,j,7000.0,8.0,14.0,1.0,1.0,14.0,1.0,1.0,14.0,50.0,,,,,,6012d4f3e68e2209e7e53679,17:06:40,27/03/2024
html-keyboard-response,75,140953,0.0-33.0-1.0,,"<div style=""display: flex; flex-direction: column; align-items: center; margin-top: -40px;""><img src=""images/pattern_1.png"" style=""width: 234px; height: 230px; margin-top: -50px;""><div style=""display: flex; justify-content: space-between; margin-top: 33px;""><img src=""images/choice_trial_14.png"" style=""width: 408px; height: 417px; margin-left:608px;""></div></div>",,delaylearn,learning,display_response,ZpYMmcQG7baF9p2JC6P048EAquu2,ZpYMmcQG7baF9p2JC6P048EAquu2,,,,,,,,,,,,,,,,,chosen stimuli: images/choice_trial_14.png,,,,,6012d4f3e68e2209e7e53679,17:06:40,27/03/2024
html-keyboard-response,76,147967,0.0-33.0-2.0,,,,delaylearn,learning,feedback_duration_window,ZpYMmcQG7baF9p2JC6P048EAquu2,ZpYMmcQG7baF9p2JC6P048EAquu2,,,,,,,,,,,,,,,,,,7000.0,,,,6012d4f3e68e2209e7e53679,17:06:40,27/03/2024
html-keyboard-response,77,149476,0.0-33.0-3.0,,<div style='margin:auto;width: auto; font-size: 150%'><span style='font-weight: bold; font-size: 100px; color: green;'>+10 points!</span><br><br></div>,,delaylearn,learning,feedback_image_window,ZpYMmcQG7baF9p2JC6P048EAquu2,ZpYMmcQG7baF9p2JC6P048EAquu2,,,,,,,,,,,,,,,,,,,,,,6012d4f3e68e2209e7e53679,17:06:40,27/03/2024
html-keyboard-response,78,151020,0.0-34.0,,"<div style=""font-size:100px;"">+</div>",,delaylearn,learning,ITI,ZpYMmcQG7baF9p2JC6P048EAquu2,ZpYMmcQG7baF9p2JC6P048EAquu2,,,,,,,,,,,,,,,,,,,1535.0,,,6012d4f3e68e2209e7e53679,17:06:40,27/03/2024
html-keyboard-response,79,152957,0.0-35.0-0.0,1935.0,"<div style=""display: flex; flex-direction: column; align-items: center; margin-top: -40px;""><img src=""images/pattern_3.png"" style=""width: 234px; height: 230px; margin-top: -50px;""><div style=""display: flex; justify-content: space-between; margin-top: 33px;""><img src=""images/choice_trial_10.png"" style=""width: 408px; height: 417px; margin-right: 200px;""><img src=""images/choice_trial_13.png"" style=""width: 408px; height: 417px;""></div></div>",f,delaylearn,learning,trial,ZpYMmcQG7baF9p2JC6P048EAquu2,ZpYMmcQG7baF9p2JC6P048EAquu2,3.0,images/choice_trial_10.png,images/choice_trial_13.png,images/pattern_3.png,f,j,7000.0,10.0,13.0,2.0,1.0,15.0,0.0,1.0,10.0,60.0,,,,,,6012d4f3e68e2209e7e53679,17:06:40,27/03/2024
html-keyboard-response,80,153967,0.0-35.0-1.0,,"<div style=""display: flex; flex-direction: column; align-items: center; margin-top: -40px;""><img src=""images/pattern_3.png"" style=""width: 234px; height: 230px; margin-top: -50px;""><div style=""display: flex; justify-content: space-between; margin-top: 33px;""><img src=""images/choice_trial_10.png"" style=""width: 408px; height: 417px; margin-right: 608px;""></div></div>",,delaylearn,learning,display_response,ZpYMmcQG7baF9p2JC6P048EAquu2,ZpYMmcQG7baF9p2JC6P048EAquu2,,,,,,,,,,,,,,,,,chosen stimuli: images/choice_trial_10.png,,,,,6012d4f3e68e2209e7e53679,17:06:40,27/03/2024
html-keyboard-response,81,160971,0.0-35.0-2.0,,,,delaylearn,learning,feedback_duration_window,ZpYMmcQG7baF9p2JC6P048EAquu2,ZpYMmcQG7baF9p2JC6P048EAquu2,,,,,,,,,,,,,,,,,,7000.0,,,,6012d4f3e68e2209e7e53679,17:06:40,27/03/2024
html-keyboard-response,82,162482,0.0-35.0-3.0,,<div style='margin:auto;width: auto; font-size: 150%'><span style='font-weight: bold; font-size: 100px; color: green;'>+10 points!</span><br><br></div>,,delaylearn,learning,feedback_image_window,ZpYMmcQG7baF9p2JC6P048EAquu2,ZpYMmcQG7baF9p2JC6P048EAquu2,,,,,,,,,,,,,,,,,,,,,,6012d4f3e68e2209e7e53679,17:06:40,27/03/2024
html-keyboard-response,83,164759,0.0-36.0,,"<div style=""font-size:100px;"">+</div>",,delaylearn,learning,ITI,ZpYMmcQG7baF9p2JC6P048EAquu2,ZpYMmcQG7baF9p2JC6P048EAquu2,,,,,,,,,,,,,,,,,,,2263.0,,,6012d4f3e68e2209e7e53679,17:06:40,27/03/2024
html-keyboard-response,84,166204,0.0-37.0-0.0,1441.7999999523163,"<div style=""display: flex; flex-direction: column; align-items: center; margin-top: -40px;""><img src=""images/pattern_5.png"" style=""width: 234px; height: 230px; margin-top: -50px;""><div style=""display: flex; justify-content: space-between; margin-top: 33px;""><img src=""images/choice_trial_11.png"" style=""width: 408px; height: 417px; margin-right: 200px;""><img src=""images/choice_trial_2.png"" style=""width: 408px; height: 417px;""></div></div>",f,delaylearn,learning,trial,ZpYMmcQG7baF9p2JC6P048EAquu2,ZpYMmcQG7baF9p2JC6P048EAquu2,3.0,images/choice_trial_11.png,images/choice_trial_2.png,images/pattern_5.png,f,f,750.0,11.0,2.0,4.0,0.0,16.0,1.0,1.0,11.0,70.0,,,,,,6012d4f3e68e2209e7e53679,17:06:40,27/03/2024
html-keyboard-response,85,167212,0.0-37.0-1.0,,"<div style=""display: flex; flex-direction: column; align-items: center; margin-top: -40px;""><img src=""images/pattern_5.png"" style=""width: 234px; height: 230px; margin-top: -50px;""><div style=""display: flex; justify-content: space-between; margin-top: 33px;""><img src=""images/choice_trial_11.png"" style=""width: 408px; height: 417px; margin-right: 608px;""></div></div>",,delaylearn,learning,display_response,ZpYMmcQG7baF9p2JC6P048EAquu2,ZpYMmcQG7baF9p2JC6P048EAquu2,,,,,,,,,,,,,,,,,chosen stimuli: images/choice_trial_11.png,,,,,6012d4f3e68e2209e7e53679,17:06:40,27/03/2024
html-keyboard-response,86,167976,0.0-37.0-2.0,,,,delaylearn,learning,feedback_duration_window,ZpYMmcQG7baF9p2JC6P048EAquu2,ZpYMmcQG7baF9p2JC6P048EAquu2,,,,,,,,,,,,,,,,,,750.0,,,,6012d4f3e68e2209e7e53679,17:06:40,27/03/2024
html-keyboard-response,87,169486,0.0-37.0-3.0,,<div style='margin:auto;width: auto; font-size: 150%'><span style='font-weight: bold; font-size: 100px; color: green;'>+10 points!</span><br><br></div>,,delaylearn,learning,feedback_image_window,ZpYMmcQG7baF9p2JC6P048EAquu2,ZpYMmcQG7baF9p2JC6P048EAquu2,,,,,,,,,,,,,,,,,,,,,,6012d4f3e68e2209e7e53679,17:06:40,27/03/2024
html-keyboard-response,88,170001,0.0-38.0-0.0,,,,,,mood_trial_fixation,ZpYMmcQG7baF9p2JC6P048EAquu2,,,,,,,,,,,,,,,,,,,,,,,6012d4f3e68e2209e7e53679,17:06:40,27/03/2024
lmdlab-html-vas-response,89,174432,0.0-38.0-1.0,3407.0,How happy are you right now?,0.6543450577184862,delaylearn,learning,mood_trial,ZpYMmcQG7baF9p2JC6P048EAquu2,ZpYMmcQG7baF9p2JC6P048EAquu2,,,,,,,,,,,,,,,,,,,,"['Very unhappy', 'Very happy']",,6012d4f3e68e2209e7e53679,17:06:40,27/03/2024
html-keyboard-response,90,176886,0.0-39.0,,"<div style=""font-size:100px;"">+</div>",,delaylearn,learning,ITI,ZpYMmcQG7baF9p2JC6P048EAquu2,ZpYMmcQG7baF9p2JC6P048EAquu2,,,,,,,,,,,,,,,,,,,2441.0,,,6012d4f3e68e2209e7e53679,17:06:40,27/03/2024
html-keyboard-response,91,178682,0.0-40.0-0.0,1792.0,"<div style=""display: flex; flex-direction: column; align-items: center; margin-top: -40px;""><img src=""images/pattern_6.png"" style=""width: 234px; height: 230px; margin-top: -50px;""><div style=""display: flex; justify-content: space-between; margin-top: 33px;""><img src=""images/choice_trial_16.png"" style=""width: 408px; height: 417px; margin-right: 200px;""><img src=""images/choice_trial_3.png"" style=""width: 408px; height: 417px;""></div></div>",f,delaylearn,learning,trial,ZpYMmcQG7baF9p2JC6P048EAquu2,ZpYMmcQG7baF9p2JC6P048EAquu2,3.0,images/choice_trial_16.png,images/choice_trial_3.png,images/pattern_6.png,f,f,750.0,16.0,3.0,5.0,0.0,17.0,1.0,1.0,16.0,80.0,,,,,,6012d4f3e68e2209e7e53679,17:06:40,27/03/2024
html-keyboard-response,92,179690,0.0-40.0-1.0,,"<div style=""display: flex; flex-direction: column; align-items: center; margin-top: -40px;""><img src=""images/pattern_6.png"" style=""width: 234px; height: 230px; margin-top: -50px;""><div style=""display: flex; justify-content: space-between; margin-top: 33px;""><img src=""images/choice_trial_16.png"" style=""width: 408px; height: 417px; margin-right: 608px;""></div></div>",,delaylearn,learning,display_response,ZpYMmcQG7baF9p2JC6P048EAquu2,ZpYMmcQG7baF9p2JC6P048EAquu2,,,,,,,,,,,,,,,,,chosen stimuli: images/choice_trial_16.png,,,,,6012d4f3e68e2209e7e53679,17:06:40,27/03/2024
html-keyboard-response,93,180453,0.0-40.0-2.0,,,,delaylearn,learning,feedback_duration_window,ZpYMmcQG7baF9p2JC6P048EAquu2,ZpYMmcQG7baF9p2JC6P048EAquu2,,,,,,,,,,,,,,,,,,750.0,,,,6012d4f3e68e2209e7e53679,17:06:40,27/03/2024
html-keyboard-response,94,181956,0.0-40.0-3.0,,<div style='margin:auto;width: auto; font-size: 150%'><span style='font-weight: bold; font-size: 100px; color: green;'>+10 points!</span><br><br></div>,,delaylearn,learning,feedback_image_window,ZpYMmcQG7baF9p2JC6P048EAquu2,ZpYMmcQG7baF9p2JC6P048EAquu2,,,,,,,,,,,,,,,,,,,,,,6012d4f3e68e2209e7e53679,17:06:40,27/03/2024
html-keyboard-response,95,183914,0.0-41.0,,"<div style=""font-size:100px;"">+</div>",,delaylearn,learning,ITI,ZpYMmcQG7baF9p2JC6P048EAquu2,ZpYMmcQG7baF9p2JC6P048EAquu2,,,,,,,,,,,,,,,,,,,1945.0,,,6012d4f3e68e2209e7e53679,17:06:40,27/03/2024
html-keyboard-response,96,185017,0.0-42.0-0.0,1100.8999999761581,"<div style=""display: flex; flex-direction: column; align-items: center; margin-top: -40px;""><img src=""images/pattern_4.png"" style=""width: 234px; height: 230px; margin-top: -50px;""><div style=""display: flex; justify-content: space-between; margin-top: 33px;""><img src=""images/choice_trial_9.png"" style=""width: 408px; height: 417px; margin-right: 200px;""><img src=""images/choice_trial_15.png"" style=""width: 408px; height: 417px;""></div></div>",j,delaylearn,learning,trial,ZpYMmcQG7baF9p2JC6P048EAquu2,ZpYMmcQG7baF9p2JC6P048EAquu2,3.0,images/choice_trial_9.png,images/choice_trial_15.png,images/pattern_4.png,j,j,7000.0,9.0,15.0,3.0,1.0,18.0,1.0,1.0,15.0,90.0,,,,,,6012d4f3e68e2209e7e53679,17:06:40,27/03/2024
html-keyboard-response,97,186027,0.0-42.0-1.0,,"<div style=""display: flex; flex-direction: column; align-items: center; margin-top: -40px;""><img src=""images/pattern_4.png"" style=""width: 234px; height: 230px; margin-top: -50px;""><div style=""display: flex; justify-content: space-between; margin-top: 33px;""><img src=""images/choice_trial_15.png"" style=""width: 408px; height: 417px; margin-left:608px;""></div></div>",,delaylearn,learning,display_response,ZpYMmcQG7baF9p2JC6P048EAquu2,ZpYMmcQG7baF9p2JC6P048EAquu2,,,,,,,,,,,,,,,,,chosen stimuli: images/choice_trial_15.png,,,,,6012d4f3e68e2209e7e53679,17:06:40,27/03/2024
html-keyboard-response,98,193030,0.0-42.0-2.0,,,,delaylearn,learning,feedback_duration_window,ZpYMmcQG7baF9p2JC6P048EAquu2,ZpYMmcQG7baF9p2JC6P048EAquu2,,,,,,,,,,,,,,,,,,7000.0,,,,6012d4f3e68e2209e7e53679,17:06:40,27/03/2024
html-keyboard-response,99,194541,0.0-42.0-3.0,,<div style='margin:auto;width: auto; font-size: 150%'><span style='font-weight: bold; font-size: 100px; color: green;'>+10 points!</span><br><br></div>,,delaylearn,learning,feedback_image_window,ZpYMmcQG7baF9p2JC6P048EAquu2,ZpYMmcQG7baF9p2JC6P048EAquu2,,,,,,,,,,,,,,,,,,,,,,6012d4f3e68e2209e7e53679,17:06:40,27/03/2024
html-keyboard-response,100,196380,0.0-43.0,,"<div style=""font-size:100px;"">+</div>",,delaylearn,learning,ITI,ZpYMmcQG7baF9p2JC6P048EAquu2,ZpYMmcQG7baF9p2JC6P048EAquu2,,,,,,,,,,,,,,,,,,,1835.0,,,6012d4f3e68e2209e7e53679,17:06:40,27/03/2024
html-keyboard-response,101,198059,0.0-44.0-0.0,1675.800000011921,"<div style=""display: flex; flex-direction: column; align-items: center; margin-top: -40px;""><img src=""images/pattern_7.png"" style=""width: 234px; height: 230px; margin-top: -50px;""><div style=""display: flex; justify-content: space-between; margin-top: 33px;""><img src=""images/choice_trial_6.png"" style=""width: 408px; height: 417px; margin-right: 200px;""><img src=""images/choice_trial_12.png"" style=""width: 408px; height: 417px;""></div></div>",j,delaylearn,learning,trial,ZpYMmcQG7baF9p2JC6P048EAquu2,ZpYMmcQG7baF9p2JC6P048EAquu2,3.0,images/choice_trial_6.png,images/choice_trial_12.png,images/pattern_7.png,j,f,750.0,6.0,12.0,6.0,0.0,19.0,0.0,1.0,12.0,100.0,,,,,,6012d4f3e68e2209e7e53679,17:06:40,27/03/2024
html-keyboard-response,102,199073,0.0-44.0-1.0,,"<div style=""display: flex; flex-direction: column; align-items: center; margin-top: -40px;""><img src=""images/pattern_7.png"" style=""width: 234px; height: 230px; margin-top: -50px;""><div style=""display: flex; justify-content: space-between; margin-top: 33px;""><img src=""images/choice_trial_12.png"" style=""width: 408px; height: 417px; margin-left:608px;""></div></div>",,delaylearn,learning,display_response,ZpYMmcQG7baF9p2JC6P048EAquu2,ZpYMmcQG7baF9p2JC6P048EAquu2,,,,,,,,,,,,,,,,,chosen stimuli: images/choice_trial_12.png,,,,,6012d4f3e68e2209e7e53679,17:06:40,27/03/2024
html-keyboard-response,103,199840,0.0-44.0-2.0,,,,delaylearn,learning,feedback_duration_window,ZpYMmcQG7baF9p2JC6P048EAquu2,ZpYMmcQG7baF9p2JC6P048EAquu2,,,,,,,,,,,,,,,,,,750.0,,,,6012d4f3e68e2209e7e53679,17:06:40,27/03/2024
html-keyboard-response,104,201351,0.0-44.0-3.0,,<div style='margin:auto;width: auto; font-size: 150%'><span style='font-weight: bold; font-size: 100px; color: green;'>+10 points!</span><br><br></div>,,delaylearn,learning,feedback_image_window,ZpYMmcQG7baF9p2JC6P048EAquu2,ZpYMmcQG7baF9p2JC6P048EAquu2,,,,,,,,,,,,,,,,,,,,,,6012d4f3e68e2209e7e53679,17:06:40,27/03/2024
html-keyboard-response,105,203330,0.0-45.0,,"<div style=""font-size:100px;"">+</div>",,delaylearn,learning,ITI,ZpYMmcQG7baF9p2JC6P048EAquu2,ZpYMmcQG7baF9p2JC6P048EAquu2,,,,,,,,,,,,,,,,,,,1969.0,,,6012d4f3e68e2209e7e53679,17:06:40,27/03/2024
html-keyboard-response,106,205044,0.0-46.0-0.0,1711.300000011921,"<div style=""display: flex; flex-direction: column; align-items: center; margin-top: -40px;""><img src=""images/pattern_1.png"" style=""width: 234px; height: 230px; margin-top: -50px;""><div style=""display: flex; justify-content: space-between; margin-top: 33px;""><img src=""images/choice_trial_14.png"" style=""width: 408px; height: 417px; margin-right: 200px;""><img src=""images/choice_trial_8.png"" style=""width: 408px; height: 417px;""></div></div>",f,delaylearn,learning,trial,ZpYMmcQG7baF9p2JC6P048EAquu2,ZpYMmcQG7baF9p2JC6P048EAquu2,3.0,images/choice_trial_14.png,images/choice_trial_8.png,images/pattern_1.png,f,f,7000.0,14.0,8.0,1.0,0.0,20.0,1.0,1.0,14.0,110.0,,,,,,6012d4f3e68e2209e7e53679,17:06:40,27/03/2024
html-keyboard-response,107,206061,0.0-46.0-1.0,,"<div style=""display: flex; flex-direction: column; align-items: center; margin-top: -40px;""><img src=""images/pattern_1.png"" style=""width: 234px; height: 230px; margin-top: -50px;""><div style=""display: flex; justify-content: space-between; margin-top: 33px;""><img src=""images/choice_trial_14.png"" style=""width: 408px; height: 417px; margin-right: 608px;""></div></div>",,delaylearn,learning,display_response,ZpYMmcQG7baF9p2JC6P048EAquu2,ZpYMmcQG7baF9p2JC6P048EAquu2,,,,,,,,,,,,,,,,,chosen stimuli: images/choice_trial_14.png,,,,,6012d4f3e68e2209e7e53679,17:06:40,27/03/2024
html-keyboard-response,108,213076,0.0-46.0-2.0,,,,delaylearn,learning,feedback_duration_window,ZpYMmcQG7baF9p2JC6P048EAquu2,ZpYMmcQG7baF9p2JC6P048EAquu2,,,,,,,,,,,,,,,,,,7000.0,,,,6012d4f3e68e2209e7e53679,17:06:40,27/03/2024
html-keyboard-response,109,214578,0.0-46.0-3.0,,<div style='margin:auto;width: auto; font-size: 150%'><span style='font-weight: bold; font-size: 100px; color: green;'>+10 points!</span><br><br></div>,,delaylearn,learning,feedback_image_window,ZpYMmcQG7baF9p2JC6P048EAquu2,ZpYMmcQG7baF9p2JC6P048EAquu2,,,,,,,,,,,,,,,,,,,,,,6012d4f3e68e2209e7e53679,17:06:40,27/03/2024
html-keyboard-response,110,216108,0.0-47.0,,"<div style=""font-size:100px;"">+</div>",,delaylearn,learning,ITI,ZpYMmcQG7baF9p2JC6P048EAquu2,ZpYMmcQG7baF9p2JC6P048EAquu2,,,,,,,,,,,,,,,,,,,1516.0,,,6012d4f3e68e2209e7e53679,17:06:40,27/03/2024
html-keyboard-response,111,217060,0.0-48.0-0.0,949.1999999880791,"<div style=""display: flex; flex-direction: column; align-items: center; margin-top: -40px;""><img src=""images/pattern_6.png"" style=""width: 234px; height: 230px; margin-top: -50px;""><div style=""display: flex; justify-content: space-between; margin-top: 33px;""><img src=""images/choice_trial_3.png"" style=""width: 408px; height: 417px; margin-right: 200px;""><img src=""images/choice_trial_16.png"" style=""width: 408px; height: 417px;""></div></div>",j,delaylearn,learning,trial,ZpYMmcQG7baF9p2JC6P048EAquu2,ZpYMmcQG7baF9p2JC6P048EAquu2,3.0,images/choice_trial_3.png,images/choice_trial_16.png,images/pattern_6.png,j,j,750.0,3.0,16.0,5.0,1.0,21.0,1.0,1.0,16.0,120.0,,,,,,6012d4f3e68e2209e7e53679,17:06:40,27/03/2024
html-keyboard-response,112,218070,0.0-48.0-1.0,,"<div style=""display: flex; flex-direction: column; align-items: center; margin-top: -40px;""><img src=""images/pattern_6.png"" style=""width: 234px; height: 230px; margin-top: -50px;""><div style=""display: flex; justify-content: space-between; margin-top: 33px;""><img src=""images/choice_trial_16.png"" style=""width: 408px; height: 417px; margin-left:608px;""></div></div>",,delaylearn,learning,display_response,ZpYMmcQG7baF9p2JC6P048EAquu2,ZpYMmcQG7baF9p2JC6P048EAquu2,,,,,,,,,,,,,,,,,chosen stimuli: images/choice_trial_16.png,,,,,6012d4f3e68e2209e7e53679,17:06:40,27/03/2024
html-keyboard-response,113,218832,0.0-48.0-2.0,,,,delaylearn,learning,feedback_duration_window,ZpYMmcQG7baF9p2JC6P048EAquu2,ZpYMmcQG7baF9p2JC6P048EAquu2,,,,,,,,,,,,,,,,,,750.0,,,,6012d4f3e68e2209e7e53679,17:06:40,27/03/2024
html-keyboard-response,114,220340,0.0-48.0-3.0,,<div style='margin:auto;width: auto; font-size: 150%'><span style='font-weight: bold; font-size: 100px; color: green;'>+10 points!</span><br><br></div>,,delaylearn,learning,feedback_image_window,ZpYMmcQG7baF9p2JC6P048EAquu2,ZpYMmcQG7baF9p2JC6P048EAquu2,,,,,,,,,,,,,,,,,,,,,,6012d4f3e68e2209e7e53679,17:06:40,27/03/2024
html-keyboard-response,115,222432,0.0-49.0,,"<div style=""font-size:100px;"">+</div>",,delaylearn,learning,ITI,ZpYMmcQG7baF9p2JC6P048EAquu2,ZpYMmcQG7baF9p2JC6P048EAquu2,,,,,,,,,,,,,,,,,,,2087.0,,,6012d4f3e68e2209e7e53679,17:06:40,27/03/2024
html-keyboard-response,116,223303,0.0-50.0-0.0,866.8000000119209,"<div style=""display: flex; flex-direction: column; align-items: center; margin-top: -40px;""><img src=""images/pattern_4.png"" style=""width: 234px; height: 230px; margin-top: -50px;""><div style=""display: flex; justify-content: space-between; margin-top: 33px;""><img src=""images/choice_trial_15.png"" style=""width: 408px; height: 417px; margin-right: 200px;""><img src=""images/choice_trial_9.png"" style=""width: 408px; height: 417px;""></div></div>",f,delaylearn,learning,trial,ZpYMmcQG7baF9p2JC6P048EAquu2,ZpYMmcQG7baF9p2JC6P048EAquu2,3.0,images/choice_trial_15.png,images/choice_trial_9.png,images/pattern_4.png,f,f,7000.0,15.0,9.0,3.0,0.0,22.0,1.0,1.0,15.0,130.0,,,,,,6012d4f3e68e2209e7e53679,17:06:40,27/03/2024
html-keyboard-response,117,224318,0.0-50.0-1.0,,"<div style=""display: flex; flex-direction: column; align-items: center; margin-top: -40px;""><img src=""images/pattern_4.png"" style=""width: 234px; height: 230px; margin-top: -50px;""><div style=""display: flex; justify-content: space-between; margin-top: 33px;""><img src=""images/choice_trial_15.png"" style=""width: 408px; height: 417px; margin-right: 608px;""></div></div>",,delaylearn,learning,display_response,ZpYMmcQG7baF9p2JC6P048EAquu2,ZpYMmcQG7baF9p2JC6P048EAquu2,,,,,,,,,,,,,,,,,chosen stimuli: images/choice_trial_15.png,,,,,6012d4f3e68e2209e7e53679,17:06:40,27/03/2024
html-keyboard-response,118,231322,0.0-50.0-2.0,,,,delaylearn,learning,feedback_duration_window,ZpYMmcQG7baF9p2JC6P048EAquu2,ZpYMmcQG7baF9p2JC6P048EAquu2,,,,,,,,,,,,,,,,,,7000.0,,,,6012d4f3e68e2209e7e53679,17:06:40,27/03/2024
html-keyboard-response,119,232837,0.0-50.0-3.0,,<div style='margin:auto;width: auto; font-size: 150%'><span style='font-weight: bold; font-size: 100px; color: green;'>+10 points!</span><br><br></div>,,delaylearn,learning,feedback_image_window,ZpYMmcQG7baF9p2JC6P048EAquu2,ZpYMmcQG7baF9p2JC6P048EAquu2,,,,,,,,,,,,,,,,,,,,,,6012d4f3e68e2209e7e53679,17:06:40,27/03/2024
html-keyboard-response,120,233349,0.0-51.0-0.0,,,,,,mood_trial_fixation,ZpYMmcQG7baF9p2JC6P048EAquu2,,,,,,,,,,,,,,,,,,,,,,,6012d4f3e68e2209e7e53679,17:06:40,27/03/2024
lmdlab-html-vas-response,121,236862,0.0-51.0-1.0,2487.0,How happy are you right now?,0.6524160454636541,delaylearn,learning,mood_trial,ZpYMmcQG7baF9p2JC6P048EAquu2,ZpYMmcQG7baF9p2JC6P048EAquu2,,,,,,,,,,,,,,,,,,,,"['Very unhappy', 'Very happy']",,6012d4f3e68e2209e7e53679,17:06:40,27/03/2024
html-keyboard-response,122,238508,0.0-52.0,,"<div style=""font-size:100px;"">+</div>",,delaylearn,learning,ITI,ZpYMmcQG7baF9p2JC6P048EAquu2,ZpYMmcQG7baF9p2JC6P048EAquu2,,,,,,,,,,,,,,,,,,,1632.0,,,6012d4f3e68e2209e7e53679,17:06:40,27/03/2024
html-keyboard-response,123,239683,0.0-53.0-0.0,1172.699999988079,"<div style=""display: flex; flex-direction: column; align-items: center; margin-top: -40px;""><img src=""images/pattern_7.png"" style=""width: 234px; height: 230px; margin-top: -50px;""><div style=""display: flex; justify-content: space-between; margin-top: 33px;""><img src=""images/choice_trial_12.png"" style=""width: 408px; height: 417px; margin-right: 200px;""><img src=""images/choice_trial_6.png"" style=""width: 408px; height: 417px;""></div></div>",f,delaylearn,learning,trial,ZpYMmcQG7baF9p2JC6P048EAquu2,ZpYMmcQG7baF9p2JC6P048EAquu2,3.0,images/choice_trial_12.png,images/choice_trial_6.png,images/pattern_7.png,j,j,750.0,12.0,6.0,6.0,1.0,23.0,0.0,0.0,12.0,130.0,,,,,,6012d4f3e68e2209e7e53679,17:06:40,27/03/2024
html-keyboard-response,124,240699,0.0-53.0-1.0,,"<div style=""display: flex; flex-direction: column; align-items: center; margin-top: -40px;""><img src=""images/pattern_7.png"" style=""width: 234px; height: 230px; margin-top: -50px;""><div style=""display: flex; justify-content: space-between; margin-top: 33px;""><img src=""images/choice_trial_12.png"" style=""width: 408px; height: 417px; margin-right: 608px;""></div></div>",,delaylearn,learning,display_response,ZpYMmcQG7baF9p2JC6P048EAquu2,ZpYMmcQG7baF9p2JC6P048EAquu2,,,,,,,,,,,,,,,,,chosen stimuli: images/choice_trial_12.png,,,,,6012d4f3e68e2209e7e53679,17:06:40,27/03/2024
html-keyboard-response,125,241462,0.0-53.0-2.0,,,,delaylearn,learning,feedback_duration_window,ZpYMmcQG7baF9p2JC6P048EAquu2,ZpYMmcQG7baF9p2JC6P048EAquu2,,,,,,,,,,,,,,,,,,750.0,,,,6012d4f3e68e2209e7e53679,17:06:40,27/03/2024
html-keyboard-response,126,242967,0.0-53.0-3.0,,<div style='margin:auto;width: auto; font-size: 150%'><span style='font-weight: bold; font-size: 100px; color: red;'>0 points!</span><br><br></div>,,delaylearn,learning,feedback_image_window,ZpYMmcQG7baF9p2JC6P048EAquu2,ZpYMmcQG7baF9p2JC6P048EAquu2,,,,,,,,,,,,,,,,,,,,,,6012d4f3e68e2209e7e53679,17:06:40,27/03/2024
html-keyboard-response,127,245473,0.0-54.0,,"<div style=""font-size:100px;"">+</div>",,delaylearn,learning,ITI,ZpYMmcQG7baF9p2JC6P048EAquu2,ZpYMmcQG7baF9p2JC6P048EAquu2,,,,,,,,,,,,,,,,,,,2498.0,,,6012d4f3e68e2209e7e53679,17:06:40,27/03/2024
html-keyboard-response,128,246467,0.0-55.0-0.0,989.5,"<div style=""display: flex; flex-direction: column; align-items: center; margin-top: -40px;""><img src=""images/pattern_1.png"" style=""width: 234px; height: 230px; margin-top: -50px;""><div style=""display: flex; justify-content: space-between; margin-top: 33px;""><img src=""images/choice_trial_8.png"" style=""width: 408px; height: 417px; margin-right: 200px;""><img src=""images/choice_trial_14.png"" style=""width: 408px; height: 417px;""></div></div>",j,delaylearn,learning,trial,ZpYMmcQG7baF9p2JC6P048EAquu2,ZpYMmcQG7baF9p2JC6P048EAquu2,3.0,images/choice_trial_8.png,images/choice_trial_14.png,images/pattern_1.png,f,j,7000.0,8.0,14.0,1.0,1.0,24.0,1.0,0.0,14.0,130.0,,,,,,6012d4f3e68e2209e7e53679,17:06:40,27/03/2024
html-keyboard-response,129,247477,0.0-55.0-1.0,,"<div style=""display: flex; flex-direction: column; align-items: center; margin-top: -40px;""><img src=""images/pattern_1.png"" style=""width: 234px; height: 230px; margin-top: -50px;""><div style=""display: flex; justify-content: space-between; margin-top: 33px;""><img src=""images/choice_trial_14.png"" style=""width: 408px; height: 417px; margin-left:608px;""></div></div>",,delaylearn,learning,display_response,ZpYMmcQG7baF9p2JC6P048EAquu2,ZpYMmcQG7baF9p2JC6P048EAquu2,,,,,,,,,,,,,,,,,chosen stimuli: images/choice_trial_14.png,,,,,6012d4f3e68e2209e7e53679,17:06:40,27/03/2024
html-keyboard-response,130,254482,0.0-55.0-2.0,,,,delaylearn,learning,feedback_duration_window,ZpYMmcQG7baF9p2JC6P048EAquu2,ZpYMmcQG7baF9p2JC6P048EAquu2,,,,,,,,,,,,,,,,,,7000.0,,,,6012d4f3e68e2209e7e53679,17:06:40,27/03/2024
html-keyboard-response,131,255989,0.0-55.0-3.0,,<div style='margin:auto;width: auto; font-size: 150%'><span style='font-weight: bold; font-size: 100px; color: red;'>0 points!</span><br><br></div>,,delaylearn,learning,feedback_image_window,ZpYMmcQG7baF9p2JC6P048EAquu2,ZpYMmcQG7baF9p2JC6P048EAquu2,,,,,,,,,,,,,,,,,,,,,,6012d4f3e68e2209e7e53679,17:06:40,27/03/2024
html-keyboard-response,132,258122,0.0-56.0,,"<div style=""font-size:100px;"">+</div>",,delaylearn,learning,ITI,ZpYMmcQG7baF9p2JC6P048EAquu2,ZpYMmcQG7baF9p2JC6P048EAquu2,,,,,,,,,,,,,,,,,,,2119.0,,,6012d4f3e68e2209e7e53679,17:06:40,27/03/2024
html-keyboard-response,133,259443,0.0-57.0-0.0,1318.199999988079,"<div style=""display: flex; flex-direction: column; align-items: center; margin-top: -40px;""><img src=""images/pattern_5.png"" style=""width: 234px; height: 230px; margin-top: -50px;""><div style=""display: flex; justify-content: space-between; margin-top: 33px;""><img src=""images/choice_trial_2.png"" style=""width: 408px; height: 417px; margin-right: 200px;""><img src=""images/choice_trial_11.png"" style=""width: 408px; height: 417px;""></div></div>",j,delaylearn,learning,trial,ZpYMmcQG7baF9p2JC6P048EAquu2,ZpYMmcQG7baF9p2JC6P048EAquu2,3.0,images/choice_trial_2.png,images/choice_trial_11.png,images/pattern_5.png,j,j,750.0,2.0,11.0,4.0,1.0,25.0,1.0,1.0,11.0,140.0,,,,,,6012d4f3e68e2209e7e53679,17:06:40,27/03/2024
html-keyboard-response,134,260450,0.0-57.0-1.0,,"<div style=""display: flex; flex-direction: column; align-items: center; margin-top: -40px;""><img src=""images/pattern_5.png"" style=""width: 234px; height: 230px; margin-top: -50px;""><div style=""display: flex; justify-content: space-between; margin-top: 33px;""><img src=""images/choice_trial_11.png"" style=""width: 408px; height: 417px; margin-left:608px;""></div></div>",,delaylearn,learning,display_response,ZpYMmcQG7baF9p2JC6P048EAquu2,ZpYMmcQG7baF9p2JC6P048EAquu2,,,,,,,,,,,,,,,,,chosen stimuli: images/choice_trial_11.png,,,,,6012d4f3e68e2209e7e53679,17:06:40,27/03/2024
html-keyboard-response,135,261214,0.0-57.0-2.0,,,,delaylearn,learning,feedback_duration_window,ZpYMmcQG7baF9p2JC6P048EAquu2,ZpYMmcQG7baF9p2JC6P048EAquu2,,,,,,,,,,,,,,,,,,750.0,,,,6012d4f3e68e2209e7e53679,17:06:40,27/03/2024
html-keyboard-response,136,262721,0.0-57.0-3.0,,<div style='margin:auto;width: auto; font-size: 150%'><span style='font-weight: bold; font-size: 100px; color: green;'>+10 points!</span><br><br></div>,,delaylearn,learning,feedback_image_window,ZpYMmcQG7baF9p2JC6P048EAquu2,ZpYMmcQG7baF9p2JC6P048EAquu2,,,,,,,,,,,,,,,,,,,,,,6012d4f3e68e2209e7e53679,17:06:40,27/03/2024
html-keyboard-response,137,264355,0.0-58.0,,"<div style=""font-size:100px;"">+</div>",,delaylearn,learning,ITI,ZpYMmcQG7baF9p2JC6P048EAquu2,ZpYMmcQG7baF9p2JC6P048EAquu2,,,,,,,,,,,,,,,,,,,1622.0,,,6012d4f3e68e2209e7e53679,17:06:40,27/03/2024
html-keyboard-response,138,266037,0.0-59.0-0.0,1679.5,"<div style=""display: flex; flex-direction: column; align-items: center; margin-top: -40px;""><img src=""images/pattern_3.png"" style=""width: 234px; height: 230px; margin-top: -50px;""><div style=""display: flex; justify-content: space-between; margin-top: 33px;""><img src=""images/choice_trial_10.png"" style=""width: 408px; height: 417px; margin-right: 200px;""><img src=""images/choice_trial_13.png"" style=""width: 408px; height: 417px;""></div></div>",f,delaylearn,learning,trial,ZpYMmcQG7baF9p2JC6P048EAquu2,ZpYMmcQG7baF9p2JC6P048EAquu2,3.0,images/choice_trial_10.png,images/choice_trial_13.png,images/pattern_3.png,j,j,7000.0,10.0,13.0,2.0,1.0,26.0,0.0,0.0,10.0,140.0,,,,,,6012d4f3e68e2209e7e53679,17:06:40,27/03/2024
html-keyboard-response,139,267053,0.0-59.0-1.0,,"<div style=""display: flex; flex-direction: column; align-items: center; margin-top: -40px;""><img src=""images/pattern_3.png"" style=""width: 234px; height: 230px; margin-top: -50px;""><div style=""display: flex; justify-content: space-between; margin-top: 33px;""><img src=""images/choice_trial_10.png"" style=""width: 408px; height: 417px; margin-right: 608px;""></div></div>",,delaylearn,learning,display_response,ZpYMmcQG7baF9p2JC6P048EAquu2,ZpYMmcQG7baF9p2JC6P048EAquu2,,,,,,,,,,,,,,,,,chosen stimuli: images/choice_trial_10.png,,,,,6012d4f3e68e2209e7e53679,17:06:40,27/03/2024
html-keyboard-response,140,274069,0.0-59.0-2.0,,,,delaylearn,learning,feedback_duration_window,ZpYMmcQG7baF9p2JC6P048EAquu2,ZpYMmcQG7baF9p2JC6P048EAquu2,,,,,,,,,,,,,,,,,,7000.0,,,,6012d4f3e68e2209e7e53679,17:06:40,27/03/2024
html-keyboard-response,141,275587,0.0-59.0-3.0,,<div style='margin:auto;width: auto; font-size: 150%'><span style='font-weight: bold; font-size: 100px; color: red;'>0 points!</span><br><br></div>,,delaylearn,learning,feedback_image_window,ZpYMmcQG7baF9p2JC6P048EAquu2,ZpYMmcQG7baF9p2JC6P048EAquu2,,,,,,,,,,,,,,,,,,,,,,6012d4f3e68e2209e7e53679,17:06:40,27/03/2024
lmdlab-html-vas-response,142,279965,0.0-60.0-0.0,2856.0,*How <b><u>confident</u></b> are you feeling about your answers at this moment?*,0.36496908329296895,rewlearn,rate_confidence,,ZpYMmcQG7baF9p2JC6P048EAquu2,ZpYMmcQG7baF9p2JC6P048EAquu2,,,,,,,,,,,,,,,,,,,,"['No confidence', 'Complete confidence']",,6012d4f3e68e2209e7e53679,17:06:40,27/03/2024
lmdlab-rest-trial-limit,143,285679,0.0-60.0-1.0,4202.199999988079,"<div style=""font-size:40px;""><b>Please take a break!</b><br><br><br><br><p>Great work: you earned 140 points.<br><br><br><p>You have completed part(s) 1 of 5.<br><br><br><br>When you are ready to continue<br><br><br>please click the button.</p><br><br>",0,delaylearn,learning,break,ZpYMmcQG7baF9p2JC6P048EAquu2,ZpYMmcQG7baF9p2JC6P048EAquu2,,,,,,,,,,,,,,,,,,,,,0.0,6012d4f3e68e2209e7e53679,17:06:40,27/03/2024
html-keyboard-response,144,288696,0.0-60.0-2.0,,"<div style=""font-size:100px;"">+</div>",,delaylearn,learning,pre_fixation,ZpYMmcQG7baF9p2JC6P048EAquu2,,,,,,,,,,,,,,,,,,,,,,,6012d4f3e68e2209e7e53679,17:06:40,27/03/2024
lmdlab-html-vas-response,145,293156,0.0-60.0-3.0-0.0,3443.0,How happy are you right now?,0.575255555270369,delaylearn,learning,mood_baseline,ZpYMmcQG7baF9p2JC6P048EAquu2,ZpYMmcQG7baF9p2JC6P048EAquu2,,,,,,,,,,,,,,,,,,,,"['Very unhappy', 'Very happy']",,6012d4f3e68e2209e7e53679,17:06:40,27/03/2024
html-keyboard-response,146,294663,0.0-60.0-3.0-1.0,,,,,,mood_baseline_fixation,ZpYMmcQG7baF9p2JC6P048EAquu2,,,,,,,,,,,,,,,,,,,,,,,6012d4f3e68e2209e7e53679,17:06:40,27/03/2024
html-keyboard-response,147,296918,0.0-61.0,,"<div style=""font-size:100px;"">+</div>",,delaylearn,learning,ITI,ZpYMmcQG7baF9p2JC6P048EAquu2,ZpYMmcQG7baF9p2JC6P048EAquu2,,,,,,,,,,,,,,,,,,,2238.0,,,6012d4f3e68e2209e7e53679,17:06:40,27/03/2024
html-keyboard-response,148,298798,0.0-62.0-0.0,1876.9000000357628,"<div style=""display: flex; flex-direction: column; align-items: center; margin-top: -40px;""><img src=""images/pattern_7.png"" style=""width: 234px; height: 230px; margin-top: -50px;""><div style=""display: flex; justify-content: space-between; margin-top: 33px;""><img src=""images/choice_trial_12.png"" style=""width: 408px; height: 417px; margin-right: 200px;""><img src=""images/choice_trial_6.png"" style=""width: 408px; height: 417px;""></div></div>",f,delaylearn,learning,trial,ZpYMmcQG7baF9p2JC6P048EAquu2,ZpYMmcQG7baF9p2JC6P048EAquu2,3.0,images/choice_trial_12.png,images/choice_trial_6.png,images/pattern_7.png,j,j,750.0,12.0,6.0,6.0,1.0,27.0,0.0,0.0,12.0,140.0,,,,,,6012d4f3e68e2209e7e53679,17:06:40,27/03/2024
html-keyboard-response,149,299810,0.0-62.0-1.0,,"<div style=""display: flex; flex-direction: column; align-items: center; margin-top: -40px;""><img src=""images/pattern_7.png"" style=""width: 234px; height: 230px; margin-top: -50px;""><div style=""display: flex; justify-content: space-between; margin-top: 33px;""><img src=""images/choice_trial_12.png"" style=""width: 408px; height: 417px; margin-right: 608px;""></div></div>",,delaylearn,learning,display_response,ZpYMmcQG7baF9p2JC6P048EAquu2,ZpYMmcQG7baF9p2JC6P048EAquu2,,,,,,,,,,,,,,,,,chosen stimuli: images/choice_trial_12.png,,,,,6012d4f3e68e2209e7e53679,17:06:40,27/03/2024
html-keyboard-response,150,300569,0.0-62.0-2.0,,,,delaylearn,learning,feedback_duration_window,ZpYMmcQG7baF9p2JC6P048EAquu2,ZpYMmcQG7baF9p2JC6P048EAquu2,,,,,,,,,,,,,,,,,,750.0,,,,6012d4f3e68e2209e7e53679,17:06:40,27/03/2024
html-keyboard-response,151,302078,0.0-62.0-3.0,,<div style='margin:auto;width: auto; font-size: 150%'><span style='font-weight: bold; font-size: 100px; color: red;'>0 points!</span><br><br></div>,,delaylearn,learning,feedback_image_window,ZpYMmcQG7baF9p2JC6P048EAquu2,ZpYMmcQG7baF9p2JC6P048EAquu2,,,,,,,,,,,,,,,,,,,,,,6012d4f3e68e2209e7e53679,17:06:40,27/03/2024
html-keyboard-response,152,302593,0.0-63.0-0.0,,,,,,mood_trial_fixation,ZpYMmcQG7baF9p2JC6P048EAquu2,,,,,,,,,,,,,,,,,,,,,,,6012d4f3e68e2209e7e53679,17:06:40,27/03/2024
lmdlab-html-vas-response,153,306835,0.0-63.0-1.0,3222.0,How happy are you right now?,0.5077401263512445,delaylearn,learning,mood_trial,ZpYMmcQG7baF9p2JC6P048EAquu2,ZpYMmcQG7baF9p2JC6P048EAquu2,,,,,,,,,,,,,,,,,,,,"['Very unhappy', 'Very happy']",,6012d4f3e68e2209e7e53679,17:06:40,27/03/2024
html-keyboard-response,154,309061,0.0-64.0,,"<div style=""font-size:100px;"">+</div>",,delaylearn,learning,ITI,ZpYMmcQG7baF9p2JC6P048EAquu2,ZpYMmcQG7baF9p2JC6P048EAquu2,,,,,,,,,,,,,,,,,,,2211.0,,,6012d4f3e68e2209e7e53679,17:06:40,27/03/2024
html-keyboard-response,155,310700,0.0-65.0-0.0,1634.3999999761581,"<div style=""display: flex; flex-direction: column; align-items: center; margin-top: -40px;""><img src=""images/pattern_1.png"" style=""width: 234px; height: 230px; margin-top: -50px;""><div style=""display: flex; justify-content: space-between; margin-top: 33px;""><img src=""images/choice_trial_14.png"" style=""width: 408px; height: 417px; margin-right: 200px;""><img src=""images/choice_trial_8.png"" style=""width: 408px; height: 417px;""></div></div>",f,delaylearn,learning,trial,ZpYMmcQG7baF9p2JC6P048EAquu2,ZpYMmcQG7baF9p2JC6P048EAquu2,3.0,images/choice_trial_14.png,images/choice_trial_8.png,images/pattern_1.png,f,f,7000.0,14.0,8.0,1.0,0.0,28.0,1.0,1.0,14.0,150.0,,,,,,6012d4f3e68e2209e7e53679,17:06:40,27/03/2024
html-keyboard-response,156,311714,0.0-65.0-1.0,,"<div style=""display: flex; flex-direction: column; align-items: center; margin-top: -40px;""><img src=""images/pattern_1.png"" style=""width: 234px; height: 230px; margin-top: -50px;""><div style=""display: flex; justify-content: space-between; margin-top: 33px;""><img src=""images/choice_trial_14.png"" style=""width: 408px; height: 417px; margin-right: 608px;""></div></div>",,delaylearn,learning,display_response,ZpYMmcQG7baF9p2JC6P048EAquu2,ZpYMmcQG7baF9p2JC6P048EAquu2,,,,,,,,,,,,,,,,,chosen stimuli: images/choice_trial_14.png,,,,,6012d4f3e68e2209e7e53679,17:06:40,27/03/2024
html-keyboard-response,157,318715,0.0-65.0-2.0,,,,delaylearn,learning,feedback_duration_window,ZpYMmcQG7baF9p2JC6P048EAquu2,ZpYMmcQG7baF9p2JC6P048EAquu2,,,,,,,,,,,,,,,,,,7000.0,,,,6012d4f3e68e2209e7e53679,17:06:40,27/03/2024
html-keyboard-response,158,320229,0.0-65.0-3.0,,<div style='margin:auto;width: auto; font-size: 150%'><span style='font-weight: bold; font-size: 100px; color: green;'>+10 points!</span><br><br></div>,,delaylearn,learning,feedback_image_window,ZpYMmcQG7baF9p2JC6P048EAquu2,ZpYMmcQG7baF9p2JC6P048EAquu2,,,,,,,,,,,,,,,,,,,,,,6012d4f3e68e2209e7e53679,17:06:40,27/03/2024
html-keyboard-response,159,322381,0.0-66.0,,"<div style=""font-size:100px;"">+</div>",,delaylearn,learning,ITI,ZpYMmcQG7baF9p2JC6P048EAquu2,ZpYMmcQG7baF9p2JC6P048EAquu2,,,,,,,,,,,,,,,,,,,2139.0,,,6012d4f3e68e2209e7e53679,17:06:40,27/03/2024
html-keyboard-response,160,322758,0.0-67.0-0.0,373.4000000357628,"<div style=""display: flex; flex-direction: column; align-items: center; margin-top: -40px;""><img src=""images/pattern_5.png"" style=""width: 234px; height: 230px; margin-top: -50px;""><div style=""display: flex; justify-content: space-between; margin-top: 33px;""><img src=""images/choice_trial_11.png"" style=""width: 408px; height: 417px; margin-right: 200px;""><img src=""images/choice_trial_2.png"" style=""width: 408px; height: 417px;""></div></div>",f,delaylearn,learning,trial,ZpYMmcQG7baF9p2JC6P048EAquu2,ZpYMmcQG7baF9p2JC6P048EAquu2,3.0,images/choice_trial_11.png,images/choice_trial_2.png,images/pattern_5.png,f,f,750.0,11.0,2.0,4.0,0.0,29.0,1.0,1.0,11.0,160.0,,,,,,6012d4f3e68e2209e7e53679,17:06:40,27/03/2024
html-keyboard-response,161,323765,0.0-67.0-1.0,,"<div style=""display: flex; flex-direction: column; align-items: center; margin-top: -40px;""><img src=""images/pattern_5.png"" style=""width: 234px; height: 230px; margin-top: -50px;""><div style=""display: flex; justify-content: space-between; margin-top: 33px;""><img src=""images/choice_trial_11.png"" style=""width: 408px; height: 417px; margin-right: 608px;""></div></div>",,delaylearn,learning,display_response,ZpYMmcQG7baF9p2JC6P048EAquu2,ZpYMmcQG7baF9p2JC6P048EAquu2,,,,,,,,,,,,,,,,,chosen stimuli: images/choice_trial_11.png,,,,,6012d4f3e68e2209e7e53679,17:06:40,27/03/2024
html-keyboard-response,162,324528,0.0-67.0-2.0,,,,delaylearn,learning,feedback_duration_window,ZpYMmcQG7baF9p2JC6P048EAquu2,ZpYMmcQG7baF9p2JC6P048EAquu2,,,,,,,,,,,,,,,,,,750.0,,,,6012d4f3e68e2209e7e53679,17:06:40,27/03/2024
html-keyboard-response,163,326040,0.0-67.0-3.0,,<div style='margin:auto;width: auto; font-size: 150%'><span style='font-weight: bold; font-size: 100px; color: green;'>+10 points!</span><br><br></div>,,delaylearn,learning,feedback_image_window,ZpYMmcQG7baF9p2JC6P048EAquu2,ZpYMmcQG7baF9p2JC6P048EAquu2,,,,,,,,,,,,,,,,,,,,,,6012d4f3e68e2209e7e53679,17:06:40,27/03/2024
html-keyboard-response,164,327751,0.0-68.0,,"<div style=""font-size:100px;"">+</div>",,delaylearn,learning,ITI,ZpYMmcQG7baF9p2JC6P048EAquu2,ZpYMmcQG7baF9p2JC6P048EAquu2,,,,,,,,,,,,,,,,,,,1698.0,,,6012d4f3e68e2209e7e53679,17:06:40,27/03/2024
html-keyboard-response,165,329140,0.0-69.0-0.0,1384.6000000238419,"<div style=""display: flex; flex-direction: column; align-items: center; margin-top: -40px;""><img src=""images/pattern_6.png"" style=""width: 234px; height: 230px; margin-top: -50px;""><div style=""display: flex; justify-content: space-between; margin-top: 33px;""><img src=""images/choice_trial_3.png"" style=""width: 408px; height: 417px; margin-right: 200px;""><img src=""images/choice_trial_16.png"" style=""width: 408px; height: 417px;""></div></div>",j,delaylearn,learning,trial,ZpYMmcQG7baF9p2JC6P048EAquu2,ZpYMmcQG7baF9p2JC6P048EAquu2,3.0,images/choice_trial_3.png,images/choice_trial_16.png,images/pattern_6.png,j,j,750.0,3.0,16.0,5.0,1.0,30.0,1.0,1.0,16.0,170.0,,,,,,6012d4f3e68e2209e7e53679,17:06:40,27/03/2024
html-keyboard-response,166,330147,0.0-69.0-1.0,,"<div style=""display: flex; flex-direction: column; align-items: center; margin-top: -40px;""><img src=""images/pattern_6.png"" style=""width: 234px; height: 230px; margin-top: -50px;""><div style=""display: flex; justify-content: space-between; margin-top: 33px;""><img src=""images/choice_trial_16.png"" style=""width: 408px; height: 417px; margin-left:608px;""></div></div>",,delaylearn,learning,display_response,ZpYMmcQG7baF9p2JC6P048EAquu2,ZpYMmcQG7baF9p2JC6P048EAquu2,,,,,,,,,,,,,,,,,chosen stimuli: images/choice_trial_16.png,,,,,6012d4f3e68e2209e7e53679,17:06:40,27/03/2024
html-keyboard-response,167,330908,0.0-69.0-2.0,,,,delaylearn,learning,feedback_duration_window,ZpYMmcQG7baF9p2JC6P048EAquu2,ZpYMmcQG7baF9p2JC6P048EAquu2,,,,,,,,,,,,,,,,,,750.0,,,,6012d4f3e68e2209e7e53679,17:06:40,27/03/2024
html-keyboard-response,168,332415,0.0-69.0-3.0,,<div style='margin:auto;width: auto; font-size: 150%'><span style='font-weight: bold; font-size: 100px; color: green;'>+10 points!</span><br><br></div>,,delaylearn,learning,feedback_image_window,ZpYMmcQG7baF9p2JC6P048EAquu2,ZpYMmcQG7baF9p2JC6P048EAquu2,,,,,,,,,,,,,,,,,,,,,,6012d4f3e68e2209e7e53679,17:06:40,27/03/2024
html-keyboard-response,169,332932,0.0-70.0-0.0,,,,,,mood_trial_fixation,ZpYMmcQG7baF9p2JC6P048EAquu2,,,,,,,,,,,,,,,,,,,,,,,6012d4f3e68e2209e7e53679,17:06:40,27/03/2024
lmdlab-html-vas-response,170,336885,0.0-70.0-1.0,2931.0,How happy are you right now?,0.6620611067378147,delaylearn,learning,mood_trial,ZpYMmcQG7baF9p2JC6P048EAquu2,ZpYMmcQG7baF9p2JC6P048EAquu2,,,,,,,,,,,,,,,,,,,,"['Very unhappy', 'Very happy']",,6012d4f3e68e2209e7e53679,17:06:40,27/03/2024
html-keyboard-response,171,338792,0.0-71.0,,"<div style=""font-size:100px;"">+</div>",,delaylearn,learning,ITI,ZpYMmcQG7baF9p2JC6P048EAquu2,ZpYMmcQG7baF9p2JC6P048EAquu2,,,,,,,,,,,,,,,,,,,1894.0,,,6012d4f3e68e2209e7e53679,17:06:40,27/03/2024
html-keyboard-response,172,339805,0.0-72.0-0.0,1009.3999999761581,"<div style=""display: flex; flex-direction: column; align-items: center; margin-top: -40px;""><img src=""images/pattern_4.png"" style=""width: 234px; height: 230px; margin-top: -50px;""><div style=""display: flex; justify-content: space-between; margin-top: 33px;""><img src=""images/choice_trial_9.png"" style=""width: 408px; height: 417px; margin-right: 200px;""><img src=""images/choice_trial_15.png"" style=""width: 408px; height: 417px;""></div></div>",j,delaylearn,learning,trial,ZpYMmcQG7baF9p2JC6P048EAquu2,ZpYMmcQG7baF9p2JC6P048EAquu2,3.0,images/choice_trial_9.png,images/choice_trial_15.png,images/pattern_4.png,j,j,7000.0,9.0,15.0,3.0,1.0,31.0,1.0,1.0,15.0,180.0,,,,,,6012d4f3e68e2209e7e53679,17:06:40,27/03/2024
html-keyboard-response,173,340814,0.0-72.0-1.0,,"<div style=""display: flex; flex-direction: column; align-items: center; margin-top: -40px;""><img src=""images/pattern_4.png"" style=""width: 234px; height: 230px; margin-top: -50px;""><div style=""display: flex; justify-content: space-between; margin-top: 33px;""><img src=""images/choice_trial_15.png"" style=""width: 408px; height: 417px; margin-left:608px;""></div></div>",,delaylearn,learning,display_response,ZpYMmcQG7baF9p2JC6P048EAquu2,ZpYMmcQG7baF9p2JC6P048EAquu2,,,,,,,,,,,,,,,,,chosen stimuli: images/choice_trial_15.png,,,,,6012d4f3e68e2209e7e53679,17:06:40,27/03/2024
html-keyboard-response,174,347830,0.0-72.0-2.0,,,,delaylearn,learning,feedback_duration_window,ZpYMmcQG7baF9p2JC6P048EAquu2,ZpYMmcQG7baF9p2JC6P048EAquu2,,,,,,,,,,,,,,,,,,7000.0,,,,6012d4f3e68e2209e7e53679,17:06:40,27/03/2024
html-keyboard-response,175,349341,0.0-72.0-3.0,,<div style='margin:auto;width: auto; font-size: 150%'><span style='font-weight: bold; font-size: 100px; color: green;'>+10 points!</span><br><br></div>,,delaylearn,learning,feedback_image_window,ZpYMmcQG7baF9p2JC6P048EAquu2,ZpYMmcQG7baF9p2JC6P048EAquu2,,,,,,,,,,,,,,,,,,,,,,6012d4f3e68e2209e7e53679,17:06:40,27/03/2024
html-keyboard-response,176,351164,0.0-73.0,,"<div style=""font-size:100px;"">+</div>",,delaylearn,learning,ITI,ZpYMmcQG7baF9p2JC6P048EAquu2,ZpYMmcQG7baF9p2JC6P048EAquu2,,,,,,,,,,,,,,,,,,,1807.0,,,6012d4f3e68e2209e7e53679,17:06:40,27/03/2024
html-keyboard-response,177,352635,0.0-74.0-0.0,1467.800000011921,"<div style=""display: flex; flex-direction: column; align-items: center; margin-top: -40px;""><img src=""images/pattern_3.png"" style=""width: 234px; height: 230px; margin-top: -50px;""><div style=""display: flex; justify-content: space-between; margin-top: 33px;""><img src=""images/choice_trial_10.png"" style=""width: 408px; height: 417px; margin-right: 200px;""><img src=""images/choice_trial_13.png"" style=""width: 408px; height: 417px;""></div></div>",f,delaylearn,learning,trial,ZpYMmcQG7baF9p2JC6P048EAquu2,ZpYMmcQG7baF9p2JC6P048EAquu2,3.0,images/choice_trial_10.png,images/choice_trial_13.png,images/pattern_3.png,j,j,7000.0,10.0,13.0,2.0,1.0,32.0,0.0,0.0,10.0,180.0,,,,,,6012d4f3e68e2209e7e53679,17:06:40,27/03/2024
html-keyboard-response,178,353646,0.0-74.0-1.0,,"<div style=""display: flex; flex-direction: column; align-items: center; margin-top: -40px;""><img src=""images/pattern_3.png"" style=""width: 234px; height: 230px; margin-top: -50px;""><div style=""display: flex; justify-content: space-between; margin-top: 33px;""><img src=""images/choice_trial_10.png"" style=""width: 408px; height: 417px; margin-right: 608px;""></div></div>",,delaylearn,learning,display_response,ZpYMmcQG7baF9p2JC6P048EAquu2,ZpYMmcQG7baF9p2JC6P048EAquu2,,,,,,,,,,,,,,,,,chosen stimuli: images/choice_trial_10.png,,,,,6012d4f3e68e2209e7e53679,17:06:40,27/03/2024
html-keyboard-response,179,360649,0.0-74.0-2.0,,,,delaylearn,learning,feedback_duration_window,ZpYMmcQG7baF9p2JC6P048EAquu2,ZpYMmcQG7baF9p2JC6P048EAquu2,,,,,,,,,,,,,,,,,,7000.0,,,,6012d4f3e68e2209e7e53679,17:06:40,27/03/2024
html-keyboard-response,180,362164,0.0-74.0-3.0,,<div style='margin:auto;width: auto; font-size: 150%'><span style='font-weight: bold; font-size: 100px; color: red;'>0 points!</span><br><br></div>,,delaylearn,learning,feedback_image_window,ZpYMmcQG7baF9p2JC6P048EAquu2,ZpYMmcQG7baF9p2JC6P048EAquu2,,,,,,,,,,,,,,,,,,,,,,6012d4f3e68e2209e7e53679,17:06:40,27/03/2024
html-keyboard-response,181,364357,0.0-75.0,,"<div style=""font-size:100px;"">+</div>",,delaylearn,learning,ITI,ZpYMmcQG7baF9p2JC6P048EAquu2,ZpYMmcQG7baF9p2JC6P048EAquu2,,,,,,,,,,,,,,,,,,,2188.0,,,6012d4f3e68e2209e7e53679,17:06:40,27/03/2024
html-keyboard-response,182,365821,0.0-76.0-0.0,1461.300000011921,"<div style=""display: flex; flex-direction: column; align-items: center; margin-top: -40px;""><img src=""images/pattern_5.png"" style=""width: 234px; height: 230px; margin-top: -50px;""><div style=""display: flex; justify-content: space-between; margin-top: 33px;""><img src=""images/choice_trial_11.png"" style=""width: 408px; height: 417px; margin-right: 200px;""><img src=""images/choice_trial_2.png"" style=""width: 408px; height: 417px;""></div></div>",f,delaylearn,learning,trial,ZpYMmcQG7baF9p2JC6P048EAquu2,ZpYMmcQG7baF9p2JC6P048EAquu2,3.0,images/choice_trial_11.png,images/choice_trial_2.png,images/pattern_5.png,j,f,750.0,11.0,2.0,4.0,0.0,33.0,1.0,0.0,11.0,180.0,,,,,,6012d4f3e68e2209e7e53679,17:06:40,27/03/2024
html-keyboard-response,183,366835,0.0-76.0-1.0,,"<div style=""display: flex; flex-direction: column; align-items: center; margin-top: -40px;""><img src=""images/pattern_5.png"" style=""width: 234px; height: 230px; margin-top: -50px;""><div style=""display: flex; justify-content: space-between; margin-top: 33px;""><img src=""images/choice_trial_11.png"" style=""width: 408px; height: 417px; margin-right: 608px;""></div></div>",,delaylearn,learning,display_response,ZpYMmcQG7baF9p2JC6P048EAquu2,ZpYMmcQG7baF9p2JC6P048EAquu2,,,,,,,,,,,,,,,,,chosen stimuli: images/choice_trial_11.png,,,,,6012d4f3e68e2209e7e53679,17:06:40,27/03/2024
html-keyboard-response,184,367596,0.0-76.0-2.0,,,,delaylearn,learning,feedback_duration_window,ZpYMmcQG7baF9p2JC6P048EAquu2,ZpYMmcQG7baF9p2JC6P048EAquu2,,,,,,,,,,,,,,,,,,750.0,,,,6012d4f3e68e2209e7e53679,17:06:40,27/03/2024
html-keyboard-response,185,369109,0.0-76.0-3.0,,<div style='margin:auto;width: auto; font-size: 150%'><span style='font-weight: bold; font-size: 100px; color: red;'>0 points!</span><br><br></div>,,delaylearn,learning,feedback_image_window,ZpYMmcQG7baF9p2JC6P048EAquu2,ZpYMmcQG7baF9p2JC6P048EAquu2,,,,,,,,,,,,,,,,,,,,,,6012d4f3e68e2209e7e53679,17:06:40,27/03/2024
html-keyboard-response,186,370980,0.0-77.0,,"<div style=""font-size:100px;"">+</div>",,delaylearn,learning,ITI,ZpYMmcQG7baF9p2JC6P048EAquu2,ZpYMmcQG7baF9p2JC6P048EAquu2,,,,,,,,,,,,,,,,,,,1865.0,,,6012d4f3e68e2209e7e53679,17:06:40,27/03/2024
html-keyboard-response,187,371930,0.0-78.0-0.0,947.0,"<div style=""display: flex; flex-direction: column; align-items: center; margin-top: -40px;""><img src=""images/pattern_1.png"" style=""width: 234px; height: 230px; margin-top: -50px;""><div style=""display: flex; justify-content: space-between; margin-top: 33px;""><img src=""images/choice_trial_14.png"" style=""width: 408px; height: 417px; margin-right: 200px;""><img src=""images/choice_trial_8.png"" style=""width: 408px; height: 417px;""></div></div>",f,delaylearn,learning,trial,ZpYMmcQG7baF9p2JC6P048EAquu2,ZpYMmcQG7baF9p2JC6P048EAquu2,3.0,images/choice_trial_14.png,images/choice_trial_8.png,images/pattern_1.png,f,f,7000.0,14.0,8.0,1.0,0.0,34.0,1.0,1.0,14.0,190.0,,,,,,6012d4f3e68e2209e7e53679,17:06:40,27/03/2024
html-keyboard-response,188,372942,0.0-78.0-1.0,,"<div style=""display: flex; flex-direction: column; align-items: center; margin-top: -40px;""><img src=""images/pattern_1.png"" style=""width: 234px; height: 230px; margin-top: -50px;""><div style=""display: flex; justify-content: space-between; margin-top: 33px;""><img src=""images/choice_trial_14.png"" style=""width: 408px; height: 417px; margin-right: 608px;""></div></div>",,delaylearn,learning,display_response,ZpYMmcQG7baF9p2JC6P048EAquu2,ZpYMmcQG7baF9p2JC6P048EAquu2,,,,,,,,,,,,,,,,,chosen stimuli: images/choice_trial_14.png,,,,,6012d4f3e68e2209e7e53679,17:06:40,27/03/2024
html-keyboard-response,189,379958,0.0-78.0-2.0,,,,delaylearn,learning,feedback_duration_window,ZpYMmcQG7baF9p2JC6P048EAquu2,ZpYMmcQG7baF9p2JC6P048EAquu2,,,,,,,,,,,,,,,,,,7000.0,,,,6012d4f3e68e2209e7e53679,17:06:40,27/03/2024
html-keyboard-response,190,381464,0.0-78.0-3.0,,<div style='margin:auto;width: auto; font-size: 150%'><span style='font-weight: bold; font-size: 100px; color: green;'>+10 points!</span><br><br></div>,,delaylearn,learning,feedback_image_window,ZpYMmcQG7baF9p2JC6P048EAquu2,ZpYMmcQG7baF9p2JC6P048EAquu2,,,,,,,,,,,,,,,,,,,,,,6012d4f3e68e2209e7e53679,17:06:40,27/03/2024
html-keyboard-response,191,381975,0.0-79.0-0.0,,,,,,mood_trial_fixation,ZpYMmcQG7baF9p2JC6P048EAquu2,,,,,,,,,,,,,,,,,,,,,,,6012d4f3e68e2209e7e53679,17:06:40,27/03/2024
lmdlab-html-vas-response,192,387171,0.0-79.0-1.0,4180.0,How happy are you right now?,0.4884500038029233,delaylearn,learning,mood_trial,ZpYMmcQG7baF9p2JC6P048EAquu2,ZpYMmcQG7baF9p2JC6P048EAquu2,,,,,,,,,,,,,,,,,,,,"['Very unhappy', 'Very happy']",,6012d4f3e68e2209e7e53679,17:06:40,27/03/2024
html-keyboard-response,193,389487,0.0-80.0,,"<div style=""font-size:100px;"">+</div>",,delaylearn,learning,ITI,ZpYMmcQG7baF9p2JC6P048EAquu2,ZpYMmcQG7baF9p2JC6P048EAquu2,,,,,,,,,,,,,,,,,,,2303.0,,,6012d4f3e68e2209e7e53679,17:06:40,27/03/2024
html-keyboard-response,194,390712,0.0-81.0-0.0,1222.2000000476837,"<div style=""display: flex; flex-direction: column; align-items: center; margin-top: -40px;""><img src=""images/pattern_6.png"" style=""width: 234px; height: 230px; margin-top: -50px;""><div style=""display: flex; justify-content: space-between; margin-top: 33px;""><img src=""images/choice_trial_16.png"" style=""width: 408px; height: 417px; margin-right: 200px;""><img src=""images/choice_trial_3.png"" style=""width: 408px; height: 417px;""></div></div>",f,delaylearn,learning,trial,ZpYMmcQG7baF9p2JC6P048EAquu2,ZpYMmcQG7baF9p2JC6P048EAquu2,3.0,images/choice_trial_16.png,images/choice_trial_3.png,images/pattern_6.png,j,f,750.0,16.0,3.0,5.0,0.0,35.0,1.0,0.0,16.0,190.0,,,,,,6012d4f3e68e2209e7e53679,17:06:40,27/03/2024
html-keyboard-response,195,391715,0.0-81.0-1.0,,"<div style=""display: flex; flex-direction: column; align-items: center; margin-top: -40px;""><img src=""images/pattern_6.png"" style=""width: 234px; height: 230px; margin-top: -50px;""><div style=""display: flex; justify-content: space-between; margin-top: 33px;""><img src=""images/choice_trial_16.png"" style=""width: 408px; height: 417px; margin-right: 608px;""></div></div>",,delaylearn,learning,display_response,ZpYMmcQG7baF9p2JC6P048EAquu2,ZpYMmcQG7baF9p2JC6P048EAquu2,,,,,,,,,,,,,,,,,chosen stimuli: images/choice_trial_16.png,,,,,6012d4f3e68e2209e7e53679,17:06:40,27/03/2024
html-keyboard-response,196,392479,0.0-81.0-2.0,,,,delaylearn,learning,feedback_duration_window,ZpYMmcQG7baF9p2JC6P048EAquu2,ZpYMmcQG7baF9p2JC6P048EAquu2,,,,,,,,,,,,,,,,,,750.0,,,,6012d4f3e68e2209e7e53679,17:06:40,27/03/2024
html-keyboard-response,197,393987,0.0-81.0-3.0,,<div style='margin:auto;width: auto; font-size: 150%'><span style='font-weight: bold; font-size: 100px; color: red;'>0 points!</span><br><br></div>,,delaylearn,learning,feedback_image_window,ZpYMmcQG7baF9p2JC6P048EAquu2,ZpYMmcQG7baF9p2JC6P048EAquu2,,,,,,,,,,,,,,,,,,,,,,6012d4f3e68e2209e7e53679,17:06:40,27/03/2024
html-keyboard-response,198,395731,0.0-82.0,,"<div style=""font-size:100px;"">+</div>",,delaylearn,learning,ITI,ZpYMmcQG7baF9p2JC6P048EAquu2,ZpYMmcQG7baF9p2JC6P048EAquu2,,,,,,,,,,,,,,,,,,,1736.0,,,6012d4f3e68e2209e7e53679,17:06:40,27/03/2024
html-keyboard-response,199,397431,0.0-83.0-0.0,1698.5,"<div style=""display: flex; flex-direction: column; align-items: center; margin-top: -40px;""><img src=""images/pattern_3.png"" style=""width: 234px; height: 230px; margin-top: -50px;""><div style=""display: flex; justify-content: space-between; margin-top: 33px;""><img src=""images/choice_trial_10.png"" style=""width: 408px; height: 417px; margin-right: 200px;""><img src=""images/choice_trial_13.png"" style=""width: 408px; height: 417px;""></div></div>",f,delaylearn,learning,trial,ZpYMmcQG7baF9p2JC6P048EAquu2,ZpYMmcQG7baF9p2JC6P048EAquu2,3.0,images/choice_trial_10.png,images/choice_trial_13.png,images/pattern_3.png,j,j,7000.0,10.0,13.0,2.0,1.0,36.0,0.0,0.0,10.0,190.0,,,,,,6012d4f3e68e2209e7e53679,17:06:40,27/03/2024
html-keyboard-response,200,398442,0.0-83.0-1.0,,"<div style=""display: flex; flex-direction: column; align-items: center; margin-top: -40px;""><img src=""images/pattern_3.png"" style=""width: 234px; height: 230px; margin-top: -50px;""><div style=""display: flex; justify-content: space-between; margin-top: 33px;""><img src=""images/choice_trial_10.png"" style=""width: 408px; height: 417px; margin-right: 608px;""></div></div>",,delaylearn,learning,display_response,ZpYMmcQG7baF9p2JC6P048EAquu2,ZpYMmcQG7baF9p2JC6P048EAquu2,,,,,,,,,,,,,,,,,chosen stimuli: images/choice_trial_10.png,,,,,6012d4f3e68e2209e7e53679,17:06:40,27/03/2024
html-keyboard-response,201,405446,0.0-83.0-2.0,,,,delaylearn,learning,feedback_duration_window,ZpYMmcQG7baF9p2JC6P048EAquu2,ZpYMmcQG7baF9p2JC6P048EAquu2,,,,,,,,,,,,,,,,,,7000.0,,,,6012d4f3e68e2209e7e53679,17:06:40,27/03/2024
html-keyboard-response,202,406960,0.0-83.0-3.0,,<div style='margin:auto;width: auto; font-size: 150%'><span style='font-weight: bold; font-size: 100px; color: red;'>0 points!</span><br><br></div>,,delaylearn,learning,feedback_image_window,ZpYMmcQG7baF9p2JC6P048EAquu2,ZpYMmcQG7baF9p2JC6P048EAquu2,,,,,,,,,,,,,,,,,,,,,,6012d4f3e68e2209e7e53679,17:06:40,27/03/2024
html-keyboard-response,203,408989,0.0-84.0,,"<div style=""font-size:100px;"">+</div>",,delaylearn,learning,ITI,ZpYMmcQG7baF9p2JC6P048EAquu2,ZpYMmcQG7baF9p2JC6P048EAquu2,,,,,,,,,,,,,,,,,,,2026.0,,,6012d4f3e68e2209e7e53679,17:06:40,27/03/2024
html-keyboard-response,204,410247,0.0-85.0-0.0,1254.8999999761581,"<div style=""display: flex; flex-direction: column; align-items: center; margin-top: -40px;""><img src=""images/pattern_4.png"" style=""width: 234px; height: 230px; margin-top: -50px;""><div style=""display: flex; justify-content: space-between; margin-top: 33px;""><img src=""images/choice_trial_9.png"" style=""width: 408px; height: 417px; margin-right: 200px;""><img src=""images/choice_trial_15.png"" style=""width: 408px; height: 417px;""></div></div>",f,delaylearn,learning,trial,ZpYMmcQG7baF9p2JC6P048EAquu2,ZpYMmcQG7baF9p2JC6P048EAquu2,3.0,images/choice_trial_9.png,images/choice_trial_15.png,images/pattern_4.png,f,j,7000.0,9.0,15.0,3.0,1.0,37.0,0.0,1.0,9.0,200.0,,,,,,6012d4f3e68e2209e7e53679,17:06:40,27/03/2024
html-keyboard-response,205,411261,0.0-85.0-1.0,,"<div style=""display: flex; flex-direction: column; align-items: center; margin-top: -40px;""><img src=""images/pattern_4.png"" style=""width: 234px; height: 230px; margin-top: -50px;""><div style=""display: flex; justify-content: space-between; margin-top: 33px;""><img src=""images/choice_trial_9.png"" style=""width: 408px; height: 417px; margin-right: 608px;""></div></div>",,delaylearn,learning,display_response,ZpYMmcQG7baF9p2JC6P048EAquu2,ZpYMmcQG7baF9p2JC6P048EAquu2,,,,,,,,,,,,,,,,,chosen stimuli: images/choice_trial_9.png,,,,,6012d4f3e68e2209e7e53679,17:06:40,27/03/2024
html-keyboard-response,206,418271,0.0-85.0-2.0,,,,delaylearn,learning,feedback_duration_window,ZpYMmcQG7baF9p2JC6P048EAquu2,ZpYMmcQG7baF9p2JC6P048EAquu2,,,,,,,,,,,,,,,,,,7000.0,,,,6012d4f3e68e2209e7e53679,17:06:40,27/03/2024
html-keyboard-response,207,419780,0.0-85.0-3.0,,<div style='margin:auto;width: auto; font-size: 150%'><span style='font-weight: bold; font-size: 100px; color: green;'>+10 points!</span><br><br></div>,,delaylearn,learning,feedback_image_window,ZpYMmcQG7baF9p2JC6P048EAquu2,ZpYMmcQG7baF9p2JC6P048EAquu2,,,,,,,,,,,,,,,,,,,,,,6012d4f3e68e2209e7e53679,17:06:40,27/03/2024
html-keyboard-response,208,421369,0.0-86.0,,"<div style=""font-size:100px;"">+</div>",,delaylearn,learning,ITI,ZpYMmcQG7baF9p2JC6P048EAquu2,ZpYMmcQG7baF9p2JC6P048EAquu2,,,,,,,,,,,,,,,,,,,1582.0,,,6012d4f3e68e2209e7e53679,17:06:40,27/03/2024
html-keyboard-response,209,422959,0.0-87.0-0.0,1586.300000011921,"<div style=""display: flex; flex-direction: column; align-items: center; margin-top: -40px;""><img src=""images/pattern_7.png"" style=""width: 234px; height: 230px; margin-top: -50px;""><div style=""display: flex; justify-content: space-between; margin-top: 33px;""><img src=""images/choice_trial_6.png"" style=""width: 408px; height: 417px; margin-right: 200px;""><img src=""images/choice_trial_12.png"" style=""width: 408px; height: 417px;""></div></div>",f,delaylearn,learning,trial,ZpYMmcQG7baF9p2JC6P048EAquu2,ZpYMmcQG7baF9p2JC6P048EAquu2,3.0,images/choice_trial_6.png,images/choice_trial_12.png,images/pattern_7.png,f,f,750.0,6.0,12.0,6.0,0.0,38.0,1.0,1.0,6.0,210.0,,,,,,6012d4f3e68e2209e7e53679,17:06:40,27/03/2024
html-keyboard-response,210,423971,0.0-87.0-1.0,,"<div style=""display: flex; flex-direction: column; align-items: center; margin-top: -40px;""><img src=""images/pattern_7.png"" style=""width: 234px; height: 230px; margin-top: -50px;""><div style=""display: flex; justify-content: space-between; margin-top: 33px;""><img src=""images/choice_trial_6.png"" style=""width: 408px; height: 417px; margin-right: 608px;""></div></div>",,delaylearn,learning,display_response,ZpYMmcQG7baF9p2JC6P048EAquu2,ZpYMmcQG7baF9p2JC6P048EAquu2,,,,,,,,,,,,,,,,,chosen stimuli: images/choice_trial_6.png,,,,,6012d4f3e68e2209e7e53679,17:06:40,27/03/2024
html-keyboard-response,211,424733,0.0-87.0-2.0,,,,delaylearn,learning,feedback_duration_window,ZpYMmcQG7baF9p2JC6P048EAquu2,ZpYMmcQG7baF9p2JC6P048EAquu2,,,,,,,,,,,,,,,,,,750.0,,,,6012d4f3e68e2209e7e53679,17:06:40,27/03/2024
html-keyboard-response,212,426246,0.0-87.0-3.0,,<div style='margin:auto;width: auto; font-size: 150%'><span style='font-weight: bold; font-size: 100px; color: green;'>+10 points!</span><br><br></div>,,delaylearn,learning,feedback_image_window,ZpYMmcQG7baF9p2JC6P048EAquu2,ZpYMmcQG7baF9p2JC6P048EAquu2,,,,,,,,,,,,,,,,,,,,,,6012d4f3e68e2209e7e53679,17:06:40,27/03/2024
html-keyboard-response,213,428686,0.0-88.0,,"<div style=""font-size:100px;"">+</div>",,delaylearn,learning,ITI,ZpYMmcQG7baF9p2JC6P048EAquu2,ZpYMmcQG7baF9p2JC6P048EAquu2,,,,,,,,,,,,,,,,,,,2433.0,,,6012d4f3e68e2209e7e53679,17:06:40,27/03/2024
html-keyboard-response,214,431159,0.0-89.0-0.0,2470.0,"<div style=""display: flex; flex-direction: column; align-items: center; margin-top: -40px;""><img src=""images/pattern_1.png"" style=""width: 234px; height: 230px; margin-top: -50px;""><div style=""display: flex; justify-content: space-between; margin-top: 33px;""><img src=""images/choice_trial_14.png"" style=""width: 408px; height: 417px; margin-right: 200px;""><img src=""images/choice_trial_8.png"" style=""width: 408px; height: 417px;""></div></div>",f,delaylearn,learning,trial,ZpYMmcQG7baF9p2JC6P048EAquu2,ZpYMmcQG7baF9p2JC6P048EAquu2,3.0,images/choice_trial_14.png,images/choice_trial_8.png,images/pattern_1.png,f,f,7000.0,14.0,8.0,1.0,0.0,39.0,1.0,1.0,14.0,220.0,,,,,,6012d4f3e68e2209e7e53679,17:06:40,27/03/2024
html-keyboard-response,215,432164,0.0-89.0-1.0,,"<div style=""display: flex; flex-direction: column; align-items: center; margin-top: -40px;""><img src=""images/pattern_1.png"" style=""width: 234px; height: 230px; margin-top: -50px;""><div style=""display: flex; justify-content: space-between; margin-top: 33px;""><img src=""images/choice_trial_14.png"" style=""width: 408px; height: 417px; margin-right: 608px;""></div></div>",,delaylearn,learning,display_response,ZpYMmcQG7baF9p2JC6P048EAquu2,ZpYMmcQG7baF9p2JC6P048EAquu2,,,,,,,,,,,,,,,,,chosen stimuli: images/choice_trial_14.png,,,,,6012d4f3e68e2209e7e53679,17:06:40,27/03/2024
html-keyboard-response,216,439167,0.0-89.0-2.0,,,,delaylearn,learning,feedback_duration_window,ZpYMmcQG7baF9p2JC6P048EAquu2,ZpYMmcQG7baF9p2JC6P048EAquu2,,,,,,,,,,,,,,,,,,7000.0,,,,6012d4f3e68e2209e7e53679,17:06:40,27/03/2024
html-keyboard-response,217,440676,0.0-89.0-3.0,,<div style='margin:auto;width: auto; font-size: 150%'><span style='font-weight: bold; font-size: 100px; color: green;'>+10 points!</span><br><br></div>,,delaylearn,learning,feedback_image_window,ZpYMmcQG7baF9p2JC6P048EAquu2,ZpYMmcQG7baF9p2JC6P048EAquu2,,,,,,,,,,,,,,,,,,,,,,6012d4f3e68e2209e7e53679,17:06:40,27/03/2024
html-keyboard-response,218,441191,0.0-90.0-0.0,,,,,,mood_trial_fixation,ZpYMmcQG7baF9p2JC6P048EAquu2,,,,,,,,,,,,,,,,,,,,,,,6012d4f3e68e2209e7e53679,17:06:40,27/03/2024
lmdlab-html-vas-response,219,444663,0.0-90.0-1.0,2452.0,How happy are you right now?,0.7257185111472748,delaylearn,learning,mood_trial,ZpYMmcQG7baF9p2JC6P048EAquu2,ZpYMmcQG7baF9p2JC6P048EAquu2,,,,,,,,,,,,,,,,,,,,"['Very unhappy', 'Very happy']",,6012d4f3e68e2209e7e53679,17:06:40,27/03/2024
html-keyboard-response,220,446521,0.0-91.0,,"<div style=""font-size:100px;"">+</div>",,delaylearn,learning,ITI,ZpYMmcQG7baF9p2JC6P048EAquu2,ZpYMmcQG7baF9p2JC6P048EAquu2,,,,,,,,,,,,,,,,,,,1850.0,,,6012d4f3e68e2209e7e53679,17:06:40,27/03/2024
html-keyboard-response,221,447838,0.0-92.0-0.0,1313.800000011921,"<div style=""display: flex; flex-direction: column; align-items: center; margin-top: -40px;""><img src=""images/pattern_3.png"" style=""width: 234px; height: 230px; margin-top: -50px;""><div style=""display: flex; justify-content: space-between; margin-top: 33px;""><img src=""images/choice_trial_13.png"" style=""width: 408px; height: 417px; margin-right: 200px;""><img src=""images/choice_trial_10.png"" style=""width: 408px; height: 417px;""></div></div>",f,delaylearn,learning,trial,ZpYMmcQG7baF9p2JC6P048EAquu2,ZpYMmcQG7baF9p2JC6P048EAquu2,3.0,images/choice_trial_13.png,images/choice_trial_10.png,images/pattern_3.png,j,f,7000.0,13.0,10.0,2.0,0.0,40.0,1.0,0.0,13.0,220.0,,,,,,6012d4f3e68e2209e7e53679,17:06:40,27/03/2024
html-keyboard-response,222,448854,0.0-92.0-1.0,,"<div style=""display: flex; flex-direction: column; align-items: center; margin-top: -40px;""><img src=""images/pattern_3.png"" style=""width: 234px; height: 230px; margin-top: -50px;""><div style=""display: flex; justify-content: space-between; margin-top: 33px;""><img src=""images/choice_trial_13.png"" style=""width: 408px; height: 417px; margin-right: 608px;""></div></div>",,delaylearn,learning,display_response,ZpYMmcQG7baF9p2JC6P048EAquu2,ZpYMmcQG7baF9p2JC6P048EAquu2,,,,,,,,,,,,,,,,,chosen stimuli: images/choice_trial_13.png,,,,,6012d4f3e68e2209e7e53679,17:06:40,27/03/2024
html-keyboard-response,223,455869,0.0-92.0-2.0,,,,delaylearn,learning,feedback_duration_window,ZpYMmcQG7baF9p2JC6P048EAquu2,ZpYMmcQG7baF9p2JC6P048EAquu2,,,,,,,,,,,,,,,,,,7000.0,,,,6012d4f3e68e2209e7e53679,17:06:40,27/03/2024
html-keyboard-response,224,457382,0.0-92.0-3.0,,<div style='margin:auto;width: auto; font-size: 150%'><span style='font-weight: bold; font-size: 100px; color: red;'>0 points!</span><br><br></div>,,delaylearn,learning,feedback_image_window,ZpYMmcQG7baF9p2JC6P048EAquu2,ZpYMmcQG7baF9p2JC6P048EAquu2,,,,,,,,,,,,,,,,,,,,,,6012d4f3e68e2209e7e53679,17:06:40,27/03/2024
html-keyboard-response,225,459812,0.0-93.0,,"<div style=""font-size:100px;"">+</div>",,delaylearn,learning,ITI,ZpYMmcQG7baF9p2JC6P048EAquu2,ZpYMmcQG7baF9p2JC6P048EAquu2,,,,,,,,,,,,,,,,,,,2426.0,,,6012d4f3e68e2209e7e53679,17:06:40,27/03/2024
html-keyboard-response,226,460949,0.0-94.0-0.0,1133.2000000476837,"<div style=""display: flex; flex-direction: column; align-items: center; margin-top: -40px;""><img src=""images/pattern_7.png"" style=""width: 234px; height: 230px; margin-top: -50px;""><div style=""display: flex; justify-content: space-between; margin-top: 33px;""><img src=""images/choice_trial_12.png"" style=""width: 408px; height: 417px; margin-right: 200px;""><img src=""images/choice_trial_6.png"" style=""width: 408px; height: 417px;""></div></div>",j,delaylearn,learning,trial,ZpYMmcQG7baF9p2JC6P048EAquu2,ZpYMmcQG7baF9p2JC6P048EAquu2,3.0,images/choice_trial_12.png,images/choice_trial_6.png,images/pattern_7.png,j,j,750.0,12.0,6.0,6.0,1.0,41.0,1.0,1.0,6.0,230.0,,,,,,6012d4f3e68e2209e7e53679,17:06:40,27/03/2024
html-keyboard-response,227,461956,0.0-94.0-1.0,,"<div style=""display: flex; flex-direction: column; align-items: center; margin-top: -40px;""><img src=""images/pattern_7.png"" style=""width: 234px; height: 230px; margin-top: -50px;""><div style=""display: flex; justify-content: space-between; margin-top: 33px;""><img src=""images/choice_trial_6.png"" style=""width: 408px; height: 417px; margin-left:608px;""></div></div>",,delaylearn,learning,display_response,ZpYMmcQG7baF9p2JC6P048EAquu2,ZpYMmcQG7baF9p2JC6P048EAquu2,,,,,,,,,,,,,,,,,chosen stimuli: images/choice_trial_6.png,,,,,6012d4f3e68e2209e7e53679,17:06:40,27/03/2024
html-keyboard-response,228,462717,0.0-94.0-2.0,,,,delaylearn,learning,feedback_duration_window,ZpYMmcQG7baF9p2JC6P048EAquu2,ZpYMmcQG7baF9p2JC6P048EAquu2,,,,,,,,,,,,,,,,,,750.0,,,,6012d4f3e68e2209e7e53679,17:06:40,27/03/2024
html-keyboard-response,229,464231,0.0-94.0-3.0,,<div style='margin:auto;width: auto; font-size: 150%'><span style='font-weight: bold; font-size: 100px; color: green;'>+10 points!</span><br><br></div>,,delaylearn,learning,feedback_image_window,ZpYMmcQG7baF9p2JC6P048EAquu2,ZpYMmcQG7baF9p2JC6P048EAquu2,,,,,,,,,,,,,,,,,,,,,,6012d4f3e68e2209e7e53679,17:06:40,27/03/2024
html-keyboard-response,230,466071,0.0-95.0,,"<div style=""font-size:100px;"">+</div>",,delaylearn,learning,ITI,ZpYMmcQG7baF9p2JC6P048EAquu2,ZpYMmcQG7baF9p2JC6P048EAquu2,,,,,,,,,,,,,,,,,,,1836.0,,,6012d4f3e68e2209e7e53679,17:06:40,27/03/2024
