trial_type,trial_index,time_elapsed,internal_node_id,rt,stimulus,response,exp_name,exp_stage,test_part,subjectID,databaseID,counterbal,choice_stimuli_1,choice_stimuli_2,pattern_stimuli,rewarded_answer,correct_answer,feedback_duration_times,stim_left,stim_right,pair,trial,response_correct,response_rewarded,chosen_stim,counter,displayed_choice,feedback_durations,ITI_duration,labels,rest_warning,prolificID,start_time,date
pavlovia,0,530,0.0-0.0,,,,,,,VyAircIRMjS4AZt6yDct5uKKu4Y2,,,,,,,,,,,,,,,,,,,,,,607d6e86f96c147cf2b3223c,12:47:08,26/02/2024
html-keyboard-response,1,3533,0.0-1.0,,"<div style=""font-size:100px;"">+</div>",,delaylearn,learning,pre_fixation,VyAircIRMjS4AZt6yDct5uKKu4Y2,,,,,,,,,,,,,,,,,,,,,,607d6e86f96c147cf2b3223c,12:47:08,26/02/2024
html-keyboard-response,2,4595,0.0-2.0-0.0,1060.699999988079,"<div style=""display: flex; flex-direction: column; align-items: center; margin-top: -40px;""><img src=""images/demo_images/pattern_1.png"" style=""width: 234px; height: 230px; margin-top: -50px;""><div style=""display: flex; justify-content: space-between; margin-top: 33px;""><img src=""images/demo_images/choice_trial_2.png"" style=""width: 408px; height: 417px; margin-right: 200px;""><img src=""images/demo_images/choice_trial_1.png"" style=""width: 408px; height: 417px;""></div></div>",j,delaylearn,learning,trial,VyAircIRMjS4AZt6yDct5uKKu4Y2,VyAircIRMjS4AZt6yDct5uKKu4Y2,5.0,images/demo_images/choice_trial_2.png,images/demo_images/choice_trial_1.png,images/demo_images/pattern_1.png,j,j,3000.0,2.0,1.0,20.0,1.0,1.0,1.0,1.0,10.0,,,,,,607d6e86f96c147cf2b3223c,12:47:08,26/02/2024
html-keyboard-response,3,5605,0.0-2.0-1.0,,"<div style=""display: flex; flex-direction: column; align-items: center; margin-top: -40px;""><img src=""images/demo_images/pattern_1.png"" style=""width: 234px; height: 230px; margin-top: -50px;""><div style=""display: flex; justify-content: space-between; margin-top: 33px;""><img src=""images/demo_images/choice_trial_1.png"" style=""width: 408px; height: 417px; margin-left:608px;""></div></div>",,delaylearn,learning,display_response,VyAircIRMjS4AZt6yDct5uKKu4Y2,VyAircIRMjS4AZt6yDct5uKKu4Y2,,,,,,,,,,,,,,,,chosen stimuli: images/demo_images/choice_trial_1.png,,,,,607d6e86f96c147cf2b3223c,12:47:08,26/02/2024
html-keyboard-response,4,8617,0.0-2.0-2.0,,,,delaylearn,learning,feedback_duration_window,VyAircIRMjS4AZt6yDct5uKKu4Y2,VyAircIRMjS4AZt6yDct5uKKu4Y2,,,,,,,,,,,,,,,,,3000.0,,,,607d6e86f96c147cf2b3223c,12:47:08,26/02/2024
html-keyboard-response,5,10131,0.0-2.0-3.0,,<div style='margin:auto;width: auto; font-size: 150%'><span style='font-weight: bold; font-size: 100px; color: green;'>+10 points!</span><br><br></div>,,delaylearn,learning,feedback_image_window,VyAircIRMjS4AZt6yDct5uKKu4Y2,VyAircIRMjS4AZt6yDct5uKKu4Y2,,,,,,,,,,,,,,,,,,,,,607d6e86f96c147cf2b3223c,12:47:08,26/02/2024
html-keyboard-response,6,11738,0.0-3.0,,"<div style=""font-size:100px;"">+</div>",,delaylearn,learning,ITI,VyAircIRMjS4AZt6yDct5uKKu4Y2,VyAircIRMjS4AZt6yDct5uKKu4Y2,,,,,,,,,,,,,,,,,,1598.0,,,607d6e86f96c147cf2b3223c,12:47:08,26/02/2024
html-keyboard-response,7,12742,0.0-4.0-0.0,1002.1000000238419,"<div style=""display: flex; flex-direction: column; align-items: center; margin-top: -40px;""><img src=""images/demo_images/pattern_1.png"" style=""width: 234px; height: 230px; margin-top: -50px;""><div style=""display: flex; justify-content: space-between; margin-top: 33px;""><img src=""images/demo_images/choice_trial_2.png"" style=""width: 408px; height: 417px; margin-right: 200px;""><img src=""images/demo_images/choice_trial_1.png"" style=""width: 408px; height: 417px;""></div></div>",j,delaylearn,learning,trial,VyAircIRMjS4AZt6yDct5uKKu4Y2,VyAircIRMjS4AZt6yDct5uKKu4Y2,5.0,images/demo_images/choice_trial_2.png,images/demo_images/choice_trial_1.png,images/demo_images/pattern_1.png,j,j,3000.0,2.0,1.0,20.0,2.0,1.0,1.0,1.0,20.0,,,,,,607d6e86f96c147cf2b3223c,12:47:08,26/02/2024
html-keyboard-response,8,13750,0.0-4.0-1.0,,"<div style=""display: flex; flex-direction: column; align-items: center; margin-top: -40px;""><img src=""images/demo_images/pattern_1.png"" style=""width: 234px; height: 230px; margin-top: -50px;""><div style=""display: flex; justify-content: space-between; margin-top: 33px;""><img src=""images/demo_images/choice_trial_1.png"" style=""width: 408px; height: 417px; margin-left:608px;""></div></div>",,delaylearn,learning,display_response,VyAircIRMjS4AZt6yDct5uKKu4Y2,VyAircIRMjS4AZt6yDct5uKKu4Y2,,,,,,,,,,,,,,,,chosen stimuli: images/demo_images/choice_trial_1.png,,,,,607d6e86f96c147cf2b3223c,12:47:08,26/02/2024
html-keyboard-response,9,16752,0.0-4.0-2.0,,,,delaylearn,learning,feedback_duration_window,VyAircIRMjS4AZt6yDct5uKKu4Y2,VyAircIRMjS4AZt6yDct5uKKu4Y2,,,,,,,,,,,,,,,,,3000.0,,,,607d6e86f96c147cf2b3223c,12:47:08,26/02/2024
html-keyboard-response,10,18256,0.0-4.0-3.0,,<div style='margin:auto;width: auto; font-size: 150%'><span style='font-weight: bold; font-size: 100px; color: green;'>+10 points!</span><br><br></div>,,delaylearn,learning,feedback_image_window,VyAircIRMjS4AZt6yDct5uKKu4Y2,VyAircIRMjS4AZt6yDct5uKKu4Y2,,,,,,,,,,,,,,,,,,,,,607d6e86f96c147cf2b3223c,12:47:08,26/02/2024
html-keyboard-response,11,19991,0.0-5.0,,"<div style=""font-size:100px;"">+</div>",,delaylearn,learning,ITI,VyAircIRMjS4AZt6yDct5uKKu4Y2,VyAircIRMjS4AZt6yDct5uKKu4Y2,,,,,,,,,,,,,,,,,,1727.0,,,607d6e86f96c147cf2b3223c,12:47:08,26/02/2024
html-keyboard-response,12,20608,0.0-6.0-0.0,615.8000000119209,"<div style=""display: flex; flex-direction: column; align-items: center; margin-top: -40px;""><img src=""images/demo_images/pattern_1.png"" style=""width: 234px; height: 230px; margin-top: -50px;""><div style=""display: flex; justify-content: space-between; margin-top: 33px;""><img src=""images/demo_images/choice_trial_1.png"" style=""width: 408px; height: 417px; margin-right: 200px;""><img src=""images/demo_images/choice_trial_2.png"" style=""width: 408px; height: 417px;""></div></div>",f,delaylearn,learning,trial,VyAircIRMjS4AZt6yDct5uKKu4Y2,VyAircIRMjS4AZt6yDct5uKKu4Y2,5.0,images/demo_images/choice_trial_1.png,images/demo_images/choice_trial_2.png,images/demo_images/pattern_1.png,j,f,3000.0,1.0,2.0,20.0,3.0,1.0,0.0,1.0,20.0,,,,,,607d6e86f96c147cf2b3223c,12:47:08,26/02/2024
html-keyboard-response,13,21614,0.0-6.0-1.0,,"<div style=""display: flex; flex-direction: column; align-items: center; margin-top: -40px;""><img src=""images/demo_images/pattern_1.png"" style=""width: 234px; height: 230px; margin-top: -50px;""><div style=""display: flex; justify-content: space-between; margin-top: 33px;""><img src=""images/demo_images/choice_trial_1.png"" style=""width: 408px; height: 417px; margin-right: 608px;""></div></div>",,delaylearn,learning,display_response,VyAircIRMjS4AZt6yDct5uKKu4Y2,VyAircIRMjS4AZt6yDct5uKKu4Y2,,,,,,,,,,,,,,,,chosen stimuli: images/demo_images/choice_trial_1.png,,,,,607d6e86f96c147cf2b3223c,12:47:08,26/02/2024
html-keyboard-response,14,24629,0.0-6.0-2.0,,,,delaylearn,learning,feedback_duration_window,VyAircIRMjS4AZt6yDct5uKKu4Y2,VyAircIRMjS4AZt6yDct5uKKu4Y2,,,,,,,,,,,,,,,,,3000.0,,,,607d6e86f96c147cf2b3223c,12:47:08,26/02/2024
html-keyboard-response,15,26131,0.0-6.0-3.0,,<div style='margin:auto;width: auto; font-size: 150%'><span style='font-weight: bold; font-size: 100px; color: red;'>0 points!</span><br><br></div>,,delaylearn,learning,feedback_image_window,VyAircIRMjS4AZt6yDct5uKKu4Y2,VyAircIRMjS4AZt6yDct5uKKu4Y2,,,,,,,,,,,,,,,,,,,,,607d6e86f96c147cf2b3223c,12:47:08,26/02/2024
html-keyboard-response,16,27737,0.0-7.0,,"<div style=""font-size:100px;"">+</div>",,delaylearn,learning,ITI,VyAircIRMjS4AZt6yDct5uKKu4Y2,VyAircIRMjS4AZt6yDct5uKKu4Y2,,,,,,,,,,,,,,,,,,1596.0,,,607d6e86f96c147cf2b3223c,12:47:08,26/02/2024
html-keyboard-response,17,29123,0.0-8.0-0.0,1385.0999999642372,"<div style=""display: flex; flex-direction: column; align-items: center; margin-top: -40px;""><img src=""images/demo_images/pattern_1.png"" style=""width: 234px; height: 230px; margin-top: -50px;""><div style=""display: flex; justify-content: space-between; margin-top: 33px;""><img src=""images/demo_images/choice_trial_1.png"" style=""width: 408px; height: 417px; margin-right: 200px;""><img src=""images/demo_images/choice_trial_2.png"" style=""width: 408px; height: 417px;""></div></div>",f,delaylearn,learning,trial,VyAircIRMjS4AZt6yDct5uKKu4Y2,VyAircIRMjS4AZt6yDct5uKKu4Y2,5.0,images/demo_images/choice_trial_1.png,images/demo_images/choice_trial_2.png,images/demo_images/pattern_1.png,f,f,3000.0,1.0,2.0,20.0,4.0,1.0,1.0,1.0,30.0,,,,,,607d6e86f96c147cf2b3223c,12:47:08,26/02/2024
html-keyboard-response,18,30139,0.0-8.0-1.0,,"<div style=""display: flex; flex-direction: column; align-items: center; margin-top: -40px;""><img src=""images/demo_images/pattern_1.png"" style=""width: 234px; height: 230px; margin-top: -50px;""><div style=""display: flex; justify-content: space-between; margin-top: 33px;""><img src=""images/demo_images/choice_trial_1.png"" style=""width: 408px; height: 417px; margin-right: 608px;""></div></div>",,delaylearn,learning,display_response,VyAircIRMjS4AZt6yDct5uKKu4Y2,VyAircIRMjS4AZt6yDct5uKKu4Y2,,,,,,,,,,,,,,,,chosen stimuli: images/demo_images/choice_trial_1.png,,,,,607d6e86f96c147cf2b3223c,12:47:08,26/02/2024
html-keyboard-response,19,33152,0.0-8.0-2.0,,,,delaylearn,learning,feedback_duration_window,VyAircIRMjS4AZt6yDct5uKKu4Y2,VyAircIRMjS4AZt6yDct5uKKu4Y2,,,,,,,,,,,,,,,,,3000.0,,,,607d6e86f96c147cf2b3223c,12:47:08,26/02/2024
html-keyboard-response,20,34666,0.0-8.0-3.0,,<div style='margin:auto;width: auto; font-size: 150%'><span style='font-weight: bold; font-size: 100px; color: green;'>+10 points!</span><br><br></div>,,delaylearn,learning,feedback_image_window,VyAircIRMjS4AZt6yDct5uKKu4Y2,VyAircIRMjS4AZt6yDct5uKKu4Y2,,,,,,,,,,,,,,,,,,,,,607d6e86f96c147cf2b3223c,12:47:08,26/02/2024
html-keyboard-response,21,35173,0.0-9.0-0.0,,,,,,mood_trial_fixation,VyAircIRMjS4AZt6yDct5uKKu4Y2,,,,,,,,,,,,,,,,,,,,,,607d6e86f96c147cf2b3223c,12:47:08,26/02/2024
lmdlab-html-vas-response,22,38576,0.0-9.0-1.0,2392.0,How happy are you right now?,0.49074074074074076,delaylearn,learning,mood_trial,VyAircIRMjS4AZt6yDct5uKKu4Y2,VyAircIRMjS4AZt6yDct5uKKu4Y2,,,,,,,,,,,,,,,,,,,"['Very unhappy', 'Very happy']",,607d6e86f96c147cf2b3223c,12:47:08,26/02/2024
html-keyboard-response,23,40642,0.0-10.0,,"<div style=""font-size:100px;"">+</div>",,delaylearn,learning,ITI,VyAircIRMjS4AZt6yDct5uKKu4Y2,VyAircIRMjS4AZt6yDct5uKKu4Y2,,,,,,,,,,,,,,,,,,2051.0,,,607d6e86f96c147cf2b3223c,12:47:08,26/02/2024
html-keyboard-response,24,41263,0.0-11.0-0.0,619.5,"<div style=""display: flex; flex-direction: column; align-items: center; margin-top: -40px;""><img src=""images/demo_images/pattern_1.png"" style=""width: 234px; height: 230px; margin-top: -50px;""><div style=""display: flex; justify-content: space-between; margin-top: 33px;""><img src=""images/demo_images/choice_trial_2.png"" style=""width: 408px; height: 417px; margin-right: 200px;""><img src=""images/demo_images/choice_trial_1.png"" style=""width: 408px; height: 417px;""></div></div>",j,delaylearn,learning,trial,VyAircIRMjS4AZt6yDct5uKKu4Y2,VyAircIRMjS4AZt6yDct5uKKu4Y2,5.0,images/demo_images/choice_trial_2.png,images/demo_images/choice_trial_1.png,images/demo_images/pattern_1.png,j,j,3000.0,2.0,1.0,20.0,5.0,1.0,1.0,1.0,40.0,,,,,,607d6e86f96c147cf2b3223c,12:47:08,26/02/2024
html-keyboard-response,25,42270,0.0-11.0-1.0,,"<div style=""display: flex; flex-direction: column; align-items: center; margin-top: -40px;""><img src=""images/demo_images/pattern_1.png"" style=""width: 234px; height: 230px; margin-top: -50px;""><div style=""display: flex; justify-content: space-between; margin-top: 33px;""><img src=""images/demo_images/choice_trial_1.png"" style=""width: 408px; height: 417px; margin-left:608px;""></div></div>",,delaylearn,learning,display_response,VyAircIRMjS4AZt6yDct5uKKu4Y2,VyAircIRMjS4AZt6yDct5uKKu4Y2,,,,,,,,,,,,,,,,chosen stimuli: images/demo_images/choice_trial_1.png,,,,,607d6e86f96c147cf2b3223c,12:47:08,26/02/2024
html-keyboard-response,26,45281,0.0-11.0-2.0,,,,delaylearn,learning,feedback_duration_window,VyAircIRMjS4AZt6yDct5uKKu4Y2,VyAircIRMjS4AZt6yDct5uKKu4Y2,,,,,,,,,,,,,,,,,3000.0,,,,607d6e86f96c147cf2b3223c,12:47:08,26/02/2024
html-keyboard-response,27,46794,0.0-11.0-3.0,,<div style='margin:auto;width: auto; font-size: 150%'><span style='font-weight: bold; font-size: 100px; color: green;'>+10 points!</span><br><br></div>,,delaylearn,learning,feedback_image_window,VyAircIRMjS4AZt6yDct5uKKu4Y2,VyAircIRMjS4AZt6yDct5uKKu4Y2,,,,,,,,,,,,,,,,,,,,,607d6e86f96c147cf2b3223c,12:47:08,26/02/2024
html-keyboard-response,28,48651,0.0-12.0,,"<div style=""font-size:100px;"">+</div>",,delaylearn,learning,ITI,VyAircIRMjS4AZt6yDct5uKKu4Y2,VyAircIRMjS4AZt6yDct5uKKu4Y2,,,,,,,,,,,,,,,,,,1853.0,,,607d6e86f96c147cf2b3223c,12:47:08,26/02/2024
html-keyboard-response,29,49336,0.0-13.0-0.0,683.1000000238419,"<div style=""display: flex; flex-direction: column; align-items: center; margin-top: -40px;""><img src=""images/demo_images/pattern_1.png"" style=""width: 234px; height: 230px; margin-top: -50px;""><div style=""display: flex; justify-content: space-between; margin-top: 33px;""><img src=""images/demo_images/choice_trial_1.png"" style=""width: 408px; height: 417px; margin-right: 200px;""><img src=""images/demo_images/choice_trial_2.png"" style=""width: 408px; height: 417px;""></div></div>",f,delaylearn,learning,trial,VyAircIRMjS4AZt6yDct5uKKu4Y2,VyAircIRMjS4AZt6yDct5uKKu4Y2,5.0,images/demo_images/choice_trial_1.png,images/demo_images/choice_trial_2.png,images/demo_images/pattern_1.png,f,f,3000.0,1.0,2.0,20.0,6.0,1.0,1.0,1.0,50.0,,,,,,607d6e86f96c147cf2b3223c,12:47:08,26/02/2024
html-keyboard-response,30,50344,0.0-13.0-1.0,,"<div style=""display: flex; flex-direction: column; align-items: center; margin-top: -40px;""><img src=""images/demo_images/pattern_1.png"" style=""width: 234px; height: 230px; margin-top: -50px;""><div style=""display: flex; justify-content: space-between; margin-top: 33px;""><img src=""images/demo_images/choice_trial_1.png"" style=""width: 408px; height: 417px; margin-right: 608px;""></div></div>",,delaylearn,learning,display_response,VyAircIRMjS4AZt6yDct5uKKu4Y2,VyAircIRMjS4AZt6yDct5uKKu4Y2,,,,,,,,,,,,,,,,chosen stimuli: images/demo_images/choice_trial_1.png,,,,,607d6e86f96c147cf2b3223c,12:47:08,26/02/2024
html-keyboard-response,31,53359,0.0-13.0-2.0,,,,delaylearn,learning,feedback_duration_window,VyAircIRMjS4AZt6yDct5uKKu4Y2,VyAircIRMjS4AZt6yDct5uKKu4Y2,,,,,,,,,,,,,,,,,3000.0,,,,607d6e86f96c147cf2b3223c,12:47:08,26/02/2024
html-keyboard-response,32,54862,0.0-13.0-3.0,,<div style='margin:auto;width: auto; font-size: 150%'><span style='font-weight: bold; font-size: 100px; color: green;'>+10 points!</span><br><br></div>,,delaylearn,learning,feedback_image_window,VyAircIRMjS4AZt6yDct5uKKu4Y2,VyAircIRMjS4AZt6yDct5uKKu4Y2,,,,,,,,,,,,,,,,,,,,,607d6e86f96c147cf2b3223c,12:47:08,26/02/2024
html-button-response,33,58489,0.0-14.0,3626.600000023842,"
  <div style=""display: flex; align-items: center; justify-content: center; height: 80vh;"">
  <div>
          <img src=""images/inst_demo_finish.png"" style=""width: 80vw; height:auto;"">
          <br><br>
      </div>
      <br><br>
  </div>",0,,,,VyAircIRMjS4AZt6yDct5uKKu4Y2,,,,,,,,,,,,,,,,,,,,,,607d6e86f96c147cf2b3223c,12:47:08,26/02/2024
html-keyboard-response,34,66809,0.0-15.0,8319.099999964237,"
  <div style=""display: flex; align-items: center; justify-content: center; height: 80vh;"">
  <div>
          <img src=""images/inst_6.png"" style=""width: 80vw; height:auto;"">
          <br><br>
      </div>
      <br><br>
  </div>",j,,,,VyAircIRMjS4AZt6yDct5uKKu4Y2,,,,,,,,,,,,,,,,,,,,,,607d6e86f96c147cf2b3223c,12:47:08,26/02/2024
html-keyboard-response,35,69824,0.0-16.0,,"<div style=""font-size:100px;"">+</div>",,delaylearn,learning,pre_fixation,VyAircIRMjS4AZt6yDct5uKKu4Y2,,,,,,,,,,,,,,,,,,,,,,607d6e86f96c147cf2b3223c,12:47:08,26/02/2024
html-keyboard-response,36,71727,0.0-17.0,,"<div style=""font-size:100px;"">+</div>",,delaylearn,learning,ITI,VyAircIRMjS4AZt6yDct5uKKu4Y2,VyAircIRMjS4AZt6yDct5uKKu4Y2,,,,,,,,,,,,,,,,,,1902.0,,,607d6e86f96c147cf2b3223c,12:47:08,26/02/2024
html-keyboard-response,37,72557,0.0-18.0-0.0,828.6000000238419,"<div style=""display: flex; flex-direction: column; align-items: center; margin-top: -40px;""><img src=""images/pattern_3.png"" style=""width: 234px; height: 230px; margin-top: -50px;""><div style=""display: flex; justify-content: space-between; margin-top: 33px;""><img src=""images/choice_trial_16.png"" style=""width: 408px; height: 417px; margin-right: 200px;""><img src=""images/choice_trial_2.png"" style=""width: 408px; height: 417px;""></div></div>",j,delaylearn,learning,trial,VyAircIRMjS4AZt6yDct5uKKu4Y2,VyAircIRMjS4AZt6yDct5uKKu4Y2,5.0,images/choice_trial_16.png,images/choice_trial_2.png,images/pattern_3.png,f,f,7000.0,16.0,2.0,2.0,7.0,0.0,0.0,2.0,50.0,,,,,,607d6e86f96c147cf2b3223c,12:47:08,26/02/2024
html-keyboard-response,38,73570,0.0-18.0-1.0,,"<div style=""display: flex; flex-direction: column; align-items: center; margin-top: -40px;""><img src=""images/pattern_3.png"" style=""width: 234px; height: 230px; margin-top: -50px;""><div style=""display: flex; justify-content: space-between; margin-top: 33px;""><img src=""images/choice_trial_2.png"" style=""width: 408px; height: 417px; margin-left:608px;""></div></div>",,delaylearn,learning,display_response,VyAircIRMjS4AZt6yDct5uKKu4Y2,VyAircIRMjS4AZt6yDct5uKKu4Y2,,,,,,,,,,,,,,,,chosen stimuli: images/choice_trial_2.png,,,,,607d6e86f96c147cf2b3223c,12:47:08,26/02/2024
html-keyboard-response,39,80585,0.0-18.0-2.0,,,,delaylearn,learning,feedback_duration_window,VyAircIRMjS4AZt6yDct5uKKu4Y2,VyAircIRMjS4AZt6yDct5uKKu4Y2,,,,,,,,,,,,,,,,,7000.0,,,,607d6e86f96c147cf2b3223c,12:47:08,26/02/2024
html-keyboard-response,40,82090,0.0-18.0-3.0,,<div style='margin:auto;width: auto; font-size: 150%'><span style='font-weight: bold; font-size: 100px; color: red;'>0 points!</span><br><br></div>,,delaylearn,learning,feedback_image_window,VyAircIRMjS4AZt6yDct5uKKu4Y2,VyAircIRMjS4AZt6yDct5uKKu4Y2,,,,,,,,,,,,,,,,,,,,,607d6e86f96c147cf2b3223c,12:47:08,26/02/2024
html-keyboard-response,41,84207,0.0-19.0,,"<div style=""font-size:100px;"">+</div>",,delaylearn,learning,ITI,VyAircIRMjS4AZt6yDct5uKKu4Y2,VyAircIRMjS4AZt6yDct5uKKu4Y2,,,,,,,,,,,,,,,,,,2116.0,,,607d6e86f96c147cf2b3223c,12:47:08,26/02/2024
html-keyboard-response,42,85380,0.0-20.0-0.0,1172.6000000238419,"<div style=""display: flex; flex-direction: column; align-items: center; margin-top: -40px;""><img src=""images/pattern_7.png"" style=""width: 234px; height: 230px; margin-top: -50px;""><div style=""display: flex; justify-content: space-between; margin-top: 33px;""><img src=""images/choice_trial_10.png"" style=""width: 408px; height: 417px; margin-right: 200px;""><img src=""images/choice_trial_8.png"" style=""width: 408px; height: 417px;""></div></div>",j,delaylearn,learning,trial,VyAircIRMjS4AZt6yDct5uKKu4Y2,VyAircIRMjS4AZt6yDct5uKKu4Y2,5.0,images/choice_trial_10.png,images/choice_trial_8.png,images/pattern_7.png,j,j,750.0,10.0,8.0,6.0,8.0,1.0,1.0,8.0,60.0,,,,,,607d6e86f96c147cf2b3223c,12:47:08,26/02/2024
html-keyboard-response,43,86390,0.0-20.0-1.0,,"<div style=""display: flex; flex-direction: column; align-items: center; margin-top: -40px;""><img src=""images/pattern_7.png"" style=""width: 234px; height: 230px; margin-top: -50px;""><div style=""display: flex; justify-content: space-between; margin-top: 33px;""><img src=""images/choice_trial_8.png"" style=""width: 408px; height: 417px; margin-left:608px;""></div></div>",,delaylearn,learning,display_response,VyAircIRMjS4AZt6yDct5uKKu4Y2,VyAircIRMjS4AZt6yDct5uKKu4Y2,,,,,,,,,,,,,,,,chosen stimuli: images/choice_trial_8.png,,,,,607d6e86f96c147cf2b3223c,12:47:08,26/02/2024
html-keyboard-response,44,87149,0.0-20.0-2.0,,,,delaylearn,learning,feedback_duration_window,VyAircIRMjS4AZt6yDct5uKKu4Y2,VyAircIRMjS4AZt6yDct5uKKu4Y2,,,,,,,,,,,,,,,,,750.0,,,,607d6e86f96c147cf2b3223c,12:47:08,26/02/2024
html-keyboard-response,45,88661,0.0-20.0-3.0,,<div style='margin:auto;width: auto; font-size: 150%'><span style='font-weight: bold; font-size: 100px; color: green;'>+10 points!</span><br><br></div>,,delaylearn,learning,feedback_image_window,VyAircIRMjS4AZt6yDct5uKKu4Y2,VyAircIRMjS4AZt6yDct5uKKu4Y2,,,,,,,,,,,,,,,,,,,,,607d6e86f96c147cf2b3223c,12:47:08,26/02/2024
html-keyboard-response,46,90441,0.0-21.0,,"<div style=""font-size:100px;"">+</div>",,delaylearn,learning,ITI,VyAircIRMjS4AZt6yDct5uKKu4Y2,VyAircIRMjS4AZt6yDct5uKKu4Y2,,,,,,,,,,,,,,,,,,1775.0,,,607d6e86f96c147cf2b3223c,12:47:08,26/02/2024
html-keyboard-response,47,91470,0.0-22.0-0.0,1027.800000011921,"<div style=""display: flex; flex-direction: column; align-items: center; margin-top: -40px;""><img src=""images/pattern_4.png"" style=""width: 234px; height: 230px; margin-top: -50px;""><div style=""display: flex; justify-content: space-between; margin-top: 33px;""><img src=""images/choice_trial_11.png"" style=""width: 408px; height: 417px; margin-right: 200px;""><img src=""images/choice_trial_4.png"" style=""width: 408px; height: 417px;""></div></div>",f,delaylearn,learning,trial,VyAircIRMjS4AZt6yDct5uKKu4Y2,VyAircIRMjS4AZt6yDct5uKKu4Y2,5.0,images/choice_trial_11.png,images/choice_trial_4.png,images/pattern_4.png,f,f,7000.0,11.0,4.0,3.0,9.0,1.0,1.0,11.0,70.0,,,,,,607d6e86f96c147cf2b3223c,12:47:08,26/02/2024
html-keyboard-response,48,92473,0.0-22.0-1.0,,"<div style=""display: flex; flex-direction: column; align-items: center; margin-top: -40px;""><img src=""images/pattern_4.png"" style=""width: 234px; height: 230px; margin-top: -50px;""><div style=""display: flex; justify-content: space-between; margin-top: 33px;""><img src=""images/choice_trial_11.png"" style=""width: 408px; height: 417px; margin-right: 608px;""></div></div>",,delaylearn,learning,display_response,VyAircIRMjS4AZt6yDct5uKKu4Y2,VyAircIRMjS4AZt6yDct5uKKu4Y2,,,,,,,,,,,,,,,,chosen stimuli: images/choice_trial_11.png,,,,,607d6e86f96c147cf2b3223c,12:47:08,26/02/2024
html-keyboard-response,49,99480,0.0-22.0-2.0,,,,delaylearn,learning,feedback_duration_window,VyAircIRMjS4AZt6yDct5uKKu4Y2,VyAircIRMjS4AZt6yDct5uKKu4Y2,,,,,,,,,,,,,,,,,7000.0,,,,607d6e86f96c147cf2b3223c,12:47:08,26/02/2024
html-keyboard-response,50,100993,0.0-22.0-3.0,,<div style='margin:auto;width: auto; font-size: 150%'><span style='font-weight: bold; font-size: 100px; color: green;'>+10 points!</span><br><br></div>,,delaylearn,learning,feedback_image_window,VyAircIRMjS4AZt6yDct5uKKu4Y2,VyAircIRMjS4AZt6yDct5uKKu4Y2,,,,,,,,,,,,,,,,,,,,,607d6e86f96c147cf2b3223c,12:47:08,26/02/2024
html-keyboard-response,51,102882,0.0-23.0,,"<div style=""font-size:100px;"">+</div>",,delaylearn,learning,ITI,VyAircIRMjS4AZt6yDct5uKKu4Y2,VyAircIRMjS4AZt6yDct5uKKu4Y2,,,,,,,,,,,,,,,,,,1877.0,,,607d6e86f96c147cf2b3223c,12:47:08,26/02/2024
html-keyboard-response,52,104484,0.0-24.0-0.0,1600.800000011921,"<div style=""display: flex; flex-direction: column; align-items: center; margin-top: -40px;""><img src=""images/pattern_5.png"" style=""width: 234px; height: 230px; margin-top: -50px;""><div style=""display: flex; justify-content: space-between; margin-top: 33px;""><img src=""images/choice_trial_13.png"" style=""width: 408px; height: 417px; margin-right: 200px;""><img src=""images/choice_trial_7.png"" style=""width: 408px; height: 417px;""></div></div>",j,delaylearn,learning,trial,VyAircIRMjS4AZt6yDct5uKKu4Y2,VyAircIRMjS4AZt6yDct5uKKu4Y2,5.0,images/choice_trial_13.png,images/choice_trial_7.png,images/pattern_5.png,j,j,750.0,13.0,7.0,4.0,10.0,1.0,1.0,7.0,80.0,,,,,,607d6e86f96c147cf2b3223c,12:47:08,26/02/2024
html-keyboard-response,53,105491,0.0-24.0-1.0,,"<div style=""display: flex; flex-direction: column; align-items: center; margin-top: -40px;""><img src=""images/pattern_5.png"" style=""width: 234px; height: 230px; margin-top: -50px;""><div style=""display: flex; justify-content: space-between; margin-top: 33px;""><img src=""images/choice_trial_7.png"" style=""width: 408px; height: 417px; margin-left:608px;""></div></div>",,delaylearn,learning,display_response,VyAircIRMjS4AZt6yDct5uKKu4Y2,VyAircIRMjS4AZt6yDct5uKKu4Y2,,,,,,,,,,,,,,,,chosen stimuli: images/choice_trial_7.png,,,,,607d6e86f96c147cf2b3223c,12:47:08,26/02/2024
html-keyboard-response,54,106248,0.0-24.0-2.0,,,,delaylearn,learning,feedback_duration_window,VyAircIRMjS4AZt6yDct5uKKu4Y2,VyAircIRMjS4AZt6yDct5uKKu4Y2,,,,,,,,,,,,,,,,,750.0,,,,607d6e86f96c147cf2b3223c,12:47:08,26/02/2024
html-keyboard-response,55,107758,0.0-24.0-3.0,,<div style='margin:auto;width: auto; font-size: 150%'><span style='font-weight: bold; font-size: 100px; color: green;'>+10 points!</span><br><br></div>,,delaylearn,learning,feedback_image_window,VyAircIRMjS4AZt6yDct5uKKu4Y2,VyAircIRMjS4AZt6yDct5uKKu4Y2,,,,,,,,,,,,,,,,,,,,,607d6e86f96c147cf2b3223c,12:47:08,26/02/2024
html-keyboard-response,56,109794,0.0-25.0,,"<div style=""font-size:100px;"">+</div>",,delaylearn,learning,ITI,VyAircIRMjS4AZt6yDct5uKKu4Y2,VyAircIRMjS4AZt6yDct5uKKu4Y2,,,,,,,,,,,,,,,,,,2026.0,,,607d6e86f96c147cf2b3223c,12:47:08,26/02/2024
html-keyboard-response,57,111592,0.0-26.0-0.0,1796.5,"<div style=""display: flex; flex-direction: column; align-items: center; margin-top: -40px;""><img src=""images/pattern_6.png"" style=""width: 234px; height: 230px; margin-top: -50px;""><div style=""display: flex; justify-content: space-between; margin-top: 33px;""><img src=""images/choice_trial_14.png"" style=""width: 408px; height: 417px; margin-right: 200px;""><img src=""images/choice_trial_9.png"" style=""width: 408px; height: 417px;""></div></div>",j,delaylearn,learning,trial,VyAircIRMjS4AZt6yDct5uKKu4Y2,VyAircIRMjS4AZt6yDct5uKKu4Y2,5.0,images/choice_trial_14.png,images/choice_trial_9.png,images/pattern_6.png,j,f,750.0,14.0,9.0,5.0,11.0,0.0,1.0,9.0,90.0,,,,,,607d6e86f96c147cf2b3223c,12:47:08,26/02/2024
html-keyboard-response,58,112599,0.0-26.0-1.0,,"<div style=""display: flex; flex-direction: column; align-items: center; margin-top: -40px;""><img src=""images/pattern_6.png"" style=""width: 234px; height: 230px; margin-top: -50px;""><div style=""display: flex; justify-content: space-between; margin-top: 33px;""><img src=""images/choice_trial_9.png"" style=""width: 408px; height: 417px; margin-left:608px;""></div></div>",,delaylearn,learning,display_response,VyAircIRMjS4AZt6yDct5uKKu4Y2,VyAircIRMjS4AZt6yDct5uKKu4Y2,,,,,,,,,,,,,,,,chosen stimuli: images/choice_trial_9.png,,,,,607d6e86f96c147cf2b3223c,12:47:08,26/02/2024
html-keyboard-response,59,113354,0.0-26.0-2.0,,,,delaylearn,learning,feedback_duration_window,VyAircIRMjS4AZt6yDct5uKKu4Y2,VyAircIRMjS4AZt6yDct5uKKu4Y2,,,,,,,,,,,,,,,,,750.0,,,,607d6e86f96c147cf2b3223c,12:47:08,26/02/2024
html-keyboard-response,60,114866,0.0-26.0-3.0,,<div style='margin:auto;width: auto; font-size: 150%'><span style='font-weight: bold; font-size: 100px; color: green;'>+10 points!</span><br><br></div>,,delaylearn,learning,feedback_image_window,VyAircIRMjS4AZt6yDct5uKKu4Y2,VyAircIRMjS4AZt6yDct5uKKu4Y2,,,,,,,,,,,,,,,,,,,,,607d6e86f96c147cf2b3223c,12:47:08,26/02/2024
html-keyboard-response,61,115380,0.0-27.0-0.0,,,,,,mood_trial_fixation,VyAircIRMjS4AZt6yDct5uKKu4Y2,,,,,,,,,,,,,,,,,,,,,,607d6e86f96c147cf2b3223c,12:47:08,26/02/2024
lmdlab-html-vas-response,62,119497,0.0-27.0-1.0,3111.0,How happy are you right now?,0.49074074074074076,delaylearn,learning,mood_trial,VyAircIRMjS4AZt6yDct5uKKu4Y2,VyAircIRMjS4AZt6yDct5uKKu4Y2,,,,,,,,,,,,,,,,,,,"['Very unhappy', 'Very happy']",,607d6e86f96c147cf2b3223c,12:47:08,26/02/2024
html-keyboard-response,63,121426,0.0-28.0,,"<div style=""font-size:100px;"">+</div>",,delaylearn,learning,ITI,VyAircIRMjS4AZt6yDct5uKKu4Y2,VyAircIRMjS4AZt6yDct5uKKu4Y2,,,,,,,,,,,,,,,,,,1915.0,,,607d6e86f96c147cf2b3223c,12:47:08,26/02/2024
html-keyboard-response,64,122572,0.0-29.0-0.0,1144.5999999642372,"<div style=""display: flex; flex-direction: column; align-items: center; margin-top: -40px;""><img src=""images/pattern_1.png"" style=""width: 234px; height: 230px; margin-top: -50px;""><div style=""display: flex; justify-content: space-between; margin-top: 33px;""><img src=""images/choice_trial_15.png"" style=""width: 408px; height: 417px; margin-right: 200px;""><img src=""images/choice_trial_6.png"" style=""width: 408px; height: 417px;""></div></div>",f,delaylearn,learning,trial,VyAircIRMjS4AZt6yDct5uKKu4Y2,VyAircIRMjS4AZt6yDct5uKKu4Y2,5.0,images/choice_trial_15.png,images/choice_trial_6.png,images/pattern_1.png,j,j,7000.0,15.0,6.0,1.0,12.0,0.0,0.0,15.0,90.0,,,,,,607d6e86f96c147cf2b3223c,12:47:08,26/02/2024
html-keyboard-response,65,123581,0.0-29.0-1.0,,"<div style=""display: flex; flex-direction: column; align-items: center; margin-top: -40px;""><img src=""images/pattern_1.png"" style=""width: 234px; height: 230px; margin-top: -50px;""><div style=""display: flex; justify-content: space-between; margin-top: 33px;""><img src=""images/choice_trial_15.png"" style=""width: 408px; height: 417px; margin-right: 608px;""></div></div>",,delaylearn,learning,display_response,VyAircIRMjS4AZt6yDct5uKKu4Y2,VyAircIRMjS4AZt6yDct5uKKu4Y2,,,,,,,,,,,,,,,,chosen stimuli: images/choice_trial_15.png,,,,,607d6e86f96c147cf2b3223c,12:47:08,26/02/2024
html-keyboard-response,66,130596,0.0-29.0-2.0,,,,delaylearn,learning,feedback_duration_window,VyAircIRMjS4AZt6yDct5uKKu4Y2,VyAircIRMjS4AZt6yDct5uKKu4Y2,,,,,,,,,,,,,,,,,7000.0,,,,607d6e86f96c147cf2b3223c,12:47:08,26/02/2024
html-keyboard-response,67,132106,0.0-29.0-3.0,,<div style='margin:auto;width: auto; font-size: 150%'><span style='font-weight: bold; font-size: 100px; color: red;'>0 points!</span><br><br></div>,,delaylearn,learning,feedback_image_window,VyAircIRMjS4AZt6yDct5uKKu4Y2,VyAircIRMjS4AZt6yDct5uKKu4Y2,,,,,,,,,,,,,,,,,,,,,607d6e86f96c147cf2b3223c,12:47:08,26/02/2024
html-keyboard-response,68,134429,0.0-30.0,,"<div style=""font-size:100px;"">+</div>",,delaylearn,learning,ITI,VyAircIRMjS4AZt6yDct5uKKu4Y2,VyAircIRMjS4AZt6yDct5uKKu4Y2,,,,,,,,,,,,,,,,,,2310.0,,,607d6e86f96c147cf2b3223c,12:47:08,26/02/2024
html-keyboard-response,69,136025,0.0-31.0-0.0,1594.5999999642372,"<div style=""display: flex; flex-direction: column; align-items: center; margin-top: -40px;""><img src=""images/pattern_3.png"" style=""width: 234px; height: 230px; margin-top: -50px;""><div style=""display: flex; justify-content: space-between; margin-top: 33px;""><img src=""images/choice_trial_2.png"" style=""width: 408px; height: 417px; margin-right: 200px;""><img src=""images/choice_trial_16.png"" style=""width: 408px; height: 417px;""></div></div>",f,delaylearn,learning,trial,VyAircIRMjS4AZt6yDct5uKKu4Y2,VyAircIRMjS4AZt6yDct5uKKu4Y2,5.0,images/choice_trial_2.png,images/choice_trial_16.png,images/pattern_3.png,f,j,7000.0,2.0,16.0,2.0,13.0,0.0,1.0,2.0,100.0,,,,,,607d6e86f96c147cf2b3223c,12:47:08,26/02/2024
html-keyboard-response,70,137030,0.0-31.0-1.0,,"<div style=""display: flex; flex-direction: column; align-items: center; margin-top: -40px;""><img src=""images/pattern_3.png"" style=""width: 234px; height: 230px; margin-top: -50px;""><div style=""display: flex; justify-content: space-between; margin-top: 33px;""><img src=""images/choice_trial_2.png"" style=""width: 408px; height: 417px; margin-right: 608px;""></div></div>",,delaylearn,learning,display_response,VyAircIRMjS4AZt6yDct5uKKu4Y2,VyAircIRMjS4AZt6yDct5uKKu4Y2,,,,,,,,,,,,,,,,chosen stimuli: images/choice_trial_2.png,,,,,607d6e86f96c147cf2b3223c,12:47:08,26/02/2024
html-keyboard-response,71,144046,0.0-31.0-2.0,,,,delaylearn,learning,feedback_duration_window,VyAircIRMjS4AZt6yDct5uKKu4Y2,VyAircIRMjS4AZt6yDct5uKKu4Y2,,,,,,,,,,,,,,,,,7000.0,,,,607d6e86f96c147cf2b3223c,12:47:08,26/02/2024
html-keyboard-response,72,145556,0.0-31.0-3.0,,<div style='margin:auto;width: auto; font-size: 150%'><span style='font-weight: bold; font-size: 100px; color: green;'>+10 points!</span><br><br></div>,,delaylearn,learning,feedback_image_window,VyAircIRMjS4AZt6yDct5uKKu4Y2,VyAircIRMjS4AZt6yDct5uKKu4Y2,,,,,,,,,,,,,,,,,,,,,607d6e86f96c147cf2b3223c,12:47:08,26/02/2024
html-keyboard-response,73,147109,0.0-32.0,,"<div style=""font-size:100px;"">+</div>",,delaylearn,learning,ITI,VyAircIRMjS4AZt6yDct5uKKu4Y2,VyAircIRMjS4AZt6yDct5uKKu4Y2,,,,,,,,,,,,,,,,,,1543.0,,,607d6e86f96c147cf2b3223c,12:47:08,26/02/2024
html-keyboard-response,74,148209,0.0-33.0-0.0,1098.7999999523163,"<div style=""display: flex; flex-direction: column; align-items: center; margin-top: -40px;""><img src=""images/pattern_5.png"" style=""width: 234px; height: 230px; margin-top: -50px;""><div style=""display: flex; justify-content: space-between; margin-top: 33px;""><img src=""images/choice_trial_7.png"" style=""width: 408px; height: 417px; margin-right: 200px;""><img src=""images/choice_trial_13.png"" style=""width: 408px; height: 417px;""></div></div>",f,delaylearn,learning,trial,VyAircIRMjS4AZt6yDct5uKKu4Y2,VyAircIRMjS4AZt6yDct5uKKu4Y2,5.0,images/choice_trial_7.png,images/choice_trial_13.png,images/pattern_5.png,f,f,750.0,7.0,13.0,4.0,14.0,1.0,1.0,7.0,110.0,,,,,,607d6e86f96c147cf2b3223c,12:47:08,26/02/2024
html-keyboard-response,75,149215,0.0-33.0-1.0,,"<div style=""display: flex; flex-direction: column; align-items: center; margin-top: -40px;""><img src=""images/pattern_5.png"" style=""width: 234px; height: 230px; margin-top: -50px;""><div style=""display: flex; justify-content: space-between; margin-top: 33px;""><img src=""images/choice_trial_7.png"" style=""width: 408px; height: 417px; margin-right: 608px;""></div></div>",,delaylearn,learning,display_response,VyAircIRMjS4AZt6yDct5uKKu4Y2,VyAircIRMjS4AZt6yDct5uKKu4Y2,,,,,,,,,,,,,,,,chosen stimuli: images/choice_trial_7.png,,,,,607d6e86f96c147cf2b3223c,12:47:08,26/02/2024
html-keyboard-response,76,149968,0.0-33.0-2.0,,,,delaylearn,learning,feedback_duration_window,VyAircIRMjS4AZt6yDct5uKKu4Y2,VyAircIRMjS4AZt6yDct5uKKu4Y2,,,,,,,,,,,,,,,,,750.0,,,,607d6e86f96c147cf2b3223c,12:47:08,26/02/2024
html-keyboard-response,77,151475,0.0-33.0-3.0,,<div style='margin:auto;width: auto; font-size: 150%'><span style='font-weight: bold; font-size: 100px; color: green;'>+10 points!</span><br><br></div>,,delaylearn,learning,feedback_image_window,VyAircIRMjS4AZt6yDct5uKKu4Y2,VyAircIRMjS4AZt6yDct5uKKu4Y2,,,,,,,,,,,,,,,,,,,,,607d6e86f96c147cf2b3223c,12:47:08,26/02/2024
html-keyboard-response,78,151987,0.0-34.0-0.0,,,,,,mood_trial_fixation,VyAircIRMjS4AZt6yDct5uKKu4Y2,,,,,,,,,,,,,,,,,,,,,,607d6e86f96c147cf2b3223c,12:47:08,26/02/2024
lmdlab-html-vas-response,79,155440,0.0-34.0-1.0,2436.0,How happy are you right now?,0.47685185185185186,delaylearn,learning,mood_trial,VyAircIRMjS4AZt6yDct5uKKu4Y2,VyAircIRMjS4AZt6yDct5uKKu4Y2,,,,,,,,,,,,,,,,,,,"['Very unhappy', 'Very happy']",,607d6e86f96c147cf2b3223c,12:47:08,26/02/2024
html-keyboard-response,80,157830,0.0-35.0,,"<div style=""font-size:100px;"">+</div>",,delaylearn,learning,ITI,VyAircIRMjS4AZt6yDct5uKKu4Y2,VyAircIRMjS4AZt6yDct5uKKu4Y2,,,,,,,,,,,,,,,,,,2381.0,,,607d6e86f96c147cf2b3223c,12:47:08,26/02/2024
html-keyboard-response,81,159198,0.0-36.0-0.0,1366.7999999523163,"<div style=""display: flex; flex-direction: column; align-items: center; margin-top: -40px;""><img src=""images/pattern_6.png"" style=""width: 234px; height: 230px; margin-top: -50px;""><div style=""display: flex; justify-content: space-between; margin-top: 33px;""><img src=""images/choice_trial_14.png"" style=""width: 408px; height: 417px; margin-right: 200px;""><img src=""images/choice_trial_9.png"" style=""width: 408px; height: 417px;""></div></div>",j,delaylearn,learning,trial,VyAircIRMjS4AZt6yDct5uKKu4Y2,VyAircIRMjS4AZt6yDct5uKKu4Y2,5.0,images/choice_trial_14.png,images/choice_trial_9.png,images/pattern_6.png,f,f,750.0,14.0,9.0,5.0,15.0,0.0,0.0,9.0,110.0,,,,,,607d6e86f96c147cf2b3223c,12:47:08,26/02/2024
html-keyboard-response,82,160215,0.0-36.0-1.0,,"<div style=""display: flex; flex-direction: column; align-items: center; margin-top: -40px;""><img src=""images/pattern_6.png"" style=""width: 234px; height: 230px; margin-top: -50px;""><div style=""display: flex; justify-content: space-between; margin-top: 33px;""><img src=""images/choice_trial_9.png"" style=""width: 408px; height: 417px; margin-left:608px;""></div></div>",,delaylearn,learning,display_response,VyAircIRMjS4AZt6yDct5uKKu4Y2,VyAircIRMjS4AZt6yDct5uKKu4Y2,,,,,,,,,,,,,,,,chosen stimuli: images/choice_trial_9.png,,,,,607d6e86f96c147cf2b3223c,12:47:08,26/02/2024
html-keyboard-response,83,160977,0.0-36.0-2.0,,,,delaylearn,learning,feedback_duration_window,VyAircIRMjS4AZt6yDct5uKKu4Y2,VyAircIRMjS4AZt6yDct5uKKu4Y2,,,,,,,,,,,,,,,,,750.0,,,,607d6e86f96c147cf2b3223c,12:47:08,26/02/2024
html-keyboard-response,84,162490,0.0-36.0-3.0,,<div style='margin:auto;width: auto; font-size: 150%'><span style='font-weight: bold; font-size: 100px; color: red;'>0 points!</span><br><br></div>,,delaylearn,learning,feedback_image_window,VyAircIRMjS4AZt6yDct5uKKu4Y2,VyAircIRMjS4AZt6yDct5uKKu4Y2,,,,,,,,,,,,,,,,,,,,,607d6e86f96c147cf2b3223c,12:47:08,26/02/2024
html-keyboard-response,85,164189,0.0-37.0,,"<div style=""font-size:100px;"">+</div>",,delaylearn,learning,ITI,VyAircIRMjS4AZt6yDct5uKKu4Y2,VyAircIRMjS4AZt6yDct5uKKu4Y2,,,,,,,,,,,,,,,,,,1684.0,,,607d6e86f96c147cf2b3223c,12:47:08,26/02/2024
html-keyboard-response,86,165247,0.0-38.0-0.0,1057.1000000238419,"<div style=""display: flex; flex-direction: column; align-items: center; margin-top: -40px;""><img src=""images/pattern_4.png"" style=""width: 234px; height: 230px; margin-top: -50px;""><div style=""display: flex; justify-content: space-between; margin-top: 33px;""><img src=""images/choice_trial_4.png"" style=""width: 408px; height: 417px; margin-right: 200px;""><img src=""images/choice_trial_11.png"" style=""width: 408px; height: 417px;""></div></div>",j,delaylearn,learning,trial,VyAircIRMjS4AZt6yDct5uKKu4Y2,VyAircIRMjS4AZt6yDct5uKKu4Y2,5.0,images/choice_trial_4.png,images/choice_trial_11.png,images/pattern_4.png,j,j,7000.0,4.0,11.0,3.0,16.0,1.0,1.0,11.0,120.0,,,,,,607d6e86f96c147cf2b3223c,12:47:08,26/02/2024
html-keyboard-response,87,166260,0.0-38.0-1.0,,"<div style=""display: flex; flex-direction: column; align-items: center; margin-top: -40px;""><img src=""images/pattern_4.png"" style=""width: 234px; height: 230px; margin-top: -50px;""><div style=""display: flex; justify-content: space-between; margin-top: 33px;""><img src=""images/choice_trial_11.png"" style=""width: 408px; height: 417px; margin-left:608px;""></div></div>",,delaylearn,learning,display_response,VyAircIRMjS4AZt6yDct5uKKu4Y2,VyAircIRMjS4AZt6yDct5uKKu4Y2,,,,,,,,,,,,,,,,chosen stimuli: images/choice_trial_11.png,,,,,607d6e86f96c147cf2b3223c,12:47:08,26/02/2024
html-keyboard-response,88,173268,0.0-38.0-2.0,,,,delaylearn,learning,feedback_duration_window,VyAircIRMjS4AZt6yDct5uKKu4Y2,VyAircIRMjS4AZt6yDct5uKKu4Y2,,,,,,,,,,,,,,,,,7000.0,,,,607d6e86f96c147cf2b3223c,12:47:08,26/02/2024
html-keyboard-response,89,174780,0.0-38.0-3.0,,<div style='margin:auto;width: auto; font-size: 150%'><span style='font-weight: bold; font-size: 100px; color: green;'>+10 points!</span><br><br></div>,,delaylearn,learning,feedback_image_window,VyAircIRMjS4AZt6yDct5uKKu4Y2,VyAircIRMjS4AZt6yDct5uKKu4Y2,,,,,,,,,,,,,,,,,,,,,607d6e86f96c147cf2b3223c,12:47:08,26/02/2024
html-keyboard-response,90,176347,0.0-39.0,,"<div style=""font-size:100px;"">+</div>",,delaylearn,learning,ITI,VyAircIRMjS4AZt6yDct5uKKu4Y2,VyAircIRMjS4AZt6yDct5uKKu4Y2,,,,,,,,,,,,,,,,,,1562.0,,,607d6e86f96c147cf2b3223c,12:47:08,26/02/2024
html-keyboard-response,91,178099,0.0-40.0-0.0,1750.6000000238419,"<div style=""display: flex; flex-direction: column; align-items: center; margin-top: -40px;""><img src=""images/pattern_7.png"" style=""width: 234px; height: 230px; margin-top: -50px;""><div style=""display: flex; justify-content: space-between; margin-top: 33px;""><img src=""images/choice_trial_8.png"" style=""width: 408px; height: 417px; margin-right: 200px;""><img src=""images/choice_trial_10.png"" style=""width: 408px; height: 417px;""></div></div>",j,delaylearn,learning,trial,VyAircIRMjS4AZt6yDct5uKKu4Y2,VyAircIRMjS4AZt6yDct5uKKu4Y2,5.0,images/choice_trial_8.png,images/choice_trial_10.png,images/pattern_7.png,j,f,750.0,8.0,10.0,6.0,17.0,0.0,1.0,10.0,130.0,,,,,,607d6e86f96c147cf2b3223c,12:47:08,26/02/2024
html-keyboard-response,92,179102,0.0-40.0-1.0,,"<div style=""display: flex; flex-direction: column; align-items: center; margin-top: -40px;""><img src=""images/pattern_7.png"" style=""width: 234px; height: 230px; margin-top: -50px;""><div style=""display: flex; justify-content: space-between; margin-top: 33px;""><img src=""images/choice_trial_10.png"" style=""width: 408px; height: 417px; margin-left:608px;""></div></div>",,delaylearn,learning,display_response,VyAircIRMjS4AZt6yDct5uKKu4Y2,VyAircIRMjS4AZt6yDct5uKKu4Y2,,,,,,,,,,,,,,,,chosen stimuli: images/choice_trial_10.png,,,,,607d6e86f96c147cf2b3223c,12:47:08,26/02/2024
html-keyboard-response,93,179860,0.0-40.0-2.0,,,,delaylearn,learning,feedback_duration_window,VyAircIRMjS4AZt6yDct5uKKu4Y2,VyAircIRMjS4AZt6yDct5uKKu4Y2,,,,,,,,,,,,,,,,,750.0,,,,607d6e86f96c147cf2b3223c,12:47:08,26/02/2024
html-keyboard-response,94,181363,0.0-40.0-3.0,,<div style='margin:auto;width: auto; font-size: 150%'><span style='font-weight: bold; font-size: 100px; color: green;'>+10 points!</span><br><br></div>,,delaylearn,learning,feedback_image_window,VyAircIRMjS4AZt6yDct5uKKu4Y2,VyAircIRMjS4AZt6yDct5uKKu4Y2,,,,,,,,,,,,,,,,,,,,,607d6e86f96c147cf2b3223c,12:47:08,26/02/2024
html-keyboard-response,95,183415,0.0-41.0,,"<div style=""font-size:100px;"">+</div>",,delaylearn,learning,ITI,VyAircIRMjS4AZt6yDct5uKKu4Y2,VyAircIRMjS4AZt6yDct5uKKu4Y2,,,,,,,,,,,,,,,,,,2041.0,,,607d6e86f96c147cf2b3223c,12:47:08,26/02/2024
html-keyboard-response,96,184770,0.0-42.0-0.0,1354.5,"<div style=""display: flex; flex-direction: column; align-items: center; margin-top: -40px;""><img src=""images/pattern_1.png"" style=""width: 234px; height: 230px; margin-top: -50px;""><div style=""display: flex; justify-content: space-between; margin-top: 33px;""><img src=""images/choice_trial_6.png"" style=""width: 408px; height: 417px; margin-right: 200px;""><img src=""images/choice_trial_15.png"" style=""width: 408px; height: 417px;""></div></div>",j,delaylearn,learning,trial,VyAircIRMjS4AZt6yDct5uKKu4Y2,VyAircIRMjS4AZt6yDct5uKKu4Y2,5.0,images/choice_trial_6.png,images/choice_trial_15.png,images/pattern_1.png,f,f,7000.0,6.0,15.0,1.0,18.0,0.0,0.0,15.0,130.0,,,,,,607d6e86f96c147cf2b3223c,12:47:08,26/02/2024
html-keyboard-response,97,185775,0.0-42.0-1.0,,"<div style=""display: flex; flex-direction: column; align-items: center; margin-top: -40px;""><img src=""images/pattern_1.png"" style=""width: 234px; height: 230px; margin-top: -50px;""><div style=""display: flex; justify-content: space-between; margin-top: 33px;""><img src=""images/choice_trial_15.png"" style=""width: 408px; height: 417px; margin-left:608px;""></div></div>",,delaylearn,learning,display_response,VyAircIRMjS4AZt6yDct5uKKu4Y2,VyAircIRMjS4AZt6yDct5uKKu4Y2,,,,,,,,,,,,,,,,chosen stimuli: images/choice_trial_15.png,,,,,607d6e86f96c147cf2b3223c,12:47:08,26/02/2024
html-keyboard-response,98,192785,0.0-42.0-2.0,,,,delaylearn,learning,feedback_duration_window,VyAircIRMjS4AZt6yDct5uKKu4Y2,VyAircIRMjS4AZt6yDct5uKKu4Y2,,,,,,,,,,,,,,,,,7000.0,,,,607d6e86f96c147cf2b3223c,12:47:08,26/02/2024
html-keyboard-response,99,194287,0.0-42.0-3.0,,<div style='margin:auto;width: auto; font-size: 150%'><span style='font-weight: bold; font-size: 100px; color: red;'>0 points!</span><br><br></div>,,delaylearn,learning,feedback_image_window,VyAircIRMjS4AZt6yDct5uKKu4Y2,VyAircIRMjS4AZt6yDct5uKKu4Y2,,,,,,,,,,,,,,,,,,,,,607d6e86f96c147cf2b3223c,12:47:08,26/02/2024
html-keyboard-response,100,196329,0.0-43.0,,"<div style=""font-size:100px;"">+</div>",,delaylearn,learning,ITI,VyAircIRMjS4AZt6yDct5uKKu4Y2,VyAircIRMjS4AZt6yDct5uKKu4Y2,,,,,,,,,,,,,,,,,,2034.0,,,607d6e86f96c147cf2b3223c,12:47:08,26/02/2024
html-keyboard-response,101,197153,0.0-44.0-0.0,823.2000000476837,"<div style=""display: flex; flex-direction: column; align-items: center; margin-top: -40px;""><img src=""images/pattern_6.png"" style=""width: 234px; height: 230px; margin-top: -50px;""><div style=""display: flex; justify-content: space-between; margin-top: 33px;""><img src=""images/choice_trial_9.png"" style=""width: 408px; height: 417px; margin-right: 200px;""><img src=""images/choice_trial_14.png"" style=""width: 408px; height: 417px;""></div></div>",f,delaylearn,learning,trial,VyAircIRMjS4AZt6yDct5uKKu4Y2,VyAircIRMjS4AZt6yDct5uKKu4Y2,5.0,images/choice_trial_9.png,images/choice_trial_14.png,images/pattern_6.png,j,j,750.0,9.0,14.0,5.0,19.0,0.0,0.0,9.0,130.0,,,,,,607d6e86f96c147cf2b3223c,12:47:08,26/02/2024
html-keyboard-response,102,198166,0.0-44.0-1.0,,"<div style=""display: flex; flex-direction: column; align-items: center; margin-top: -40px;""><img src=""images/pattern_6.png"" style=""width: 234px; height: 230px; margin-top: -50px;""><div style=""display: flex; justify-content: space-between; margin-top: 33px;""><img src=""images/choice_trial_9.png"" style=""width: 408px; height: 417px; margin-right: 608px;""></div></div>",,delaylearn,learning,display_response,VyAircIRMjS4AZt6yDct5uKKu4Y2,VyAircIRMjS4AZt6yDct5uKKu4Y2,,,,,,,,,,,,,,,,chosen stimuli: images/choice_trial_9.png,,,,,607d6e86f96c147cf2b3223c,12:47:08,26/02/2024
html-keyboard-response,103,198923,0.0-44.0-2.0,,,,delaylearn,learning,feedback_duration_window,VyAircIRMjS4AZt6yDct5uKKu4Y2,VyAircIRMjS4AZt6yDct5uKKu4Y2,,,,,,,,,,,,,,,,,750.0,,,,607d6e86f96c147cf2b3223c,12:47:08,26/02/2024
html-keyboard-response,104,200437,0.0-44.0-3.0,,<div style='margin:auto;width: auto; font-size: 150%'><span style='font-weight: bold; font-size: 100px; color: red;'>0 points!</span><br><br></div>,,delaylearn,learning,feedback_image_window,VyAircIRMjS4AZt6yDct5uKKu4Y2,VyAircIRMjS4AZt6yDct5uKKu4Y2,,,,,,,,,,,,,,,,,,,,,607d6e86f96c147cf2b3223c,12:47:08,26/02/2024
html-keyboard-response,105,202503,0.0-45.0,,"<div style=""font-size:100px;"">+</div>",,delaylearn,learning,ITI,VyAircIRMjS4AZt6yDct5uKKu4Y2,VyAircIRMjS4AZt6yDct5uKKu4Y2,,,,,,,,,,,,,,,,,,2057.0,,,607d6e86f96c147cf2b3223c,12:47:08,26/02/2024
html-keyboard-response,106,203432,0.0-46.0-0.0,928.3000000119209,"<div style=""display: flex; flex-direction: column; align-items: center; margin-top: -40px;""><img src=""images/pattern_4.png"" style=""width: 234px; height: 230px; margin-top: -50px;""><div style=""display: flex; justify-content: space-between; margin-top: 33px;""><img src=""images/choice_trial_11.png"" style=""width: 408px; height: 417px; margin-right: 200px;""><img src=""images/choice_trial_4.png"" style=""width: 408px; height: 417px;""></div></div>",f,delaylearn,learning,trial,VyAircIRMjS4AZt6yDct5uKKu4Y2,VyAircIRMjS4AZt6yDct5uKKu4Y2,5.0,images/choice_trial_11.png,images/choice_trial_4.png,images/pattern_4.png,f,f,7000.0,11.0,4.0,3.0,20.0,1.0,1.0,11.0,140.0,,,,,,607d6e86f96c147cf2b3223c,12:47:08,26/02/2024
html-keyboard-response,107,204434,0.0-46.0-1.0,,"<div style=""display: flex; flex-direction: column; align-items: center; margin-top: -40px;""><img src=""images/pattern_4.png"" style=""width: 234px; height: 230px; margin-top: -50px;""><div style=""display: flex; justify-content: space-between; margin-top: 33px;""><img src=""images/choice_trial_11.png"" style=""width: 408px; height: 417px; margin-right: 608px;""></div></div>",,delaylearn,learning,display_response,VyAircIRMjS4AZt6yDct5uKKu4Y2,VyAircIRMjS4AZt6yDct5uKKu4Y2,,,,,,,,,,,,,,,,chosen stimuli: images/choice_trial_11.png,,,,,607d6e86f96c147cf2b3223c,12:47:08,26/02/2024
html-keyboard-response,108,211442,0.0-46.0-2.0,,,,delaylearn,learning,feedback_duration_window,VyAircIRMjS4AZt6yDct5uKKu4Y2,VyAircIRMjS4AZt6yDct5uKKu4Y2,,,,,,,,,,,,,,,,,7000.0,,,,607d6e86f96c147cf2b3223c,12:47:08,26/02/2024
html-keyboard-response,109,212948,0.0-46.0-3.0,,<div style='margin:auto;width: auto; font-size: 150%'><span style='font-weight: bold; font-size: 100px; color: green;'>+10 points!</span><br><br></div>,,delaylearn,learning,feedback_image_window,VyAircIRMjS4AZt6yDct5uKKu4Y2,VyAircIRMjS4AZt6yDct5uKKu4Y2,,,,,,,,,,,,,,,,,,,,,607d6e86f96c147cf2b3223c,12:47:08,26/02/2024
html-keyboard-response,110,213462,0.0-47.0-0.0,,,,,,mood_trial_fixation,VyAircIRMjS4AZt6yDct5uKKu4Y2,,,,,,,,,,,,,,,,,,,,,,607d6e86f96c147cf2b3223c,12:47:08,26/02/2024
lmdlab-html-vas-response,111,217321,0.0-47.0-1.0,2842.0,How happy are you right now?,0.5185185185185185,delaylearn,learning,mood_trial,VyAircIRMjS4AZt6yDct5uKKu4Y2,VyAircIRMjS4AZt6yDct5uKKu4Y2,,,,,,,,,,,,,,,,,,,"['Very unhappy', 'Very happy']",,607d6e86f96c147cf2b3223c,12:47:08,26/02/2024
html-keyboard-response,112,218844,0.0-48.0,,"<div style=""font-size:100px;"">+</div>",,delaylearn,learning,ITI,VyAircIRMjS4AZt6yDct5uKKu4Y2,VyAircIRMjS4AZt6yDct5uKKu4Y2,,,,,,,,,,,,,,,,,,1521.0,,,607d6e86f96c147cf2b3223c,12:47:08,26/02/2024
html-keyboard-response,113,220565,0.0-49.0-0.0,1720.0,"<div style=""display: flex; flex-direction: column; align-items: center; margin-top: -40px;""><img src=""images/pattern_7.png"" style=""width: 234px; height: 230px; margin-top: -50px;""><div style=""display: flex; justify-content: space-between; margin-top: 33px;""><img src=""images/choice_trial_10.png"" style=""width: 408px; height: 417px; margin-right: 200px;""><img src=""images/choice_trial_8.png"" style=""width: 408px; height: 417px;""></div></div>",f,delaylearn,learning,trial,VyAircIRMjS4AZt6yDct5uKKu4Y2,VyAircIRMjS4AZt6yDct5uKKu4Y2,5.0,images/choice_trial_10.png,images/choice_trial_8.png,images/pattern_7.png,j,j,750.0,10.0,8.0,6.0,21.0,0.0,0.0,10.0,140.0,,,,,,607d6e86f96c147cf2b3223c,12:47:08,26/02/2024
html-keyboard-response,114,221574,0.0-49.0-1.0,,"<div style=""display: flex; flex-direction: column; align-items: center; margin-top: -40px;""><img src=""images/pattern_7.png"" style=""width: 234px; height: 230px; margin-top: -50px;""><div style=""display: flex; justify-content: space-between; margin-top: 33px;""><img src=""images/choice_trial_10.png"" style=""width: 408px; height: 417px; margin-right: 608px;""></div></div>",,delaylearn,learning,display_response,VyAircIRMjS4AZt6yDct5uKKu4Y2,VyAircIRMjS4AZt6yDct5uKKu4Y2,,,,,,,,,,,,,,,,chosen stimuli: images/choice_trial_10.png,,,,,607d6e86f96c147cf2b3223c,12:47:08,26/02/2024
html-keyboard-response,115,222335,0.0-49.0-2.0,,,,delaylearn,learning,feedback_duration_window,VyAircIRMjS4AZt6yDct5uKKu4Y2,VyAircIRMjS4AZt6yDct5uKKu4Y2,,,,,,,,,,,,,,,,,750.0,,,,607d6e86f96c147cf2b3223c,12:47:08,26/02/2024
html-keyboard-response,116,223847,0.0-49.0-3.0,,<div style='margin:auto;width: auto; font-size: 150%'><span style='font-weight: bold; font-size: 100px; color: red;'>0 points!</span><br><br></div>,,delaylearn,learning,feedback_image_window,VyAircIRMjS4AZt6yDct5uKKu4Y2,VyAircIRMjS4AZt6yDct5uKKu4Y2,,,,,,,,,,,,,,,,,,,,,607d6e86f96c147cf2b3223c,12:47:08,26/02/2024
html-keyboard-response,117,226244,0.0-50.0,,"<div style=""font-size:100px;"">+</div>",,delaylearn,learning,ITI,VyAircIRMjS4AZt6yDct5uKKu4Y2,VyAircIRMjS4AZt6yDct5uKKu4Y2,,,,,,,,,,,,,,,,,,2387.0,,,607d6e86f96c147cf2b3223c,12:47:08,26/02/2024
html-keyboard-response,118,227304,0.0-51.0-0.0,1059.1000000238419,"<div style=""display: flex; flex-direction: column; align-items: center; margin-top: -40px;""><img src=""images/pattern_1.png"" style=""width: 234px; height: 230px; margin-top: -50px;""><div style=""display: flex; justify-content: space-between; margin-top: 33px;""><img src=""images/choice_trial_15.png"" style=""width: 408px; height: 417px; margin-right: 200px;""><img src=""images/choice_trial_6.png"" style=""width: 408px; height: 417px;""></div></div>",f,delaylearn,learning,trial,VyAircIRMjS4AZt6yDct5uKKu4Y2,VyAircIRMjS4AZt6yDct5uKKu4Y2,5.0,images/choice_trial_15.png,images/choice_trial_6.png,images/pattern_1.png,f,j,7000.0,15.0,6.0,1.0,22.0,0.0,1.0,15.0,150.0,,,,,,607d6e86f96c147cf2b3223c,12:47:08,26/02/2024
html-keyboard-response,119,228316,0.0-51.0-1.0,,"<div style=""display: flex; flex-direction: column; align-items: center; margin-top: -40px;""><img src=""images/pattern_1.png"" style=""width: 234px; height: 230px; margin-top: -50px;""><div style=""display: flex; justify-content: space-between; margin-top: 33px;""><img src=""images/choice_trial_15.png"" style=""width: 408px; height: 417px; margin-right: 608px;""></div></div>",,delaylearn,learning,display_response,VyAircIRMjS4AZt6yDct5uKKu4Y2,VyAircIRMjS4AZt6yDct5uKKu4Y2,,,,,,,,,,,,,,,,chosen stimuli: images/choice_trial_15.png,,,,,607d6e86f96c147cf2b3223c,12:47:08,26/02/2024
html-keyboard-response,120,235320,0.0-51.0-2.0,,,,delaylearn,learning,feedback_duration_window,VyAircIRMjS4AZt6yDct5uKKu4Y2,VyAircIRMjS4AZt6yDct5uKKu4Y2,,,,,,,,,,,,,,,,,7000.0,,,,607d6e86f96c147cf2b3223c,12:47:08,26/02/2024
html-keyboard-response,121,236826,0.0-51.0-3.0,,<div style='margin:auto;width: auto; font-size: 150%'><span style='font-weight: bold; font-size: 100px; color: green;'>+10 points!</span><br><br></div>,,delaylearn,learning,feedback_image_window,VyAircIRMjS4AZt6yDct5uKKu4Y2,VyAircIRMjS4AZt6yDct5uKKu4Y2,,,,,,,,,,,,,,,,,,,,,607d6e86f96c147cf2b3223c,12:47:08,26/02/2024
html-keyboard-response,122,239324,0.0-52.0,,"<div style=""font-size:100px;"">+</div>",,delaylearn,learning,ITI,VyAircIRMjS4AZt6yDct5uKKu4Y2,VyAircIRMjS4AZt6yDct5uKKu4Y2,,,,,,,,,,,,,,,,,,2486.0,,,607d6e86f96c147cf2b3223c,12:47:08,26/02/2024
html-keyboard-response,123,240339,0.0-53.0-0.0,1013.0999999642372,"<div style=""display: flex; flex-direction: column; align-items: center; margin-top: -40px;""><img src=""images/pattern_5.png"" style=""width: 234px; height: 230px; margin-top: -50px;""><div style=""display: flex; justify-content: space-between; margin-top: 33px;""><img src=""images/choice_trial_13.png"" style=""width: 408px; height: 417px; margin-right: 200px;""><img src=""images/choice_trial_7.png"" style=""width: 408px; height: 417px;""></div></div>",j,delaylearn,learning,trial,VyAircIRMjS4AZt6yDct5uKKu4Y2,VyAircIRMjS4AZt6yDct5uKKu4Y2,5.0,images/choice_trial_13.png,images/choice_trial_7.png,images/pattern_5.png,j,j,750.0,13.0,7.0,4.0,23.0,1.0,1.0,7.0,160.0,,,,,,607d6e86f96c147cf2b3223c,12:47:08,26/02/2024
html-keyboard-response,124,241355,0.0-53.0-1.0,,"<div style=""display: flex; flex-direction: column; align-items: center; margin-top: -40px;""><img src=""images/pattern_5.png"" style=""width: 234px; height: 230px; margin-top: -50px;""><div style=""display: flex; justify-content: space-between; margin-top: 33px;""><img src=""images/choice_trial_7.png"" style=""width: 408px; height: 417px; margin-left:608px;""></div></div>",,delaylearn,learning,display_response,VyAircIRMjS4AZt6yDct5uKKu4Y2,VyAircIRMjS4AZt6yDct5uKKu4Y2,,,,,,,,,,,,,,,,chosen stimuli: images/choice_trial_7.png,,,,,607d6e86f96c147cf2b3223c,12:47:08,26/02/2024
html-keyboard-response,125,242114,0.0-53.0-2.0,,,,delaylearn,learning,feedback_duration_window,VyAircIRMjS4AZt6yDct5uKKu4Y2,VyAircIRMjS4AZt6yDct5uKKu4Y2,,,,,,,,,,,,,,,,,750.0,,,,607d6e86f96c147cf2b3223c,12:47:08,26/02/2024
html-keyboard-response,126,243616,0.0-53.0-3.0,,<div style='margin:auto;width: auto; font-size: 150%'><span style='font-weight: bold; font-size: 100px; color: green;'>+10 points!</span><br><br></div>,,delaylearn,learning,feedback_image_window,VyAircIRMjS4AZt6yDct5uKKu4Y2,VyAircIRMjS4AZt6yDct5uKKu4Y2,,,,,,,,,,,,,,,,,,,,,607d6e86f96c147cf2b3223c,12:47:08,26/02/2024
html-keyboard-response,127,245243,0.0-54.0,,"<div style=""font-size:100px;"">+</div>",,delaylearn,learning,ITI,VyAircIRMjS4AZt6yDct5uKKu4Y2,VyAircIRMjS4AZt6yDct5uKKu4Y2,,,,,,,,,,,,,,,,,,1614.0,,,607d6e86f96c147cf2b3223c,12:47:08,26/02/2024
html-keyboard-response,128,246821,0.0-55.0-0.0,1576.7999999523163,"<div style=""display: flex; flex-direction: column; align-items: center; margin-top: -40px;""><img src=""images/pattern_3.png"" style=""width: 234px; height: 230px; margin-top: -50px;""><div style=""display: flex; justify-content: space-between; margin-top: 33px;""><img src=""images/choice_trial_2.png"" style=""width: 408px; height: 417px; margin-right: 200px;""><img src=""images/choice_trial_16.png"" style=""width: 408px; height: 417px;""></div></div>",f,delaylearn,learning,trial,VyAircIRMjS4AZt6yDct5uKKu4Y2,VyAircIRMjS4AZt6yDct5uKKu4Y2,5.0,images/choice_trial_2.png,images/choice_trial_16.png,images/pattern_3.png,j,j,7000.0,2.0,16.0,2.0,24.0,0.0,0.0,2.0,160.0,,,,,,607d6e86f96c147cf2b3223c,12:47:08,26/02/2024
html-keyboard-response,129,247833,0.0-55.0-1.0,,"<div style=""display: flex; flex-direction: column; align-items: center; margin-top: -40px;""><img src=""images/pattern_3.png"" style=""width: 234px; height: 230px; margin-top: -50px;""><div style=""display: flex; justify-content: space-between; margin-top: 33px;""><img src=""images/choice_trial_2.png"" style=""width: 408px; height: 417px; margin-right: 608px;""></div></div>",,delaylearn,learning,display_response,VyAircIRMjS4AZt6yDct5uKKu4Y2,VyAircIRMjS4AZt6yDct5uKKu4Y2,,,,,,,,,,,,,,,,chosen stimuli: images/choice_trial_2.png,,,,,607d6e86f96c147cf2b3223c,12:47:08,26/02/2024
html-keyboard-response,130,254842,0.0-55.0-2.0,,,,delaylearn,learning,feedback_duration_window,VyAircIRMjS4AZt6yDct5uKKu4Y2,VyAircIRMjS4AZt6yDct5uKKu4Y2,,,,,,,,,,,,,,,,,7000.0,,,,607d6e86f96c147cf2b3223c,12:47:08,26/02/2024
html-keyboard-response,131,256344,0.0-55.0-3.0,,<div style='margin:auto;width: auto; font-size: 150%'><span style='font-weight: bold; font-size: 100px; color: red;'>0 points!</span><br><br></div>,,delaylearn,learning,feedback_image_window,VyAircIRMjS4AZt6yDct5uKKu4Y2,VyAircIRMjS4AZt6yDct5uKKu4Y2,,,,,,,,,,,,,,,,,,,,,607d6e86f96c147cf2b3223c,12:47:08,26/02/2024
lmdlab-html-vas-response,132,262174,0.0-56.0-0.0,4317.0,*How <b><u>confident</u></b> are you feeling about your answers at this moment?*,0.2932098765432099,rewlearn,rate_confidence,,VyAircIRMjS4AZt6yDct5uKKu4Y2,VyAircIRMjS4AZt6yDct5uKKu4Y2,,,,,,,,,,,,,,,,,,,"['No confidence', 'Complete confidence']",,607d6e86f96c147cf2b3223c,12:47:08,26/02/2024
lmdlab-rest-trial-limit,133,371899,0.0-56.0-1.0,108210.19999998808,"<div style=""font-size:40px;""><b>Please take a break!</b><br><br><br><br><p>Great work: you earned undefined points.<br><br><br><p>You have completed part(s) 1 of 6.<br><br><br><br>When you are ready to continue<br><br><br>please click the button.</p><br><br>",0,delaylearn,learning,break,VyAircIRMjS4AZt6yDct5uKKu4Y2,VyAircIRMjS4AZt6yDct5uKKu4Y2,,,,,,,,,,,,,,,,,,,,0.0,607d6e86f96c147cf2b3223c,12:47:08,26/02/2024
html-keyboard-response,134,374903,0.0-56.0-2.0,,"<div style=""font-size:100px;"">+</div>",,delaylearn,learning,pre_fixation,VyAircIRMjS4AZt6yDct5uKKu4Y2,,,,,,,,,,,,,,,,,,,,,,607d6e86f96c147cf2b3223c,12:47:08,26/02/2024
lmdlab-html-vas-response,135,378376,0.0-56.0-3.0-0.0,2467.0,How happy are you right now?,0.5169753086419753,delaylearn,learning,mood_baseline,VyAircIRMjS4AZt6yDct5uKKu4Y2,VyAircIRMjS4AZt6yDct5uKKu4Y2,,,,,,,,,,,,,,,,,,,"['Very unhappy', 'Very happy']",,607d6e86f96c147cf2b3223c,12:47:08,26/02/2024
html-keyboard-response,136,379889,0.0-56.0-3.0-1.0,,,,,,mood_baseline_fixation,VyAircIRMjS4AZt6yDct5uKKu4Y2,,,,,,,,,,,,,,,,,,,,,,607d6e86f96c147cf2b3223c,12:47:08,26/02/2024
html-keyboard-response,137,381543,0.0-57.0,,"<div style=""font-size:100px;"">+</div>",,delaylearn,learning,ITI,VyAircIRMjS4AZt6yDct5uKKu4Y2,VyAircIRMjS4AZt6yDct5uKKu4Y2,,,,,,,,,,,,,,,,,,1650.0,,,607d6e86f96c147cf2b3223c,12:47:08,26/02/2024
html-keyboard-response,138,383189,0.0-58.0-0.0,1645.0,"<div style=""display: flex; flex-direction: column; align-items: center; margin-top: -40px;""><img src=""images/pattern_7.png"" style=""width: 234px; height: 230px; margin-top: -50px;""><div style=""display: flex; justify-content: space-between; margin-top: 33px;""><img src=""images/choice_trial_10.png"" style=""width: 408px; height: 417px; margin-right: 200px;""><img src=""images/choice_trial_8.png"" style=""width: 408px; height: 417px;""></div></div>",f,delaylearn,learning,trial,VyAircIRMjS4AZt6yDct5uKKu4Y2,VyAircIRMjS4AZt6yDct5uKKu4Y2,5.0,images/choice_trial_10.png,images/choice_trial_8.png,images/pattern_7.png,j,j,750.0,10.0,8.0,6.0,25.0,0.0,0.0,10.0,160.0,,,,,,607d6e86f96c147cf2b3223c,12:47:08,26/02/2024
html-keyboard-response,139,384203,0.0-58.0-1.0,,"<div style=""display: flex; flex-direction: column; align-items: center; margin-top: -40px;""><img src=""images/pattern_7.png"" style=""width: 234px; height: 230px; margin-top: -50px;""><div style=""display: flex; justify-content: space-between; margin-top: 33px;""><img src=""images/choice_trial_10.png"" style=""width: 408px; height: 417px; margin-right: 608px;""></div></div>",,delaylearn,learning,display_response,VyAircIRMjS4AZt6yDct5uKKu4Y2,VyAircIRMjS4AZt6yDct5uKKu4Y2,,,,,,,,,,,,,,,,chosen stimuli: images/choice_trial_10.png,,,,,607d6e86f96c147cf2b3223c,12:47:08,26/02/2024
html-keyboard-response,140,384956,0.0-58.0-2.0,,,,delaylearn,learning,feedback_duration_window,VyAircIRMjS4AZt6yDct5uKKu4Y2,VyAircIRMjS4AZt6yDct5uKKu4Y2,,,,,,,,,,,,,,,,,750.0,,,,607d6e86f96c147cf2b3223c,12:47:08,26/02/2024
html-keyboard-response,141,386460,0.0-58.0-3.0,,<div style='margin:auto;width: auto; font-size: 150%'><span style='font-weight: bold; font-size: 100px; color: red;'>0 points!</span><br><br></div>,,delaylearn,learning,feedback_image_window,VyAircIRMjS4AZt6yDct5uKKu4Y2,VyAircIRMjS4AZt6yDct5uKKu4Y2,,,,,,,,,,,,,,,,,,,,,607d6e86f96c147cf2b3223c,12:47:08,26/02/2024
html-keyboard-response,142,386960,0.0-59.0-0.0,,,,,,mood_trial_fixation,VyAircIRMjS4AZt6yDct5uKKu4Y2,,,,,,,,,,,,,,,,,,,,,,607d6e86f96c147cf2b3223c,12:47:08,26/02/2024
lmdlab-html-vas-response,143,389971,0.0-59.0-1.0,2001.0,How happy are you right now?,0.4799382716049383,delaylearn,learning,mood_trial,VyAircIRMjS4AZt6yDct5uKKu4Y2,VyAircIRMjS4AZt6yDct5uKKu4Y2,,,,,,,,,,,,,,,,,,,"['Very unhappy', 'Very happy']",,607d6e86f96c147cf2b3223c,12:47:08,26/02/2024
html-keyboard-response,144,391737,0.0-60.0,,"<div style=""font-size:100px;"">+</div>",,delaylearn,learning,ITI,VyAircIRMjS4AZt6yDct5uKKu4Y2,VyAircIRMjS4AZt6yDct5uKKu4Y2,,,,,,,,,,,,,,,,,,1753.0,,,607d6e86f96c147cf2b3223c,12:47:08,26/02/2024
html-keyboard-response,145,392980,0.0-61.0-0.0,1242.4000000357628,"<div style=""display: flex; flex-direction: column; align-items: center; margin-top: -40px;""><img src=""images/pattern_1.png"" style=""width: 234px; height: 230px; margin-top: -50px;""><div style=""display: flex; justify-content: space-between; margin-top: 33px;""><img src=""images/choice_trial_6.png"" style=""width: 408px; height: 417px; margin-right: 200px;""><img src=""images/choice_trial_15.png"" style=""width: 408px; height: 417px;""></div></div>",j,delaylearn,learning,trial,VyAircIRMjS4AZt6yDct5uKKu4Y2,VyAircIRMjS4AZt6yDct5uKKu4Y2,5.0,images/choice_trial_6.png,images/choice_trial_15.png,images/pattern_1.png,f,f,7000.0,6.0,15.0,1.0,26.0,0.0,0.0,15.0,160.0,,,,,,607d6e86f96c147cf2b3223c,12:47:08,26/02/2024
html-keyboard-response,146,393984,0.0-61.0-1.0,,"<div style=""display: flex; flex-direction: column; align-items: center; margin-top: -40px;""><img src=""images/pattern_1.png"" style=""width: 234px; height: 230px; margin-top: -50px;""><div style=""display: flex; justify-content: space-between; margin-top: 33px;""><img src=""images/choice_trial_15.png"" style=""width: 408px; height: 417px; margin-left:608px;""></div></div>",,delaylearn,learning,display_response,VyAircIRMjS4AZt6yDct5uKKu4Y2,VyAircIRMjS4AZt6yDct5uKKu4Y2,,,,,,,,,,,,,,,,chosen stimuli: images/choice_trial_15.png,,,,,607d6e86f96c147cf2b3223c,12:47:08,26/02/2024
html-keyboard-response,147,400986,0.0-61.0-2.0,,,,delaylearn,learning,feedback_duration_window,VyAircIRMjS4AZt6yDct5uKKu4Y2,VyAircIRMjS4AZt6yDct5uKKu4Y2,,,,,,,,,,,,,,,,,7000.0,,,,607d6e86f96c147cf2b3223c,12:47:08,26/02/2024
html-keyboard-response,148,402502,0.0-61.0-3.0,,<div style='margin:auto;width: auto; font-size: 150%'><span style='font-weight: bold; font-size: 100px; color: red;'>0 points!</span><br><br></div>,,delaylearn,learning,feedback_image_window,VyAircIRMjS4AZt6yDct5uKKu4Y2,VyAircIRMjS4AZt6yDct5uKKu4Y2,,,,,,,,,,,,,,,,,,,,,607d6e86f96c147cf2b3223c,12:47:08,26/02/2024
html-keyboard-response,149,404061,0.0-62.0,,"<div style=""font-size:100px;"">+</div>",,delaylearn,learning,ITI,VyAircIRMjS4AZt6yDct5uKKu4Y2,VyAircIRMjS4AZt6yDct5uKKu4Y2,,,,,,,,,,,,,,,,,,1551.0,,,607d6e86f96c147cf2b3223c,12:47:08,26/02/2024
html-keyboard-response,150,404886,0.0-63.0-0.0,823.6000000238419,"<div style=""display: flex; flex-direction: column; align-items: center; margin-top: -40px;""><img src=""images/pattern_5.png"" style=""width: 234px; height: 230px; margin-top: -50px;""><div style=""display: flex; justify-content: space-between; margin-top: 33px;""><img src=""images/choice_trial_7.png"" style=""width: 408px; height: 417px; margin-right: 200px;""><img src=""images/choice_trial_13.png"" style=""width: 408px; height: 417px;""></div></div>",f,delaylearn,learning,trial,VyAircIRMjS4AZt6yDct5uKKu4Y2,VyAircIRMjS4AZt6yDct5uKKu4Y2,5.0,images/choice_trial_7.png,images/choice_trial_13.png,images/pattern_5.png,f,f,750.0,7.0,13.0,4.0,27.0,1.0,1.0,7.0,170.0,,,,,,607d6e86f96c147cf2b3223c,12:47:08,26/02/2024
html-keyboard-response,151,405891,0.0-63.0-1.0,,"<div style=""display: flex; flex-direction: column; align-items: center; margin-top: -40px;""><img src=""images/pattern_5.png"" style=""width: 234px; height: 230px; margin-top: -50px;""><div style=""display: flex; justify-content: space-between; margin-top: 33px;""><img src=""images/choice_trial_7.png"" style=""width: 408px; height: 417px; margin-right: 608px;""></div></div>",,delaylearn,learning,display_response,VyAircIRMjS4AZt6yDct5uKKu4Y2,VyAircIRMjS4AZt6yDct5uKKu4Y2,,,,,,,,,,,,,,,,chosen stimuli: images/choice_trial_7.png,,,,,607d6e86f96c147cf2b3223c,12:47:08,26/02/2024
html-keyboard-response,152,406650,0.0-63.0-2.0,,,,delaylearn,learning,feedback_duration_window,VyAircIRMjS4AZt6yDct5uKKu4Y2,VyAircIRMjS4AZt6yDct5uKKu4Y2,,,,,,,,,,,,,,,,,750.0,,,,607d6e86f96c147cf2b3223c,12:47:08,26/02/2024
html-keyboard-response,153,408163,0.0-63.0-3.0,,<div style='margin:auto;width: auto; font-size: 150%'><span style='font-weight: bold; font-size: 100px; color: green;'>+10 points!</span><br><br></div>,,delaylearn,learning,feedback_image_window,VyAircIRMjS4AZt6yDct5uKKu4Y2,VyAircIRMjS4AZt6yDct5uKKu4Y2,,,,,,,,,,,,,,,,,,,,,607d6e86f96c147cf2b3223c,12:47:08,26/02/2024
html-keyboard-response,154,409999,0.0-64.0,,"<div style=""font-size:100px;"">+</div>",,delaylearn,learning,ITI,VyAircIRMjS4AZt6yDct5uKKu4Y2,VyAircIRMjS4AZt6yDct5uKKu4Y2,,,,,,,,,,,,,,,,,,1832.0,,,607d6e86f96c147cf2b3223c,12:47:08,26/02/2024
html-keyboard-response,155,411236,0.0-65.0-0.0,1235.7000000476837,"<div style=""display: flex; flex-direction: column; align-items: center; margin-top: -40px;""><img src=""images/pattern_6.png"" style=""width: 234px; height: 230px; margin-top: -50px;""><div style=""display: flex; justify-content: space-between; margin-top: 33px;""><img src=""images/choice_trial_9.png"" style=""width: 408px; height: 417px; margin-right: 200px;""><img src=""images/choice_trial_14.png"" style=""width: 408px; height: 417px;""></div></div>",f,delaylearn,learning,trial,VyAircIRMjS4AZt6yDct5uKKu4Y2,VyAircIRMjS4AZt6yDct5uKKu4Y2,5.0,images/choice_trial_9.png,images/choice_trial_14.png,images/pattern_6.png,j,j,750.0,9.0,14.0,5.0,28.0,0.0,0.0,9.0,170.0,,,,,,607d6e86f96c147cf2b3223c,12:47:08,26/02/2024
html-keyboard-response,156,412245,0.0-65.0-1.0,,"<div style=""display: flex; flex-direction: column; align-items: center; margin-top: -40px;""><img src=""images/pattern_6.png"" style=""width: 234px; height: 230px; margin-top: -50px;""><div style=""display: flex; justify-content: space-between; margin-top: 33px;""><img src=""images/choice_trial_9.png"" style=""width: 408px; height: 417px; margin-right: 608px;""></div></div>",,delaylearn,learning,display_response,VyAircIRMjS4AZt6yDct5uKKu4Y2,VyAircIRMjS4AZt6yDct5uKKu4Y2,,,,,,,,,,,,,,,,chosen stimuli: images/choice_trial_9.png,,,,,607d6e86f96c147cf2b3223c,12:47:08,26/02/2024
html-keyboard-response,157,413007,0.0-65.0-2.0,,,,delaylearn,learning,feedback_duration_window,VyAircIRMjS4AZt6yDct5uKKu4Y2,VyAircIRMjS4AZt6yDct5uKKu4Y2,,,,,,,,,,,,,,,,,750.0,,,,607d6e86f96c147cf2b3223c,12:47:08,26/02/2024
html-keyboard-response,158,414510,0.0-65.0-3.0,,<div style='margin:auto;width: auto; font-size: 150%'><span style='font-weight: bold; font-size: 100px; color: red;'>0 points!</span><br><br></div>,,delaylearn,learning,feedback_image_window,VyAircIRMjS4AZt6yDct5uKKu4Y2,VyAircIRMjS4AZt6yDct5uKKu4Y2,,,,,,,,,,,,,,,,,,,,,607d6e86f96c147cf2b3223c,12:47:08,26/02/2024
html-keyboard-response,159,415021,0.0-66.0-0.0,,,,,,mood_trial_fixation,VyAircIRMjS4AZt6yDct5uKKu4Y2,,,,,,,,,,,,,,,,,,,,,,607d6e86f96c147cf2b3223c,12:47:08,26/02/2024
lmdlab-html-vas-response,160,418265,0.0-66.0-1.0,2239.0,How happy are you right now?,0.5138888888888888,delaylearn,learning,mood_trial,VyAircIRMjS4AZt6yDct5uKKu4Y2,VyAircIRMjS4AZt6yDct5uKKu4Y2,,,,,,,,,,,,,,,,,,,"['Very unhappy', 'Very happy']",,607d6e86f96c147cf2b3223c,12:47:08,26/02/2024
html-keyboard-response,161,420128,0.0-67.0,,"<div style=""font-size:100px;"">+</div>",,delaylearn,learning,ITI,VyAircIRMjS4AZt6yDct5uKKu4Y2,VyAircIRMjS4AZt6yDct5uKKu4Y2,,,,,,,,,,,,,,,,,,1855.0,,,607d6e86f96c147cf2b3223c,12:47:08,26/02/2024
html-keyboard-response,162,421419,0.0-68.0-0.0,1289.5,"<div style=""display: flex; flex-direction: column; align-items: center; margin-top: -40px;""><img src=""images/pattern_4.png"" style=""width: 234px; height: 230px; margin-top: -50px;""><div style=""display: flex; justify-content: space-between; margin-top: 33px;""><img src=""images/choice_trial_4.png"" style=""width: 408px; height: 417px; margin-right: 200px;""><img src=""images/choice_trial_11.png"" style=""width: 408px; height: 417px;""></div></div>",j,delaylearn,learning,trial,VyAircIRMjS4AZt6yDct5uKKu4Y2,VyAircIRMjS4AZt6yDct5uKKu4Y2,5.0,images/choice_trial_4.png,images/choice_trial_11.png,images/pattern_4.png,j,j,7000.0,4.0,11.0,3.0,29.0,1.0,1.0,11.0,180.0,,,,,,607d6e86f96c147cf2b3223c,12:47:08,26/02/2024
html-keyboard-response,163,422423,0.0-68.0-1.0,,"<div style=""display: flex; flex-direction: column; align-items: center; margin-top: -40px;""><img src=""images/pattern_4.png"" style=""width: 234px; height: 230px; margin-top: -50px;""><div style=""display: flex; justify-content: space-between; margin-top: 33px;""><img src=""images/choice_trial_11.png"" style=""width: 408px; height: 417px; margin-left:608px;""></div></div>",,delaylearn,learning,display_response,VyAircIRMjS4AZt6yDct5uKKu4Y2,VyAircIRMjS4AZt6yDct5uKKu4Y2,,,,,,,,,,,,,,,,chosen stimuli: images/choice_trial_11.png,,,,,607d6e86f96c147cf2b3223c,12:47:08,26/02/2024
html-keyboard-response,164,429430,0.0-68.0-2.0,,,,delaylearn,learning,feedback_duration_window,VyAircIRMjS4AZt6yDct5uKKu4Y2,VyAircIRMjS4AZt6yDct5uKKu4Y2,,,,,,,,,,,,,,,,,7000.0,,,,607d6e86f96c147cf2b3223c,12:47:08,26/02/2024
html-keyboard-response,165,430945,0.0-68.0-3.0,,<div style='margin:auto;width: auto; font-size: 150%'><span style='font-weight: bold; font-size: 100px; color: green;'>+10 points!</span><br><br></div>,,delaylearn,learning,feedback_image_window,VyAircIRMjS4AZt6yDct5uKKu4Y2,VyAircIRMjS4AZt6yDct5uKKu4Y2,,,,,,,,,,,,,,,,,,,,,607d6e86f96c147cf2b3223c,12:47:08,26/02/2024
html-keyboard-response,166,432911,0.0-69.0,,"<div style=""font-size:100px;"">+</div>",,delaylearn,learning,ITI,VyAircIRMjS4AZt6yDct5uKKu4Y2,VyAircIRMjS4AZt6yDct5uKKu4Y2,,,,,,,,,,,,,,,,,,1958.0,,,607d6e86f96c147cf2b3223c,12:47:08,26/02/2024
html-keyboard-response,167,435173,0.0-70.0-0.0,2260.599999964237,"<div style=""display: flex; flex-direction: column; align-items: center; margin-top: -40px;""><img src=""images/pattern_3.png"" style=""width: 234px; height: 230px; margin-top: -50px;""><div style=""display: flex; justify-content: space-between; margin-top: 33px;""><img src=""images/choice_trial_2.png"" style=""width: 408px; height: 417px; margin-right: 200px;""><img src=""images/choice_trial_16.png"" style=""width: 408px; height: 417px;""></div></div>",j,delaylearn,learning,trial,VyAircIRMjS4AZt6yDct5uKKu4Y2,VyAircIRMjS4AZt6yDct5uKKu4Y2,5.0,images/choice_trial_2.png,images/choice_trial_16.png,images/pattern_3.png,j,j,7000.0,2.0,16.0,2.0,30.0,1.0,1.0,16.0,190.0,,,,,,607d6e86f96c147cf2b3223c,12:47:08,26/02/2024
html-keyboard-response,168,436187,0.0-70.0-1.0,,"<div style=""display: flex; flex-direction: column; align-items: center; margin-top: -40px;""><img src=""images/pattern_3.png"" style=""width: 234px; height: 230px; margin-top: -50px;""><div style=""display: flex; justify-content: space-between; margin-top: 33px;""><img src=""images/choice_trial_16.png"" style=""width: 408px; height: 417px; margin-left:608px;""></div></div>",,delaylearn,learning,display_response,VyAircIRMjS4AZt6yDct5uKKu4Y2,VyAircIRMjS4AZt6yDct5uKKu4Y2,,,,,,,,,,,,,,,,chosen stimuli: images/choice_trial_16.png,,,,,607d6e86f96c147cf2b3223c,12:47:08,26/02/2024
html-keyboard-response,169,443194,0.0-70.0-2.0,,,,delaylearn,learning,feedback_duration_window,VyAircIRMjS4AZt6yDct5uKKu4Y2,VyAircIRMjS4AZt6yDct5uKKu4Y2,,,,,,,,,,,,,,,,,7000.0,,,,607d6e86f96c147cf2b3223c,12:47:08,26/02/2024
html-keyboard-response,170,444707,0.0-70.0-3.0,,<div style='margin:auto;width: auto; font-size: 150%'><span style='font-weight: bold; font-size: 100px; color: green;'>+10 points!</span><br><br></div>,,delaylearn,learning,feedback_image_window,VyAircIRMjS4AZt6yDct5uKKu4Y2,VyAircIRMjS4AZt6yDct5uKKu4Y2,,,,,,,,,,,,,,,,,,,,,607d6e86f96c147cf2b3223c,12:47:08,26/02/2024
html-keyboard-response,171,447083,0.0-71.0,,"<div style=""font-size:100px;"">+</div>",,delaylearn,learning,ITI,VyAircIRMjS4AZt6yDct5uKKu4Y2,VyAircIRMjS4AZt6yDct5uKKu4Y2,,,,,,,,,,,,,,,,,,2372.0,,,607d6e86f96c147cf2b3223c,12:47:08,26/02/2024
html-keyboard-response,172,447952,0.0-72.0-0.0,867.5,"<div style=""display: flex; flex-direction: column; align-items: center; margin-top: -40px;""><img src=""images/pattern_5.png"" style=""width: 234px; height: 230px; margin-top: -50px;""><div style=""display: flex; justify-content: space-between; margin-top: 33px;""><img src=""images/choice_trial_7.png"" style=""width: 408px; height: 417px; margin-right: 200px;""><img src=""images/choice_trial_13.png"" style=""width: 408px; height: 417px;""></div></div>",f,delaylearn,learning,trial,VyAircIRMjS4AZt6yDct5uKKu4Y2,VyAircIRMjS4AZt6yDct5uKKu4Y2,5.0,images/choice_trial_7.png,images/choice_trial_13.png,images/pattern_5.png,j,f,750.0,7.0,13.0,4.0,31.0,1.0,0.0,7.0,190.0,,,,,,607d6e86f96c147cf2b3223c,12:47:08,26/02/2024
html-keyboard-response,173,448956,0.0-72.0-1.0,,"<div style=""display: flex; flex-direction: column; align-items: center; margin-top: -40px;""><img src=""images/pattern_5.png"" style=""width: 234px; height: 230px; margin-top: -50px;""><div style=""display: flex; justify-content: space-between; margin-top: 33px;""><img src=""images/choice_trial_7.png"" style=""width: 408px; height: 417px; margin-right: 608px;""></div></div>",,delaylearn,learning,display_response,VyAircIRMjS4AZt6yDct5uKKu4Y2,VyAircIRMjS4AZt6yDct5uKKu4Y2,,,,,,,,,,,,,,,,chosen stimuli: images/choice_trial_7.png,,,,,607d6e86f96c147cf2b3223c,12:47:08,26/02/2024
html-keyboard-response,174,449712,0.0-72.0-2.0,,,,delaylearn,learning,feedback_duration_window,VyAircIRMjS4AZt6yDct5uKKu4Y2,VyAircIRMjS4AZt6yDct5uKKu4Y2,,,,,,,,,,,,,,,,,750.0,,,,607d6e86f96c147cf2b3223c,12:47:08,26/02/2024
html-keyboard-response,175,451224,0.0-72.0-3.0,,<div style='margin:auto;width: auto; font-size: 150%'><span style='font-weight: bold; font-size: 100px; color: red;'>0 points!</span><br><br></div>,,delaylearn,learning,feedback_image_window,VyAircIRMjS4AZt6yDct5uKKu4Y2,VyAircIRMjS4AZt6yDct5uKKu4Y2,,,,,,,,,,,,,,,,,,,,,607d6e86f96c147cf2b3223c,12:47:08,26/02/2024
html-keyboard-response,176,453400,0.0-73.0,,"<div style=""font-size:100px;"">+</div>",,delaylearn,learning,ITI,VyAircIRMjS4AZt6yDct5uKKu4Y2,VyAircIRMjS4AZt6yDct5uKKu4Y2,,,,,,,,,,,,,,,,,,2168.0,,,607d6e86f96c147cf2b3223c,12:47:08,26/02/2024
html-keyboard-response,177,454905,0.0-74.0-0.0,1503.7000000476837,"<div style=""display: flex; flex-direction: column; align-items: center; margin-top: -40px;""><img src=""images/pattern_1.png"" style=""width: 234px; height: 230px; margin-top: -50px;""><div style=""display: flex; justify-content: space-between; margin-top: 33px;""><img src=""images/choice_trial_6.png"" style=""width: 408px; height: 417px; margin-right: 200px;""><img src=""images/choice_trial_15.png"" style=""width: 408px; height: 417px;""></div></div>",j,delaylearn,learning,trial,VyAircIRMjS4AZt6yDct5uKKu4Y2,VyAircIRMjS4AZt6yDct5uKKu4Y2,5.0,images/choice_trial_6.png,images/choice_trial_15.png,images/pattern_1.png,f,f,7000.0,6.0,15.0,1.0,32.0,0.0,0.0,15.0,190.0,,,,,,607d6e86f96c147cf2b3223c,12:47:08,26/02/2024
html-keyboard-response,178,455910,0.0-74.0-1.0,,"<div style=""display: flex; flex-direction: column; align-items: center; margin-top: -40px;""><img src=""images/pattern_1.png"" style=""width: 234px; height: 230px; margin-top: -50px;""><div style=""display: flex; justify-content: space-between; margin-top: 33px;""><img src=""images/choice_trial_15.png"" style=""width: 408px; height: 417px; margin-left:608px;""></div></div>",,delaylearn,learning,display_response,VyAircIRMjS4AZt6yDct5uKKu4Y2,VyAircIRMjS4AZt6yDct5uKKu4Y2,,,,,,,,,,,,,,,,chosen stimuli: images/choice_trial_15.png,,,,,607d6e86f96c147cf2b3223c,12:47:08,26/02/2024
html-keyboard-response,179,462918,0.0-74.0-2.0,,,,delaylearn,learning,feedback_duration_window,VyAircIRMjS4AZt6yDct5uKKu4Y2,VyAircIRMjS4AZt6yDct5uKKu4Y2,,,,,,,,,,,,,,,,,7000.0,,,,607d6e86f96c147cf2b3223c,12:47:08,26/02/2024
html-keyboard-response,180,464430,0.0-74.0-3.0,,<div style='margin:auto;width: auto; font-size: 150%'><span style='font-weight: bold; font-size: 100px; color: red;'>0 points!</span><br><br></div>,,delaylearn,learning,feedback_image_window,VyAircIRMjS4AZt6yDct5uKKu4Y2,VyAircIRMjS4AZt6yDct5uKKu4Y2,,,,,,,,,,,,,,,,,,,,,607d6e86f96c147cf2b3223c,12:47:08,26/02/2024
html-keyboard-response,181,464941,0.0-75.0-0.0,,,,,,mood_trial_fixation,VyAircIRMjS4AZt6yDct5uKKu4Y2,,,,,,,,,,,,,,,,,,,,,,607d6e86f96c147cf2b3223c,12:47:08,26/02/2024
lmdlab-html-vas-response,182,469434,0.0-75.0-1.0,3485.0,How happy are you right now?,0.5324074074074074,delaylearn,learning,mood_trial,VyAircIRMjS4AZt6yDct5uKKu4Y2,VyAircIRMjS4AZt6yDct5uKKu4Y2,,,,,,,,,,,,,,,,,,,"['Very unhappy', 'Very happy']",,607d6e86f96c147cf2b3223c,12:47:08,26/02/2024
html-keyboard-response,183,471498,0.0-76.0,,"<div style=""font-size:100px;"">+</div>",,delaylearn,learning,ITI,VyAircIRMjS4AZt6yDct5uKKu4Y2,VyAircIRMjS4AZt6yDct5uKKu4Y2,,,,,,,,,,,,,,,,,,2054.0,,,607d6e86f96c147cf2b3223c,12:47:08,26/02/2024
html-keyboard-response,184,473337,0.0-77.0-0.0,1837.2000000476837,"<div style=""display: flex; flex-direction: column; align-items: center; margin-top: -40px;""><img src=""images/pattern_6.png"" style=""width: 234px; height: 230px; margin-top: -50px;""><div style=""display: flex; justify-content: space-between; margin-top: 33px;""><img src=""images/choice_trial_14.png"" style=""width: 408px; height: 417px; margin-right: 200px;""><img src=""images/choice_trial_9.png"" style=""width: 408px; height: 417px;""></div></div>",f,delaylearn,learning,trial,VyAircIRMjS4AZt6yDct5uKKu4Y2,VyAircIRMjS4AZt6yDct5uKKu4Y2,5.0,images/choice_trial_14.png,images/choice_trial_9.png,images/pattern_6.png,j,f,750.0,14.0,9.0,5.0,33.0,1.0,0.0,14.0,190.0,,,,,,607d6e86f96c147cf2b3223c,12:47:08,26/02/2024
html-keyboard-response,185,474344,0.0-77.0-1.0,,"<div style=""display: flex; flex-direction: column; align-items: center; margin-top: -40px;""><img src=""images/pattern_6.png"" style=""width: 234px; height: 230px; margin-top: -50px;""><div style=""display: flex; justify-content: space-between; margin-top: 33px;""><img src=""images/choice_trial_14.png"" style=""width: 408px; height: 417px; margin-right: 608px;""></div></div>",,delaylearn,learning,display_response,VyAircIRMjS4AZt6yDct5uKKu4Y2,VyAircIRMjS4AZt6yDct5uKKu4Y2,,,,,,,,,,,,,,,,chosen stimuli: images/choice_trial_14.png,,,,,607d6e86f96c147cf2b3223c,12:47:08,26/02/2024
html-keyboard-response,186,475100,0.0-77.0-2.0,,,,delaylearn,learning,feedback_duration_window,VyAircIRMjS4AZt6yDct5uKKu4Y2,VyAircIRMjS4AZt6yDct5uKKu4Y2,,,,,,,,,,,,,,,,,750.0,,,,607d6e86f96c147cf2b3223c,12:47:08,26/02/2024
html-keyboard-response,187,476609,0.0-77.0-3.0,,<div style='margin:auto;width: auto; font-size: 150%'><span style='font-weight: bold; font-size: 100px; color: red;'>0 points!</span><br><br></div>,,delaylearn,learning,feedback_image_window,VyAircIRMjS4AZt6yDct5uKKu4Y2,VyAircIRMjS4AZt6yDct5uKKu4Y2,,,,,,,,,,,,,,,,,,,,,607d6e86f96c147cf2b3223c,12:47:08,26/02/2024
html-keyboard-response,188,478669,0.0-78.0,,"<div style=""font-size:100px;"">+</div>",,delaylearn,learning,ITI,VyAircIRMjS4AZt6yDct5uKKu4Y2,VyAircIRMjS4AZt6yDct5uKKu4Y2,,,,,,,,,,,,,,,,,,2056.0,,,607d6e86f96c147cf2b3223c,12:47:08,26/02/2024
html-keyboard-response,189,479919,0.0-79.0-0.0,1248.5,"<div style=""display: flex; flex-direction: column; align-items: center; margin-top: -40px;""><img src=""images/pattern_3.png"" style=""width: 234px; height: 230px; margin-top: -50px;""><div style=""display: flex; justify-content: space-between; margin-top: 33px;""><img src=""images/choice_trial_2.png"" style=""width: 408px; height: 417px; margin-right: 200px;""><img src=""images/choice_trial_16.png"" style=""width: 408px; height: 417px;""></div></div>",f,delaylearn,learning,trial,VyAircIRMjS4AZt6yDct5uKKu4Y2,VyAircIRMjS4AZt6yDct5uKKu4Y2,5.0,images/choice_trial_2.png,images/choice_trial_16.png,images/pattern_3.png,j,j,7000.0,2.0,16.0,2.0,34.0,0.0,0.0,2.0,190.0,,,,,,607d6e86f96c147cf2b3223c,12:47:08,26/02/2024
html-keyboard-response,190,480930,0.0-79.0-1.0,,"<div style=""display: flex; flex-direction: column; align-items: center; margin-top: -40px;""><img src=""images/pattern_3.png"" style=""width: 234px; height: 230px; margin-top: -50px;""><div style=""display: flex; justify-content: space-between; margin-top: 33px;""><img src=""images/choice_trial_2.png"" style=""width: 408px; height: 417px; margin-right: 608px;""></div></div>",,delaylearn,learning,display_response,VyAircIRMjS4AZt6yDct5uKKu4Y2,VyAircIRMjS4AZt6yDct5uKKu4Y2,,,,,,,,,,,,,,,,chosen stimuli: images/choice_trial_2.png,,,,,607d6e86f96c147cf2b3223c,12:47:08,26/02/2024
html-keyboard-response,191,487939,0.0-79.0-2.0,,,,delaylearn,learning,feedback_duration_window,VyAircIRMjS4AZt6yDct5uKKu4Y2,VyAircIRMjS4AZt6yDct5uKKu4Y2,,,,,,,,,,,,,,,,,7000.0,,,,607d6e86f96c147cf2b3223c,12:47:08,26/02/2024
html-keyboard-response,192,489455,0.0-79.0-3.0,,<div style='margin:auto;width: auto; font-size: 150%'><span style='font-weight: bold; font-size: 100px; color: red;'>0 points!</span><br><br></div>,,delaylearn,learning,feedback_image_window,VyAircIRMjS4AZt6yDct5uKKu4Y2,VyAircIRMjS4AZt6yDct5uKKu4Y2,,,,,,,,,,,,,,,,,,,,,607d6e86f96c147cf2b3223c,12:47:08,26/02/2024
html-keyboard-response,193,491429,0.0-80.0,,"<div style=""font-size:100px;"">+</div>",,delaylearn,learning,ITI,VyAircIRMjS4AZt6yDct5uKKu4Y2,VyAircIRMjS4AZt6yDct5uKKu4Y2,,,,,,,,,,,,,,,,,,1968.0,,,607d6e86f96c147cf2b3223c,12:47:08,26/02/2024
html-keyboard-response,194,492732,0.0-81.0-0.0,1301.300000011921,"<div style=""display: flex; flex-direction: column; align-items: center; margin-top: -40px;""><img src=""images/pattern_4.png"" style=""width: 234px; height: 230px; margin-top: -50px;""><div style=""display: flex; justify-content: space-between; margin-top: 33px;""><img src=""images/choice_trial_4.png"" style=""width: 408px; height: 417px; margin-right: 200px;""><img src=""images/choice_trial_11.png"" style=""width: 408px; height: 417px;""></div></div>",j,delaylearn,learning,trial,VyAircIRMjS4AZt6yDct5uKKu4Y2,VyAircIRMjS4AZt6yDct5uKKu4Y2,5.0,images/choice_trial_4.png,images/choice_trial_11.png,images/pattern_4.png,f,j,7000.0,4.0,11.0,3.0,35.0,1.0,0.0,11.0,190.0,,,,,,607d6e86f96c147cf2b3223c,12:47:08,26/02/2024
html-keyboard-response,195,493735,0.0-81.0-1.0,,"<div style=""display: flex; flex-direction: column; align-items: center; margin-top: -40px;""><img src=""images/pattern_4.png"" style=""width: 234px; height: 230px; margin-top: -50px;""><div style=""display: flex; justify-content: space-between; margin-top: 33px;""><img src=""images/choice_trial_11.png"" style=""width: 408px; height: 417px; margin-left:608px;""></div></div>",,delaylearn,learning,display_response,VyAircIRMjS4AZt6yDct5uKKu4Y2,VyAircIRMjS4AZt6yDct5uKKu4Y2,,,,,,,,,,,,,,,,chosen stimuli: images/choice_trial_11.png,,,,,607d6e86f96c147cf2b3223c,12:47:08,26/02/2024
html-keyboard-response,196,500739,0.0-81.0-2.0,,,,delaylearn,learning,feedback_duration_window,VyAircIRMjS4AZt6yDct5uKKu4Y2,VyAircIRMjS4AZt6yDct5uKKu4Y2,,,,,,,,,,,,,,,,,7000.0,,,,607d6e86f96c147cf2b3223c,12:47:08,26/02/2024
html-keyboard-response,197,502254,0.0-81.0-3.0,,<div style='margin:auto;width: auto; font-size: 150%'><span style='font-weight: bold; font-size: 100px; color: red;'>0 points!</span><br><br></div>,,delaylearn,learning,feedback_image_window,VyAircIRMjS4AZt6yDct5uKKu4Y2,VyAircIRMjS4AZt6yDct5uKKu4Y2,,,,,,,,,,,,,,,,,,,,,607d6e86f96c147cf2b3223c,12:47:08,26/02/2024
html-keyboard-response,198,504520,0.0-82.0,,"<div style=""font-size:100px;"">+</div>",,delaylearn,learning,ITI,VyAircIRMjS4AZt6yDct5uKKu4Y2,VyAircIRMjS4AZt6yDct5uKKu4Y2,,,,,,,,,,,,,,,,,,2250.0,,,607d6e86f96c147cf2b3223c,12:47:08,26/02/2024
html-keyboard-response,199,506073,0.0-83.0-0.0,1551.5,"<div style=""display: flex; flex-direction: column; align-items: center; margin-top: -40px;""><img src=""images/pattern_7.png"" style=""width: 234px; height: 230px; margin-top: -50px;""><div style=""display: flex; justify-content: space-between; margin-top: 33px;""><img src=""images/choice_trial_8.png"" style=""width: 408px; height: 417px; margin-right: 200px;""><img src=""images/choice_trial_10.png"" style=""width: 408px; height: 417px;""></div></div>",j,delaylearn,learning,trial,VyAircIRMjS4AZt6yDct5uKKu4Y2,VyAircIRMjS4AZt6yDct5uKKu4Y2,5.0,images/choice_trial_8.png,images/choice_trial_10.png,images/pattern_7.png,f,f,750.0,8.0,10.0,6.0,36.0,0.0,0.0,10.0,190.0,,,,,,607d6e86f96c147cf2b3223c,12:47:08,26/02/2024
html-keyboard-response,200,507075,0.0-83.0-1.0,,"<div style=""display: flex; flex-direction: column; align-items: center; margin-top: -40px;""><img src=""images/pattern_7.png"" style=""width: 234px; height: 230px; margin-top: -50px;""><div style=""display: flex; justify-content: space-between; margin-top: 33px;""><img src=""images/choice_trial_10.png"" style=""width: 408px; height: 417px; margin-left:608px;""></div></div>",,delaylearn,learning,display_response,VyAircIRMjS4AZt6yDct5uKKu4Y2,VyAircIRMjS4AZt6yDct5uKKu4Y2,,,,,,,,,,,,,,,,chosen stimuli: images/choice_trial_10.png,,,,,607d6e86f96c147cf2b3223c,12:47:08,26/02/2024
html-keyboard-response,201,507833,0.0-83.0-2.0,,,,delaylearn,learning,feedback_duration_window,VyAircIRMjS4AZt6yDct5uKKu4Y2,VyAircIRMjS4AZt6yDct5uKKu4Y2,,,,,,,,,,,,,,,,,750.0,,,,607d6e86f96c147cf2b3223c,12:47:08,26/02/2024
html-keyboard-response,202,509350,0.0-83.0-3.0,,<div style='margin:auto;width: auto; font-size: 150%'><span style='font-weight: bold; font-size: 100px; color: red;'>0 points!</span><br><br></div>,,delaylearn,learning,feedback_image_window,VyAircIRMjS4AZt6yDct5uKKu4Y2,VyAircIRMjS4AZt6yDct5uKKu4Y2,,,,,,,,,,,,,,,,,,,,,607d6e86f96c147cf2b3223c,12:47:08,26/02/2024
html-keyboard-response,203,511599,0.0-84.0,,"<div style=""font-size:100px;"">+</div>",,delaylearn,learning,ITI,VyAircIRMjS4AZt6yDct5uKKu4Y2,VyAircIRMjS4AZt6yDct5uKKu4Y2,,,,,,,,,,,,,,,,,,2233.0,,,607d6e86f96c147cf2b3223c,12:47:08,26/02/2024
html-keyboard-response,204,512399,0.0-85.0-0.0,799.2000000476837,"<div style=""display: flex; flex-direction: column; align-items: center; margin-top: -40px;""><img src=""images/pattern_1.png"" style=""width: 234px; height: 230px; margin-top: -50px;""><div style=""display: flex; justify-content: space-between; margin-top: 33px;""><img src=""images/choice_trial_6.png"" style=""width: 408px; height: 417px; margin-right: 200px;""><img src=""images/choice_trial_15.png"" style=""width: 408px; height: 417px;""></div></div>",j,delaylearn,learning,trial,VyAircIRMjS4AZt6yDct5uKKu4Y2,VyAircIRMjS4AZt6yDct5uKKu4Y2,5.0,images/choice_trial_6.png,images/choice_trial_15.png,images/pattern_1.png,f,f,7000.0,6.0,15.0,1.0,37.0,0.0,0.0,15.0,190.0,,,,,,607d6e86f96c147cf2b3223c,12:47:08,26/02/2024
html-keyboard-response,205,513412,0.0-85.0-1.0,,"<div style=""display: flex; flex-direction: column; align-items: center; margin-top: -40px;""><img src=""images/pattern_1.png"" style=""width: 234px; height: 230px; margin-top: -50px;""><div style=""display: flex; justify-content: space-between; margin-top: 33px;""><img src=""images/choice_trial_15.png"" style=""width: 408px; height: 417px; margin-left:608px;""></div></div>",,delaylearn,learning,display_response,VyAircIRMjS4AZt6yDct5uKKu4Y2,VyAircIRMjS4AZt6yDct5uKKu4Y2,,,,,,,,,,,,,,,,chosen stimuli: images/choice_trial_15.png,,,,,607d6e86f96c147cf2b3223c,12:47:08,26/02/2024
html-keyboard-response,206,520421,0.0-85.0-2.0,,,,delaylearn,learning,feedback_duration_window,VyAircIRMjS4AZt6yDct5uKKu4Y2,VyAircIRMjS4AZt6yDct5uKKu4Y2,,,,,,,,,,,,,,,,,7000.0,,,,607d6e86f96c147cf2b3223c,12:47:08,26/02/2024
html-keyboard-response,207,521936,0.0-85.0-3.0,,<div style='margin:auto;width: auto; font-size: 150%'><span style='font-weight: bold; font-size: 100px; color: red;'>0 points!</span><br><br></div>,,delaylearn,learning,feedback_image_window,VyAircIRMjS4AZt6yDct5uKKu4Y2,VyAircIRMjS4AZt6yDct5uKKu4Y2,,,,,,,,,,,,,,,,,,,,,607d6e86f96c147cf2b3223c,12:47:08,26/02/2024
html-keyboard-response,208,522447,0.0-86.0-0.0,,,,,,mood_trial_fixation,VyAircIRMjS4AZt6yDct5uKKu4Y2,,,,,,,,,,,,,,,,,,,,,,607d6e86f96c147cf2b3223c,12:47:08,26/02/2024
lmdlab-html-vas-response,209,526515,0.0-86.0-1.0,3060.0,How happy are you right now?,0.4861111111111111,delaylearn,learning,mood_trial,VyAircIRMjS4AZt6yDct5uKKu4Y2,VyAircIRMjS4AZt6yDct5uKKu4Y2,,,,,,,,,,,,,,,,,,,"['Very unhappy', 'Very happy']",,607d6e86f96c147cf2b3223c,12:47:08,26/02/2024
html-keyboard-response,210,528520,0.0-87.0,,"<div style=""font-size:100px;"">+</div>",,delaylearn,learning,ITI,VyAircIRMjS4AZt6yDct5uKKu4Y2,VyAircIRMjS4AZt6yDct5uKKu4Y2,,,,,,,,,,,,,,,,,,1992.0,,,607d6e86f96c147cf2b3223c,12:47:08,26/02/2024
html-keyboard-response,211,529449,0.0-88.0-0.0,928.6000000238419,"<div style=""display: flex; flex-direction: column; align-items: center; margin-top: -40px;""><img src=""images/pattern_3.png"" style=""width: 234px; height: 230px; margin-top: -50px;""><div style=""display: flex; justify-content: space-between; margin-top: 33px;""><img src=""images/choice_trial_16.png"" style=""width: 408px; height: 417px; margin-right: 200px;""><img src=""images/choice_trial_2.png"" style=""width: 408px; height: 417px;""></div></div>",j,delaylearn,learning,trial,VyAircIRMjS4AZt6yDct5uKKu4Y2,VyAircIRMjS4AZt6yDct5uKKu4Y2,5.0,images/choice_trial_16.png,images/choice_trial_2.png,images/pattern_3.png,j,f,7000.0,16.0,2.0,2.0,38.0,0.0,1.0,2.0,200.0,,,,,,607d6e86f96c147cf2b3223c,12:47:08,26/02/2024
html-keyboard-response,212,530452,0.0-88.0-1.0,,"<div style=""display: flex; flex-direction: column; align-items: center; margin-top: -40px;""><img src=""images/pattern_3.png"" style=""width: 234px; height: 230px; margin-top: -50px;""><div style=""display: flex; justify-content: space-between; margin-top: 33px;""><img src=""images/choice_trial_2.png"" style=""width: 408px; height: 417px; margin-left:608px;""></div></div>",,delaylearn,learning,display_response,VyAircIRMjS4AZt6yDct5uKKu4Y2,VyAircIRMjS4AZt6yDct5uKKu4Y2,,,,,,,,,,,,,,,,chosen stimuli: images/choice_trial_2.png,,,,,607d6e86f96c147cf2b3223c,12:47:08,26/02/2024
html-keyboard-response,213,537464,0.0-88.0-2.0,,,,delaylearn,learning,feedback_duration_window,VyAircIRMjS4AZt6yDct5uKKu4Y2,VyAircIRMjS4AZt6yDct5uKKu4Y2,,,,,,,,,,,,,,,,,7000.0,,,,607d6e86f96c147cf2b3223c,12:47:08,26/02/2024
html-keyboard-response,214,538979,0.0-88.0-3.0,,<div style='margin:auto;width: auto; font-size: 150%'><span style='font-weight: bold; font-size: 100px; color: green;'>+10 points!</span><br><br></div>,,delaylearn,learning,feedback_image_window,VyAircIRMjS4AZt6yDct5uKKu4Y2,VyAircIRMjS4AZt6yDct5uKKu4Y2,,,,,,,,,,,,,,,,,,,,,607d6e86f96c147cf2b3223c,12:47:08,26/02/2024
html-keyboard-response,215,540598,0.0-89.0,,"<div style=""font-size:100px;"">+</div>",,delaylearn,learning,ITI,VyAircIRMjS4AZt6yDct5uKKu4Y2,VyAircIRMjS4AZt6yDct5uKKu4Y2,,,,,,,,,,,,,,,,,,1615.0,,,607d6e86f96c147cf2b3223c,12:47:08,26/02/2024
html-keyboard-response,216,541587,0.0-90.0-0.0,988.0,"<div style=""display: flex; flex-direction: column; align-items: center; margin-top: -40px;""><img src=""images/pattern_7.png"" style=""width: 234px; height: 230px; margin-top: -50px;""><div style=""display: flex; justify-content: space-between; margin-top: 33px;""><img src=""images/choice_trial_10.png"" style=""width: 408px; height: 417px; margin-right: 200px;""><img src=""images/choice_trial_8.png"" style=""width: 408px; height: 417px;""></div></div>",j,delaylearn,learning,trial,VyAircIRMjS4AZt6yDct5uKKu4Y2,VyAircIRMjS4AZt6yDct5uKKu4Y2,5.0,images/choice_trial_10.png,images/choice_trial_8.png,images/pattern_7.png,j,j,750.0,10.0,8.0,6.0,39.0,1.0,1.0,8.0,210.0,,,,,,607d6e86f96c147cf2b3223c,12:47:08,26/02/2024
html-keyboard-response,217,542591,0.0-90.0-1.0,,"<div style=""display: flex; flex-direction: column; align-items: center; margin-top: -40px;""><img src=""images/pattern_7.png"" style=""width: 234px; height: 230px; margin-top: -50px;""><div style=""display: flex; justify-content: space-between; margin-top: 33px;""><img src=""images/choice_trial_8.png"" style=""width: 408px; height: 417px; margin-left:608px;""></div></div>",,delaylearn,learning,display_response,VyAircIRMjS4AZt6yDct5uKKu4Y2,VyAircIRMjS4AZt6yDct5uKKu4Y2,,,,,,,,,,,,,,,,chosen stimuli: images/choice_trial_8.png,,,,,607d6e86f96c147cf2b3223c,12:47:08,26/02/2024
html-keyboard-response,218,543349,0.0-90.0-2.0,,,,delaylearn,learning,feedback_duration_window,VyAircIRMjS4AZt6yDct5uKKu4Y2,VyAircIRMjS4AZt6yDct5uKKu4Y2,,,,,,,,,,,,,,,,,750.0,,,,607d6e86f96c147cf2b3223c,12:47:08,26/02/2024
html-keyboard-response,219,544851,0.0-90.0-3.0,,<div style='margin:auto;width: auto; font-size: 150%'><span style='font-weight: bold; font-size: 100px; color: green;'>+10 points!</span><br><br></div>,,delaylearn,learning,feedback_image_window,VyAircIRMjS4AZt6yDct5uKKu4Y2,VyAircIRMjS4AZt6yDct5uKKu4Y2,,,,,,,,,,,,,,,,,,,,,607d6e86f96c147cf2b3223c,12:47:08,26/02/2024
html-keyboard-response,220,547090,0.0-91.0,,"<div style=""font-size:100px;"">+</div>",,delaylearn,learning,ITI,VyAircIRMjS4AZt6yDct5uKKu4Y2,VyAircIRMjS4AZt6yDct5uKKu4Y2,,,,,,,,,,,,,,,,,,2225.0,,,607d6e86f96c147cf2b3223c,12:47:08,26/02/2024
html-keyboard-response,221,548259,0.0-92.0-0.0,1166.2999999523163,"<div style=""display: flex; flex-direction: column; align-items: center; margin-top: -40px;""><img src=""images/pattern_5.png"" style=""width: 234px; height: 230px; margin-top: -50px;""><div style=""display: flex; justify-content: space-between; margin-top: 33px;""><img src=""images/choice_trial_13.png"" style=""width: 408px; height: 417px; margin-right: 200px;""><img src=""images/choice_trial_7.png"" style=""width: 408px; height: 417px;""></div></div>",j,delaylearn,learning,trial,VyAircIRMjS4AZt6yDct5uKKu4Y2,VyAircIRMjS4AZt6yDct5uKKu4Y2,5.0,images/choice_trial_13.png,images/choice_trial_7.png,images/pattern_5.png,j,j,750.0,13.0,7.0,4.0,40.0,1.0,1.0,7.0,220.0,,,,,,607d6e86f96c147cf2b3223c,12:47:08,26/02/2024
html-keyboard-response,222,549262,0.0-92.0-1.0,,"<div style=""display: flex; flex-direction: column; align-items: center; margin-top: -40px;""><img src=""images/pattern_5.png"" style=""width: 234px; height: 230px; margin-top: -50px;""><div style=""display: flex; justify-content: space-between; margin-top: 33px;""><img src=""images/choice_trial_7.png"" style=""width: 408px; height: 417px; margin-left:608px;""></div></div>",,delaylearn,learning,display_response,VyAircIRMjS4AZt6yDct5uKKu4Y2,VyAircIRMjS4AZt6yDct5uKKu4Y2,,,,,,,,,,,,,,,,chosen stimuli: images/choice_trial_7.png,,,,,607d6e86f96c147cf2b3223c,12:47:08,26/02/2024
html-keyboard-response,223,550024,0.0-92.0-2.0,,,,delaylearn,learning,feedback_duration_window,VyAircIRMjS4AZt6yDct5uKKu4Y2,VyAircIRMjS4AZt6yDct5uKKu4Y2,,,,,,,,,,,,,,,,,750.0,,,,607d6e86f96c147cf2b3223c,12:47:08,26/02/2024
html-keyboard-response,224,551537,0.0-92.0-3.0,,<div style='margin:auto;width: auto; font-size: 150%'><span style='font-weight: bold; font-size: 100px; color: green;'>+10 points!</span><br><br></div>,,delaylearn,learning,feedback_image_window,VyAircIRMjS4AZt6yDct5uKKu4Y2,VyAircIRMjS4AZt6yDct5uKKu4Y2,,,,,,,,,,,,,,,,,,,,,607d6e86f96c147cf2b3223c,12:47:08,26/02/2024
html-keyboard-response,225,552049,0.0-93.0-0.0,,,,,,mood_trial_fixation,VyAircIRMjS4AZt6yDct5uKKu4Y2,,,,,,,,,,,,,,,,,,,,,,607d6e86f96c147cf2b3223c,12:47:08,26/02/2024
lmdlab-html-vas-response,226,555608,0.0-93.0-1.0,2548.0,How happy are you right now?,0.49228395061728397,delaylearn,learning,mood_trial,VyAircIRMjS4AZt6yDct5uKKu4Y2,VyAircIRMjS4AZt6yDct5uKKu4Y2,,,,,,,,,,,,,,,,,,,"['Very unhappy', 'Very happy']",,607d6e86f96c147cf2b3223c,12:47:08,26/02/2024
html-keyboard-response,227,557837,0.0-94.0,,"<div style=""font-size:100px;"">+</div>",,delaylearn,learning,ITI,VyAircIRMjS4AZt6yDct5uKKu4Y2,VyAircIRMjS4AZt6yDct5uKKu4Y2,,,,,,,,,,,,,,,,,,2225.0,,,607d6e86f96c147cf2b3223c,12:47:08,26/02/2024
html-keyboard-response,228,558754,0.0-95.0-0.0,915.8000000119209,"<div style=""display: flex; flex-direction: column; align-items: center; margin-top: -40px;""><img src=""images/pattern_4.png"" style=""width: 234px; height: 230px; margin-top: -50px;""><div style=""display: flex; justify-content: space-between; margin-top: 33px;""><img src=""images/choice_trial_11.png"" style=""width: 408px; height: 417px; margin-right: 200px;""><img src=""images/choice_trial_4.png"" style=""width: 408px; height: 417px;""></div></div>",f,delaylearn,learning,trial,VyAircIRMjS4AZt6yDct5uKKu4Y2,VyAircIRMjS4AZt6yDct5uKKu4Y2,5.0,images/choice_trial_11.png,images/choice_trial_4.png,images/pattern_4.png,f,f,7000.0,11.0,4.0,3.0,41.0,1.0,1.0,11.0,230.0,,,,,,607d6e86f96c147cf2b3223c,12:47:08,26/02/2024
html-keyboard-response,229,559766,0.0-95.0-1.0,,"<div style=""display: flex; flex-direction: column; align-items: center; margin-top: -40px;""><img src=""images/pattern_4.png"" style=""width: 234px; height: 230px; margin-top: -50px;""><div style=""display: flex; justify-content: space-between; margin-top: 33px;""><img src=""images/choice_trial_11.png"" style=""width: 408px; height: 417px; margin-right: 608px;""></div></div>",,delaylearn,learning,display_response,VyAircIRMjS4AZt6yDct5uKKu4Y2,VyAircIRMjS4AZt6yDct5uKKu4Y2,,,,,,,,,,,,,,,,chosen stimuli: images/choice_trial_11.png,,,,,607d6e86f96c147cf2b3223c,12:47:08,26/02/2024
html-keyboard-response,230,566776,0.0-95.0-2.0,,,,delaylearn,learning,feedback_duration_window,VyAircIRMjS4AZt6yDct5uKKu4Y2,VyAircIRMjS4AZt6yDct5uKKu4Y2,,,,,,,,,,,,,,,,,7000.0,,,,607d6e86f96c147cf2b3223c,12:47:08,26/02/2024
html-keyboard-response,231,568291,0.0-95.0-3.0,,<div style='margin:auto;width: auto; font-size: 150%'><span style='font-weight: bold; font-size: 100px; color: green;'>+10 points!</span><br><br></div>,,delaylearn,learning,feedback_image_window,VyAircIRMjS4AZt6yDct5uKKu4Y2,VyAircIRMjS4AZt6yDct5uKKu4Y2,,,,,,,,,,,,,,,,,,,,,607d6e86f96c147cf2b3223c,12:47:08,26/02/2024
html-keyboard-response,232,570573,0.0-96.0,,"<div style=""font-size:100px;"">+</div>",,delaylearn,learning,ITI,VyAircIRMjS4AZt6yDct5uKKu4Y2,VyAircIRMjS4AZt6yDct5uKKu4Y2,,,,,,,,,,,,,,,,,,2269.0,,,607d6e86f96c147cf2b3223c,12:47:08,26/02/2024
