trial_type,trial_index,time_elapsed,internal_node_id,rt,stimulus,response,exp_name,exp_stage,test_part,subjectID,databaseID,counterbal,choice_stimuli_1,choice_stimuli_2,pattern_stimuli,rewarded_answer,correct_answer,feedback_duration_times,stim_left,stim_right,pair,leftright_counter,trial,response_correct,response_rewarded,chosen_stim,counter,displayed_choice,feedback_durations,ITI_duration,labels,rest_warning,prolificID,start_time,date
pavlovia,0,535,0.0-0.0,,,,,,,lEjoqmE8I4QlPtkg6spzllEllyo2,,,,,,,,,,,,,,,,,,,,,,,63ea551bae34b6edcd5bb799,16:17:01,27/03/2024
html-keyboard-response,1,3541,0.0-1.0,,"<div style=""font-size:100px;"">+</div>",,delaylearn,learning,pre_fixation,lEjoqmE8I4QlPtkg6spzllEllyo2,,,,,,,,,,,,,,,,,,,,,,,63ea551bae34b6edcd5bb799,16:17:01,27/03/2024
html-keyboard-response,2,5803,0.0-2.0-0.0,2258.600000023842,"<div style=""display: flex; flex-direction: column; align-items: center; margin-top: -40px;""><img src=""images/demo_images/pattern_1.png"" style=""width: 234px; height: 230px; margin-top: -50px;""><div style=""display: flex; justify-content: space-between; margin-top: 33px;""><img src=""images/demo_images/choice_trial_2.png"" style=""width: 408px; height: 417px; margin-right: 200px;""><img src=""images/demo_images/choice_trial_1.png"" style=""width: 408px; height: 417px;""></div></div>",j,delaylearn,learning,trial,lEjoqmE8I4QlPtkg6spzllEllyo2,lEjoqmE8I4QlPtkg6spzllEllyo2,3.0,images/demo_images/choice_trial_2.png,images/demo_images/choice_trial_1.png,images/demo_images/pattern_1.png,j,j,3000.0,2.0,1.0,20.0,1.0,1.0,1.0,1.0,1.0,10.0,,,,,,63ea551bae34b6edcd5bb799,16:17:01,27/03/2024
html-keyboard-response,3,6806,0.0-2.0-1.0,,"<div style=""display: flex; flex-direction: column; align-items: center; margin-top: -40px;""><img src=""images/demo_images/pattern_1.png"" style=""width: 234px; height: 230px; margin-top: -50px;""><div style=""display: flex; justify-content: space-between; margin-top: 33px;""><img src=""images/demo_images/choice_trial_1.png"" style=""width: 408px; height: 417px; margin-left:608px;""></div></div>",,delaylearn,learning,display_response,lEjoqmE8I4QlPtkg6spzllEllyo2,lEjoqmE8I4QlPtkg6spzllEllyo2,,,,,,,,,,,,,,,,,chosen stimuli: images/demo_images/choice_trial_1.png,,,,,63ea551bae34b6edcd5bb799,16:17:01,27/03/2024
html-keyboard-response,4,9821,0.0-2.0-2.0,,,,delaylearn,learning,feedback_duration_window,lEjoqmE8I4QlPtkg6spzllEllyo2,lEjoqmE8I4QlPtkg6spzllEllyo2,,,,,,,,,,,,,,,,,,3000.0,,,,63ea551bae34b6edcd5bb799,16:17:01,27/03/2024
html-keyboard-response,5,11338,0.0-2.0-3.0,,<div style='margin:auto;width: auto; font-size: 150%'><span style='font-weight: bold; font-size: 100px; color: green;'>+10 points!</span><br><br></div>,,delaylearn,learning,feedback_image_window,lEjoqmE8I4QlPtkg6spzllEllyo2,lEjoqmE8I4QlPtkg6spzllEllyo2,,,,,,,,,,,,,,,,,,,,,,63ea551bae34b6edcd5bb799,16:17:01,27/03/2024
html-keyboard-response,6,13182,0.0-3.0,,"<div style=""font-size:100px;"">+</div>",,delaylearn,learning,ITI,lEjoqmE8I4QlPtkg6spzllEllyo2,lEjoqmE8I4QlPtkg6spzllEllyo2,,,,,,,,,,,,,,,,,,,1840.0,,,63ea551bae34b6edcd5bb799,16:17:01,27/03/2024
html-keyboard-response,7,14592,0.0-4.0-0.0,1406.8000000715256,"<div style=""display: flex; flex-direction: column; align-items: center; margin-top: -40px;""><img src=""images/demo_images/pattern_1.png"" style=""width: 234px; height: 230px; margin-top: -50px;""><div style=""display: flex; justify-content: space-between; margin-top: 33px;""><img src=""images/demo_images/choice_trial_2.png"" style=""width: 408px; height: 417px; margin-right: 200px;""><img src=""images/demo_images/choice_trial_1.png"" style=""width: 408px; height: 417px;""></div></div>",j,delaylearn,learning,trial,lEjoqmE8I4QlPtkg6spzllEllyo2,lEjoqmE8I4QlPtkg6spzllEllyo2,3.0,images/demo_images/choice_trial_2.png,images/demo_images/choice_trial_1.png,images/demo_images/pattern_1.png,j,j,3000.0,2.0,1.0,20.0,1.0,2.0,1.0,1.0,1.0,20.0,,,,,,63ea551bae34b6edcd5bb799,16:17:01,27/03/2024
html-keyboard-response,8,15604,0.0-4.0-1.0,,"<div style=""display: flex; flex-direction: column; align-items: center; margin-top: -40px;""><img src=""images/demo_images/pattern_1.png"" style=""width: 234px; height: 230px; margin-top: -50px;""><div style=""display: flex; justify-content: space-between; margin-top: 33px;""><img src=""images/demo_images/choice_trial_1.png"" style=""width: 408px; height: 417px; margin-left:608px;""></div></div>",,delaylearn,learning,display_response,lEjoqmE8I4QlPtkg6spzllEllyo2,lEjoqmE8I4QlPtkg6spzllEllyo2,,,,,,,,,,,,,,,,,chosen stimuli: images/demo_images/choice_trial_1.png,,,,,63ea551bae34b6edcd5bb799,16:17:01,27/03/2024
html-keyboard-response,9,18606,0.0-4.0-2.0,,,,delaylearn,learning,feedback_duration_window,lEjoqmE8I4QlPtkg6spzllEllyo2,lEjoqmE8I4QlPtkg6spzllEllyo2,,,,,,,,,,,,,,,,,,3000.0,,,,63ea551bae34b6edcd5bb799,16:17:01,27/03/2024
html-keyboard-response,10,20121,0.0-4.0-3.0,,<div style='margin:auto;width: auto; font-size: 150%'><span style='font-weight: bold; font-size: 100px; color: green;'>+10 points!</span><br><br></div>,,delaylearn,learning,feedback_image_window,lEjoqmE8I4QlPtkg6spzllEllyo2,lEjoqmE8I4QlPtkg6spzllEllyo2,,,,,,,,,,,,,,,,,,,,,,63ea551bae34b6edcd5bb799,16:17:01,27/03/2024
html-keyboard-response,11,22356,0.0-5.0,,"<div style=""font-size:100px;"">+</div>",,delaylearn,learning,ITI,lEjoqmE8I4QlPtkg6spzllEllyo2,lEjoqmE8I4QlPtkg6spzllEllyo2,,,,,,,,,,,,,,,,,,,2230.0,,,63ea551bae34b6edcd5bb799,16:17:01,27/03/2024
html-keyboard-response,12,22899,0.0-6.0-0.0,540.7999999523163,"<div style=""display: flex; flex-direction: column; align-items: center; margin-top: -40px;""><img src=""images/demo_images/pattern_1.png"" style=""width: 234px; height: 230px; margin-top: -50px;""><div style=""display: flex; justify-content: space-between; margin-top: 33px;""><img src=""images/demo_images/choice_trial_1.png"" style=""width: 408px; height: 417px; margin-right: 200px;""><img src=""images/demo_images/choice_trial_2.png"" style=""width: 408px; height: 417px;""></div></div>",f,delaylearn,learning,trial,lEjoqmE8I4QlPtkg6spzllEllyo2,lEjoqmE8I4QlPtkg6spzllEllyo2,3.0,images/demo_images/choice_trial_1.png,images/demo_images/choice_trial_2.png,images/demo_images/pattern_1.png,j,f,3000.0,1.0,2.0,20.0,0.0,3.0,1.0,0.0,1.0,20.0,,,,,,63ea551bae34b6edcd5bb799,16:17:01,27/03/2024
html-keyboard-response,13,23904,0.0-6.0-1.0,,"<div style=""display: flex; flex-direction: column; align-items: center; margin-top: -40px;""><img src=""images/demo_images/pattern_1.png"" style=""width: 234px; height: 230px; margin-top: -50px;""><div style=""display: flex; justify-content: space-between; margin-top: 33px;""><img src=""images/demo_images/choice_trial_1.png"" style=""width: 408px; height: 417px; margin-right: 608px;""></div></div>",,delaylearn,learning,display_response,lEjoqmE8I4QlPtkg6spzllEllyo2,lEjoqmE8I4QlPtkg6spzllEllyo2,,,,,,,,,,,,,,,,,chosen stimuli: images/demo_images/choice_trial_1.png,,,,,63ea551bae34b6edcd5bb799,16:17:01,27/03/2024
html-keyboard-response,14,26906,0.0-6.0-2.0,,,,delaylearn,learning,feedback_duration_window,lEjoqmE8I4QlPtkg6spzllEllyo2,lEjoqmE8I4QlPtkg6spzllEllyo2,,,,,,,,,,,,,,,,,,3000.0,,,,63ea551bae34b6edcd5bb799,16:17:01,27/03/2024
html-keyboard-response,15,28421,0.0-6.0-3.0,,<div style='margin:auto;width: auto; font-size: 150%'><span style='font-weight: bold; font-size: 100px; color: red;'>0 points!</span><br><br></div>,,delaylearn,learning,feedback_image_window,lEjoqmE8I4QlPtkg6spzllEllyo2,lEjoqmE8I4QlPtkg6spzllEllyo2,,,,,,,,,,,,,,,,,,,,,,63ea551bae34b6edcd5bb799,16:17:01,27/03/2024
html-keyboard-response,16,30875,0.0-7.0,,"<div style=""font-size:100px;"">+</div>",,delaylearn,learning,ITI,lEjoqmE8I4QlPtkg6spzllEllyo2,lEjoqmE8I4QlPtkg6spzllEllyo2,,,,,,,,,,,,,,,,,,,2445.0,,,63ea551bae34b6edcd5bb799,16:17:01,27/03/2024
html-keyboard-response,17,33283,0.0-8.0-0.0,2406.6999999284744,"<div style=""display: flex; flex-direction: column; align-items: center; margin-top: -40px;""><img src=""images/demo_images/pattern_1.png"" style=""width: 234px; height: 230px; margin-top: -50px;""><div style=""display: flex; justify-content: space-between; margin-top: 33px;""><img src=""images/demo_images/choice_trial_1.png"" style=""width: 408px; height: 417px; margin-right: 200px;""><img src=""images/demo_images/choice_trial_2.png"" style=""width: 408px; height: 417px;""></div></div>",f,delaylearn,learning,trial,lEjoqmE8I4QlPtkg6spzllEllyo2,lEjoqmE8I4QlPtkg6spzllEllyo2,3.0,images/demo_images/choice_trial_1.png,images/demo_images/choice_trial_2.png,images/demo_images/pattern_1.png,f,f,3000.0,1.0,2.0,20.0,0.0,4.0,1.0,1.0,1.0,30.0,,,,,,63ea551bae34b6edcd5bb799,16:17:01,27/03/2024
html-keyboard-response,18,34288,0.0-8.0-1.0,,"<div style=""display: flex; flex-direction: column; align-items: center; margin-top: -40px;""><img src=""images/demo_images/pattern_1.png"" style=""width: 234px; height: 230px; margin-top: -50px;""><div style=""display: flex; justify-content: space-between; margin-top: 33px;""><img src=""images/demo_images/choice_trial_1.png"" style=""width: 408px; height: 417px; margin-right: 608px;""></div></div>",,delaylearn,learning,display_response,lEjoqmE8I4QlPtkg6spzllEllyo2,lEjoqmE8I4QlPtkg6spzllEllyo2,,,,,,,,,,,,,,,,,chosen stimuli: images/demo_images/choice_trial_1.png,,,,,63ea551bae34b6edcd5bb799,16:17:01,27/03/2024
html-keyboard-response,19,37290,0.0-8.0-2.0,,,,delaylearn,learning,feedback_duration_window,lEjoqmE8I4QlPtkg6spzllEllyo2,lEjoqmE8I4QlPtkg6spzllEllyo2,,,,,,,,,,,,,,,,,,3000.0,,,,63ea551bae34b6edcd5bb799,16:17:01,27/03/2024
html-keyboard-response,20,38805,0.0-8.0-3.0,,<div style='margin:auto;width: auto; font-size: 150%'><span style='font-weight: bold; font-size: 100px; color: green;'>+10 points!</span><br><br></div>,,delaylearn,learning,feedback_image_window,lEjoqmE8I4QlPtkg6spzllEllyo2,lEjoqmE8I4QlPtkg6spzllEllyo2,,,,,,,,,,,,,,,,,,,,,,63ea551bae34b6edcd5bb799,16:17:01,27/03/2024
html-keyboard-response,21,39320,0.0-9.0-0.0,,,,,,mood_trial_fixation,lEjoqmE8I4QlPtkg6spzllEllyo2,,,,,,,,,,,,,,,,,,,,,,,63ea551bae34b6edcd5bb799,16:17:01,27/03/2024
lmdlab-html-vas-response,22,53546,0.0-9.0-1.0,13198.0,How happy are you right now?,0.5879629629629629,delaylearn,learning,mood_trial,lEjoqmE8I4QlPtkg6spzllEllyo2,lEjoqmE8I4QlPtkg6spzllEllyo2,,,,,,,,,,,,,,,,,,,,"['Very unhappy', 'Very happy']",,63ea551bae34b6edcd5bb799,16:17:01,27/03/2024
html-keyboard-response,23,55546,0.0-10.0,,"<div style=""font-size:100px;"">+</div>",,delaylearn,learning,ITI,lEjoqmE8I4QlPtkg6spzllEllyo2,lEjoqmE8I4QlPtkg6spzllEllyo2,,,,,,,,,,,,,,,,,,,1996.0,,,63ea551bae34b6edcd5bb799,16:17:01,27/03/2024
html-keyboard-response,24,57198,0.0-11.0-0.0,1650.6000000238419,"<div style=""display: flex; flex-direction: column; align-items: center; margin-top: -40px;""><img src=""images/demo_images/pattern_1.png"" style=""width: 234px; height: 230px; margin-top: -50px;""><div style=""display: flex; justify-content: space-between; margin-top: 33px;""><img src=""images/demo_images/choice_trial_2.png"" style=""width: 408px; height: 417px; margin-right: 200px;""><img src=""images/demo_images/choice_trial_1.png"" style=""width: 408px; height: 417px;""></div></div>",j,delaylearn,learning,trial,lEjoqmE8I4QlPtkg6spzllEllyo2,lEjoqmE8I4QlPtkg6spzllEllyo2,3.0,images/demo_images/choice_trial_2.png,images/demo_images/choice_trial_1.png,images/demo_images/pattern_1.png,j,j,3000.0,2.0,1.0,20.0,1.0,5.0,1.0,1.0,1.0,40.0,,,,,,63ea551bae34b6edcd5bb799,16:17:01,27/03/2024
html-keyboard-response,25,58205,0.0-11.0-1.0,,"<div style=""display: flex; flex-direction: column; align-items: center; margin-top: -40px;""><img src=""images/demo_images/pattern_1.png"" style=""width: 234px; height: 230px; margin-top: -50px;""><div style=""display: flex; justify-content: space-between; margin-top: 33px;""><img src=""images/demo_images/choice_trial_1.png"" style=""width: 408px; height: 417px; margin-left:608px;""></div></div>",,delaylearn,learning,display_response,lEjoqmE8I4QlPtkg6spzllEllyo2,lEjoqmE8I4QlPtkg6spzllEllyo2,,,,,,,,,,,,,,,,,chosen stimuli: images/demo_images/choice_trial_1.png,,,,,63ea551bae34b6edcd5bb799,16:17:01,27/03/2024
html-keyboard-response,26,61207,0.0-11.0-2.0,,,,delaylearn,learning,feedback_duration_window,lEjoqmE8I4QlPtkg6spzllEllyo2,lEjoqmE8I4QlPtkg6spzllEllyo2,,,,,,,,,,,,,,,,,,3000.0,,,,63ea551bae34b6edcd5bb799,16:17:01,27/03/2024
html-keyboard-response,27,62721,0.0-11.0-3.0,,<div style='margin:auto;width: auto; font-size: 150%'><span style='font-weight: bold; font-size: 100px; color: green;'>+10 points!</span><br><br></div>,,delaylearn,learning,feedback_image_window,lEjoqmE8I4QlPtkg6spzllEllyo2,lEjoqmE8I4QlPtkg6spzllEllyo2,,,,,,,,,,,,,,,,,,,,,,63ea551bae34b6edcd5bb799,16:17:01,27/03/2024
html-keyboard-response,28,64348,0.0-12.0,,"<div style=""font-size:100px;"">+</div>",,delaylearn,learning,ITI,lEjoqmE8I4QlPtkg6spzllEllyo2,lEjoqmE8I4QlPtkg6spzllEllyo2,,,,,,,,,,,,,,,,,,,1622.0,,,63ea551bae34b6edcd5bb799,16:17:01,27/03/2024
html-keyboard-response,29,65543,0.0-13.0-0.0,1193.0,"<div style=""display: flex; flex-direction: column; align-items: center; margin-top: -40px;""><img src=""images/demo_images/pattern_1.png"" style=""width: 234px; height: 230px; margin-top: -50px;""><div style=""display: flex; justify-content: space-between; margin-top: 33px;""><img src=""images/demo_images/choice_trial_1.png"" style=""width: 408px; height: 417px; margin-right: 200px;""><img src=""images/demo_images/choice_trial_2.png"" style=""width: 408px; height: 417px;""></div></div>",f,delaylearn,learning,trial,lEjoqmE8I4QlPtkg6spzllEllyo2,lEjoqmE8I4QlPtkg6spzllEllyo2,3.0,images/demo_images/choice_trial_1.png,images/demo_images/choice_trial_2.png,images/demo_images/pattern_1.png,f,f,3000.0,1.0,2.0,20.0,0.0,6.0,1.0,1.0,1.0,50.0,,,,,,63ea551bae34b6edcd5bb799,16:17:01,27/03/2024
html-keyboard-response,30,66554,0.0-13.0-1.0,,"<div style=""display: flex; flex-direction: column; align-items: center; margin-top: -40px;""><img src=""images/demo_images/pattern_1.png"" style=""width: 234px; height: 230px; margin-top: -50px;""><div style=""display: flex; justify-content: space-between; margin-top: 33px;""><img src=""images/demo_images/choice_trial_1.png"" style=""width: 408px; height: 417px; margin-right: 608px;""></div></div>",,delaylearn,learning,display_response,lEjoqmE8I4QlPtkg6spzllEllyo2,lEjoqmE8I4QlPtkg6spzllEllyo2,,,,,,,,,,,,,,,,,chosen stimuli: images/demo_images/choice_trial_1.png,,,,,63ea551bae34b6edcd5bb799,16:17:01,27/03/2024
html-keyboard-response,31,69556,0.0-13.0-2.0,,,,delaylearn,learning,feedback_duration_window,lEjoqmE8I4QlPtkg6spzllEllyo2,lEjoqmE8I4QlPtkg6spzllEllyo2,,,,,,,,,,,,,,,,,,3000.0,,,,63ea551bae34b6edcd5bb799,16:17:01,27/03/2024
html-keyboard-response,32,71071,0.0-13.0-3.0,,<div style='margin:auto;width: auto; font-size: 150%'><span style='font-weight: bold; font-size: 100px; color: green;'>+10 points!</span><br><br></div>,,delaylearn,learning,feedback_image_window,lEjoqmE8I4QlPtkg6spzllEllyo2,lEjoqmE8I4QlPtkg6spzllEllyo2,,,,,,,,,,,,,,,,,,,,,,63ea551bae34b6edcd5bb799,16:17:01,27/03/2024
html-keyboard-response,33,73541,0.0-14.0,,"<div style=""font-size:100px;"">+</div>",,delaylearn,learning,ITI,lEjoqmE8I4QlPtkg6spzllEllyo2,lEjoqmE8I4QlPtkg6spzllEllyo2,,,,,,,,,,,,,,,,,,,2465.0,,,63ea551bae34b6edcd5bb799,16:17:01,27/03/2024
html-keyboard-response,34,75235,0.0-15.0-0.0,1691.0,"<div style=""display: flex; flex-direction: column; align-items: center; margin-top: -40px;""><img src=""images/demo_images/pattern_1.png"" style=""width: 234px; height: 230px; margin-top: -50px;""><div style=""display: flex; justify-content: space-between; margin-top: 33px;""><img src=""images/demo_images/choice_trial_2.png"" style=""width: 408px; height: 417px; margin-right: 200px;""><img src=""images/demo_images/choice_trial_1.png"" style=""width: 408px; height: 417px;""></div></div>",j,delaylearn,learning,trial,lEjoqmE8I4QlPtkg6spzllEllyo2,lEjoqmE8I4QlPtkg6spzllEllyo2,3.0,images/demo_images/choice_trial_2.png,images/demo_images/choice_trial_1.png,images/demo_images/pattern_1.png,j,j,3000.0,2.0,1.0,20.0,1.0,7.0,1.0,1.0,1.0,60.0,,,,,,63ea551bae34b6edcd5bb799,16:17:01,27/03/2024
html-keyboard-response,35,76239,0.0-15.0-1.0,,"<div style=""display: flex; flex-direction: column; align-items: center; margin-top: -40px;""><img src=""images/demo_images/pattern_1.png"" style=""width: 234px; height: 230px; margin-top: -50px;""><div style=""display: flex; justify-content: space-between; margin-top: 33px;""><img src=""images/demo_images/choice_trial_1.png"" style=""width: 408px; height: 417px; margin-left:608px;""></div></div>",,delaylearn,learning,display_response,lEjoqmE8I4QlPtkg6spzllEllyo2,lEjoqmE8I4QlPtkg6spzllEllyo2,,,,,,,,,,,,,,,,,chosen stimuli: images/demo_images/choice_trial_1.png,,,,,63ea551bae34b6edcd5bb799,16:17:01,27/03/2024
html-keyboard-response,36,79239,0.0-15.0-2.0,,,,delaylearn,learning,feedback_duration_window,lEjoqmE8I4QlPtkg6spzllEllyo2,lEjoqmE8I4QlPtkg6spzllEllyo2,,,,,,,,,,,,,,,,,,3000.0,,,,63ea551bae34b6edcd5bb799,16:17:01,27/03/2024
html-keyboard-response,37,80755,0.0-15.0-3.0,,<div style='margin:auto;width: auto; font-size: 150%'><span style='font-weight: bold; font-size: 100px; color: green;'>+10 points!</span><br><br></div>,,delaylearn,learning,feedback_image_window,lEjoqmE8I4QlPtkg6spzllEllyo2,lEjoqmE8I4QlPtkg6spzllEllyo2,,,,,,,,,,,,,,,,,,,,,,63ea551bae34b6edcd5bb799,16:17:01,27/03/2024
html-keyboard-response,38,82443,0.0-16.0,,"<div style=""font-size:100px;"">+</div>",,delaylearn,learning,ITI,lEjoqmE8I4QlPtkg6spzllEllyo2,lEjoqmE8I4QlPtkg6spzllEllyo2,,,,,,,,,,,,,,,,,,,1672.0,,,63ea551bae34b6edcd5bb799,16:17:01,27/03/2024
html-keyboard-response,39,83683,0.0-17.0-0.0,1238.0,"<div style=""display: flex; flex-direction: column; align-items: center; margin-top: -40px;""><img src=""images/demo_images/pattern_1.png"" style=""width: 234px; height: 230px; margin-top: -50px;""><div style=""display: flex; justify-content: space-between; margin-top: 33px;""><img src=""images/demo_images/choice_trial_1.png"" style=""width: 408px; height: 417px; margin-right: 200px;""><img src=""images/demo_images/choice_trial_2.png"" style=""width: 408px; height: 417px;""></div></div>",f,delaylearn,learning,trial,lEjoqmE8I4QlPtkg6spzllEllyo2,lEjoqmE8I4QlPtkg6spzllEllyo2,3.0,images/demo_images/choice_trial_1.png,images/demo_images/choice_trial_2.png,images/demo_images/pattern_1.png,f,f,3000.0,1.0,2.0,20.0,0.0,8.0,1.0,1.0,1.0,70.0,,,,,,63ea551bae34b6edcd5bb799,16:17:01,27/03/2024
html-keyboard-response,40,84689,0.0-17.0-1.0,,"<div style=""display: flex; flex-direction: column; align-items: center; margin-top: -40px;""><img src=""images/demo_images/pattern_1.png"" style=""width: 234px; height: 230px; margin-top: -50px;""><div style=""display: flex; justify-content: space-between; margin-top: 33px;""><img src=""images/demo_images/choice_trial_1.png"" style=""width: 408px; height: 417px; margin-right: 608px;""></div></div>",,delaylearn,learning,display_response,lEjoqmE8I4QlPtkg6spzllEllyo2,lEjoqmE8I4QlPtkg6spzllEllyo2,,,,,,,,,,,,,,,,,chosen stimuli: images/demo_images/choice_trial_1.png,,,,,63ea551bae34b6edcd5bb799,16:17:01,27/03/2024
html-keyboard-response,41,87705,0.0-17.0-2.0,,,,delaylearn,learning,feedback_duration_window,lEjoqmE8I4QlPtkg6spzllEllyo2,lEjoqmE8I4QlPtkg6spzllEllyo2,,,,,,,,,,,,,,,,,,3000.0,,,,63ea551bae34b6edcd5bb799,16:17:01,27/03/2024
html-keyboard-response,42,89221,0.0-17.0-3.0,,<div style='margin:auto;width: auto; font-size: 150%'><span style='font-weight: bold; font-size: 100px; color: green;'>+10 points!</span><br><br></div>,,delaylearn,learning,feedback_image_window,lEjoqmE8I4QlPtkg6spzllEllyo2,lEjoqmE8I4QlPtkg6spzllEllyo2,,,,,,,,,,,,,,,,,,,,,,63ea551bae34b6edcd5bb799,16:17:01,27/03/2024
html-button-response,43,93281,0.0-18.0,4058.1999999284744,"
  <div style=""display: flex; align-items: center; justify-content: center; height: 80vh;"">
  <div>
          <img src=""images/inst_demo_finish.png"" style=""width: 80vw; height:auto;"">
          <br><br>
      </div>
      <br><br>
  </div>",0,,,,lEjoqmE8I4QlPtkg6spzllEllyo2,,,,,,,,,,,,,,,,,,,,,,,63ea551bae34b6edcd5bb799,16:17:01,27/03/2024
html-keyboard-response,44,101695,0.0-19.0,8413.100000023842,"
  <div style=""display: flex; align-items: center; justify-content: center; height: 80vh;"">
  <div>
          <img src=""images/inst_6.png"" style=""width: 80vw; height:auto;"">
          <br><br>
      </div>
      <br><br>
  </div>",j,,,,lEjoqmE8I4QlPtkg6spzllEllyo2,,,,,,,,,,,,,,,,,,,,,,,63ea551bae34b6edcd5bb799,16:17:01,27/03/2024
html-keyboard-response,45,104705,0.0-20.0,,"<div style=""font-size:100px;"">+</div>",,delaylearn,learning,pre_fixation,lEjoqmE8I4QlPtkg6spzllEllyo2,,,,,,,,,,,,,,,,,,,,,,,63ea551bae34b6edcd5bb799,16:17:01,27/03/2024
html-keyboard-response,46,106439,0.0-21.0,,"<div style=""font-size:100px;"">+</div>",,delaylearn,learning,ITI,lEjoqmE8I4QlPtkg6spzllEllyo2,lEjoqmE8I4QlPtkg6spzllEllyo2,,,,,,,,,,,,,,,,,,,1727.0,,,63ea551bae34b6edcd5bb799,16:17:01,27/03/2024
html-keyboard-response,47,109307,0.0-22.0-0.0,2866.7999999523163,"<div style=""display: flex; flex-direction: column; align-items: center; margin-top: -40px;""><img src=""images/pattern_3.png"" style=""width: 234px; height: 230px; margin-top: -50px;""><div style=""display: flex; justify-content: space-between; margin-top: 33px;""><img src=""images/choice_trial_13.png"" style=""width: 408px; height: 417px; margin-right: 200px;""><img src=""images/choice_trial_10.png"" style=""width: 408px; height: 417px;""></div></div>",j,delaylearn,learning,trial,lEjoqmE8I4QlPtkg6spzllEllyo2,lEjoqmE8I4QlPtkg6spzllEllyo2,3.0,images/choice_trial_13.png,images/choice_trial_10.png,images/pattern_3.png,f,f,7000.0,13.0,10.0,2.0,0.0,9.0,0.0,0.0,10.0,70.0,,,,,,63ea551bae34b6edcd5bb799,16:17:01,27/03/2024
html-keyboard-response,48,110321,0.0-22.0-1.0,,"<div style=""display: flex; flex-direction: column; align-items: center; margin-top: -40px;""><img src=""images/pattern_3.png"" style=""width: 234px; height: 230px; margin-top: -50px;""><div style=""display: flex; justify-content: space-between; margin-top: 33px;""><img src=""images/choice_trial_10.png"" style=""width: 408px; height: 417px; margin-left:608px;""></div></div>",,delaylearn,learning,display_response,lEjoqmE8I4QlPtkg6spzllEllyo2,lEjoqmE8I4QlPtkg6spzllEllyo2,,,,,,,,,,,,,,,,,chosen stimuli: images/choice_trial_10.png,,,,,63ea551bae34b6edcd5bb799,16:17:01,27/03/2024
html-keyboard-response,49,117327,0.0-22.0-2.0,,,,delaylearn,learning,feedback_duration_window,lEjoqmE8I4QlPtkg6spzllEllyo2,lEjoqmE8I4QlPtkg6spzllEllyo2,,,,,,,,,,,,,,,,,,7000.0,,,,63ea551bae34b6edcd5bb799,16:17:01,27/03/2024
html-keyboard-response,50,118837,0.0-22.0-3.0,,<div style='margin:auto;width: auto; font-size: 150%'><span style='font-weight: bold; font-size: 100px; color: red;'>0 points!</span><br><br></div>,,delaylearn,learning,feedback_image_window,lEjoqmE8I4QlPtkg6spzllEllyo2,lEjoqmE8I4QlPtkg6spzllEllyo2,,,,,,,,,,,,,,,,,,,,,,63ea551bae34b6edcd5bb799,16:17:01,27/03/2024
html-keyboard-response,51,120573,0.0-23.0,,"<div style=""font-size:100px;"">+</div>",,delaylearn,learning,ITI,lEjoqmE8I4QlPtkg6spzllEllyo2,lEjoqmE8I4QlPtkg6spzllEllyo2,,,,,,,,,,,,,,,,,,,1734.0,,,63ea551bae34b6edcd5bb799,16:17:01,27/03/2024
html-keyboard-response,52,123496,0.0-24.0-0.0,2920.100000023842,"<div style=""display: flex; flex-direction: column; align-items: center; margin-top: -40px;""><img src=""images/pattern_7.png"" style=""width: 234px; height: 230px; margin-top: -50px;""><div style=""display: flex; justify-content: space-between; margin-top: 33px;""><img src=""images/choice_trial_12.png"" style=""width: 408px; height: 417px; margin-right: 200px;""><img src=""images/choice_trial_6.png"" style=""width: 408px; height: 417px;""></div></div>",f,delaylearn,learning,trial,lEjoqmE8I4QlPtkg6spzllEllyo2,lEjoqmE8I4QlPtkg6spzllEllyo2,3.0,images/choice_trial_12.png,images/choice_trial_6.png,images/pattern_7.png,j,j,750.0,12.0,6.0,6.0,1.0,10.0,0.0,0.0,12.0,70.0,,,,,,63ea551bae34b6edcd5bb799,16:17:01,27/03/2024
html-keyboard-response,53,124504,0.0-24.0-1.0,,"<div style=""display: flex; flex-direction: column; align-items: center; margin-top: -40px;""><img src=""images/pattern_7.png"" style=""width: 234px; height: 230px; margin-top: -50px;""><div style=""display: flex; justify-content: space-between; margin-top: 33px;""><img src=""images/choice_trial_12.png"" style=""width: 408px; height: 417px; margin-right: 608px;""></div></div>",,delaylearn,learning,display_response,lEjoqmE8I4QlPtkg6spzllEllyo2,lEjoqmE8I4QlPtkg6spzllEllyo2,,,,,,,,,,,,,,,,,chosen stimuli: images/choice_trial_12.png,,,,,63ea551bae34b6edcd5bb799,16:17:01,27/03/2024
html-keyboard-response,54,125271,0.0-24.0-2.0,,,,delaylearn,learning,feedback_duration_window,lEjoqmE8I4QlPtkg6spzllEllyo2,lEjoqmE8I4QlPtkg6spzllEllyo2,,,,,,,,,,,,,,,,,,750.0,,,,63ea551bae34b6edcd5bb799,16:17:01,27/03/2024
html-keyboard-response,55,126787,0.0-24.0-3.0,,<div style='margin:auto;width: auto; font-size: 150%'><span style='font-weight: bold; font-size: 100px; color: red;'>0 points!</span><br><br></div>,,delaylearn,learning,feedback_image_window,lEjoqmE8I4QlPtkg6spzllEllyo2,lEjoqmE8I4QlPtkg6spzllEllyo2,,,,,,,,,,,,,,,,,,,,,,63ea551bae34b6edcd5bb799,16:17:01,27/03/2024
html-keyboard-response,56,128525,0.0-25.0,,"<div style=""font-size:100px;"">+</div>",,delaylearn,learning,ITI,lEjoqmE8I4QlPtkg6spzllEllyo2,lEjoqmE8I4QlPtkg6spzllEllyo2,,,,,,,,,,,,,,,,,,,1724.0,,,63ea551bae34b6edcd5bb799,16:17:01,27/03/2024
html-keyboard-response,57,131539,0.0-26.0-0.0,,"<div style=""display: flex; flex-direction: column; align-items: center; margin-top: -40px;""><img src=""images/pattern_4.png"" style=""width: 234px; height: 230px; margin-top: -50px;""><div style=""display: flex; justify-content: space-between; margin-top: 33px;""><img src=""images/choice_trial_15.png"" style=""width: 408px; height: 417px; margin-right: 200px;""><img src=""images/choice_trial_9.png"" style=""width: 408px; height: 417px;""></div></div>",,delaylearn,learning,trial,lEjoqmE8I4QlPtkg6spzllEllyo2,lEjoqmE8I4QlPtkg6spzllEllyo2,3.0,images/choice_trial_15.png,images/choice_trial_9.png,images/pattern_4.png,f,f,7000.0,15.0,9.0,3.0,0.0,11.0,0.0,0.0,0.0,70.0,,,,,,63ea551bae34b6edcd5bb799,16:17:01,27/03/2024
html-keyboard-response,58,132554,0.0-26.0-1.0,,<div style='font-weight: bold; font-size: 75px; color: red;'>Missed Trial <br><br><br><br> Please respond faster</div>,,delaylearn,learning,display_response,lEjoqmE8I4QlPtkg6spzllEllyo2,lEjoqmE8I4QlPtkg6spzllEllyo2,,,,,,,,,,,,,,,,,Missed trial,,,,,63ea551bae34b6edcd5bb799,16:17:01,27/03/2024
html-keyboard-response,59,132559,0.0-26.0-2.0,,,,delaylearn,learning,feedback_duration_window,lEjoqmE8I4QlPtkg6spzllEllyo2,lEjoqmE8I4QlPtkg6spzllEllyo2,,,,,,,,,,,,,,,,,,0.0,,,,63ea551bae34b6edcd5bb799,16:17:01,27/03/2024
html-keyboard-response,60,132566,0.0-26.0-3.0,,,,delaylearn,learning,feedback_image_window,lEjoqmE8I4QlPtkg6spzllEllyo2,lEjoqmE8I4QlPtkg6spzllEllyo2,,,,,,,,,,,,,,,,,,,,,,63ea551bae34b6edcd5bb799,16:17:01,27/03/2024
html-keyboard-response,61,134613,0.0-27.0,,"<div style=""font-size:100px;"">+</div>",,delaylearn,learning,ITI,lEjoqmE8I4QlPtkg6spzllEllyo2,lEjoqmE8I4QlPtkg6spzllEllyo2,,,,,,,,,,,,,,,,,,,2035.0,,,63ea551bae34b6edcd5bb799,16:17:01,27/03/2024
html-keyboard-response,62,136091,0.0-28.0-0.0,1476.2000000476837,"<div style=""display: flex; flex-direction: column; align-items: center; margin-top: -40px;""><img src=""images/pattern_5.png"" style=""width: 234px; height: 230px; margin-top: -50px;""><div style=""display: flex; justify-content: space-between; margin-top: 33px;""><img src=""images/choice_trial_2.png"" style=""width: 408px; height: 417px; margin-right: 200px;""><img src=""images/choice_trial_11.png"" style=""width: 408px; height: 417px;""></div></div>",j,delaylearn,learning,trial,lEjoqmE8I4QlPtkg6spzllEllyo2,lEjoqmE8I4QlPtkg6spzllEllyo2,3.0,images/choice_trial_2.png,images/choice_trial_11.png,images/pattern_5.png,j,j,750.0,2.0,11.0,4.0,1.0,12.0,1.0,1.0,11.0,80.0,,,,,,63ea551bae34b6edcd5bb799,16:17:01,27/03/2024
html-keyboard-response,63,137105,0.0-28.0-1.0,,"<div style=""display: flex; flex-direction: column; align-items: center; margin-top: -40px;""><img src=""images/pattern_5.png"" style=""width: 234px; height: 230px; margin-top: -50px;""><div style=""display: flex; justify-content: space-between; margin-top: 33px;""><img src=""images/choice_trial_11.png"" style=""width: 408px; height: 417px; margin-left:608px;""></div></div>",,delaylearn,learning,display_response,lEjoqmE8I4QlPtkg6spzllEllyo2,lEjoqmE8I4QlPtkg6spzllEllyo2,,,,,,,,,,,,,,,,,chosen stimuli: images/choice_trial_11.png,,,,,63ea551bae34b6edcd5bb799,16:17:01,27/03/2024
html-keyboard-response,64,137871,0.0-28.0-2.0,,,,delaylearn,learning,feedback_duration_window,lEjoqmE8I4QlPtkg6spzllEllyo2,lEjoqmE8I4QlPtkg6spzllEllyo2,,,,,,,,,,,,,,,,,,750.0,,,,63ea551bae34b6edcd5bb799,16:17:01,27/03/2024
html-keyboard-response,65,139388,0.0-28.0-3.0,,<div style='margin:auto;width: auto; font-size: 150%'><span style='font-weight: bold; font-size: 100px; color: green;'>+10 points!</span><br><br></div>,,delaylearn,learning,feedback_image_window,lEjoqmE8I4QlPtkg6spzllEllyo2,lEjoqmE8I4QlPtkg6spzllEllyo2,,,,,,,,,,,,,,,,,,,,,,63ea551bae34b6edcd5bb799,16:17:01,27/03/2024
html-keyboard-response,66,141280,0.0-29.0,,"<div style=""font-size:100px;"">+</div>",,delaylearn,learning,ITI,lEjoqmE8I4QlPtkg6spzllEllyo2,lEjoqmE8I4QlPtkg6spzllEllyo2,,,,,,,,,,,,,,,,,,,1882.0,,,63ea551bae34b6edcd5bb799,16:17:01,27/03/2024
html-keyboard-response,67,143099,0.0-30.0-0.0,1817.3999999761581,"<div style=""display: flex; flex-direction: column; align-items: center; margin-top: -40px;""><img src=""images/pattern_6.png"" style=""width: 234px; height: 230px; margin-top: -50px;""><div style=""display: flex; justify-content: space-between; margin-top: 33px;""><img src=""images/choice_trial_16.png"" style=""width: 408px; height: 417px; margin-right: 200px;""><img src=""images/choice_trial_3.png"" style=""width: 408px; height: 417px;""></div></div>",f,delaylearn,learning,trial,lEjoqmE8I4QlPtkg6spzllEllyo2,lEjoqmE8I4QlPtkg6spzllEllyo2,3.0,images/choice_trial_16.png,images/choice_trial_3.png,images/pattern_6.png,j,f,750.0,16.0,3.0,5.0,0.0,13.0,1.0,0.0,16.0,80.0,,,,,,63ea551bae34b6edcd5bb799,16:17:01,27/03/2024
html-keyboard-response,68,144105,0.0-30.0-1.0,,"<div style=""display: flex; flex-direction: column; align-items: center; margin-top: -40px;""><img src=""images/pattern_6.png"" style=""width: 234px; height: 230px; margin-top: -50px;""><div style=""display: flex; justify-content: space-between; margin-top: 33px;""><img src=""images/choice_trial_16.png"" style=""width: 408px; height: 417px; margin-right: 608px;""></div></div>",,delaylearn,learning,display_response,lEjoqmE8I4QlPtkg6spzllEllyo2,lEjoqmE8I4QlPtkg6spzllEllyo2,,,,,,,,,,,,,,,,,chosen stimuli: images/choice_trial_16.png,,,,,63ea551bae34b6edcd5bb799,16:17:01,27/03/2024
html-keyboard-response,69,144871,0.0-30.0-2.0,,,,delaylearn,learning,feedback_duration_window,lEjoqmE8I4QlPtkg6spzllEllyo2,lEjoqmE8I4QlPtkg6spzllEllyo2,,,,,,,,,,,,,,,,,,750.0,,,,63ea551bae34b6edcd5bb799,16:17:01,27/03/2024
html-keyboard-response,70,146387,0.0-30.0-3.0,,<div style='margin:auto;width: auto; font-size: 150%'><span style='font-weight: bold; font-size: 100px; color: red;'>0 points!</span><br><br></div>,,delaylearn,learning,feedback_image_window,lEjoqmE8I4QlPtkg6spzllEllyo2,lEjoqmE8I4QlPtkg6spzllEllyo2,,,,,,,,,,,,,,,,,,,,,,63ea551bae34b6edcd5bb799,16:17:01,27/03/2024
html-keyboard-response,71,146904,0.0-31.0-0.0,,,,,,mood_trial_fixation,lEjoqmE8I4QlPtkg6spzllEllyo2,,,,,,,,,,,,,,,,,,,,,,,63ea551bae34b6edcd5bb799,16:17:01,27/03/2024
lmdlab-html-vas-response,72,152413,0.0-31.0-1.0,4486.0,How happy are you right now?,0.22993827160493827,delaylearn,learning,mood_trial,lEjoqmE8I4QlPtkg6spzllEllyo2,lEjoqmE8I4QlPtkg6spzllEllyo2,,,,,,,,,,,,,,,,,,,,"['Very unhappy', 'Very happy']",,63ea551bae34b6edcd5bb799,16:17:01,27/03/2024
html-keyboard-response,73,154720,0.0-32.0,,"<div style=""font-size:100px;"">+</div>",,delaylearn,learning,ITI,lEjoqmE8I4QlPtkg6spzllEllyo2,lEjoqmE8I4QlPtkg6spzllEllyo2,,,,,,,,,,,,,,,,,,,2293.0,,,63ea551bae34b6edcd5bb799,16:17:01,27/03/2024
html-keyboard-response,74,156555,0.0-33.0-0.0,1833.9000000953674,"<div style=""display: flex; flex-direction: column; align-items: center; margin-top: -40px;""><img src=""images/pattern_1.png"" style=""width: 234px; height: 230px; margin-top: -50px;""><div style=""display: flex; justify-content: space-between; margin-top: 33px;""><img src=""images/choice_trial_8.png"" style=""width: 408px; height: 417px; margin-right: 200px;""><img src=""images/choice_trial_14.png"" style=""width: 408px; height: 417px;""></div></div>",j,delaylearn,learning,trial,lEjoqmE8I4QlPtkg6spzllEllyo2,lEjoqmE8I4QlPtkg6spzllEllyo2,3.0,images/choice_trial_8.png,images/choice_trial_14.png,images/pattern_1.png,j,j,7000.0,8.0,14.0,1.0,1.0,14.0,1.0,1.0,14.0,90.0,,,,,,63ea551bae34b6edcd5bb799,16:17:01,27/03/2024
html-keyboard-response,75,157570,0.0-33.0-1.0,,"<div style=""display: flex; flex-direction: column; align-items: center; margin-top: -40px;""><img src=""images/pattern_1.png"" style=""width: 234px; height: 230px; margin-top: -50px;""><div style=""display: flex; justify-content: space-between; margin-top: 33px;""><img src=""images/choice_trial_14.png"" style=""width: 408px; height: 417px; margin-left:608px;""></div></div>",,delaylearn,learning,display_response,lEjoqmE8I4QlPtkg6spzllEllyo2,lEjoqmE8I4QlPtkg6spzllEllyo2,,,,,,,,,,,,,,,,,chosen stimuli: images/choice_trial_14.png,,,,,63ea551bae34b6edcd5bb799,16:17:01,27/03/2024
html-keyboard-response,76,164576,0.0-33.0-2.0,,,,delaylearn,learning,feedback_duration_window,lEjoqmE8I4QlPtkg6spzllEllyo2,lEjoqmE8I4QlPtkg6spzllEllyo2,,,,,,,,,,,,,,,,,,7000.0,,,,63ea551bae34b6edcd5bb799,16:17:01,27/03/2024
html-keyboard-response,77,166088,0.0-33.0-3.0,,<div style='margin:auto;width: auto; font-size: 150%'><span style='font-weight: bold; font-size: 100px; color: green;'>+10 points!</span><br><br></div>,,delaylearn,learning,feedback_image_window,lEjoqmE8I4QlPtkg6spzllEllyo2,lEjoqmE8I4QlPtkg6spzllEllyo2,,,,,,,,,,,,,,,,,,,,,,63ea551bae34b6edcd5bb799,16:17:01,27/03/2024
html-keyboard-response,78,168089,0.0-34.0,,"<div style=""font-size:100px;"">+</div>",,delaylearn,learning,ITI,lEjoqmE8I4QlPtkg6spzllEllyo2,lEjoqmE8I4QlPtkg6spzllEllyo2,,,,,,,,,,,,,,,,,,,1994.0,,,63ea551bae34b6edcd5bb799,16:17:01,27/03/2024
html-keyboard-response,79,170639,0.0-35.0-0.0,2547.600000023842,"<div style=""display: flex; flex-direction: column; align-items: center; margin-top: -40px;""><img src=""images/pattern_3.png"" style=""width: 234px; height: 230px; margin-top: -50px;""><div style=""display: flex; justify-content: space-between; margin-top: 33px;""><img src=""images/choice_trial_10.png"" style=""width: 408px; height: 417px; margin-right: 200px;""><img src=""images/choice_trial_13.png"" style=""width: 408px; height: 417px;""></div></div>",j,delaylearn,learning,trial,lEjoqmE8I4QlPtkg6spzllEllyo2,lEjoqmE8I4QlPtkg6spzllEllyo2,3.0,images/choice_trial_10.png,images/choice_trial_13.png,images/pattern_3.png,f,j,7000.0,10.0,13.0,2.0,1.0,15.0,1.0,0.0,13.0,90.0,,,,,,63ea551bae34b6edcd5bb799,16:17:01,27/03/2024
html-keyboard-response,80,171655,0.0-35.0-1.0,,"<div style=""display: flex; flex-direction: column; align-items: center; margin-top: -40px;""><img src=""images/pattern_3.png"" style=""width: 234px; height: 230px; margin-top: -50px;""><div style=""display: flex; justify-content: space-between; margin-top: 33px;""><img src=""images/choice_trial_13.png"" style=""width: 408px; height: 417px; margin-left:608px;""></div></div>",,delaylearn,learning,display_response,lEjoqmE8I4QlPtkg6spzllEllyo2,lEjoqmE8I4QlPtkg6spzllEllyo2,,,,,,,,,,,,,,,,,chosen stimuli: images/choice_trial_13.png,,,,,63ea551bae34b6edcd5bb799,16:17:01,27/03/2024
html-keyboard-response,81,178660,0.0-35.0-2.0,,,,delaylearn,learning,feedback_duration_window,lEjoqmE8I4QlPtkg6spzllEllyo2,lEjoqmE8I4QlPtkg6spzllEllyo2,,,,,,,,,,,,,,,,,,7000.0,,,,63ea551bae34b6edcd5bb799,16:17:01,27/03/2024
html-keyboard-response,82,180172,0.0-35.0-3.0,,<div style='margin:auto;width: auto; font-size: 150%'><span style='font-weight: bold; font-size: 100px; color: red;'>0 points!</span><br><br></div>,,delaylearn,learning,feedback_image_window,lEjoqmE8I4QlPtkg6spzllEllyo2,lEjoqmE8I4QlPtkg6spzllEllyo2,,,,,,,,,,,,,,,,,,,,,,63ea551bae34b6edcd5bb799,16:17:01,27/03/2024
html-keyboard-response,83,182391,0.0-36.0,,"<div style=""font-size:100px;"">+</div>",,delaylearn,learning,ITI,lEjoqmE8I4QlPtkg6spzllEllyo2,lEjoqmE8I4QlPtkg6spzllEllyo2,,,,,,,,,,,,,,,,,,,2213.0,,,63ea551bae34b6edcd5bb799,16:17:01,27/03/2024
html-keyboard-response,84,184727,0.0-37.0-0.0,2333.399999976158,"<div style=""display: flex; flex-direction: column; align-items: center; margin-top: -40px;""><img src=""images/pattern_5.png"" style=""width: 234px; height: 230px; margin-top: -50px;""><div style=""display: flex; justify-content: space-between; margin-top: 33px;""><img src=""images/choice_trial_11.png"" style=""width: 408px; height: 417px; margin-right: 200px;""><img src=""images/choice_trial_2.png"" style=""width: 408px; height: 417px;""></div></div>",j,delaylearn,learning,trial,lEjoqmE8I4QlPtkg6spzllEllyo2,lEjoqmE8I4QlPtkg6spzllEllyo2,3.0,images/choice_trial_11.png,images/choice_trial_2.png,images/pattern_5.png,f,f,750.0,11.0,2.0,4.0,0.0,16.0,0.0,0.0,2.0,90.0,,,,,,63ea551bae34b6edcd5bb799,16:17:01,27/03/2024
html-keyboard-response,85,185738,0.0-37.0-1.0,,"<div style=""display: flex; flex-direction: column; align-items: center; margin-top: -40px;""><img src=""images/pattern_5.png"" style=""width: 234px; height: 230px; margin-top: -50px;""><div style=""display: flex; justify-content: space-between; margin-top: 33px;""><img src=""images/choice_trial_2.png"" style=""width: 408px; height: 417px; margin-left:608px;""></div></div>",,delaylearn,learning,display_response,lEjoqmE8I4QlPtkg6spzllEllyo2,lEjoqmE8I4QlPtkg6spzllEllyo2,,,,,,,,,,,,,,,,,chosen stimuli: images/choice_trial_2.png,,,,,63ea551bae34b6edcd5bb799,16:17:01,27/03/2024
html-keyboard-response,86,186504,0.0-37.0-2.0,,,,delaylearn,learning,feedback_duration_window,lEjoqmE8I4QlPtkg6spzllEllyo2,lEjoqmE8I4QlPtkg6spzllEllyo2,,,,,,,,,,,,,,,,,,750.0,,,,63ea551bae34b6edcd5bb799,16:17:01,27/03/2024
html-keyboard-response,87,188006,0.0-37.0-3.0,,<div style='margin:auto;width: auto; font-size: 150%'><span style='font-weight: bold; font-size: 100px; color: red;'>0 points!</span><br><br></div>,,delaylearn,learning,feedback_image_window,lEjoqmE8I4QlPtkg6spzllEllyo2,lEjoqmE8I4QlPtkg6spzllEllyo2,,,,,,,,,,,,,,,,,,,,,,63ea551bae34b6edcd5bb799,16:17:01,27/03/2024
html-keyboard-response,88,188520,0.0-38.0-0.0,,,,,,mood_trial_fixation,lEjoqmE8I4QlPtkg6spzllEllyo2,,,,,,,,,,,,,,,,,,,,,,,63ea551bae34b6edcd5bb799,16:17:01,27/03/2024
lmdlab-html-vas-response,89,193533,0.0-38.0-1.0,4007.0,How happy are you right now?,0.006172839506172839,delaylearn,learning,mood_trial,lEjoqmE8I4QlPtkg6spzllEllyo2,lEjoqmE8I4QlPtkg6spzllEllyo2,,,,,,,,,,,,,,,,,,,,"['Very unhappy', 'Very happy']",,63ea551bae34b6edcd5bb799,16:17:01,27/03/2024
html-keyboard-response,90,195650,0.0-39.0,,"<div style=""font-size:100px;"">+</div>",,delaylearn,learning,ITI,lEjoqmE8I4QlPtkg6spzllEllyo2,lEjoqmE8I4QlPtkg6spzllEllyo2,,,,,,,,,,,,,,,,,,,2107.0,,,63ea551bae34b6edcd5bb799,16:17:01,27/03/2024
html-keyboard-response,91,198267,0.0-40.0-0.0,2614.7999999523163,"<div style=""display: flex; flex-direction: column; align-items: center; margin-top: -40px;""><img src=""images/pattern_6.png"" style=""width: 234px; height: 230px; margin-top: -50px;""><div style=""display: flex; justify-content: space-between; margin-top: 33px;""><img src=""images/choice_trial_16.png"" style=""width: 408px; height: 417px; margin-right: 200px;""><img src=""images/choice_trial_3.png"" style=""width: 408px; height: 417px;""></div></div>",f,delaylearn,learning,trial,lEjoqmE8I4QlPtkg6spzllEllyo2,lEjoqmE8I4QlPtkg6spzllEllyo2,3.0,images/choice_trial_16.png,images/choice_trial_3.png,images/pattern_6.png,f,f,750.0,16.0,3.0,5.0,0.0,17.0,1.0,1.0,16.0,100.0,,,,,,63ea551bae34b6edcd5bb799,16:17:01,27/03/2024
html-keyboard-response,92,199272,0.0-40.0-1.0,,"<div style=""display: flex; flex-direction: column; align-items: center; margin-top: -40px;""><img src=""images/pattern_6.png"" style=""width: 234px; height: 230px; margin-top: -50px;""><div style=""display: flex; justify-content: space-between; margin-top: 33px;""><img src=""images/choice_trial_16.png"" style=""width: 408px; height: 417px; margin-right: 608px;""></div></div>",,delaylearn,learning,display_response,lEjoqmE8I4QlPtkg6spzllEllyo2,lEjoqmE8I4QlPtkg6spzllEllyo2,,,,,,,,,,,,,,,,,chosen stimuli: images/choice_trial_16.png,,,,,63ea551bae34b6edcd5bb799,16:17:01,27/03/2024
html-keyboard-response,93,200037,0.0-40.0-2.0,,,,delaylearn,learning,feedback_duration_window,lEjoqmE8I4QlPtkg6spzllEllyo2,lEjoqmE8I4QlPtkg6spzllEllyo2,,,,,,,,,,,,,,,,,,750.0,,,,63ea551bae34b6edcd5bb799,16:17:01,27/03/2024
html-keyboard-response,94,201540,0.0-40.0-3.0,,<div style='margin:auto;width: auto; font-size: 150%'><span style='font-weight: bold; font-size: 100px; color: green;'>+10 points!</span><br><br></div>,,delaylearn,learning,feedback_image_window,lEjoqmE8I4QlPtkg6spzllEllyo2,lEjoqmE8I4QlPtkg6spzllEllyo2,,,,,,,,,,,,,,,,,,,,,,63ea551bae34b6edcd5bb799,16:17:01,27/03/2024
html-keyboard-response,95,203413,0.0-41.0,,"<div style=""font-size:100px;"">+</div>",,delaylearn,learning,ITI,lEjoqmE8I4QlPtkg6spzllEllyo2,lEjoqmE8I4QlPtkg6spzllEllyo2,,,,,,,,,,,,,,,,,,,1859.0,,,63ea551bae34b6edcd5bb799,16:17:01,27/03/2024
html-keyboard-response,96,205271,0.0-42.0-0.0,1855.8999999761581,"<div style=""display: flex; flex-direction: column; align-items: center; margin-top: -40px;""><img src=""images/pattern_4.png"" style=""width: 234px; height: 230px; margin-top: -50px;""><div style=""display: flex; justify-content: space-between; margin-top: 33px;""><img src=""images/choice_trial_9.png"" style=""width: 408px; height: 417px; margin-right: 200px;""><img src=""images/choice_trial_15.png"" style=""width: 408px; height: 417px;""></div></div>",f,delaylearn,learning,trial,lEjoqmE8I4QlPtkg6spzllEllyo2,lEjoqmE8I4QlPtkg6spzllEllyo2,3.0,images/choice_trial_9.png,images/choice_trial_15.png,images/pattern_4.png,j,j,7000.0,9.0,15.0,3.0,1.0,18.0,0.0,0.0,9.0,100.0,,,,,,63ea551bae34b6edcd5bb799,16:17:01,27/03/2024
html-keyboard-response,97,206288,0.0-42.0-1.0,,"<div style=""display: flex; flex-direction: column; align-items: center; margin-top: -40px;""><img src=""images/pattern_4.png"" style=""width: 234px; height: 230px; margin-top: -50px;""><div style=""display: flex; justify-content: space-between; margin-top: 33px;""><img src=""images/choice_trial_9.png"" style=""width: 408px; height: 417px; margin-right: 608px;""></div></div>",,delaylearn,learning,display_response,lEjoqmE8I4QlPtkg6spzllEllyo2,lEjoqmE8I4QlPtkg6spzllEllyo2,,,,,,,,,,,,,,,,,chosen stimuli: images/choice_trial_9.png,,,,,63ea551bae34b6edcd5bb799,16:17:01,27/03/2024
html-keyboard-response,98,213293,0.0-42.0-2.0,,,,delaylearn,learning,feedback_duration_window,lEjoqmE8I4QlPtkg6spzllEllyo2,lEjoqmE8I4QlPtkg6spzllEllyo2,,,,,,,,,,,,,,,,,,7000.0,,,,63ea551bae34b6edcd5bb799,16:17:01,27/03/2024
html-keyboard-response,99,214805,0.0-42.0-3.0,,<div style='margin:auto;width: auto; font-size: 150%'><span style='font-weight: bold; font-size: 100px; color: red;'>0 points!</span><br><br></div>,,delaylearn,learning,feedback_image_window,lEjoqmE8I4QlPtkg6spzllEllyo2,lEjoqmE8I4QlPtkg6spzllEllyo2,,,,,,,,,,,,,,,,,,,,,,63ea551bae34b6edcd5bb799,16:17:01,27/03/2024
html-keyboard-response,100,217026,0.0-43.0,,"<div style=""font-size:100px;"">+</div>",,delaylearn,learning,ITI,lEjoqmE8I4QlPtkg6spzllEllyo2,lEjoqmE8I4QlPtkg6spzllEllyo2,,,,,,,,,,,,,,,,,,,2219.0,,,63ea551bae34b6edcd5bb799,16:17:01,27/03/2024
html-keyboard-response,101,219255,0.0-44.0-0.0,2228.100000023842,"<div style=""display: flex; flex-direction: column; align-items: center; margin-top: -40px;""><img src=""images/pattern_7.png"" style=""width: 234px; height: 230px; margin-top: -50px;""><div style=""display: flex; justify-content: space-between; margin-top: 33px;""><img src=""images/choice_trial_6.png"" style=""width: 408px; height: 417px; margin-right: 200px;""><img src=""images/choice_trial_12.png"" style=""width: 408px; height: 417px;""></div></div>",f,delaylearn,learning,trial,lEjoqmE8I4QlPtkg6spzllEllyo2,lEjoqmE8I4QlPtkg6spzllEllyo2,3.0,images/choice_trial_6.png,images/choice_trial_12.png,images/pattern_7.png,j,f,750.0,6.0,12.0,6.0,0.0,19.0,1.0,0.0,6.0,100.0,,,,,,63ea551bae34b6edcd5bb799,16:17:01,27/03/2024
html-keyboard-response,102,220270,0.0-44.0-1.0,,"<div style=""display: flex; flex-direction: column; align-items: center; margin-top: -40px;""><img src=""images/pattern_7.png"" style=""width: 234px; height: 230px; margin-top: -50px;""><div style=""display: flex; justify-content: space-between; margin-top: 33px;""><img src=""images/choice_trial_6.png"" style=""width: 408px; height: 417px; margin-right: 608px;""></div></div>",,delaylearn,learning,display_response,lEjoqmE8I4QlPtkg6spzllEllyo2,lEjoqmE8I4QlPtkg6spzllEllyo2,,,,,,,,,,,,,,,,,chosen stimuli: images/choice_trial_6.png,,,,,63ea551bae34b6edcd5bb799,16:17:01,27/03/2024
html-keyboard-response,103,221037,0.0-44.0-2.0,,,,delaylearn,learning,feedback_duration_window,lEjoqmE8I4QlPtkg6spzllEllyo2,lEjoqmE8I4QlPtkg6spzllEllyo2,,,,,,,,,,,,,,,,,,750.0,,,,63ea551bae34b6edcd5bb799,16:17:01,27/03/2024
html-keyboard-response,104,222539,0.0-44.0-3.0,,<div style='margin:auto;width: auto; font-size: 150%'><span style='font-weight: bold; font-size: 100px; color: red;'>0 points!</span><br><br></div>,,delaylearn,learning,feedback_image_window,lEjoqmE8I4QlPtkg6spzllEllyo2,lEjoqmE8I4QlPtkg6spzllEllyo2,,,,,,,,,,,,,,,,,,,,,,63ea551bae34b6edcd5bb799,16:17:01,27/03/2024
html-keyboard-response,105,224274,0.0-45.0,,"<div style=""font-size:100px;"">+</div>",,delaylearn,learning,ITI,lEjoqmE8I4QlPtkg6spzllEllyo2,lEjoqmE8I4QlPtkg6spzllEllyo2,,,,,,,,,,,,,,,,,,,1724.0,,,63ea551bae34b6edcd5bb799,16:17:01,27/03/2024
html-keyboard-response,106,225839,0.0-46.0-0.0,1562.1999999284744,"<div style=""display: flex; flex-direction: column; align-items: center; margin-top: -40px;""><img src=""images/pattern_1.png"" style=""width: 234px; height: 230px; margin-top: -50px;""><div style=""display: flex; justify-content: space-between; margin-top: 33px;""><img src=""images/choice_trial_14.png"" style=""width: 408px; height: 417px; margin-right: 200px;""><img src=""images/choice_trial_8.png"" style=""width: 408px; height: 417px;""></div></div>",f,delaylearn,learning,trial,lEjoqmE8I4QlPtkg6spzllEllyo2,lEjoqmE8I4QlPtkg6spzllEllyo2,3.0,images/choice_trial_14.png,images/choice_trial_8.png,images/pattern_1.png,f,f,7000.0,14.0,8.0,1.0,0.0,20.0,1.0,1.0,14.0,110.0,,,,,,63ea551bae34b6edcd5bb799,16:17:01,27/03/2024
html-keyboard-response,107,226854,0.0-46.0-1.0,,"<div style=""display: flex; flex-direction: column; align-items: center; margin-top: -40px;""><img src=""images/pattern_1.png"" style=""width: 234px; height: 230px; margin-top: -50px;""><div style=""display: flex; justify-content: space-between; margin-top: 33px;""><img src=""images/choice_trial_14.png"" style=""width: 408px; height: 417px; margin-right: 608px;""></div></div>",,delaylearn,learning,display_response,lEjoqmE8I4QlPtkg6spzllEllyo2,lEjoqmE8I4QlPtkg6spzllEllyo2,,,,,,,,,,,,,,,,,chosen stimuli: images/choice_trial_14.png,,,,,63ea551bae34b6edcd5bb799,16:17:01,27/03/2024
html-keyboard-response,108,233859,0.0-46.0-2.0,,,,delaylearn,learning,feedback_duration_window,lEjoqmE8I4QlPtkg6spzllEllyo2,lEjoqmE8I4QlPtkg6spzllEllyo2,,,,,,,,,,,,,,,,,,7000.0,,,,63ea551bae34b6edcd5bb799,16:17:01,27/03/2024
html-keyboard-response,109,235371,0.0-46.0-3.0,,<div style='margin:auto;width: auto; font-size: 150%'><span style='font-weight: bold; font-size: 100px; color: green;'>+10 points!</span><br><br></div>,,delaylearn,learning,feedback_image_window,lEjoqmE8I4QlPtkg6spzllEllyo2,lEjoqmE8I4QlPtkg6spzllEllyo2,,,,,,,,,,,,,,,,,,,,,,63ea551bae34b6edcd5bb799,16:17:01,27/03/2024
html-keyboard-response,110,237842,0.0-47.0,,"<div style=""font-size:100px;"">+</div>",,delaylearn,learning,ITI,lEjoqmE8I4QlPtkg6spzllEllyo2,lEjoqmE8I4QlPtkg6spzllEllyo2,,,,,,,,,,,,,,,,,,,2462.0,,,63ea551bae34b6edcd5bb799,16:17:01,27/03/2024
html-keyboard-response,111,239663,0.0-48.0-0.0,1819.0,"<div style=""display: flex; flex-direction: column; align-items: center; margin-top: -40px;""><img src=""images/pattern_6.png"" style=""width: 234px; height: 230px; margin-top: -50px;""><div style=""display: flex; justify-content: space-between; margin-top: 33px;""><img src=""images/choice_trial_3.png"" style=""width: 408px; height: 417px; margin-right: 200px;""><img src=""images/choice_trial_16.png"" style=""width: 408px; height: 417px;""></div></div>",f,delaylearn,learning,trial,lEjoqmE8I4QlPtkg6spzllEllyo2,lEjoqmE8I4QlPtkg6spzllEllyo2,3.0,images/choice_trial_3.png,images/choice_trial_16.png,images/pattern_6.png,j,j,750.0,3.0,16.0,5.0,1.0,21.0,0.0,0.0,3.0,110.0,,,,,,63ea551bae34b6edcd5bb799,16:17:01,27/03/2024
html-keyboard-response,112,240672,0.0-48.0-1.0,,"<div style=""display: flex; flex-direction: column; align-items: center; margin-top: -40px;""><img src=""images/pattern_6.png"" style=""width: 234px; height: 230px; margin-top: -50px;""><div style=""display: flex; justify-content: space-between; margin-top: 33px;""><img src=""images/choice_trial_3.png"" style=""width: 408px; height: 417px; margin-right: 608px;""></div></div>",,delaylearn,learning,display_response,lEjoqmE8I4QlPtkg6spzllEllyo2,lEjoqmE8I4QlPtkg6spzllEllyo2,,,,,,,,,,,,,,,,,chosen stimuli: images/choice_trial_3.png,,,,,63ea551bae34b6edcd5bb799,16:17:01,27/03/2024
html-keyboard-response,113,241438,0.0-48.0-2.0,,,,delaylearn,learning,feedback_duration_window,lEjoqmE8I4QlPtkg6spzllEllyo2,lEjoqmE8I4QlPtkg6spzllEllyo2,,,,,,,,,,,,,,,,,,750.0,,,,63ea551bae34b6edcd5bb799,16:17:01,27/03/2024
html-keyboard-response,114,242939,0.0-48.0-3.0,,<div style='margin:auto;width: auto; font-size: 150%'><span style='font-weight: bold; font-size: 100px; color: red;'>0 points!</span><br><br></div>,,delaylearn,learning,feedback_image_window,lEjoqmE8I4QlPtkg6spzllEllyo2,lEjoqmE8I4QlPtkg6spzllEllyo2,,,,,,,,,,,,,,,,,,,,,,63ea551bae34b6edcd5bb799,16:17:01,27/03/2024
html-keyboard-response,115,244923,0.0-49.0,,"<div style=""font-size:100px;"">+</div>",,delaylearn,learning,ITI,lEjoqmE8I4QlPtkg6spzllEllyo2,lEjoqmE8I4QlPtkg6spzllEllyo2,,,,,,,,,,,,,,,,,,,1969.0,,,63ea551bae34b6edcd5bb799,16:17:01,27/03/2024
html-keyboard-response,116,246507,0.0-50.0-0.0,1581.9000000953674,"<div style=""display: flex; flex-direction: column; align-items: center; margin-top: -40px;""><img src=""images/pattern_4.png"" style=""width: 234px; height: 230px; margin-top: -50px;""><div style=""display: flex; justify-content: space-between; margin-top: 33px;""><img src=""images/choice_trial_15.png"" style=""width: 408px; height: 417px; margin-right: 200px;""><img src=""images/choice_trial_9.png"" style=""width: 408px; height: 417px;""></div></div>",f,delaylearn,learning,trial,lEjoqmE8I4QlPtkg6spzllEllyo2,lEjoqmE8I4QlPtkg6spzllEllyo2,3.0,images/choice_trial_15.png,images/choice_trial_9.png,images/pattern_4.png,f,f,7000.0,15.0,9.0,3.0,0.0,22.0,1.0,1.0,15.0,120.0,,,,,,63ea551bae34b6edcd5bb799,16:17:01,27/03/2024
html-keyboard-response,117,247520,0.0-50.0-1.0,,"<div style=""display: flex; flex-direction: column; align-items: center; margin-top: -40px;""><img src=""images/pattern_4.png"" style=""width: 234px; height: 230px; margin-top: -50px;""><div style=""display: flex; justify-content: space-between; margin-top: 33px;""><img src=""images/choice_trial_15.png"" style=""width: 408px; height: 417px; margin-right: 608px;""></div></div>",,delaylearn,learning,display_response,lEjoqmE8I4QlPtkg6spzllEllyo2,lEjoqmE8I4QlPtkg6spzllEllyo2,,,,,,,,,,,,,,,,,chosen stimuli: images/choice_trial_15.png,,,,,63ea551bae34b6edcd5bb799,16:17:01,27/03/2024
html-keyboard-response,118,254526,0.0-50.0-2.0,,,,delaylearn,learning,feedback_duration_window,lEjoqmE8I4QlPtkg6spzllEllyo2,lEjoqmE8I4QlPtkg6spzllEllyo2,,,,,,,,,,,,,,,,,,7000.0,,,,63ea551bae34b6edcd5bb799,16:17:01,27/03/2024
html-keyboard-response,119,256038,0.0-50.0-3.0,,<div style='margin:auto;width: auto; font-size: 150%'><span style='font-weight: bold; font-size: 100px; color: green;'>+10 points!</span><br><br></div>,,delaylearn,learning,feedback_image_window,lEjoqmE8I4QlPtkg6spzllEllyo2,lEjoqmE8I4QlPtkg6spzllEllyo2,,,,,,,,,,,,,,,,,,,,,,63ea551bae34b6edcd5bb799,16:17:01,27/03/2024
html-keyboard-response,120,256554,0.0-51.0-0.0,,,,,,mood_trial_fixation,lEjoqmE8I4QlPtkg6spzllEllyo2,,,,,,,,,,,,,,,,,,,,,,,63ea551bae34b6edcd5bb799,16:17:01,27/03/2024
lmdlab-html-vas-response,121,262252,0.0-51.0-1.0,4690.0,How happy are you right now?,0.2361111111111111,delaylearn,learning,mood_trial,lEjoqmE8I4QlPtkg6spzllEllyo2,lEjoqmE8I4QlPtkg6spzllEllyo2,,,,,,,,,,,,,,,,,,,,"['Very unhappy', 'Very happy']",,63ea551bae34b6edcd5bb799,16:17:01,27/03/2024
html-keyboard-response,122,264630,0.0-52.0,,"<div style=""font-size:100px;"">+</div>",,delaylearn,learning,ITI,lEjoqmE8I4QlPtkg6spzllEllyo2,lEjoqmE8I4QlPtkg6spzllEllyo2,,,,,,,,,,,,,,,,,,,2368.0,,,63ea551bae34b6edcd5bb799,16:17:01,27/03/2024
html-keyboard-response,123,266167,0.0-53.0-0.0,1534.7000000476837,"<div style=""display: flex; flex-direction: column; align-items: center; margin-top: -40px;""><img src=""images/pattern_7.png"" style=""width: 234px; height: 230px; margin-top: -50px;""><div style=""display: flex; justify-content: space-between; margin-top: 33px;""><img src=""images/choice_trial_12.png"" style=""width: 408px; height: 417px; margin-right: 200px;""><img src=""images/choice_trial_6.png"" style=""width: 408px; height: 417px;""></div></div>",f,delaylearn,learning,trial,lEjoqmE8I4QlPtkg6spzllEllyo2,lEjoqmE8I4QlPtkg6spzllEllyo2,3.0,images/choice_trial_12.png,images/choice_trial_6.png,images/pattern_7.png,j,j,750.0,12.0,6.0,6.0,1.0,23.0,0.0,0.0,12.0,120.0,,,,,,63ea551bae34b6edcd5bb799,16:17:01,27/03/2024
html-keyboard-response,124,267172,0.0-53.0-1.0,,"<div style=""display: flex; flex-direction: column; align-items: center; margin-top: -40px;""><img src=""images/pattern_7.png"" style=""width: 234px; height: 230px; margin-top: -50px;""><div style=""display: flex; justify-content: space-between; margin-top: 33px;""><img src=""images/choice_trial_12.png"" style=""width: 408px; height: 417px; margin-right: 608px;""></div></div>",,delaylearn,learning,display_response,lEjoqmE8I4QlPtkg6spzllEllyo2,lEjoqmE8I4QlPtkg6spzllEllyo2,,,,,,,,,,,,,,,,,chosen stimuli: images/choice_trial_12.png,,,,,63ea551bae34b6edcd5bb799,16:17:01,27/03/2024
html-keyboard-response,125,267937,0.0-53.0-2.0,,,,delaylearn,learning,feedback_duration_window,lEjoqmE8I4QlPtkg6spzllEllyo2,lEjoqmE8I4QlPtkg6spzllEllyo2,,,,,,,,,,,,,,,,,,750.0,,,,63ea551bae34b6edcd5bb799,16:17:01,27/03/2024
html-keyboard-response,126,269441,0.0-53.0-3.0,,<div style='margin:auto;width: auto; font-size: 150%'><span style='font-weight: bold; font-size: 100px; color: red;'>0 points!</span><br><br></div>,,delaylearn,learning,feedback_image_window,lEjoqmE8I4QlPtkg6spzllEllyo2,lEjoqmE8I4QlPtkg6spzllEllyo2,,,,,,,,,,,,,,,,,,,,,,63ea551bae34b6edcd5bb799,16:17:01,27/03/2024
html-keyboard-response,127,271377,0.0-54.0,,"<div style=""font-size:100px;"">+</div>",,delaylearn,learning,ITI,lEjoqmE8I4QlPtkg6spzllEllyo2,lEjoqmE8I4QlPtkg6spzllEllyo2,,,,,,,,,,,,,,,,,,,1933.0,,,63ea551bae34b6edcd5bb799,16:17:01,27/03/2024
html-keyboard-response,128,272660,0.0-55.0-0.0,1281.1000000238419,"<div style=""display: flex; flex-direction: column; align-items: center; margin-top: -40px;""><img src=""images/pattern_1.png"" style=""width: 234px; height: 230px; margin-top: -50px;""><div style=""display: flex; justify-content: space-between; margin-top: 33px;""><img src=""images/choice_trial_8.png"" style=""width: 408px; height: 417px; margin-right: 200px;""><img src=""images/choice_trial_14.png"" style=""width: 408px; height: 417px;""></div></div>",j,delaylearn,learning,trial,lEjoqmE8I4QlPtkg6spzllEllyo2,lEjoqmE8I4QlPtkg6spzllEllyo2,3.0,images/choice_trial_8.png,images/choice_trial_14.png,images/pattern_1.png,f,j,7000.0,8.0,14.0,1.0,1.0,24.0,1.0,0.0,14.0,120.0,,,,,,63ea551bae34b6edcd5bb799,16:17:01,27/03/2024
html-keyboard-response,129,273670,0.0-55.0-1.0,,"<div style=""display: flex; flex-direction: column; align-items: center; margin-top: -40px;""><img src=""images/pattern_1.png"" style=""width: 234px; height: 230px; margin-top: -50px;""><div style=""display: flex; justify-content: space-between; margin-top: 33px;""><img src=""images/choice_trial_14.png"" style=""width: 408px; height: 417px; margin-left:608px;""></div></div>",,delaylearn,learning,display_response,lEjoqmE8I4QlPtkg6spzllEllyo2,lEjoqmE8I4QlPtkg6spzllEllyo2,,,,,,,,,,,,,,,,,chosen stimuli: images/choice_trial_14.png,,,,,63ea551bae34b6edcd5bb799,16:17:01,27/03/2024
html-keyboard-response,130,280676,0.0-55.0-2.0,,,,delaylearn,learning,feedback_duration_window,lEjoqmE8I4QlPtkg6spzllEllyo2,lEjoqmE8I4QlPtkg6spzllEllyo2,,,,,,,,,,,,,,,,,,7000.0,,,,63ea551bae34b6edcd5bb799,16:17:01,27/03/2024
html-keyboard-response,131,282189,0.0-55.0-3.0,,<div style='margin:auto;width: auto; font-size: 150%'><span style='font-weight: bold; font-size: 100px; color: red;'>0 points!</span><br><br></div>,,delaylearn,learning,feedback_image_window,lEjoqmE8I4QlPtkg6spzllEllyo2,lEjoqmE8I4QlPtkg6spzllEllyo2,,,,,,,,,,,,,,,,,,,,,,63ea551bae34b6edcd5bb799,16:17:01,27/03/2024
html-keyboard-response,132,283737,0.0-56.0,,"<div style=""font-size:100px;"">+</div>",,delaylearn,learning,ITI,lEjoqmE8I4QlPtkg6spzllEllyo2,lEjoqmE8I4QlPtkg6spzllEllyo2,,,,,,,,,,,,,,,,,,,1532.0,,,63ea551bae34b6edcd5bb799,16:17:01,27/03/2024
html-keyboard-response,133,286316,0.0-57.0-0.0,2576.5,"<div style=""display: flex; flex-direction: column; align-items: center; margin-top: -40px;""><img src=""images/pattern_5.png"" style=""width: 234px; height: 230px; margin-top: -50px;""><div style=""display: flex; justify-content: space-between; margin-top: 33px;""><img src=""images/choice_trial_2.png"" style=""width: 408px; height: 417px; margin-right: 200px;""><img src=""images/choice_trial_11.png"" style=""width: 408px; height: 417px;""></div></div>",j,delaylearn,learning,trial,lEjoqmE8I4QlPtkg6spzllEllyo2,lEjoqmE8I4QlPtkg6spzllEllyo2,3.0,images/choice_trial_2.png,images/choice_trial_11.png,images/pattern_5.png,j,j,750.0,2.0,11.0,4.0,1.0,25.0,1.0,1.0,11.0,130.0,,,,,,63ea551bae34b6edcd5bb799,16:17:01,27/03/2024
html-keyboard-response,134,287322,0.0-57.0-1.0,,"<div style=""display: flex; flex-direction: column; align-items: center; margin-top: -40px;""><img src=""images/pattern_5.png"" style=""width: 234px; height: 230px; margin-top: -50px;""><div style=""display: flex; justify-content: space-between; margin-top: 33px;""><img src=""images/choice_trial_11.png"" style=""width: 408px; height: 417px; margin-left:608px;""></div></div>",,delaylearn,learning,display_response,lEjoqmE8I4QlPtkg6spzllEllyo2,lEjoqmE8I4QlPtkg6spzllEllyo2,,,,,,,,,,,,,,,,,chosen stimuli: images/choice_trial_11.png,,,,,63ea551bae34b6edcd5bb799,16:17:01,27/03/2024
html-keyboard-response,135,288087,0.0-57.0-2.0,,,,delaylearn,learning,feedback_duration_window,lEjoqmE8I4QlPtkg6spzllEllyo2,lEjoqmE8I4QlPtkg6spzllEllyo2,,,,,,,,,,,,,,,,,,750.0,,,,63ea551bae34b6edcd5bb799,16:17:01,27/03/2024
html-keyboard-response,136,289604,0.0-57.0-3.0,,<div style='margin:auto;width: auto; font-size: 150%'><span style='font-weight: bold; font-size: 100px; color: green;'>+10 points!</span><br><br></div>,,delaylearn,learning,feedback_image_window,lEjoqmE8I4QlPtkg6spzllEllyo2,lEjoqmE8I4QlPtkg6spzllEllyo2,,,,,,,,,,,,,,,,,,,,,,63ea551bae34b6edcd5bb799,16:17:01,27/03/2024
html-keyboard-response,137,291138,0.0-58.0,,"<div style=""font-size:100px;"">+</div>",,delaylearn,learning,ITI,lEjoqmE8I4QlPtkg6spzllEllyo2,lEjoqmE8I4QlPtkg6spzllEllyo2,,,,,,,,,,,,,,,,,,,1532.0,,,63ea551bae34b6edcd5bb799,16:17:01,27/03/2024
html-keyboard-response,138,293387,0.0-59.0-0.0,2246.7999999523163,"<div style=""display: flex; flex-direction: column; align-items: center; margin-top: -40px;""><img src=""images/pattern_3.png"" style=""width: 234px; height: 230px; margin-top: -50px;""><div style=""display: flex; justify-content: space-between; margin-top: 33px;""><img src=""images/choice_trial_10.png"" style=""width: 408px; height: 417px; margin-right: 200px;""><img src=""images/choice_trial_13.png"" style=""width: 408px; height: 417px;""></div></div>",f,delaylearn,learning,trial,lEjoqmE8I4QlPtkg6spzllEllyo2,lEjoqmE8I4QlPtkg6spzllEllyo2,3.0,images/choice_trial_10.png,images/choice_trial_13.png,images/pattern_3.png,j,j,7000.0,10.0,13.0,2.0,1.0,26.0,0.0,0.0,10.0,130.0,,,,,,63ea551bae34b6edcd5bb799,16:17:01,27/03/2024
html-keyboard-response,139,294405,0.0-59.0-1.0,,"<div style=""display: flex; flex-direction: column; align-items: center; margin-top: -40px;""><img src=""images/pattern_3.png"" style=""width: 234px; height: 230px; margin-top: -50px;""><div style=""display: flex; justify-content: space-between; margin-top: 33px;""><img src=""images/choice_trial_10.png"" style=""width: 408px; height: 417px; margin-right: 608px;""></div></div>",,delaylearn,learning,display_response,lEjoqmE8I4QlPtkg6spzllEllyo2,lEjoqmE8I4QlPtkg6spzllEllyo2,,,,,,,,,,,,,,,,,chosen stimuli: images/choice_trial_10.png,,,,,63ea551bae34b6edcd5bb799,16:17:01,27/03/2024
html-keyboard-response,140,301410,0.0-59.0-2.0,,,,delaylearn,learning,feedback_duration_window,lEjoqmE8I4QlPtkg6spzllEllyo2,lEjoqmE8I4QlPtkg6spzllEllyo2,,,,,,,,,,,,,,,,,,7000.0,,,,63ea551bae34b6edcd5bb799,16:17:01,27/03/2024
html-keyboard-response,141,302922,0.0-59.0-3.0,,<div style='margin:auto;width: auto; font-size: 150%'><span style='font-weight: bold; font-size: 100px; color: red;'>0 points!</span><br><br></div>,,delaylearn,learning,feedback_image_window,lEjoqmE8I4QlPtkg6spzllEllyo2,lEjoqmE8I4QlPtkg6spzllEllyo2,,,,,,,,,,,,,,,,,,,,,,63ea551bae34b6edcd5bb799,16:17:01,27/03/2024
lmdlab-html-vas-response,142,310195,0.0-60.0-0.0,5749.0,*How <b><u>confident</u></b> are you feeling about your answers at this moment?*,0.2716049382716049,rewlearn,rate_confidence,,lEjoqmE8I4QlPtkg6spzllEllyo2,lEjoqmE8I4QlPtkg6spzllEllyo2,,,,,,,,,,,,,,,,,,,,"['No confidence', 'Complete confidence']",,63ea551bae34b6edcd5bb799,16:17:01,27/03/2024
lmdlab-rest-trial-limit,143,319936,0.0-60.0-1.0,8237.399999976158,"<div style=""font-size:40px;""><b>Please take a break!</b><br><br><br><br><p>Great work: you earned 130 points.<br><br><br><p>You have completed part(s) 1 of 5.<br><br><br><br>When you are ready to continue<br><br><br>please click the button.</p><br><br>",0,delaylearn,learning,break,lEjoqmE8I4QlPtkg6spzllEllyo2,lEjoqmE8I4QlPtkg6spzllEllyo2,,,,,,,,,,,,,,,,,,,,,0.0,63ea551bae34b6edcd5bb799,16:17:01,27/03/2024
html-keyboard-response,144,322940,0.0-60.0-2.0,,"<div style=""font-size:100px;"">+</div>",,delaylearn,learning,pre_fixation,lEjoqmE8I4QlPtkg6spzllEllyo2,,,,,,,,,,,,,,,,,,,,,,,63ea551bae34b6edcd5bb799,16:17:01,27/03/2024
lmdlab-html-vas-response,145,326811,0.0-60.0-3.0-0.0,2850.0,How happy are you right now?,0.3487654320987654,delaylearn,learning,mood_baseline,lEjoqmE8I4QlPtkg6spzllEllyo2,lEjoqmE8I4QlPtkg6spzllEllyo2,,,,,,,,,,,,,,,,,,,,"['Very unhappy', 'Very happy']",,63ea551bae34b6edcd5bb799,16:17:01,27/03/2024
html-keyboard-response,146,328328,0.0-60.0-3.0-1.0,,,,,,mood_baseline_fixation,lEjoqmE8I4QlPtkg6spzllEllyo2,,,,,,,,,,,,,,,,,,,,,,,63ea551bae34b6edcd5bb799,16:17:01,27/03/2024
html-keyboard-response,147,330323,0.0-61.0,,"<div style=""font-size:100px;"">+</div>",,delaylearn,learning,ITI,lEjoqmE8I4QlPtkg6spzllEllyo2,lEjoqmE8I4QlPtkg6spzllEllyo2,,,,,,,,,,,,,,,,,,,1990.0,,,63ea551bae34b6edcd5bb799,16:17:01,27/03/2024
html-keyboard-response,148,332059,0.0-62.0-0.0,1733.8999999761581,"<div style=""display: flex; flex-direction: column; align-items: center; margin-top: -40px;""><img src=""images/pattern_7.png"" style=""width: 234px; height: 230px; margin-top: -50px;""><div style=""display: flex; justify-content: space-between; margin-top: 33px;""><img src=""images/choice_trial_12.png"" style=""width: 408px; height: 417px; margin-right: 200px;""><img src=""images/choice_trial_6.png"" style=""width: 408px; height: 417px;""></div></div>",j,delaylearn,learning,trial,lEjoqmE8I4QlPtkg6spzllEllyo2,lEjoqmE8I4QlPtkg6spzllEllyo2,3.0,images/choice_trial_12.png,images/choice_trial_6.png,images/pattern_7.png,j,j,750.0,12.0,6.0,6.0,1.0,27.0,1.0,1.0,6.0,140.0,,,,,,63ea551bae34b6edcd5bb799,16:17:01,27/03/2024
html-keyboard-response,149,333071,0.0-62.0-1.0,,"<div style=""display: flex; flex-direction: column; align-items: center; margin-top: -40px;""><img src=""images/pattern_7.png"" style=""width: 234px; height: 230px; margin-top: -50px;""><div style=""display: flex; justify-content: space-between; margin-top: 33px;""><img src=""images/choice_trial_6.png"" style=""width: 408px; height: 417px; margin-left:608px;""></div></div>",,delaylearn,learning,display_response,lEjoqmE8I4QlPtkg6spzllEllyo2,lEjoqmE8I4QlPtkg6spzllEllyo2,,,,,,,,,,,,,,,,,chosen stimuli: images/choice_trial_6.png,,,,,63ea551bae34b6edcd5bb799,16:17:01,27/03/2024
html-keyboard-response,150,333837,0.0-62.0-2.0,,,,delaylearn,learning,feedback_duration_window,lEjoqmE8I4QlPtkg6spzllEllyo2,lEjoqmE8I4QlPtkg6spzllEllyo2,,,,,,,,,,,,,,,,,,750.0,,,,63ea551bae34b6edcd5bb799,16:17:01,27/03/2024
html-keyboard-response,151,335354,0.0-62.0-3.0,,<div style='margin:auto;width: auto; font-size: 150%'><span style='font-weight: bold; font-size: 100px; color: green;'>+10 points!</span><br><br></div>,,delaylearn,learning,feedback_image_window,lEjoqmE8I4QlPtkg6spzllEllyo2,lEjoqmE8I4QlPtkg6spzllEllyo2,,,,,,,,,,,,,,,,,,,,,,63ea551bae34b6edcd5bb799,16:17:01,27/03/2024
html-keyboard-response,152,335870,0.0-63.0-0.0,,,,,,mood_trial_fixation,lEjoqmE8I4QlPtkg6spzllEllyo2,,,,,,,,,,,,,,,,,,,,,,,63ea551bae34b6edcd5bb799,16:17:01,27/03/2024
lmdlab-html-vas-response,153,339535,0.0-63.0-1.0,2660.0,How happy are you right now?,0.2962962962962963,delaylearn,learning,mood_trial,lEjoqmE8I4QlPtkg6spzllEllyo2,lEjoqmE8I4QlPtkg6spzllEllyo2,,,,,,,,,,,,,,,,,,,,"['Very unhappy', 'Very happy']",,63ea551bae34b6edcd5bb799,16:17:01,27/03/2024
html-keyboard-response,154,341400,0.0-64.0,,"<div style=""font-size:100px;"">+</div>",,delaylearn,learning,ITI,lEjoqmE8I4QlPtkg6spzllEllyo2,lEjoqmE8I4QlPtkg6spzllEllyo2,,,,,,,,,,,,,,,,,,,1860.0,,,63ea551bae34b6edcd5bb799,16:17:01,27/03/2024
html-keyboard-response,155,342828,0.0-65.0-0.0,1424.5,"<div style=""display: flex; flex-direction: column; align-items: center; margin-top: -40px;""><img src=""images/pattern_1.png"" style=""width: 234px; height: 230px; margin-top: -50px;""><div style=""display: flex; justify-content: space-between; margin-top: 33px;""><img src=""images/choice_trial_14.png"" style=""width: 408px; height: 417px; margin-right: 200px;""><img src=""images/choice_trial_8.png"" style=""width: 408px; height: 417px;""></div></div>",f,delaylearn,learning,trial,lEjoqmE8I4QlPtkg6spzllEllyo2,lEjoqmE8I4QlPtkg6spzllEllyo2,3.0,images/choice_trial_14.png,images/choice_trial_8.png,images/pattern_1.png,f,f,7000.0,14.0,8.0,1.0,0.0,28.0,1.0,1.0,14.0,150.0,,,,,,63ea551bae34b6edcd5bb799,16:17:01,27/03/2024
html-keyboard-response,156,343838,0.0-65.0-1.0,,"<div style=""display: flex; flex-direction: column; align-items: center; margin-top: -40px;""><img src=""images/pattern_1.png"" style=""width: 234px; height: 230px; margin-top: -50px;""><div style=""display: flex; justify-content: space-between; margin-top: 33px;""><img src=""images/choice_trial_14.png"" style=""width: 408px; height: 417px; margin-right: 608px;""></div></div>",,delaylearn,learning,display_response,lEjoqmE8I4QlPtkg6spzllEllyo2,lEjoqmE8I4QlPtkg6spzllEllyo2,,,,,,,,,,,,,,,,,chosen stimuli: images/choice_trial_14.png,,,,,63ea551bae34b6edcd5bb799,16:17:01,27/03/2024
html-keyboard-response,157,350842,0.0-65.0-2.0,,,,delaylearn,learning,feedback_duration_window,lEjoqmE8I4QlPtkg6spzllEllyo2,lEjoqmE8I4QlPtkg6spzllEllyo2,,,,,,,,,,,,,,,,,,7000.0,,,,63ea551bae34b6edcd5bb799,16:17:01,27/03/2024
html-keyboard-response,158,352355,0.0-65.0-3.0,,<div style='margin:auto;width: auto; font-size: 150%'><span style='font-weight: bold; font-size: 100px; color: green;'>+10 points!</span><br><br></div>,,delaylearn,learning,feedback_image_window,lEjoqmE8I4QlPtkg6spzllEllyo2,lEjoqmE8I4QlPtkg6spzllEllyo2,,,,,,,,,,,,,,,,,,,,,,63ea551bae34b6edcd5bb799,16:17:01,27/03/2024
html-keyboard-response,159,354684,0.0-66.0,,"<div style=""font-size:100px;"">+</div>",,delaylearn,learning,ITI,lEjoqmE8I4QlPtkg6spzllEllyo2,lEjoqmE8I4QlPtkg6spzllEllyo2,,,,,,,,,,,,,,,,,,,2329.0,,,63ea551bae34b6edcd5bb799,16:17:01,27/03/2024
html-keyboard-response,160,357019,0.0-67.0-0.0,2333.899999976158,"<div style=""display: flex; flex-direction: column; align-items: center; margin-top: -40px;""><img src=""images/pattern_5.png"" style=""width: 234px; height: 230px; margin-top: -50px;""><div style=""display: flex; justify-content: space-between; margin-top: 33px;""><img src=""images/choice_trial_11.png"" style=""width: 408px; height: 417px; margin-right: 200px;""><img src=""images/choice_trial_2.png"" style=""width: 408px; height: 417px;""></div></div>",j,delaylearn,learning,trial,lEjoqmE8I4QlPtkg6spzllEllyo2,lEjoqmE8I4QlPtkg6spzllEllyo2,3.0,images/choice_trial_11.png,images/choice_trial_2.png,images/pattern_5.png,f,f,750.0,11.0,2.0,4.0,0.0,29.0,0.0,0.0,2.0,150.0,,,,,,63ea551bae34b6edcd5bb799,16:17:01,27/03/2024
html-keyboard-response,161,358021,0.0-67.0-1.0,,"<div style=""display: flex; flex-direction: column; align-items: center; margin-top: -40px;""><img src=""images/pattern_5.png"" style=""width: 234px; height: 230px; margin-top: -50px;""><div style=""display: flex; justify-content: space-between; margin-top: 33px;""><img src=""images/choice_trial_2.png"" style=""width: 408px; height: 417px; margin-left:608px;""></div></div>",,delaylearn,learning,display_response,lEjoqmE8I4QlPtkg6spzllEllyo2,lEjoqmE8I4QlPtkg6spzllEllyo2,,,,,,,,,,,,,,,,,chosen stimuli: images/choice_trial_2.png,,,,,63ea551bae34b6edcd5bb799,16:17:01,27/03/2024
html-keyboard-response,162,358773,0.0-67.0-2.0,,,,delaylearn,learning,feedback_duration_window,lEjoqmE8I4QlPtkg6spzllEllyo2,lEjoqmE8I4QlPtkg6spzllEllyo2,,,,,,,,,,,,,,,,,,750.0,,,,63ea551bae34b6edcd5bb799,16:17:01,27/03/2024
html-keyboard-response,163,360274,0.0-67.0-3.0,,<div style='margin:auto;width: auto; font-size: 150%'><span style='font-weight: bold; font-size: 100px; color: red;'>0 points!</span><br><br></div>,,delaylearn,learning,feedback_image_window,lEjoqmE8I4QlPtkg6spzllEllyo2,lEjoqmE8I4QlPtkg6spzllEllyo2,,,,,,,,,,,,,,,,,,,,,,63ea551bae34b6edcd5bb799,16:17:01,27/03/2024
html-keyboard-response,164,362554,0.0-68.0,,"<div style=""font-size:100px;"">+</div>",,delaylearn,learning,ITI,lEjoqmE8I4QlPtkg6spzllEllyo2,lEjoqmE8I4QlPtkg6spzllEllyo2,,,,,,,,,,,,,,,,,,,2266.0,,,63ea551bae34b6edcd5bb799,16:17:01,27/03/2024
html-keyboard-response,165,364291,0.0-69.0-0.0,1734.9000000953674,"<div style=""display: flex; flex-direction: column; align-items: center; margin-top: -40px;""><img src=""images/pattern_6.png"" style=""width: 234px; height: 230px; margin-top: -50px;""><div style=""display: flex; justify-content: space-between; margin-top: 33px;""><img src=""images/choice_trial_3.png"" style=""width: 408px; height: 417px; margin-right: 200px;""><img src=""images/choice_trial_16.png"" style=""width: 408px; height: 417px;""></div></div>",f,delaylearn,learning,trial,lEjoqmE8I4QlPtkg6spzllEllyo2,lEjoqmE8I4QlPtkg6spzllEllyo2,3.0,images/choice_trial_3.png,images/choice_trial_16.png,images/pattern_6.png,j,j,750.0,3.0,16.0,5.0,1.0,30.0,0.0,0.0,3.0,150.0,,,,,,63ea551bae34b6edcd5bb799,16:17:01,27/03/2024
html-keyboard-response,166,365305,0.0-69.0-1.0,,"<div style=""display: flex; flex-direction: column; align-items: center; margin-top: -40px;""><img src=""images/pattern_6.png"" style=""width: 234px; height: 230px; margin-top: -50px;""><div style=""display: flex; justify-content: space-between; margin-top: 33px;""><img src=""images/choice_trial_3.png"" style=""width: 408px; height: 417px; margin-right: 608px;""></div></div>",,delaylearn,learning,display_response,lEjoqmE8I4QlPtkg6spzllEllyo2,lEjoqmE8I4QlPtkg6spzllEllyo2,,,,,,,,,,,,,,,,,chosen stimuli: images/choice_trial_3.png,,,,,63ea551bae34b6edcd5bb799,16:17:01,27/03/2024
html-keyboard-response,167,366070,0.0-69.0-2.0,,,,delaylearn,learning,feedback_duration_window,lEjoqmE8I4QlPtkg6spzllEllyo2,lEjoqmE8I4QlPtkg6spzllEllyo2,,,,,,,,,,,,,,,,,,750.0,,,,63ea551bae34b6edcd5bb799,16:17:01,27/03/2024
html-keyboard-response,168,367572,0.0-69.0-3.0,,<div style='margin:auto;width: auto; font-size: 150%'><span style='font-weight: bold; font-size: 100px; color: red;'>0 points!</span><br><br></div>,,delaylearn,learning,feedback_image_window,lEjoqmE8I4QlPtkg6spzllEllyo2,lEjoqmE8I4QlPtkg6spzllEllyo2,,,,,,,,,,,,,,,,,,,,,,63ea551bae34b6edcd5bb799,16:17:01,27/03/2024
html-keyboard-response,169,368087,0.0-70.0-0.0,,,,,,mood_trial_fixation,lEjoqmE8I4QlPtkg6spzllEllyo2,,,,,,,,,,,,,,,,,,,,,,,63ea551bae34b6edcd5bb799,16:17:01,27/03/2024
lmdlab-html-vas-response,170,372633,0.0-70.0-1.0,3538.0,How happy are you right now?,0.23148148148148148,delaylearn,learning,mood_trial,lEjoqmE8I4QlPtkg6spzllEllyo2,lEjoqmE8I4QlPtkg6spzllEllyo2,,,,,,,,,,,,,,,,,,,,"['Very unhappy', 'Very happy']",,63ea551bae34b6edcd5bb799,16:17:01,27/03/2024
html-keyboard-response,171,375091,0.0-71.0,,"<div style=""font-size:100px;"">+</div>",,delaylearn,learning,ITI,lEjoqmE8I4QlPtkg6spzllEllyo2,lEjoqmE8I4QlPtkg6spzllEllyo2,,,,,,,,,,,,,,,,,,,2455.0,,,63ea551bae34b6edcd5bb799,16:17:01,27/03/2024
html-keyboard-response,172,376983,0.0-72.0-0.0,1889.6000000238419,"<div style=""display: flex; flex-direction: column; align-items: center; margin-top: -40px;""><img src=""images/pattern_4.png"" style=""width: 234px; height: 230px; margin-top: -50px;""><div style=""display: flex; justify-content: space-between; margin-top: 33px;""><img src=""images/choice_trial_9.png"" style=""width: 408px; height: 417px; margin-right: 200px;""><img src=""images/choice_trial_15.png"" style=""width: 408px; height: 417px;""></div></div>",j,delaylearn,learning,trial,lEjoqmE8I4QlPtkg6spzllEllyo2,lEjoqmE8I4QlPtkg6spzllEllyo2,3.0,images/choice_trial_9.png,images/choice_trial_15.png,images/pattern_4.png,j,j,7000.0,9.0,15.0,3.0,1.0,31.0,1.0,1.0,15.0,160.0,,,,,,63ea551bae34b6edcd5bb799,16:17:01,27/03/2024
html-keyboard-response,173,377988,0.0-72.0-1.0,,"<div style=""display: flex; flex-direction: column; align-items: center; margin-top: -40px;""><img src=""images/pattern_4.png"" style=""width: 234px; height: 230px; margin-top: -50px;""><div style=""display: flex; justify-content: space-between; margin-top: 33px;""><img src=""images/choice_trial_15.png"" style=""width: 408px; height: 417px; margin-left:608px;""></div></div>",,delaylearn,learning,display_response,lEjoqmE8I4QlPtkg6spzllEllyo2,lEjoqmE8I4QlPtkg6spzllEllyo2,,,,,,,,,,,,,,,,,chosen stimuli: images/choice_trial_15.png,,,,,63ea551bae34b6edcd5bb799,16:17:01,27/03/2024
html-keyboard-response,174,384992,0.0-72.0-2.0,,,,delaylearn,learning,feedback_duration_window,lEjoqmE8I4QlPtkg6spzllEllyo2,lEjoqmE8I4QlPtkg6spzllEllyo2,,,,,,,,,,,,,,,,,,7000.0,,,,63ea551bae34b6edcd5bb799,16:17:01,27/03/2024
html-keyboard-response,175,386504,0.0-72.0-3.0,,<div style='margin:auto;width: auto; font-size: 150%'><span style='font-weight: bold; font-size: 100px; color: green;'>+10 points!</span><br><br></div>,,delaylearn,learning,feedback_image_window,lEjoqmE8I4QlPtkg6spzllEllyo2,lEjoqmE8I4QlPtkg6spzllEllyo2,,,,,,,,,,,,,,,,,,,,,,63ea551bae34b6edcd5bb799,16:17:01,27/03/2024
html-keyboard-response,176,388021,0.0-73.0,,"<div style=""font-size:100px;"">+</div>",,delaylearn,learning,ITI,lEjoqmE8I4QlPtkg6spzllEllyo2,lEjoqmE8I4QlPtkg6spzllEllyo2,,,,,,,,,,,,,,,,,,,1509.0,,,63ea551bae34b6edcd5bb799,16:17:01,27/03/2024
html-keyboard-response,177,389899,0.0-74.0-0.0,1875.2000000476837,"<div style=""display: flex; flex-direction: column; align-items: center; margin-top: -40px;""><img src=""images/pattern_3.png"" style=""width: 234px; height: 230px; margin-top: -50px;""><div style=""display: flex; justify-content: space-between; margin-top: 33px;""><img src=""images/choice_trial_10.png"" style=""width: 408px; height: 417px; margin-right: 200px;""><img src=""images/choice_trial_13.png"" style=""width: 408px; height: 417px;""></div></div>",j,delaylearn,learning,trial,lEjoqmE8I4QlPtkg6spzllEllyo2,lEjoqmE8I4QlPtkg6spzllEllyo2,3.0,images/choice_trial_10.png,images/choice_trial_13.png,images/pattern_3.png,j,j,7000.0,10.0,13.0,2.0,1.0,32.0,1.0,1.0,13.0,170.0,,,,,,63ea551bae34b6edcd5bb799,16:17:01,27/03/2024
html-keyboard-response,178,390905,0.0-74.0-1.0,,"<div style=""display: flex; flex-direction: column; align-items: center; margin-top: -40px;""><img src=""images/pattern_3.png"" style=""width: 234px; height: 230px; margin-top: -50px;""><div style=""display: flex; justify-content: space-between; margin-top: 33px;""><img src=""images/choice_trial_13.png"" style=""width: 408px; height: 417px; margin-left:608px;""></div></div>",,delaylearn,learning,display_response,lEjoqmE8I4QlPtkg6spzllEllyo2,lEjoqmE8I4QlPtkg6spzllEllyo2,,,,,,,,,,,,,,,,,chosen stimuli: images/choice_trial_13.png,,,,,63ea551bae34b6edcd5bb799,16:17:01,27/03/2024
html-keyboard-response,179,397908,0.0-74.0-2.0,,,,delaylearn,learning,feedback_duration_window,lEjoqmE8I4QlPtkg6spzllEllyo2,lEjoqmE8I4QlPtkg6spzllEllyo2,,,,,,,,,,,,,,,,,,7000.0,,,,63ea551bae34b6edcd5bb799,16:17:01,27/03/2024
html-keyboard-response,180,399421,0.0-74.0-3.0,,<div style='margin:auto;width: auto; font-size: 150%'><span style='font-weight: bold; font-size: 100px; color: green;'>+10 points!</span><br><br></div>,,delaylearn,learning,feedback_image_window,lEjoqmE8I4QlPtkg6spzllEllyo2,lEjoqmE8I4QlPtkg6spzllEllyo2,,,,,,,,,,,,,,,,,,,,,,63ea551bae34b6edcd5bb799,16:17:01,27/03/2024
html-keyboard-response,181,401705,0.0-75.0,,"<div style=""font-size:100px;"">+</div>",,delaylearn,learning,ITI,lEjoqmE8I4QlPtkg6spzllEllyo2,lEjoqmE8I4QlPtkg6spzllEllyo2,,,,,,,,,,,,,,,,,,,2270.0,,,63ea551bae34b6edcd5bb799,16:17:01,27/03/2024
html-keyboard-response,182,403656,0.0-76.0-0.0,1948.3000000715256,"<div style=""display: flex; flex-direction: column; align-items: center; margin-top: -40px;""><img src=""images/pattern_5.png"" style=""width: 234px; height: 230px; margin-top: -50px;""><div style=""display: flex; justify-content: space-between; margin-top: 33px;""><img src=""images/choice_trial_11.png"" style=""width: 408px; height: 417px; margin-right: 200px;""><img src=""images/choice_trial_2.png"" style=""width: 408px; height: 417px;""></div></div>",f,delaylearn,learning,trial,lEjoqmE8I4QlPtkg6spzllEllyo2,lEjoqmE8I4QlPtkg6spzllEllyo2,3.0,images/choice_trial_11.png,images/choice_trial_2.png,images/pattern_5.png,j,f,750.0,11.0,2.0,4.0,0.0,33.0,1.0,0.0,11.0,170.0,,,,,,63ea551bae34b6edcd5bb799,16:17:01,27/03/2024
html-keyboard-response,183,404671,0.0-76.0-1.0,,"<div style=""display: flex; flex-direction: column; align-items: center; margin-top: -40px;""><img src=""images/pattern_5.png"" style=""width: 234px; height: 230px; margin-top: -50px;""><div style=""display: flex; justify-content: space-between; margin-top: 33px;""><img src=""images/choice_trial_11.png"" style=""width: 408px; height: 417px; margin-right: 608px;""></div></div>",,delaylearn,learning,display_response,lEjoqmE8I4QlPtkg6spzllEllyo2,lEjoqmE8I4QlPtkg6spzllEllyo2,,,,,,,,,,,,,,,,,chosen stimuli: images/choice_trial_11.png,,,,,63ea551bae34b6edcd5bb799,16:17:01,27/03/2024
html-keyboard-response,184,405437,0.0-76.0-2.0,,,,delaylearn,learning,feedback_duration_window,lEjoqmE8I4QlPtkg6spzllEllyo2,lEjoqmE8I4QlPtkg6spzllEllyo2,,,,,,,,,,,,,,,,,,750.0,,,,63ea551bae34b6edcd5bb799,16:17:01,27/03/2024
html-keyboard-response,185,406954,0.0-76.0-3.0,,<div style='margin:auto;width: auto; font-size: 150%'><span style='font-weight: bold; font-size: 100px; color: red;'>0 points!</span><br><br></div>,,delaylearn,learning,feedback_image_window,lEjoqmE8I4QlPtkg6spzllEllyo2,lEjoqmE8I4QlPtkg6spzllEllyo2,,,,,,,,,,,,,,,,,,,,,,63ea551bae34b6edcd5bb799,16:17:01,27/03/2024
html-keyboard-response,186,409411,0.0-77.0,,"<div style=""font-size:100px;"">+</div>",,delaylearn,learning,ITI,lEjoqmE8I4QlPtkg6spzllEllyo2,lEjoqmE8I4QlPtkg6spzllEllyo2,,,,,,,,,,,,,,,,,,,2450.0,,,63ea551bae34b6edcd5bb799,16:17:01,27/03/2024
html-keyboard-response,187,410959,0.0-78.0-0.0,1545.8999999761581,"<div style=""display: flex; flex-direction: column; align-items: center; margin-top: -40px;""><img src=""images/pattern_1.png"" style=""width: 234px; height: 230px; margin-top: -50px;""><div style=""display: flex; justify-content: space-between; margin-top: 33px;""><img src=""images/choice_trial_14.png"" style=""width: 408px; height: 417px; margin-right: 200px;""><img src=""images/choice_trial_8.png"" style=""width: 408px; height: 417px;""></div></div>",f,delaylearn,learning,trial,lEjoqmE8I4QlPtkg6spzllEllyo2,lEjoqmE8I4QlPtkg6spzllEllyo2,3.0,images/choice_trial_14.png,images/choice_trial_8.png,images/pattern_1.png,f,f,7000.0,14.0,8.0,1.0,0.0,34.0,1.0,1.0,14.0,180.0,,,,,,63ea551bae34b6edcd5bb799,16:17:01,27/03/2024
html-keyboard-response,188,411971,0.0-78.0-1.0,,"<div style=""display: flex; flex-direction: column; align-items: center; margin-top: -40px;""><img src=""images/pattern_1.png"" style=""width: 234px; height: 230px; margin-top: -50px;""><div style=""display: flex; justify-content: space-between; margin-top: 33px;""><img src=""images/choice_trial_14.png"" style=""width: 408px; height: 417px; margin-right: 608px;""></div></div>",,delaylearn,learning,display_response,lEjoqmE8I4QlPtkg6spzllEllyo2,lEjoqmE8I4QlPtkg6spzllEllyo2,,,,,,,,,,,,,,,,,chosen stimuli: images/choice_trial_14.png,,,,,63ea551bae34b6edcd5bb799,16:17:01,27/03/2024
html-keyboard-response,189,418977,0.0-78.0-2.0,,,,delaylearn,learning,feedback_duration_window,lEjoqmE8I4QlPtkg6spzllEllyo2,lEjoqmE8I4QlPtkg6spzllEllyo2,,,,,,,,,,,,,,,,,,7000.0,,,,63ea551bae34b6edcd5bb799,16:17:01,27/03/2024
html-keyboard-response,190,420487,0.0-78.0-3.0,,<div style='margin:auto;width: auto; font-size: 150%'><span style='font-weight: bold; font-size: 100px; color: green;'>+10 points!</span><br><br></div>,,delaylearn,learning,feedback_image_window,lEjoqmE8I4QlPtkg6spzllEllyo2,lEjoqmE8I4QlPtkg6spzllEllyo2,,,,,,,,,,,,,,,,,,,,,,63ea551bae34b6edcd5bb799,16:17:01,27/03/2024
html-keyboard-response,191,420988,0.0-79.0-0.0,,,,,,mood_trial_fixation,lEjoqmE8I4QlPtkg6spzllEllyo2,,,,,,,,,,,,,,,,,,,,,,,63ea551bae34b6edcd5bb799,16:17:01,27/03/2024
lmdlab-html-vas-response,192,425643,0.0-79.0-1.0,3633.0,How happy are you right now?,0.19444444444444445,delaylearn,learning,mood_trial,lEjoqmE8I4QlPtkg6spzllEllyo2,lEjoqmE8I4QlPtkg6spzllEllyo2,,,,,,,,,,,,,,,,,,,,"['Very unhappy', 'Very happy']",,63ea551bae34b6edcd5bb799,16:17:01,27/03/2024
html-keyboard-response,193,427964,0.0-80.0,,"<div style=""font-size:100px;"">+</div>",,delaylearn,learning,ITI,lEjoqmE8I4QlPtkg6spzllEllyo2,lEjoqmE8I4QlPtkg6spzllEllyo2,,,,,,,,,,,,,,,,,,,2304.0,,,63ea551bae34b6edcd5bb799,16:17:01,27/03/2024
html-keyboard-response,194,430291,0.0-81.0-0.0,2324.5,"<div style=""display: flex; flex-direction: column; align-items: center; margin-top: -40px;""><img src=""images/pattern_6.png"" style=""width: 234px; height: 230px; margin-top: -50px;""><div style=""display: flex; justify-content: space-between; margin-top: 33px;""><img src=""images/choice_trial_16.png"" style=""width: 408px; height: 417px; margin-right: 200px;""><img src=""images/choice_trial_3.png"" style=""width: 408px; height: 417px;""></div></div>",j,delaylearn,learning,trial,lEjoqmE8I4QlPtkg6spzllEllyo2,lEjoqmE8I4QlPtkg6spzllEllyo2,3.0,images/choice_trial_16.png,images/choice_trial_3.png,images/pattern_6.png,j,f,750.0,16.0,3.0,5.0,0.0,35.0,0.0,1.0,3.0,190.0,,,,,,63ea551bae34b6edcd5bb799,16:17:01,27/03/2024
html-keyboard-response,195,431306,0.0-81.0-1.0,,"<div style=""display: flex; flex-direction: column; align-items: center; margin-top: -40px;""><img src=""images/pattern_6.png"" style=""width: 234px; height: 230px; margin-top: -50px;""><div style=""display: flex; justify-content: space-between; margin-top: 33px;""><img src=""images/choice_trial_3.png"" style=""width: 408px; height: 417px; margin-left:608px;""></div></div>",,delaylearn,learning,display_response,lEjoqmE8I4QlPtkg6spzllEllyo2,lEjoqmE8I4QlPtkg6spzllEllyo2,,,,,,,,,,,,,,,,,chosen stimuli: images/choice_trial_3.png,,,,,63ea551bae34b6edcd5bb799,16:17:01,27/03/2024
html-keyboard-response,196,432071,0.0-81.0-2.0,,,,delaylearn,learning,feedback_duration_window,lEjoqmE8I4QlPtkg6spzllEllyo2,lEjoqmE8I4QlPtkg6spzllEllyo2,,,,,,,,,,,,,,,,,,750.0,,,,63ea551bae34b6edcd5bb799,16:17:01,27/03/2024
html-keyboard-response,197,433588,0.0-81.0-3.0,,<div style='margin:auto;width: auto; font-size: 150%'><span style='font-weight: bold; font-size: 100px; color: green;'>+10 points!</span><br><br></div>,,delaylearn,learning,feedback_image_window,lEjoqmE8I4QlPtkg6spzllEllyo2,lEjoqmE8I4QlPtkg6spzllEllyo2,,,,,,,,,,,,,,,,,,,,,,63ea551bae34b6edcd5bb799,16:17:01,27/03/2024
html-keyboard-response,198,436058,0.0-82.0,,"<div style=""font-size:100px;"">+</div>",,delaylearn,learning,ITI,lEjoqmE8I4QlPtkg6spzllEllyo2,lEjoqmE8I4QlPtkg6spzllEllyo2,,,,,,,,,,,,,,,,,,,2466.0,,,63ea551bae34b6edcd5bb799,16:17:01,27/03/2024
html-keyboard-response,199,437239,0.0-83.0-0.0,1178.3999999761581,"<div style=""display: flex; flex-direction: column; align-items: center; margin-top: -40px;""><img src=""images/pattern_3.png"" style=""width: 234px; height: 230px; margin-top: -50px;""><div style=""display: flex; justify-content: space-between; margin-top: 33px;""><img src=""images/choice_trial_10.png"" style=""width: 408px; height: 417px; margin-right: 200px;""><img src=""images/choice_trial_13.png"" style=""width: 408px; height: 417px;""></div></div>",j,delaylearn,learning,trial,lEjoqmE8I4QlPtkg6spzllEllyo2,lEjoqmE8I4QlPtkg6spzllEllyo2,3.0,images/choice_trial_10.png,images/choice_trial_13.png,images/pattern_3.png,j,j,7000.0,10.0,13.0,2.0,1.0,36.0,1.0,1.0,13.0,200.0,,,,,,63ea551bae34b6edcd5bb799,16:17:01,27/03/2024
html-keyboard-response,200,438254,0.0-83.0-1.0,,"<div style=""display: flex; flex-direction: column; align-items: center; margin-top: -40px;""><img src=""images/pattern_3.png"" style=""width: 234px; height: 230px; margin-top: -50px;""><div style=""display: flex; justify-content: space-between; margin-top: 33px;""><img src=""images/choice_trial_13.png"" style=""width: 408px; height: 417px; margin-left:608px;""></div></div>",,delaylearn,learning,display_response,lEjoqmE8I4QlPtkg6spzllEllyo2,lEjoqmE8I4QlPtkg6spzllEllyo2,,,,,,,,,,,,,,,,,chosen stimuli: images/choice_trial_13.png,,,,,63ea551bae34b6edcd5bb799,16:17:01,27/03/2024
html-keyboard-response,201,445258,0.0-83.0-2.0,,,,delaylearn,learning,feedback_duration_window,lEjoqmE8I4QlPtkg6spzllEllyo2,lEjoqmE8I4QlPtkg6spzllEllyo2,,,,,,,,,,,,,,,,,,7000.0,,,,63ea551bae34b6edcd5bb799,16:17:01,27/03/2024
html-keyboard-response,202,446771,0.0-83.0-3.0,,<div style='margin:auto;width: auto; font-size: 150%'><span style='font-weight: bold; font-size: 100px; color: green;'>+10 points!</span><br><br></div>,,delaylearn,learning,feedback_image_window,lEjoqmE8I4QlPtkg6spzllEllyo2,lEjoqmE8I4QlPtkg6spzllEllyo2,,,,,,,,,,,,,,,,,,,,,,63ea551bae34b6edcd5bb799,16:17:01,27/03/2024
html-keyboard-response,203,449007,0.0-84.0,,"<div style=""font-size:100px;"">+</div>",,delaylearn,learning,ITI,lEjoqmE8I4QlPtkg6spzllEllyo2,lEjoqmE8I4QlPtkg6spzllEllyo2,,,,,,,,,,,,,,,,,,,2220.0,,,63ea551bae34b6edcd5bb799,16:17:01,27/03/2024
html-keyboard-response,204,450419,0.0-85.0-0.0,1409.2000000476837,"<div style=""display: flex; flex-direction: column; align-items: center; margin-top: -40px;""><img src=""images/pattern_4.png"" style=""width: 234px; height: 230px; margin-top: -50px;""><div style=""display: flex; justify-content: space-between; margin-top: 33px;""><img src=""images/choice_trial_9.png"" style=""width: 408px; height: 417px; margin-right: 200px;""><img src=""images/choice_trial_15.png"" style=""width: 408px; height: 417px;""></div></div>",j,delaylearn,learning,trial,lEjoqmE8I4QlPtkg6spzllEllyo2,lEjoqmE8I4QlPtkg6spzllEllyo2,3.0,images/choice_trial_9.png,images/choice_trial_15.png,images/pattern_4.png,f,j,7000.0,9.0,15.0,3.0,1.0,37.0,1.0,0.0,15.0,200.0,,,,,,63ea551bae34b6edcd5bb799,16:17:01,27/03/2024
html-keyboard-response,205,451423,0.0-85.0-1.0,,"<div style=""display: flex; flex-direction: column; align-items: center; margin-top: -40px;""><img src=""images/pattern_4.png"" style=""width: 234px; height: 230px; margin-top: -50px;""><div style=""display: flex; justify-content: space-between; margin-top: 33px;""><img src=""images/choice_trial_15.png"" style=""width: 408px; height: 417px; margin-left:608px;""></div></div>",,delaylearn,learning,display_response,lEjoqmE8I4QlPtkg6spzllEllyo2,lEjoqmE8I4QlPtkg6spzllEllyo2,,,,,,,,,,,,,,,,,chosen stimuli: images/choice_trial_15.png,,,,,63ea551bae34b6edcd5bb799,16:17:01,27/03/2024
html-keyboard-response,206,458429,0.0-85.0-2.0,,,,delaylearn,learning,feedback_duration_window,lEjoqmE8I4QlPtkg6spzllEllyo2,lEjoqmE8I4QlPtkg6spzllEllyo2,,,,,,,,,,,,,,,,,,7000.0,,,,63ea551bae34b6edcd5bb799,16:17:01,27/03/2024
html-keyboard-response,207,459938,0.0-85.0-3.0,,<div style='margin:auto;width: auto; font-size: 150%'><span style='font-weight: bold; font-size: 100px; color: red;'>0 points!</span><br><br></div>,,delaylearn,learning,feedback_image_window,lEjoqmE8I4QlPtkg6spzllEllyo2,lEjoqmE8I4QlPtkg6spzllEllyo2,,,,,,,,,,,,,,,,,,,,,,63ea551bae34b6edcd5bb799,16:17:01,27/03/2024
html-keyboard-response,208,461829,0.0-86.0,,"<div style=""font-size:100px;"">+</div>",,delaylearn,learning,ITI,lEjoqmE8I4QlPtkg6spzllEllyo2,lEjoqmE8I4QlPtkg6spzllEllyo2,,,,,,,,,,,,,,,,,,,1876.0,,,63ea551bae34b6edcd5bb799,16:17:01,27/03/2024
html-keyboard-response,209,463382,0.0-87.0-0.0,1551.0,"<div style=""display: flex; flex-direction: column; align-items: center; margin-top: -40px;""><img src=""images/pattern_7.png"" style=""width: 234px; height: 230px; margin-top: -50px;""><div style=""display: flex; justify-content: space-between; margin-top: 33px;""><img src=""images/choice_trial_6.png"" style=""width: 408px; height: 417px; margin-right: 200px;""><img src=""images/choice_trial_12.png"" style=""width: 408px; height: 417px;""></div></div>",f,delaylearn,learning,trial,lEjoqmE8I4QlPtkg6spzllEllyo2,lEjoqmE8I4QlPtkg6spzllEllyo2,3.0,images/choice_trial_6.png,images/choice_trial_12.png,images/pattern_7.png,f,f,750.0,6.0,12.0,6.0,0.0,38.0,1.0,1.0,6.0,210.0,,,,,,63ea551bae34b6edcd5bb799,16:17:01,27/03/2024
html-keyboard-response,210,464387,0.0-87.0-1.0,,"<div style=""display: flex; flex-direction: column; align-items: center; margin-top: -40px;""><img src=""images/pattern_7.png"" style=""width: 234px; height: 230px; margin-top: -50px;""><div style=""display: flex; justify-content: space-between; margin-top: 33px;""><img src=""images/choice_trial_6.png"" style=""width: 408px; height: 417px; margin-right: 608px;""></div></div>",,delaylearn,learning,display_response,lEjoqmE8I4QlPtkg6spzllEllyo2,lEjoqmE8I4QlPtkg6spzllEllyo2,,,,,,,,,,,,,,,,,chosen stimuli: images/choice_trial_6.png,,,,,63ea551bae34b6edcd5bb799,16:17:01,27/03/2024
html-keyboard-response,211,465154,0.0-87.0-2.0,,,,delaylearn,learning,feedback_duration_window,lEjoqmE8I4QlPtkg6spzllEllyo2,lEjoqmE8I4QlPtkg6spzllEllyo2,,,,,,,,,,,,,,,,,,750.0,,,,63ea551bae34b6edcd5bb799,16:17:01,27/03/2024
html-keyboard-response,212,466671,0.0-87.0-3.0,,<div style='margin:auto;width: auto; font-size: 150%'><span style='font-weight: bold; font-size: 100px; color: green;'>+10 points!</span><br><br></div>,,delaylearn,learning,feedback_image_window,lEjoqmE8I4QlPtkg6spzllEllyo2,lEjoqmE8I4QlPtkg6spzllEllyo2,,,,,,,,,,,,,,,,,,,,,,63ea551bae34b6edcd5bb799,16:17:01,27/03/2024
html-keyboard-response,213,468531,0.0-88.0,,"<div style=""font-size:100px;"">+</div>",,delaylearn,learning,ITI,lEjoqmE8I4QlPtkg6spzllEllyo2,lEjoqmE8I4QlPtkg6spzllEllyo2,,,,,,,,,,,,,,,,,,,1856.0,,,63ea551bae34b6edcd5bb799,16:17:01,27/03/2024
html-keyboard-response,214,469811,0.0-89.0-0.0,1277.5,"<div style=""display: flex; flex-direction: column; align-items: center; margin-top: -40px;""><img src=""images/pattern_1.png"" style=""width: 234px; height: 230px; margin-top: -50px;""><div style=""display: flex; justify-content: space-between; margin-top: 33px;""><img src=""images/choice_trial_14.png"" style=""width: 408px; height: 417px; margin-right: 200px;""><img src=""images/choice_trial_8.png"" style=""width: 408px; height: 417px;""></div></div>",f,delaylearn,learning,trial,lEjoqmE8I4QlPtkg6spzllEllyo2,lEjoqmE8I4QlPtkg6spzllEllyo2,3.0,images/choice_trial_14.png,images/choice_trial_8.png,images/pattern_1.png,f,f,7000.0,14.0,8.0,1.0,0.0,39.0,1.0,1.0,14.0,220.0,,,,,,63ea551bae34b6edcd5bb799,16:17:01,27/03/2024
html-keyboard-response,215,470820,0.0-89.0-1.0,,"<div style=""display: flex; flex-direction: column; align-items: center; margin-top: -40px;""><img src=""images/pattern_1.png"" style=""width: 234px; height: 230px; margin-top: -50px;""><div style=""display: flex; justify-content: space-between; margin-top: 33px;""><img src=""images/choice_trial_14.png"" style=""width: 408px; height: 417px; margin-right: 608px;""></div></div>",,delaylearn,learning,display_response,lEjoqmE8I4QlPtkg6spzllEllyo2,lEjoqmE8I4QlPtkg6spzllEllyo2,,,,,,,,,,,,,,,,,chosen stimuli: images/choice_trial_14.png,,,,,63ea551bae34b6edcd5bb799,16:17:01,27/03/2024
html-keyboard-response,216,477829,0.0-89.0-2.0,,,,delaylearn,learning,feedback_duration_window,lEjoqmE8I4QlPtkg6spzllEllyo2,lEjoqmE8I4QlPtkg6spzllEllyo2,,,,,,,,,,,,,,,,,,7000.0,,,,63ea551bae34b6edcd5bb799,16:17:01,27/03/2024
html-keyboard-response,217,479339,0.0-89.0-3.0,,<div style='margin:auto;width: auto; font-size: 150%'><span style='font-weight: bold; font-size: 100px; color: green;'>+10 points!</span><br><br></div>,,delaylearn,learning,feedback_image_window,lEjoqmE8I4QlPtkg6spzllEllyo2,lEjoqmE8I4QlPtkg6spzllEllyo2,,,,,,,,,,,,,,,,,,,,,,63ea551bae34b6edcd5bb799,16:17:01,27/03/2024
html-keyboard-response,218,479855,0.0-90.0-0.0,,,,,,mood_trial_fixation,lEjoqmE8I4QlPtkg6spzllEllyo2,,,,,,,,,,,,,,,,,,,,,,,63ea551bae34b6edcd5bb799,16:17:01,27/03/2024
lmdlab-html-vas-response,219,484503,0.0-90.0-1.0,3628.0,How happy are you right now?,0.44290123456790126,delaylearn,learning,mood_trial,lEjoqmE8I4QlPtkg6spzllEllyo2,lEjoqmE8I4QlPtkg6spzllEllyo2,,,,,,,,,,,,,,,,,,,,"['Very unhappy', 'Very happy']",,63ea551bae34b6edcd5bb799,16:17:01,27/03/2024
html-keyboard-response,220,486714,0.0-91.0,,"<div style=""font-size:100px;"">+</div>",,delaylearn,learning,ITI,lEjoqmE8I4QlPtkg6spzllEllyo2,lEjoqmE8I4QlPtkg6spzllEllyo2,,,,,,,,,,,,,,,,,,,2198.0,,,63ea551bae34b6edcd5bb799,16:17:01,27/03/2024
html-keyboard-response,221,488267,0.0-92.0-0.0,1550.2000000476837,"<div style=""display: flex; flex-direction: column; align-items: center; margin-top: -40px;""><img src=""images/pattern_3.png"" style=""width: 234px; height: 230px; margin-top: -50px;""><div style=""display: flex; justify-content: space-between; margin-top: 33px;""><img src=""images/choice_trial_13.png"" style=""width: 408px; height: 417px; margin-right: 200px;""><img src=""images/choice_trial_10.png"" style=""width: 408px; height: 417px;""></div></div>",f,delaylearn,learning,trial,lEjoqmE8I4QlPtkg6spzllEllyo2,lEjoqmE8I4QlPtkg6spzllEllyo2,3.0,images/choice_trial_13.png,images/choice_trial_10.png,images/pattern_3.png,j,f,7000.0,13.0,10.0,2.0,0.0,40.0,1.0,0.0,13.0,220.0,,,,,,63ea551bae34b6edcd5bb799,16:17:01,27/03/2024
html-keyboard-response,222,489272,0.0-92.0-1.0,,"<div style=""display: flex; flex-direction: column; align-items: center; margin-top: -40px;""><img src=""images/pattern_3.png"" style=""width: 234px; height: 230px; margin-top: -50px;""><div style=""display: flex; justify-content: space-between; margin-top: 33px;""><img src=""images/choice_trial_13.png"" style=""width: 408px; height: 417px; margin-right: 608px;""></div></div>",,delaylearn,learning,display_response,lEjoqmE8I4QlPtkg6spzllEllyo2,lEjoqmE8I4QlPtkg6spzllEllyo2,,,,,,,,,,,,,,,,,chosen stimuli: images/choice_trial_13.png,,,,,63ea551bae34b6edcd5bb799,16:17:01,27/03/2024
html-keyboard-response,223,496276,0.0-92.0-2.0,,,,delaylearn,learning,feedback_duration_window,lEjoqmE8I4QlPtkg6spzllEllyo2,lEjoqmE8I4QlPtkg6spzllEllyo2,,,,,,,,,,,,,,,,,,7000.0,,,,63ea551bae34b6edcd5bb799,16:17:01,27/03/2024
html-keyboard-response,224,497788,0.0-92.0-3.0,,<div style='margin:auto;width: auto; font-size: 150%'><span style='font-weight: bold; font-size: 100px; color: red;'>0 points!</span><br><br></div>,,delaylearn,learning,feedback_image_window,lEjoqmE8I4QlPtkg6spzllEllyo2,lEjoqmE8I4QlPtkg6spzllEllyo2,,,,,,,,,,,,,,,,,,,,,,63ea551bae34b6edcd5bb799,16:17:01,27/03/2024
html-keyboard-response,225,499602,0.0-93.0,,"<div style=""font-size:100px;"">+</div>",,delaylearn,learning,ITI,lEjoqmE8I4QlPtkg6spzllEllyo2,lEjoqmE8I4QlPtkg6spzllEllyo2,,,,,,,,,,,,,,,,,,,1810.0,,,63ea551bae34b6edcd5bb799,16:17:01,27/03/2024
html-keyboard-response,226,500928,0.0-94.0-0.0,1322.6999999284744,"<div style=""display: flex; flex-direction: column; align-items: center; margin-top: -40px;""><img src=""images/pattern_7.png"" style=""width: 234px; height: 230px; margin-top: -50px;""><div style=""display: flex; justify-content: space-between; margin-top: 33px;""><img src=""images/choice_trial_12.png"" style=""width: 408px; height: 417px; margin-right: 200px;""><img src=""images/choice_trial_6.png"" style=""width: 408px; height: 417px;""></div></div>",j,delaylearn,learning,trial,lEjoqmE8I4QlPtkg6spzllEllyo2,lEjoqmE8I4QlPtkg6spzllEllyo2,3.0,images/choice_trial_12.png,images/choice_trial_6.png,images/pattern_7.png,j,j,750.0,12.0,6.0,6.0,1.0,41.0,1.0,1.0,6.0,230.0,,,,,,63ea551bae34b6edcd5bb799,16:17:01,27/03/2024
html-keyboard-response,227,501938,0.0-94.0-1.0,,"<div style=""display: flex; flex-direction: column; align-items: center; margin-top: -40px;""><img src=""images/pattern_7.png"" style=""width: 234px; height: 230px; margin-top: -50px;""><div style=""display: flex; justify-content: space-between; margin-top: 33px;""><img src=""images/choice_trial_6.png"" style=""width: 408px; height: 417px; margin-left:608px;""></div></div>",,delaylearn,learning,display_response,lEjoqmE8I4QlPtkg6spzllEllyo2,lEjoqmE8I4QlPtkg6spzllEllyo2,,,,,,,,,,,,,,,,,chosen stimuli: images/choice_trial_6.png,,,,,63ea551bae34b6edcd5bb799,16:17:01,27/03/2024
html-keyboard-response,228,502704,0.0-94.0-2.0,,,,delaylearn,learning,feedback_duration_window,lEjoqmE8I4QlPtkg6spzllEllyo2,lEjoqmE8I4QlPtkg6spzllEllyo2,,,,,,,,,,,,,,,,,,750.0,,,,63ea551bae34b6edcd5bb799,16:17:01,27/03/2024
html-keyboard-response,229,504206,0.0-94.0-3.0,,<div style='margin:auto;width: auto; font-size: 150%'><span style='font-weight: bold; font-size: 100px; color: green;'>+10 points!</span><br><br></div>,,delaylearn,learning,feedback_image_window,lEjoqmE8I4QlPtkg6spzllEllyo2,lEjoqmE8I4QlPtkg6spzllEllyo2,,,,,,,,,,,,,,,,,,,,,,63ea551bae34b6edcd5bb799,16:17:01,27/03/2024
html-keyboard-response,230,506689,0.0-95.0,,"<div style=""font-size:100px;"">+</div>",,delaylearn,learning,ITI,lEjoqmE8I4QlPtkg6spzllEllyo2,lEjoqmE8I4QlPtkg6spzllEllyo2,,,,,,,,,,,,,,,,,,,2477.0,,,63ea551bae34b6edcd5bb799,16:17:01,27/03/2024
